onset	duration	response_time_ms	trial_type	learning_stage	stimulus	response_port
0.0	1.419	1419.4	incongruent	Block1	incongruent/STIM_000.jpg	99
4.049	0.949	949.0	incongruent	Block1	incongruent/STIM_000.jpg	99
7.739	1.066	1065.7	incongruent	Block1	incongruent/STIM_000.jpg	99
12.42	0.95	949.9	incongruent	Block1	incongruent/STIM_000.jpg	100
15.73	1.097	1096.6	incongruent	Block1	incongruent/STIM_000.jpg	100
20.463	0.909	908.6	incongruent	Block1	incongruent/STIM_001.jpg	99
25.049	1.049	1049.4	incongruent	Block1	incongruent/STIM_001.jpg	100
28.208	1.166	1165.9	incongruent	Block1	incongruent/STIM_001.jpg	100
32.648	0.824	823.9	incongruent	Block1	incongruent/STIM_001.jpg	99
35.659	0.908	908.5	incongruent	Block1	incongruent/STIM_001.jpg	100
38.784	1.272	1271.5	incongruent	Block1	incongruent/STIM_002.jpg	100
43.39	1.311	1311.3	incongruent	Block1	incongruent/STIM_002.jpg	100
47.43	0.628	628.0	incongruent	Block1	incongruent/STIM_002.jpg	99
51.079	0.832	832.2	incongruent	Block1	incongruent/STIM_002.jpg	100
55.628	1.051	1051.1	incongruent	Block1	incongruent/STIM_002.jpg	100
60.331	1.399	1399.1	incongruent	Block1	incongruent/STIM_003.jpg	100
65.613	0.694	694.1	incongruent	Block1	incongruent/STIM_003.jpg	99
70.226	0.671	670.9	incongruent	Block1	incongruent/STIM_003.jpg	99
74.293	0.914	914.2	incongruent	Block1	incongruent/STIM_003.jpg	99
77.311	0.657	656.7	incongruent	Block1	incongruent/STIM_003.jpg	99
81.895	0.711	710.6	incongruent	Block1	incongruent/STIM_004.jpg	99
86.571	0.673	672.9	incongruent	Block1	incongruent/STIM_004.jpg	99
90.132	0.639	638.6	incongruent	Block1	incongruent/STIM_004.jpg	100
93.95	1.162	1161.6	incongruent	Block1	incongruent/STIM_004.jpg	99
99.096	0.915	915.4	incongruent	Block1	incongruent/STIM_004.jpg	100
103.823	1.023	1022.8	incongruent	Block1	incongruent/STIM_005.jpg	99
108.424	0.795	794.9	incongruent	Block1	incongruent/STIM_005.jpg	100
111.248	1.203	1202.9	incongruent	Block1	incongruent/STIM_005.jpg	99
114.744	0.655	655.0	incongruent	Block1	incongruent/STIM_005.jpg	99
119.181	0.609	608.7	incongruent	Block1	incongruent/STIM_005.jpg	99
121.994	1.426	1425.9	incongruent	Block1	incongruent/STIM_006.jpg	100
126.103	1.372	1371.6	incongruent	Block1	incongruent/STIM_006.jpg	99
129.768	0.911	911.0	incongruent	Block1	incongruent/STIM_006.jpg	99
133.143	0.882	881.6	incongruent	Block1	incongruent/STIM_006.jpg	100
137.95	0.556	556.4	incongruent	Block1	incongruent/STIM_006.jpg	99
141.886	1.223	1223.3	incongruent	Block1	incongruent/STIM_007.jpg	99
146.206	1.186	1186.5	incongruent	Block1	incongruent/STIM_007.jpg	100
150.32	0.997	997.0	incongruent	Block1	incongruent/STIM_007.jpg	100
153.971	1.216	1216.4	incongruent	Block1	incongruent/STIM_007.jpg	99
157.297	0.585	584.6	incongruent	Block1	incongruent/STIM_007.jpg	99
160.847	0.733	732.9	incongruent	Block1	incongruent/STIM_008.jpg	99
165.086	1.268	1268.0	incongruent	Block1	incongruent/STIM_008.jpg	100
169.262	1.156	1156.5	incongruent	Block1	incongruent/STIM_008.jpg	99
172.667	0.725	725.1	incongruent	Block1	incongruent/STIM_008.jpg	100
175.964	0.548	547.6	incongruent	Block1	incongruent/STIM_008.jpg	99
180.271	0.799	799.1	incongruent	Block1	incongruent/STIM_009.jpg	99
184.9	1.214	1214.1	incongruent	Block1	incongruent/STIM_009.jpg	100
188.999	0.884	884.5	incongruent	Block1	incongruent/STIM_009.jpg	99
193.842	1.166	1166.1	incongruent	Block1	incongruent/STIM_009.jpg	99
197.755	0.629	629.3	incongruent	Block1	incongruent/STIM_009.jpg	99
201.453	0.814	814.5	incongruent	Block1	incongruent/STIM_010.jpg	99
205.561	1.176	1175.7	incongruent	Block1	incongruent/STIM_010.jpg	100
209.494	0.842	842.4	incongruent	Block1	incongruent/STIM_010.jpg	100
212.53	1.132	1131.5	incongruent	Block1	incongruent/STIM_010.jpg	100
217.212	0.746	745.8	incongruent	Block1	incongruent/STIM_010.jpg	99
220.137	1.225	1225.0	incongruent	Block1	incongruent/STIM_011.jpg	100
223.829	0.751	750.9	incongruent	Block1	incongruent/STIM_011.jpg	100
226.953	0.9	900.1	incongruent	Block1	incongruent/STIM_011.jpg	100
231.67	0.83	829.9	incongruent	Block1	incongruent/STIM_011.jpg	100
236.403	1.152	1151.6	incongruent	Block1	incongruent/STIM_011.jpg	100
240.993	1.066	1065.7	incongruent	Block1	incongruent/STIM_012.jpg	100
245.593	1.234	1234.2	incongruent	Block1	incongruent/STIM_012.jpg	99
248.931	1.262	1261.5	incongruent	Block1	incongruent/STIM_012.jpg	99
253.118	0.805	804.6	incongruent	Block1	incongruent/STIM_012.jpg	99
257.808	0.718	717.8	incongruent	Block1	incongruent/STIM_012.jpg	99
261.571	1.22	1220.3	incongruent	Block1	incongruent/STIM_013.jpg	100
266.436	1.253	1252.9	incongruent	Block1	incongruent/STIM_013.jpg	100
271.664	1.237	1236.6	incongruent	Block1	incongruent/STIM_013.jpg	99
276.123	0.73	730.2	incongruent	Block1	incongruent/STIM_013.jpg	99
280.642	0.6	599.6	incongruent	Block1	incongruent/STIM_013.jpg	100
285.131	1.278	1278.5	incongruent	Block1	incongruent/STIM_014.jpg	99
288.912	1.03	1030.1	incongruent	Block1	incongruent/STIM_014.jpg	100
292.324	0.801	801.3	incongruent	Block1	incongruent/STIM_014.jpg	99
296.999	0.7	700.1	incongruent	Block1	incongruent/STIM_014.jpg	99
301.185	0.722	722.4	incongruent	Block1	incongruent/STIM_014.jpg	99
304.613	1.142	1141.7	incongruent	Block1	incongruent/STIM_015.jpg	99
308.306	0.875	875.4	incongruent	Block1	incongruent/STIM_015.jpg	100
312.401	0.984	983.6	incongruent	Block1	incongruent/STIM_015.jpg	100
315.703	0.706	706.1	incongruent	Block1	incongruent/STIM_015.jpg	99
319.273	1.063	1062.7	incongruent	Block1	incongruent/STIM_015.jpg	99
322.625	1.164	1164.1	incongruent	Block1	incongruent/STIM_016.jpg	99
327.713	0.938	938.0	incongruent	Block1	incongruent/STIM_016.jpg	99
331.216	1.016	1015.5	incongruent	Block1	incongruent/STIM_016.jpg	100
334.819	1.183	1182.6	incongruent	Block1	incongruent/STIM_016.jpg	99
338.093	1.146	1145.6	incongruent	Block1	incongruent/STIM_016.jpg	99
341.673	1.338	1338.0	incongruent	Block1	incongruent/STIM_017.jpg	100
346.266	0.782	782.0	incongruent	Block1	incongruent/STIM_017.jpg	99
349.471	0.682	682.2	incongruent	Block1	incongruent/STIM_017.jpg	100
353.029	0.87	870.0	incongruent	Block1	incongruent/STIM_017.jpg	100
356.41	0.686	685.8	incongruent	Block1	incongruent/STIM_017.jpg	100
360.583	1.059	1058.6	incongruent	Block1	incongruent/STIM_018.jpg	100
365.212	0.75	749.5	incongruent	Block1	incongruent/STIM_018.jpg	99
368.848	0.847	847.4	incongruent	Block1	incongruent/STIM_018.jpg	100
372.055	0.841	841.2	incongruent	Block1	incongruent/STIM_018.jpg	99
376.87	1.014	1014.1	incongruent	Block1	incongruent/STIM_018.jpg	100
380.131	1.18	1179.7	incongruent	Block1	incongruent/STIM_019.jpg	100
384.002	1.364	1364.2	incongruent	Block1	incongruent/STIM_019.jpg	100
387.702	0.864	864.0	incongruent	Block1	incongruent/STIM_019.jpg	99
392.301	0.946	946.2	incongruent	Block1	incongruent/STIM_019.jpg	100
396.794	1.123	1122.6	incongruent	Block1	incongruent/STIM_019.jpg	100
401.645	0.994	994.1	incongruent	Block1	incongruent/STIM_020.jpg	99
405.094	1.282	1282.5	incongruent	Block1	incongruent/STIM_020.jpg	99
408.445	1.163	1162.9	incongruent	Block1	incongruent/STIM_020.jpg	100
413.071	0.617	616.8	incongruent	Block1	incongruent/STIM_020.jpg	100
416.506	1.154	1154.5	incongruent	Block1	incongruent/STIM_020.jpg	99
420.383	1.109	1109.2	incongruent	Block1	incongruent/STIM_021.jpg	100
423.574	0.972	971.9	incongruent	Block1	incongruent/STIM_021.jpg	99
427.081	0.748	747.9	incongruent	Block1	incongruent/STIM_021.jpg	100
430.398	0.82	819.7	incongruent	Block1	incongruent/STIM_021.jpg	99
434.406	1.019	1018.6	incongruent	Block1	incongruent/STIM_021.jpg	100
438.147	1.231	1230.8	incongruent	Block1	incongruent/STIM_022.jpg	99
441.715	0.948	947.6	incongruent	Block1	incongruent/STIM_022.jpg	100
445.166	1.293	1293.1	incongruent	Block1	incongruent/STIM_022.jpg	99
448.544	0.737	736.6	incongruent	Block1	incongruent/STIM_022.jpg	100
452.583	0.681	681.1	incongruent	Block1	incongruent/STIM_022.jpg	99
457.007	1.207	1207.0	incongruent	Block1	incongruent/STIM_023.jpg	99
460.471	1.278	1277.7	incongruent	Block1	incongruent/STIM_023.jpg	99
464.719	0.638	637.8	incongruent	Block1	incongruent/STIM_023.jpg	99
468.123	1.23	1230.0	incongruent	Block1	incongruent/STIM_023.jpg	99
471.699	1.03	1030.4	incongruent	Block1	incongruent/STIM_023.jpg	100
475.364	1.158	1157.7	incongruent	Block1	incongruent/STIM_024.jpg	100
480.515	1.38	1380.5	incongruent	Block1	incongruent/STIM_024.jpg	100
484.525	0.913	913.2	incongruent	Block1	incongruent/STIM_024.jpg	100
489.235	0.825	824.9	incongruent	Block1	incongruent/STIM_024.jpg	100
492.522	1.021	1020.9	incongruent	Block1	incongruent/STIM_024.jpg	100
496.854	1.155	1155.2	incongruent	Block1	incongruent/STIM_025.jpg	99
501.574	1.304	1304.2	incongruent	Block1	incongruent/STIM_025.jpg	99
506.836	0.832	831.9	incongruent	Block1	incongruent/STIM_025.jpg	100
510.031	0.804	803.6	incongruent	Block1	incongruent/STIM_025.jpg	99
513.353	0.928	928.2	incongruent	Block1	incongruent/STIM_025.jpg	99
517.037	0.76	760.0	incongruent	Block1	incongruent/STIM_026.jpg	99
519.892	0.974	974.0	incongruent	Block1	incongruent/STIM_026.jpg	99
524.42	1.055	1055.4	incongruent	Block1	incongruent/STIM_026.jpg	100
528.547	1.052	1052.1	incongruent	Block1	incongruent/STIM_026.jpg	99
532.493	1.082	1081.5	incongruent	Block1	incongruent/STIM_026.jpg	100
537.414	1.028	1028.0	incongruent	Block1	incongruent/STIM_027.jpg	99
540.734	1.058	1057.7	incongruent	Block1	incongruent/STIM_027.jpg	99
544.974	0.894	894.5	incongruent	Block1	incongruent/STIM_027.jpg	99
549.057	1.237	1236.9	incongruent	Block1	incongruent/STIM_027.jpg	100
553.965	0.728	727.9	incongruent	Block1	incongruent/STIM_027.jpg	100
558.14	1.117	1116.7	incongruent	Block1	incongruent/STIM_028.jpg	99
563.106	0.867	867.2	incongruent	Block1	incongruent/STIM_028.jpg	100
567.11	0.975	975.0	incongruent	Block1	incongruent/STIM_028.jpg	99
570.37	1.142	1142.1	incongruent	Block1	incongruent/STIM_028.jpg	100
575.236	1.028	1028.4	incongruent	Block1	incongruent/STIM_028.jpg	100
579.063	1.124	1123.9	incongruent	Block1	incongruent/STIM_029.jpg	100
582.303	1.332	1332.2	incongruent	Block1	incongruent/STIM_029.jpg	99
586.372	0.674	674.5	incongruent	Block1	incongruent/STIM_029.jpg	99
589.469	0.709	708.6	incongruent	Block1	incongruent/STIM_029.jpg	100
592.812	0.866	865.9	incongruent	Block1	incongruent/STIM_029.jpg	99
596.118	0.713	712.6	congruent	Block1	congruent/STIM_000.jpg	99
598.952	0.659	659.4	congruent	Block1	congruent/STIM_000.jpg	100
603.218	0.51	510.2	congruent	Block1	congruent/STIM_000.jpg	99
607.416	0.672	671.8	congruent	Block1	congruent/STIM_000.jpg	100
610.377	0.532	532.2	congruent	Block1	congruent/STIM_000.jpg	100
614.727	0.564	564.1	congruent	Block1	congruent/STIM_001.jpg	100
618.319	0.757	756.7	congruent	Block1	congruent/STIM_001.jpg	99
621.507	0.617	617.2	congruent	Block1	congruent/STIM_001.jpg	100
625.911	0.618	618.2	congruent	Block1	congruent/STIM_001.jpg	99
629.4	0.85	850.0	congruent	Block1	congruent/STIM_001.jpg	100
633.574	0.669	668.9	congruent	Block1	congruent/STIM_002.jpg	99
636.352	0.526	525.5	congruent	Block1	congruent/STIM_002.jpg	100
639.429	0.567	566.9	congruent	Block1	congruent/STIM_002.jpg	99
643.832	0.77	770.5	congruent	Block1	congruent/STIM_002.jpg	100
648.54	0.54	540.0	congruent	Block1	congruent/STIM_002.jpg	100
652.098	0.663	663.1	congruent	Block1	congruent/STIM_003.jpg	99
656.118	0.724	724.1	congruent	Block1	congruent/STIM_003.jpg	99
660.599	0.825	825.0	congruent	Block1	congruent/STIM_003.jpg	99
664.265	0.531	530.9	congruent	Block1	congruent/STIM_003.jpg	100
668.206	0.696	696.0	congruent	Block1	congruent/STIM_003.jpg	99
671.397	0.696	696.0	congruent	Block1	congruent/STIM_004.jpg	100
674.122	0.62	619.5	congruent	Block1	congruent/STIM_004.jpg	99
678.607	0.774	774.4	congruent	Block1	congruent/STIM_004.jpg	99
682.736	0.675	675.0	congruent	Block1	congruent/STIM_004.jpg	100
685.52	0.827	826.6	congruent	Block1	congruent/STIM_004.jpg	100
689.123	0.573	573.3	congruent	Block1	congruent/STIM_005.jpg	100
693.505	0.863	862.6	congruent	Block1	congruent/STIM_005.jpg	99
696.539	0.561	561.1	congruent	Block1	congruent/STIM_005.jpg	99
701.063	0.72	719.8	congruent	Block1	congruent/STIM_005.jpg	100
704.065	0.862	861.7	congruent	Block1	congruent/STIM_005.jpg	99
708.86	0.533	533.0	congruent	Block1	congruent/STIM_006.jpg	99
711.956	0.761	760.6	congruent	Block1	congruent/STIM_006.jpg	99
715.369	0.746	745.5	congruent	Block1	congruent/STIM_006.jpg	99
718.427	0.788	788.1	congruent	Block1	congruent/STIM_006.jpg	100
721.931	0.717	717.2	congruent	Block1	congruent/STIM_006.jpg	99
725.752	0.786	785.5	congruent	Block1	congruent/STIM_007.jpg	99
728.58	0.533	533.4	congruent	Block1	congruent/STIM_007.jpg	100
731.426	0.794	793.8	congruent	Block1	congruent/STIM_007.jpg	99
735.209	0.815	815.0	congruent	Block1	congruent/STIM_007.jpg	99
739.791	0.813	812.6	congruent	Block1	congruent/STIM_007.jpg	100
742.989	0.599	599.3	congruent	Block1	congruent/STIM_008.jpg	100
745.757	0.578	578.3	congruent	Block1	congruent/STIM_008.jpg	100
750.272	0.686	685.6	congruent	Block1	congruent/STIM_008.jpg	100
754.751	0.643	643.3	congruent	Block1	congruent/STIM_008.jpg	99
757.694	0.732	731.6	congruent	Block1	congruent/STIM_008.jpg	100
760.514	0.718	718.1	congruent	Block1	congruent/STIM_009.jpg	100
763.909	0.779	778.9	congruent	Block1	congruent/STIM_009.jpg	99
766.874	0.674	673.9	congruent	Block1	congruent/STIM_009.jpg	100
769.851	0.846	846.1	congruent	Block1	congruent/STIM_009.jpg	99
773.608	0.792	792.2	congruent	Block1	congruent/STIM_009.jpg	99
777.165	0.745	745.0	congruent	Block1	congruent/STIM_010.jpg	100
780.551	0.836	836.0	congruent	Block1	congruent/STIM_010.jpg	99
785.092	0.682	682.4	congruent	Block1	congruent/STIM_010.jpg	99
788.936	0.815	814.7	congruent	Block1	congruent/STIM_010.jpg	100
793.543	0.755	754.6	congruent	Block1	congruent/STIM_010.jpg	99
796.714	0.867	867.2	congruent	Block1	congruent/STIM_011.jpg	99
799.921	0.67	670.2	congruent	Block1	congruent/STIM_011.jpg	99
804.009	0.654	653.7	congruent	Block1	congruent/STIM_011.jpg	99
807.777	0.498	497.6	congruent	Block1	congruent/STIM_011.jpg	100
810.554	0.562	561.6	congruent	Block1	congruent/STIM_011.jpg	99
814.101	0.746	745.5	congruent	Block1	congruent/STIM_012.jpg	99
818.094	0.611	610.9	congruent	Block1	congruent/STIM_012.jpg	100
822.332	0.577	577.0	congruent	Block1	congruent/STIM_012.jpg	99
826.879	0.794	794.5	congruent	Block1	congruent/STIM_012.jpg	100
829.883	0.576	575.5	congruent	Block1	congruent/STIM_012.jpg	99
832.488	0.657	656.9	congruent	Block1	congruent/STIM_013.jpg	100
836.365	0.501	501.3	congruent	Block1	congruent/STIM_013.jpg	99
839.967	0.874	874.0	congruent	Block1	congruent/STIM_013.jpg	100
843.63	0.715	715.3	congruent	Block1	congruent/STIM_013.jpg	100
847.742	0.515	515.3	congruent	Block1	congruent/STIM_013.jpg	100
851.74	0.679	678.8	congruent	Block1	congruent/STIM_014.jpg	100
855.186	0.73	729.9	congruent	Block1	congruent/STIM_014.jpg	100
858.842	0.812	811.7	congruent	Block1	congruent/STIM_014.jpg	100
862.163	0.542	542.3	congruent	Block1	congruent/STIM_014.jpg	100
865.728	0.548	548.0	congruent	Block1	congruent/STIM_014.jpg	100
869.754	0.566	566.3	congruent	Block1	congruent/STIM_015.jpg	100
874.071	0.725	725.4	congruent	Block1	congruent/STIM_015.jpg	100
878.491	0.835	835.0	congruent	Block1	congruent/STIM_015.jpg	99
882.963	0.703	703.0	congruent	Block1	congruent/STIM_015.jpg	99
886.463	0.605	604.6	congruent	Block1	congruent/STIM_015.jpg	99
890.315	0.63	630.0	congruent	Block1	congruent/STIM_016.jpg	100
893.944	0.491	491.2	congruent	Block1	congruent/STIM_016.jpg	100
897.989	0.614	613.9	congruent	Block1	congruent/STIM_016.jpg	99
901.355	0.702	702.0	congruent	Block1	congruent/STIM_016.jpg	99
904.969	0.613	612.6	congruent	Block1	congruent/STIM_016.jpg	99
908.771	0.518	518.4	congruent	Block1	congruent/STIM_017.jpg	99
911.682	0.688	687.9	congruent	Block1	congruent/STIM_017.jpg	99
915.192	0.768	767.6	congruent	Block1	congruent/STIM_017.jpg	100
919.27	0.736	736.5	congruent	Block1	congruent/STIM_017.jpg	100
922.544	0.653	652.6	congruent	Block1	congruent/STIM_017.jpg	99
925.245	0.656	656.2	congruent	Block1	congruent/STIM_018.jpg	99
928.93	0.57	569.7	congruent	Block1	congruent/STIM_018.jpg	100
933.085	0.864	863.8	congruent	Block1	congruent/STIM_018.jpg	100
936.763	0.646	645.8	congruent	Block1	congruent/STIM_018.jpg	100
939.758	0.678	677.8	congruent	Block1	congruent/STIM_018.jpg	100
942.721	0.873	873.3	congruent	Block1	congruent/STIM_019.jpg	99
945.891	0.786	786.4	congruent	Block1	congruent/STIM_019.jpg	100
950.533	0.635	635.1	congruent	Block1	congruent/STIM_019.jpg	100
953.399	0.683	682.9	congruent	Block1	congruent/STIM_019.jpg	99
956.161	0.554	553.6	congruent	Block1	congruent/STIM_019.jpg	100
960.513	0.695	695.0	congruent	Block1	congruent/STIM_020.jpg	100
964.164	0.805	805.3	congruent	Block1	congruent/STIM_020.jpg	99
967.729	0.864	864.5	congruent	Block1	congruent/STIM_020.jpg	99
971.101	0.835	835.1	congruent	Block1	congruent/STIM_020.jpg	99
974.101	0.625	624.7	congruent	Block1	congruent/STIM_020.jpg	99
977.414	0.616	615.5	congruent	Block1	congruent/STIM_021.jpg	99
980.875	0.667	666.9	congruent	Block1	congruent/STIM_021.jpg	99
984.651	0.844	843.8	congruent	Block1	congruent/STIM_021.jpg	99
988.401	0.745	744.7	congruent	Block1	congruent/STIM_021.jpg	99
991.406	0.709	709.0	congruent	Block1	congruent/STIM_021.jpg	99
994.829	0.681	680.9	congruent	Block1	congruent/STIM_022.jpg	100
997.621	0.559	559.1	congruent	Block1	congruent/STIM_022.jpg	99
1002.128	0.855	854.9	congruent	Block1	congruent/STIM_022.jpg	100
1005.096	0.672	671.5	congruent	Block1	congruent/STIM_022.jpg	100
1009.46	0.656	656.4	congruent	Block1	congruent/STIM_022.jpg	100
1012.116	0.817	817.0	congruent	Block1	congruent/STIM_023.jpg	99
1016.695	0.677	677.4	congruent	Block1	congruent/STIM_023.jpg	99
1019.487	0.748	747.9	congruent	Block1	congruent/STIM_023.jpg	100
1022.901	0.516	515.8	congruent	Block1	congruent/STIM_023.jpg	100
1025.96	0.865	864.9	congruent	Block1	congruent/STIM_023.jpg	100
1030.381	0.795	795.1	congruent	Block1	congruent/STIM_024.jpg	99
1034.714	0.744	744.3	congruent	Block1	congruent/STIM_024.jpg	99
1039.347	0.571	570.7	congruent	Block1	congruent/STIM_024.jpg	100
1043.304	0.841	841.0	congruent	Block1	congruent/STIM_024.jpg	100
1047.175	0.513	512.6	congruent	Block1	congruent/STIM_024.jpg	99
1050.65	0.825	825.0	congruent	Block1	congruent/STIM_025.jpg	100
1055.105	0.639	639.2	congruent	Block1	congruent/STIM_025.jpg	99
1058.433	0.559	559.2	congruent	Block1	congruent/STIM_025.jpg	100
1062.603	0.693	693.2	congruent	Block1	congruent/STIM_025.jpg	100
1066.714	0.542	542.3	congruent	Block1	congruent/STIM_025.jpg	100
1071.197	0.6	599.9	congruent	Block1	congruent/STIM_026.jpg	100
1075.078	0.727	727.2	congruent	Block1	congruent/STIM_026.jpg	100
1078.374	0.87	870.2	congruent	Block1	congruent/STIM_026.jpg	100
1083.075	0.652	651.8	congruent	Block1	congruent/STIM_026.jpg	100
1086.139	0.556	555.9	congruent	Block1	congruent/STIM_026.jpg	99
1089.138	0.613	612.9	congruent	Block1	congruent/STIM_027.jpg	99
1092.357	0.814	813.6	congruent	Block1	congruent/STIM_027.jpg	100
1097.063	0.723	723.3	congruent	Block1	congruent/STIM_027.jpg	99
1100.587	0.812	812.5	congruent	Block1	congruent/STIM_027.jpg	100
1104.88	0.665	665.0	congruent	Block1	congruent/STIM_027.jpg	100
1109.257	0.641	641.0	congruent	Block1	congruent/STIM_028.jpg	99
1112.409	0.592	592.2	congruent	Block1	congruent/STIM_028.jpg	99
1116.29	0.863	862.8	congruent	Block1	congruent/STIM_028.jpg	100
1120.892	0.553	552.8	congruent	Block1	congruent/STIM_028.jpg	100
1123.691	0.872	872.5	congruent	Block1	congruent/STIM_028.jpg	99
1127.334	0.728	728.2	congruent	Block1	congruent/STIM_029.jpg	100
1130.433	0.649	649.3	congruent	Block1	congruent/STIM_029.jpg	99
1133.435	0.726	725.9	congruent	Block1	congruent/STIM_029.jpg	99
1137.62	0.631	630.7	congruent	Block1	congruent/STIM_029.jpg	100
1141.778	0.784	783.9	congruent	Block1	congruent/STIM_029.jpg	100
1144.763	1.166	1165.9	incongruent	Block2	incongruent/STIM_000.jpg	99
1148.566	1.072	1072.5	incongruent	Block2	incongruent/STIM_000.jpg	99
1153.63	0.641	641.3	incongruent	Block2	incongruent/STIM_000.jpg	99
1157.145	0.659	659.3	incongruent	Block2	incongruent/STIM_000.jpg	99
1159.983	0.875	875.4	incongruent	Block2	incongruent/STIM_000.jpg	100
1163.726	0.721	721.3	incongruent	Block2	incongruent/STIM_001.jpg	99
1167.385	0.734	734.2	incongruent	Block2	incongruent/STIM_001.jpg	100
1170.974	0.952	952.3	incongruent	Block2	incongruent/STIM_001.jpg	100
1174.759	0.581	581.1	incongruent	Block2	incongruent/STIM_001.jpg	99
1177.777	0.507	506.6	incongruent	Block2	incongruent/STIM_001.jpg	100
1181.772	1.056	1056.3	incongruent	Block2	incongruent/STIM_002.jpg	100
1186.735	1.057	1056.6	incongruent	Block2	incongruent/STIM_002.jpg	100
1190.775	0.908	907.8	incongruent	Block2	incongruent/STIM_002.jpg	99
1193.998	0.925	924.8	incongruent	Block2	incongruent/STIM_002.jpg	99
1197.829	0.85	849.9	incongruent	Block2	incongruent/STIM_002.jpg	100
1202.614	0.837	836.8	incongruent	Block2	incongruent/STIM_003.jpg	99
1206.747	1.153	1153.3	incongruent	Block2	incongruent/STIM_003.jpg	100
1210.171	0.565	565.0	incongruent	Block2	incongruent/STIM_003.jpg	100
1212.846	0.783	782.8	incongruent	Block2	incongruent/STIM_003.jpg	100
1216.546	0.545	544.8	incongruent	Block2	incongruent/STIM_003.jpg	99
1219.097	0.749	748.7	incongruent	Block2	incongruent/STIM_004.jpg	100
1223.616	1.129	1128.8	incongruent	Block2	incongruent/STIM_004.jpg	99
1226.907	0.547	546.9	incongruent	Block2	incongruent/STIM_004.jpg	99
1230.838	0.851	851.4	incongruent	Block2	incongruent/STIM_004.jpg	100
1233.919	1.006	1005.8	incongruent	Block2	incongruent/STIM_004.jpg	100
1238.536	0.798	798.4	incongruent	Block2	incongruent/STIM_005.jpg	100
1242.362	0.788	788.4	incongruent	Block2	incongruent/STIM_005.jpg	100
1246.996	0.98	980.0	incongruent	Block2	incongruent/STIM_005.jpg	99
1250.223	0.642	641.8	incongruent	Block2	incongruent/STIM_005.jpg	100
1254.604	0.603	603.2	incongruent	Block2	incongruent/STIM_005.jpg	100
1257.998	1.085	1085.2	incongruent	Block2	incongruent/STIM_006.jpg	100
1262.974	1.016	1016.0	incongruent	Block2	incongruent/STIM_006.jpg	100
1267.722	0.628	628.4	incongruent	Block2	incongruent/STIM_006.jpg	100
1271.659	0.657	657.4	incongruent	Block2	incongruent/STIM_006.jpg	100
1275.062	0.766	765.5	incongruent	Block2	incongruent/STIM_006.jpg	99
1278.674	0.876	875.9	incongruent	Block2	incongruent/STIM_007.jpg	99
1281.888	0.908	907.8	incongruent	Block2	incongruent/STIM_007.jpg	99
1286.578	0.616	616.2	incongruent	Block2	incongruent/STIM_007.jpg	100
1291.067	0.794	794.0	incongruent	Block2	incongruent/STIM_007.jpg	99
1294.602	0.747	747.2	incongruent	Block2	incongruent/STIM_007.jpg	99
1297.787	0.726	725.8	incongruent	Block2	incongruent/STIM_008.jpg	99
1301.584	0.757	756.6	incongruent	Block2	incongruent/STIM_008.jpg	99
1306.02	0.781	780.8	incongruent	Block2	incongruent/STIM_008.jpg	100
1310.272	0.584	584.1	incongruent	Block2	incongruent/STIM_008.jpg	99
1314.823	0.602	601.5	incongruent	Block2	incongruent/STIM_008.jpg	99
1319.141	0.905	904.9	incongruent	Block2	incongruent/STIM_009.jpg	100
1322.504	1.164	1164.3	incongruent	Block2	incongruent/STIM_009.jpg	100
1327.619	0.832	832.5	incongruent	Block2	incongruent/STIM_009.jpg	99
1331.149	0.488	488.5	incongruent	Block2	incongruent/STIM_009.jpg	100
1335.117	0.94	939.7	incongruent	Block2	incongruent/STIM_009.jpg	100
1339.72	1.199	1198.8	incongruent	Block2	incongruent/STIM_010.jpg	99
1343.634	0.644	643.7	incongruent	Block2	incongruent/STIM_010.jpg	99
1347.731	0.594	593.6	incongruent	Block2	incongruent/STIM_010.jpg	100
1351.261	0.933	932.8	incongruent	Block2	incongruent/STIM_010.jpg	100
1355.729	0.871	871.0	incongruent	Block2	incongruent/STIM_010.jpg	100
1359.424	0.743	743.3	incongruent	Block2	incongruent/STIM_011.jpg	99
1363.699	1.11	1109.7	incongruent	Block2	incongruent/STIM_011.jpg	100
1368.408	0.583	583.2	incongruent	Block2	incongruent/STIM_011.jpg	100
1371.459	0.724	724.2	incongruent	Block2	incongruent/STIM_011.jpg	99
1374.567	0.575	575.0	incongruent	Block2	incongruent/STIM_011.jpg	99
1378.591	1.108	1107.9	incongruent	Block2	incongruent/STIM_012.jpg	100
1383.312	0.657	656.6	incongruent	Block2	incongruent/STIM_012.jpg	100
1386.84	0.71	710.0	incongruent	Block2	incongruent/STIM_012.jpg	100
1391.2	0.835	835.2	incongruent	Block2	incongruent/STIM_012.jpg	100
1395.195	0.604	604.1	incongruent	Block2	incongruent/STIM_012.jpg	100
1397.936	0.754	753.6	incongruent	Block2	incongruent/STIM_013.jpg	99
1402.141	0.68	680.4	incongruent	Block2	incongruent/STIM_013.jpg	100
1405.581	0.751	751.1	incongruent	Block2	incongruent/STIM_013.jpg	100
1409.738	0.704	704.5	incongruent	Block2	incongruent/STIM_013.jpg	100
1413.115	1.011	1010.7	incongruent	Block2	incongruent/STIM_013.jpg	100
1416.971	0.65	650.0	incongruent	Block2	incongruent/STIM_014.jpg	100
1420.105	0.866	865.5	incongruent	Block2	incongruent/STIM_014.jpg	99
1424.301	0.786	786.3	incongruent	Block2	incongruent/STIM_014.jpg	100
1428.443	0.976	975.7	incongruent	Block2	incongruent/STIM_014.jpg	99
1432.115	0.706	705.8	incongruent	Block2	incongruent/STIM_014.jpg	99
1435.733	1.074	1074.4	incongruent	Block2	incongruent/STIM_015.jpg	100
1439.739	0.716	716.4	incongruent	Block2	incongruent/STIM_015.jpg	99
1442.793	0.709	708.8	incongruent	Block2	incongruent/STIM_015.jpg	100
1446.875	0.578	578.1	incongruent	Block2	incongruent/STIM_015.jpg	99
1449.671	0.779	779.1	incongruent	Block2	incongruent/STIM_015.jpg	99
1453.406	0.663	662.9	incongruent	Block2	incongruent/STIM_016.jpg	100
1456.307	1.068	1068.4	incongruent	Block2	incongruent/STIM_016.jpg	99
1460.905	0.939	938.6	incongruent	Block2	incongruent/STIM_016.jpg	99
1464.587	0.57	570.4	incongruent	Block2	incongruent/STIM_016.jpg	100
1468.609	0.582	581.8	incongruent	Block2	incongruent/STIM_016.jpg	99
1471.76	1.115	1115.1	incongruent	Block2	incongruent/STIM_017.jpg	100
1474.931	0.943	942.7	incongruent	Block2	incongruent/STIM_017.jpg	99
1478.638	0.775	775.4	incongruent	Block2	incongruent/STIM_017.jpg	99
1482.613	0.778	777.5	incongruent	Block2	incongruent/STIM_017.jpg	99
1485.409	0.715	715.0	incongruent	Block2	incongruent/STIM_017.jpg	99
1489.888	0.696	695.5	incongruent	Block2	incongruent/STIM_018.jpg	99
1493.6	0.84	839.5	incongruent	Block2	incongruent/STIM_018.jpg	99
1497.122	0.674	674.3	incongruent	Block2	incongruent/STIM_018.jpg	100
1500.739	0.685	685.4	incongruent	Block2	incongruent/STIM_018.jpg	99
1504.872	0.994	994.1	incongruent	Block2	incongruent/STIM_018.jpg	100
1509.46	1.174	1174.5	incongruent	Block2	incongruent/STIM_019.jpg	100
1513.826	1.08	1080.4	incongruent	Block2	incongruent/STIM_019.jpg	100
1518.527	1.055	1054.8	incongruent	Block2	incongruent/STIM_019.jpg	99
1522.684	0.943	943.1	incongruent	Block2	incongruent/STIM_019.jpg	99
1526.722	0.988	988.5	incongruent	Block2	incongruent/STIM_019.jpg	100
1530.051	0.74	740.3	incongruent	Block2	incongruent/STIM_020.jpg	100
1533.23	0.726	725.9	incongruent	Block2	incongruent/STIM_020.jpg	100
1537.833	0.561	561.3	incongruent	Block2	incongruent/STIM_020.jpg	99
1542.379	0.6	599.6	incongruent	Block2	incongruent/STIM_020.jpg	99
1545.463	0.482	482.4	incongruent	Block2	incongruent/STIM_020.jpg	100
1549.104	0.983	982.6	incongruent	Block2	incongruent/STIM_021.jpg	99
1552.687	0.691	690.8	incongruent	Block2	incongruent/STIM_021.jpg	100
1556.561	0.729	728.8	incongruent	Block2	incongruent/STIM_021.jpg	99
1560.049	0.947	946.7	incongruent	Block2	incongruent/STIM_021.jpg	100
1563.926	0.572	571.7	incongruent	Block2	incongruent/STIM_021.jpg	100
1567.297	1.09	1090.0	incongruent	Block2	incongruent/STIM_022.jpg	99
1571.156	1.1	1100.3	incongruent	Block2	incongruent/STIM_022.jpg	100
1574.917	0.83	830.0	incongruent	Block2	incongruent/STIM_022.jpg	99
1578.787	0.848	848.0	incongruent	Block2	incongruent/STIM_022.jpg	100
1583.412	0.906	905.9	incongruent	Block2	incongruent/STIM_022.jpg	100
1586.837	0.963	962.8	incongruent	Block2	incongruent/STIM_023.jpg	99
1590.563	0.655	655.3	incongruent	Block2	incongruent/STIM_023.jpg	99
1593.968	0.687	686.8	incongruent	Block2	incongruent/STIM_023.jpg	99
1597.604	0.955	954.6	incongruent	Block2	incongruent/STIM_023.jpg	99
1600.948	0.65	649.9	incongruent	Block2	incongruent/STIM_023.jpg	99
1603.772	1.198	1198.1	incongruent	Block2	incongruent/STIM_024.jpg	100
1606.998	0.724	724.4	incongruent	Block2	incongruent/STIM_024.jpg	99
1610.105	0.704	703.7	incongruent	Block2	incongruent/STIM_024.jpg	100
1614.112	0.842	841.9	incongruent	Block2	incongruent/STIM_024.jpg	100
1617.91	0.903	902.9	incongruent	Block2	incongruent/STIM_024.jpg	99
1621.084	0.695	694.9	incongruent	Block2	incongruent/STIM_025.jpg	99
1624.519	0.714	713.9	incongruent	Block2	incongruent/STIM_025.jpg	100
1627.53	0.906	906.0	incongruent	Block2	incongruent/STIM_025.jpg	100
1630.694	0.643	642.8	incongruent	Block2	incongruent/STIM_025.jpg	100
1633.598	1.008	1008.0	incongruent	Block2	incongruent/STIM_025.jpg	100
1637.737	1.172	1171.7	incongruent	Block2	incongruent/STIM_026.jpg	99
1642.583	0.884	883.8	incongruent	Block2	incongruent/STIM_026.jpg	100
1647.029	1.057	1057.4	incongruent	Block2	incongruent/STIM_026.jpg	100
1651.829	0.478	478.0	incongruent	Block2	incongruent/STIM_026.jpg	100
1656.296	0.831	831.4	incongruent	Block2	incongruent/STIM_026.jpg	100
1660.218	0.943	943.2	incongruent	Block2	incongruent/STIM_027.jpg	99
1664.527	0.855	854.6	incongruent	Block2	incongruent/STIM_027.jpg	100
1668.522	0.8	800.1	incongruent	Block2	incongruent/STIM_027.jpg	100
1671.814	0.525	525.1	incongruent	Block2	incongruent/STIM_027.jpg	100
1676.275	0.702	702.2	incongruent	Block2	incongruent/STIM_027.jpg	99
1680.886	0.818	818.0	incongruent	Block2	incongruent/STIM_028.jpg	100
1684.148	0.697	697.3	incongruent	Block2	incongruent/STIM_028.jpg	99
1688.542	0.912	912.3	incongruent	Block2	incongruent/STIM_028.jpg	100
1691.834	0.697	696.8	incongruent	Block2	incongruent/STIM_028.jpg	99
1696.452	0.488	488.2	incongruent	Block2	incongruent/STIM_028.jpg	99
1700.016	0.7	699.6	incongruent	Block2	incongruent/STIM_029.jpg	99
1704.375	0.982	982.5	incongruent	Block2	incongruent/STIM_029.jpg	99
1709.22	1.048	1047.7	incongruent	Block2	incongruent/STIM_029.jpg	100
1713.918	0.956	956.3	incongruent	Block2	incongruent/STIM_029.jpg	99
1718.455	0.526	526.2	incongruent	Block2	incongruent/STIM_029.jpg	100
1721.629	0.56	559.9	congruent	Block2	congruent/STIM_000.jpg	99
1725.249	0.541	540.6	congruent	Block2	congruent/STIM_000.jpg	99
1727.951	0.547	547.2	congruent	Block2	congruent/STIM_000.jpg	99
1731.247	0.687	686.6	congruent	Block2	congruent/STIM_000.jpg	100
1734.802	0.819	818.9	congruent	Block2	congruent/STIM_000.jpg	100
1738.433	0.583	583.1	congruent	Block2	congruent/STIM_001.jpg	99
1742.075	0.819	818.6	congruent	Block2	congruent/STIM_001.jpg	99
1746.078	0.703	703.4	congruent	Block2	congruent/STIM_001.jpg	99
1749.781	0.488	487.6	congruent	Block2	congruent/STIM_001.jpg	100
1752.365	0.83	829.5	congruent	Block2	congruent/STIM_001.jpg	99
1755.348	0.703	703.4	congruent	Block2	congruent/STIM_002.jpg	99
1759.352	0.783	782.6	congruent	Block2	congruent/STIM_002.jpg	99
1763.658	0.614	613.8	congruent	Block2	congruent/STIM_002.jpg	99
1766.94	0.743	742.9	congruent	Block2	congruent/STIM_002.jpg	99
1770.079	0.799	799.2	congruent	Block2	congruent/STIM_002.jpg	99
1774.034	0.587	587.4	congruent	Block2	congruent/STIM_003.jpg	100
1778.198	0.61	609.8	congruent	Block2	congruent/STIM_003.jpg	99
1782.418	0.77	770.0	congruent	Block2	congruent/STIM_003.jpg	100
1786.164	0.506	505.7	congruent	Block2	congruent/STIM_003.jpg	100
1789.366	0.65	649.7	congruent	Block2	congruent/STIM_003.jpg	100
1792.296	0.725	725.3	congruent	Block2	congruent/STIM_004.jpg	100
1796.453	0.673	673.0	congruent	Block2	congruent/STIM_004.jpg	99
1800.916	0.669	668.7	congruent	Block2	congruent/STIM_004.jpg	100
1803.734	0.638	638.0	congruent	Block2	congruent/STIM_004.jpg	99
1806.733	0.726	726.1	congruent	Block2	congruent/STIM_004.jpg	100
1810.369	0.744	743.9	congruent	Block2	congruent/STIM_005.jpg	99
1813.443	0.501	500.7	congruent	Block2	congruent/STIM_005.jpg	100
1816.609	0.501	501.1	congruent	Block2	congruent/STIM_005.jpg	99
1819.419	0.489	488.9	congruent	Block2	congruent/STIM_005.jpg	100
1822.616	0.652	651.6	congruent	Block2	congruent/STIM_005.jpg	100
1825.335	0.499	499.4	congruent	Block2	congruent/STIM_006.jpg	100
1827.967	0.612	611.7	congruent	Block2	congruent/STIM_006.jpg	99
1831.368	0.522	521.8	congruent	Block2	congruent/STIM_006.jpg	99
1835.361	0.667	666.7	congruent	Block2	congruent/STIM_006.jpg	99
1839.706	0.628	627.9	congruent	Block2	congruent/STIM_006.jpg	99
1843.352	0.835	835.2	congruent	Block2	congruent/STIM_007.jpg	100
1846.927	0.566	566.5	congruent	Block2	congruent/STIM_007.jpg	99
1850.3	0.801	801.2	congruent	Block2	congruent/STIM_007.jpg	99
1854.246	0.843	843.4	congruent	Block2	congruent/STIM_007.jpg	100
1858.261	0.61	609.8	congruent	Block2	congruent/STIM_007.jpg	99
1862.456	0.639	639.4	congruent	Block2	congruent/STIM_008.jpg	100
1865.585	0.712	711.6	congruent	Block2	congruent/STIM_008.jpg	100
1869.632	0.576	576.4	congruent	Block2	congruent/STIM_008.jpg	99
1873.037	0.804	804.1	congruent	Block2	congruent/STIM_008.jpg	99
1876.809	0.723	722.9	congruent	Block2	congruent/STIM_008.jpg	99
1880.417	0.525	524.9	congruent	Block2	congruent/STIM_009.jpg	99
1883.016	0.696	696.5	congruent	Block2	congruent/STIM_009.jpg	99
1887.011	0.668	668.1	congruent	Block2	congruent/STIM_009.jpg	99
1890.274	0.689	689.1	congruent	Block2	congruent/STIM_009.jpg	99
1893.297	0.811	811.2	congruent	Block2	congruent/STIM_009.jpg	100
1897.024	0.591	591.3	congruent	Block2	congruent/STIM_010.jpg	99
1900.595	0.795	795.4	congruent	Block2	congruent/STIM_010.jpg	99
1904.68	0.554	554.2	congruent	Block2	congruent/STIM_010.jpg	99
1909.033	0.868	867.7	congruent	Block2	congruent/STIM_010.jpg	100
1913.649	0.646	646.3	congruent	Block2	congruent/STIM_010.jpg	100
1917.349	0.72	720.2	congruent	Block2	congruent/STIM_011.jpg	99
1921.784	0.647	647.4	congruent	Block2	congruent/STIM_011.jpg	100
1926.008	0.554	553.6	congruent	Block2	congruent/STIM_011.jpg	100
1928.826	0.589	588.7	congruent	Block2	congruent/STIM_011.jpg	100
1932.31	0.58	579.7	congruent	Block2	congruent/STIM_011.jpg	100
1936.344	0.741	741.3	congruent	Block2	congruent/STIM_012.jpg	99
1939.642	0.814	814.5	congruent	Block2	congruent/STIM_012.jpg	99
1942.858	0.619	619.4	congruent	Block2	congruent/STIM_012.jpg	100
1946.451	0.703	703.0	congruent	Block2	congruent/STIM_012.jpg	100
1949.984	0.626	626.3	congruent	Block2	congruent/STIM_012.jpg	99
1954.337	0.784	784.3	congruent	Block2	congruent/STIM_013.jpg	99
1958.57	0.811	810.6	congruent	Block2	congruent/STIM_013.jpg	99
1963.151	0.675	674.9	congruent	Block2	congruent/STIM_013.jpg	100
1967.503	0.518	518.0	congruent	Block2	congruent/STIM_013.jpg	99
1970.162	0.501	500.7	congruent	Block2	congruent/STIM_013.jpg	99
1973.081	0.758	758.3	congruent	Block2	congruent/STIM_014.jpg	99
1977.297	0.772	771.9	congruent	Block2	congruent/STIM_014.jpg	99
1981.305	0.773	772.6	congruent	Block2	congruent/STIM_014.jpg	99
1984.768	0.5	499.8	congruent	Block2	congruent/STIM_014.jpg	100
1988.175	0.644	644.0	congruent	Block2	congruent/STIM_014.jpg	99
1992.578	0.681	680.6	congruent	Block2	congruent/STIM_015.jpg	100
1996.753	0.685	684.7	congruent	Block2	congruent/STIM_015.jpg	99
1999.81	0.499	498.7	congruent	Block2	congruent/STIM_015.jpg	100
2004.247	0.746	745.6	congruent	Block2	congruent/STIM_015.jpg	99
2008.003	0.858	858.1	congruent	Block2	congruent/STIM_015.jpg	99
2011.104	0.758	758.0	congruent	Block2	congruent/STIM_016.jpg	100
2014.143	0.582	581.7	congruent	Block2	congruent/STIM_016.jpg	100
2018.055	0.834	834.3	congruent	Block2	congruent/STIM_016.jpg	99
2021.89	0.813	812.9	congruent	Block2	congruent/STIM_016.jpg	99
2025.891	0.716	715.5	congruent	Block2	congruent/STIM_016.jpg	100
2029.516	0.616	616.4	congruent	Block2	congruent/STIM_017.jpg	100
2034.104	0.872	872.0	congruent	Block2	congruent/STIM_017.jpg	100
2038.907	0.673	673.2	congruent	Block2	congruent/STIM_017.jpg	100
2041.889	0.611	611.4	congruent	Block2	congruent/STIM_017.jpg	100
2045.29	0.622	621.8	congruent	Block2	congruent/STIM_017.jpg	100
2049.316	0.782	782.1	congruent	Block2	congruent/STIM_018.jpg	100
2052.959	0.708	707.5	congruent	Block2	congruent/STIM_018.jpg	100
2057.439	0.837	837.2	congruent	Block2	congruent/STIM_018.jpg	100
2061.028	0.712	711.5	congruent	Block2	congruent/STIM_018.jpg	99
2065.387	0.844	843.6	congruent	Block2	congruent/STIM_018.jpg	99
2068.559	0.494	494.4	congruent	Block2	congruent/STIM_019.jpg	99
2072.712	0.816	815.6	congruent	Block2	congruent/STIM_019.jpg	99
2077.292	0.805	804.8	congruent	Block2	congruent/STIM_019.jpg	100
2080.627	0.68	679.8	congruent	Block2	congruent/STIM_019.jpg	99
2084.376	0.562	561.9	congruent	Block2	congruent/STIM_019.jpg	100
2087.479	0.558	557.9	congruent	Block2	congruent/STIM_020.jpg	100
2090.459	0.541	540.8	congruent	Block2	congruent/STIM_020.jpg	100
2094.129	0.811	811.4	congruent	Block2	congruent/STIM_020.jpg	99
2097.217	0.597	596.8	congruent	Block2	congruent/STIM_020.jpg	99
2101.412	0.806	806.0	congruent	Block2	congruent/STIM_020.jpg	100
2104.48	0.723	723.4	congruent	Block2	congruent/STIM_021.jpg	99
2107.767	0.806	805.5	congruent	Block2	congruent/STIM_021.jpg	100
2111.75	0.707	707.0	congruent	Block2	congruent/STIM_021.jpg	99
2115.708	0.569	569.3	congruent	Block2	congruent/STIM_021.jpg	99
2119.294	0.537	536.8	congruent	Block2	congruent/STIM_021.jpg	99
2122.631	0.722	722.3	congruent	Block2	congruent/STIM_022.jpg	99
2126.884	0.608	607.7	congruent	Block2	congruent/STIM_022.jpg	99
2130.518	0.66	660.0	congruent	Block2	congruent/STIM_022.jpg	99
2133.348	0.502	502.1	congruent	Block2	congruent/STIM_022.jpg	100
2137.116	0.831	831.0	congruent	Block2	congruent/STIM_022.jpg	99
2141.787	0.769	769.4	congruent	Block2	congruent/STIM_023.jpg	100
2146.025	0.543	542.9	congruent	Block2	congruent/STIM_023.jpg	100
2150.369	0.625	624.9	congruent	Block2	congruent/STIM_023.jpg	100
2154.192	0.633	632.9	congruent	Block2	congruent/STIM_023.jpg	99
2157.697	0.52	519.9	congruent	Block2	congruent/STIM_023.jpg	99
2161.48	0.512	511.9	congruent	Block2	congruent/STIM_024.jpg	100
2164.598	0.672	671.9	congruent	Block2	congruent/STIM_024.jpg	100
2167.74	0.591	590.8	congruent	Block2	congruent/STIM_024.jpg	99
2171.393	0.795	795.4	congruent	Block2	congruent/STIM_024.jpg	100
2176.142	0.603	603.2	congruent	Block2	congruent/STIM_024.jpg	99
2180.303	0.495	495.3	congruent	Block2	congruent/STIM_025.jpg	100
2183.899	0.513	512.9	congruent	Block2	congruent/STIM_025.jpg	99
2186.815	0.571	570.9	congruent	Block2	congruent/STIM_025.jpg	100
2190.945	0.701	701.4	congruent	Block2	congruent/STIM_025.jpg	99
2194.41	0.701	701.4	congruent	Block2	congruent/STIM_025.jpg	99
2198.417	0.579	578.6	congruent	Block2	congruent/STIM_026.jpg	100
2202.043	0.873	873.1	congruent	Block2	congruent/STIM_026.jpg	99
2205.451	0.583	583.1	congruent	Block2	congruent/STIM_026.jpg	99
2208.253	0.704	704.2	congruent	Block2	congruent/STIM_026.jpg	100
2212.717	0.856	856.3	congruent	Block2	congruent/STIM_026.jpg	99
2217.524	0.676	676.3	congruent	Block2	congruent/STIM_027.jpg	100
2220.274	0.547	546.9	congruent	Block2	congruent/STIM_027.jpg	99
2223.64	0.837	837.3	congruent	Block2	congruent/STIM_027.jpg	99
2226.895	0.827	826.8	congruent	Block2	congruent/STIM_027.jpg	99
2231.125	0.817	817.2	congruent	Block2	congruent/STIM_027.jpg	99
2234.936	0.533	533.1	congruent	Block2	congruent/STIM_028.jpg	100
2238.85	0.65	649.9	congruent	Block2	congruent/STIM_028.jpg	100
2242.995	0.772	771.8	congruent	Block2	congruent/STIM_028.jpg	99
2247.663	0.74	740.4	congruent	Block2	congruent/STIM_028.jpg	99
2250.769	0.718	718.2	congruent	Block2	congruent/STIM_028.jpg	99
2255.16	0.752	752.2	congruent	Block2	congruent/STIM_029.jpg	99
2258.287	0.578	578.3	congruent	Block2	congruent/STIM_029.jpg	100
2262.52	0.611	610.8	congruent	Block2	congruent/STIM_029.jpg	100
2266.186	0.69	690.5	congruent	Block2	congruent/STIM_029.jpg	99
2269.301	0.621	620.8	congruent	Block2	congruent/STIM_029.jpg	99
2272.312	0.805	805.3	incongruent	Block3	incongruent/STIM_000.jpg	100
2275.567	0.815	815.2	incongruent	Block3	incongruent/STIM_000.jpg	100
2278.68	0.547	547.1	incongruent	Block3	incongruent/STIM_000.jpg	99
2282.368	0.616	616.2	incongruent	Block3	incongruent/STIM_000.jpg	99
2286.166	0.995	995.3	incongruent	Block3	incongruent/STIM_000.jpg	100
2290.255	0.917	917.0	incongruent	Block3	incongruent/STIM_001.jpg	100
2294.308	1.011	1011.2	incongruent	Block3	incongruent/STIM_001.jpg	100
2298.942	0.827	827.3	incongruent	Block3	incongruent/STIM_001.jpg	100
2302.842	0.969	969.3	incongruent	Block3	incongruent/STIM_001.jpg	99
2306.614	0.692	692.2	incongruent	Block3	incongruent/STIM_001.jpg	99
2311.281	0.886	885.6	incongruent	Block3	incongruent/STIM_002.jpg	99
2314.966	0.989	989.4	incongruent	Block3	incongruent/STIM_002.jpg	99
2318.532	0.723	723.4	incongruent	Block3	incongruent/STIM_002.jpg	100
2322.193	0.967	967.4	incongruent	Block3	incongruent/STIM_002.jpg	100
2325.777	0.985	985.4	incongruent	Block3	incongruent/STIM_002.jpg	100
2330.723	0.778	778.0	incongruent	Block3	incongruent/STIM_003.jpg	99
2333.95	0.552	552.2	incongruent	Block3	incongruent/STIM_003.jpg	99
2337.975	0.65	649.7	incongruent	Block3	incongruent/STIM_003.jpg	100
2340.937	0.628	628.2	incongruent	Block3	incongruent/STIM_003.jpg	100
2344.08	0.734	734.4	incongruent	Block3	incongruent/STIM_003.jpg	100
2348.084	0.723	722.7	incongruent	Block3	incongruent/STIM_004.jpg	100
2352.032	0.786	786.2	incongruent	Block3	incongruent/STIM_004.jpg	99
2355.938	0.778	777.6	incongruent	Block3	incongruent/STIM_004.jpg	99
2359.44	0.92	919.8	incongruent	Block3	incongruent/STIM_004.jpg	100
2364.331	0.699	699.0	incongruent	Block3	incongruent/STIM_004.jpg	100
2368.681	0.653	653.2	incongruent	Block3	incongruent/STIM_005.jpg	99
2371.659	0.588	587.8	incongruent	Block3	incongruent/STIM_005.jpg	100
2375.609	0.524	523.5	incongruent	Block3	incongruent/STIM_005.jpg	99
2379.203	0.845	845.1	incongruent	Block3	incongruent/STIM_005.jpg	99
2383.097	0.803	802.8	incongruent	Block3	incongruent/STIM_005.jpg	100
2385.928	0.607	606.9	incongruent	Block3	incongruent/STIM_006.jpg	99
2389.087	0.892	892.4	incongruent	Block3	incongruent/STIM_006.jpg	100
2392.99	0.481	481.2	incongruent	Block3	incongruent/STIM_006.jpg	99
2396.751	0.916	915.7	incongruent	Block3	incongruent/STIM_006.jpg	100
2400.644	0.924	924.4	incongruent	Block3	incongruent/STIM_006.jpg	99
2404.439	0.614	614.2	incongruent	Block3	incongruent/STIM_007.jpg	100
2408.329	0.838	837.6	incongruent	Block3	incongruent/STIM_007.jpg	99
2412.704	0.503	503.5	incongruent	Block3	incongruent/STIM_007.jpg	100
2415.26	0.792	792.3	incongruent	Block3	incongruent/STIM_007.jpg	99
2418.389	0.754	754.3	incongruent	Block3	incongruent/STIM_007.jpg	99
2421.606	0.553	553.0	incongruent	Block3	incongruent/STIM_008.jpg	100
2424.771	0.957	956.9	incongruent	Block3	incongruent/STIM_008.jpg	100
2429.242	0.699	698.7	incongruent	Block3	incongruent/STIM_008.jpg	99
2433.159	0.792	791.8	incongruent	Block3	incongruent/STIM_008.jpg	99
2436.826	0.604	603.5	incongruent	Block3	incongruent/STIM_008.jpg	100
2440.768	0.504	503.8	incongruent	Block3	incongruent/STIM_009.jpg	100
2444.516	0.844	844.3	incongruent	Block3	incongruent/STIM_009.jpg	99
2448.75	0.679	678.6	incongruent	Block3	incongruent/STIM_009.jpg	99
2453.08	0.825	824.6	incongruent	Block3	incongruent/STIM_009.jpg	99
2457.216	0.579	578.8	incongruent	Block3	incongruent/STIM_009.jpg	100
2461.76	0.549	548.8	incongruent	Block3	incongruent/STIM_010.jpg	99
2464.819	0.636	636.4	incongruent	Block3	incongruent/STIM_010.jpg	100
2467.65	0.646	646.1	incongruent	Block3	incongruent/STIM_010.jpg	99
2472.148	0.527	527.3	incongruent	Block3	incongruent/STIM_010.jpg	100
2475.861	0.722	721.8	incongruent	Block3	incongruent/STIM_010.jpg	99
2479.395	0.818	818.3	incongruent	Block3	incongruent/STIM_011.jpg	99
2483.471	0.577	577.0	incongruent	Block3	incongruent/STIM_011.jpg	100
2486.355	0.49	490.5	incongruent	Block3	incongruent/STIM_011.jpg	100
2489.136	0.537	536.8	incongruent	Block3	incongruent/STIM_011.jpg	100
2492.883	0.549	548.7	incongruent	Block3	incongruent/STIM_011.jpg	99
2495.627	0.588	588.2	incongruent	Block3	incongruent/STIM_012.jpg	99
2499.039	0.863	863.0	incongruent	Block3	incongruent/STIM_012.jpg	100
2502.611	0.897	897.0	incongruent	Block3	incongruent/STIM_012.jpg	100
2507.357	0.482	481.5	incongruent	Block3	incongruent/STIM_012.jpg	100
2510.255	0.934	933.9	incongruent	Block3	incongruent/STIM_012.jpg	100
2513.84	0.815	814.7	incongruent	Block3	incongruent/STIM_013.jpg	99
2517.256	0.851	850.6	incongruent	Block3	incongruent/STIM_013.jpg	99
2521.804	0.878	878.4	incongruent	Block3	incongruent/STIM_013.jpg	99
2525.243	0.82	820.4	incongruent	Block3	incongruent/STIM_013.jpg	100
2529.363	0.685	685.4	incongruent	Block3	incongruent/STIM_013.jpg	100
2533.626	0.796	796.4	incongruent	Block3	incongruent/STIM_014.jpg	99
2537.189	0.992	991.6	incongruent	Block3	incongruent/STIM_014.jpg	99
2540.828	1.011	1011.3	incongruent	Block3	incongruent/STIM_014.jpg	99
2544.772	0.594	593.7	incongruent	Block3	incongruent/STIM_014.jpg	100
2548.393	0.962	961.7	incongruent	Block3	incongruent/STIM_014.jpg	100
2552.726	0.579	578.9	incongruent	Block3	incongruent/STIM_015.jpg	100
2556.482	0.826	826.2	incongruent	Block3	incongruent/STIM_015.jpg	99
2560.197	0.85	849.6	incongruent	Block3	incongruent/STIM_015.jpg	99
2564.589	0.799	798.7	incongruent	Block3	incongruent/STIM_015.jpg	100
2568.791	0.935	934.6	incongruent	Block3	incongruent/STIM_015.jpg	99
2573.16	0.934	934.4	incongruent	Block3	incongruent/STIM_016.jpg	99
2577.803	0.589	588.7	incongruent	Block3	incongruent/STIM_016.jpg	100
2582.375	1.001	1000.9	incongruent	Block3	incongruent/STIM_016.jpg	99
2586.942	0.877	877.3	incongruent	Block3	incongruent/STIM_016.jpg	99
2591.736	0.772	771.8	incongruent	Block3	incongruent/STIM_016.jpg	99
2595.399	0.657	656.8	incongruent	Block3	incongruent/STIM_017.jpg	99
2598.865	0.612	611.6	incongruent	Block3	incongruent/STIM_017.jpg	100
2603.017	0.816	816.4	incongruent	Block3	incongruent/STIM_017.jpg	100
2606.361	0.752	752.1	incongruent	Block3	incongruent/STIM_017.jpg	100
2609.464	0.886	886.3	incongruent	Block3	incongruent/STIM_017.jpg	99
2613.263	0.595	594.9	incongruent	Block3	incongruent/STIM_018.jpg	100
2615.88	0.999	998.6	incongruent	Block3	incongruent/STIM_018.jpg	99
2619.456	1.008	1008.2	incongruent	Block3	incongruent/STIM_018.jpg	100
2623.649	0.663	663.4	incongruent	Block3	incongruent/STIM_018.jpg	99
2627.946	0.964	964.2	incongruent	Block3	incongruent/STIM_018.jpg	100
2631.661	0.706	706.5	incongruent	Block3	incongruent/STIM_019.jpg	99
2635.483	0.715	715.3	incongruent	Block3	incongruent/STIM_019.jpg	100
2639.39	0.929	928.7	incongruent	Block3	incongruent/STIM_019.jpg	100
2643.66	0.789	788.7	incongruent	Block3	incongruent/STIM_019.jpg	100
2647.115	0.906	905.8	incongruent	Block3	incongruent/STIM_019.jpg	100
2651.583	0.926	926.2	incongruent	Block3	incongruent/STIM_020.jpg	100
2656.132	0.984	983.5	incongruent	Block3	incongruent/STIM_020.jpg	100
2659.281	0.522	521.7	incongruent	Block3	incongruent/STIM_020.jpg	100
2662.169	0.932	932.4	incongruent	Block3	incongruent/STIM_020.jpg	99
2665.911	0.496	496.4	incongruent	Block3	incongruent/STIM_020.jpg	100
2669.314	0.826	825.6	incongruent	Block3	incongruent/STIM_021.jpg	99
2673.95	0.911	911.0	incongruent	Block3	incongruent/STIM_021.jpg	99
2677.836	0.763	763.1	incongruent	Block3	incongruent/STIM_021.jpg	99
2681.065	0.534	533.8	incongruent	Block3	incongruent/STIM_021.jpg	99
2684.295	0.634	634.3	incongruent	Block3	incongruent/STIM_021.jpg	99
2687.861	0.972	972.3	incongruent	Block3	incongruent/STIM_022.jpg	100
2691.88	0.987	987.3	incongruent	Block3	incongruent/STIM_022.jpg	99
2696.808	0.712	712.4	incongruent	Block3	incongruent/STIM_022.jpg	99
2699.982	0.977	976.8	incongruent	Block3	incongruent/STIM_022.jpg	99
2703.714	0.755	755.4	incongruent	Block3	incongruent/STIM_022.jpg	100
2707.198	0.724	724.5	incongruent	Block3	incongruent/STIM_023.jpg	99
2710.807	0.981	981.2	incongruent	Block3	incongruent/STIM_023.jpg	99
2715.233	0.483	483.1	incongruent	Block3	incongruent/STIM_023.jpg	100
2717.91	0.765	765.3	incongruent	Block3	incongruent/STIM_023.jpg	99
2721.112	0.477	477.0	incongruent	Block3	incongruent/STIM_023.jpg	100
2724.431	0.877	876.6	incongruent	Block3	incongruent/STIM_024.jpg	100
2729.084	0.589	589.0	incongruent	Block3	incongruent/STIM_024.jpg	100
2731.929	0.698	698.1	incongruent	Block3	incongruent/STIM_024.jpg	99
2734.957	0.514	513.8	incongruent	Block3	incongruent/STIM_024.jpg	99
2737.499	0.496	495.8	incongruent	Block3	incongruent/STIM_024.jpg	99
2740.582	0.736	736.3	incongruent	Block3	incongruent/STIM_025.jpg	100
2744.602	0.956	956.0	incongruent	Block3	incongruent/STIM_025.jpg	99
2748.872	0.592	591.8	incongruent	Block3	incongruent/STIM_025.jpg	99
2752.685	0.594	594.2	incongruent	Block3	incongruent/STIM_025.jpg	99
2756.326	0.539	539.4	incongruent	Block3	incongruent/STIM_025.jpg	100
2759.772	0.859	859.4	incongruent	Block3	incongruent/STIM_026.jpg	100
2763.413	0.78	780.4	incongruent	Block3	incongruent/STIM_026.jpg	99
2767.998	0.538	537.6	incongruent	Block3	incongruent/STIM_026.jpg	99
2771.823	0.862	862.2	incongruent	Block3	incongruent/STIM_026.jpg	99
2775.352	0.602	602.1	incongruent	Block3	incongruent/STIM_026.jpg	99
2778.842	0.897	897.4	incongruent	Block3	incongruent/STIM_027.jpg	100
2783.155	0.673	672.8	incongruent	Block3	incongruent/STIM_027.jpg	99
2786.952	0.695	695.1	incongruent	Block3	incongruent/STIM_027.jpg	100
2791.195	1.002	1002.5	incongruent	Block3	incongruent/STIM_027.jpg	99
2794.987	0.96	959.8	incongruent	Block3	incongruent/STIM_027.jpg	99
2798.836	0.549	549.1	incongruent	Block3	incongruent/STIM_028.jpg	100
2803.136	0.646	645.8	incongruent	Block3	incongruent/STIM_028.jpg	99
2806.611	0.592	591.5	incongruent	Block3	incongruent/STIM_028.jpg	100
2810.384	0.892	892.3	incongruent	Block3	incongruent/STIM_028.jpg	99
2814.789	0.545	544.7	incongruent	Block3	incongruent/STIM_028.jpg	100
2818.043	0.959	958.7	incongruent	Block3	incongruent/STIM_029.jpg	99
2822.319	0.499	499.4	incongruent	Block3	incongruent/STIM_029.jpg	100
2826.075	0.698	697.7	incongruent	Block3	incongruent/STIM_029.jpg	99
2830.235	0.76	760.2	incongruent	Block3	incongruent/STIM_029.jpg	100
2834.293	0.865	865.2	incongruent	Block3	incongruent/STIM_029.jpg	99
2838.442	0.674	674.1	congruent	Block3	congruent/STIM_000.jpg	100
2841.39	0.762	762.5	congruent	Block3	congruent/STIM_000.jpg	100
2845.58	0.862	861.8	congruent	Block3	congruent/STIM_000.jpg	100
2848.691	0.696	696.5	congruent	Block3	congruent/STIM_000.jpg	100
2851.656	0.706	705.9	congruent	Block3	congruent/STIM_000.jpg	99
2855.417	0.489	488.8	congruent	Block3	congruent/STIM_001.jpg	100
2859.142	0.611	610.7	congruent	Block3	congruent/STIM_001.jpg	100
2862.677	0.628	627.5	congruent	Block3	congruent/STIM_001.jpg	99
2865.791	0.843	843.3	congruent	Block3	congruent/STIM_001.jpg	99
2870.434	0.723	722.9	congruent	Block3	congruent/STIM_001.jpg	99
2873.304	0.61	610.3	congruent	Block3	congruent/STIM_002.jpg	100
2876.359	0.866	866.2	congruent	Block3	congruent/STIM_002.jpg	100
2879.661	0.801	801.1	congruent	Block3	congruent/STIM_002.jpg	100
2883.201	0.706	705.7	congruent	Block3	congruent/STIM_002.jpg	99
2887.848	0.655	655.3	congruent	Block3	congruent/STIM_002.jpg	100
2891.745	0.508	508.0	congruent	Block3	congruent/STIM_003.jpg	99
2895.898	0.869	869.0	congruent	Block3	congruent/STIM_003.jpg	99
2899.065	0.696	696.4	congruent	Block3	congruent/STIM_003.jpg	99
2903.522	0.546	546.4	congruent	Block3	congruent/STIM_003.jpg	99
2907.451	0.562	561.6	congruent	Block3	congruent/STIM_003.jpg	99
2910.937	0.707	706.7	congruent	Block3	congruent/STIM_004.jpg	100
2914.401	0.49	490.2	congruent	Block3	congruent/STIM_004.jpg	99
2918.616	0.623	623.4	congruent	Block3	congruent/STIM_004.jpg	100
2922.897	0.748	748.2	congruent	Block3	congruent/STIM_004.jpg	100
2926.638	0.846	846.0	congruent	Block3	congruent/STIM_004.jpg	100
2929.937	0.705	705.3	congruent	Block3	congruent/STIM_005.jpg	100
2934.6	0.809	809.0	congruent	Block3	congruent/STIM_005.jpg	99
2937.719	0.65	649.8	congruent	Block3	congruent/STIM_005.jpg	99
2940.62	0.501	500.9	congruent	Block3	congruent/STIM_005.jpg	99
2944.035	0.771	770.7	congruent	Block3	congruent/STIM_005.jpg	99
2947.092	0.674	673.5	congruent	Block3	congruent/STIM_006.jpg	99
2951.437	0.792	791.7	congruent	Block3	congruent/STIM_006.jpg	99
2954.62	0.642	642.4	congruent	Block3	congruent/STIM_006.jpg	99
2957.82	0.626	626.0	congruent	Block3	congruent/STIM_006.jpg	99
2962.4	0.49	490.3	congruent	Block3	congruent/STIM_006.jpg	99
2966.666	0.688	688.4	congruent	Block3	congruent/STIM_007.jpg	100
2970.631	0.757	756.7	congruent	Block3	congruent/STIM_007.jpg	100
2975.382	0.808	808.5	congruent	Block3	congruent/STIM_007.jpg	100
2978.542	0.824	824.2	congruent	Block3	congruent/STIM_007.jpg	100
2981.827	0.655	655.4	congruent	Block3	congruent/STIM_007.jpg	99
2985.654	0.748	747.8	congruent	Block3	congruent/STIM_008.jpg	99
2989.922	0.804	804.1	congruent	Block3	congruent/STIM_008.jpg	99
2994.276	0.737	737.3	congruent	Block3	congruent/STIM_008.jpg	100
2997.5	0.76	760.5	congruent	Block3	congruent/STIM_008.jpg	99
3002.051	0.683	683.1	congruent	Block3	congruent/STIM_008.jpg	99
3005.472	0.518	517.7	congruent	Block3	congruent/STIM_009.jpg	100
3008.127	0.597	596.6	congruent	Block3	congruent/STIM_009.jpg	100
3012.494	0.556	555.9	congruent	Block3	congruent/STIM_009.jpg	99
3016.719	0.505	504.9	congruent	Block3	congruent/STIM_009.jpg	99
3019.377	0.791	791.4	congruent	Block3	congruent/STIM_009.jpg	99
3022.212	0.66	659.6	congruent	Block3	congruent/STIM_010.jpg	100
3025.242	0.76	759.5	congruent	Block3	congruent/STIM_010.jpg	100
3029.759	0.532	531.5	congruent	Block3	congruent/STIM_010.jpg	100
3033.749	0.588	588.4	congruent	Block3	congruent/STIM_010.jpg	99
3038.006	0.613	612.8	congruent	Block3	congruent/STIM_010.jpg	100
3041.345	0.548	547.6	congruent	Block3	congruent/STIM_011.jpg	100
3044.361	0.807	806.9	congruent	Block3	congruent/STIM_011.jpg	100
3047.764	0.574	573.9	congruent	Block3	congruent/STIM_011.jpg	99
3051.243	0.762	761.8	congruent	Block3	congruent/STIM_011.jpg	100
3055.933	0.648	647.5	congruent	Block3	congruent/STIM_011.jpg	100
3059.561	0.859	858.7	congruent	Block3	congruent/STIM_012.jpg	99
3064.309	0.718	717.8	congruent	Block3	congruent/STIM_012.jpg	100
3067.774	0.603	603.0	congruent	Block3	congruent/STIM_012.jpg	99
3070.458	0.635	635.2	congruent	Block3	congruent/STIM_012.jpg	100
3074.992	0.732	731.6	congruent	Block3	congruent/STIM_012.jpg	100
3079.257	0.828	828.2	congruent	Block3	congruent/STIM_013.jpg	99
3083.479	0.582	582.4	congruent	Block3	congruent/STIM_013.jpg	99
3088.02	0.513	512.8	congruent	Block3	congruent/STIM_013.jpg	99
3090.979	0.747	747.0	congruent	Block3	congruent/STIM_013.jpg	100
3095.256	0.713	713.0	congruent	Block3	congruent/STIM_013.jpg	99
3099.218	0.597	597.2	congruent	Block3	congruent/STIM_014.jpg	100
3102.754	0.675	674.7	congruent	Block3	congruent/STIM_014.jpg	100
3107.427	0.861	860.6	congruent	Block3	congruent/STIM_014.jpg	99
3110.776	0.705	705.0	congruent	Block3	congruent/STIM_014.jpg	99
3113.931	0.762	762.2	congruent	Block3	congruent/STIM_014.jpg	100
3118.571	0.613	612.6	congruent	Block3	congruent/STIM_015.jpg	100
3122.467	0.636	636.1	congruent	Block3	congruent/STIM_015.jpg	99
3126.479	0.761	761.0	congruent	Block3	congruent/STIM_015.jpg	99
3129.518	0.596	596.1	congruent	Block3	congruent/STIM_015.jpg	99
3132.296	0.834	834.0	congruent	Block3	congruent/STIM_015.jpg	100
3136.711	0.742	742.1	congruent	Block3	congruent/STIM_016.jpg	100
3140.88	0.548	547.5	congruent	Block3	congruent/STIM_016.jpg	99
3145.169	0.807	806.7	congruent	Block3	congruent/STIM_016.jpg	100
3149.039	0.782	781.7	congruent	Block3	congruent/STIM_016.jpg	99
3152.127	0.771	770.7	congruent	Block3	congruent/STIM_016.jpg	99
3155.308	0.617	616.6	congruent	Block3	congruent/STIM_017.jpg	99
3158.621	0.748	747.7	congruent	Block3	congruent/STIM_017.jpg	99
3161.884	0.764	763.5	congruent	Block3	congruent/STIM_017.jpg	100
3166.173	0.493	492.6	congruent	Block3	congruent/STIM_017.jpg	100
3169.166	0.488	487.8	congruent	Block3	congruent/STIM_017.jpg	100
3172.447	0.842	841.6	congruent	Block3	congruent/STIM_018.jpg	100
3175.789	0.683	683.2	congruent	Block3	congruent/STIM_018.jpg	99
3179.444	0.619	618.6	congruent	Block3	congruent/STIM_018.jpg	99
3183.891	0.598	598.5	congruent	Block3	congruent/STIM_018.jpg	100
3188.13	0.737	737.1	congruent	Block3	congruent/STIM_018.jpg	99
3191.162	0.761	761.3	congruent	Block3	congruent/STIM_019.jpg	99
3194.779	0.524	523.9	congruent	Block3	congruent/STIM_019.jpg	100
3199.028	0.734	733.8	congruent	Block3	congruent/STIM_019.jpg	100
3203.425	0.634	633.8	congruent	Block3	congruent/STIM_019.jpg	100
3207.755	0.775	775.3	congruent	Block3	congruent/STIM_019.jpg	100
3211.985	0.736	736.1	congruent	Block3	congruent/STIM_020.jpg	100
3216.32	0.608	607.8	congruent	Block3	congruent/STIM_020.jpg	100
3220.181	0.659	658.9	congruent	Block3	congruent/STIM_020.jpg	99
3223.72	0.53	529.5	congruent	Block3	congruent/STIM_020.jpg	100
3226.595	0.512	511.9	congruent	Block3	congruent/STIM_020.jpg	99
3230.632	0.721	721.1	congruent	Block3	congruent/STIM_021.jpg	99
3234.509	0.863	863.0	congruent	Block3	congruent/STIM_021.jpg	100
3237.881	0.813	812.7	congruent	Block3	congruent/STIM_021.jpg	100
3241.845	0.526	526.0	congruent	Block3	congruent/STIM_021.jpg	99
3244.751	0.73	729.5	congruent	Block3	congruent/STIM_021.jpg	100
3248.897	0.81	809.7	congruent	Block3	congruent/STIM_022.jpg	100
3252.535	0.708	708.5	congruent	Block3	congruent/STIM_022.jpg	100
3255.511	0.755	755.4	congruent	Block3	congruent/STIM_022.jpg	100
3259.336	0.801	801.3	congruent	Block3	congruent/STIM_022.jpg	99
3262.759	0.84	840.5	congruent	Block3	congruent/STIM_022.jpg	99
3265.644	0.602	601.5	congruent	Block3	congruent/STIM_023.jpg	99
3269.216	0.871	871.3	congruent	Block3	congruent/STIM_023.jpg	99
3273.422	0.835	834.9	congruent	Block3	congruent/STIM_023.jpg	99
3276.476	0.567	567.0	congruent	Block3	congruent/STIM_023.jpg	100
3279.439	0.789	789.4	congruent	Block3	congruent/STIM_023.jpg	100
3282.917	0.81	809.9	congruent	Block3	congruent/STIM_024.jpg	100
3285.765	0.576	575.7	congruent	Block3	congruent/STIM_024.jpg	99
3289.206	0.719	718.7	congruent	Block3	congruent/STIM_024.jpg	100
3292.837	0.736	736.3	congruent	Block3	congruent/STIM_024.jpg	99
3297.016	0.856	855.5	congruent	Block3	congruent/STIM_024.jpg	100
3300.173	0.572	571.9	congruent	Block3	congruent/STIM_025.jpg	100
3303.715	0.825	825.4	congruent	Block3	congruent/STIM_025.jpg	100
3308.114	0.837	836.9	congruent	Block3	congruent/STIM_025.jpg	99
3312.27	0.501	500.6	congruent	Block3	congruent/STIM_025.jpg	99
3315.041	0.84	839.9	congruent	Block3	congruent/STIM_025.jpg	99
3318.156	0.772	771.7	congruent	Block3	congruent/STIM_026.jpg	100
3321.238	0.711	711.2	congruent	Block3	congruent/STIM_026.jpg	99
3324.901	0.769	769.0	congruent	Block3	congruent/STIM_026.jpg	99
3328.811	0.67	669.7	congruent	Block3	congruent/STIM_026.jpg	100
3331.93	0.516	516.2	congruent	Block3	congruent/STIM_026.jpg	100
3335.781	0.543	543.3	congruent	Block3	congruent/STIM_027.jpg	100
3339.153	0.575	575.1	congruent	Block3	congruent/STIM_027.jpg	99
3342.743	0.867	867.2	congruent	Block3	congruent/STIM_027.jpg	99
3347.344	0.619	619.1	congruent	Block3	congruent/STIM_027.jpg	99
3350.823	0.605	604.9	congruent	Block3	congruent/STIM_027.jpg	100
3354.734	0.51	509.7	congruent	Block3	congruent/STIM_028.jpg	99
3358.934	0.677	677.2	congruent	Block3	congruent/STIM_028.jpg	100
3362.859	0.763	763.1	congruent	Block3	congruent/STIM_028.jpg	99
3367.251	0.712	711.6	congruent	Block3	congruent/STIM_028.jpg	100
3371.563	0.866	865.9	congruent	Block3	congruent/STIM_028.jpg	99
3374.443	0.61	610.2	congruent	Block3	congruent/STIM_029.jpg	99
3378.266	0.79	789.5	congruent	Block3	congruent/STIM_029.jpg	100
3382.543	0.625	625.1	congruent	Block3	congruent/STIM_029.jpg	100
3385.858	0.726	726.4	congruent	Block3	congruent/STIM_029.jpg	100
3388.921	0.649	649.0	congruent	Block3	congruent/STIM_029.jpg	100
