onset	duration	accuracy	trial_type	learning_stage	stimulus
0.0	1.308	correct	incongruent	Block1	incongruent/STIM_000.jpg
4.16	1.194	correct	incongruent	Block1	incongruent/STIM_000.jpg
7.709	1.111	correct	incongruent	Block1	incongruent/STIM_000.jpg
12.781	1.132	correct	incongruent	Block1	incongruent/STIM_000.jpg
17.169	0.587	correct	incongruent	Block1	incongruent/STIM_000.jpg
20.549	1.058	correct	incongruent	Block1	incongruent/STIM_001.jpg
24.209	1.16	correct	incongruent	Block1	incongruent/STIM_001.jpg
27.899	1.06	correct	incongruent	Block1	incongruent/STIM_001.jpg
31.51	0.836	incorrect	incongruent	Block1	incongruent/STIM_001.jpg
34.799	1.062	correct	incongruent	Block1	incongruent/STIM_001.jpg
38.146	0.794	incorrect	incongruent	Block1	incongruent/STIM_002.jpg
42.954	1.318	correct	incongruent	Block1	incongruent/STIM_002.jpg
46.907	0.903	correct	incongruent	Block1	incongruent/STIM_002.jpg
51.499	1.035	correct	incongruent	Block1	incongruent/STIM_002.jpg
55.224	0.927	correct	incongruent	Block1	incongruent/STIM_002.jpg
59.266	1.039	correct	incongruent	Block1	incongruent/STIM_003.jpg
63.926	0.941	correct	incongruent	Block1	incongruent/STIM_003.jpg
68.063	0.866	correct	incongruent	Block1	incongruent/STIM_003.jpg
71.012	0.759	correct	incongruent	Block1	incongruent/STIM_003.jpg
75.528	0.826	correct	incongruent	Block1	incongruent/STIM_003.jpg
78.482	0.987	incorrect	incongruent	Block1	incongruent/STIM_004.jpg
81.703	0.752	correct	incongruent	Block1	incongruent/STIM_004.jpg
85.397	1.044	correct	incongruent	Block1	incongruent/STIM_004.jpg
88.908	0.664	correct	incongruent	Block1	incongruent/STIM_004.jpg
93.571	0.531	correct	incongruent	Block1	incongruent/STIM_004.jpg
97.457	1.425	correct	incongruent	Block1	incongruent/STIM_005.jpg
101.773	1.042	correct	incongruent	Block1	incongruent/STIM_005.jpg
106.478	0.669	correct	incongruent	Block1	incongruent/STIM_005.jpg
110.872	0.934	correct	incongruent	Block1	incongruent/STIM_005.jpg
115.558	0.64	correct	incongruent	Block1	incongruent/STIM_005.jpg
119.699	0.875	correct	incongruent	Block1	incongruent/STIM_006.jpg
123.533	1.247	correct	incongruent	Block1	incongruent/STIM_006.jpg
128.227	0.909	incorrect	incongruent	Block1	incongruent/STIM_006.jpg
132.563	0.727	incorrect	incongruent	Block1	incongruent/STIM_006.jpg
137.284	1.212	correct	incongruent	Block1	incongruent/STIM_006.jpg
142.276	0.904	correct	incongruent	Block1	incongruent/STIM_007.jpg
146.533	0.954	correct	incongruent	Block1	incongruent/STIM_007.jpg
150.286	0.868	correct	incongruent	Block1	incongruent/STIM_007.jpg
153.946	0.98	correct	incongruent	Block1	incongruent/STIM_007.jpg
158.774	0.985	correct	incongruent	Block1	incongruent/STIM_007.jpg
161.982	0.716	correct	incongruent	Block1	incongruent/STIM_008.jpg
166.404	0.921	correct	incongruent	Block1	incongruent/STIM_008.jpg
170.089	1.022	correct	incongruent	Block1	incongruent/STIM_008.jpg
174.22	0.832	correct	incongruent	Block1	incongruent/STIM_008.jpg
178.144	0.562	correct	incongruent	Block1	incongruent/STIM_008.jpg
181.482	1.161	correct	incongruent	Block1	incongruent/STIM_009.jpg
185.134	0.972	incorrect	incongruent	Block1	incongruent/STIM_009.jpg
188.829	1.063	correct	incongruent	Block1	incongruent/STIM_009.jpg
192.303	0.766	correct	incongruent	Block1	incongruent/STIM_009.jpg
196.107	1.113	correct	incongruent	Block1	incongruent/STIM_009.jpg
199.741	1.102	correct	incongruent	Block1	incongruent/STIM_010.jpg
204.869	1.099	incorrect	incongruent	Block1	incongruent/STIM_010.jpg
208.334	0.832	correct	incongruent	Block1	incongruent/STIM_010.jpg
213.024	0.886	correct	incongruent	Block1	incongruent/STIM_010.jpg
216.696	0.586	correct	incongruent	Block1	incongruent/STIM_010.jpg
220.108	0.928	correct	incongruent	Block1	incongruent/STIM_011.jpg
224.215	1.063	correct	incongruent	Block1	incongruent/STIM_011.jpg
229.013	0.665	correct	incongruent	Block1	incongruent/STIM_011.jpg
232.143	1.21	incorrect	incongruent	Block1	incongruent/STIM_011.jpg
236.882	1.046	correct	incongruent	Block1	incongruent/STIM_011.jpg
240.93	1.29	correct	incongruent	Block1	incongruent/STIM_012.jpg
244.446	1.072	correct	incongruent	Block1	incongruent/STIM_012.jpg
248.031	0.821	correct	incongruent	Block1	incongruent/STIM_012.jpg
251.456	0.871	correct	incongruent	Block1	incongruent/STIM_012.jpg
255.569	0.68	correct	incongruent	Block1	incongruent/STIM_012.jpg
258.628	0.756	correct	incongruent	Block1	incongruent/STIM_013.jpg
262.425	0.968	correct	incongruent	Block1	incongruent/STIM_013.jpg
266.674	0.93	incorrect	incongruent	Block1	incongruent/STIM_013.jpg
270.055	0.618	correct	incongruent	Block1	incongruent/STIM_013.jpg
274.639	1.102	correct	incongruent	Block1	incongruent/STIM_013.jpg
279.39	0.914	correct	incongruent	Block1	incongruent/STIM_014.jpg
283.449	0.834	correct	incongruent	Block1	incongruent/STIM_014.jpg
286.409	0.65	correct	incongruent	Block1	incongruent/STIM_014.jpg
291.087	1.218	correct	incongruent	Block1	incongruent/STIM_014.jpg
296.228	0.874	incorrect	incongruent	Block1	incongruent/STIM_014.jpg
300.165	1.374	correct	incongruent	Block1	incongruent/STIM_015.jpg
304.204	1.185	correct	incongruent	Block1	incongruent/STIM_015.jpg
307.818	0.819	correct	incongruent	Block1	incongruent/STIM_015.jpg
311.258	1.012	correct	incongruent	Block1	incongruent/STIM_015.jpg
315.328	1.035	correct	incongruent	Block1	incongruent/STIM_015.jpg
319.188	0.838	correct	incongruent	Block1	incongruent/STIM_016.jpg
322.084	0.691	correct	incongruent	Block1	incongruent/STIM_016.jpg
326.239	1.2	correct	incongruent	Block1	incongruent/STIM_016.jpg
330.21	1.102	correct	incongruent	Block1	incongruent/STIM_016.jpg
333.588	0.764	correct	incongruent	Block1	incongruent/STIM_016.jpg
338.357	0.617	correct	incongruent	Block1	incongruent/STIM_017.jpg
342.231	0.894	correct	incongruent	Block1	incongruent/STIM_017.jpg
345.407	1.228	correct	incongruent	Block1	incongruent/STIM_017.jpg
350.151	0.877	correct	incongruent	Block1	incongruent/STIM_017.jpg
354.363	0.708	correct	incongruent	Block1	incongruent/STIM_017.jpg
357.763	0.646	correct	incongruent	Block1	incongruent/STIM_018.jpg
362.217	1.012	correct	incongruent	Block1	incongruent/STIM_018.jpg
366.336	1.072	correct	incongruent	Block1	incongruent/STIM_018.jpg
371.286	0.823	correct	incongruent	Block1	incongruent/STIM_018.jpg
375.632	0.896	correct	incongruent	Block1	incongruent/STIM_018.jpg
378.976	0.906	correct	incongruent	Block1	incongruent/STIM_019.jpg
383.763	1.145	correct	incongruent	Block1	incongruent/STIM_019.jpg
387.617	1.222	correct	incongruent	Block1	incongruent/STIM_019.jpg
391.42	1.14	correct	incongruent	Block1	incongruent/STIM_019.jpg
396.132	1.033	correct	incongruent	Block1	incongruent/STIM_019.jpg
399.794	0.856	correct	incongruent	Block1	incongruent/STIM_020.jpg
403.973	0.832	correct	incongruent	Block1	incongruent/STIM_020.jpg
408.096	0.67	correct	incongruent	Block1	incongruent/STIM_020.jpg
411.4	0.793	correct	incongruent	Block1	incongruent/STIM_020.jpg
415.31	0.911	correct	incongruent	Block1	incongruent/STIM_020.jpg
420.025	0.947	correct	incongruent	Block1	incongruent/STIM_021.jpg
423.338	0.716	correct	incongruent	Block1	incongruent/STIM_021.jpg
426.953	1.097	correct	incongruent	Block1	incongruent/STIM_021.jpg
430.249	0.739	correct	incongruent	Block1	incongruent/STIM_021.jpg
433.714	0.783	correct	incongruent	Block1	incongruent/STIM_021.jpg
438.273	1.276	correct	incongruent	Block1	incongruent/STIM_022.jpg
443.226	0.876	correct	incongruent	Block1	incongruent/STIM_022.jpg
447.567	0.899	correct	incongruent	Block1	incongruent/STIM_022.jpg
451.234	1.101	correct	incongruent	Block1	incongruent/STIM_022.jpg
455.015	1.008	correct	incongruent	Block1	incongruent/STIM_022.jpg
459.279	1.4	incorrect	incongruent	Block1	incongruent/STIM_023.jpg
462.914	1.071	incorrect	incongruent	Block1	incongruent/STIM_023.jpg
467.345	1.256	correct	incongruent	Block1	incongruent/STIM_023.jpg
470.767	0.591	incorrect	incongruent	Block1	incongruent/STIM_023.jpg
473.467	0.67	correct	incongruent	Block1	incongruent/STIM_023.jpg
476.237	0.769	correct	incongruent	Block1	incongruent/STIM_024.jpg
480.248	0.985	correct	incongruent	Block1	incongruent/STIM_024.jpg
484.512	0.633	correct	incongruent	Block1	incongruent/STIM_024.jpg
487.876	0.842	correct	incongruent	Block1	incongruent/STIM_024.jpg
491.557	1.219	correct	incongruent	Block1	incongruent/STIM_024.jpg
496.396	0.937	correct	incongruent	Block1	incongruent/STIM_025.jpg
500.253	1.355	correct	incongruent	Block1	incongruent/STIM_025.jpg
505.448	1.138	correct	incongruent	Block1	incongruent/STIM_025.jpg
509.189	0.798	correct	incongruent	Block1	incongruent/STIM_025.jpg
512.34	1.026	correct	incongruent	Block1	incongruent/STIM_025.jpg
515.956	0.689	correct	incongruent	Block1	incongruent/STIM_026.jpg
519.714	1.043	correct	incongruent	Block1	incongruent/STIM_026.jpg
524.291	1.127	correct	incongruent	Block1	incongruent/STIM_026.jpg
527.667	0.686	correct	incongruent	Block1	incongruent/STIM_026.jpg
531.933	1.035	correct	incongruent	Block1	incongruent/STIM_026.jpg
535.308	0.954	incorrect	incongruent	Block1	incongruent/STIM_027.jpg
539.28	0.848	correct	incongruent	Block1	incongruent/STIM_027.jpg
543.322	0.928	correct	incongruent	Block1	incongruent/STIM_027.jpg
546.512	0.926	correct	incongruent	Block1	incongruent/STIM_027.jpg
550.801	0.764	correct	incongruent	Block1	incongruent/STIM_027.jpg
554.829	0.826	correct	incongruent	Block1	incongruent/STIM_028.jpg
557.866	0.891	correct	incongruent	Block1	incongruent/STIM_028.jpg
561.16	1.11	correct	incongruent	Block1	incongruent/STIM_028.jpg
566.123	0.892	correct	incongruent	Block1	incongruent/STIM_028.jpg
570.744	0.726	correct	incongruent	Block1	incongruent/STIM_028.jpg
575.43	1.249	correct	incongruent	Block1	incongruent/STIM_029.jpg
580.706	1.174	correct	incongruent	Block1	incongruent/STIM_029.jpg
585.015	1.102	correct	incongruent	Block1	incongruent/STIM_029.jpg
588.466	1.05	correct	incongruent	Block1	incongruent/STIM_029.jpg
593.357	0.771	correct	incongruent	Block1	incongruent/STIM_029.jpg
596.83	0.576	correct	congruent	Block1	congruent/STIM_000.jpg
599.77	0.833	correct	congruent	Block1	congruent/STIM_000.jpg
603.785	0.89	correct	congruent	Block1	congruent/STIM_000.jpg
608.501	0.51	correct	congruent	Block1	congruent/STIM_000.jpg
612.702	0.819	correct	congruent	Block1	congruent/STIM_000.jpg
615.741	0.591	incorrect	congruent	Block1	congruent/STIM_001.jpg
619.935	0.554	correct	congruent	Block1	congruent/STIM_001.jpg
623.962	0.643	correct	congruent	Block1	congruent/STIM_001.jpg
627.499	0.747	correct	congruent	Block1	congruent/STIM_001.jpg
630.805	0.505	correct	congruent	Block1	congruent/STIM_001.jpg
634.515	0.801	correct	congruent	Block1	congruent/STIM_002.jpg
637.5	0.752	correct	congruent	Block1	congruent/STIM_002.jpg
640.8	0.632	correct	congruent	Block1	congruent/STIM_002.jpg
644.944	0.642	correct	congruent	Block1	congruent/STIM_002.jpg
648.608	0.701	correct	congruent	Block1	congruent/STIM_002.jpg
652.619	0.823	correct	congruent	Block1	congruent/STIM_003.jpg
656.016	0.804	correct	congruent	Block1	congruent/STIM_003.jpg
660.822	0.565	correct	congruent	Block1	congruent/STIM_003.jpg
664.705	0.886	correct	congruent	Block1	congruent/STIM_003.jpg
669.087	0.625	correct	congruent	Block1	congruent/STIM_003.jpg
673.521	0.702	correct	congruent	Block1	congruent/STIM_004.jpg
677.841	0.617	correct	congruent	Block1	congruent/STIM_004.jpg
681.87	0.748	correct	congruent	Block1	congruent/STIM_004.jpg
686.362	0.629	correct	congruent	Block1	congruent/STIM_004.jpg
689.433	0.74	correct	congruent	Block1	congruent/STIM_004.jpg
692.829	0.895	correct	congruent	Block1	congruent/STIM_005.jpg
696.409	0.86	correct	congruent	Block1	congruent/STIM_005.jpg
700.33	0.568	correct	congruent	Block1	congruent/STIM_005.jpg
704.312	0.54	correct	congruent	Block1	congruent/STIM_005.jpg
707.688	0.65	correct	congruent	Block1	congruent/STIM_005.jpg
711.902	0.783	correct	congruent	Block1	congruent/STIM_006.jpg
715.67	0.545	correct	congruent	Block1	congruent/STIM_006.jpg
718.947	0.576	correct	congruent	Block1	congruent/STIM_006.jpg
722.048	0.65	correct	congruent	Block1	congruent/STIM_006.jpg
726.439	0.76	correct	congruent	Block1	congruent/STIM_006.jpg
730.857	0.593	correct	congruent	Block1	congruent/STIM_007.jpg
734.384	0.696	correct	congruent	Block1	congruent/STIM_007.jpg
738.979	0.613	correct	congruent	Block1	congruent/STIM_007.jpg
743.017	0.745	correct	congruent	Block1	congruent/STIM_007.jpg
747.636	0.83	correct	congruent	Block1	congruent/STIM_007.jpg
752.234	0.574	correct	congruent	Block1	congruent/STIM_008.jpg
755.177	0.543	correct	congruent	Block1	congruent/STIM_008.jpg
758.031	0.503	incorrect	congruent	Block1	congruent/STIM_008.jpg
761.101	0.777	correct	congruent	Block1	congruent/STIM_008.jpg
765.24	0.733	correct	congruent	Block1	congruent/STIM_008.jpg
768.987	0.732	correct	congruent	Block1	congruent/STIM_009.jpg
772.081	0.808	correct	congruent	Block1	congruent/STIM_009.jpg
776.807	0.81	correct	congruent	Block1	congruent/STIM_009.jpg
780.722	0.544	correct	congruent	Block1	congruent/STIM_009.jpg
783.811	0.74	correct	congruent	Block1	congruent/STIM_009.jpg
787.19	0.442	correct	congruent	Block1	congruent/STIM_010.jpg
790.232	0.752	correct	congruent	Block1	congruent/STIM_010.jpg
794.029	0.595	correct	congruent	Block1	congruent/STIM_010.jpg
796.763	0.691	correct	congruent	Block1	congruent/STIM_010.jpg
799.868	0.739	correct	congruent	Block1	congruent/STIM_010.jpg
804.237	0.902	correct	congruent	Block1	congruent/STIM_011.jpg
808.969	0.786	correct	congruent	Block1	congruent/STIM_011.jpg
812.716	0.482	incorrect	congruent	Block1	congruent/STIM_011.jpg
816.214	0.527	correct	congruent	Block1	congruent/STIM_011.jpg
819.19	0.596	correct	congruent	Block1	congruent/STIM_011.jpg
823.68	0.546	correct	congruent	Block1	congruent/STIM_012.jpg
827.083	0.51	correct	congruent	Block1	congruent/STIM_012.jpg
830.165	0.542	correct	congruent	Block1	congruent/STIM_012.jpg
833.751	0.666	correct	congruent	Block1	congruent/STIM_012.jpg
838.374	0.627	correct	congruent	Block1	congruent/STIM_012.jpg
841.732	0.731	correct	congruent	Block1	congruent/STIM_013.jpg
844.732	0.855	correct	congruent	Block1	congruent/STIM_013.jpg
847.869	0.732	correct	congruent	Block1	congruent/STIM_013.jpg
851.594	0.634	correct	congruent	Block1	congruent/STIM_013.jpg
856.3	0.681	correct	congruent	Block1	congruent/STIM_013.jpg
860.295	0.753	correct	congruent	Block1	congruent/STIM_014.jpg
864.798	0.668	correct	congruent	Block1	congruent/STIM_014.jpg
868.715	0.7	correct	congruent	Block1	congruent/STIM_014.jpg
873.178	0.768	correct	congruent	Block1	congruent/STIM_014.jpg
876.52	0.711	correct	congruent	Block1	congruent/STIM_014.jpg
880.721	0.753	correct	congruent	Block1	congruent/STIM_015.jpg
885.445	0.663	incorrect	congruent	Block1	congruent/STIM_015.jpg
889.947	0.521	correct	congruent	Block1	congruent/STIM_015.jpg
893.58	0.789	correct	congruent	Block1	congruent/STIM_015.jpg
898.214	0.812	correct	congruent	Block1	congruent/STIM_015.jpg
901.442	0.711	correct	congruent	Block1	congruent/STIM_016.jpg
905.349	0.727	correct	congruent	Block1	congruent/STIM_016.jpg
908.785	0.832	correct	congruent	Block1	congruent/STIM_016.jpg
912.872	0.504	correct	congruent	Block1	congruent/STIM_016.jpg
915.451	0.503	correct	congruent	Block1	congruent/STIM_016.jpg
918.305	0.564	correct	congruent	Block1	congruent/STIM_017.jpg
921.196	0.704	correct	congruent	Block1	congruent/STIM_017.jpg
924.876	0.687	correct	congruent	Block1	congruent/STIM_017.jpg
929.237	0.584	correct	congruent	Block1	congruent/STIM_017.jpg
932.014	0.501	correct	congruent	Block1	congruent/STIM_017.jpg
934.685	0.735	correct	congruent	Block1	congruent/STIM_018.jpg
938.712	0.774	correct	congruent	Block1	congruent/STIM_018.jpg
941.677	0.592	correct	congruent	Block1	congruent/STIM_018.jpg
945.527	0.521	correct	congruent	Block1	congruent/STIM_018.jpg
948.27	0.692	correct	congruent	Block1	congruent/STIM_018.jpg
952.339	0.609	correct	congruent	Block1	congruent/STIM_019.jpg
955.624	0.783	incorrect	congruent	Block1	congruent/STIM_019.jpg
958.758	0.756	correct	congruent	Block1	congruent/STIM_019.jpg
962.814	0.496	correct	congruent	Block1	congruent/STIM_019.jpg
966.702	0.691	correct	congruent	Block1	congruent/STIM_019.jpg
970.348	0.825	incorrect	congruent	Block1	congruent/STIM_020.jpg
974.882	0.811	correct	congruent	Block1	congruent/STIM_020.jpg
978.909	0.705	correct	congruent	Block1	congruent/STIM_020.jpg
981.879	0.665	correct	congruent	Block1	congruent/STIM_020.jpg
984.658	0.515	correct	congruent	Block1	congruent/STIM_020.jpg
989.192	0.717	correct	congruent	Block1	congruent/STIM_021.jpg
992.451	0.869	correct	congruent	Block1	congruent/STIM_021.jpg
997.3	0.495	correct	congruent	Block1	congruent/STIM_021.jpg
1000.453	0.758	correct	congruent	Block1	congruent/STIM_021.jpg
1004.327	0.604	correct	congruent	Block1	congruent/STIM_021.jpg
1007.694	0.468	correct	congruent	Block1	congruent/STIM_022.jpg
1012.153	0.716	correct	congruent	Block1	congruent/STIM_022.jpg
1016.9	0.819	correct	congruent	Block1	congruent/STIM_022.jpg
1021.335	0.679	correct	congruent	Block1	congruent/STIM_022.jpg
1024.524	0.398	correct	congruent	Block1	congruent/STIM_022.jpg
1027.191	0.724	correct	congruent	Block1	congruent/STIM_023.jpg
1031.514	0.54	correct	congruent	Block1	congruent/STIM_023.jpg
1035.881	0.728	correct	congruent	Block1	congruent/STIM_023.jpg
1040.485	0.585	correct	congruent	Block1	congruent/STIM_023.jpg
1043.099	0.59	correct	congruent	Block1	congruent/STIM_023.jpg
1047.139	0.791	incorrect	congruent	Block1	congruent/STIM_024.jpg
1050.63	0.72	correct	congruent	Block1	congruent/STIM_024.jpg
1054.464	0.629	correct	congruent	Block1	congruent/STIM_024.jpg
1057.165	0.535	correct	congruent	Block1	congruent/STIM_024.jpg
1060.655	0.581	correct	congruent	Block1	congruent/STIM_024.jpg
1063.534	0.645	correct	congruent	Block1	congruent/STIM_025.jpg
1067.533	0.822	correct	congruent	Block1	congruent/STIM_025.jpg
1071.57	0.845	correct	congruent	Block1	congruent/STIM_025.jpg
1075.83	0.636	correct	congruent	Block1	congruent/STIM_025.jpg
1079.484	0.602	correct	congruent	Block1	congruent/STIM_025.jpg
1083.965	0.872	correct	congruent	Block1	congruent/STIM_026.jpg
1088.397	0.641	correct	congruent	Block1	congruent/STIM_026.jpg
1092.878	0.622	correct	congruent	Block1	congruent/STIM_026.jpg
1097.177	0.643	correct	congruent	Block1	congruent/STIM_026.jpg
1101.836	0.57	correct	congruent	Block1	congruent/STIM_026.jpg
1105.358	0.784	correct	congruent	Block1	congruent/STIM_027.jpg
1108.712	0.548	correct	congruent	Block1	congruent/STIM_027.jpg
1113.194	0.58	correct	congruent	Block1	congruent/STIM_027.jpg
1117.788	0.639	correct	congruent	Block1	congruent/STIM_027.jpg
1120.944	0.615	correct	congruent	Block1	congruent/STIM_027.jpg
1124.644	0.596	correct	congruent	Block1	congruent/STIM_028.jpg
1128.017	0.649	correct	congruent	Block1	congruent/STIM_028.jpg
1131.542	0.754	correct	congruent	Block1	congruent/STIM_028.jpg
1135.924	0.49	correct	congruent	Block1	congruent/STIM_028.jpg
1139.784	0.511	correct	congruent	Block1	congruent/STIM_028.jpg
1143.885	0.403	correct	congruent	Block1	congruent/STIM_029.jpg
1147.577	0.469	correct	congruent	Block1	congruent/STIM_029.jpg
1150.707	0.773	correct	congruent	Block1	congruent/STIM_029.jpg
1153.645	0.792	incorrect	congruent	Block1	congruent/STIM_029.jpg
1157.681	0.437	correct	congruent	Block1	congruent/STIM_029.jpg
1161.306	0.833	correct	incongruent	Block2	incongruent/STIM_000.jpg
1165.733	0.746	correct	incongruent	Block2	incongruent/STIM_000.jpg
1169.398	0.965	correct	incongruent	Block2	incongruent/STIM_000.jpg
1172.765	0.747	correct	incongruent	Block2	incongruent/STIM_000.jpg
1176.442	0.586	correct	incongruent	Block2	incongruent/STIM_000.jpg
1180.66	1.092	correct	incongruent	Block2	incongruent/STIM_001.jpg
1185.256	0.907	correct	incongruent	Block2	incongruent/STIM_001.jpg
1189.341	0.92	correct	incongruent	Block2	incongruent/STIM_001.jpg
1193.819	0.678	correct	incongruent	Block2	incongruent/STIM_001.jpg
1197.67	0.718	correct	incongruent	Block2	incongruent/STIM_001.jpg
1200.606	0.983	correct	incongruent	Block2	incongruent/STIM_002.jpg
1204.31	0.777	correct	incongruent	Block2	incongruent/STIM_002.jpg
1208.141	0.926	correct	incongruent	Block2	incongruent/STIM_002.jpg
1211.906	0.734	correct	incongruent	Block2	incongruent/STIM_002.jpg
1215.549	0.689	correct	incongruent	Block2	incongruent/STIM_002.jpg
1219.125	1.148	correct	incongruent	Block2	incongruent/STIM_003.jpg
1223.518	0.836	correct	incongruent	Block2	incongruent/STIM_003.jpg
1226.737	0.571	correct	incongruent	Block2	incongruent/STIM_003.jpg
1231.04	0.736	correct	incongruent	Block2	incongruent/STIM_003.jpg
1233.915	0.818	correct	incongruent	Block2	incongruent/STIM_003.jpg
1238.601	0.821	correct	incongruent	Block2	incongruent/STIM_004.jpg
1242.146	0.998	correct	incongruent	Block2	incongruent/STIM_004.jpg
1245.225	0.375	correct	incongruent	Block2	incongruent/STIM_004.jpg
1248.925	0.955	correct	incongruent	Block2	incongruent/STIM_004.jpg
1252.615	0.842	correct	incongruent	Block2	incongruent/STIM_004.jpg
1256.926	0.912	incorrect	incongruent	Block2	incongruent/STIM_005.jpg
1261.68	0.758	correct	incongruent	Block2	incongruent/STIM_005.jpg
1264.536	0.828	correct	incongruent	Block2	incongruent/STIM_005.jpg
1268.794	1.044	correct	incongruent	Block2	incongruent/STIM_005.jpg
1272.483	0.775	correct	incongruent	Block2	incongruent/STIM_005.jpg
1275.791	1.186	correct	incongruent	Block2	incongruent/STIM_006.jpg
1279.289	0.751	correct	incongruent	Block2	incongruent/STIM_006.jpg
1282.593	0.96	correct	incongruent	Block2	incongruent/STIM_006.jpg
1287.06	0.737	correct	incongruent	Block2	incongruent/STIM_006.jpg
1290.328	0.72	correct	incongruent	Block2	incongruent/STIM_006.jpg
1293.414	0.916	correct	incongruent	Block2	incongruent/STIM_007.jpg
1296.672	0.748	correct	incongruent	Block2	incongruent/STIM_007.jpg
1299.473	0.948	correct	incongruent	Block2	incongruent/STIM_007.jpg
1304.21	0.603	correct	incongruent	Block2	incongruent/STIM_007.jpg
1308.066	0.546	correct	incongruent	Block2	incongruent/STIM_007.jpg
1311.426	0.545	correct	incongruent	Block2	incongruent/STIM_008.jpg
1314.924	0.672	correct	incongruent	Block2	incongruent/STIM_008.jpg
1318.1	0.704	incorrect	incongruent	Block2	incongruent/STIM_008.jpg
1322.475	0.772	correct	incongruent	Block2	incongruent/STIM_008.jpg
1326.802	0.793	correct	incongruent	Block2	incongruent/STIM_008.jpg
1330.509	0.877	correct	incongruent	Block2	incongruent/STIM_009.jpg
1333.459	0.897	incorrect	incongruent	Block2	incongruent/STIM_009.jpg
1336.437	0.971	correct	incongruent	Block2	incongruent/STIM_009.jpg
1340.358	0.699	correct	incongruent	Block2	incongruent/STIM_009.jpg
1345.099	0.739	correct	incongruent	Block2	incongruent/STIM_009.jpg
1348.108	0.873	correct	incongruent	Block2	incongruent/STIM_010.jpg
1351.741	0.905	correct	incongruent	Block2	incongruent/STIM_010.jpg
1355.633	0.691	correct	incongruent	Block2	incongruent/STIM_010.jpg
1359.224	0.903	correct	incongruent	Block2	incongruent/STIM_010.jpg
1363.79	0.884	correct	incongruent	Block2	incongruent/STIM_010.jpg
1366.929	0.807	correct	incongruent	Block2	incongruent/STIM_011.jpg
1370.493	0.718	correct	incongruent	Block2	incongruent/STIM_011.jpg
1374.979	0.887	correct	incongruent	Block2	incongruent/STIM_011.jpg
1378.261	0.742	correct	incongruent	Block2	incongruent/STIM_011.jpg
1381.145	0.604	correct	incongruent	Block2	incongruent/STIM_011.jpg
1385.273	0.865	correct	incongruent	Block2	incongruent/STIM_012.jpg
1388.885	0.579	correct	incongruent	Block2	incongruent/STIM_012.jpg
1393.292	0.978	correct	incongruent	Block2	incongruent/STIM_012.jpg
1396.842	0.727	correct	incongruent	Block2	incongruent/STIM_012.jpg
1401.485	0.921	correct	incongruent	Block2	incongruent/STIM_012.jpg
1406.204	0.93	correct	incongruent	Block2	incongruent/STIM_013.jpg
1409.727	0.824	correct	incongruent	Block2	incongruent/STIM_013.jpg
1414.112	0.624	correct	incongruent	Block2	incongruent/STIM_013.jpg
1417.983	0.735	correct	incongruent	Block2	incongruent/STIM_013.jpg
1422.099	0.692	correct	incongruent	Block2	incongruent/STIM_013.jpg
1425.917	1.09	correct	incongruent	Block2	incongruent/STIM_014.jpg
1430.533	0.487	incorrect	incongruent	Block2	incongruent/STIM_014.jpg
1433.863	0.524	correct	incongruent	Block2	incongruent/STIM_014.jpg
1438.108	0.626	correct	incongruent	Block2	incongruent/STIM_014.jpg
1441.013	0.52	correct	incongruent	Block2	incongruent/STIM_014.jpg
1444.384	0.702	correct	incongruent	Block2	incongruent/STIM_015.jpg
1447.785	0.941	incorrect	incongruent	Block2	incongruent/STIM_015.jpg
1451.646	0.559	correct	incongruent	Block2	incongruent/STIM_015.jpg
1454.996	0.946	correct	incongruent	Block2	incongruent/STIM_015.jpg
1458.729	0.798	correct	incongruent	Block2	incongruent/STIM_015.jpg
1462.074	0.952	correct	incongruent	Block2	incongruent/STIM_016.jpg
1465.583	1.142	correct	incongruent	Block2	incongruent/STIM_016.jpg
1469.151	0.968	correct	incongruent	Block2	incongruent/STIM_016.jpg
1473.215	0.681	correct	incongruent	Block2	incongruent/STIM_016.jpg
1476.746	0.774	correct	incongruent	Block2	incongruent/STIM_016.jpg
1480.251	0.824	correct	incongruent	Block2	incongruent/STIM_017.jpg
1483.993	0.602	correct	incongruent	Block2	incongruent/STIM_017.jpg
1487.585	0.761	correct	incongruent	Block2	incongruent/STIM_017.jpg
1491.732	0.746	correct	incongruent	Block2	incongruent/STIM_017.jpg
1496.542	0.463	correct	incongruent	Block2	incongruent/STIM_017.jpg
1499.151	0.57	correct	incongruent	Block2	incongruent/STIM_018.jpg
1503.412	1.039	correct	incongruent	Block2	incongruent/STIM_018.jpg
1507.991	0.766	incorrect	incongruent	Block2	incongruent/STIM_018.jpg
1512.237	0.692	correct	incongruent	Block2	incongruent/STIM_018.jpg
1515.638	1.02	correct	incongruent	Block2	incongruent/STIM_018.jpg
1519.652	1.097	incorrect	incongruent	Block2	incongruent/STIM_019.jpg
1524.193	0.565	correct	incongruent	Block2	incongruent/STIM_019.jpg
1527.776	0.917	correct	incongruent	Block2	incongruent/STIM_019.jpg
1531.51	0.855	correct	incongruent	Block2	incongruent/STIM_019.jpg
1535.497	0.926	correct	incongruent	Block2	incongruent/STIM_019.jpg
1539.937	1.23	correct	incongruent	Block2	incongruent/STIM_020.jpg
1544.618	1.159	correct	incongruent	Block2	incongruent/STIM_020.jpg
1549.766	0.972	correct	incongruent	Block2	incongruent/STIM_020.jpg
1554.764	0.533	correct	incongruent	Block2	incongruent/STIM_020.jpg
1558.621	0.897	correct	incongruent	Block2	incongruent/STIM_020.jpg
1563.14	1.121	incorrect	incongruent	Block2	incongruent/STIM_021.jpg
1567.002	0.875	correct	incongruent	Block2	incongruent/STIM_021.jpg
1571.539	0.95	correct	incongruent	Block2	incongruent/STIM_021.jpg
1576.15	0.718	correct	incongruent	Block2	incongruent/STIM_021.jpg
1580.275	0.626	correct	incongruent	Block2	incongruent/STIM_021.jpg
1583.044	0.649	correct	incongruent	Block2	incongruent/STIM_022.jpg
1586.781	0.58	correct	incongruent	Block2	incongruent/STIM_022.jpg
1590.202	0.863	correct	incongruent	Block2	incongruent/STIM_022.jpg
1593.167	0.462	correct	incongruent	Block2	incongruent/STIM_022.jpg
1596.206	0.923	correct	incongruent	Block2	incongruent/STIM_022.jpg
1601.122	0.616	correct	incongruent	Block2	incongruent/STIM_023.jpg
1605.022	0.784	correct	incongruent	Block2	incongruent/STIM_023.jpg
1609.123	0.856	correct	incongruent	Block2	incongruent/STIM_023.jpg
1613.873	0.897	correct	incongruent	Block2	incongruent/STIM_023.jpg
1618.681	0.789	correct	incongruent	Block2	incongruent/STIM_023.jpg
1621.622	1.014	correct	incongruent	Block2	incongruent/STIM_024.jpg
1625.871	1.104	correct	incongruent	Block2	incongruent/STIM_024.jpg
1630.395	0.749	correct	incongruent	Block2	incongruent/STIM_024.jpg
1634.393	0.75	correct	incongruent	Block2	incongruent/STIM_024.jpg
1638.327	0.892	correct	incongruent	Block2	incongruent/STIM_024.jpg
1643.024	0.978	incorrect	incongruent	Block2	incongruent/STIM_025.jpg
1647.91	1.0	correct	incongruent	Block2	incongruent/STIM_025.jpg
1651.418	0.922	correct	incongruent	Block2	incongruent/STIM_025.jpg
1654.787	0.726	correct	incongruent	Block2	incongruent/STIM_025.jpg
1658.733	0.56	correct	incongruent	Block2	incongruent/STIM_025.jpg
1662.183	0.845	correct	incongruent	Block2	incongruent/STIM_026.jpg
1666.825	1.017	correct	incongruent	Block2	incongruent/STIM_026.jpg
1671.642	1.028	correct	incongruent	Block2	incongruent/STIM_026.jpg
1675.413	0.62	correct	incongruent	Block2	incongruent/STIM_026.jpg
1679.868	0.983	correct	incongruent	Block2	incongruent/STIM_026.jpg
1683.041	1.03	correct	incongruent	Block2	incongruent/STIM_027.jpg
1687.847	1.092	correct	incongruent	Block2	incongruent/STIM_027.jpg
1692.637	0.919	correct	incongruent	Block2	incongruent/STIM_027.jpg
1695.783	0.467	correct	incongruent	Block2	incongruent/STIM_027.jpg
1699.567	0.874	correct	incongruent	Block2	incongruent/STIM_027.jpg
1703.322	0.859	correct	incongruent	Block2	incongruent/STIM_028.jpg
1707.921	0.902	correct	incongruent	Block2	incongruent/STIM_028.jpg
1712.416	0.67	correct	incongruent	Block2	incongruent/STIM_028.jpg
1716.948	0.598	correct	incongruent	Block2	incongruent/STIM_028.jpg
1720.918	0.826	correct	incongruent	Block2	incongruent/STIM_028.jpg
1724.078	1.168	correct	incongruent	Block2	incongruent/STIM_029.jpg
1728.106	0.639	correct	incongruent	Block2	incongruent/STIM_029.jpg
1731.403	0.878	correct	incongruent	Block2	incongruent/STIM_029.jpg
1736.227	0.409	correct	incongruent	Block2	incongruent/STIM_029.jpg
1739.958	0.73	correct	incongruent	Block2	incongruent/STIM_029.jpg
1743.087	0.538	correct	congruent	Block2	congruent/STIM_000.jpg
1745.997	0.694	correct	congruent	Block2	congruent/STIM_000.jpg
1750.635	0.775	correct	congruent	Block2	congruent/STIM_000.jpg
1755.159	0.669	incorrect	congruent	Block2	congruent/STIM_000.jpg
1758.117	0.44	correct	congruent	Block2	congruent/STIM_000.jpg
1760.727	0.474	correct	congruent	Block2	congruent/STIM_001.jpg
1763.774	0.489	correct	congruent	Block2	congruent/STIM_001.jpg
1768.32	0.683	correct	congruent	Block2	congruent/STIM_001.jpg
1771.574	0.65	correct	congruent	Block2	congruent/STIM_001.jpg
1774.749	0.858	correct	congruent	Block2	congruent/STIM_001.jpg
1778.408	0.583	correct	congruent	Block2	congruent/STIM_002.jpg
1782.749	0.718	correct	congruent	Block2	congruent/STIM_002.jpg
1787.338	0.574	correct	congruent	Block2	congruent/STIM_002.jpg
1790.03	0.488	correct	congruent	Block2	congruent/STIM_002.jpg
1794.055	0.63	correct	congruent	Block2	congruent/STIM_002.jpg
1796.911	0.813	correct	congruent	Block2	congruent/STIM_003.jpg
1801.308	0.722	correct	congruent	Block2	congruent/STIM_003.jpg
1805.667	0.619	correct	congruent	Block2	congruent/STIM_003.jpg
1809.401	0.79	correct	congruent	Block2	congruent/STIM_003.jpg
1813.567	0.513	correct	congruent	Block2	congruent/STIM_003.jpg
1816.691	0.477	correct	congruent	Block2	congruent/STIM_004.jpg
1820.002	0.599	correct	congruent	Block2	congruent/STIM_004.jpg
1824.263	0.765	correct	congruent	Block2	congruent/STIM_004.jpg
1827.186	0.698	correct	congruent	Block2	congruent/STIM_004.jpg
1831.399	0.458	correct	congruent	Block2	congruent/STIM_004.jpg
1834.677	0.82	correct	congruent	Block2	congruent/STIM_005.jpg
1839.324	0.492	correct	congruent	Block2	congruent/STIM_005.jpg
1842.996	0.778	correct	congruent	Block2	congruent/STIM_005.jpg
1846.599	0.752	correct	congruent	Block2	congruent/STIM_005.jpg
1849.799	0.782	correct	congruent	Block2	congruent/STIM_005.jpg
1853.258	0.665	correct	congruent	Block2	congruent/STIM_006.jpg
1857.464	0.604	correct	congruent	Block2	congruent/STIM_006.jpg
1860.65	0.556	incorrect	congruent	Block2	congruent/STIM_006.jpg
1864.656	0.729	correct	congruent	Block2	congruent/STIM_006.jpg
1868.701	0.84	correct	congruent	Block2	congruent/STIM_006.jpg
1872.974	0.802	correct	congruent	Block2	congruent/STIM_007.jpg
1876.031	0.524	correct	congruent	Block2	congruent/STIM_007.jpg
1878.927	0.814	correct	congruent	Block2	congruent/STIM_007.jpg
1882.356	0.718	incorrect	congruent	Block2	congruent/STIM_007.jpg
1885.638	0.824	correct	congruent	Block2	congruent/STIM_007.jpg
1890.275	0.637	correct	congruent	Block2	congruent/STIM_008.jpg
1894.243	0.588	correct	congruent	Block2	congruent/STIM_008.jpg
1898.081	0.483	correct	congruent	Block2	congruent/STIM_008.jpg
1900.648	0.563	correct	congruent	Block2	congruent/STIM_008.jpg
1904.41	0.618	correct	congruent	Block2	congruent/STIM_008.jpg
1907.976	0.766	correct	congruent	Block2	congruent/STIM_009.jpg
1910.932	0.495	correct	congruent	Block2	congruent/STIM_009.jpg
1914.283	0.653	correct	congruent	Block2	congruent/STIM_009.jpg
1917.829	0.856	correct	congruent	Block2	congruent/STIM_009.jpg
1921.217	0.695	correct	congruent	Block2	congruent/STIM_009.jpg
1924.181	0.804	correct	congruent	Block2	congruent/STIM_010.jpg
1928.359	0.817	correct	congruent	Block2	congruent/STIM_010.jpg
1931.452	0.694	correct	congruent	Block2	congruent/STIM_010.jpg
1935.63	0.519	correct	congruent	Block2	congruent/STIM_010.jpg
1939.586	0.648	correct	congruent	Block2	congruent/STIM_010.jpg
1942.751	0.644	correct	congruent	Block2	congruent/STIM_011.jpg
1945.863	0.505	correct	congruent	Block2	congruent/STIM_011.jpg
1950.369	0.554	correct	congruent	Block2	congruent/STIM_011.jpg
1954.661	0.54	correct	congruent	Block2	congruent/STIM_011.jpg
1959.184	0.732	correct	congruent	Block2	congruent/STIM_011.jpg
1963.036	0.472	correct	congruent	Block2	congruent/STIM_012.jpg
1967.224	0.57	correct	congruent	Block2	congruent/STIM_012.jpg
1971.436	0.53	correct	congruent	Block2	congruent/STIM_012.jpg
1975.616	0.739	correct	congruent	Block2	congruent/STIM_012.jpg
1978.521	0.67	correct	congruent	Block2	congruent/STIM_012.jpg
1982.062	0.697	correct	congruent	Block2	congruent/STIM_013.jpg
1985.905	0.721	correct	congruent	Block2	congruent/STIM_013.jpg
1990.689	0.74	correct	congruent	Block2	congruent/STIM_013.jpg
1995.115	0.943	incorrect	congruent	Block2	congruent/STIM_013.jpg
1999.061	0.848	correct	congruent	Block2	congruent/STIM_013.jpg
2003.455	0.822	correct	congruent	Block2	congruent/STIM_014.jpg
2007.269	0.489	correct	congruent	Block2	congruent/STIM_014.jpg
2011.185	0.527	correct	congruent	Block2	congruent/STIM_014.jpg
2014.758	0.554	correct	congruent	Block2	congruent/STIM_014.jpg
2019.24	0.465	correct	congruent	Block2	congruent/STIM_014.jpg
2023.456	0.742	correct	congruent	Block2	congruent/STIM_015.jpg
2028.14	0.71	correct	congruent	Block2	congruent/STIM_015.jpg
2032.814	0.858	correct	congruent	Block2	congruent/STIM_015.jpg
2036.893	0.583	correct	congruent	Block2	congruent/STIM_015.jpg
2040.027	0.717	correct	congruent	Block2	congruent/STIM_015.jpg
2043.65	0.488	correct	congruent	Block2	congruent/STIM_016.jpg
2047.087	0.673	correct	congruent	Block2	congruent/STIM_016.jpg
2050.735	0.629	correct	congruent	Block2	congruent/STIM_016.jpg
2054.544	0.727	correct	congruent	Block2	congruent/STIM_016.jpg
2059.253	0.552	correct	congruent	Block2	congruent/STIM_016.jpg
2062.281	0.746	correct	congruent	Block2	congruent/STIM_017.jpg
2066.703	0.874	correct	congruent	Block2	congruent/STIM_017.jpg
2069.946	0.825	correct	congruent	Block2	congruent/STIM_017.jpg
2073.325	0.533	incorrect	congruent	Block2	congruent/STIM_017.jpg
2077.199	0.731	correct	congruent	Block2	congruent/STIM_017.jpg
2081.223	0.736	correct	congruent	Block2	congruent/STIM_018.jpg
2084.797	0.802	correct	congruent	Block2	congruent/STIM_018.jpg
2089.362	0.611	correct	congruent	Block2	congruent/STIM_018.jpg
2092.817	0.763	incorrect	congruent	Block2	congruent/STIM_018.jpg
2097.04	0.83	incorrect	congruent	Block2	congruent/STIM_018.jpg
2101.719	0.65	correct	congruent	Block2	congruent/STIM_019.jpg
2105.249	0.597	correct	congruent	Block2	congruent/STIM_019.jpg
2108.936	0.55	correct	congruent	Block2	congruent/STIM_019.jpg
2112.82	0.642	correct	congruent	Block2	congruent/STIM_019.jpg
2115.723	0.64	correct	congruent	Block2	congruent/STIM_019.jpg
2119.723	0.774	correct	congruent	Block2	congruent/STIM_020.jpg
2122.781	0.454	correct	congruent	Block2	congruent/STIM_020.jpg
2126.728	0.63	correct	congruent	Block2	congruent/STIM_020.jpg
2129.916	0.629	correct	congruent	Block2	congruent/STIM_020.jpg
2132.551	0.643	correct	congruent	Block2	congruent/STIM_020.jpg
2135.162	0.562	correct	congruent	Block2	congruent/STIM_021.jpg
2138.049	0.516	correct	congruent	Block2	congruent/STIM_021.jpg
2140.644	0.513	correct	congruent	Block2	congruent/STIM_021.jpg
2143.674	0.897	correct	congruent	Block2	congruent/STIM_021.jpg
2146.804	0.592	correct	congruent	Block2	congruent/STIM_021.jpg
2151.425	0.753	correct	congruent	Block2	congruent/STIM_022.jpg
2155.014	0.715	correct	congruent	Block2	congruent/STIM_022.jpg
2159.204	0.653	correct	congruent	Block2	congruent/STIM_022.jpg
2162.198	0.504	correct	congruent	Block2	congruent/STIM_022.jpg
2165.196	0.672	correct	congruent	Block2	congruent/STIM_022.jpg
2168.536	0.713	correct	congruent	Block2	congruent/STIM_023.jpg
2171.827	0.812	correct	congruent	Block2	congruent/STIM_023.jpg
2175.836	0.436	correct	congruent	Block2	congruent/STIM_023.jpg
2178.565	0.832	incorrect	congruent	Block2	congruent/STIM_023.jpg
2182.54	0.553	correct	congruent	Block2	congruent/STIM_023.jpg
2185.513	0.546	correct	congruent	Block2	congruent/STIM_024.jpg
2188.738	0.788	correct	congruent	Block2	congruent/STIM_024.jpg
2193.492	0.634	correct	congruent	Block2	congruent/STIM_024.jpg
2196.437	0.628	correct	congruent	Block2	congruent/STIM_024.jpg
2199.447	0.64	incorrect	congruent	Block2	congruent/STIM_024.jpg
2202.905	0.77	correct	congruent	Block2	congruent/STIM_025.jpg
2206.946	0.868	correct	congruent	Block2	congruent/STIM_025.jpg
2211.162	0.56	correct	congruent	Block2	congruent/STIM_025.jpg
2215.534	0.522	correct	congruent	Block2	congruent/STIM_025.jpg
2219.991	0.719	correct	congruent	Block2	congruent/STIM_025.jpg
2223.027	0.711	correct	congruent	Block2	congruent/STIM_026.jpg
2226.918	0.833	correct	congruent	Block2	congruent/STIM_026.jpg
2231.149	0.505	correct	congruent	Block2	congruent/STIM_026.jpg
2234.271	0.524	correct	congruent	Block2	congruent/STIM_026.jpg
2237.411	0.591	correct	congruent	Block2	congruent/STIM_026.jpg
2240.871	0.672	correct	congruent	Block2	congruent/STIM_027.jpg
2243.694	0.76	correct	congruent	Block2	congruent/STIM_027.jpg
2247.149	0.772	correct	congruent	Block2	congruent/STIM_027.jpg
2250.23	0.738	correct	congruent	Block2	congruent/STIM_027.jpg
2253.012	0.721	correct	congruent	Block2	congruent/STIM_027.jpg
2256.699	0.386	correct	congruent	Block2	congruent/STIM_028.jpg
2260.964	0.659	correct	congruent	Block2	congruent/STIM_028.jpg
2264.643	0.77	correct	congruent	Block2	congruent/STIM_028.jpg
2267.795	0.782	correct	congruent	Block2	congruent/STIM_028.jpg
2272.311	0.812	correct	congruent	Block2	congruent/STIM_028.jpg
2275.576	0.414	correct	congruent	Block2	congruent/STIM_029.jpg
2278.525	0.569	correct	congruent	Block2	congruent/STIM_029.jpg
2281.624	0.672	correct	congruent	Block2	congruent/STIM_029.jpg
2284.802	0.788	correct	congruent	Block2	congruent/STIM_029.jpg
2288.59	0.651	correct	congruent	Block2	congruent/STIM_029.jpg
2291.747	0.921	correct	incongruent	Block3	incongruent/STIM_000.jpg
2294.893	0.616	correct	incongruent	Block3	incongruent/STIM_000.jpg
2298.604	0.515	correct	incongruent	Block3	incongruent/STIM_000.jpg
2302.965	0.715	correct	incongruent	Block3	incongruent/STIM_000.jpg
2306.842	0.603	correct	incongruent	Block3	incongruent/STIM_000.jpg
2309.764	0.726	incorrect	incongruent	Block3	incongruent/STIM_001.jpg
2313.838	0.474	correct	incongruent	Block3	incongruent/STIM_001.jpg
2317.693	0.944	correct	incongruent	Block3	incongruent/STIM_001.jpg
2321.963	0.992	correct	incongruent	Block3	incongruent/STIM_001.jpg
2325.382	0.811	correct	incongruent	Block3	incongruent/STIM_001.jpg
2329.737	0.942	correct	incongruent	Block3	incongruent/STIM_002.jpg
2334.651	1.011	correct	incongruent	Block3	incongruent/STIM_002.jpg
2339.43	0.469	correct	incongruent	Block3	incongruent/STIM_002.jpg
2343.472	0.6	correct	incongruent	Block3	incongruent/STIM_002.jpg
2347.985	1.019	correct	incongruent	Block3	incongruent/STIM_002.jpg
2352.942	0.985	correct	incongruent	Block3	incongruent/STIM_003.jpg
2356.449	0.653	correct	incongruent	Block3	incongruent/STIM_003.jpg
2359.269	0.918	correct	incongruent	Block3	incongruent/STIM_003.jpg
2362.423	0.428	correct	incongruent	Block3	incongruent/STIM_003.jpg
2365.008	0.829	correct	incongruent	Block3	incongruent/STIM_003.jpg
2368.081	0.612	correct	incongruent	Block3	incongruent/STIM_004.jpg
2372.734	0.513	correct	incongruent	Block3	incongruent/STIM_004.jpg
2377.313	0.938	correct	incongruent	Block3	incongruent/STIM_004.jpg
2380.943	0.95	correct	incongruent	Block3	incongruent/STIM_004.jpg
2385.207	0.919	correct	incongruent	Block3	incongruent/STIM_004.jpg
2389.826	0.932	correct	incongruent	Block3	incongruent/STIM_005.jpg
2393.398	0.556	correct	incongruent	Block3	incongruent/STIM_005.jpg
2396.397	0.62	correct	incongruent	Block3	incongruent/STIM_005.jpg
2400.216	0.664	correct	incongruent	Block3	incongruent/STIM_005.jpg
2404.169	0.464	correct	incongruent	Block3	incongruent/STIM_005.jpg
2407.163	0.948	correct	incongruent	Block3	incongruent/STIM_006.jpg
2410.337	0.502	correct	incongruent	Block3	incongruent/STIM_006.jpg
2413.784	0.659	correct	incongruent	Block3	incongruent/STIM_006.jpg
2417.859	0.548	correct	incongruent	Block3	incongruent/STIM_006.jpg
2421.42	0.812	correct	incongruent	Block3	incongruent/STIM_006.jpg
2425.409	0.922	correct	incongruent	Block3	incongruent/STIM_007.jpg
2430.087	0.633	correct	incongruent	Block3	incongruent/STIM_007.jpg
2434.337	0.826	correct	incongruent	Block3	incongruent/STIM_007.jpg
2438.359	0.631	correct	incongruent	Block3	incongruent/STIM_007.jpg
2441.149	0.737	correct	incongruent	Block3	incongruent/STIM_007.jpg
2445.131	0.969	correct	incongruent	Block3	incongruent/STIM_008.jpg
2448.31	0.717	correct	incongruent	Block3	incongruent/STIM_008.jpg
2452.518	0.971	correct	incongruent	Block3	incongruent/STIM_008.jpg
2457.427	0.731	correct	incongruent	Block3	incongruent/STIM_008.jpg
2460.681	0.48	correct	incongruent	Block3	incongruent/STIM_008.jpg
2463.23	0.722	correct	incongruent	Block3	incongruent/STIM_009.jpg
2466.108	0.505	correct	incongruent	Block3	incongruent/STIM_009.jpg
2470.284	0.571	correct	incongruent	Block3	incongruent/STIM_009.jpg
2474.131	0.846	correct	incongruent	Block3	incongruent/STIM_009.jpg
2478.98	0.75	correct	incongruent	Block3	incongruent/STIM_009.jpg
2482.275	0.96	correct	incongruent	Block3	incongruent/STIM_010.jpg
2485.671	0.815	correct	incongruent	Block3	incongruent/STIM_010.jpg
2489.875	0.599	correct	incongruent	Block3	incongruent/STIM_010.jpg
2494.075	0.718	correct	incongruent	Block3	incongruent/STIM_010.jpg
2496.811	0.508	correct	incongruent	Block3	incongruent/STIM_010.jpg
2499.892	0.674	correct	incongruent	Block3	incongruent/STIM_011.jpg
2502.901	0.484	correct	incongruent	Block3	incongruent/STIM_011.jpg
2507.361	0.682	correct	incongruent	Block3	incongruent/STIM_011.jpg
2511.671	0.536	correct	incongruent	Block3	incongruent/STIM_011.jpg
2514.404	0.785	correct	incongruent	Block3	incongruent/STIM_011.jpg
2518.376	0.776	correct	incongruent	Block3	incongruent/STIM_012.jpg
2521.59	0.901	correct	incongruent	Block3	incongruent/STIM_012.jpg
2526.212	0.947	correct	incongruent	Block3	incongruent/STIM_012.jpg
2529.572	0.542	correct	incongruent	Block3	incongruent/STIM_012.jpg
2532.126	0.402	correct	incongruent	Block3	incongruent/STIM_012.jpg
2534.661	0.778	correct	incongruent	Block3	incongruent/STIM_013.jpg
2538.307	0.888	correct	incongruent	Block3	incongruent/STIM_013.jpg
2543.098	0.845	correct	incongruent	Block3	incongruent/STIM_013.jpg
2545.989	0.613	correct	incongruent	Block3	incongruent/STIM_013.jpg
2550.053	0.653	correct	incongruent	Block3	incongruent/STIM_013.jpg
2553.455	0.661	correct	incongruent	Block3	incongruent/STIM_014.jpg
2556.586	0.563	correct	incongruent	Block3	incongruent/STIM_014.jpg
2560.259	0.561	correct	incongruent	Block3	incongruent/STIM_014.jpg
2564.016	0.911	correct	incongruent	Block3	incongruent/STIM_014.jpg
2568.343	0.676	incorrect	incongruent	Block3	incongruent/STIM_014.jpg
2572.705	1.006	correct	incongruent	Block3	incongruent/STIM_015.jpg
2576.999	0.609	correct	incongruent	Block3	incongruent/STIM_015.jpg
2581.453	0.897	correct	incongruent	Block3	incongruent/STIM_015.jpg
2585.159	0.828	correct	incongruent	Block3	incongruent/STIM_015.jpg
2589.557	0.636	correct	incongruent	Block3	incongruent/STIM_015.jpg
2592.326	0.872	correct	incongruent	Block3	incongruent/STIM_016.jpg
2595.7	0.526	correct	incongruent	Block3	incongruent/STIM_016.jpg
2599.472	0.722	correct	incongruent	Block3	incongruent/STIM_016.jpg
2602.71	0.872	correct	incongruent	Block3	incongruent/STIM_016.jpg
2606.921	0.569	correct	incongruent	Block3	incongruent/STIM_016.jpg
2611.415	0.988	correct	incongruent	Block3	incongruent/STIM_017.jpg
2615.665	0.514	correct	incongruent	Block3	incongruent/STIM_017.jpg
2620.052	0.707	correct	incongruent	Block3	incongruent/STIM_017.jpg
2623.911	0.485	correct	incongruent	Block3	incongruent/STIM_017.jpg
2626.694	0.566	correct	incongruent	Block3	incongruent/STIM_017.jpg
2630.154	0.539	correct	incongruent	Block3	incongruent/STIM_018.jpg
2633.01	0.795	correct	incongruent	Block3	incongruent/STIM_018.jpg
2636.404	0.952	correct	incongruent	Block3	incongruent/STIM_018.jpg
2640.916	0.891	correct	incongruent	Block3	incongruent/STIM_018.jpg
2644.816	0.598	correct	incongruent	Block3	incongruent/STIM_018.jpg
2648.606	0.605	correct	incongruent	Block3	incongruent/STIM_019.jpg
2652.332	0.854	correct	incongruent	Block3	incongruent/STIM_019.jpg
2655.414	0.99	correct	incongruent	Block3	incongruent/STIM_019.jpg
2659.748	0.748	correct	incongruent	Block3	incongruent/STIM_019.jpg
2662.849	0.551	correct	incongruent	Block3	incongruent/STIM_019.jpg
2665.671	0.502	correct	incongruent	Block3	incongruent/STIM_020.jpg
2668.949	0.719	correct	incongruent	Block3	incongruent/STIM_020.jpg
2673.688	0.654	correct	incongruent	Block3	incongruent/STIM_020.jpg
2677.102	0.743	correct	incongruent	Block3	incongruent/STIM_020.jpg
2680.405	0.479	correct	incongruent	Block3	incongruent/STIM_020.jpg
2684.406	0.726	correct	incongruent	Block3	incongruent/STIM_021.jpg
2687.114	0.618	correct	incongruent	Block3	incongruent/STIM_021.jpg
2691.262	0.586	correct	incongruent	Block3	incongruent/STIM_021.jpg
2695.171	0.85	correct	incongruent	Block3	incongruent/STIM_021.jpg
2698.454	0.627	correct	incongruent	Block3	incongruent/STIM_021.jpg
2702.27	0.798	correct	incongruent	Block3	incongruent/STIM_022.jpg
2706.955	0.759	incorrect	incongruent	Block3	incongruent/STIM_022.jpg
2710.826	0.688	correct	incongruent	Block3	incongruent/STIM_022.jpg
2715.15	0.911	correct	incongruent	Block3	incongruent/STIM_022.jpg
2718.504	0.853	correct	incongruent	Block3	incongruent/STIM_022.jpg
2721.861	0.529	correct	incongruent	Block3	incongruent/STIM_023.jpg
2725.184	0.491	correct	incongruent	Block3	incongruent/STIM_023.jpg
2728.391	0.588	correct	incongruent	Block3	incongruent/STIM_023.jpg
2732.044	0.827	correct	incongruent	Block3	incongruent/STIM_023.jpg
2735.369	0.924	correct	incongruent	Block3	incongruent/STIM_023.jpg
2739.754	0.857	correct	incongruent	Block3	incongruent/STIM_024.jpg
2742.764	0.558	correct	incongruent	Block3	incongruent/STIM_024.jpg
2746.824	0.634	incorrect	incongruent	Block3	incongruent/STIM_024.jpg
2750.281	0.702	correct	incongruent	Block3	incongruent/STIM_024.jpg
2753.559	0.424	correct	incongruent	Block3	incongruent/STIM_024.jpg
2756.081	0.776	correct	incongruent	Block3	incongruent/STIM_025.jpg
2760.802	0.606	incorrect	incongruent	Block3	incongruent/STIM_025.jpg
2764.064	0.519	correct	incongruent	Block3	incongruent/STIM_025.jpg
2766.64	0.535	correct	incongruent	Block3	incongruent/STIM_025.jpg
2769.408	0.923	incorrect	incongruent	Block3	incongruent/STIM_025.jpg
2773.695	0.929	correct	incongruent	Block3	incongruent/STIM_026.jpg
2777.219	0.655	correct	incongruent	Block3	incongruent/STIM_026.jpg
2781.315	0.477	correct	incongruent	Block3	incongruent/STIM_026.jpg
2785.045	0.955	correct	incongruent	Block3	incongruent/STIM_026.jpg
2789.275	0.426	correct	incongruent	Block3	incongruent/STIM_026.jpg
2791.817	0.689	correct	incongruent	Block3	incongruent/STIM_027.jpg
2795.574	0.406	correct	incongruent	Block3	incongruent/STIM_027.jpg
2799.62	0.969	correct	incongruent	Block3	incongruent/STIM_027.jpg
2802.78	0.87	correct	incongruent	Block3	incongruent/STIM_027.jpg
2806.164	0.864	correct	incongruent	Block3	incongruent/STIM_027.jpg
2809.322	0.895	correct	incongruent	Block3	incongruent/STIM_028.jpg
2813.104	0.802	correct	incongruent	Block3	incongruent/STIM_028.jpg
2817.035	0.723	correct	incongruent	Block3	incongruent/STIM_028.jpg
2820.51	1.005	correct	incongruent	Block3	incongruent/STIM_028.jpg
2824.648	0.755	correct	incongruent	Block3	incongruent/STIM_028.jpg
2827.592	0.698	correct	incongruent	Block3	incongruent/STIM_029.jpg
2831.296	0.623	correct	incongruent	Block3	incongruent/STIM_029.jpg
2834.853	0.665	correct	incongruent	Block3	incongruent/STIM_029.jpg
2838.359	0.855	correct	incongruent	Block3	incongruent/STIM_029.jpg
2842.083	0.884	correct	incongruent	Block3	incongruent/STIM_029.jpg
2845.063	0.772	correct	congruent	Block3	congruent/STIM_000.jpg
2849.2	0.701	correct	congruent	Block3	congruent/STIM_000.jpg
2852.825	0.498	correct	congruent	Block3	congruent/STIM_000.jpg
2856.315	0.723	correct	congruent	Block3	congruent/STIM_000.jpg
2859.871	0.424	correct	congruent	Block3	congruent/STIM_000.jpg
2862.923	0.832	correct	congruent	Block3	congruent/STIM_001.jpg
2867.643	0.653	correct	congruent	Block3	congruent/STIM_001.jpg
2871.058	0.684	correct	congruent	Block3	congruent/STIM_001.jpg
2875.579	0.773	correct	congruent	Block3	congruent/STIM_001.jpg
2879.577	0.685	correct	congruent	Block3	congruent/STIM_001.jpg
2883.952	0.72	correct	congruent	Block3	congruent/STIM_002.jpg
2888.558	0.708	correct	congruent	Block3	congruent/STIM_002.jpg
2892.199	0.772	correct	congruent	Block3	congruent/STIM_002.jpg
2895.347	0.646	correct	congruent	Block3	congruent/STIM_002.jpg
2898.231	0.59	correct	congruent	Block3	congruent/STIM_002.jpg
2902.481	0.799	correct	congruent	Block3	congruent/STIM_003.jpg
2905.824	0.74	correct	congruent	Block3	congruent/STIM_003.jpg
2909.055	0.573	correct	congruent	Block3	congruent/STIM_003.jpg
2911.76	0.684	correct	congruent	Block3	congruent/STIM_003.jpg
2916.079	0.706	correct	congruent	Block3	congruent/STIM_003.jpg
2919.333	0.726	correct	congruent	Block3	congruent/STIM_004.jpg
2923.484	0.6	incorrect	congruent	Block3	congruent/STIM_004.jpg
2926.22	0.904	correct	congruent	Block3	congruent/STIM_004.jpg
2930.973	0.724	correct	congruent	Block3	congruent/STIM_004.jpg
2934.683	0.553	correct	congruent	Block3	congruent/STIM_004.jpg
2938.595	0.66	correct	congruent	Block3	congruent/STIM_005.jpg
2941.996	0.692	correct	congruent	Block3	congruent/STIM_005.jpg
2945.016	0.679	correct	congruent	Block3	congruent/STIM_005.jpg
2948.553	0.73	correct	congruent	Block3	congruent/STIM_005.jpg
2952.317	0.752	correct	congruent	Block3	congruent/STIM_005.jpg
2955.317	0.719	correct	congruent	Block3	congruent/STIM_006.jpg
2958.399	0.705	correct	congruent	Block3	congruent/STIM_006.jpg
2962.467	0.632	correct	congruent	Block3	congruent/STIM_006.jpg
2965.21	0.432	correct	congruent	Block3	congruent/STIM_006.jpg
2969.191	0.8	correct	congruent	Block3	congruent/STIM_006.jpg
2972.495	0.736	correct	congruent	Block3	congruent/STIM_007.jpg
2975.399	0.537	correct	congruent	Block3	congruent/STIM_007.jpg
2979.894	0.585	correct	congruent	Block3	congruent/STIM_007.jpg
2983.508	0.527	correct	congruent	Block3	congruent/STIM_007.jpg
2986.482	0.486	correct	congruent	Block3	congruent/STIM_007.jpg
2989.877	0.599	correct	congruent	Block3	congruent/STIM_008.jpg
2993.13	0.524	correct	congruent	Block3	congruent/STIM_008.jpg
2996.09	0.564	correct	congruent	Block3	congruent/STIM_008.jpg
3000.629	0.516	incorrect	congruent	Block3	congruent/STIM_008.jpg
3004.319	0.507	correct	congruent	Block3	congruent/STIM_008.jpg
3008.375	0.597	correct	congruent	Block3	congruent/STIM_009.jpg
3012.943	0.694	correct	congruent	Block3	congruent/STIM_009.jpg
3015.872	0.631	correct	congruent	Block3	congruent/STIM_009.jpg
3018.649	0.628	correct	congruent	Block3	congruent/STIM_009.jpg
3021.499	0.55	correct	congruent	Block3	congruent/STIM_009.jpg
3024.748	0.831	correct	congruent	Block3	congruent/STIM_010.jpg
3029.278	0.799	correct	congruent	Block3	congruent/STIM_010.jpg
3033.077	0.431	correct	congruent	Block3	congruent/STIM_010.jpg
3036.444	0.451	correct	congruent	Block3	congruent/STIM_010.jpg
3039.863	0.812	correct	congruent	Block3	congruent/STIM_010.jpg
3043.233	0.576	correct	congruent	Block3	congruent/STIM_011.jpg
3046.848	0.809	correct	congruent	Block3	congruent/STIM_011.jpg
3051.1	0.748	correct	congruent	Block3	congruent/STIM_011.jpg
3054.394	0.684	correct	congruent	Block3	congruent/STIM_011.jpg
3058.669	0.827	correct	congruent	Block3	congruent/STIM_011.jpg
3062.665	0.721	correct	congruent	Block3	congruent/STIM_012.jpg
3065.988	0.7	incorrect	congruent	Block3	congruent/STIM_012.jpg
3070.35	0.595	correct	congruent	Block3	congruent/STIM_012.jpg
3074.968	0.731	correct	congruent	Block3	congruent/STIM_012.jpg
3079.432	0.46	correct	congruent	Block3	congruent/STIM_012.jpg
3082.824	0.579	correct	congruent	Block3	congruent/STIM_013.jpg
3086.745	0.984	correct	congruent	Block3	congruent/STIM_013.jpg
3091.243	0.913	correct	congruent	Block3	congruent/STIM_013.jpg
3094.483	0.785	correct	congruent	Block3	congruent/STIM_013.jpg
3098.141	0.698	correct	congruent	Block3	congruent/STIM_013.jpg
3102.825	0.766	correct	congruent	Block3	congruent/STIM_014.jpg
3106.176	0.567	correct	congruent	Block3	congruent/STIM_014.jpg
3110.214	0.507	correct	congruent	Block3	congruent/STIM_014.jpg
3113.305	0.55	correct	congruent	Block3	congruent/STIM_014.jpg
3117.572	0.844	correct	congruent	Block3	congruent/STIM_014.jpg
3120.83	0.783	correct	congruent	Block3	congruent/STIM_015.jpg
3125.584	0.809	correct	congruent	Block3	congruent/STIM_015.jpg
3130.139	0.672	correct	congruent	Block3	congruent/STIM_015.jpg
3134.358	0.616	correct	congruent	Block3	congruent/STIM_015.jpg
3138.386	0.892	correct	congruent	Block3	congruent/STIM_015.jpg
3141.425	0.71	correct	congruent	Block3	congruent/STIM_016.jpg
3145.592	0.731	correct	congruent	Block3	congruent/STIM_016.jpg
3149.688	0.49	correct	congruent	Block3	congruent/STIM_016.jpg
3153.796	0.637	correct	congruent	Block3	congruent/STIM_016.jpg
3157.162	0.858	correct	congruent	Block3	congruent/STIM_016.jpg
3161.146	0.472	correct	congruent	Block3	congruent/STIM_017.jpg
3163.746	0.609	correct	congruent	Block3	congruent/STIM_017.jpg
3166.482	0.68	correct	congruent	Block3	congruent/STIM_017.jpg
3169.395	0.898	correct	congruent	Block3	congruent/STIM_017.jpg
3173.302	0.736	correct	congruent	Block3	congruent/STIM_017.jpg
3176.396	0.475	correct	congruent	Block3	congruent/STIM_018.jpg
3179.176	0.582	correct	congruent	Block3	congruent/STIM_018.jpg
3183.135	0.748	correct	congruent	Block3	congruent/STIM_018.jpg
3186.819	0.687	correct	congruent	Block3	congruent/STIM_018.jpg
3191.264	0.576	correct	congruent	Block3	congruent/STIM_018.jpg
3195.618	0.584	correct	congruent	Block3	congruent/STIM_019.jpg
3198.636	0.748	correct	congruent	Block3	congruent/STIM_019.jpg
3202.0	0.578	correct	congruent	Block3	congruent/STIM_019.jpg
3206.005	0.612	correct	congruent	Block3	congruent/STIM_019.jpg
3209.787	0.824	correct	congruent	Block3	congruent/STIM_019.jpg
3214.414	0.747	correct	congruent	Block3	congruent/STIM_020.jpg
3218.772	0.785	correct	congruent	Block3	congruent/STIM_020.jpg
3222.965	0.732	correct	congruent	Block3	congruent/STIM_020.jpg
3226.845	0.737	correct	congruent	Block3	congruent/STIM_020.jpg
3229.654	0.786	correct	congruent	Block3	congruent/STIM_020.jpg
3232.641	0.808	correct	congruent	Block3	congruent/STIM_021.jpg
3236.456	0.703	correct	congruent	Block3	congruent/STIM_021.jpg
3240.469	0.625	correct	congruent	Block3	congruent/STIM_021.jpg
3243.173	0.743	correct	congruent	Block3	congruent/STIM_021.jpg
3248.007	0.749	correct	congruent	Block3	congruent/STIM_021.jpg
3250.908	0.718	correct	congruent	Block3	congruent/STIM_022.jpg
3254.789	0.398	correct	congruent	Block3	congruent/STIM_022.jpg
3257.404	0.547	correct	congruent	Block3	congruent/STIM_022.jpg
3261.508	0.64	correct	congruent	Block3	congruent/STIM_022.jpg
3264.663	0.796	correct	congruent	Block3	congruent/STIM_022.jpg
3269.365	0.532	correct	congruent	Block3	congruent/STIM_023.jpg
3272.729	0.46	correct	congruent	Block3	congruent/STIM_023.jpg
3276.072	0.865	correct	congruent	Block3	congruent/STIM_023.jpg
3279.008	0.399	incorrect	congruent	Block3	congruent/STIM_023.jpg
3283.237	0.658	correct	congruent	Block3	congruent/STIM_023.jpg
3286.18	0.568	correct	congruent	Block3	congruent/STIM_024.jpg
3289.793	0.604	correct	congruent	Block3	congruent/STIM_024.jpg
3293.347	0.571	correct	congruent	Block3	congruent/STIM_024.jpg
3297.344	0.69	correct	congruent	Block3	congruent/STIM_024.jpg
3300.489	0.709	correct	congruent	Block3	congruent/STIM_024.jpg
3304.021	0.484	incorrect	congruent	Block3	congruent/STIM_025.jpg
3308.035	0.753	correct	congruent	Block3	congruent/STIM_025.jpg
3312.46	0.866	correct	congruent	Block3	congruent/STIM_025.jpg
3317.131	0.749	correct	congruent	Block3	congruent/STIM_025.jpg
3321.495	0.772	correct	congruent	Block3	congruent/STIM_025.jpg
3326.183	0.758	correct	congruent	Block3	congruent/STIM_026.jpg
3330.242	0.583	correct	congruent	Block3	congruent/STIM_026.jpg
3333.144	0.613	correct	congruent	Block3	congruent/STIM_026.jpg
3336.018	0.566	correct	congruent	Block3	congruent/STIM_026.jpg
3339.34	0.72	correct	congruent	Block3	congruent/STIM_026.jpg
3343.502	0.624	correct	congruent	Block3	congruent/STIM_027.jpg
3346.852	0.748	incorrect	congruent	Block3	congruent/STIM_027.jpg
3350.378	0.663	correct	congruent	Block3	congruent/STIM_027.jpg
3353.493	0.697	correct	congruent	Block3	congruent/STIM_027.jpg
3356.784	0.661	correct	congruent	Block3	congruent/STIM_027.jpg
3360.912	0.729	correct	congruent	Block3	congruent/STIM_028.jpg
3365.009	0.58	correct	congruent	Block3	congruent/STIM_028.jpg
3368.638	0.742	correct	congruent	Block3	congruent/STIM_028.jpg
3371.87	0.534	correct	congruent	Block3	congruent/STIM_028.jpg
3375.808	0.643	correct	congruent	Block3	congruent/STIM_028.jpg
3379.431	0.662	correct	congruent	Block3	congruent/STIM_029.jpg
3383.112	0.752	correct	congruent	Block3	congruent/STIM_029.jpg
3386.035	0.536	correct	congruent	Block3	congruent/STIM_029.jpg
3388.62	0.524	correct	congruent	Block3	congruent/STIM_029.jpg
3391.914	0.657	correct	congruent	Block3	congruent/STIM_029.jpg
