onset	duration	response_time_ms	trial_type	learning_stage	stimulus	response_port
0.0	1.124	1123.5	incongruent	Block1	incongruent/STIM_000.jpg	99
4.878	1.202	1201.5	incongruent	Block1	incongruent/STIM_000.jpg	99
9.96	0.905	904.6	incongruent	Block1	incongruent/STIM_000.jpg	99
14.097	1.041	1041.1	incongruent	Block1	incongruent/STIM_000.jpg	99
17.363	0.859	859.4	incongruent	Block1	incongruent/STIM_000.jpg	100
20.879	0.762	762.2	incongruent	Block1	incongruent/STIM_001.jpg	99
23.727	1.136	1136.5	incongruent	Block1	incongruent/STIM_001.jpg	100
27.304	1.001	1000.6	incongruent	Block1	incongruent/STIM_001.jpg	100
30.327	0.88	880.3	incongruent	Block1	incongruent/STIM_001.jpg	99
33.868	1.096	1095.9	incongruent	Block1	incongruent/STIM_001.jpg	100
37.945	1.186	1186.0	incongruent	Block1	incongruent/STIM_002.jpg	99
42.671	0.983	982.8	incongruent	Block1	incongruent/STIM_002.jpg	100
46.808	1.233	1232.8	incongruent	Block1	incongruent/STIM_002.jpg	99
51.367	0.697	697.4	incongruent	Block1	incongruent/STIM_002.jpg	100
54.324	1.002	1002.0	incongruent	Block1	incongruent/STIM_002.jpg	100
59.194	1.048	1047.9	incongruent	Block1	incongruent/STIM_003.jpg	99
64.226	0.701	701.1	incongruent	Block1	incongruent/STIM_003.jpg	99
67.939	0.945	944.7	incongruent	Block1	incongruent/STIM_003.jpg	99
72.731	1.083	1083.2	incongruent	Block1	incongruent/STIM_003.jpg	100
76.091	0.836	836.4	incongruent	Block1	incongruent/STIM_003.jpg	99
80.444	1.37	1370.2	incongruent	Block1	incongruent/STIM_004.jpg	100
85.381	1.462	1461.8	incongruent	Block1	incongruent/STIM_004.jpg	100
90.111	1.192	1192.3	incongruent	Block1	incongruent/STIM_004.jpg	99
94.277	1.267	1266.9	incongruent	Block1	incongruent/STIM_004.jpg	100
99.072	1.142	1142.2	incongruent	Block1	incongruent/STIM_004.jpg	99
103.789	1.343	1342.8	incongruent	Block1	incongruent/STIM_005.jpg	99
108.782	1.363	1363.3	incongruent	Block1	incongruent/STIM_005.jpg	99
113.621	0.656	655.5	incongruent	Block1	incongruent/STIM_005.jpg	99
118.138	1.298	1298.5	incongruent	Block1	incongruent/STIM_005.jpg	99
121.775	0.663	662.6	incongruent	Block1	incongruent/STIM_005.jpg	100
125.384	1.035	1035.3	incongruent	Block1	incongruent/STIM_006.jpg	100
128.551	0.728	727.8	incongruent	Block1	incongruent/STIM_006.jpg	100
132.17	0.94	940.4	incongruent	Block1	incongruent/STIM_006.jpg	100
136.681	0.852	852.0	incongruent	Block1	incongruent/STIM_006.jpg	100
139.882	1.013	1013.2	incongruent	Block1	incongruent/STIM_006.jpg	100
142.922	1.015	1015.0	incongruent	Block1	incongruent/STIM_007.jpg	99
147.713	0.775	775.0	incongruent	Block1	incongruent/STIM_007.jpg	100
151.871	1.298	1298.2	incongruent	Block1	incongruent/STIM_007.jpg	100
155.539	0.679	678.8	incongruent	Block1	incongruent/STIM_007.jpg	99
158.943	0.862	862.1	incongruent	Block1	incongruent/STIM_007.jpg	99
162.476	1.179	1179.2	incongruent	Block1	incongruent/STIM_008.jpg	100
166.331	1.449	1448.6	incongruent	Block1	incongruent/STIM_008.jpg	100
171.155	1.288	1288.0	incongruent	Block1	incongruent/STIM_008.jpg	100
175.839	0.691	691.2	incongruent	Block1	incongruent/STIM_008.jpg	100
178.64	0.912	911.9	incongruent	Block1	incongruent/STIM_008.jpg	100
183.116	1.433	1433.1	incongruent	Block1	incongruent/STIM_009.jpg	100
187.273	1.39	1390.4	incongruent	Block1	incongruent/STIM_009.jpg	100
191.259	1.136	1135.9	incongruent	Block1	incongruent/STIM_009.jpg	99
196.09	0.688	688.1	incongruent	Block1	incongruent/STIM_009.jpg	99
199.627	1.188	1188.2	incongruent	Block1	incongruent/STIM_009.jpg	100
203.94	0.796	795.6	incongruent	Block1	incongruent/STIM_010.jpg	100
207.468	1.036	1036.0	incongruent	Block1	incongruent/STIM_010.jpg	99
210.543	0.7	699.5	incongruent	Block1	incongruent/STIM_010.jpg	99
214.57	1.311	1311.0	incongruent	Block1	incongruent/STIM_010.jpg	100
219.146	0.746	745.7	incongruent	Block1	incongruent/STIM_010.jpg	99
223.151	0.853	852.6	incongruent	Block1	incongruent/STIM_011.jpg	100
226.261	1.156	1156.2	incongruent	Block1	incongruent/STIM_011.jpg	100
231.397	1.36	1360.1	incongruent	Block1	incongruent/STIM_011.jpg	100
234.998	1.31	1309.7	incongruent	Block1	incongruent/STIM_011.jpg	100
239.084	1.034	1034.4	incongruent	Block1	incongruent/STIM_011.jpg	99
242.319	1.53	1530.4	incongruent	Block1	incongruent/STIM_012.jpg	99
246.872	0.928	927.7	incongruent	Block1	incongruent/STIM_012.jpg	100
249.936	1.257	1257.1	incongruent	Block1	incongruent/STIM_012.jpg	99
255.019	0.635	635.2	incongruent	Block1	incongruent/STIM_012.jpg	100
257.957	1.032	1032.3	incongruent	Block1	incongruent/STIM_012.jpg	99
262.858	1.115	1115.1	incongruent	Block1	incongruent/STIM_013.jpg	99
267.29	0.957	956.6	incongruent	Block1	incongruent/STIM_013.jpg	99
271.028	0.988	988.3	incongruent	Block1	incongruent/STIM_013.jpg	99
274.735	0.689	688.6	incongruent	Block1	incongruent/STIM_013.jpg	99
278.732	0.895	895.2	incongruent	Block1	incongruent/STIM_013.jpg	100
282.644	1.324	1324.0	incongruent	Block1	incongruent/STIM_014.jpg	99
287.266	0.877	876.7	incongruent	Block1	incongruent/STIM_014.jpg	100
290.728	0.785	784.7	incongruent	Block1	incongruent/STIM_014.jpg	100
294.246	1.061	1060.7	incongruent	Block1	incongruent/STIM_014.jpg	99
297.376	0.992	992.2	incongruent	Block1	incongruent/STIM_014.jpg	100
301.028	0.814	813.6	incongruent	Block1	incongruent/STIM_015.jpg	99
305.151	1.383	1383.3	incongruent	Block1	incongruent/STIM_015.jpg	99
309.176	1.311	1311.1	incongruent	Block1	incongruent/STIM_015.jpg	100
313.181	1.286	1285.7	incongruent	Block1	incongruent/STIM_015.jpg	100
317.167	0.861	860.6	incongruent	Block1	incongruent/STIM_015.jpg	99
320.556	1.437	1437.1	incongruent	Block1	incongruent/STIM_016.jpg	99
325.093	1.436	1435.6	incongruent	Block1	incongruent/STIM_016.jpg	100
330.425	1.105	1105.3	incongruent	Block1	incongruent/STIM_016.jpg	99
334.745	0.81	809.9	incongruent	Block1	incongruent/STIM_016.jpg	99
338.364	0.805	804.9	incongruent	Block1	incongruent/STIM_016.jpg	100
342.217	0.835	834.9	incongruent	Block1	incongruent/STIM_017.jpg	100
345.672	1.191	1191.2	incongruent	Block1	incongruent/STIM_017.jpg	100
349.045	0.968	967.7	incongruent	Block1	incongruent/STIM_017.jpg	99
354.008	1.237	1236.9	incongruent	Block1	incongruent/STIM_017.jpg	100
357.69	1.043	1043.2	incongruent	Block1	incongruent/STIM_017.jpg	99
362.363	1.106	1105.7	incongruent	Block1	incongruent/STIM_018.jpg	100
365.811	1.205	1204.6	incongruent	Block1	incongruent/STIM_018.jpg	99
369.705	0.683	682.7	incongruent	Block1	incongruent/STIM_018.jpg	99
373.592	0.939	938.8	incongruent	Block1	incongruent/STIM_018.jpg	100
376.875	0.774	774.0	incongruent	Block1	incongruent/STIM_018.jpg	100
380.924	1.547	1547.0	incongruent	Block1	incongruent/STIM_019.jpg	99
385.331	1.352	1352.5	incongruent	Block1	incongruent/STIM_019.jpg	100
389.94	0.93	930.1	incongruent	Block1	incongruent/STIM_019.jpg	100
393.962	0.91	909.6	incongruent	Block1	incongruent/STIM_019.jpg	100
398.146	1.051	1051.3	incongruent	Block1	incongruent/STIM_019.jpg	99
402.507	1.021	1021.0	incongruent	Block1	incongruent/STIM_020.jpg	100
406.634	1.239	1238.6	incongruent	Block1	incongruent/STIM_020.jpg	100
410.738	0.765	765.2	incongruent	Block1	incongruent/STIM_020.jpg	100
414.164	1.115	1115.0	incongruent	Block1	incongruent/STIM_020.jpg	100
417.785	0.617	617.3	incongruent	Block1	incongruent/STIM_020.jpg	100
422.2	1.534	1533.6	incongruent	Block1	incongruent/STIM_021.jpg	99
427.18	1.288	1288.5	incongruent	Block1	incongruent/STIM_021.jpg	100
432.233	0.654	653.6	incongruent	Block1	incongruent/STIM_021.jpg	100
436.633	0.715	714.6	incongruent	Block1	incongruent/STIM_021.jpg	99
440.0	0.702	702.1	incongruent	Block1	incongruent/STIM_021.jpg	99
444.669	1.382	1381.8	incongruent	Block1	incongruent/STIM_022.jpg	99
450.001	1.073	1073.3	incongruent	Block1	incongruent/STIM_022.jpg	99
453.419	0.967	967.1	incongruent	Block1	incongruent/STIM_022.jpg	100
457.46	1.166	1166.0	incongruent	Block1	incongruent/STIM_022.jpg	100
461.024	1.047	1047.1	incongruent	Block1	incongruent/STIM_022.jpg	99
465.033	0.839	839.2	incongruent	Block1	incongruent/STIM_023.jpg	100
468.812	1.084	1083.8	incongruent	Block1	incongruent/STIM_023.jpg	100
473.224	1.264	1263.8	incongruent	Block1	incongruent/STIM_023.jpg	99
476.791	0.778	778.5	incongruent	Block1	incongruent/STIM_023.jpg	100
481.498	1.078	1077.8	incongruent	Block1	incongruent/STIM_023.jpg	99
486.506	1.427	1426.7	incongruent	Block1	incongruent/STIM_024.jpg	99
491.616	1.464	1463.9	incongruent	Block1	incongruent/STIM_024.jpg	100
496.401	0.832	832.3	incongruent	Block1	incongruent/STIM_024.jpg	99
500.391	0.621	620.8	incongruent	Block1	incongruent/STIM_024.jpg	99
504.006	0.688	687.8	incongruent	Block1	incongruent/STIM_024.jpg	100
508.582	1.294	1294.1	incongruent	Block1	incongruent/STIM_025.jpg	100
513.498	1.151	1150.6	incongruent	Block1	incongruent/STIM_025.jpg	100
517.105	1.05	1050.2	incongruent	Block1	incongruent/STIM_025.jpg	99
521.986	0.804	803.7	incongruent	Block1	incongruent/STIM_025.jpg	100
525.907	0.896	896.0	incongruent	Block1	incongruent/STIM_025.jpg	100
528.944	0.909	908.6	incongruent	Block1	incongruent/STIM_026.jpg	99
533.683	1.393	1392.6	incongruent	Block1	incongruent/STIM_026.jpg	100
538.13	0.758	758.2	incongruent	Block1	incongruent/STIM_026.jpg	100
541.737	1.306	1305.8	incongruent	Block1	incongruent/STIM_026.jpg	99
547.038	1.025	1025.4	incongruent	Block1	incongruent/STIM_026.jpg	100
550.91	0.878	877.8	incongruent	Block1	incongruent/STIM_027.jpg	100
553.858	1.429	1429.1	incongruent	Block1	incongruent/STIM_027.jpg	100
558.887	0.75	750.3	incongruent	Block1	incongruent/STIM_027.jpg	99
561.867	0.898	897.9	incongruent	Block1	incongruent/STIM_027.jpg	100
566.439	0.923	923.1	incongruent	Block1	incongruent/STIM_027.jpg	99
570.582	0.954	954.5	incongruent	Block1	incongruent/STIM_028.jpg	100
573.92	1.024	1024.3	incongruent	Block1	incongruent/STIM_028.jpg	100
578.531	0.84	839.5	incongruent	Block1	incongruent/STIM_028.jpg	99
581.89	0.622	621.8	incongruent	Block1	incongruent/STIM_028.jpg	99
584.74	0.835	834.9	incongruent	Block1	incongruent/STIM_028.jpg	100
589.541	0.797	797.4	incongruent	Block1	incongruent/STIM_029.jpg	100
593.526	1.015	1015.1	incongruent	Block1	incongruent/STIM_029.jpg	99
597.398	1.111	1111.1	incongruent	Block1	incongruent/STIM_029.jpg	99
601.499	1.07	1069.8	incongruent	Block1	incongruent/STIM_029.jpg	99
606.457	1.2	1199.5	incongruent	Block1	incongruent/STIM_029.jpg	99
609.895	0.891	890.6	congruent	Block1	congruent/STIM_000.jpg	100
612.867	0.651	650.9	congruent	Block1	congruent/STIM_000.jpg	100
616.042	0.553	552.8	congruent	Block1	congruent/STIM_000.jpg	100
620.486	0.642	641.8	congruent	Block1	congruent/STIM_000.jpg	100
623.702	0.921	920.6	congruent	Block1	congruent/STIM_000.jpg	99
628.265	0.829	829.2	congruent	Block1	congruent/STIM_001.jpg	100
632.456	0.694	694.5	congruent	Block1	congruent/STIM_001.jpg	100
635.425	0.757	756.8	congruent	Block1	congruent/STIM_001.jpg	100
638.668	0.925	924.9	congruent	Block1	congruent/STIM_001.jpg	99
642.5	0.728	728.1	congruent	Block1	congruent/STIM_001.jpg	100
645.662	0.768	768.4	congruent	Block1	congruent/STIM_002.jpg	100
650.172	0.857	857.2	congruent	Block1	congruent/STIM_002.jpg	99
654.951	0.822	822.4	congruent	Block1	congruent/STIM_002.jpg	99
658.748	0.779	779.0	congruent	Block1	congruent/STIM_002.jpg	99
662.519	0.808	808.3	congruent	Block1	congruent/STIM_002.jpg	99
665.728	0.594	594.2	congruent	Block1	congruent/STIM_003.jpg	99
670.086	0.774	774.1	congruent	Block1	congruent/STIM_003.jpg	100
673.688	0.614	614.0	congruent	Block1	congruent/STIM_003.jpg	100
677.753	0.612	612.4	congruent	Block1	congruent/STIM_003.jpg	100
682.024	0.581	581.3	congruent	Block1	congruent/STIM_003.jpg	100
685.805	0.612	611.5	congruent	Block1	congruent/STIM_004.jpg	100
689.571	0.687	686.6	congruent	Block1	congruent/STIM_004.jpg	100
692.296	0.923	923.4	congruent	Block1	congruent/STIM_004.jpg	99
695.927	0.586	585.5	congruent	Block1	congruent/STIM_004.jpg	99
698.66	0.633	633.1	congruent	Block1	congruent/STIM_004.jpg	100
702.166	0.82	820.3	congruent	Block1	congruent/STIM_005.jpg	100
705.129	0.758	758.2	congruent	Block1	congruent/STIM_005.jpg	100
708.48	0.701	700.6	congruent	Block1	congruent/STIM_005.jpg	100
712.455	0.76	759.5	congruent	Block1	congruent/STIM_005.jpg	100
716.692	0.549	548.7	congruent	Block1	congruent/STIM_005.jpg	99
720.966	0.541	540.8	congruent	Block1	congruent/STIM_006.jpg	100
724.23	0.88	879.7	congruent	Block1	congruent/STIM_006.jpg	100
727.841	0.633	633.1	congruent	Block1	congruent/STIM_006.jpg	99
731.937	0.698	697.9	congruent	Block1	congruent/STIM_006.jpg	100
736.469	0.877	877.4	congruent	Block1	congruent/STIM_006.jpg	99
740.249	0.785	784.8	congruent	Block1	congruent/STIM_007.jpg	100
743.339	0.563	562.6	congruent	Block1	congruent/STIM_007.jpg	99
746.702	0.808	808.5	congruent	Block1	congruent/STIM_007.jpg	100
751.305	0.804	804.5	congruent	Block1	congruent/STIM_007.jpg	99
755.676	0.718	717.7	congruent	Block1	congruent/STIM_007.jpg	99
758.763	0.864	864.3	congruent	Block1	congruent/STIM_008.jpg	99
762.739	0.539	538.6	congruent	Block1	congruent/STIM_008.jpg	99
767.273	0.529	529.1	congruent	Block1	congruent/STIM_008.jpg	99
770.732	0.663	663.4	congruent	Block1	congruent/STIM_008.jpg	99
774.427	0.836	835.6	congruent	Block1	congruent/STIM_008.jpg	100
777.577	0.54	540.1	congruent	Block1	congruent/STIM_009.jpg	100
780.676	0.691	690.7	congruent	Block1	congruent/STIM_009.jpg	99
783.588	0.691	691.4	congruent	Block1	congruent/STIM_009.jpg	100
787.844	0.52	520.4	congruent	Block1	congruent/STIM_009.jpg	100
791.084	0.552	551.6	congruent	Block1	congruent/STIM_009.jpg	100
795.04	0.93	929.8	congruent	Block1	congruent/STIM_010.jpg	99
799.934	0.548	548.0	congruent	Block1	congruent/STIM_010.jpg	99
802.536	0.799	799.1	congruent	Block1	congruent/STIM_010.jpg	100
806.258	0.819	819.1	congruent	Block1	congruent/STIM_010.jpg	99
810.985	0.922	922.0	congruent	Block1	congruent/STIM_010.jpg	100
814.146	0.906	905.6	congruent	Block1	congruent/STIM_011.jpg	100
817.489	0.768	768.5	congruent	Block1	congruent/STIM_011.jpg	99
821.955	0.744	744.0	congruent	Block1	congruent/STIM_011.jpg	99
826.548	0.668	668.2	congruent	Block1	congruent/STIM_011.jpg	99
830.805	0.522	521.8	congruent	Block1	congruent/STIM_011.jpg	100
833.928	0.893	892.6	congruent	Block1	congruent/STIM_012.jpg	100
837.484	0.616	616.2	congruent	Block1	congruent/STIM_012.jpg	99
841.296	0.828	827.5	congruent	Block1	congruent/STIM_012.jpg	100
845.484	0.836	836.2	congruent	Block1	congruent/STIM_012.jpg	100
850.276	0.816	816.1	congruent	Block1	congruent/STIM_012.jpg	99
854.545	0.832	832.2	congruent	Block1	congruent/STIM_013.jpg	99
858.117	0.584	584.3	congruent	Block1	congruent/STIM_013.jpg	99
861.768	0.737	737.0	congruent	Block1	congruent/STIM_013.jpg	100
865.575	0.546	546.1	congruent	Block1	congruent/STIM_013.jpg	99
869.226	0.747	747.2	congruent	Block1	congruent/STIM_013.jpg	99
872.522	0.67	670.2	congruent	Block1	congruent/STIM_014.jpg	99
876.615	0.899	898.9	congruent	Block1	congruent/STIM_014.jpg	99
879.963	0.918	917.5	congruent	Block1	congruent/STIM_014.jpg	99
884.526	0.581	581.3	congruent	Block1	congruent/STIM_014.jpg	99
888.468	0.926	926.4	congruent	Block1	congruent/STIM_014.jpg	99
892.902	0.906	905.8	congruent	Block1	congruent/STIM_015.jpg	100
897.437	0.841	841.0	congruent	Block1	congruent/STIM_015.jpg	99
901.913	0.625	624.9	congruent	Block1	congruent/STIM_015.jpg	100
904.8	0.709	709.1	congruent	Block1	congruent/STIM_015.jpg	99
908.871	0.656	655.5	congruent	Block1	congruent/STIM_015.jpg	99
913.364	0.622	622.3	congruent	Block1	congruent/STIM_016.jpg	100
916.71	0.798	797.9	congruent	Block1	congruent/STIM_016.jpg	100
920.855	0.6	600.4	congruent	Block1	congruent/STIM_016.jpg	100
924.256	0.786	785.8	congruent	Block1	congruent/STIM_016.jpg	99
927.81	0.843	843.3	congruent	Block1	congruent/STIM_016.jpg	100
932.102	0.769	768.7	congruent	Block1	congruent/STIM_017.jpg	99
934.89	0.926	925.8	congruent	Block1	congruent/STIM_017.jpg	99
938.696	0.703	702.6	congruent	Block1	congruent/STIM_017.jpg	100
941.439	0.529	529.0	congruent	Block1	congruent/STIM_017.jpg	100
944.447	0.868	868.5	congruent	Block1	congruent/STIM_017.jpg	100
949.083	0.572	571.8	congruent	Block1	congruent/STIM_018.jpg	100
952.433	0.614	614.0	congruent	Block1	congruent/STIM_018.jpg	100
956.837	0.604	603.6	congruent	Block1	congruent/STIM_018.jpg	100
959.712	0.529	529.0	congruent	Block1	congruent/STIM_018.jpg	100
962.825	0.815	815.1	congruent	Block1	congruent/STIM_018.jpg	100
966.69	0.546	545.6	congruent	Block1	congruent/STIM_019.jpg	100
969.806	0.879	878.9	congruent	Block1	congruent/STIM_019.jpg	100
973.317	0.865	864.6	congruent	Block1	congruent/STIM_019.jpg	99
977.337	0.925	925.2	congruent	Block1	congruent/STIM_019.jpg	100
981.372	0.891	891.2	congruent	Block1	congruent/STIM_019.jpg	100
985.003	0.829	829.3	congruent	Block1	congruent/STIM_020.jpg	99
989.756	0.86	859.6	congruent	Block1	congruent/STIM_020.jpg	100
993.035	0.768	768.4	congruent	Block1	congruent/STIM_020.jpg	100
996.894	0.876	876.3	congruent	Block1	congruent/STIM_020.jpg	99
1001.592	0.541	541.1	congruent	Block1	congruent/STIM_020.jpg	100
1004.429	0.905	905.3	congruent	Block1	congruent/STIM_021.jpg	99
1007.412	0.576	576.2	congruent	Block1	congruent/STIM_021.jpg	99
1011.033	0.931	930.6	congruent	Block1	congruent/STIM_021.jpg	99
1015.122	0.843	842.8	congruent	Block1	congruent/STIM_021.jpg	100
1018.813	0.58	579.6	congruent	Block1	congruent/STIM_021.jpg	99
1021.697	0.627	627.0	congruent	Block1	congruent/STIM_022.jpg	99
1026.262	0.829	828.6	congruent	Block1	congruent/STIM_022.jpg	100
1030.203	0.821	821.3	congruent	Block1	congruent/STIM_022.jpg	100
1033.723	0.645	645.1	congruent	Block1	congruent/STIM_022.jpg	99
1037.448	0.67	669.9	congruent	Block1	congruent/STIM_022.jpg	99
1040.864	0.688	687.6	congruent	Block1	congruent/STIM_023.jpg	100
1044.115	0.542	541.9	congruent	Block1	congruent/STIM_023.jpg	100
1046.764	0.537	537.4	congruent	Block1	congruent/STIM_023.jpg	100
1051.301	0.607	606.6	congruent	Block1	congruent/STIM_023.jpg	100
1054.316	0.887	887.4	congruent	Block1	congruent/STIM_023.jpg	100
1058.01	0.533	533.2	congruent	Block1	congruent/STIM_024.jpg	99
1062.217	0.612	612.1	congruent	Block1	congruent/STIM_024.jpg	99
1066.37	0.744	744.2	congruent	Block1	congruent/STIM_024.jpg	99
1069.579	0.814	814.1	congruent	Block1	congruent/STIM_024.jpg	99
1072.807	0.669	669.3	congruent	Block1	congruent/STIM_024.jpg	100
1077.201	0.798	798.2	congruent	Block1	congruent/STIM_025.jpg	99
1081.461	0.746	745.9	congruent	Block1	congruent/STIM_025.jpg	99
1084.383	0.638	637.5	congruent	Block1	congruent/STIM_025.jpg	99
1087.871	0.869	868.6	congruent	Block1	congruent/STIM_025.jpg	99
1091.859	0.608	608.1	congruent	Block1	congruent/STIM_025.jpg	100
1095.996	0.918	917.7	congruent	Block1	congruent/STIM_026.jpg	100
1099.059	0.797	796.7	congruent	Block1	congruent/STIM_026.jpg	99
1102.821	0.636	635.5	congruent	Block1	congruent/STIM_026.jpg	99
1106.865	0.639	638.9	congruent	Block1	congruent/STIM_026.jpg	100
1110.772	0.698	697.7	congruent	Block1	congruent/STIM_026.jpg	99
1114.133	0.653	653.3	congruent	Block1	congruent/STIM_027.jpg	99
1118.021	0.572	572.4	congruent	Block1	congruent/STIM_027.jpg	100
1121.132	0.585	585.1	congruent	Block1	congruent/STIM_027.jpg	99
1124.865	0.902	901.6	congruent	Block1	congruent/STIM_027.jpg	100
1129.402	0.837	836.7	congruent	Block1	congruent/STIM_027.jpg	99
1133.184	0.798	798.3	congruent	Block1	congruent/STIM_028.jpg	99
1136.957	0.843	842.8	congruent	Block1	congruent/STIM_028.jpg	99
1141.48	0.525	524.6	congruent	Block1	congruent/STIM_028.jpg	99
1145.833	0.657	657.1	congruent	Block1	congruent/STIM_028.jpg	100
1148.64	0.826	825.9	congruent	Block1	congruent/STIM_028.jpg	99
1152.183	0.769	769.4	congruent	Block1	congruent/STIM_029.jpg	100
1155.674	0.835	835.1	congruent	Block1	congruent/STIM_029.jpg	100
1159.161	0.597	596.6	congruent	Block1	congruent/STIM_029.jpg	100
1161.871	0.748	748.3	congruent	Block1	congruent/STIM_029.jpg	99
1165.162	0.864	864.2	congruent	Block1	congruent/STIM_029.jpg	99
1168.131	1.164	1164.4	incongruent	Block2	incongruent/STIM_000.jpg	99
1172.083	0.78	780.4	incongruent	Block2	incongruent/STIM_000.jpg	99
1176.033	0.768	768.2	incongruent	Block2	incongruent/STIM_000.jpg	100
1179.066	0.528	527.9	incongruent	Block2	incongruent/STIM_000.jpg	99
1182.241	0.548	547.6	incongruent	Block2	incongruent/STIM_000.jpg	100
1186.469	1.084	1084.4	incongruent	Block2	incongruent/STIM_001.jpg	100
1190.051	0.892	892.0	incongruent	Block2	incongruent/STIM_001.jpg	99
1193.117	0.784	784.5	incongruent	Block2	incongruent/STIM_001.jpg	99
1197.565	0.514	514.5	incongruent	Block2	incongruent/STIM_001.jpg	99
1202.053	0.613	613.3	incongruent	Block2	incongruent/STIM_001.jpg	99
1206.147	0.942	942.0	incongruent	Block2	incongruent/STIM_002.jpg	100
1210.712	1.038	1037.6	incongruent	Block2	incongruent/STIM_002.jpg	100
1215.406	0.569	569.1	incongruent	Block2	incongruent/STIM_002.jpg	99
1218.176	0.717	716.9	incongruent	Block2	incongruent/STIM_002.jpg	99
1222.438	0.82	819.5	incongruent	Block2	incongruent/STIM_002.jpg	100
1225.994	1.003	1002.9	incongruent	Block2	incongruent/STIM_003.jpg	99
1229.936	0.765	765.4	incongruent	Block2	incongruent/STIM_003.jpg	99
1234.475	0.885	885.0	incongruent	Block2	incongruent/STIM_003.jpg	100
1237.644	0.839	839.0	incongruent	Block2	incongruent/STIM_003.jpg	100
1241.173	0.731	730.7	incongruent	Block2	incongruent/STIM_003.jpg	100
1244.548	0.672	672.3	incongruent	Block2	incongruent/STIM_004.jpg	100
1247.411	0.93	929.9	incongruent	Block2	incongruent/STIM_004.jpg	99
1251.71	1.148	1147.6	incongruent	Block2	incongruent/STIM_004.jpg	99
1255.831	0.674	673.5	incongruent	Block2	incongruent/STIM_004.jpg	100
1259.172	1.009	1008.6	incongruent	Block2	incongruent/STIM_004.jpg	99
1262.939	0.888	887.6	incongruent	Block2	incongruent/STIM_005.jpg	100
1267.464	0.706	705.8	incongruent	Block2	incongruent/STIM_005.jpg	100
1272.079	0.625	625.2	incongruent	Block2	incongruent/STIM_005.jpg	99
1276.659	0.573	572.6	incongruent	Block2	incongruent/STIM_005.jpg	99
1280.029	0.927	927.2	incongruent	Block2	incongruent/STIM_005.jpg	100
1284.228	1.091	1091.1	incongruent	Block2	incongruent/STIM_006.jpg	100
1288.03	1.009	1009.3	incongruent	Block2	incongruent/STIM_006.jpg	100
1292.703	0.719	718.6	incongruent	Block2	incongruent/STIM_006.jpg	100
1295.551	0.973	972.8	incongruent	Block2	incongruent/STIM_006.jpg	99
1300.074	0.838	838.2	incongruent	Block2	incongruent/STIM_006.jpg	100
1304.155	0.936	936.5	incongruent	Block2	incongruent/STIM_007.jpg	99
1307.178	0.857	856.8	incongruent	Block2	incongruent/STIM_007.jpg	100
1310.826	1.158	1158.3	incongruent	Block2	incongruent/STIM_007.jpg	99
1315.281	0.644	644.1	incongruent	Block2	incongruent/STIM_007.jpg	99
1318.889	0.694	693.7	incongruent	Block2	incongruent/STIM_007.jpg	100
1322.111	0.78	779.6	incongruent	Block2	incongruent/STIM_008.jpg	100
1326.119	0.602	601.5	incongruent	Block2	incongruent/STIM_008.jpg	99
1329.263	0.82	820.5	incongruent	Block2	incongruent/STIM_008.jpg	99
1332.518	0.811	810.9	incongruent	Block2	incongruent/STIM_008.jpg	100
1335.362	0.738	737.9	incongruent	Block2	incongruent/STIM_008.jpg	99
1339.685	0.97	969.9	incongruent	Block2	incongruent/STIM_009.jpg	100
1342.846	0.824	824.1	incongruent	Block2	incongruent/STIM_009.jpg	100
1347.048	0.599	599.0	incongruent	Block2	incongruent/STIM_009.jpg	99
1351.374	0.543	542.7	incongruent	Block2	incongruent/STIM_009.jpg	99
1354.136	0.708	708.4	incongruent	Block2	incongruent/STIM_009.jpg	100
1358.272	1.27	1269.9	incongruent	Block2	incongruent/STIM_010.jpg	99
1362.196	1.152	1152.3	incongruent	Block2	incongruent/STIM_010.jpg	100
1365.391	0.803	802.6	incongruent	Block2	incongruent/STIM_010.jpg	100
1369.135	1.083	1082.8	incongruent	Block2	incongruent/STIM_010.jpg	100
1373.906	0.85	849.5	incongruent	Block2	incongruent/STIM_010.jpg	100
1376.985	1.161	1161.0	incongruent	Block2	incongruent/STIM_011.jpg	100
1381.783	0.931	931.3	incongruent	Block2	incongruent/STIM_011.jpg	100
1385.705	0.96	960.3	incongruent	Block2	incongruent/STIM_011.jpg	100
1389.439	0.805	805.3	incongruent	Block2	incongruent/STIM_011.jpg	99
1392.435	1.076	1076.4	incongruent	Block2	incongruent/STIM_011.jpg	100
1395.628	0.901	901.1	incongruent	Block2	incongruent/STIM_012.jpg	99
1398.561	1.007	1006.9	incongruent	Block2	incongruent/STIM_012.jpg	100
1403.269	0.7	700.3	incongruent	Block2	incongruent/STIM_012.jpg	99
1406.741	1.014	1013.5	incongruent	Block2	incongruent/STIM_012.jpg	100
1411.321	0.992	991.6	incongruent	Block2	incongruent/STIM_012.jpg	100
1415.117	1.062	1061.9	incongruent	Block2	incongruent/STIM_013.jpg	100
1420.038	0.629	629.4	incongruent	Block2	incongruent/STIM_013.jpg	99
1424.464	0.98	980.1	incongruent	Block2	incongruent/STIM_013.jpg	100
1428.534	0.628	628.1	incongruent	Block2	incongruent/STIM_013.jpg	100
1431.883	0.565	564.8	incongruent	Block2	incongruent/STIM_013.jpg	100
1434.502	1.318	1318.0	incongruent	Block2	incongruent/STIM_014.jpg	100
1439.447	1.237	1236.8	incongruent	Block2	incongruent/STIM_014.jpg	100
1444.061	0.99	990.4	incongruent	Block2	incongruent/STIM_014.jpg	100
1448.411	0.896	896.0	incongruent	Block2	incongruent/STIM_014.jpg	99
1451.977	0.916	916.2	incongruent	Block2	incongruent/STIM_014.jpg	99
1455.144	1.265	1265.4	incongruent	Block2	incongruent/STIM_015.jpg	99
1459.826	0.758	757.7	incongruent	Block2	incongruent/STIM_015.jpg	99
1462.783	0.897	896.8	incongruent	Block2	incongruent/STIM_015.jpg	99
1467.443	0.538	537.6	incongruent	Block2	incongruent/STIM_015.jpg	99
1471.799	1.031	1030.6	incongruent	Block2	incongruent/STIM_015.jpg	99
1476.05	1.087	1086.6	incongruent	Block2	incongruent/STIM_016.jpg	99
1480.847	1.047	1047.3	incongruent	Block2	incongruent/STIM_016.jpg	100
1484.439	1.159	1159.4	incongruent	Block2	incongruent/STIM_016.jpg	99
1488.047	1.044	1043.9	incongruent	Block2	incongruent/STIM_016.jpg	99
1492.764	0.639	638.6	incongruent	Block2	incongruent/STIM_016.jpg	99
1496.641	1.23	1230.4	incongruent	Block2	incongruent/STIM_017.jpg	99
1500.778	0.715	714.8	incongruent	Block2	incongruent/STIM_017.jpg	100
1504.872	0.698	698.2	incongruent	Block2	incongruent/STIM_017.jpg	100
1507.598	0.845	844.8	incongruent	Block2	incongruent/STIM_017.jpg	100
1511.784	0.975	975.4	incongruent	Block2	incongruent/STIM_017.jpg	100
1515.148	1.117	1117.3	incongruent	Block2	incongruent/STIM_018.jpg	99
1519.821	1.034	1034.0	incongruent	Block2	incongruent/STIM_018.jpg	99
1524.657	1.028	1028.2	incongruent	Block2	incongruent/STIM_018.jpg	100
1528.233	0.681	681.3	incongruent	Block2	incongruent/STIM_018.jpg	100
1532.406	0.507	507.3	incongruent	Block2	incongruent/STIM_018.jpg	99
1535.266	1.167	1167.4	incongruent	Block2	incongruent/STIM_019.jpg	99
1539.891	0.721	720.9	incongruent	Block2	incongruent/STIM_019.jpg	99
1542.937	0.703	702.9	incongruent	Block2	incongruent/STIM_019.jpg	100
1546.655	0.848	847.9	incongruent	Block2	incongruent/STIM_019.jpg	100
1549.647	0.676	676.2	incongruent	Block2	incongruent/STIM_019.jpg	99
1552.613	0.867	867.4	incongruent	Block2	incongruent/STIM_020.jpg	99
1556.072	1.231	1230.7	incongruent	Block2	incongruent/STIM_020.jpg	99
1560.267	1.029	1028.7	incongruent	Block2	incongruent/STIM_020.jpg	99
1563.462	0.855	855.1	incongruent	Block2	incongruent/STIM_020.jpg	100
1566.568	0.808	808.3	incongruent	Block2	incongruent/STIM_020.jpg	99
1569.788	1.202	1202.0	incongruent	Block2	incongruent/STIM_021.jpg	99
1574.506	1.09	1090.1	incongruent	Block2	incongruent/STIM_021.jpg	100
1578.362	1.159	1158.9	incongruent	Block2	incongruent/STIM_021.jpg	100
1581.618	0.894	893.9	incongruent	Block2	incongruent/STIM_021.jpg	100
1585.828	0.869	869.2	incongruent	Block2	incongruent/STIM_021.jpg	100
1590.365	1.085	1084.8	incongruent	Block2	incongruent/STIM_022.jpg	99
1594.206	1.205	1205.4	incongruent	Block2	incongruent/STIM_022.jpg	99
1599.193	0.685	684.9	incongruent	Block2	incongruent/STIM_022.jpg	99
1602.813	0.813	813.2	incongruent	Block2	incongruent/STIM_022.jpg	100
1606.816	0.888	887.8	incongruent	Block2	incongruent/STIM_022.jpg	99
1611.416	1.243	1242.7	incongruent	Block2	incongruent/STIM_023.jpg	100
1615.119	0.786	786.4	incongruent	Block2	incongruent/STIM_023.jpg	100
1619.554	1.144	1144.2	incongruent	Block2	incongruent/STIM_023.jpg	99
1622.978	0.922	921.5	incongruent	Block2	incongruent/STIM_023.jpg	100
1626.367	0.944	944.5	incongruent	Block2	incongruent/STIM_023.jpg	99
1630.837	1.256	1256.5	incongruent	Block2	incongruent/STIM_024.jpg	100
1635.19	0.588	587.5	incongruent	Block2	incongruent/STIM_024.jpg	99
1638.068	0.699	698.9	incongruent	Block2	incongruent/STIM_024.jpg	100
1641.643	1.065	1064.9	incongruent	Block2	incongruent/STIM_024.jpg	100
1646.271	0.516	516.3	incongruent	Block2	incongruent/STIM_024.jpg	100
1650.336	0.981	981.2	incongruent	Block2	incongruent/STIM_025.jpg	100
1654.613	0.73	730.1	incongruent	Block2	incongruent/STIM_025.jpg	99
1658.184	0.854	853.7	incongruent	Block2	incongruent/STIM_025.jpg	99
1661.76	0.605	604.8	incongruent	Block2	incongruent/STIM_025.jpg	99
1665.649	0.856	856.3	incongruent	Block2	incongruent/STIM_025.jpg	100
1670.283	0.728	727.6	incongruent	Block2	incongruent/STIM_026.jpg	100
1674.878	0.586	586.3	incongruent	Block2	incongruent/STIM_026.jpg	100
1678.554	0.738	737.8	incongruent	Block2	incongruent/STIM_026.jpg	100
1682.23	0.655	654.9	incongruent	Block2	incongruent/STIM_026.jpg	99
1685.186	0.687	686.8	incongruent	Block2	incongruent/STIM_026.jpg	100
1688.278	1.298	1298.5	incongruent	Block2	incongruent/STIM_027.jpg	100
1693.21	1.038	1037.9	incongruent	Block2	incongruent/STIM_027.jpg	99
1698.006	0.679	678.9	incongruent	Block2	incongruent/STIM_027.jpg	99
1701.111	0.791	790.9	incongruent	Block2	incongruent/STIM_027.jpg	99
1705.004	0.947	947.1	incongruent	Block2	incongruent/STIM_027.jpg	99
1709.329	0.708	708.5	incongruent	Block2	incongruent/STIM_028.jpg	100
1712.641	1.046	1046.0	incongruent	Block2	incongruent/STIM_028.jpg	100
1716.779	0.934	933.5	incongruent	Block2	incongruent/STIM_028.jpg	99
1720.257	0.803	803.1	incongruent	Block2	incongruent/STIM_028.jpg	100
1724.937	0.834	834.4	incongruent	Block2	incongruent/STIM_028.jpg	100
1727.868	1.235	1235.4	incongruent	Block2	incongruent/STIM_029.jpg	100
1732.014	0.935	934.8	incongruent	Block2	incongruent/STIM_029.jpg	100
1735.983	1.023	1022.6	incongruent	Block2	incongruent/STIM_029.jpg	100
1739.458	0.997	997.3	incongruent	Block2	incongruent/STIM_029.jpg	100
1742.693	1.02	1019.8	incongruent	Block2	incongruent/STIM_029.jpg	100
1746.108	0.758	758.5	congruent	Block2	congruent/STIM_000.jpg	100
1749.375	0.559	558.9	congruent	Block2	congruent/STIM_000.jpg	99
1753.918	0.818	818.4	congruent	Block2	congruent/STIM_000.jpg	99
1758.38	0.715	715.3	congruent	Block2	congruent/STIM_000.jpg	100
1761.447	0.874	873.5	congruent	Block2	congruent/STIM_000.jpg	99
1765.951	0.538	538.2	congruent	Block2	congruent/STIM_001.jpg	100
1769.974	0.772	771.5	congruent	Block2	congruent/STIM_001.jpg	100
1774.493	0.561	561.3	congruent	Block2	congruent/STIM_001.jpg	100
1777.618	0.731	730.6	congruent	Block2	congruent/STIM_001.jpg	99
1780.626	0.628	628.1	congruent	Block2	congruent/STIM_001.jpg	99
1784.907	0.602	602.5	congruent	Block2	congruent/STIM_002.jpg	100
1788.34	0.87	869.7	congruent	Block2	congruent/STIM_002.jpg	100
1793.175	0.836	835.5	congruent	Block2	congruent/STIM_002.jpg	100
1796.421	0.787	787.1	congruent	Block2	congruent/STIM_002.jpg	100
1799.934	0.763	763.1	congruent	Block2	congruent/STIM_002.jpg	100
1803.787	0.694	693.6	congruent	Block2	congruent/STIM_003.jpg	99
1808.002	0.572	572.4	congruent	Block2	congruent/STIM_003.jpg	99
1812.398	0.826	825.8	congruent	Block2	congruent/STIM_003.jpg	100
1815.723	0.735	735.1	congruent	Block2	congruent/STIM_003.jpg	100
1820.153	0.529	528.8	congruent	Block2	congruent/STIM_003.jpg	99
1823.966	0.681	681.4	congruent	Block2	congruent/STIM_004.jpg	99
1827.545	0.696	696.5	congruent	Block2	congruent/STIM_004.jpg	100
1831.96	0.654	654.5	congruent	Block2	congruent/STIM_004.jpg	99
1835.563	0.875	874.6	congruent	Block2	congruent/STIM_004.jpg	100
1839.644	0.558	557.9	congruent	Block2	congruent/STIM_004.jpg	100
1843.473	0.61	610.1	congruent	Block2	congruent/STIM_005.jpg	99
1846.477	0.738	737.5	congruent	Block2	congruent/STIM_005.jpg	99
1851.058	0.62	620.2	congruent	Block2	congruent/STIM_005.jpg	99
1853.753	0.556	555.9	congruent	Block2	congruent/STIM_005.jpg	100
1856.708	0.756	756.5	congruent	Block2	congruent/STIM_005.jpg	99
1860.642	0.579	579.1	congruent	Block2	congruent/STIM_006.jpg	100
1864.375	0.608	608.4	congruent	Block2	congruent/STIM_006.jpg	100
1868.908	0.777	777.0	congruent	Block2	congruent/STIM_006.jpg	99
1873.545	0.609	609.2	congruent	Block2	congruent/STIM_006.jpg	100
1878.027	0.65	649.7	congruent	Block2	congruent/STIM_006.jpg	100
1881.12	0.677	676.9	congruent	Block2	congruent/STIM_007.jpg	99
1885.066	0.643	643.2	congruent	Block2	congruent/STIM_007.jpg	100
1888.536	0.706	705.5	congruent	Block2	congruent/STIM_007.jpg	100
1891.545	0.832	831.9	congruent	Block2	congruent/STIM_007.jpg	99
1894.752	0.778	777.5	congruent	Block2	congruent/STIM_007.jpg	100
1899.276	0.605	605.3	congruent	Block2	congruent/STIM_008.jpg	99
1903.7	0.68	680.1	congruent	Block2	congruent/STIM_008.jpg	99
1906.402	0.731	731.3	congruent	Block2	congruent/STIM_008.jpg	100
1909.302	0.58	580.3	congruent	Block2	congruent/STIM_008.jpg	100
1912.432	0.556	555.9	congruent	Block2	congruent/STIM_008.jpg	100
1915.714	0.835	834.7	congruent	Block2	congruent/STIM_009.jpg	100
1919.277	0.782	782.2	congruent	Block2	congruent/STIM_009.jpg	99
1922.122	0.538	538.1	congruent	Block2	congruent/STIM_009.jpg	99
1924.905	0.888	888.2	congruent	Block2	congruent/STIM_009.jpg	99
1928.158	0.602	601.8	congruent	Block2	congruent/STIM_009.jpg	100
1931.395	0.842	842.2	congruent	Block2	congruent/STIM_010.jpg	99
1935.707	0.627	627.1	congruent	Block2	congruent/STIM_010.jpg	99
1939.126	0.626	626.4	congruent	Block2	congruent/STIM_010.jpg	99
1943.192	0.783	783.4	congruent	Block2	congruent/STIM_010.jpg	100
1946.891	0.738	737.5	congruent	Block2	congruent/STIM_010.jpg	100
1951.343	0.744	743.9	congruent	Block2	congruent/STIM_011.jpg	100
1954.709	0.662	661.7	congruent	Block2	congruent/STIM_011.jpg	100
1959.109	0.634	633.5	congruent	Block2	congruent/STIM_011.jpg	99
1962.782	0.727	727.1	congruent	Block2	congruent/STIM_011.jpg	99
1966.493	0.835	835.1	congruent	Block2	congruent/STIM_011.jpg	99
1970.983	0.526	526.5	congruent	Block2	congruent/STIM_012.jpg	99
1974.791	0.588	588.4	congruent	Block2	congruent/STIM_012.jpg	100
1977.894	0.861	860.9	congruent	Block2	congruent/STIM_012.jpg	99
1982.112	0.856	855.7	congruent	Block2	congruent/STIM_012.jpg	100
1986.843	0.565	565.1	congruent	Block2	congruent/STIM_012.jpg	100
1989.665	0.613	613.1	congruent	Block2	congruent/STIM_013.jpg	100
1992.874	0.83	830.1	congruent	Block2	congruent/STIM_013.jpg	100
1996.66	0.768	768.0	congruent	Block2	congruent/STIM_013.jpg	100
2000.992	0.828	828.2	congruent	Block2	congruent/STIM_013.jpg	99
2005.181	0.711	711.0	congruent	Block2	congruent/STIM_013.jpg	100
2008.707	0.568	567.6	congruent	Block2	congruent/STIM_014.jpg	100
2011.838	0.789	789.0	congruent	Block2	congruent/STIM_014.jpg	100
2015.733	0.724	723.5	congruent	Block2	congruent/STIM_014.jpg	99
2018.875	0.651	651.3	congruent	Block2	congruent/STIM_014.jpg	99
2022.263	0.709	708.7	congruent	Block2	congruent/STIM_014.jpg	99
2026.941	0.62	620.3	congruent	Block2	congruent/STIM_015.jpg	100
2029.837	0.648	648.4	congruent	Block2	congruent/STIM_015.jpg	100
2033.74	0.893	893.0	congruent	Block2	congruent/STIM_015.jpg	100
2038.333	0.884	883.7	congruent	Block2	congruent/STIM_015.jpg	100
2042.926	0.525	524.9	congruent	Block2	congruent/STIM_015.jpg	100
2047.378	0.673	672.8	congruent	Block2	congruent/STIM_016.jpg	100
2050.786	0.667	666.7	congruent	Block2	congruent/STIM_016.jpg	100
2053.541	0.524	524.1	congruent	Block2	congruent/STIM_016.jpg	100
2057.306	0.567	566.8	congruent	Block2	congruent/STIM_016.jpg	100
2060.601	0.665	664.8	congruent	Block2	congruent/STIM_016.jpg	99
2064.128	0.69	689.5	congruent	Block2	congruent/STIM_017.jpg	100
2068.646	0.79	789.9	congruent	Block2	congruent/STIM_017.jpg	100
2071.94	0.805	804.7	congruent	Block2	congruent/STIM_017.jpg	100
2075.599	0.663	662.6	congruent	Block2	congruent/STIM_017.jpg	99
2078.872	0.657	657.3	congruent	Block2	congruent/STIM_017.jpg	100
2081.744	0.651	651.0	congruent	Block2	congruent/STIM_018.jpg	99
2086.198	0.593	592.6	congruent	Block2	congruent/STIM_018.jpg	100
2088.863	0.824	824.4	congruent	Block2	congruent/STIM_018.jpg	99
2091.817	0.731	731.1	congruent	Block2	congruent/STIM_018.jpg	99
2095.626	0.528	528.1	congruent	Block2	congruent/STIM_018.jpg	100
2099.027	0.666	666.1	congruent	Block2	congruent/STIM_019.jpg	99
2102.457	0.528	527.7	congruent	Block2	congruent/STIM_019.jpg	99
2105.981	0.86	859.8	congruent	Block2	congruent/STIM_019.jpg	100
2110.118	0.538	537.9	congruent	Block2	congruent/STIM_019.jpg	100
2114.149	0.633	633.0	congruent	Block2	congruent/STIM_019.jpg	99
2116.943	0.907	906.8	congruent	Block2	congruent/STIM_020.jpg	100
2121.494	0.839	839.1	congruent	Block2	congruent/STIM_020.jpg	100
2126.092	0.54	539.9	congruent	Block2	congruent/STIM_020.jpg	99
2129.521	0.842	842.1	congruent	Block2	congruent/STIM_020.jpg	99
2134.265	0.542	542.1	congruent	Block2	congruent/STIM_020.jpg	99
2137.861	0.733	732.6	congruent	Block2	congruent/STIM_021.jpg	99
2141.31	0.885	884.7	congruent	Block2	congruent/STIM_021.jpg	100
2144.378	0.769	769.4	congruent	Block2	congruent/STIM_021.jpg	100
2147.756	0.62	620.2	congruent	Block2	congruent/STIM_021.jpg	100
2151.511	0.607	607.1	congruent	Block2	congruent/STIM_021.jpg	99
2155.453	0.594	594.3	congruent	Block2	congruent/STIM_022.jpg	99
2158.674	0.836	836.2	congruent	Block2	congruent/STIM_022.jpg	99
2161.597	0.698	698.5	congruent	Block2	congruent/STIM_022.jpg	100
2166.204	0.664	664.4	congruent	Block2	congruent/STIM_022.jpg	100
2169.344	0.716	716.1	congruent	Block2	congruent/STIM_022.jpg	100
2173.86	0.868	868.3	congruent	Block2	congruent/STIM_023.jpg	100
2177.741	0.805	805.3	congruent	Block2	congruent/STIM_023.jpg	100
2181.248	0.559	558.6	congruent	Block2	congruent/STIM_023.jpg	99
2185.58	0.787	787.2	congruent	Block2	congruent/STIM_023.jpg	100
2188.693	0.538	538.3	congruent	Block2	congruent/STIM_023.jpg	100
2193.007	0.703	702.6	congruent	Block2	congruent/STIM_024.jpg	99
2196.615	0.72	720.5	congruent	Block2	congruent/STIM_024.jpg	100
2201.094	0.6	600.5	congruent	Block2	congruent/STIM_024.jpg	100
2204.93	0.697	696.9	congruent	Block2	congruent/STIM_024.jpg	100
2209.561	0.675	674.6	congruent	Block2	congruent/STIM_024.jpg	100
2213.424	0.601	601.1	congruent	Block2	congruent/STIM_025.jpg	99
2217.343	0.913	912.7	congruent	Block2	congruent/STIM_025.jpg	100
2220.265	0.7	700.5	congruent	Block2	congruent/STIM_025.jpg	99
2224.882	0.56	559.7	congruent	Block2	congruent/STIM_025.jpg	100
2227.746	0.663	663.2	congruent	Block2	congruent/STIM_025.jpg	100
2230.52	0.772	772.5	congruent	Block2	congruent/STIM_026.jpg	99
2234.595	0.662	661.5	congruent	Block2	congruent/STIM_026.jpg	100
2239.12	0.751	751.3	congruent	Block2	congruent/STIM_026.jpg	100
2241.897	0.678	678.2	congruent	Block2	congruent/STIM_026.jpg	100
2246.154	0.625	624.6	congruent	Block2	congruent/STIM_026.jpg	99
2249.886	0.683	683.0	congruent	Block2	congruent/STIM_027.jpg	100
2253.402	0.702	702.2	congruent	Block2	congruent/STIM_027.jpg	99
2256.564	0.524	523.7	congruent	Block2	congruent/STIM_027.jpg	100
2259.627	0.702	701.7	congruent	Block2	congruent/STIM_027.jpg	99
2263.66	0.913	913.2	congruent	Block2	congruent/STIM_027.jpg	99
2266.778	0.82	819.6	congruent	Block2	congruent/STIM_028.jpg	100
2270.172	0.908	907.8	congruent	Block2	congruent/STIM_028.jpg	100
2273.908	0.767	767.0	congruent	Block2	congruent/STIM_028.jpg	100
2277.049	0.73	729.8	congruent	Block2	congruent/STIM_028.jpg	99
2280.961	0.861	860.8	congruent	Block2	congruent/STIM_028.jpg	99
2285.244	0.872	871.7	congruent	Block2	congruent/STIM_029.jpg	99
2289.253	0.59	589.6	congruent	Block2	congruent/STIM_029.jpg	99
2292.829	0.638	637.9	congruent	Block2	congruent/STIM_029.jpg	100
2296.673	0.542	542.0	congruent	Block2	congruent/STIM_029.jpg	99
2299.785	0.546	546.5	congruent	Block2	congruent/STIM_029.jpg	99
2304.12	0.804	804.3	incongruent	Block3	incongruent/STIM_000.jpg	100
2307.545	1.03	1029.5	incongruent	Block3	incongruent/STIM_000.jpg	99
2311.067	0.654	653.5	incongruent	Block3	incongruent/STIM_000.jpg	99
2314.235	0.89	889.9	incongruent	Block3	incongruent/STIM_000.jpg	100
2318.444	0.755	755.3	incongruent	Block3	incongruent/STIM_000.jpg	100
2322.965	0.707	706.6	incongruent	Block3	incongruent/STIM_001.jpg	99
2326.227	0.72	720.1	incongruent	Block3	incongruent/STIM_001.jpg	99
2330.705	0.871	870.8	incongruent	Block3	incongruent/STIM_001.jpg	99
2333.792	0.75	750.5	incongruent	Block3	incongruent/STIM_001.jpg	99
2337.413	0.655	654.8	incongruent	Block3	incongruent/STIM_001.jpg	100
2341.467	0.962	961.8	incongruent	Block3	incongruent/STIM_002.jpg	100
2345.094	0.96	959.9	incongruent	Block3	incongruent/STIM_002.jpg	100
2349.347	0.969	969.0	incongruent	Block3	incongruent/STIM_002.jpg	100
2353.722	0.803	803.3	incongruent	Block3	incongruent/STIM_002.jpg	100
2358.358	1.072	1072.5	incongruent	Block3	incongruent/STIM_002.jpg	100
2362.509	0.528	528.4	incongruent	Block3	incongruent/STIM_003.jpg	99
2365.729	0.595	594.7	incongruent	Block3	incongruent/STIM_003.jpg	99
2369.085	0.963	963.2	incongruent	Block3	incongruent/STIM_003.jpg	100
2372.932	0.698	698.4	incongruent	Block3	incongruent/STIM_003.jpg	99
2376.417	0.518	518.5	incongruent	Block3	incongruent/STIM_003.jpg	100
2379.925	0.716	715.8	incongruent	Block3	incongruent/STIM_004.jpg	99
2383.239	0.9	899.6	incongruent	Block3	incongruent/STIM_004.jpg	100
2386.308	0.576	575.9	incongruent	Block3	incongruent/STIM_004.jpg	99
2389.094	1.008	1007.8	incongruent	Block3	incongruent/STIM_004.jpg	99
2393.593	0.7	700.2	incongruent	Block3	incongruent/STIM_004.jpg	99
2396.335	0.744	743.6	incongruent	Block3	incongruent/STIM_005.jpg	100
2399.394	0.903	903.2	incongruent	Block3	incongruent/STIM_005.jpg	100
2402.486	1.077	1077.3	incongruent	Block3	incongruent/STIM_005.jpg	99
2406.889	0.598	598.0	incongruent	Block3	incongruent/STIM_005.jpg	100
2411.172	0.667	667.1	incongruent	Block3	incongruent/STIM_005.jpg	99
2415.048	0.858	857.5	incongruent	Block3	incongruent/STIM_006.jpg	100
2419.416	0.847	846.6	incongruent	Block3	incongruent/STIM_006.jpg	99
2423.801	0.7	699.5	incongruent	Block3	incongruent/STIM_006.jpg	100
2426.761	0.95	950.5	incongruent	Block3	incongruent/STIM_006.jpg	99
2430.725	0.721	721.3	incongruent	Block3	incongruent/STIM_006.jpg	100
2435.008	0.516	516.2	incongruent	Block3	incongruent/STIM_007.jpg	99
2438.899	0.847	847.4	incongruent	Block3	incongruent/STIM_007.jpg	100
2443.084	0.838	837.9	incongruent	Block3	incongruent/STIM_007.jpg	99
2446.977	0.867	866.7	incongruent	Block3	incongruent/STIM_007.jpg	99
2451.038	0.745	744.9	incongruent	Block3	incongruent/STIM_007.jpg	100
2453.855	0.956	955.6	incongruent	Block3	incongruent/STIM_008.jpg	100
2458.274	0.799	799.3	incongruent	Block3	incongruent/STIM_008.jpg	100
2462.871	0.572	571.9	incongruent	Block3	incongruent/STIM_008.jpg	99
2466.588	0.662	662.1	incongruent	Block3	incongruent/STIM_008.jpg	99
2469.347	0.748	748.1	incongruent	Block3	incongruent/STIM_008.jpg	99
2473.018	0.762	762.3	incongruent	Block3	incongruent/STIM_009.jpg	100
2476.22	0.828	828.0	incongruent	Block3	incongruent/STIM_009.jpg	99
2479.111	0.812	812.4	incongruent	Block3	incongruent/STIM_009.jpg	100
2482.049	0.664	663.5	incongruent	Block3	incongruent/STIM_009.jpg	99
2485.997	0.926	925.5	incongruent	Block3	incongruent/STIM_009.jpg	99
2489.511	0.831	831.0	incongruent	Block3	incongruent/STIM_010.jpg	100
2493.993	0.703	703.1	incongruent	Block3	incongruent/STIM_010.jpg	99
2497.709	0.558	558.3	incongruent	Block3	incongruent/STIM_010.jpg	99
2500.62	0.767	767.4	incongruent	Block3	incongruent/STIM_010.jpg	100
2503.962	0.683	682.9	incongruent	Block3	incongruent/STIM_010.jpg	99
2506.851	0.644	644.3	incongruent	Block3	incongruent/STIM_011.jpg	100
2510.944	0.569	569.1	incongruent	Block3	incongruent/STIM_011.jpg	100
2513.671	0.953	953.0	incongruent	Block3	incongruent/STIM_011.jpg	100
2518.378	0.568	567.8	incongruent	Block3	incongruent/STIM_011.jpg	99
2521.418	0.603	603.0	incongruent	Block3	incongruent/STIM_011.jpg	100
2524.729	0.582	582.3	incongruent	Block3	incongruent/STIM_012.jpg	99
2528.738	0.962	962.1	incongruent	Block3	incongruent/STIM_012.jpg	100
2532.293	1.08	1080.5	incongruent	Block3	incongruent/STIM_012.jpg	100
2536.114	0.543	542.6	incongruent	Block3	incongruent/STIM_012.jpg	99
2538.892	0.927	926.8	incongruent	Block3	incongruent/STIM_012.jpg	100
2542.053	0.627	627.3	incongruent	Block3	incongruent/STIM_013.jpg	99
2545.988	0.785	784.6	incongruent	Block3	incongruent/STIM_013.jpg	99
2549.622	0.606	605.5	incongruent	Block3	incongruent/STIM_013.jpg	99
2553.077	0.555	555.3	incongruent	Block3	incongruent/STIM_013.jpg	100
2555.983	0.774	773.5	incongruent	Block3	incongruent/STIM_013.jpg	100
2558.798	1.049	1049.1	incongruent	Block3	incongruent/STIM_014.jpg	100
2563.309	0.699	699.4	incongruent	Block3	incongruent/STIM_014.jpg	100
2566.403	0.736	735.7	incongruent	Block3	incongruent/STIM_014.jpg	99
2570.145	0.954	954.3	incongruent	Block3	incongruent/STIM_014.jpg	99
2573.111	1.079	1079.4	incongruent	Block3	incongruent/STIM_014.jpg	100
2576.994	0.931	931.4	incongruent	Block3	incongruent/STIM_015.jpg	99
2579.95	1.026	1025.7	incongruent	Block3	incongruent/STIM_015.jpg	100
2583.445	0.609	608.7	incongruent	Block3	incongruent/STIM_015.jpg	99
2587.005	0.936	936.2	incongruent	Block3	incongruent/STIM_015.jpg	100
2591.494	0.553	552.7	incongruent	Block3	incongruent/STIM_015.jpg	99
2594.52	0.61	609.8	incongruent	Block3	incongruent/STIM_016.jpg	99
2597.749	0.54	539.6	incongruent	Block3	incongruent/STIM_016.jpg	100
2600.945	0.81	809.5	incongruent	Block3	incongruent/STIM_016.jpg	99
2605.414	0.617	616.9	incongruent	Block3	incongruent/STIM_016.jpg	100
2609.607	0.557	557.3	incongruent	Block3	incongruent/STIM_016.jpg	99
2612.344	1.011	1010.9	incongruent	Block3	incongruent/STIM_017.jpg	100
2617.15	0.612	611.8	incongruent	Block3	incongruent/STIM_017.jpg	100
2619.774	1.014	1014.4	incongruent	Block3	incongruent/STIM_017.jpg	99
2623.426	0.677	676.6	incongruent	Block3	incongruent/STIM_017.jpg	99
2627.42	0.853	852.7	incongruent	Block3	incongruent/STIM_017.jpg	100
2631.24	0.706	705.9	incongruent	Block3	incongruent/STIM_018.jpg	100
2635.755	0.868	867.6	incongruent	Block3	incongruent/STIM_018.jpg	100
2639.859	0.707	707.0	incongruent	Block3	incongruent/STIM_018.jpg	100
2644.248	0.664	664.2	incongruent	Block3	incongruent/STIM_018.jpg	99
2647.331	0.687	686.7	incongruent	Block3	incongruent/STIM_018.jpg	99
2650.646	0.681	680.6	incongruent	Block3	incongruent/STIM_019.jpg	100
2653.643	0.788	788.0	incongruent	Block3	incongruent/STIM_019.jpg	100
2657.466	0.877	877.3	incongruent	Block3	incongruent/STIM_019.jpg	99
2661.264	1.075	1074.8	incongruent	Block3	incongruent/STIM_019.jpg	99
2664.881	0.948	948.1	incongruent	Block3	incongruent/STIM_019.jpg	100
2668.376	0.833	833.4	incongruent	Block3	incongruent/STIM_020.jpg	99
2672.201	1.068	1068.2	incongruent	Block3	incongruent/STIM_020.jpg	100
2677.047	0.736	736.4	incongruent	Block3	incongruent/STIM_020.jpg	99
2680.841	0.764	763.6	incongruent	Block3	incongruent/STIM_020.jpg	99
2684.33	0.724	724.3	incongruent	Block3	incongruent/STIM_020.jpg	99
2688.59	0.676	676.2	incongruent	Block3	incongruent/STIM_021.jpg	100
2691.805	1.021	1021.0	incongruent	Block3	incongruent/STIM_021.jpg	99
2696.74	0.789	789.2	incongruent	Block3	incongruent/STIM_021.jpg	99
2701.443	1.079	1078.8	incongruent	Block3	incongruent/STIM_021.jpg	99
2706.463	0.924	924.4	incongruent	Block3	incongruent/STIM_021.jpg	99
2710.313	0.73	729.9	incongruent	Block3	incongruent/STIM_022.jpg	100
2714.896	0.627	626.9	incongruent	Block3	incongruent/STIM_022.jpg	99
2717.843	0.563	563.2	incongruent	Block3	incongruent/STIM_022.jpg	100
2720.523	0.81	809.5	incongruent	Block3	incongruent/STIM_022.jpg	99
2723.431	0.607	607.2	incongruent	Block3	incongruent/STIM_022.jpg	99
2727.44	0.547	546.9	incongruent	Block3	incongruent/STIM_023.jpg	99
2731.95	1.057	1057.2	incongruent	Block3	incongruent/STIM_023.jpg	100
2735.357	0.809	809.3	incongruent	Block3	incongruent/STIM_023.jpg	100
2739.556	0.593	593.2	incongruent	Block3	incongruent/STIM_023.jpg	100
2743.669	0.859	858.8	incongruent	Block3	incongruent/STIM_023.jpg	100
2748.424	1.04	1039.8	incongruent	Block3	incongruent/STIM_024.jpg	99
2752.406	0.593	593.1	incongruent	Block3	incongruent/STIM_024.jpg	100
2755.638	0.58	579.5	incongruent	Block3	incongruent/STIM_024.jpg	99
2758.452	0.66	660.4	incongruent	Block3	incongruent/STIM_024.jpg	99
2761.877	1.012	1011.5	incongruent	Block3	incongruent/STIM_024.jpg	99
2766.057	0.589	588.6	incongruent	Block3	incongruent/STIM_025.jpg	100
2769.928	0.604	604.1	incongruent	Block3	incongruent/STIM_025.jpg	100
2773.311	1.079	1079.1	incongruent	Block3	incongruent/STIM_025.jpg	100
2777.31	0.73	730.0	incongruent	Block3	incongruent/STIM_025.jpg	99
2781.454	0.967	967.0	incongruent	Block3	incongruent/STIM_025.jpg	99
2786.281	0.605	604.8	incongruent	Block3	incongruent/STIM_026.jpg	99
2789.225	0.8	799.6	incongruent	Block3	incongruent/STIM_026.jpg	100
2793.015	0.725	725.3	incongruent	Block3	incongruent/STIM_026.jpg	100
2797.501	0.578	578.4	incongruent	Block3	incongruent/STIM_026.jpg	99
2801.394	0.908	908.4	incongruent	Block3	incongruent/STIM_026.jpg	100
2804.858	0.828	828.0	incongruent	Block3	incongruent/STIM_027.jpg	100
2808.113	0.934	934.0	incongruent	Block3	incongruent/STIM_027.jpg	100
2812.101	0.657	657.0	incongruent	Block3	incongruent/STIM_027.jpg	100
2815.525	1.021	1021.2	incongruent	Block3	incongruent/STIM_027.jpg	100
2819.708	0.602	602.5	incongruent	Block3	incongruent/STIM_027.jpg	100
2822.743	0.651	650.6	incongruent	Block3	incongruent/STIM_028.jpg	100
2825.426	1.068	1067.9	incongruent	Block3	incongruent/STIM_028.jpg	99
2829.07	0.782	782.5	incongruent	Block3	incongruent/STIM_028.jpg	99
2832.841	0.716	715.6	incongruent	Block3	incongruent/STIM_028.jpg	100
2837.516	1.055	1055.4	incongruent	Block3	incongruent/STIM_028.jpg	100
2841.233	0.99	989.6	incongruent	Block3	incongruent/STIM_029.jpg	100
2844.325	0.789	789.1	incongruent	Block3	incongruent/STIM_029.jpg	99
2847.182	0.922	921.5	incongruent	Block3	incongruent/STIM_029.jpg	99
2850.893	0.795	795.2	incongruent	Block3	incongruent/STIM_029.jpg	99
2854.432	1.055	1054.6	incongruent	Block3	incongruent/STIM_029.jpg	99
2859.462	0.652	651.6	congruent	Block3	congruent/STIM_000.jpg	100
2862.779	0.873	872.8	congruent	Block3	congruent/STIM_000.jpg	99
2866.903	0.738	738.0	congruent	Block3	congruent/STIM_000.jpg	100
2870.76	0.652	651.9	congruent	Block3	congruent/STIM_000.jpg	100
2874.492	0.694	694.1	congruent	Block3	congruent/STIM_000.jpg	100
2878.354	0.615	614.7	congruent	Block3	congruent/STIM_001.jpg	100
2881.715	0.896	895.5	congruent	Block3	congruent/STIM_001.jpg	99
2885.62	0.917	917.3	congruent	Block3	congruent/STIM_001.jpg	100
2890.202	0.756	755.7	congruent	Block3	congruent/STIM_001.jpg	100
2894.447	0.833	833.3	congruent	Block3	congruent/STIM_001.jpg	99
2897.382	0.887	887.4	congruent	Block3	congruent/STIM_002.jpg	100
2901.77	0.538	538.4	congruent	Block3	congruent/STIM_002.jpg	99
2904.947	0.86	859.8	congruent	Block3	congruent/STIM_002.jpg	100
2907.96	0.766	766.1	congruent	Block3	congruent/STIM_002.jpg	99
2911.47	0.777	777.3	congruent	Block3	congruent/STIM_002.jpg	99
2915.34	0.645	644.9	congruent	Block3	congruent/STIM_003.jpg	100
2919.185	0.752	752.3	congruent	Block3	congruent/STIM_003.jpg	99
2922.022	0.543	543.2	congruent	Block3	congruent/STIM_003.jpg	99
2925.397	0.667	667.3	congruent	Block3	congruent/STIM_003.jpg	100
2928.18	0.684	684.1	congruent	Block3	congruent/STIM_003.jpg	100
2931.52	0.869	868.7	congruent	Block3	congruent/STIM_004.jpg	99
2934.617	0.613	613.2	congruent	Block3	congruent/STIM_004.jpg	100
2938.396	0.832	832.4	congruent	Block3	congruent/STIM_004.jpg	100
2941.477	0.753	753.3	congruent	Block3	congruent/STIM_004.jpg	99
2945.611	0.775	774.9	congruent	Block3	congruent/STIM_004.jpg	100
2949.408	0.9	899.8	congruent	Block3	congruent/STIM_005.jpg	99
2952.745	0.564	563.8	congruent	Block3	congruent/STIM_005.jpg	99
2956.762	0.616	616.4	congruent	Block3	congruent/STIM_005.jpg	100
2959.427	0.681	680.9	congruent	Block3	congruent/STIM_005.jpg	99
2962.972	0.575	574.9	congruent	Block3	congruent/STIM_005.jpg	99
2966.647	0.783	782.8	congruent	Block3	congruent/STIM_006.jpg	99
2971.111	0.888	888.2	congruent	Block3	congruent/STIM_006.jpg	99
2974.383	0.567	567.1	congruent	Block3	congruent/STIM_006.jpg	100
2978.64	0.659	658.9	congruent	Block3	congruent/STIM_006.jpg	100
2981.717	0.565	565.0	congruent	Block3	congruent/STIM_006.jpg	100
2985.846	0.547	547.1	congruent	Block3	congruent/STIM_007.jpg	99
2990.097	0.75	749.6	congruent	Block3	congruent/STIM_007.jpg	100
2992.985	0.834	833.5	congruent	Block3	congruent/STIM_007.jpg	99
2997.166	0.634	634.0	congruent	Block3	congruent/STIM_007.jpg	99
3000.416	0.859	859.0	congruent	Block3	congruent/STIM_007.jpg	99
3003.757	0.779	778.8	congruent	Block3	congruent/STIM_008.jpg	100
3007.286	0.703	702.7	congruent	Block3	congruent/STIM_008.jpg	99
3011.459	0.854	854.1	congruent	Block3	congruent/STIM_008.jpg	100
3015.226	0.816	816.3	congruent	Block3	congruent/STIM_008.jpg	100
3018.224	0.831	830.9	congruent	Block3	congruent/STIM_008.jpg	100
3022.442	0.91	910.3	congruent	Block3	congruent/STIM_009.jpg	100
3026.667	0.85	850.1	congruent	Block3	congruent/STIM_009.jpg	100
3030.444	0.875	874.9	congruent	Block3	congruent/STIM_009.jpg	99
3034.198	0.592	591.9	congruent	Block3	congruent/STIM_009.jpg	99
3037.585	0.884	884.2	congruent	Block3	congruent/STIM_009.jpg	100
3042.246	0.927	926.6	congruent	Block3	congruent/STIM_010.jpg	99
3046.567	0.557	557.0	congruent	Block3	congruent/STIM_010.jpg	99
3049.882	0.761	760.8	congruent	Block3	congruent/STIM_010.jpg	100
3052.902	0.843	843.2	congruent	Block3	congruent/STIM_010.jpg	100
3056.217	0.55	550.4	congruent	Block3	congruent/STIM_010.jpg	100
3060.105	0.704	704.5	congruent	Block3	congruent/STIM_011.jpg	100
3063.647	0.824	824.1	congruent	Block3	congruent/STIM_011.jpg	99
3066.564	0.747	747.4	congruent	Block3	congruent/STIM_011.jpg	100
3069.591	0.592	591.7	congruent	Block3	congruent/STIM_011.jpg	99
3073.726	0.788	787.7	congruent	Block3	congruent/STIM_011.jpg	99
3076.649	0.671	670.8	congruent	Block3	congruent/STIM_012.jpg	100
3080.062	0.906	906.2	congruent	Block3	congruent/STIM_012.jpg	100
3084.784	0.658	657.8	congruent	Block3	congruent/STIM_012.jpg	99
3087.783	0.644	644.0	congruent	Block3	congruent/STIM_012.jpg	99
3090.645	0.538	537.6	congruent	Block3	congruent/STIM_012.jpg	99
3094.843	0.787	786.6	congruent	Block3	congruent/STIM_013.jpg	100
3098.413	0.661	660.9	congruent	Block3	congruent/STIM_013.jpg	99
3101.298	0.642	642.1	congruent	Block3	congruent/STIM_013.jpg	99
3105.909	0.695	695.1	congruent	Block3	congruent/STIM_013.jpg	100
3108.814	0.917	917.0	congruent	Block3	congruent/STIM_013.jpg	99
3113.304	0.776	775.9	congruent	Block3	congruent/STIM_014.jpg	100
3116.432	0.82	819.7	congruent	Block3	congruent/STIM_014.jpg	100
3120.828	0.669	668.8	congruent	Block3	congruent/STIM_014.jpg	100
3123.761	0.566	566.1	congruent	Block3	congruent/STIM_014.jpg	100
3126.673	0.692	691.7	congruent	Block3	congruent/STIM_014.jpg	100
3129.551	0.893	893.2	congruent	Block3	congruent/STIM_015.jpg	100
3133.232	0.696	696.3	congruent	Block3	congruent/STIM_015.jpg	100
3137.899	0.802	801.5	congruent	Block3	congruent/STIM_015.jpg	100
3141.643	0.913	913.1	congruent	Block3	congruent/STIM_015.jpg	99
3145.582	0.528	528.3	congruent	Block3	congruent/STIM_015.jpg	99
3149.672	0.734	733.9	congruent	Block3	congruent/STIM_016.jpg	100
3153.953	0.699	699.4	congruent	Block3	congruent/STIM_016.jpg	100
3157.057	0.566	566.4	congruent	Block3	congruent/STIM_016.jpg	100
3160.582	0.678	678.2	congruent	Block3	congruent/STIM_016.jpg	100
3164.802	0.72	720.0	congruent	Block3	congruent/STIM_016.jpg	100
3168.312	0.914	913.5	congruent	Block3	congruent/STIM_017.jpg	100
3173.176	0.663	662.7	congruent	Block3	congruent/STIM_017.jpg	99
3176.614	0.547	546.9	congruent	Block3	congruent/STIM_017.jpg	99
3179.468	0.811	810.8	congruent	Block3	congruent/STIM_017.jpg	100
3183.207	0.782	782.1	congruent	Block3	congruent/STIM_017.jpg	100
3187.346	0.559	558.9	congruent	Block3	congruent/STIM_018.jpg	100
3191.779	0.634	633.8	congruent	Block3	congruent/STIM_018.jpg	100
3195.928	0.595	595.0	congruent	Block3	congruent/STIM_018.jpg	99
3200.39	0.686	685.9	congruent	Block3	congruent/STIM_018.jpg	100
3203.221	0.891	890.6	congruent	Block3	congruent/STIM_018.jpg	100
3206.937	0.85	850.4	congruent	Block3	congruent/STIM_019.jpg	100
3210.483	0.87	870.0	congruent	Block3	congruent/STIM_019.jpg	100
3214.549	0.558	558.5	congruent	Block3	congruent/STIM_019.jpg	100
3217.746	0.628	628.1	congruent	Block3	congruent/STIM_019.jpg	99
3221.961	0.761	760.7	congruent	Block3	congruent/STIM_019.jpg	100
3225.492	0.795	795.0	congruent	Block3	congruent/STIM_020.jpg	100
3229.638	0.532	531.8	congruent	Block3	congruent/STIM_020.jpg	99
3232.531	0.848	848.5	congruent	Block3	congruent/STIM_020.jpg	100
3237.118	0.612	612.1	congruent	Block3	congruent/STIM_020.jpg	99
3241.633	0.576	575.5	congruent	Block3	congruent/STIM_020.jpg	99
3244.934	0.869	868.8	congruent	Block3	congruent/STIM_021.jpg	99
3248.472	0.916	915.5	congruent	Block3	congruent/STIM_021.jpg	99
3252.104	0.57	570.4	congruent	Block3	congruent/STIM_021.jpg	99
3255.246	0.812	811.7	congruent	Block3	congruent/STIM_021.jpg	100
3258.226	0.651	650.8	congruent	Block3	congruent/STIM_021.jpg	99
3261.645	0.726	726.4	congruent	Block3	congruent/STIM_022.jpg	100
3265.941	0.587	587.3	congruent	Block3	congruent/STIM_022.jpg	100
3270.01	0.573	572.7	congruent	Block3	congruent/STIM_022.jpg	100
3273.654	0.669	668.8	congruent	Block3	congruent/STIM_022.jpg	99
3277.316	0.555	555.4	congruent	Block3	congruent/STIM_022.jpg	99
3279.952	0.62	619.5	congruent	Block3	congruent/STIM_023.jpg	100
3284.016	0.734	734.2	congruent	Block3	congruent/STIM_023.jpg	99
3288.037	0.785	785.4	congruent	Block3	congruent/STIM_023.jpg	99
3291.873	0.745	744.7	congruent	Block3	congruent/STIM_023.jpg	100
3295.314	0.645	645.0	congruent	Block3	congruent/STIM_023.jpg	99
3299.025	0.857	856.7	congruent	Block3	congruent/STIM_024.jpg	99
3302.784	0.847	847.0	congruent	Block3	congruent/STIM_024.jpg	99
3306.556	0.822	822.4	congruent	Block3	congruent/STIM_024.jpg	99
3310.931	0.923	923.4	congruent	Block3	congruent/STIM_024.jpg	100
3314.825	0.601	601.2	congruent	Block3	congruent/STIM_024.jpg	100
3318.811	0.54	540.1	congruent	Block3	congruent/STIM_025.jpg	99
3322.689	0.93	929.7	congruent	Block3	congruent/STIM_025.jpg	99
3325.913	0.886	885.7	congruent	Block3	congruent/STIM_025.jpg	99
3328.969	0.777	776.9	congruent	Block3	congruent/STIM_025.jpg	100
3332.915	0.801	801.2	congruent	Block3	congruent/STIM_025.jpg	100
3337.576	0.74	739.7	congruent	Block3	congruent/STIM_026.jpg	100
3342.026	0.861	861.3	congruent	Block3	congruent/STIM_026.jpg	100
3345.658	0.564	563.6	congruent	Block3	congruent/STIM_026.jpg	99
3350.073	0.57	569.8	congruent	Block3	congruent/STIM_026.jpg	99
3353.665	0.732	731.7	congruent	Block3	congruent/STIM_026.jpg	100
3357.529	0.546	546.0	congruent	Block3	congruent/STIM_027.jpg	99
3361.808	0.586	585.9	congruent	Block3	congruent/STIM_027.jpg	100
3365.621	0.924	924.4	congruent	Block3	congruent/STIM_027.jpg	99
3368.98	0.701	700.8	congruent	Block3	congruent/STIM_027.jpg	99
3372.351	0.898	898.1	congruent	Block3	congruent/STIM_027.jpg	100
3375.404	0.669	669.2	congruent	Block3	congruent/STIM_028.jpg	100
3379.693	0.547	546.9	congruent	Block3	congruent/STIM_028.jpg	99
3383.586	0.915	914.8	congruent	Block3	congruent/STIM_028.jpg	99
3386.971	0.545	545.1	congruent	Block3	congruent/STIM_028.jpg	99
3390.539	0.63	630.2	congruent	Block3	congruent/STIM_028.jpg	99
3394.859	0.606	605.8	congruent	Block3	congruent/STIM_029.jpg	100
3399.168	0.901	901.0	congruent	Block3	congruent/STIM_029.jpg	100
3402.925	0.575	575.2	congruent	Block3	congruent/STIM_029.jpg	99
3405.931	0.697	697.0	congruent	Block3	congruent/STIM_029.jpg	100
3409.429	0.872	871.7	congruent	Block3	congruent/STIM_029.jpg	99
