onset	duration	response_time_ms	trial_type	learning_stage	stimulus	response_port
0.0	1.075	1075.3	incongruent	Block1	incongruent/STIM_000.jpg	99
3.823	1.198	1198.0	incongruent	Block1	incongruent/STIM_000.jpg	99
7.833	0.746	746.2	incongruent	Block1	incongruent/STIM_000.jpg	99
11.167	0.907	907.1	incongruent	Block1	incongruent/STIM_000.jpg	99
15.659	0.928	928.5	incongruent	Block1	incongruent/STIM_000.jpg	100
20.358	0.811	811.0	incongruent	Block1	incongruent/STIM_001.jpg	99
23.984	1.111	1110.9	incongruent	Block1	incongruent/STIM_001.jpg	100
27.909	0.83	830.0	incongruent	Block1	incongruent/STIM_001.jpg	100
31.896	1.328	1328.0	incongruent	Block1	incongruent/STIM_001.jpg	99
36.423	0.752	751.7	incongruent	Block1	incongruent/STIM_001.jpg	100
40.38	1.394	1393.8	incongruent	Block1	incongruent/STIM_002.jpg	99
45.156	1.013	1013.4	incongruent	Block1	incongruent/STIM_002.jpg	100
48.984	0.998	997.6	incongruent	Block1	incongruent/STIM_002.jpg	99
52.107	1.269	1268.8	incongruent	Block1	incongruent/STIM_002.jpg	100
57.056	0.872	872.5	incongruent	Block1	incongruent/STIM_002.jpg	100
60.674	0.94	939.6	incongruent	Block1	incongruent/STIM_003.jpg	99
63.757	1.055	1054.9	incongruent	Block1	incongruent/STIM_003.jpg	99
67.978	1.44	1439.6	incongruent	Block1	incongruent/STIM_003.jpg	99
71.598	0.934	933.7	incongruent	Block1	incongruent/STIM_003.jpg	100
74.993	0.794	794.0	incongruent	Block1	incongruent/STIM_003.jpg	99
79.585	1.023	1022.8	incongruent	Block1	incongruent/STIM_004.jpg	100
83.766	0.824	824.4	incongruent	Block1	incongruent/STIM_004.jpg	100
88.527	0.749	749.2	incongruent	Block1	incongruent/STIM_004.jpg	99
92.277	0.868	867.9	incongruent	Block1	incongruent/STIM_004.jpg	100
95.51	1.063	1063.3	incongruent	Block1	incongruent/STIM_004.jpg	99
98.661	1.402	1401.9	incongruent	Block1	incongruent/STIM_005.jpg	99
102.649	0.895	895.4	incongruent	Block1	incongruent/STIM_005.jpg	99
106.061	0.856	856.0	incongruent	Block1	incongruent/STIM_005.jpg	99
109.921	0.675	675.4	incongruent	Block1	incongruent/STIM_005.jpg	99
112.927	0.771	771.1	incongruent	Block1	incongruent/STIM_005.jpg	100
117.049	1.06	1059.8	incongruent	Block1	incongruent/STIM_006.jpg	100
121.876	1.582	1581.6	incongruent	Block1	incongruent/STIM_006.jpg	100
126.954	1.329	1328.7	incongruent	Block1	incongruent/STIM_006.jpg	100
131.537	1.411	1410.8	incongruent	Block1	incongruent/STIM_006.jpg	100
134.909	1.319	1319.0	incongruent	Block1	incongruent/STIM_006.jpg	100
138.212	0.814	813.7	incongruent	Block1	incongruent/STIM_007.jpg	99
141.22	1.336	1336.4	incongruent	Block1	incongruent/STIM_007.jpg	100
145.999	1.235	1235.0	incongruent	Block1	incongruent/STIM_007.jpg	100
149.502	1.35	1349.8	incongruent	Block1	incongruent/STIM_007.jpg	99
153.565	0.826	826.4	incongruent	Block1	incongruent/STIM_007.jpg	99
157.523	1.366	1366.0	incongruent	Block1	incongruent/STIM_008.jpg	100
162.337	1.597	1596.8	incongruent	Block1	incongruent/STIM_008.jpg	100
167.625	1.007	1007.4	incongruent	Block1	incongruent/STIM_008.jpg	100
171.377	0.733	733.1	incongruent	Block1	incongruent/STIM_008.jpg	100
175.661	1.0	1000.0	incongruent	Block1	incongruent/STIM_008.jpg	100
179.693	0.905	905.0	incongruent	Block1	incongruent/STIM_009.jpg	100
183.52	0.998	997.9	incongruent	Block1	incongruent/STIM_009.jpg	100
188.078	1.46	1459.9	incongruent	Block1	incongruent/STIM_009.jpg	99
191.442	1.378	1378.0	incongruent	Block1	incongruent/STIM_009.jpg	99
195.193	1.0	999.7	incongruent	Block1	incongruent/STIM_009.jpg	100
198.337	1.241	1241.3	incongruent	Block1	incongruent/STIM_010.jpg	100
202.555	0.957	956.9	incongruent	Block1	incongruent/STIM_010.jpg	99
207.199	1.186	1185.5	incongruent	Block1	incongruent/STIM_010.jpg	99
210.549	1.121	1121.1	incongruent	Block1	incongruent/STIM_010.jpg	100
214.306	0.663	662.7	incongruent	Block1	incongruent/STIM_010.jpg	99
217.675	1.46	1460.0	incongruent	Block1	incongruent/STIM_011.jpg	100
221.33	1.544	1544.3	incongruent	Block1	incongruent/STIM_011.jpg	100
224.854	0.95	950.4	incongruent	Block1	incongruent/STIM_011.jpg	100
228.131	1.3	1299.8	incongruent	Block1	incongruent/STIM_011.jpg	100
232.297	0.804	803.6	incongruent	Block1	incongruent/STIM_011.jpg	99
236.295	1.578	1578.1	incongruent	Block1	incongruent/STIM_012.jpg	99
241.268	1.62	1620.4	incongruent	Block1	incongruent/STIM_012.jpg	100
246.268	0.775	774.8	incongruent	Block1	incongruent/STIM_012.jpg	99
250.55	1.384	1384.1	incongruent	Block1	incongruent/STIM_012.jpg	100
255.66	1.126	1126.2	incongruent	Block1	incongruent/STIM_012.jpg	99
258.961	1.444	1444.3	incongruent	Block1	incongruent/STIM_013.jpg	99
263.784	0.875	875.3	incongruent	Block1	incongruent/STIM_013.jpg	99
268.243	1.238	1238.0	incongruent	Block1	incongruent/STIM_013.jpg	99
271.569	0.656	656.4	incongruent	Block1	incongruent/STIM_013.jpg	99
274.832	1.398	1398.4	incongruent	Block1	incongruent/STIM_013.jpg	100
278.822	1.445	1445.3	incongruent	Block1	incongruent/STIM_014.jpg	99
283.087	1.492	1491.8	incongruent	Block1	incongruent/STIM_014.jpg	100
287.134	1.024	1023.8	incongruent	Block1	incongruent/STIM_014.jpg	100
290.072	1.397	1397.0	incongruent	Block1	incongruent/STIM_014.jpg	99
293.897	0.712	711.6	incongruent	Block1	incongruent/STIM_014.jpg	100
297.584	1.417	1417.1	incongruent	Block1	incongruent/STIM_015.jpg	99
302.115	1.154	1154.5	incongruent	Block1	incongruent/STIM_015.jpg	99
306.727	1.376	1375.5	incongruent	Block1	incongruent/STIM_015.jpg	100
310.944	1.267	1266.6	incongruent	Block1	incongruent/STIM_015.jpg	100
315.487	0.822	821.7	incongruent	Block1	incongruent/STIM_015.jpg	99
319.993	1.446	1446.2	incongruent	Block1	incongruent/STIM_016.jpg	99
323.85	0.818	818.4	incongruent	Block1	incongruent/STIM_016.jpg	100
328.204	1.284	1284.3	incongruent	Block1	incongruent/STIM_016.jpg	99
333.088	1.239	1238.7	incongruent	Block1	incongruent/STIM_016.jpg	99
336.805	0.658	658.0	incongruent	Block1	incongruent/STIM_016.jpg	100
339.635	1.304	1304.3	incongruent	Block1	incongruent/STIM_017.jpg	100
344.241	0.783	782.9	incongruent	Block1	incongruent/STIM_017.jpg	100
348.601	0.726	726.2	incongruent	Block1	incongruent/STIM_017.jpg	99
353.018	0.665	665.0	incongruent	Block1	incongruent/STIM_017.jpg	100
357.525	1.108	1107.9	incongruent	Block1	incongruent/STIM_017.jpg	99
362.091	1.431	1431.1	incongruent	Block1	incongruent/STIM_018.jpg	100
365.588	1.462	1461.9	incongruent	Block1	incongruent/STIM_018.jpg	99
369.439	1.285	1285.4	incongruent	Block1	incongruent/STIM_018.jpg	99
374.139	1.338	1338.5	incongruent	Block1	incongruent/STIM_018.jpg	100
377.333	0.747	747.1	incongruent	Block1	incongruent/STIM_018.jpg	100
380.023	0.895	895.0	incongruent	Block1	incongruent/STIM_019.jpg	99
384.254	1.007	1006.7	incongruent	Block1	incongruent/STIM_019.jpg	100
387.28	0.828	827.6	incongruent	Block1	incongruent/STIM_019.jpg	100
391.711	0.722	722.0	incongruent	Block1	incongruent/STIM_019.jpg	100
395.639	1.069	1068.7	incongruent	Block1	incongruent/STIM_019.jpg	99
398.774	1.273	1272.6	incongruent	Block1	incongruent/STIM_020.jpg	100
403.616	1.217	1217.3	incongruent	Block1	incongruent/STIM_020.jpg	100
407.665	0.832	832.5	incongruent	Block1	incongruent/STIM_020.jpg	100
411.936	1.309	1309.0	incongruent	Block1	incongruent/STIM_020.jpg	100
416.971	1.122	1121.8	incongruent	Block1	incongruent/STIM_020.jpg	100
421.955	1.661	1661.3	incongruent	Block1	incongruent/STIM_021.jpg	99
426.989	1.402	1402.0	incongruent	Block1	incongruent/STIM_021.jpg	100
431.892	1.434	1434.3	incongruent	Block1	incongruent/STIM_021.jpg	100
435.438	1.309	1308.9	incongruent	Block1	incongruent/STIM_021.jpg	99
439.585	1.079	1079.0	incongruent	Block1	incongruent/STIM_021.jpg	99
443.026	1.535	1534.8	incongruent	Block1	incongruent/STIM_022.jpg	99
447.352	1.156	1156.1	incongruent	Block1	incongruent/STIM_022.jpg	99
450.812	1.008	1007.7	incongruent	Block1	incongruent/STIM_022.jpg	100
454.227	1.307	1307.3	incongruent	Block1	incongruent/STIM_022.jpg	100
457.861	0.615	614.7	incongruent	Block1	incongruent/STIM_022.jpg	99
462.026	0.916	915.5	incongruent	Block1	incongruent/STIM_023.jpg	100
466.766	0.73	729.8	incongruent	Block1	incongruent/STIM_023.jpg	100
470.594	0.936	935.9	incongruent	Block1	incongruent/STIM_023.jpg	99
474.702	0.762	761.7	incongruent	Block1	incongruent/STIM_023.jpg	100
479.243	1.324	1323.6	incongruent	Block1	incongruent/STIM_023.jpg	99
483.326	1.255	1254.6	incongruent	Block1	incongruent/STIM_024.jpg	99
486.889	1.454	1454.4	incongruent	Block1	incongruent/STIM_024.jpg	100
490.702	0.816	815.8	incongruent	Block1	incongruent/STIM_024.jpg	99
494.468	1.113	1112.8	incongruent	Block1	incongruent/STIM_024.jpg	99
498.263	1.218	1218.2	incongruent	Block1	incongruent/STIM_024.jpg	100
502.32	1.513	1512.9	incongruent	Block1	incongruent/STIM_025.jpg	100
505.945	0.878	878.5	incongruent	Block1	incongruent/STIM_025.jpg	100
509.174	1.13	1130.4	incongruent	Block1	incongruent/STIM_025.jpg	99
512.391	1.327	1326.9	incongruent	Block1	incongruent/STIM_025.jpg	100
516.857	0.939	939.2	incongruent	Block1	incongruent/STIM_025.jpg	100
521.035	1.6	1600.4	incongruent	Block1	incongruent/STIM_026.jpg	99
524.747	1.057	1057.1	incongruent	Block1	incongruent/STIM_026.jpg	100
527.907	0.991	991.0	incongruent	Block1	incongruent/STIM_026.jpg	100
531.774	0.932	932.3	incongruent	Block1	incongruent/STIM_026.jpg	99
535.097	0.971	971.3	incongruent	Block1	incongruent/STIM_026.jpg	100
539.302	1.296	1296.2	incongruent	Block1	incongruent/STIM_027.jpg	100
543.101	1.622	1621.6	incongruent	Block1	incongruent/STIM_027.jpg	100
547.732	1.083	1082.8	incongruent	Block1	incongruent/STIM_027.jpg	99
550.801	0.85	849.8	incongruent	Block1	incongruent/STIM_027.jpg	100
554.438	0.814	814.0	incongruent	Block1	incongruent/STIM_027.jpg	99
557.33	1.353	1353.1	incongruent	Block1	incongruent/STIM_028.jpg	100
560.941	0.802	802.3	incongruent	Block1	incongruent/STIM_028.jpg	100
565.046	0.969	969.4	incongruent	Block1	incongruent/STIM_028.jpg	99
569.356	0.768	767.8	incongruent	Block1	incongruent/STIM_028.jpg	99
572.156	0.746	745.5	incongruent	Block1	incongruent/STIM_028.jpg	100
574.962	1.045	1045.2	incongruent	Block1	incongruent/STIM_029.jpg	100
578.021	0.972	971.7	incongruent	Block1	incongruent/STIM_029.jpg	99
581.447	0.996	995.8	incongruent	Block1	incongruent/STIM_029.jpg	99
586.0	0.878	877.9	incongruent	Block1	incongruent/STIM_029.jpg	99
590.427	0.999	998.9	incongruent	Block1	incongruent/STIM_029.jpg	99
594.334	0.856	855.5	congruent	Block1	congruent/STIM_000.jpg	100
597.576	0.838	837.7	congruent	Block1	congruent/STIM_000.jpg	100
600.77	0.959	959.3	congruent	Block1	congruent/STIM_000.jpg	100
604.621	0.828	827.5	congruent	Block1	congruent/STIM_000.jpg	100
608.851	0.849	849.0	congruent	Block1	congruent/STIM_000.jpg	99
611.647	0.72	720.4	congruent	Block1	congruent/STIM_001.jpg	100
615.295	0.769	769.4	congruent	Block1	congruent/STIM_001.jpg	100
618.055	0.84	840.3	congruent	Block1	congruent/STIM_001.jpg	100
621.718	0.875	875.0	congruent	Block1	congruent/STIM_001.jpg	99
625.822	0.869	869.3	congruent	Block1	congruent/STIM_001.jpg	100
630.576	0.573	573.4	congruent	Block1	congruent/STIM_002.jpg	100
633.31	0.774	774.0	congruent	Block1	congruent/STIM_002.jpg	99
637.768	0.864	863.8	congruent	Block1	congruent/STIM_002.jpg	99
641.939	1.059	1058.6	congruent	Block1	congruent/STIM_002.jpg	99
646.738	0.993	993.2	congruent	Block1	congruent/STIM_002.jpg	99
651.31	0.826	826.0	congruent	Block1	congruent/STIM_003.jpg	99
654.837	0.804	803.7	congruent	Block1	congruent/STIM_003.jpg	100
659.41	0.823	823.4	congruent	Block1	congruent/STIM_003.jpg	100
662.423	0.784	784.0	congruent	Block1	congruent/STIM_003.jpg	100
666.218	0.782	781.5	congruent	Block1	congruent/STIM_003.jpg	100
670.792	0.977	976.9	congruent	Block1	congruent/STIM_004.jpg	100
674.492	0.998	998.4	congruent	Block1	congruent/STIM_004.jpg	100
678.125	0.933	933.3	congruent	Block1	congruent/STIM_004.jpg	99
681.261	0.606	606.2	congruent	Block1	congruent/STIM_004.jpg	99
684.267	0.655	655.4	congruent	Block1	congruent/STIM_004.jpg	100
688.537	1.046	1045.8	congruent	Block1	congruent/STIM_005.jpg	100
692.396	0.606	605.8	congruent	Block1	congruent/STIM_005.jpg	100
696.545	0.618	618.4	congruent	Block1	congruent/STIM_005.jpg	100
700.109	0.608	607.6	congruent	Block1	congruent/STIM_005.jpg	100
702.737	0.697	696.7	congruent	Block1	congruent/STIM_005.jpg	99
706.002	0.922	922.4	congruent	Block1	congruent/STIM_006.jpg	100
710.452	0.806	805.5	congruent	Block1	congruent/STIM_006.jpg	100
714.588	0.897	896.8	congruent	Block1	congruent/STIM_006.jpg	99
717.878	0.845	845.1	congruent	Block1	congruent/STIM_006.jpg	100
721.921	0.81	810.0	congruent	Block1	congruent/STIM_006.jpg	99
726.054	0.624	623.7	congruent	Block1	congruent/STIM_007.jpg	100
730.646	0.963	963.2	congruent	Block1	congruent/STIM_007.jpg	99
735.362	0.603	603.0	congruent	Block1	congruent/STIM_007.jpg	100
739.214	0.658	658.5	congruent	Block1	congruent/STIM_007.jpg	99
743.107	0.558	558.2	congruent	Block1	congruent/STIM_007.jpg	99
746.207	0.824	823.5	congruent	Block1	congruent/STIM_008.jpg	99
750.312	1.004	1004.5	congruent	Block1	congruent/STIM_008.jpg	99
754.018	0.744	744.4	congruent	Block1	congruent/STIM_008.jpg	99
757.248	0.595	594.8	congruent	Block1	congruent/STIM_008.jpg	99
761.233	0.829	829.1	congruent	Block1	congruent/STIM_008.jpg	100
764.365	0.944	943.6	congruent	Block1	congruent/STIM_009.jpg	100
768.46	0.642	641.6	congruent	Block1	congruent/STIM_009.jpg	99
772.256	0.812	812.0	congruent	Block1	congruent/STIM_009.jpg	100
775.932	0.495	494.8	congruent	Block1	congruent/STIM_009.jpg	100
779.397	0.949	949.3	congruent	Block1	congruent/STIM_009.jpg	100
783.905	0.812	812.4	congruent	Block1	congruent/STIM_010.jpg	99
788.11	0.604	604.1	congruent	Block1	congruent/STIM_010.jpg	99
790.862	0.964	963.6	congruent	Block1	congruent/STIM_010.jpg	100
795.438	0.884	883.8	congruent	Block1	congruent/STIM_010.jpg	99
799.417	0.578	578.0	congruent	Block1	congruent/STIM_010.jpg	100
801.984	0.766	766.1	congruent	Block1	congruent/STIM_011.jpg	100
805.556	0.66	660.5	congruent	Block1	congruent/STIM_011.jpg	99
808.93	0.612	611.6	congruent	Block1	congruent/STIM_011.jpg	99
811.473	0.921	920.7	congruent	Block1	congruent/STIM_011.jpg	99
815.599	0.895	894.6	congruent	Block1	congruent/STIM_011.jpg	100
819.787	0.882	881.6	congruent	Block1	congruent/STIM_012.jpg	100
823.374	0.771	771.2	congruent	Block1	congruent/STIM_012.jpg	99
826.869	0.81	810.5	congruent	Block1	congruent/STIM_012.jpg	100
831.348	0.975	975.4	congruent	Block1	congruent/STIM_012.jpg	100
834.625	0.944	943.8	congruent	Block1	congruent/STIM_012.jpg	99
838.885	0.658	658.0	congruent	Block1	congruent/STIM_013.jpg	99
842.521	0.705	705.1	congruent	Block1	congruent/STIM_013.jpg	99
845.518	0.696	695.8	congruent	Block1	congruent/STIM_013.jpg	100
849.724	0.582	582.1	congruent	Block1	congruent/STIM_013.jpg	99
852.831	0.684	684.2	congruent	Block1	congruent/STIM_013.jpg	99
857.394	0.908	907.5	congruent	Block1	congruent/STIM_014.jpg	99
861.83	0.819	818.6	congruent	Block1	congruent/STIM_014.jpg	99
866.343	0.896	895.5	congruent	Block1	congruent/STIM_014.jpg	99
869.554	0.636	636.3	congruent	Block1	congruent/STIM_014.jpg	99
874.058	0.669	669.3	congruent	Block1	congruent/STIM_014.jpg	99
877.525	0.592	591.5	congruent	Block1	congruent/STIM_015.jpg	100
880.227	0.888	887.7	congruent	Block1	congruent/STIM_015.jpg	99
883.568	0.627	626.7	congruent	Block1	congruent/STIM_015.jpg	100
887.244	0.602	601.9	congruent	Block1	congruent/STIM_015.jpg	99
890.007	0.625	625.2	congruent	Block1	congruent/STIM_015.jpg	99
894.345	0.837	836.7	congruent	Block1	congruent/STIM_016.jpg	100
898.63	0.697	697.1	congruent	Block1	congruent/STIM_016.jpg	100
902.929	0.95	950.5	congruent	Block1	congruent/STIM_016.jpg	100
907.348	0.804	804.0	congruent	Block1	congruent/STIM_016.jpg	99
910.852	0.866	865.7	congruent	Block1	congruent/STIM_016.jpg	100
915.165	0.596	595.5	congruent	Block1	congruent/STIM_017.jpg	99
918.578	0.712	712.3	congruent	Block1	congruent/STIM_017.jpg	99
921.577	0.808	807.6	congruent	Block1	congruent/STIM_017.jpg	100
925.497	0.672	672.3	congruent	Block1	congruent/STIM_017.jpg	100
929.002	0.745	745.3	congruent	Block1	congruent/STIM_017.jpg	100
932.908	0.587	586.9	congruent	Block1	congruent/STIM_018.jpg	100
936.814	0.668	668.1	congruent	Block1	congruent/STIM_018.jpg	100
941.256	0.858	858.3	congruent	Block1	congruent/STIM_018.jpg	100
945.196	0.974	974.3	congruent	Block1	congruent/STIM_018.jpg	100
949.956	0.612	611.6	congruent	Block1	congruent/STIM_018.jpg	100
953.808	0.678	677.5	congruent	Block1	congruent/STIM_019.jpg	100
958.278	0.685	684.9	congruent	Block1	congruent/STIM_019.jpg	100
962.472	0.819	818.8	congruent	Block1	congruent/STIM_019.jpg	99
966.261	0.825	825.2	congruent	Block1	congruent/STIM_019.jpg	100
970.489	0.584	583.8	congruent	Block1	congruent/STIM_019.jpg	100
973.617	0.569	569.2	congruent	Block1	congruent/STIM_020.jpg	99
978.002	0.786	786.4	congruent	Block1	congruent/STIM_020.jpg	100
981.962	0.591	590.7	congruent	Block1	congruent/STIM_020.jpg	100
986.516	0.62	619.5	congruent	Block1	congruent/STIM_020.jpg	99
990.985	0.919	918.8	congruent	Block1	congruent/STIM_020.jpg	100
993.835	0.706	705.8	congruent	Block1	congruent/STIM_021.jpg	99
997.596	0.64	640.2	congruent	Block1	congruent/STIM_021.jpg	99
1000.894	0.726	725.8	congruent	Block1	congruent/STIM_021.jpg	99
1004.811	0.917	917.2	congruent	Block1	congruent/STIM_021.jpg	100
1008.055	0.743	742.9	congruent	Block1	congruent/STIM_021.jpg	99
1012.104	0.836	835.5	congruent	Block1	congruent/STIM_022.jpg	99
1015.829	0.836	836.0	congruent	Block1	congruent/STIM_022.jpg	100
1018.735	0.83	830.2	congruent	Block1	congruent/STIM_022.jpg	100
1022.99	0.664	663.9	congruent	Block1	congruent/STIM_022.jpg	99
1026.931	0.496	496.1	congruent	Block1	congruent/STIM_022.jpg	99
1030.198	0.629	629.0	congruent	Block1	congruent/STIM_023.jpg	100
1034.525	0.958	958.4	congruent	Block1	congruent/STIM_023.jpg	100
1037.746	0.77	769.7	congruent	Block1	congruent/STIM_023.jpg	100
1042.072	0.665	665.4	congruent	Block1	congruent/STIM_023.jpg	100
1046.27	0.931	930.7	congruent	Block1	congruent/STIM_023.jpg	100
1049.865	0.943	943.1	congruent	Block1	congruent/STIM_024.jpg	99
1053.78	0.78	780.2	congruent	Block1	congruent/STIM_024.jpg	99
1056.989	0.959	959.0	congruent	Block1	congruent/STIM_024.jpg	99
1061.196	0.836	835.9	congruent	Block1	congruent/STIM_024.jpg	99
1065.408	0.611	610.7	congruent	Block1	congruent/STIM_024.jpg	100
1069.77	0.871	871.4	congruent	Block1	congruent/STIM_025.jpg	99
1073.265	0.754	753.9	congruent	Block1	congruent/STIM_025.jpg	99
1076.276	0.659	658.9	congruent	Block1	congruent/STIM_025.jpg	99
1079.657	0.803	803.3	congruent	Block1	congruent/STIM_025.jpg	99
1082.573	0.816	815.9	congruent	Block1	congruent/STIM_025.jpg	100
1086.89	0.75	750.2	congruent	Block1	congruent/STIM_026.jpg	100
1091.21	0.921	921.2	congruent	Block1	congruent/STIM_026.jpg	99
1095.161	0.731	731.1	congruent	Block1	congruent/STIM_026.jpg	99
1097.89	0.96	959.8	congruent	Block1	congruent/STIM_026.jpg	100
1101.495	0.938	937.8	congruent	Block1	congruent/STIM_026.jpg	99
1105.192	0.924	924.0	congruent	Block1	congruent/STIM_027.jpg	99
1109.708	0.784	783.7	congruent	Block1	congruent/STIM_027.jpg	100
1113.307	0.882	882.5	congruent	Block1	congruent/STIM_027.jpg	99
1117.669	0.948	947.7	congruent	Block1	congruent/STIM_027.jpg	100
1120.688	0.769	768.7	congruent	Block1	congruent/STIM_027.jpg	99
1124.205	0.885	885.0	congruent	Block1	congruent/STIM_028.jpg	99
1127.465	1.073	1072.7	congruent	Block1	congruent/STIM_028.jpg	99
1130.533	0.746	745.5	congruent	Block1	congruent/STIM_028.jpg	99
1134.109	0.687	687.0	congruent	Block1	congruent/STIM_028.jpg	100
1138.696	0.796	795.9	congruent	Block1	congruent/STIM_028.jpg	99
1143.009	0.566	566.0	congruent	Block1	congruent/STIM_029.jpg	100
1147.244	0.756	755.7	congruent	Block1	congruent/STIM_029.jpg	100
1150.188	0.612	611.8	congruent	Block1	congruent/STIM_029.jpg	100
1154.593	0.796	796.2	congruent	Block1	congruent/STIM_029.jpg	99
1157.51	0.864	863.8	congruent	Block1	congruent/STIM_029.jpg	99
1161.118	1.059	1059.2	incongruent	Block2	incongruent/STIM_000.jpg	99
1165.566	0.906	906.2	incongruent	Block2	incongruent/STIM_000.jpg	99
1169.107	0.844	844.0	incongruent	Block2	incongruent/STIM_000.jpg	100
1173.879	1.159	1158.8	incongruent	Block2	incongruent/STIM_000.jpg	99
1178.63	0.865	864.7	incongruent	Block2	incongruent/STIM_000.jpg	100
1181.78	1.278	1278.4	incongruent	Block2	incongruent/STIM_001.jpg	100
1185.073	1.06	1060.5	incongruent	Block2	incongruent/STIM_001.jpg	99
1188.862	0.889	889.4	incongruent	Block2	incongruent/STIM_001.jpg	99
1192.738	1.124	1124.3	incongruent	Block2	incongruent/STIM_001.jpg	99
1195.829	0.717	717.1	incongruent	Block2	incongruent/STIM_001.jpg	99
1199.902	0.848	847.5	incongruent	Block2	incongruent/STIM_002.jpg	100
1202.736	0.653	653.3	incongruent	Block2	incongruent/STIM_002.jpg	100
1205.968	1.231	1231.1	incongruent	Block2	incongruent/STIM_002.jpg	99
1209.269	0.797	797.4	incongruent	Block2	incongruent/STIM_002.jpg	99
1213.856	1.105	1105.4	incongruent	Block2	incongruent/STIM_002.jpg	100
1217.991	0.954	954.1	incongruent	Block2	incongruent/STIM_003.jpg	99
1222.554	0.987	986.8	incongruent	Block2	incongruent/STIM_003.jpg	99
1226.26	0.718	717.6	incongruent	Block2	incongruent/STIM_003.jpg	100
1230.335	0.951	951.4	incongruent	Block2	incongruent/STIM_003.jpg	100
1233.806	0.596	596.1	incongruent	Block2	incongruent/STIM_003.jpg	100
1237.076	1.274	1274.5	incongruent	Block2	incongruent/STIM_004.jpg	100
1241.973	0.79	789.5	incongruent	Block2	incongruent/STIM_004.jpg	99
1245.823	1.142	1141.9	incongruent	Block2	incongruent/STIM_004.jpg	99
1249.945	1.02	1020.3	incongruent	Block2	incongruent/STIM_004.jpg	100
1254.228	0.862	862.3	incongruent	Block2	incongruent/STIM_004.jpg	99
1257.293	1.169	1169.4	incongruent	Block2	incongruent/STIM_005.jpg	100
1260.561	1.184	1183.6	incongruent	Block2	incongruent/STIM_005.jpg	100
1265.515	0.725	725.4	incongruent	Block2	incongruent/STIM_005.jpg	99
1269.943	1.064	1063.6	incongruent	Block2	incongruent/STIM_005.jpg	99
1273.503	0.665	665.1	incongruent	Block2	incongruent/STIM_005.jpg	100
1276.217	0.671	670.8	incongruent	Block2	incongruent/STIM_006.jpg	100
1280.756	0.981	981.4	incongruent	Block2	incongruent/STIM_006.jpg	100
1285.224	1.058	1057.8	incongruent	Block2	incongruent/STIM_006.jpg	100
1288.904	0.927	926.6	incongruent	Block2	incongruent/STIM_006.jpg	99
1292.422	1.049	1048.8	incongruent	Block2	incongruent/STIM_006.jpg	100
1296.358	0.878	877.5	incongruent	Block2	incongruent/STIM_007.jpg	99
1300.586	0.69	689.8	incongruent	Block2	incongruent/STIM_007.jpg	100
1304.479	0.88	880.0	incongruent	Block2	incongruent/STIM_007.jpg	99
1308.532	0.807	807.4	incongruent	Block2	incongruent/STIM_007.jpg	99
1311.811	0.716	716.2	incongruent	Block2	incongruent/STIM_007.jpg	100
1315.656	0.745	745.1	incongruent	Block2	incongruent/STIM_008.jpg	100
1319.295	1.076	1076.0	incongruent	Block2	incongruent/STIM_008.jpg	99
1323.324	1.148	1147.7	incongruent	Block2	incongruent/STIM_008.jpg	99
1327.039	0.591	590.9	incongruent	Block2	incongruent/STIM_008.jpg	100
1331.233	0.94	940.5	incongruent	Block2	incongruent/STIM_008.jpg	99
1335.459	1.003	1003.2	incongruent	Block2	incongruent/STIM_009.jpg	100
1340.1	0.965	964.7	incongruent	Block2	incongruent/STIM_009.jpg	100
1344.667	1.075	1075.3	incongruent	Block2	incongruent/STIM_009.jpg	99
1348.304	0.832	832.1	incongruent	Block2	incongruent/STIM_009.jpg	99
1352.644	0.648	648.2	incongruent	Block2	incongruent/STIM_009.jpg	100
1356.565	0.953	953.0	incongruent	Block2	incongruent/STIM_010.jpg	99
1360.593	0.816	815.7	incongruent	Block2	incongruent/STIM_010.jpg	100
1363.934	0.722	721.9	incongruent	Block2	incongruent/STIM_010.jpg	100
1367.888	0.928	928.0	incongruent	Block2	incongruent/STIM_010.jpg	100
1372.222	1.088	1088.1	incongruent	Block2	incongruent/STIM_010.jpg	100
1376.797	0.999	999.3	incongruent	Block2	incongruent/STIM_011.jpg	100
1381.317	1.316	1315.9	incongruent	Block2	incongruent/STIM_011.jpg	100
1386.007	1.043	1043.3	incongruent	Block2	incongruent/STIM_011.jpg	100
1389.54	1.126	1125.6	incongruent	Block2	incongruent/STIM_011.jpg	99
1392.633	1.049	1049.0	incongruent	Block2	incongruent/STIM_011.jpg	100
1395.969	1.159	1158.7	incongruent	Block2	incongruent/STIM_012.jpg	99
1400.025	0.73	729.5	incongruent	Block2	incongruent/STIM_012.jpg	100
1403.021	1.049	1048.6	incongruent	Block2	incongruent/STIM_012.jpg	99
1406.693	1.094	1093.7	incongruent	Block2	incongruent/STIM_012.jpg	100
1410.616	0.596	595.7	incongruent	Block2	incongruent/STIM_012.jpg	100
1414.425	1.302	1302.0	incongruent	Block2	incongruent/STIM_013.jpg	100
1417.603	0.765	765.1	incongruent	Block2	incongruent/STIM_013.jpg	99
1421.809	0.61	609.9	incongruent	Block2	incongruent/STIM_013.jpg	100
1425.53	0.854	854.0	incongruent	Block2	incongruent/STIM_013.jpg	100
1428.847	0.972	972.1	incongruent	Block2	incongruent/STIM_013.jpg	100
1433.237	0.957	956.7	incongruent	Block2	incongruent/STIM_014.jpg	100
1437.108	1.342	1342.1	incongruent	Block2	incongruent/STIM_014.jpg	100
1440.596	1.008	1008.5	incongruent	Block2	incongruent/STIM_014.jpg	100
1443.477	1.15	1149.9	incongruent	Block2	incongruent/STIM_014.jpg	99
1448.25	0.775	774.7	incongruent	Block2	incongruent/STIM_014.jpg	99
1452.78	0.962	962.5	incongruent	Block2	incongruent/STIM_015.jpg	99
1455.732	0.651	650.6	incongruent	Block2	incongruent/STIM_015.jpg	99
1459.064	0.621	621.4	incongruent	Block2	incongruent/STIM_015.jpg	99
1462.129	0.928	928.2	incongruent	Block2	incongruent/STIM_015.jpg	99
1466.235	0.776	775.9	incongruent	Block2	incongruent/STIM_015.jpg	99
1470.686	0.721	721.4	incongruent	Block2	incongruent/STIM_016.jpg	99
1474.566	0.952	951.5	incongruent	Block2	incongruent/STIM_016.jpg	100
1478.762	1.16	1160.4	incongruent	Block2	incongruent/STIM_016.jpg	99
1483.385	0.939	939.0	incongruent	Block2	incongruent/STIM_016.jpg	99
1486.947	1.002	1002.0	incongruent	Block2	incongruent/STIM_016.jpg	99
1490.722	1.227	1227.0	incongruent	Block2	incongruent/STIM_017.jpg	99
1495.105	0.924	923.5	incongruent	Block2	incongruent/STIM_017.jpg	100
1498.432	0.869	868.6	incongruent	Block2	incongruent/STIM_017.jpg	100
1502.782	0.866	865.8	incongruent	Block2	incongruent/STIM_017.jpg	100
1507.059	1.002	1001.9	incongruent	Block2	incongruent/STIM_017.jpg	100
1511.779	0.813	813.2	incongruent	Block2	incongruent/STIM_018.jpg	99
1515.203	0.808	807.5	incongruent	Block2	incongruent/STIM_018.jpg	99
1517.917	0.681	681.4	incongruent	Block2	incongruent/STIM_018.jpg	100
1522.429	0.731	731.2	incongruent	Block2	incongruent/STIM_018.jpg	100
1525.839	0.761	761.1	incongruent	Block2	incongruent/STIM_018.jpg	99
1528.794	1.204	1203.7	incongruent	Block2	incongruent/STIM_019.jpg	99
1533.327	1.378	1378.1	incongruent	Block2	incongruent/STIM_019.jpg	99
1537.803	1.14	1140.2	incongruent	Block2	incongruent/STIM_019.jpg	100
1542.459	1.019	1018.8	incongruent	Block2	incongruent/STIM_019.jpg	100
1545.922	0.75	749.7	incongruent	Block2	incongruent/STIM_019.jpg	99
1549.791	0.922	922.0	incongruent	Block2	incongruent/STIM_020.jpg	99
1554.077	0.852	852.5	incongruent	Block2	incongruent/STIM_020.jpg	99
1558.584	1.222	1221.6	incongruent	Block2	incongruent/STIM_020.jpg	99
1561.681	0.884	884.3	incongruent	Block2	incongruent/STIM_020.jpg	100
1565.019	0.592	591.8	incongruent	Block2	incongruent/STIM_020.jpg	99
1568.592	1.123	1123.2	incongruent	Block2	incongruent/STIM_021.jpg	99
1572.281	0.905	904.8	incongruent	Block2	incongruent/STIM_021.jpg	100
1576.003	0.924	923.8	incongruent	Block2	incongruent/STIM_021.jpg	100
1579.734	1.097	1097.3	incongruent	Block2	incongruent/STIM_021.jpg	100
1583.785	0.968	968.2	incongruent	Block2	incongruent/STIM_021.jpg	100
1587.712	1.384	1383.7	incongruent	Block2	incongruent/STIM_022.jpg	99
1591.237	1.134	1134.2	incongruent	Block2	incongruent/STIM_022.jpg	99
1595.887	1.104	1103.8	incongruent	Block2	incongruent/STIM_022.jpg	99
1599.722	1.112	1111.6	incongruent	Block2	incongruent/STIM_022.jpg	100
1602.93	0.888	887.7	incongruent	Block2	incongruent/STIM_022.jpg	99
1606.396	1.446	1446.0	incongruent	Block2	incongruent/STIM_023.jpg	100
1611.422	1.038	1037.5	incongruent	Block2	incongruent/STIM_023.jpg	100
1615.582	0.817	817.2	incongruent	Block2	incongruent/STIM_023.jpg	99
1620.034	0.52	519.8	incongruent	Block2	incongruent/STIM_023.jpg	100
1623.454	0.834	834.0	incongruent	Block2	incongruent/STIM_023.jpg	99
1626.382	0.812	811.9	incongruent	Block2	incongruent/STIM_024.jpg	100
1629.584	1.203	1202.6	incongruent	Block2	incongruent/STIM_024.jpg	99
1633.537	0.778	778.4	incongruent	Block2	incongruent/STIM_024.jpg	100
1637.529	0.857	856.6	incongruent	Block2	incongruent/STIM_024.jpg	100
1640.447	1.002	1001.7	incongruent	Block2	incongruent/STIM_024.jpg	100
1645.038	1.242	1242.2	incongruent	Block2	incongruent/STIM_025.jpg	100
1648.75	1.326	1325.9	incongruent	Block2	incongruent/STIM_025.jpg	99
1653.564	1.215	1214.9	incongruent	Block2	incongruent/STIM_025.jpg	99
1658.028	0.656	656.0	incongruent	Block2	incongruent/STIM_025.jpg	99
1661.947	0.496	495.9	incongruent	Block2	incongruent/STIM_025.jpg	100
1665.109	0.721	720.7	incongruent	Block2	incongruent/STIM_026.jpg	100
1668.265	0.917	917.1	incongruent	Block2	incongruent/STIM_026.jpg	100
1672.159	1.044	1044.2	incongruent	Block2	incongruent/STIM_026.jpg	100
1675.868	0.704	704.2	incongruent	Block2	incongruent/STIM_026.jpg	99
1679.844	0.574	573.7	incongruent	Block2	incongruent/STIM_026.jpg	100
1683.548	1.146	1146.1	incongruent	Block2	incongruent/STIM_027.jpg	100
1687.646	1.11	1109.6	incongruent	Block2	incongruent/STIM_027.jpg	99
1691.416	0.944	944.1	incongruent	Block2	incongruent/STIM_027.jpg	99
1695.303	0.86	860.1	incongruent	Block2	incongruent/STIM_027.jpg	99
1698.558	0.889	888.9	incongruent	Block2	incongruent/STIM_027.jpg	99
1702.747	0.687	687.2	incongruent	Block2	incongruent/STIM_028.jpg	100
1705.937	0.692	692.0	incongruent	Block2	incongruent/STIM_028.jpg	100
1708.69	0.798	797.7	incongruent	Block2	incongruent/STIM_028.jpg	99
1711.579	0.792	791.7	incongruent	Block2	incongruent/STIM_028.jpg	100
1715.99	0.978	978.5	incongruent	Block2	incongruent/STIM_028.jpg	100
1720.828	1.371	1370.6	incongruent	Block2	incongruent/STIM_029.jpg	100
1724.686	1.264	1264.0	incongruent	Block2	incongruent/STIM_029.jpg	100
1728.144	0.883	883.4	incongruent	Block2	incongruent/STIM_029.jpg	100
1731.169	1.0	1000.4	incongruent	Block2	incongruent/STIM_029.jpg	100
1735.768	1.103	1103.4	incongruent	Block2	incongruent/STIM_029.jpg	100
1739.574	0.992	992.2	congruent	Block2	congruent/STIM_000.jpg	100
1744.14	0.886	885.9	congruent	Block2	congruent/STIM_000.jpg	99
1747.469	0.842	841.6	congruent	Block2	congruent/STIM_000.jpg	99
1750.52	0.862	861.7	congruent	Block2	congruent/STIM_000.jpg	100
1754.796	0.752	752.0	congruent	Block2	congruent/STIM_000.jpg	99
1757.654	0.858	858.3	congruent	Block2	congruent/STIM_001.jpg	100
1760.611	0.781	780.9	congruent	Block2	congruent/STIM_001.jpg	100
1764.32	0.868	867.7	congruent	Block2	congruent/STIM_001.jpg	100
1767.999	0.73	729.7	congruent	Block2	congruent/STIM_001.jpg	99
1771.244	0.93	929.6	congruent	Block2	congruent/STIM_001.jpg	99
1774.287	0.996	995.9	congruent	Block2	congruent/STIM_002.jpg	100
1778.847	0.795	795.0	congruent	Block2	congruent/STIM_002.jpg	100
1781.774	0.676	676.1	congruent	Block2	congruent/STIM_002.jpg	100
1785.209	0.81	810.5	congruent	Block2	congruent/STIM_002.jpg	100
1787.975	0.812	812.2	congruent	Block2	congruent/STIM_002.jpg	100
1791.331	0.929	929.4	congruent	Block2	congruent/STIM_003.jpg	99
1796.011	0.691	690.6	congruent	Block2	congruent/STIM_003.jpg	99
1800.488	0.909	909.0	congruent	Block2	congruent/STIM_003.jpg	100
1804.118	0.707	707.4	congruent	Block2	congruent/STIM_003.jpg	100
1807.193	0.885	885.1	congruent	Block2	congruent/STIM_003.jpg	99
1811.732	0.818	818.0	congruent	Block2	congruent/STIM_004.jpg	99
1815.402	0.665	665.0	congruent	Block2	congruent/STIM_004.jpg	100
1818.431	0.641	641.2	congruent	Block2	congruent/STIM_004.jpg	99
1821.748	0.59	590.0	congruent	Block2	congruent/STIM_004.jpg	100
1824.753	0.862	862.3	congruent	Block2	congruent/STIM_004.jpg	100
1827.607	0.923	922.8	congruent	Block2	congruent/STIM_005.jpg	99
1830.838	0.997	996.6	congruent	Block2	congruent/STIM_005.jpg	99
1835.033	0.621	620.6	congruent	Block2	congruent/STIM_005.jpg	99
1837.745	0.69	690.0	congruent	Block2	congruent/STIM_005.jpg	100
1842.017	0.727	726.9	congruent	Block2	congruent/STIM_005.jpg	99
1845.126	0.537	537.0	congruent	Block2	congruent/STIM_006.jpg	100
1848.03	0.846	845.8	congruent	Block2	congruent/STIM_006.jpg	100
1852.618	0.883	883.2	congruent	Block2	congruent/STIM_006.jpg	99
1855.506	0.969	968.9	congruent	Block2	congruent/STIM_006.jpg	100
1858.398	0.726	725.7	congruent	Block2	congruent/STIM_006.jpg	100
1861.283	0.656	655.8	congruent	Block2	congruent/STIM_007.jpg	99
1865.871	0.789	788.8	congruent	Block2	congruent/STIM_007.jpg	100
1869.499	0.616	616.3	congruent	Block2	congruent/STIM_007.jpg	100
1872.639	0.571	571.0	congruent	Block2	congruent/STIM_007.jpg	99
1876.579	0.798	798.2	congruent	Block2	congruent/STIM_007.jpg	100
1880.028	0.816	815.7	congruent	Block2	congruent/STIM_008.jpg	99
1884.673	0.829	829.3	congruent	Block2	congruent/STIM_008.jpg	99
1889.368	0.785	784.6	congruent	Block2	congruent/STIM_008.jpg	100
1892.674	0.988	987.6	congruent	Block2	congruent/STIM_008.jpg	100
1897.376	0.555	555.1	congruent	Block2	congruent/STIM_008.jpg	100
1900.081	0.536	535.6	congruent	Block2	congruent/STIM_009.jpg	100
1903.1	0.702	701.7	congruent	Block2	congruent/STIM_009.jpg	99
1907.141	0.844	844.3	congruent	Block2	congruent/STIM_009.jpg	99
1911.352	0.861	861.1	congruent	Block2	congruent/STIM_009.jpg	99
1915.504	0.555	555.1	congruent	Block2	congruent/STIM_009.jpg	100
1918.601	0.714	714.3	congruent	Block2	congruent/STIM_010.jpg	99
1921.836	0.794	794.2	congruent	Block2	congruent/STIM_010.jpg	99
1925.582	0.86	860.0	congruent	Block2	congruent/STIM_010.jpg	99
1928.651	0.803	803.2	congruent	Block2	congruent/STIM_010.jpg	100
1932.006	0.81	809.8	congruent	Block2	congruent/STIM_010.jpg	100
1936.179	0.841	840.8	congruent	Block2	congruent/STIM_011.jpg	100
1940.677	0.959	959.2	congruent	Block2	congruent/STIM_011.jpg	100
1944.673	0.993	992.7	congruent	Block2	congruent/STIM_011.jpg	99
1948.43	0.838	838.4	congruent	Block2	congruent/STIM_011.jpg	99
1952.258	0.693	693.3	congruent	Block2	congruent/STIM_011.jpg	99
1956.213	0.878	877.7	congruent	Block2	congruent/STIM_012.jpg	99
1960.01	0.612	612.1	congruent	Block2	congruent/STIM_012.jpg	100
1963.354	0.533	533.1	congruent	Block2	congruent/STIM_012.jpg	99
1966.959	0.719	719.2	congruent	Block2	congruent/STIM_012.jpg	100
1969.958	1.012	1011.8	congruent	Block2	congruent/STIM_012.jpg	100
1973.62	0.735	734.8	congruent	Block2	congruent/STIM_013.jpg	100
1977.691	0.568	568.0	congruent	Block2	congruent/STIM_013.jpg	100
1980.891	0.722	722.5	congruent	Block2	congruent/STIM_013.jpg	100
1985.339	0.909	909.0	congruent	Block2	congruent/STIM_013.jpg	99
1989.243	0.69	690.2	congruent	Block2	congruent/STIM_013.jpg	100
1993.693	0.894	894.3	congruent	Block2	congruent/STIM_014.jpg	100
1997.825	0.959	958.7	congruent	Block2	congruent/STIM_014.jpg	100
2000.969	0.765	765.2	congruent	Block2	congruent/STIM_014.jpg	99
2005.422	0.893	892.6	congruent	Block2	congruent/STIM_014.jpg	99
2009.804	0.81	809.9	congruent	Block2	congruent/STIM_014.jpg	99
2014.405	0.808	807.9	congruent	Block2	congruent/STIM_015.jpg	100
2018.455	1.076	1076.3	congruent	Block2	congruent/STIM_015.jpg	100
2022.281	0.688	687.9	congruent	Block2	congruent/STIM_015.jpg	100
2025.574	0.989	989.1	congruent	Block2	congruent/STIM_015.jpg	100
2029.897	0.536	535.6	congruent	Block2	congruent/STIM_015.jpg	100
2033.227	0.925	925.3	congruent	Block2	congruent/STIM_016.jpg	100
2037.799	0.82	819.9	congruent	Block2	congruent/STIM_016.jpg	100
2040.584	0.818	817.9	congruent	Block2	congruent/STIM_016.jpg	100
2044.454	0.815	815.0	congruent	Block2	congruent/STIM_016.jpg	100
2048.297	0.873	872.8	congruent	Block2	congruent/STIM_016.jpg	99
2051.454	0.557	557.2	congruent	Block2	congruent/STIM_017.jpg	100
2054.314	0.791	791.0	congruent	Block2	congruent/STIM_017.jpg	100
2058.9	0.66	660.2	congruent	Block2	congruent/STIM_017.jpg	100
2063.161	0.887	887.3	congruent	Block2	congruent/STIM_017.jpg	99
2066.095	0.687	686.9	congruent	Block2	congruent/STIM_017.jpg	100
2069.098	0.608	608.2	congruent	Block2	congruent/STIM_018.jpg	99
2073.474	0.522	522.1	congruent	Block2	congruent/STIM_018.jpg	100
2077.1	0.961	961.3	congruent	Block2	congruent/STIM_018.jpg	99
2080.648	0.638	638.1	congruent	Block2	congruent/STIM_018.jpg	99
2083.535	0.816	815.8	congruent	Block2	congruent/STIM_018.jpg	100
2086.843	0.792	792.1	congruent	Block2	congruent/STIM_019.jpg	99
2089.989	0.797	796.9	congruent	Block2	congruent/STIM_019.jpg	99
2093.405	0.777	777.2	congruent	Block2	congruent/STIM_019.jpg	100
2096.983	0.912	912.0	congruent	Block2	congruent/STIM_019.jpg	100
2101.077	0.936	936.0	congruent	Block2	congruent/STIM_019.jpg	99
2104.244	0.784	783.7	congruent	Block2	congruent/STIM_020.jpg	100
2108.919	0.665	664.9	congruent	Block2	congruent/STIM_020.jpg	100
2112.698	0.939	939.1	congruent	Block2	congruent/STIM_020.jpg	99
2115.58	0.925	925.0	congruent	Block2	congruent/STIM_020.jpg	99
2119.506	0.775	774.6	congruent	Block2	congruent/STIM_020.jpg	99
2123.461	0.885	884.7	congruent	Block2	congruent/STIM_021.jpg	99
2127.205	0.855	855.3	congruent	Block2	congruent/STIM_021.jpg	100
2130.86	0.836	835.9	congruent	Block2	congruent/STIM_021.jpg	100
2134.325	0.728	728.2	congruent	Block2	congruent/STIM_021.jpg	100
2137.899	0.574	574.2	congruent	Block2	congruent/STIM_021.jpg	99
2141.627	0.704	703.6	congruent	Block2	congruent/STIM_022.jpg	99
2146.177	0.938	938.0	congruent	Block2	congruent/STIM_022.jpg	99
2150.302	0.821	821.2	congruent	Block2	congruent/STIM_022.jpg	100
2153.802	0.611	610.7	congruent	Block2	congruent/STIM_022.jpg	100
2156.808	0.767	767.3	congruent	Block2	congruent/STIM_022.jpg	100
2161.046	0.77	770.3	congruent	Block2	congruent/STIM_023.jpg	100
2163.892	0.944	944.3	congruent	Block2	congruent/STIM_023.jpg	100
2168.06	0.778	777.7	congruent	Block2	congruent/STIM_023.jpg	99
2171.933	0.805	805.4	congruent	Block2	congruent/STIM_023.jpg	100
2175.127	0.74	740.3	congruent	Block2	congruent/STIM_023.jpg	100
2178.903	1.024	1023.9	congruent	Block2	congruent/STIM_024.jpg	99
2183.377	0.895	895.0	congruent	Block2	congruent/STIM_024.jpg	100
2188.107	0.734	733.9	congruent	Block2	congruent/STIM_024.jpg	100
2192.716	0.832	831.8	congruent	Block2	congruent/STIM_024.jpg	100
2197.138	0.58	580.4	congruent	Block2	congruent/STIM_024.jpg	100
2200.352	0.587	587.1	congruent	Block2	congruent/STIM_025.jpg	99
2203.057	0.859	859.3	congruent	Block2	congruent/STIM_025.jpg	100
2207.774	0.79	789.9	congruent	Block2	congruent/STIM_025.jpg	99
2211.348	0.941	941.3	congruent	Block2	congruent/STIM_025.jpg	100
2215.732	0.657	657.4	congruent	Block2	congruent/STIM_025.jpg	100
2218.546	0.736	736.5	congruent	Block2	congruent/STIM_026.jpg	99
2221.225	0.818	818.0	congruent	Block2	congruent/STIM_026.jpg	100
2225.871	0.608	607.9	congruent	Block2	congruent/STIM_026.jpg	100
2228.894	0.581	580.7	congruent	Block2	congruent/STIM_026.jpg	100
2232.236	0.834	833.6	congruent	Block2	congruent/STIM_026.jpg	99
2235.29	0.685	685.4	congruent	Block2	congruent/STIM_027.jpg	100
2238.772	0.511	511.4	congruent	Block2	congruent/STIM_027.jpg	99
2242.614	0.892	892.2	congruent	Block2	congruent/STIM_027.jpg	100
2245.682	0.775	775.1	congruent	Block2	congruent/STIM_027.jpg	99
2250.31	0.823	822.6	congruent	Block2	congruent/STIM_027.jpg	99
2253.744	0.77	770.2	congruent	Block2	congruent/STIM_028.jpg	100
2258.255	0.642	642.5	congruent	Block2	congruent/STIM_028.jpg	100
2261.447	0.833	832.6	congruent	Block2	congruent/STIM_028.jpg	100
2264.858	0.768	768.1	congruent	Block2	congruent/STIM_028.jpg	99
2268.645	0.952	952.5	congruent	Block2	congruent/STIM_028.jpg	99
2272.607	0.901	901.3	congruent	Block2	congruent/STIM_029.jpg	99
2275.624	0.541	541.1	congruent	Block2	congruent/STIM_029.jpg	99
2280.104	0.783	782.8	congruent	Block2	congruent/STIM_029.jpg	100
2283.701	0.66	659.8	congruent	Block2	congruent/STIM_029.jpg	99
2286.781	0.864	863.5	congruent	Block2	congruent/STIM_029.jpg	99
2291.27	0.538	537.6	incongruent	Block3	incongruent/STIM_000.jpg	100
2295.201	0.678	677.9	incongruent	Block3	incongruent/STIM_000.jpg	99
2298.756	0.867	867.4	incongruent	Block3	incongruent/STIM_000.jpg	99
2302.286	1.061	1061.3	incongruent	Block3	incongruent/STIM_000.jpg	100
2305.654	0.573	573.0	incongruent	Block3	incongruent/STIM_000.jpg	100
2308.368	0.657	657.3	incongruent	Block3	incongruent/STIM_001.jpg	99
2312.159	1.272	1272.0	incongruent	Block3	incongruent/STIM_001.jpg	99
2316.627	0.972	972.2	incongruent	Block3	incongruent/STIM_001.jpg	99
2320.938	1.062	1061.5	incongruent	Block3	incongruent/STIM_001.jpg	99
2325.638	0.949	948.9	incongruent	Block3	incongruent/STIM_001.jpg	100
2328.895	0.713	712.6	incongruent	Block3	incongruent/STIM_002.jpg	100
2332.536	0.692	692.2	incongruent	Block3	incongruent/STIM_002.jpg	100
2335.36	0.522	521.6	incongruent	Block3	incongruent/STIM_002.jpg	100
2339.395	0.72	719.6	incongruent	Block3	incongruent/STIM_002.jpg	100
2342.072	0.81	809.9	incongruent	Block3	incongruent/STIM_002.jpg	100
2346.697	0.855	854.6	incongruent	Block3	incongruent/STIM_003.jpg	99
2351.178	0.882	882.5	incongruent	Block3	incongruent/STIM_003.jpg	99
2355.908	0.768	767.9	incongruent	Block3	incongruent/STIM_003.jpg	100
2360.001	0.595	594.8	incongruent	Block3	incongruent/STIM_003.jpg	99
2363.046	0.842	841.8	incongruent	Block3	incongruent/STIM_003.jpg	100
2367.641	0.646	646.2	incongruent	Block3	incongruent/STIM_004.jpg	99
2371.251	0.951	950.9	incongruent	Block3	incongruent/STIM_004.jpg	100
2375.976	1.103	1102.7	incongruent	Block3	incongruent/STIM_004.jpg	99
2379.08	1.166	1166.5	incongruent	Block3	incongruent/STIM_004.jpg	99
2383.946	1.105	1104.6	incongruent	Block3	incongruent/STIM_004.jpg	99
2387.115	0.693	693.1	incongruent	Block3	incongruent/STIM_005.jpg	100
2390.563	0.953	953.4	incongruent	Block3	incongruent/STIM_005.jpg	100
2395.186	0.935	934.9	incongruent	Block3	incongruent/STIM_005.jpg	99
2399.307	0.975	974.6	incongruent	Block3	incongruent/STIM_005.jpg	100
2403.159	0.943	943.3	incongruent	Block3	incongruent/STIM_005.jpg	99
2407.709	0.646	646.5	incongruent	Block3	incongruent/STIM_006.jpg	100
2411.339	0.82	819.9	incongruent	Block3	incongruent/STIM_006.jpg	99
2414.584	1.149	1149.3	incongruent	Block3	incongruent/STIM_006.jpg	100
2419.41	0.627	626.7	incongruent	Block3	incongruent/STIM_006.jpg	99
2422.114	1.033	1032.9	incongruent	Block3	incongruent/STIM_006.jpg	100
2425.472	0.975	974.8	incongruent	Block3	incongruent/STIM_007.jpg	99
2428.375	0.595	595.0	incongruent	Block3	incongruent/STIM_007.jpg	100
2431.526	0.519	519.0	incongruent	Block3	incongruent/STIM_007.jpg	99
2435.223	0.577	576.9	incongruent	Block3	incongruent/STIM_007.jpg	99
2438.497	0.979	979.4	incongruent	Block3	incongruent/STIM_007.jpg	100
2442.295	0.837	837.1	incongruent	Block3	incongruent/STIM_008.jpg	100
2445.845	1.128	1128.2	incongruent	Block3	incongruent/STIM_008.jpg	100
2450.016	0.833	832.7	incongruent	Block3	incongruent/STIM_008.jpg	99
2452.912	0.696	695.8	incongruent	Block3	incongruent/STIM_008.jpg	99
2457.485	1.134	1133.9	incongruent	Block3	incongruent/STIM_008.jpg	99
2461.507	0.672	672.2	incongruent	Block3	incongruent/STIM_009.jpg	100
2465.529	0.686	686.1	incongruent	Block3	incongruent/STIM_009.jpg	99
2468.377	0.897	896.8	incongruent	Block3	incongruent/STIM_009.jpg	100
2471.227	0.787	787.3	incongruent	Block3	incongruent/STIM_009.jpg	99
2475.395	1.129	1128.7	incongruent	Block3	incongruent/STIM_009.jpg	99
2479.597	1.046	1046.0	incongruent	Block3	incongruent/STIM_010.jpg	100
2483.263	0.975	974.6	incongruent	Block3	incongruent/STIM_010.jpg	99
2487.439	0.751	751.0	incongruent	Block3	incongruent/STIM_010.jpg	99
2491.658	0.991	990.8	incongruent	Block3	incongruent/STIM_010.jpg	100
2496.166	0.988	988.1	incongruent	Block3	incongruent/STIM_010.jpg	99
2500.577	1.119	1119.0	incongruent	Block3	incongruent/STIM_011.jpg	100
2505.174	1.061	1060.7	incongruent	Block3	incongruent/STIM_011.jpg	100
2508.47	0.854	853.5	incongruent	Block3	incongruent/STIM_011.jpg	100
2512.498	0.701	701.2	incongruent	Block3	incongruent/STIM_011.jpg	99
2515.869	1.096	1095.7	incongruent	Block3	incongruent/STIM_011.jpg	100
2519.692	1.036	1035.9	incongruent	Block3	incongruent/STIM_012.jpg	99
2524.291	0.551	551.1	incongruent	Block3	incongruent/STIM_012.jpg	100
2527.886	1.082	1081.5	incongruent	Block3	incongruent/STIM_012.jpg	100
2531.233	1.209	1209.1	incongruent	Block3	incongruent/STIM_012.jpg	99
2536.055	0.645	645.2	incongruent	Block3	incongruent/STIM_012.jpg	100
2539.168	0.884	883.7	incongruent	Block3	incongruent/STIM_013.jpg	99
2543.669	0.584	583.8	incongruent	Block3	incongruent/STIM_013.jpg	99
2547.937	1.026	1025.5	incongruent	Block3	incongruent/STIM_013.jpg	99
2551.424	0.596	596.4	incongruent	Block3	incongruent/STIM_013.jpg	100
2555.454	0.88	880.3	incongruent	Block3	incongruent/STIM_013.jpg	100
2558.301	0.562	561.8	incongruent	Block3	incongruent/STIM_014.jpg	100
2561.554	0.507	506.9	incongruent	Block3	incongruent/STIM_014.jpg	100
2564.262	1.087	1086.7	incongruent	Block3	incongruent/STIM_014.jpg	99
2568.635	1.013	1012.7	incongruent	Block3	incongruent/STIM_014.jpg	99
2571.642	0.713	713.3	incongruent	Block3	incongruent/STIM_014.jpg	100
2575.619	1.082	1081.7	incongruent	Block3	incongruent/STIM_015.jpg	99
2580.057	0.706	706.4	incongruent	Block3	incongruent/STIM_015.jpg	100
2583.781	0.575	575.1	incongruent	Block3	incongruent/STIM_015.jpg	99
2587.408	0.989	988.9	incongruent	Block3	incongruent/STIM_015.jpg	100
2592.249	0.877	877.4	incongruent	Block3	incongruent/STIM_015.jpg	99
2596.801	1.187	1187.3	incongruent	Block3	incongruent/STIM_016.jpg	99
2600.458	0.984	984.5	incongruent	Block3	incongruent/STIM_016.jpg	100
2604.604	1.062	1061.7	incongruent	Block3	incongruent/STIM_016.jpg	99
2609.363	0.721	721.2	incongruent	Block3	incongruent/STIM_016.jpg	100
2613.106	0.657	656.9	incongruent	Block3	incongruent/STIM_016.jpg	99
2617.542	0.663	663.3	incongruent	Block3	incongruent/STIM_017.jpg	100
2621.974	0.891	890.7	incongruent	Block3	incongruent/STIM_017.jpg	100
2626.606	0.866	866.2	incongruent	Block3	incongruent/STIM_017.jpg	99
2630.697	1.132	1132.0	incongruent	Block3	incongruent/STIM_017.jpg	99
2635.351	0.791	790.9	incongruent	Block3	incongruent/STIM_017.jpg	100
2639.411	1.164	1164.3	incongruent	Block3	incongruent/STIM_018.jpg	100
2643.653	0.718	717.9	incongruent	Block3	incongruent/STIM_018.jpg	100
2646.547	0.929	928.6	incongruent	Block3	incongruent/STIM_018.jpg	100
2649.804	0.658	658.1	incongruent	Block3	incongruent/STIM_018.jpg	99
2654.309	0.652	651.6	incongruent	Block3	incongruent/STIM_018.jpg	99
2657.272	0.801	801.2	incongruent	Block3	incongruent/STIM_019.jpg	100
2661.815	0.694	693.8	incongruent	Block3	incongruent/STIM_019.jpg	100
2664.69	1.205	1205.0	incongruent	Block3	incongruent/STIM_019.jpg	99
2668.828	0.687	686.8	incongruent	Block3	incongruent/STIM_019.jpg	99
2672.552	0.851	850.9	incongruent	Block3	incongruent/STIM_019.jpg	100
2676.497	0.554	553.9	incongruent	Block3	incongruent/STIM_020.jpg	99
2679.137	0.842	842.1	incongruent	Block3	incongruent/STIM_020.jpg	100
2682.137	0.597	597.1	incongruent	Block3	incongruent/STIM_020.jpg	99
2686.13	0.755	755.3	incongruent	Block3	incongruent/STIM_020.jpg	99
2690.281	0.984	983.8	incongruent	Block3	incongruent/STIM_020.jpg	99
2695.065	1.024	1024.0	incongruent	Block3	incongruent/STIM_021.jpg	100
2698.494	1.012	1012.3	incongruent	Block3	incongruent/STIM_021.jpg	99
2701.79	0.695	695.2	incongruent	Block3	incongruent/STIM_021.jpg	99
2705.018	0.482	482.0	incongruent	Block3	incongruent/STIM_021.jpg	99
2708.561	0.582	582.5	incongruent	Block3	incongruent/STIM_021.jpg	99
2711.269	0.73	730.0	incongruent	Block3	incongruent/STIM_022.jpg	100
2715.109	0.683	682.7	incongruent	Block3	incongruent/STIM_022.jpg	99
2718.097	1.006	1006.2	incongruent	Block3	incongruent/STIM_022.jpg	100
2722.804	1.114	1114.3	incongruent	Block3	incongruent/STIM_022.jpg	99
2726.621	1.117	1116.8	incongruent	Block3	incongruent/STIM_022.jpg	99
2731.268	1.107	1106.8	incongruent	Block3	incongruent/STIM_023.jpg	99
2735.4	0.747	746.6	incongruent	Block3	incongruent/STIM_023.jpg	100
2739.616	0.585	584.7	incongruent	Block3	incongruent/STIM_023.jpg	100
2743.481	1.183	1183.2	incongruent	Block3	incongruent/STIM_023.jpg	100
2747.681	0.933	933.4	incongruent	Block3	incongruent/STIM_023.jpg	100
2752.349	0.654	653.7	incongruent	Block3	incongruent/STIM_024.jpg	99
2755.825	0.594	593.6	incongruent	Block3	incongruent/STIM_024.jpg	100
2758.704	1.098	1098.0	incongruent	Block3	incongruent/STIM_024.jpg	99
2763.271	0.693	692.8	incongruent	Block3	incongruent/STIM_024.jpg	99
2765.907	1.099	1098.8	incongruent	Block3	incongruent/STIM_024.jpg	99
2769.114	1.002	1001.6	incongruent	Block3	incongruent/STIM_025.jpg	100
2772.167	0.87	870.5	incongruent	Block3	incongruent/STIM_025.jpg	100
2775.498	0.995	995.1	incongruent	Block3	incongruent/STIM_025.jpg	100
2780.207	1.151	1151.3	incongruent	Block3	incongruent/STIM_025.jpg	99
2784.925	0.907	907.3	incongruent	Block3	incongruent/STIM_025.jpg	99
2789.006	0.855	854.9	incongruent	Block3	incongruent/STIM_026.jpg	99
2793.353	0.523	522.7	incongruent	Block3	incongruent/STIM_026.jpg	100
2796.12	1.107	1107.4	incongruent	Block3	incongruent/STIM_026.jpg	100
2799.154	0.948	948.0	incongruent	Block3	incongruent/STIM_026.jpg	99
2802.559	0.999	999.2	incongruent	Block3	incongruent/STIM_026.jpg	100
2805.545	0.824	824.3	incongruent	Block3	incongruent/STIM_027.jpg	100
2808.44	0.872	871.5	incongruent	Block3	incongruent/STIM_027.jpg	100
2811.443	0.978	977.9	incongruent	Block3	incongruent/STIM_027.jpg	100
2815.341	0.582	581.8	incongruent	Block3	incongruent/STIM_027.jpg	100
2819.81	0.621	621.0	incongruent	Block3	incongruent/STIM_027.jpg	100
2824.203	0.657	657.0	incongruent	Block3	incongruent/STIM_028.jpg	100
2828.619	0.669	669.2	incongruent	Block3	incongruent/STIM_028.jpg	99
2831.771	0.862	862.1	incongruent	Block3	incongruent/STIM_028.jpg	99
2834.823	1.135	1135.0	incongruent	Block3	incongruent/STIM_028.jpg	100
2839.566	0.606	606.5	incongruent	Block3	incongruent/STIM_028.jpg	100
2843.636	0.615	615.2	incongruent	Block3	incongruent/STIM_029.jpg	100
2846.564	1.102	1102.1	incongruent	Block3	incongruent/STIM_029.jpg	99
2851.595	1.153	1153.4	incongruent	Block3	incongruent/STIM_029.jpg	99
2856.287	0.995	994.8	incongruent	Block3	incongruent/STIM_029.jpg	99
2859.521	0.453	452.8	incongruent	Block3	incongruent/STIM_029.jpg	99
2862.26	0.857	856.6	congruent	Block3	congruent/STIM_000.jpg	100
2866.184	0.8	800.3	congruent	Block3	congruent/STIM_000.jpg	99
2869.34	0.795	794.9	congruent	Block3	congruent/STIM_000.jpg	100
2873.756	0.829	829.0	congruent	Block3	congruent/STIM_000.jpg	100
2878.029	0.989	988.6	congruent	Block3	congruent/STIM_000.jpg	100
2881.195	0.536	535.6	congruent	Block3	congruent/STIM_001.jpg	100
2884.391	0.591	591.1	congruent	Block3	congruent/STIM_001.jpg	99
2887.875	0.784	783.9	congruent	Block3	congruent/STIM_001.jpg	100
2892.142	0.736	735.7	congruent	Block3	congruent/STIM_001.jpg	100
2896.108	0.804	804.0	congruent	Block3	congruent/STIM_001.jpg	99
2899.392	0.885	885.0	congruent	Block3	congruent/STIM_002.jpg	100
2904.176	0.678	678.2	congruent	Block3	congruent/STIM_002.jpg	99
2908.654	0.919	919.1	congruent	Block3	congruent/STIM_002.jpg	100
2912.708	0.799	799.3	congruent	Block3	congruent/STIM_002.jpg	99
2915.61	0.659	658.6	congruent	Block3	congruent/STIM_002.jpg	99
2919.259	0.577	576.6	congruent	Block3	congruent/STIM_003.jpg	100
2921.964	0.626	626.0	congruent	Block3	congruent/STIM_003.jpg	99
2924.633	0.85	849.9	congruent	Block3	congruent/STIM_003.jpg	99
2928.623	0.804	804.2	congruent	Block3	congruent/STIM_003.jpg	100
2933.348	0.633	633.4	congruent	Block3	congruent/STIM_003.jpg	100
2936.106	0.788	788.4	congruent	Block3	congruent/STIM_004.jpg	99
2940.337	0.776	775.7	congruent	Block3	congruent/STIM_004.jpg	100
2944.166	0.622	622.4	congruent	Block3	congruent/STIM_004.jpg	100
2947.206	0.941	941.4	congruent	Block3	congruent/STIM_004.jpg	99
2951.659	0.859	859.4	congruent	Block3	congruent/STIM_004.jpg	100
2955.863	0.712	711.7	congruent	Block3	congruent/STIM_005.jpg	99
2960.137	0.644	643.6	congruent	Block3	congruent/STIM_005.jpg	99
2963.082	0.71	710.3	congruent	Block3	congruent/STIM_005.jpg	100
2966.106	0.703	702.9	congruent	Block3	congruent/STIM_005.jpg	99
2969.488	1.097	1097.2	congruent	Block3	congruent/STIM_005.jpg	99
2973.522	0.761	761.0	congruent	Block3	congruent/STIM_006.jpg	99
2978.052	0.834	834.1	congruent	Block3	congruent/STIM_006.jpg	99
2980.914	0.773	772.6	congruent	Block3	congruent/STIM_006.jpg	100
2985.201	0.818	818.3	congruent	Block3	congruent/STIM_006.jpg	100
2988.455	0.558	557.9	congruent	Block3	congruent/STIM_006.jpg	100
2992.164	0.805	805.3	congruent	Block3	congruent/STIM_007.jpg	99
2996.391	0.668	668.3	congruent	Block3	congruent/STIM_007.jpg	100
2999.504	0.679	679.4	congruent	Block3	congruent/STIM_007.jpg	99
3003.878	0.927	926.9	congruent	Block3	congruent/STIM_007.jpg	99
3008.016	0.898	898.0	congruent	Block3	congruent/STIM_007.jpg	99
3012.443	0.735	734.6	congruent	Block3	congruent/STIM_008.jpg	100
3016.678	0.876	876.2	congruent	Block3	congruent/STIM_008.jpg	99
3020.436	0.792	791.6	congruent	Block3	congruent/STIM_008.jpg	100
3023.34	0.816	815.7	congruent	Block3	congruent/STIM_008.jpg	100
3027.633	0.964	964.5	congruent	Block3	congruent/STIM_008.jpg	100
3030.834	0.716	715.7	congruent	Block3	congruent/STIM_009.jpg	100
3034.93	0.694	694.3	congruent	Block3	congruent/STIM_009.jpg	100
3037.929	0.727	726.7	congruent	Block3	congruent/STIM_009.jpg	99
3041.888	0.671	671.2	congruent	Block3	congruent/STIM_009.jpg	99
3045.604	0.666	665.5	congruent	Block3	congruent/STIM_009.jpg	100
3048.829	0.725	724.7	congruent	Block3	congruent/STIM_010.jpg	99
3052.904	0.629	628.9	congruent	Block3	congruent/STIM_010.jpg	99
3057.419	0.533	532.6	congruent	Block3	congruent/STIM_010.jpg	100
3060.858	0.713	713.0	congruent	Block3	congruent/STIM_010.jpg	100
3065.119	0.852	852.1	congruent	Block3	congruent/STIM_010.jpg	100
3068.923	0.657	657.1	congruent	Block3	congruent/STIM_011.jpg	100
3072.463	0.658	657.6	congruent	Block3	congruent/STIM_011.jpg	99
3076.195	0.814	814.3	congruent	Block3	congruent/STIM_011.jpg	100
3080.556	0.912	911.9	congruent	Block3	congruent/STIM_011.jpg	99
3084.449	0.666	666.2	congruent	Block3	congruent/STIM_011.jpg	99
3087.641	0.616	616.0	congruent	Block3	congruent/STIM_012.jpg	100
3090.611	0.742	741.6	congruent	Block3	congruent/STIM_012.jpg	100
3093.82	0.616	615.7	congruent	Block3	congruent/STIM_012.jpg	99
3096.582	0.638	638.0	congruent	Block3	congruent/STIM_012.jpg	99
3099.863	0.795	794.7	congruent	Block3	congruent/STIM_012.jpg	99
3102.818	0.892	891.7	congruent	Block3	congruent/STIM_013.jpg	100
3106.091	0.587	587.0	congruent	Block3	congruent/STIM_013.jpg	99
3109.474	0.981	980.7	congruent	Block3	congruent/STIM_013.jpg	99
3113.268	0.642	642.0	congruent	Block3	congruent/STIM_013.jpg	100
3116.619	0.462	461.7	congruent	Block3	congruent/STIM_013.jpg	99
3119.881	1.022	1021.9	congruent	Block3	congruent/STIM_014.jpg	100
3123.248	0.601	601.2	congruent	Block3	congruent/STIM_014.jpg	100
3126.387	0.636	636.4	congruent	Block3	congruent/STIM_014.jpg	100
3130.669	0.876	875.6	congruent	Block3	congruent/STIM_014.jpg	100
3134.271	1.062	1061.7	congruent	Block3	congruent/STIM_014.jpg	100
3138.602	0.924	923.6	congruent	Block3	congruent/STIM_015.jpg	100
3143.056	0.722	721.9	congruent	Block3	congruent/STIM_015.jpg	100
3147.158	0.662	661.7	congruent	Block3	congruent/STIM_015.jpg	100
3150.478	0.885	884.9	congruent	Block3	congruent/STIM_015.jpg	99
3153.601	0.906	905.9	congruent	Block3	congruent/STIM_015.jpg	99
3158.098	0.731	730.7	congruent	Block3	congruent/STIM_016.jpg	100
3162.306	0.681	680.6	congruent	Block3	congruent/STIM_016.jpg	100
3166.034	0.502	502.2	congruent	Block3	congruent/STIM_016.jpg	100
3169.998	0.59	590.5	congruent	Block3	congruent/STIM_016.jpg	100
3173.686	0.836	835.6	congruent	Block3	congruent/STIM_016.jpg	100
3177.272	0.527	526.8	congruent	Block3	congruent/STIM_017.jpg	100
3181.569	0.627	626.9	congruent	Block3	congruent/STIM_017.jpg	99
3184.74	0.619	619.3	congruent	Block3	congruent/STIM_017.jpg	99
3188.328	0.988	988.5	congruent	Block3	congruent/STIM_017.jpg	100
3191.975	0.685	684.9	congruent	Block3	congruent/STIM_017.jpg	100
3195.785	0.587	587.4	congruent	Block3	congruent/STIM_018.jpg	100
3199.147	0.862	862.2	congruent	Block3	congruent/STIM_018.jpg	100
3202.976	0.587	586.6	congruent	Block3	congruent/STIM_018.jpg	99
3205.617	0.716	715.9	congruent	Block3	congruent/STIM_018.jpg	100
3210.02	0.858	857.9	congruent	Block3	congruent/STIM_018.jpg	100
3214.587	0.928	927.9	congruent	Block3	congruent/STIM_019.jpg	100
3218.59	0.954	953.7	congruent	Block3	congruent/STIM_019.jpg	100
3221.476	0.776	776.0	congruent	Block3	congruent/STIM_019.jpg	100
3225.577	0.769	769.0	congruent	Block3	congruent/STIM_019.jpg	99
3228.939	0.572	571.5	congruent	Block3	congruent/STIM_019.jpg	100
3231.716	0.838	838.4	congruent	Block3	congruent/STIM_020.jpg	100
3234.945	0.796	796.4	congruent	Block3	congruent/STIM_020.jpg	99
3237.983	0.827	826.8	congruent	Block3	congruent/STIM_020.jpg	100
3242.165	0.759	758.9	congruent	Block3	congruent/STIM_020.jpg	99
3244.877	0.599	599.3	congruent	Block3	congruent/STIM_020.jpg	99
3249.345	0.823	823.4	congruent	Block3	congruent/STIM_021.jpg	99
3253.224	0.788	788.2	congruent	Block3	congruent/STIM_021.jpg	99
3256.512	0.954	954.2	congruent	Block3	congruent/STIM_021.jpg	99
3261.265	0.529	528.9	congruent	Block3	congruent/STIM_021.jpg	100
3265.481	0.722	721.8	congruent	Block3	congruent/STIM_021.jpg	99
3269.38	0.622	622.0	congruent	Block3	congruent/STIM_022.jpg	100
3273.57	0.56	559.8	congruent	Block3	congruent/STIM_022.jpg	100
3277.171	0.856	856.4	congruent	Block3	congruent/STIM_022.jpg	100
3281.141	0.589	588.9	congruent	Block3	congruent/STIM_022.jpg	99
3285.613	0.613	612.7	congruent	Block3	congruent/STIM_022.jpg	99
3289.824	0.854	854.2	congruent	Block3	congruent/STIM_023.jpg	100
3294.4	0.876	875.6	congruent	Block3	congruent/STIM_023.jpg	99
3297.394	0.852	852.1	congruent	Block3	congruent/STIM_023.jpg	99
3300.936	0.983	982.6	congruent	Block3	congruent/STIM_023.jpg	100
3304.239	0.682	681.9	congruent	Block3	congruent/STIM_023.jpg	99
3307.413	0.804	804.5	congruent	Block3	congruent/STIM_024.jpg	99
3311.12	0.767	766.7	congruent	Block3	congruent/STIM_024.jpg	99
3314.833	0.847	847.3	congruent	Block3	congruent/STIM_024.jpg	99
3319.257	0.861	860.8	congruent	Block3	congruent/STIM_024.jpg	100
3322.077	0.738	738.3	congruent	Block3	congruent/STIM_024.jpg	100
3324.765	0.861	861.4	congruent	Block3	congruent/STIM_025.jpg	99
3328.685	0.717	717.4	congruent	Block3	congruent/STIM_025.jpg	99
3332.638	0.714	714.2	congruent	Block3	congruent/STIM_025.jpg	99
3336.726	0.548	547.6	congruent	Block3	congruent/STIM_025.jpg	100
3340.983	0.869	869.2	congruent	Block3	congruent/STIM_025.jpg	100
3345.694	0.595	595.3	congruent	Block3	congruent/STIM_026.jpg	100
3348.463	0.848	848.5	congruent	Block3	congruent/STIM_026.jpg	100
3351.406	0.541	541.2	congruent	Block3	congruent/STIM_026.jpg	99
3355.367	0.896	896.2	congruent	Block3	congruent/STIM_026.jpg	99
3358.463	0.634	633.7	congruent	Block3	congruent/STIM_026.jpg	100
3363.057	0.608	607.9	congruent	Block3	congruent/STIM_027.jpg	99
3366.372	0.572	572.4	congruent	Block3	congruent/STIM_027.jpg	100
3369.8	0.971	970.6	congruent	Block3	congruent/STIM_027.jpg	99
3374.067	0.553	552.8	congruent	Block3	congruent/STIM_027.jpg	99
3377.697	0.989	989.3	congruent	Block3	congruent/STIM_027.jpg	100
3380.756	0.682	681.6	congruent	Block3	congruent/STIM_028.jpg	100
3384.795	0.733	732.6	congruent	Block3	congruent/STIM_028.jpg	99
3388.337	0.796	796.1	congruent	Block3	congruent/STIM_028.jpg	99
3391.837	1.038	1038.5	congruent	Block3	congruent/STIM_028.jpg	99
3395.658	0.989	988.8	congruent	Block3	congruent/STIM_028.jpg	99
3398.83	0.682	682.0	congruent	Block3	congruent/STIM_029.jpg	100
3403.199	1.001	1001.1	congruent	Block3	congruent/STIM_029.jpg	100
3406.762	0.64	640.2	congruent	Block3	congruent/STIM_029.jpg	99
3409.636	0.869	869.4	congruent	Block3	congruent/STIM_029.jpg	100
3413.726	0.795	794.8	congruent	Block3	congruent/STIM_029.jpg	99
