onset	duration	accuracy_binary	trial_type	learning_stage	stimulus
0.0	1.075	0	incongruent	Block1	incongruent/STIM_000.jpg
3.823	1.198	1	incongruent	Block1	incongruent/STIM_000.jpg
7.833	0.746	1	incongruent	Block1	incongruent/STIM_000.jpg
11.167	0.907	1	incongruent	Block1	incongruent/STIM_000.jpg
15.659	0.928	1	incongruent	Block1	incongruent/STIM_000.jpg
20.358	0.811	1	incongruent	Block1	incongruent/STIM_001.jpg
23.984	1.111	1	incongruent	Block1	incongruent/STIM_001.jpg
27.909	0.83	1	incongruent	Block1	incongruent/STIM_001.jpg
31.896	1.328	0	incongruent	Block1	incongruent/STIM_001.jpg
36.423	0.752	1	incongruent	Block1	incongruent/STIM_001.jpg
40.38	1.394	1	incongruent	Block1	incongruent/STIM_002.jpg
45.156	1.013	1	incongruent	Block1	incongruent/STIM_002.jpg
48.984	0.998	1	incongruent	Block1	incongruent/STIM_002.jpg
52.107	1.269	1	incongruent	Block1	incongruent/STIM_002.jpg
57.056	0.872	1	incongruent	Block1	incongruent/STIM_002.jpg
60.674	0.94	1	incongruent	Block1	incongruent/STIM_003.jpg
63.757	1.055	1	incongruent	Block1	incongruent/STIM_003.jpg
67.978	1.44	1	incongruent	Block1	incongruent/STIM_003.jpg
71.598	0.934	1	incongruent	Block1	incongruent/STIM_003.jpg
74.993	0.794	1	incongruent	Block1	incongruent/STIM_003.jpg
79.585	1.023	1	incongruent	Block1	incongruent/STIM_004.jpg
83.766	0.824	1	incongruent	Block1	incongruent/STIM_004.jpg
88.527	0.749	1	incongruent	Block1	incongruent/STIM_004.jpg
92.277	0.868	1	incongruent	Block1	incongruent/STIM_004.jpg
95.51	1.063	1	incongruent	Block1	incongruent/STIM_004.jpg
98.661	1.402	1	incongruent	Block1	incongruent/STIM_005.jpg
102.649	0.895	1	incongruent	Block1	incongruent/STIM_005.jpg
106.061	0.856	1	incongruent	Block1	incongruent/STIM_005.jpg
109.921	0.675	1	incongruent	Block1	incongruent/STIM_005.jpg
112.927	0.771	1	incongruent	Block1	incongruent/STIM_005.jpg
117.049	1.06	1	incongruent	Block1	incongruent/STIM_006.jpg
121.876	1.582	1	incongruent	Block1	incongruent/STIM_006.jpg
126.954	1.329	0	incongruent	Block1	incongruent/STIM_006.jpg
131.537	1.411	1	incongruent	Block1	incongruent/STIM_006.jpg
134.909	1.319	1	incongruent	Block1	incongruent/STIM_006.jpg
138.212	0.814	1	incongruent	Block1	incongruent/STIM_007.jpg
141.22	1.336	1	incongruent	Block1	incongruent/STIM_007.jpg
145.999	1.235	1	incongruent	Block1	incongruent/STIM_007.jpg
149.502	1.35	1	incongruent	Block1	incongruent/STIM_007.jpg
153.565	0.826	1	incongruent	Block1	incongruent/STIM_007.jpg
157.523	1.366	1	incongruent	Block1	incongruent/STIM_008.jpg
162.337	1.597	1	incongruent	Block1	incongruent/STIM_008.jpg
167.625	1.007	1	incongruent	Block1	incongruent/STIM_008.jpg
171.377	0.733	1	incongruent	Block1	incongruent/STIM_008.jpg
175.661	1.0	1	incongruent	Block1	incongruent/STIM_008.jpg
179.693	0.905	1	incongruent	Block1	incongruent/STIM_009.jpg
183.52	0.998	1	incongruent	Block1	incongruent/STIM_009.jpg
188.078	1.46	1	incongruent	Block1	incongruent/STIM_009.jpg
191.442	1.378	1	incongruent	Block1	incongruent/STIM_009.jpg
195.193	1.0	1	incongruent	Block1	incongruent/STIM_009.jpg
198.337	1.241	1	incongruent	Block1	incongruent/STIM_010.jpg
202.555	0.957	1	incongruent	Block1	incongruent/STIM_010.jpg
207.199	1.186	0	incongruent	Block1	incongruent/STIM_010.jpg
210.549	1.121	1	incongruent	Block1	incongruent/STIM_010.jpg
214.306	0.663	0	incongruent	Block1	incongruent/STIM_010.jpg
217.675	1.46	1	incongruent	Block1	incongruent/STIM_011.jpg
221.33	1.544	1	incongruent	Block1	incongruent/STIM_011.jpg
224.854	0.95	1	incongruent	Block1	incongruent/STIM_011.jpg
228.131	1.3	1	incongruent	Block1	incongruent/STIM_011.jpg
232.297	0.804	1	incongruent	Block1	incongruent/STIM_011.jpg
236.295	1.578	1	incongruent	Block1	incongruent/STIM_012.jpg
241.268	1.62	0	incongruent	Block1	incongruent/STIM_012.jpg
246.268	0.775	1	incongruent	Block1	incongruent/STIM_012.jpg
250.55	1.384	1	incongruent	Block1	incongruent/STIM_012.jpg
255.66	1.126	1	incongruent	Block1	incongruent/STIM_012.jpg
258.961	1.444	1	incongruent	Block1	incongruent/STIM_013.jpg
263.784	0.875	0	incongruent	Block1	incongruent/STIM_013.jpg
268.243	1.238	1	incongruent	Block1	incongruent/STIM_013.jpg
271.569	0.656	1	incongruent	Block1	incongruent/STIM_013.jpg
274.832	1.398	1	incongruent	Block1	incongruent/STIM_013.jpg
278.822	1.445	1	incongruent	Block1	incongruent/STIM_014.jpg
283.087	1.492	1	incongruent	Block1	incongruent/STIM_014.jpg
287.134	1.024	1	incongruent	Block1	incongruent/STIM_014.jpg
290.072	1.397	1	incongruent	Block1	incongruent/STIM_014.jpg
293.897	0.712	1	incongruent	Block1	incongruent/STIM_014.jpg
297.584	1.417	0	incongruent	Block1	incongruent/STIM_015.jpg
302.115	1.154	1	incongruent	Block1	incongruent/STIM_015.jpg
306.727	1.376	1	incongruent	Block1	incongruent/STIM_015.jpg
310.944	1.267	0	incongruent	Block1	incongruent/STIM_015.jpg
315.487	0.822	1	incongruent	Block1	incongruent/STIM_015.jpg
319.993	1.446	1	incongruent	Block1	incongruent/STIM_016.jpg
323.85	0.818	1	incongruent	Block1	incongruent/STIM_016.jpg
328.204	1.284	1	incongruent	Block1	incongruent/STIM_016.jpg
333.088	1.239	1	incongruent	Block1	incongruent/STIM_016.jpg
336.805	0.658	1	incongruent	Block1	incongruent/STIM_016.jpg
339.635	1.304	1	incongruent	Block1	incongruent/STIM_017.jpg
344.241	0.783	1	incongruent	Block1	incongruent/STIM_017.jpg
348.601	0.726	1	incongruent	Block1	incongruent/STIM_017.jpg
353.018	0.665	1	incongruent	Block1	incongruent/STIM_017.jpg
357.525	1.108	1	incongruent	Block1	incongruent/STIM_017.jpg
362.091	1.431	1	incongruent	Block1	incongruent/STIM_018.jpg
365.588	1.462	1	incongruent	Block1	incongruent/STIM_018.jpg
369.439	1.285	1	incongruent	Block1	incongruent/STIM_018.jpg
374.139	1.338	1	incongruent	Block1	incongruent/STIM_018.jpg
377.333	0.747	1	incongruent	Block1	incongruent/STIM_018.jpg
380.023	0.895	1	incongruent	Block1	incongruent/STIM_019.jpg
384.254	1.007	1	incongruent	Block1	incongruent/STIM_019.jpg
387.28	0.828	1	incongruent	Block1	incongruent/STIM_019.jpg
391.711	0.722	1	incongruent	Block1	incongruent/STIM_019.jpg
395.639	1.069	1	incongruent	Block1	incongruent/STIM_019.jpg
398.774	1.273	1	incongruent	Block1	incongruent/STIM_020.jpg
403.616	1.217	1	incongruent	Block1	incongruent/STIM_020.jpg
407.665	0.832	1	incongruent	Block1	incongruent/STIM_020.jpg
411.936	1.309	1	incongruent	Block1	incongruent/STIM_020.jpg
416.971	1.122	1	incongruent	Block1	incongruent/STIM_020.jpg
421.955	1.661	1	incongruent	Block1	incongruent/STIM_021.jpg
426.989	1.402	1	incongruent	Block1	incongruent/STIM_021.jpg
431.892	1.434	0	incongruent	Block1	incongruent/STIM_021.jpg
435.438	1.309	1	incongruent	Block1	incongruent/STIM_021.jpg
439.585	1.079	0	incongruent	Block1	incongruent/STIM_021.jpg
443.026	1.535	1	incongruent	Block1	incongruent/STIM_022.jpg
447.352	1.156	1	incongruent	Block1	incongruent/STIM_022.jpg
450.812	1.008	1	incongruent	Block1	incongruent/STIM_022.jpg
454.227	1.307	1	incongruent	Block1	incongruent/STIM_022.jpg
457.861	0.615	0	incongruent	Block1	incongruent/STIM_022.jpg
462.026	0.916	1	incongruent	Block1	incongruent/STIM_023.jpg
466.766	0.73	1	incongruent	Block1	incongruent/STIM_023.jpg
470.594	0.936	0	incongruent	Block1	incongruent/STIM_023.jpg
474.702	0.762	1	incongruent	Block1	incongruent/STIM_023.jpg
479.243	1.324	1	incongruent	Block1	incongruent/STIM_023.jpg
483.326	1.255	1	incongruent	Block1	incongruent/STIM_024.jpg
486.889	1.454	0	incongruent	Block1	incongruent/STIM_024.jpg
490.702	0.816	1	incongruent	Block1	incongruent/STIM_024.jpg
494.468	1.113	1	incongruent	Block1	incongruent/STIM_024.jpg
498.263	1.218	1	incongruent	Block1	incongruent/STIM_024.jpg
502.32	1.513	1	incongruent	Block1	incongruent/STIM_025.jpg
505.945	0.878	1	incongruent	Block1	incongruent/STIM_025.jpg
509.174	1.13	1	incongruent	Block1	incongruent/STIM_025.jpg
512.391	1.327	1	incongruent	Block1	incongruent/STIM_025.jpg
516.857	0.939	1	incongruent	Block1	incongruent/STIM_025.jpg
521.035	1.6	1	incongruent	Block1	incongruent/STIM_026.jpg
524.747	1.057	1	incongruent	Block1	incongruent/STIM_026.jpg
527.907	0.991	1	incongruent	Block1	incongruent/STIM_026.jpg
531.774	0.932	1	incongruent	Block1	incongruent/STIM_026.jpg
535.097	0.971	1	incongruent	Block1	incongruent/STIM_026.jpg
539.302	1.296	1	incongruent	Block1	incongruent/STIM_027.jpg
543.101	1.622	1	incongruent	Block1	incongruent/STIM_027.jpg
547.732	1.083	1	incongruent	Block1	incongruent/STIM_027.jpg
550.801	0.85	1	incongruent	Block1	incongruent/STIM_027.jpg
554.438	0.814	1	incongruent	Block1	incongruent/STIM_027.jpg
557.33	1.353	1	incongruent	Block1	incongruent/STIM_028.jpg
560.941	0.802	1	incongruent	Block1	incongruent/STIM_028.jpg
565.046	0.969	1	incongruent	Block1	incongruent/STIM_028.jpg
569.356	0.768	1	incongruent	Block1	incongruent/STIM_028.jpg
572.156	0.746	1	incongruent	Block1	incongruent/STIM_028.jpg
574.962	1.045	0	incongruent	Block1	incongruent/STIM_029.jpg
578.021	0.972	1	incongruent	Block1	incongruent/STIM_029.jpg
581.447	0.996	0	incongruent	Block1	incongruent/STIM_029.jpg
586.0	0.878	1	incongruent	Block1	incongruent/STIM_029.jpg
590.427	0.999	1	incongruent	Block1	incongruent/STIM_029.jpg
594.334	0.856	1	congruent	Block1	congruent/STIM_000.jpg
597.576	0.838	1	congruent	Block1	congruent/STIM_000.jpg
600.77	0.959	1	congruent	Block1	congruent/STIM_000.jpg
604.621	0.828	1	congruent	Block1	congruent/STIM_000.jpg
608.851	0.849	1	congruent	Block1	congruent/STIM_000.jpg
611.647	0.72	1	congruent	Block1	congruent/STIM_001.jpg
615.295	0.769	1	congruent	Block1	congruent/STIM_001.jpg
618.055	0.84	1	congruent	Block1	congruent/STIM_001.jpg
621.718	0.875	1	congruent	Block1	congruent/STIM_001.jpg
625.822	0.869	1	congruent	Block1	congruent/STIM_001.jpg
630.576	0.573	1	congruent	Block1	congruent/STIM_002.jpg
633.31	0.774	1	congruent	Block1	congruent/STIM_002.jpg
637.768	0.864	1	congruent	Block1	congruent/STIM_002.jpg
641.939	1.059	1	congruent	Block1	congruent/STIM_002.jpg
646.738	0.993	1	congruent	Block1	congruent/STIM_002.jpg
651.31	0.826	1	congruent	Block1	congruent/STIM_003.jpg
654.837	0.804	1	congruent	Block1	congruent/STIM_003.jpg
659.41	0.823	1	congruent	Block1	congruent/STIM_003.jpg
662.423	0.784	1	congruent	Block1	congruent/STIM_003.jpg
666.218	0.782	1	congruent	Block1	congruent/STIM_003.jpg
670.792	0.977	1	congruent	Block1	congruent/STIM_004.jpg
674.492	0.998	1	congruent	Block1	congruent/STIM_004.jpg
678.125	0.933	1	congruent	Block1	congruent/STIM_004.jpg
681.261	0.606	1	congruent	Block1	congruent/STIM_004.jpg
684.267	0.655	1	congruent	Block1	congruent/STIM_004.jpg
688.537	1.046	1	congruent	Block1	congruent/STIM_005.jpg
692.396	0.606	0	congruent	Block1	congruent/STIM_005.jpg
696.545	0.618	1	congruent	Block1	congruent/STIM_005.jpg
700.109	0.608	1	congruent	Block1	congruent/STIM_005.jpg
702.737	0.697	1	congruent	Block1	congruent/STIM_005.jpg
706.002	0.922	1	congruent	Block1	congruent/STIM_006.jpg
710.452	0.806	1	congruent	Block1	congruent/STIM_006.jpg
714.588	0.897	1	congruent	Block1	congruent/STIM_006.jpg
717.878	0.845	0	congruent	Block1	congruent/STIM_006.jpg
721.921	0.81	1	congruent	Block1	congruent/STIM_006.jpg
726.054	0.624	1	congruent	Block1	congruent/STIM_007.jpg
730.646	0.963	1	congruent	Block1	congruent/STIM_007.jpg
735.362	0.603	1	congruent	Block1	congruent/STIM_007.jpg
739.214	0.658	0	congruent	Block1	congruent/STIM_007.jpg
743.107	0.558	1	congruent	Block1	congruent/STIM_007.jpg
746.207	0.824	1	congruent	Block1	congruent/STIM_008.jpg
750.312	1.004	1	congruent	Block1	congruent/STIM_008.jpg
754.018	0.744	1	congruent	Block1	congruent/STIM_008.jpg
757.248	0.595	0	congruent	Block1	congruent/STIM_008.jpg
761.233	0.829	1	congruent	Block1	congruent/STIM_008.jpg
764.365	0.944	1	congruent	Block1	congruent/STIM_009.jpg
768.46	0.642	1	congruent	Block1	congruent/STIM_009.jpg
772.256	0.812	1	congruent	Block1	congruent/STIM_009.jpg
775.932	0.495	1	congruent	Block1	congruent/STIM_009.jpg
779.397	0.949	1	congruent	Block1	congruent/STIM_009.jpg
783.905	0.812	1	congruent	Block1	congruent/STIM_010.jpg
788.11	0.604	1	congruent	Block1	congruent/STIM_010.jpg
790.862	0.964	1	congruent	Block1	congruent/STIM_010.jpg
795.438	0.884	1	congruent	Block1	congruent/STIM_010.jpg
799.417	0.578	0	congruent	Block1	congruent/STIM_010.jpg
801.984	0.766	1	congruent	Block1	congruent/STIM_011.jpg
805.556	0.66	1	congruent	Block1	congruent/STIM_011.jpg
808.93	0.612	1	congruent	Block1	congruent/STIM_011.jpg
811.473	0.921	1	congruent	Block1	congruent/STIM_011.jpg
815.599	0.895	1	congruent	Block1	congruent/STIM_011.jpg
819.787	0.882	1	congruent	Block1	congruent/STIM_012.jpg
823.374	0.771	1	congruent	Block1	congruent/STIM_012.jpg
826.869	0.81	1	congruent	Block1	congruent/STIM_012.jpg
831.348	0.975	1	congruent	Block1	congruent/STIM_012.jpg
834.625	0.944	1	congruent	Block1	congruent/STIM_012.jpg
838.885	0.658	1	congruent	Block1	congruent/STIM_013.jpg
842.521	0.705	0	congruent	Block1	congruent/STIM_013.jpg
845.518	0.696	1	congruent	Block1	congruent/STIM_013.jpg
849.724	0.582	1	congruent	Block1	congruent/STIM_013.jpg
852.831	0.684	1	congruent	Block1	congruent/STIM_013.jpg
857.394	0.908	1	congruent	Block1	congruent/STIM_014.jpg
861.83	0.819	1	congruent	Block1	congruent/STIM_014.jpg
866.343	0.896	1	congruent	Block1	congruent/STIM_014.jpg
869.554	0.636	1	congruent	Block1	congruent/STIM_014.jpg
874.058	0.669	1	congruent	Block1	congruent/STIM_014.jpg
877.525	0.592	1	congruent	Block1	congruent/STIM_015.jpg
880.227	0.888	1	congruent	Block1	congruent/STIM_015.jpg
883.568	0.627	1	congruent	Block1	congruent/STIM_015.jpg
887.244	0.602	1	congruent	Block1	congruent/STIM_015.jpg
890.007	0.625	1	congruent	Block1	congruent/STIM_015.jpg
894.345	0.837	1	congruent	Block1	congruent/STIM_016.jpg
898.63	0.697	1	congruent	Block1	congruent/STIM_016.jpg
902.929	0.95	1	congruent	Block1	congruent/STIM_016.jpg
907.348	0.804	0	congruent	Block1	congruent/STIM_016.jpg
910.852	0.866	1	congruent	Block1	congruent/STIM_016.jpg
915.165	0.596	1	congruent	Block1	congruent/STIM_017.jpg
918.578	0.712	1	congruent	Block1	congruent/STIM_017.jpg
921.577	0.808	1	congruent	Block1	congruent/STIM_017.jpg
925.497	0.672	1	congruent	Block1	congruent/STIM_017.jpg
929.002	0.745	1	congruent	Block1	congruent/STIM_017.jpg
932.908	0.587	0	congruent	Block1	congruent/STIM_018.jpg
936.814	0.668	1	congruent	Block1	congruent/STIM_018.jpg
941.256	0.858	1	congruent	Block1	congruent/STIM_018.jpg
945.196	0.974	1	congruent	Block1	congruent/STIM_018.jpg
949.956	0.612	1	congruent	Block1	congruent/STIM_018.jpg
953.808	0.678	1	congruent	Block1	congruent/STIM_019.jpg
958.278	0.685	1	congruent	Block1	congruent/STIM_019.jpg
962.472	0.819	1	congruent	Block1	congruent/STIM_019.jpg
966.261	0.825	1	congruent	Block1	congruent/STIM_019.jpg
970.489	0.584	1	congruent	Block1	congruent/STIM_019.jpg
973.617	0.569	1	congruent	Block1	congruent/STIM_020.jpg
978.002	0.786	1	congruent	Block1	congruent/STIM_020.jpg
981.962	0.591	1	congruent	Block1	congruent/STIM_020.jpg
986.516	0.62	1	congruent	Block1	congruent/STIM_020.jpg
990.985	0.919	1	congruent	Block1	congruent/STIM_020.jpg
993.835	0.706	1	congruent	Block1	congruent/STIM_021.jpg
997.596	0.64	1	congruent	Block1	congruent/STIM_021.jpg
1000.894	0.726	1	congruent	Block1	congruent/STIM_021.jpg
1004.811	0.917	1	congruent	Block1	congruent/STIM_021.jpg
1008.055	0.743	1	congruent	Block1	congruent/STIM_021.jpg
1012.104	0.836	1	congruent	Block1	congruent/STIM_022.jpg
1015.829	0.836	1	congruent	Block1	congruent/STIM_022.jpg
1018.735	0.83	1	congruent	Block1	congruent/STIM_022.jpg
1022.99	0.664	1	congruent	Block1	congruent/STIM_022.jpg
1026.931	0.496	1	congruent	Block1	congruent/STIM_022.jpg
1030.198	0.629	1	congruent	Block1	congruent/STIM_023.jpg
1034.525	0.958	1	congruent	Block1	congruent/STIM_023.jpg
1037.746	0.77	1	congruent	Block1	congruent/STIM_023.jpg
1042.072	0.665	1	congruent	Block1	congruent/STIM_023.jpg
1046.27	0.931	1	congruent	Block1	congruent/STIM_023.jpg
1049.865	0.943	1	congruent	Block1	congruent/STIM_024.jpg
1053.78	0.78	1	congruent	Block1	congruent/STIM_024.jpg
1056.989	0.959	1	congruent	Block1	congruent/STIM_024.jpg
1061.196	0.836	1	congruent	Block1	congruent/STIM_024.jpg
1065.408	0.611	1	congruent	Block1	congruent/STIM_024.jpg
1069.77	0.871	1	congruent	Block1	congruent/STIM_025.jpg
1073.265	0.754	0	congruent	Block1	congruent/STIM_025.jpg
1076.276	0.659	0	congruent	Block1	congruent/STIM_025.jpg
1079.657	0.803	1	congruent	Block1	congruent/STIM_025.jpg
1082.573	0.816	1	congruent	Block1	congruent/STIM_025.jpg
1086.89	0.75	1	congruent	Block1	congruent/STIM_026.jpg
1091.21	0.921	1	congruent	Block1	congruent/STIM_026.jpg
1095.161	0.731	1	congruent	Block1	congruent/STIM_026.jpg
1097.89	0.96	1	congruent	Block1	congruent/STIM_026.jpg
1101.495	0.938	1	congruent	Block1	congruent/STIM_026.jpg
1105.192	0.924	1	congruent	Block1	congruent/STIM_027.jpg
1109.708	0.784	1	congruent	Block1	congruent/STIM_027.jpg
1113.307	0.882	1	congruent	Block1	congruent/STIM_027.jpg
1117.669	0.948	1	congruent	Block1	congruent/STIM_027.jpg
1120.688	0.769	1	congruent	Block1	congruent/STIM_027.jpg
1124.205	0.885	0	congruent	Block1	congruent/STIM_028.jpg
1127.465	1.073	1	congruent	Block1	congruent/STIM_028.jpg
1130.533	0.746	1	congruent	Block1	congruent/STIM_028.jpg
1134.109	0.687	1	congruent	Block1	congruent/STIM_028.jpg
1138.696	0.796	0	congruent	Block1	congruent/STIM_028.jpg
1143.009	0.566	1	congruent	Block1	congruent/STIM_029.jpg
1147.244	0.756	1	congruent	Block1	congruent/STIM_029.jpg
1150.188	0.612	1	congruent	Block1	congruent/STIM_029.jpg
1154.593	0.796	1	congruent	Block1	congruent/STIM_029.jpg
1157.51	0.864	1	congruent	Block1	congruent/STIM_029.jpg
1161.118	1.059	1	incongruent	Block2	incongruent/STIM_000.jpg
1165.566	0.906	0	incongruent	Block2	incongruent/STIM_000.jpg
1169.107	0.844	1	incongruent	Block2	incongruent/STIM_000.jpg
1173.879	1.159	1	incongruent	Block2	incongruent/STIM_000.jpg
1178.63	0.865	1	incongruent	Block2	incongruent/STIM_000.jpg
1181.78	1.278	1	incongruent	Block2	incongruent/STIM_001.jpg
1185.073	1.06	1	incongruent	Block2	incongruent/STIM_001.jpg
1188.862	0.889	1	incongruent	Block2	incongruent/STIM_001.jpg
1192.738	1.124	1	incongruent	Block2	incongruent/STIM_001.jpg
1195.829	0.717	1	incongruent	Block2	incongruent/STIM_001.jpg
1199.902	0.848	1	incongruent	Block2	incongruent/STIM_002.jpg
1202.736	0.653	1	incongruent	Block2	incongruent/STIM_002.jpg
1205.968	1.231	1	incongruent	Block2	incongruent/STIM_002.jpg
1209.269	0.797	1	incongruent	Block2	incongruent/STIM_002.jpg
1213.856	1.105	1	incongruent	Block2	incongruent/STIM_002.jpg
1217.991	0.954	1	incongruent	Block2	incongruent/STIM_003.jpg
1222.554	0.987	1	incongruent	Block2	incongruent/STIM_003.jpg
1226.26	0.718	1	incongruent	Block2	incongruent/STIM_003.jpg
1230.335	0.951	1	incongruent	Block2	incongruent/STIM_003.jpg
1233.806	0.596	1	incongruent	Block2	incongruent/STIM_003.jpg
1237.076	1.274	1	incongruent	Block2	incongruent/STIM_004.jpg
1241.973	0.79	1	incongruent	Block2	incongruent/STIM_004.jpg
1245.823	1.142	1	incongruent	Block2	incongruent/STIM_004.jpg
1249.945	1.02	1	incongruent	Block2	incongruent/STIM_004.jpg
1254.228	0.862	1	incongruent	Block2	incongruent/STIM_004.jpg
1257.293	1.169	1	incongruent	Block2	incongruent/STIM_005.jpg
1260.561	1.184	1	incongruent	Block2	incongruent/STIM_005.jpg
1265.515	0.725	1	incongruent	Block2	incongruent/STIM_005.jpg
1269.943	1.064	1	incongruent	Block2	incongruent/STIM_005.jpg
1273.503	0.665	1	incongruent	Block2	incongruent/STIM_005.jpg
1276.217	0.671	1	incongruent	Block2	incongruent/STIM_006.jpg
1280.756	0.981	1	incongruent	Block2	incongruent/STIM_006.jpg
1285.224	1.058	1	incongruent	Block2	incongruent/STIM_006.jpg
1288.904	0.927	1	incongruent	Block2	incongruent/STIM_006.jpg
1292.422	1.049	1	incongruent	Block2	incongruent/STIM_006.jpg
1296.358	0.878	1	incongruent	Block2	incongruent/STIM_007.jpg
1300.586	0.69	1	incongruent	Block2	incongruent/STIM_007.jpg
1304.479	0.88	1	incongruent	Block2	incongruent/STIM_007.jpg
1308.532	0.807	1	incongruent	Block2	incongruent/STIM_007.jpg
1311.811	0.716	1	incongruent	Block2	incongruent/STIM_007.jpg
1315.656	0.745	1	incongruent	Block2	incongruent/STIM_008.jpg
1319.295	1.076	1	incongruent	Block2	incongruent/STIM_008.jpg
1323.324	1.148	1	incongruent	Block2	incongruent/STIM_008.jpg
1327.039	0.591	1	incongruent	Block2	incongruent/STIM_008.jpg
1331.233	0.94	1	incongruent	Block2	incongruent/STIM_008.jpg
1335.459	1.003	1	incongruent	Block2	incongruent/STIM_009.jpg
1340.1	0.965	1	incongruent	Block2	incongruent/STIM_009.jpg
1344.667	1.075	1	incongruent	Block2	incongruent/STIM_009.jpg
1348.304	0.832	1	incongruent	Block2	incongruent/STIM_009.jpg
1352.644	0.648	1	incongruent	Block2	incongruent/STIM_009.jpg
1356.565	0.953	1	incongruent	Block2	incongruent/STIM_010.jpg
1360.593	0.816	1	incongruent	Block2	incongruent/STIM_010.jpg
1363.934	0.722	1	incongruent	Block2	incongruent/STIM_010.jpg
1367.888	0.928	1	incongruent	Block2	incongruent/STIM_010.jpg
1372.222	1.088	1	incongruent	Block2	incongruent/STIM_010.jpg
1376.797	0.999	1	incongruent	Block2	incongruent/STIM_011.jpg
1381.317	1.316	1	incongruent	Block2	incongruent/STIM_011.jpg
1386.007	1.043	1	incongruent	Block2	incongruent/STIM_011.jpg
1389.54	1.126	1	incongruent	Block2	incongruent/STIM_011.jpg
1392.633	1.049	1	incongruent	Block2	incongruent/STIM_011.jpg
1395.969	1.159	1	incongruent	Block2	incongruent/STIM_012.jpg
1400.025	0.73	1	incongruent	Block2	incongruent/STIM_012.jpg
1403.021	1.049	1	incongruent	Block2	incongruent/STIM_012.jpg
1406.693	1.094	1	incongruent	Block2	incongruent/STIM_012.jpg
1410.616	0.596	1	incongruent	Block2	incongruent/STIM_012.jpg
1414.425	1.302	1	incongruent	Block2	incongruent/STIM_013.jpg
1417.603	0.765	1	incongruent	Block2	incongruent/STIM_013.jpg
1421.809	0.61	1	incongruent	Block2	incongruent/STIM_013.jpg
1425.53	0.854	1	incongruent	Block2	incongruent/STIM_013.jpg
1428.847	0.972	1	incongruent	Block2	incongruent/STIM_013.jpg
1433.237	0.957	1	incongruent	Block2	incongruent/STIM_014.jpg
1437.108	1.342	1	incongruent	Block2	incongruent/STIM_014.jpg
1440.596	1.008	1	incongruent	Block2	incongruent/STIM_014.jpg
1443.477	1.15	1	incongruent	Block2	incongruent/STIM_014.jpg
1448.25	0.775	1	incongruent	Block2	incongruent/STIM_014.jpg
1452.78	0.962	1	incongruent	Block2	incongruent/STIM_015.jpg
1455.732	0.651	1	incongruent	Block2	incongruent/STIM_015.jpg
1459.064	0.621	1	incongruent	Block2	incongruent/STIM_015.jpg
1462.129	0.928	1	incongruent	Block2	incongruent/STIM_015.jpg
1466.235	0.776	1	incongruent	Block2	incongruent/STIM_015.jpg
1470.686	0.721	1	incongruent	Block2	incongruent/STIM_016.jpg
1474.566	0.952	1	incongruent	Block2	incongruent/STIM_016.jpg
1478.762	1.16	1	incongruent	Block2	incongruent/STIM_016.jpg
1483.385	0.939	1	incongruent	Block2	incongruent/STIM_016.jpg
1486.947	1.002	1	incongruent	Block2	incongruent/STIM_016.jpg
1490.722	1.227	1	incongruent	Block2	incongruent/STIM_017.jpg
1495.105	0.924	1	incongruent	Block2	incongruent/STIM_017.jpg
1498.432	0.869	1	incongruent	Block2	incongruent/STIM_017.jpg
1502.782	0.866	1	incongruent	Block2	incongruent/STIM_017.jpg
1507.059	1.002	1	incongruent	Block2	incongruent/STIM_017.jpg
1511.779	0.813	1	incongruent	Block2	incongruent/STIM_018.jpg
1515.203	0.808	1	incongruent	Block2	incongruent/STIM_018.jpg
1517.917	0.681	0	incongruent	Block2	incongruent/STIM_018.jpg
1522.429	0.731	1	incongruent	Block2	incongruent/STIM_018.jpg
1525.839	0.761	1	incongruent	Block2	incongruent/STIM_018.jpg
1528.794	1.204	1	incongruent	Block2	incongruent/STIM_019.jpg
1533.327	1.378	1	incongruent	Block2	incongruent/STIM_019.jpg
1537.803	1.14	1	incongruent	Block2	incongruent/STIM_019.jpg
1542.459	1.019	1	incongruent	Block2	incongruent/STIM_019.jpg
1545.922	0.75	1	incongruent	Block2	incongruent/STIM_019.jpg
1549.791	0.922	1	incongruent	Block2	incongruent/STIM_020.jpg
1554.077	0.852	1	incongruent	Block2	incongruent/STIM_020.jpg
1558.584	1.222	1	incongruent	Block2	incongruent/STIM_020.jpg
1561.681	0.884	1	incongruent	Block2	incongruent/STIM_020.jpg
1565.019	0.592	1	incongruent	Block2	incongruent/STIM_020.jpg
1568.592	1.123	1	incongruent	Block2	incongruent/STIM_021.jpg
1572.281	0.905	1	incongruent	Block2	incongruent/STIM_021.jpg
1576.003	0.924	1	incongruent	Block2	incongruent/STIM_021.jpg
1579.734	1.097	1	incongruent	Block2	incongruent/STIM_021.jpg
1583.785	0.968	1	incongruent	Block2	incongruent/STIM_021.jpg
1587.712	1.384	1	incongruent	Block2	incongruent/STIM_022.jpg
1591.237	1.134	1	incongruent	Block2	incongruent/STIM_022.jpg
1595.887	1.104	1	incongruent	Block2	incongruent/STIM_022.jpg
1599.722	1.112	1	incongruent	Block2	incongruent/STIM_022.jpg
1602.93	0.888	1	incongruent	Block2	incongruent/STIM_022.jpg
1606.396	1.446	1	incongruent	Block2	incongruent/STIM_023.jpg
1611.422	1.038	1	incongruent	Block2	incongruent/STIM_023.jpg
1615.582	0.817	1	incongruent	Block2	incongruent/STIM_023.jpg
1620.034	0.52	1	incongruent	Block2	incongruent/STIM_023.jpg
1623.454	0.834	1	incongruent	Block2	incongruent/STIM_023.jpg
1626.382	0.812	1	incongruent	Block2	incongruent/STIM_024.jpg
1629.584	1.203	1	incongruent	Block2	incongruent/STIM_024.jpg
1633.537	0.778	1	incongruent	Block2	incongruent/STIM_024.jpg
1637.529	0.857	1	incongruent	Block2	incongruent/STIM_024.jpg
1640.447	1.002	1	incongruent	Block2	incongruent/STIM_024.jpg
1645.038	1.242	0	incongruent	Block2	incongruent/STIM_025.jpg
1648.75	1.326	1	incongruent	Block2	incongruent/STIM_025.jpg
1653.564	1.215	1	incongruent	Block2	incongruent/STIM_025.jpg
1658.028	0.656	1	incongruent	Block2	incongruent/STIM_025.jpg
1661.947	0.496	1	incongruent	Block2	incongruent/STIM_025.jpg
1665.109	0.721	0	incongruent	Block2	incongruent/STIM_026.jpg
1668.265	0.917	1	incongruent	Block2	incongruent/STIM_026.jpg
1672.159	1.044	0	incongruent	Block2	incongruent/STIM_026.jpg
1675.868	0.704	1	incongruent	Block2	incongruent/STIM_026.jpg
1679.844	0.574	1	incongruent	Block2	incongruent/STIM_026.jpg
1683.548	1.146	1	incongruent	Block2	incongruent/STIM_027.jpg
1687.646	1.11	1	incongruent	Block2	incongruent/STIM_027.jpg
1691.416	0.944	1	incongruent	Block2	incongruent/STIM_027.jpg
1695.303	0.86	1	incongruent	Block2	incongruent/STIM_027.jpg
1698.558	0.889	1	incongruent	Block2	incongruent/STIM_027.jpg
1702.747	0.687	1	incongruent	Block2	incongruent/STIM_028.jpg
1705.937	0.692	1	incongruent	Block2	incongruent/STIM_028.jpg
1708.69	0.798	1	incongruent	Block2	incongruent/STIM_028.jpg
1711.579	0.792	1	incongruent	Block2	incongruent/STIM_028.jpg
1715.99	0.978	1	incongruent	Block2	incongruent/STIM_028.jpg
1720.828	1.371	1	incongruent	Block2	incongruent/STIM_029.jpg
1724.686	1.264	1	incongruent	Block2	incongruent/STIM_029.jpg
1728.144	0.883	1	incongruent	Block2	incongruent/STIM_029.jpg
1731.169	1.0	1	incongruent	Block2	incongruent/STIM_029.jpg
1735.768	1.103	1	incongruent	Block2	incongruent/STIM_029.jpg
1739.574	0.992	1	congruent	Block2	congruent/STIM_000.jpg
1744.14	0.886	1	congruent	Block2	congruent/STIM_000.jpg
1747.469	0.842	1	congruent	Block2	congruent/STIM_000.jpg
1750.52	0.862	1	congruent	Block2	congruent/STIM_000.jpg
1754.796	0.752	1	congruent	Block2	congruent/STIM_000.jpg
1757.654	0.858	1	congruent	Block2	congruent/STIM_001.jpg
1760.611	0.781	1	congruent	Block2	congruent/STIM_001.jpg
1764.32	0.868	1	congruent	Block2	congruent/STIM_001.jpg
1767.999	0.73	1	congruent	Block2	congruent/STIM_001.jpg
1771.244	0.93	1	congruent	Block2	congruent/STIM_001.jpg
1774.287	0.996	1	congruent	Block2	congruent/STIM_002.jpg
1778.847	0.795	1	congruent	Block2	congruent/STIM_002.jpg
1781.774	0.676	1	congruent	Block2	congruent/STIM_002.jpg
1785.209	0.81	1	congruent	Block2	congruent/STIM_002.jpg
1787.975	0.812	1	congruent	Block2	congruent/STIM_002.jpg
1791.331	0.929	1	congruent	Block2	congruent/STIM_003.jpg
1796.011	0.691	1	congruent	Block2	congruent/STIM_003.jpg
1800.488	0.909	1	congruent	Block2	congruent/STIM_003.jpg
1804.118	0.707	1	congruent	Block2	congruent/STIM_003.jpg
1807.193	0.885	1	congruent	Block2	congruent/STIM_003.jpg
1811.732	0.818	1	congruent	Block2	congruent/STIM_004.jpg
1815.402	0.665	1	congruent	Block2	congruent/STIM_004.jpg
1818.431	0.641	1	congruent	Block2	congruent/STIM_004.jpg
1821.748	0.59	1	congruent	Block2	congruent/STIM_004.jpg
1824.753	0.862	1	congruent	Block2	congruent/STIM_004.jpg
1827.607	0.923	1	congruent	Block2	congruent/STIM_005.jpg
1830.838	0.997	1	congruent	Block2	congruent/STIM_005.jpg
1835.033	0.621	1	congruent	Block2	congruent/STIM_005.jpg
1837.745	0.69	1	congruent	Block2	congruent/STIM_005.jpg
1842.017	0.727	1	congruent	Block2	congruent/STIM_005.jpg
1845.126	0.537	1	congruent	Block2	congruent/STIM_006.jpg
1848.03	0.846	1	congruent	Block2	congruent/STIM_006.jpg
1852.618	0.883	1	congruent	Block2	congruent/STIM_006.jpg
1855.506	0.969	1	congruent	Block2	congruent/STIM_006.jpg
1858.398	0.726	1	congruent	Block2	congruent/STIM_006.jpg
1861.283	0.656	1	congruent	Block2	congruent/STIM_007.jpg
1865.871	0.789	1	congruent	Block2	congruent/STIM_007.jpg
1869.499	0.616	1	congruent	Block2	congruent/STIM_007.jpg
1872.639	0.571	1	congruent	Block2	congruent/STIM_007.jpg
1876.579	0.798	1	congruent	Block2	congruent/STIM_007.jpg
1880.028	0.816	1	congruent	Block2	congruent/STIM_008.jpg
1884.673	0.829	1	congruent	Block2	congruent/STIM_008.jpg
1889.368	0.785	1	congruent	Block2	congruent/STIM_008.jpg
1892.674	0.988	1	congruent	Block2	congruent/STIM_008.jpg
1897.376	0.555	0	congruent	Block2	congruent/STIM_008.jpg
1900.081	0.536	1	congruent	Block2	congruent/STIM_009.jpg
1903.1	0.702	1	congruent	Block2	congruent/STIM_009.jpg
1907.141	0.844	1	congruent	Block2	congruent/STIM_009.jpg
1911.352	0.861	1	congruent	Block2	congruent/STIM_009.jpg
1915.504	0.555	1	congruent	Block2	congruent/STIM_009.jpg
1918.601	0.714	1	congruent	Block2	congruent/STIM_010.jpg
1921.836	0.794	0	congruent	Block2	congruent/STIM_010.jpg
1925.582	0.86	1	congruent	Block2	congruent/STIM_010.jpg
1928.651	0.803	1	congruent	Block2	congruent/STIM_010.jpg
1932.006	0.81	1	congruent	Block2	congruent/STIM_010.jpg
1936.179	0.841	1	congruent	Block2	congruent/STIM_011.jpg
1940.677	0.959	1	congruent	Block2	congruent/STIM_011.jpg
1944.673	0.993	1	congruent	Block2	congruent/STIM_011.jpg
1948.43	0.838	1	congruent	Block2	congruent/STIM_011.jpg
1952.258	0.693	1	congruent	Block2	congruent/STIM_011.jpg
1956.213	0.878	0	congruent	Block2	congruent/STIM_012.jpg
1960.01	0.612	1	congruent	Block2	congruent/STIM_012.jpg
1963.354	0.533	1	congruent	Block2	congruent/STIM_012.jpg
1966.959	0.719	1	congruent	Block2	congruent/STIM_012.jpg
1969.958	1.012	0	congruent	Block2	congruent/STIM_012.jpg
1973.62	0.735	1	congruent	Block2	congruent/STIM_013.jpg
1977.691	0.568	1	congruent	Block2	congruent/STIM_013.jpg
1980.891	0.722	1	congruent	Block2	congruent/STIM_013.jpg
1985.339	0.909	1	congruent	Block2	congruent/STIM_013.jpg
1989.243	0.69	1	congruent	Block2	congruent/STIM_013.jpg
1993.693	0.894	1	congruent	Block2	congruent/STIM_014.jpg
1997.825	0.959	1	congruent	Block2	congruent/STIM_014.jpg
2000.969	0.765	1	congruent	Block2	congruent/STIM_014.jpg
2005.422	0.893	1	congruent	Block2	congruent/STIM_014.jpg
2009.804	0.81	1	congruent	Block2	congruent/STIM_014.jpg
2014.405	0.808	1	congruent	Block2	congruent/STIM_015.jpg
2018.455	1.076	0	congruent	Block2	congruent/STIM_015.jpg
2022.281	0.688	0	congruent	Block2	congruent/STIM_015.jpg
2025.574	0.989	1	congruent	Block2	congruent/STIM_015.jpg
2029.897	0.536	1	congruent	Block2	congruent/STIM_015.jpg
2033.227	0.925	1	congruent	Block2	congruent/STIM_016.jpg
2037.799	0.82	1	congruent	Block2	congruent/STIM_016.jpg
2040.584	0.818	1	congruent	Block2	congruent/STIM_016.jpg
2044.454	0.815	1	congruent	Block2	congruent/STIM_016.jpg
2048.297	0.873	1	congruent	Block2	congruent/STIM_016.jpg
2051.454	0.557	1	congruent	Block2	congruent/STIM_017.jpg
2054.314	0.791	1	congruent	Block2	congruent/STIM_017.jpg
2058.9	0.66	1	congruent	Block2	congruent/STIM_017.jpg
2063.161	0.887	1	congruent	Block2	congruent/STIM_017.jpg
2066.095	0.687	1	congruent	Block2	congruent/STIM_017.jpg
2069.098	0.608	1	congruent	Block2	congruent/STIM_018.jpg
2073.474	0.522	1	congruent	Block2	congruent/STIM_018.jpg
2077.1	0.961	1	congruent	Block2	congruent/STIM_018.jpg
2080.648	0.638	1	congruent	Block2	congruent/STIM_018.jpg
2083.535	0.816	1	congruent	Block2	congruent/STIM_018.jpg
2086.843	0.792	1	congruent	Block2	congruent/STIM_019.jpg
2089.989	0.797	1	congruent	Block2	congruent/STIM_019.jpg
2093.405	0.777	1	congruent	Block2	congruent/STIM_019.jpg
2096.983	0.912	1	congruent	Block2	congruent/STIM_019.jpg
2101.077	0.936	0	congruent	Block2	congruent/STIM_019.jpg
2104.244	0.784	1	congruent	Block2	congruent/STIM_020.jpg
2108.919	0.665	1	congruent	Block2	congruent/STIM_020.jpg
2112.698	0.939	0	congruent	Block2	congruent/STIM_020.jpg
2115.58	0.925	1	congruent	Block2	congruent/STIM_020.jpg
2119.506	0.775	1	congruent	Block2	congruent/STIM_020.jpg
2123.461	0.885	0	congruent	Block2	congruent/STIM_021.jpg
2127.205	0.855	1	congruent	Block2	congruent/STIM_021.jpg
2130.86	0.836	1	congruent	Block2	congruent/STIM_021.jpg
2134.325	0.728	1	congruent	Block2	congruent/STIM_021.jpg
2137.899	0.574	1	congruent	Block2	congruent/STIM_021.jpg
2141.627	0.704	1	congruent	Block2	congruent/STIM_022.jpg
2146.177	0.938	1	congruent	Block2	congruent/STIM_022.jpg
2150.302	0.821	1	congruent	Block2	congruent/STIM_022.jpg
2153.802	0.611	1	congruent	Block2	congruent/STIM_022.jpg
2156.808	0.767	0	congruent	Block2	congruent/STIM_022.jpg
2161.046	0.77	1	congruent	Block2	congruent/STIM_023.jpg
2163.892	0.944	1	congruent	Block2	congruent/STIM_023.jpg
2168.06	0.778	1	congruent	Block2	congruent/STIM_023.jpg
2171.933	0.805	1	congruent	Block2	congruent/STIM_023.jpg
2175.127	0.74	1	congruent	Block2	congruent/STIM_023.jpg
2178.903	1.024	1	congruent	Block2	congruent/STIM_024.jpg
2183.377	0.895	1	congruent	Block2	congruent/STIM_024.jpg
2188.107	0.734	1	congruent	Block2	congruent/STIM_024.jpg
2192.716	0.832	1	congruent	Block2	congruent/STIM_024.jpg
2197.138	0.58	1	congruent	Block2	congruent/STIM_024.jpg
2200.352	0.587	1	congruent	Block2	congruent/STIM_025.jpg
2203.057	0.859	1	congruent	Block2	congruent/STIM_025.jpg
2207.774	0.79	1	congruent	Block2	congruent/STIM_025.jpg
2211.348	0.941	1	congruent	Block2	congruent/STIM_025.jpg
2215.732	0.657	1	congruent	Block2	congruent/STIM_025.jpg
2218.546	0.736	1	congruent	Block2	congruent/STIM_026.jpg
2221.225	0.818	1	congruent	Block2	congruent/STIM_026.jpg
2225.871	0.608	1	congruent	Block2	congruent/STIM_026.jpg
2228.894	0.581	1	congruent	Block2	congruent/STIM_026.jpg
2232.236	0.834	1	congruent	Block2	congruent/STIM_026.jpg
2235.29	0.685	1	congruent	Block2	congruent/STIM_027.jpg
2238.772	0.511	1	congruent	Block2	congruent/STIM_027.jpg
2242.614	0.892	1	congruent	Block2	congruent/STIM_027.jpg
2245.682	0.775	1	congruent	Block2	congruent/STIM_027.jpg
2250.31	0.823	1	congruent	Block2	congruent/STIM_027.jpg
2253.744	0.77	1	congruent	Block2	congruent/STIM_028.jpg
2258.255	0.642	1	congruent	Block2	congruent/STIM_028.jpg
2261.447	0.833	1	congruent	Block2	congruent/STIM_028.jpg
2264.858	0.768	1	congruent	Block2	congruent/STIM_028.jpg
2268.645	0.952	0	congruent	Block2	congruent/STIM_028.jpg
2272.607	0.901	1	congruent	Block2	congruent/STIM_029.jpg
2275.624	0.541	1	congruent	Block2	congruent/STIM_029.jpg
2280.104	0.783	1	congruent	Block2	congruent/STIM_029.jpg
2283.701	0.66	1	congruent	Block2	congruent/STIM_029.jpg
2286.781	0.864	1	congruent	Block2	congruent/STIM_029.jpg
2291.27	0.538	1	incongruent	Block3	incongruent/STIM_000.jpg
2295.201	0.678	1	incongruent	Block3	incongruent/STIM_000.jpg
2298.756	0.867	1	incongruent	Block3	incongruent/STIM_000.jpg
2302.286	1.061	1	incongruent	Block3	incongruent/STIM_000.jpg
2305.654	0.573	1	incongruent	Block3	incongruent/STIM_000.jpg
2308.368	0.657	1	incongruent	Block3	incongruent/STIM_001.jpg
2312.159	1.272	1	incongruent	Block3	incongruent/STIM_001.jpg
2316.627	0.972	1	incongruent	Block3	incongruent/STIM_001.jpg
2320.938	1.062	1	incongruent	Block3	incongruent/STIM_001.jpg
2325.638	0.949	1	incongruent	Block3	incongruent/STIM_001.jpg
2328.895	0.713	1	incongruent	Block3	incongruent/STIM_002.jpg
2332.536	0.692	1	incongruent	Block3	incongruent/STIM_002.jpg
2335.36	0.522	1	incongruent	Block3	incongruent/STIM_002.jpg
2339.395	0.72	1	incongruent	Block3	incongruent/STIM_002.jpg
2342.072	0.81	1	incongruent	Block3	incongruent/STIM_002.jpg
2346.697	0.855	1	incongruent	Block3	incongruent/STIM_003.jpg
2351.178	0.882	1	incongruent	Block3	incongruent/STIM_003.jpg
2355.908	0.768	1	incongruent	Block3	incongruent/STIM_003.jpg
2360.001	0.595	1	incongruent	Block3	incongruent/STIM_003.jpg
2363.046	0.842	1	incongruent	Block3	incongruent/STIM_003.jpg
2367.641	0.646	1	incongruent	Block3	incongruent/STIM_004.jpg
2371.251	0.951	1	incongruent	Block3	incongruent/STIM_004.jpg
2375.976	1.103	1	incongruent	Block3	incongruent/STIM_004.jpg
2379.08	1.166	1	incongruent	Block3	incongruent/STIM_004.jpg
2383.946	1.105	1	incongruent	Block3	incongruent/STIM_004.jpg
2387.115	0.693	1	incongruent	Block3	incongruent/STIM_005.jpg
2390.563	0.953	1	incongruent	Block3	incongruent/STIM_005.jpg
2395.186	0.935	1	incongruent	Block3	incongruent/STIM_005.jpg
2399.307	0.975	1	incongruent	Block3	incongruent/STIM_005.jpg
2403.159	0.943	1	incongruent	Block3	incongruent/STIM_005.jpg
2407.709	0.646	1	incongruent	Block3	incongruent/STIM_006.jpg
2411.339	0.82	1	incongruent	Block3	incongruent/STIM_006.jpg
2414.584	1.149	1	incongruent	Block3	incongruent/STIM_006.jpg
2419.41	0.627	1	incongruent	Block3	incongruent/STIM_006.jpg
2422.114	1.033	1	incongruent	Block3	incongruent/STIM_006.jpg
2425.472	0.975	1	incongruent	Block3	incongruent/STIM_007.jpg
2428.375	0.595	1	incongruent	Block3	incongruent/STIM_007.jpg
2431.526	0.519	1	incongruent	Block3	incongruent/STIM_007.jpg
2435.223	0.577	1	incongruent	Block3	incongruent/STIM_007.jpg
2438.497	0.979	1	incongruent	Block3	incongruent/STIM_007.jpg
2442.295	0.837	1	incongruent	Block3	incongruent/STIM_008.jpg
2445.845	1.128	1	incongruent	Block3	incongruent/STIM_008.jpg
2450.016	0.833	1	incongruent	Block3	incongruent/STIM_008.jpg
2452.912	0.696	1	incongruent	Block3	incongruent/STIM_008.jpg
2457.485	1.134	1	incongruent	Block3	incongruent/STIM_008.jpg
2461.507	0.672	1	incongruent	Block3	incongruent/STIM_009.jpg
2465.529	0.686	1	incongruent	Block3	incongruent/STIM_009.jpg
2468.377	0.897	1	incongruent	Block3	incongruent/STIM_009.jpg
2471.227	0.787	1	incongruent	Block3	incongruent/STIM_009.jpg
2475.395	1.129	1	incongruent	Block3	incongruent/STIM_009.jpg
2479.597	1.046	1	incongruent	Block3	incongruent/STIM_010.jpg
2483.263	0.975	0	incongruent	Block3	incongruent/STIM_010.jpg
2487.439	0.751	1	incongruent	Block3	incongruent/STIM_010.jpg
2491.658	0.991	1	incongruent	Block3	incongruent/STIM_010.jpg
2496.166	0.988	1	incongruent	Block3	incongruent/STIM_010.jpg
2500.577	1.119	1	incongruent	Block3	incongruent/STIM_011.jpg
2505.174	1.061	1	incongruent	Block3	incongruent/STIM_011.jpg
2508.47	0.854	1	incongruent	Block3	incongruent/STIM_011.jpg
2512.498	0.701	1	incongruent	Block3	incongruent/STIM_011.jpg
2515.869	1.096	1	incongruent	Block3	incongruent/STIM_011.jpg
2519.692	1.036	1	incongruent	Block3	incongruent/STIM_012.jpg
2524.291	0.551	1	incongruent	Block3	incongruent/STIM_012.jpg
2527.886	1.082	1	incongruent	Block3	incongruent/STIM_012.jpg
2531.233	1.209	1	incongruent	Block3	incongruent/STIM_012.jpg
2536.055	0.645	1	incongruent	Block3	incongruent/STIM_012.jpg
2539.168	0.884	1	incongruent	Block3	incongruent/STIM_013.jpg
2543.669	0.584	1	incongruent	Block3	incongruent/STIM_013.jpg
2547.937	1.026	1	incongruent	Block3	incongruent/STIM_013.jpg
2551.424	0.596	1	incongruent	Block3	incongruent/STIM_013.jpg
2555.454	0.88	1	incongruent	Block3	incongruent/STIM_013.jpg
2558.301	0.562	1	incongruent	Block3	incongruent/STIM_014.jpg
2561.554	0.507	1	incongruent	Block3	incongruent/STIM_014.jpg
2564.262	1.087	1	incongruent	Block3	incongruent/STIM_014.jpg
2568.635	1.013	1	incongruent	Block3	incongruent/STIM_014.jpg
2571.642	0.713	1	incongruent	Block3	incongruent/STIM_014.jpg
2575.619	1.082	1	incongruent	Block3	incongruent/STIM_015.jpg
2580.057	0.706	1	incongruent	Block3	incongruent/STIM_015.jpg
2583.781	0.575	1	incongruent	Block3	incongruent/STIM_015.jpg
2587.408	0.989	1	incongruent	Block3	incongruent/STIM_015.jpg
2592.249	0.877	1	incongruent	Block3	incongruent/STIM_015.jpg
2596.801	1.187	1	incongruent	Block3	incongruent/STIM_016.jpg
2600.458	0.984	1	incongruent	Block3	incongruent/STIM_016.jpg
2604.604	1.062	1	incongruent	Block3	incongruent/STIM_016.jpg
2609.363	0.721	1	incongruent	Block3	incongruent/STIM_016.jpg
2613.106	0.657	1	incongruent	Block3	incongruent/STIM_016.jpg
2617.542	0.663	1	incongruent	Block3	incongruent/STIM_017.jpg
2621.974	0.891	0	incongruent	Block3	incongruent/STIM_017.jpg
2626.606	0.866	1	incongruent	Block3	incongruent/STIM_017.jpg
2630.697	1.132	1	incongruent	Block3	incongruent/STIM_017.jpg
2635.351	0.791	1	incongruent	Block3	incongruent/STIM_017.jpg
2639.411	1.164	1	incongruent	Block3	incongruent/STIM_018.jpg
2643.653	0.718	1	incongruent	Block3	incongruent/STIM_018.jpg
2646.547	0.929	1	incongruent	Block3	incongruent/STIM_018.jpg
2649.804	0.658	1	incongruent	Block3	incongruent/STIM_018.jpg
2654.309	0.652	1	incongruent	Block3	incongruent/STIM_018.jpg
2657.272	0.801	1	incongruent	Block3	incongruent/STIM_019.jpg
2661.815	0.694	1	incongruent	Block3	incongruent/STIM_019.jpg
2664.69	1.205	1	incongruent	Block3	incongruent/STIM_019.jpg
2668.828	0.687	1	incongruent	Block3	incongruent/STIM_019.jpg
2672.552	0.851	1	incongruent	Block3	incongruent/STIM_019.jpg
2676.497	0.554	1	incongruent	Block3	incongruent/STIM_020.jpg
2679.137	0.842	1	incongruent	Block3	incongruent/STIM_020.jpg
2682.137	0.597	1	incongruent	Block3	incongruent/STIM_020.jpg
2686.13	0.755	1	incongruent	Block3	incongruent/STIM_020.jpg
2690.281	0.984	1	incongruent	Block3	incongruent/STIM_020.jpg
2695.065	1.024	1	incongruent	Block3	incongruent/STIM_021.jpg
2698.494	1.012	1	incongruent	Block3	incongruent/STIM_021.jpg
2701.79	0.695	1	incongruent	Block3	incongruent/STIM_021.jpg
2705.018	0.482	1	incongruent	Block3	incongruent/STIM_021.jpg
2708.561	0.582	1	incongruent	Block3	incongruent/STIM_021.jpg
2711.269	0.73	1	incongruent	Block3	incongruent/STIM_022.jpg
2715.109	0.683	1	incongruent	Block3	incongruent/STIM_022.jpg
2718.097	1.006	1	incongruent	Block3	incongruent/STIM_022.jpg
2722.804	1.114	1	incongruent	Block3	incongruent/STIM_022.jpg
2726.621	1.117	1	incongruent	Block3	incongruent/STIM_022.jpg
2731.268	1.107	1	incongruent	Block3	incongruent/STIM_023.jpg
2735.4	0.747	1	incongruent	Block3	incongruent/STIM_023.jpg
2739.616	0.585	1	incongruent	Block3	incongruent/STIM_023.jpg
2743.481	1.183	1	incongruent	Block3	incongruent/STIM_023.jpg
2747.681	0.933	1	incongruent	Block3	incongruent/STIM_023.jpg
2752.349	0.654	1	incongruent	Block3	incongruent/STIM_024.jpg
2755.825	0.594	1	incongruent	Block3	incongruent/STIM_024.jpg
2758.704	1.098	1	incongruent	Block3	incongruent/STIM_024.jpg
2763.271	0.693	1	incongruent	Block3	incongruent/STIM_024.jpg
2765.907	1.099	1	incongruent	Block3	incongruent/STIM_024.jpg
2769.114	1.002	1	incongruent	Block3	incongruent/STIM_025.jpg
2772.167	0.87	1	incongruent	Block3	incongruent/STIM_025.jpg
2775.498	0.995	1	incongruent	Block3	incongruent/STIM_025.jpg
2780.207	1.151	1	incongruent	Block3	incongruent/STIM_025.jpg
2784.925	0.907	1	incongruent	Block3	incongruent/STIM_025.jpg
2789.006	0.855	1	incongruent	Block3	incongruent/STIM_026.jpg
2793.353	0.523	1	incongruent	Block3	incongruent/STIM_026.jpg
2796.12	1.107	1	incongruent	Block3	incongruent/STIM_026.jpg
2799.154	0.948	1	incongruent	Block3	incongruent/STIM_026.jpg
2802.559	0.999	1	incongruent	Block3	incongruent/STIM_026.jpg
2805.545	0.824	1	incongruent	Block3	incongruent/STIM_027.jpg
2808.44	0.872	1	incongruent	Block3	incongruent/STIM_027.jpg
2811.443	0.978	1	incongruent	Block3	incongruent/STIM_027.jpg
2815.341	0.582	1	incongruent	Block3	incongruent/STIM_027.jpg
2819.81	0.621	1	incongruent	Block3	incongruent/STIM_027.jpg
2824.203	0.657	1	incongruent	Block3	incongruent/STIM_028.jpg
2828.619	0.669	1	incongruent	Block3	incongruent/STIM_028.jpg
2831.771	0.862	1	incongruent	Block3	incongruent/STIM_028.jpg
2834.823	1.135	1	incongruent	Block3	incongruent/STIM_028.jpg
2839.566	0.606	1	incongruent	Block3	incongruent/STIM_028.jpg
2843.636	0.615	1	incongruent	Block3	incongruent/STIM_029.jpg
2846.564	1.102	1	incongruent	Block3	incongruent/STIM_029.jpg
2851.595	1.153	1	incongruent	Block3	incongruent/STIM_029.jpg
2856.287	0.995	1	incongruent	Block3	incongruent/STIM_029.jpg
2859.521	0.453	1	incongruent	Block3	incongruent/STIM_029.jpg
2862.26	0.857	1	congruent	Block3	congruent/STIM_000.jpg
2866.184	0.8	1	congruent	Block3	congruent/STIM_000.jpg
2869.34	0.795	1	congruent	Block3	congruent/STIM_000.jpg
2873.756	0.829	1	congruent	Block3	congruent/STIM_000.jpg
2878.029	0.989	1	congruent	Block3	congruent/STIM_000.jpg
2881.195	0.536	1	congruent	Block3	congruent/STIM_001.jpg
2884.391	0.591	1	congruent	Block3	congruent/STIM_001.jpg
2887.875	0.784	1	congruent	Block3	congruent/STIM_001.jpg
2892.142	0.736	1	congruent	Block3	congruent/STIM_001.jpg
2896.108	0.804	1	congruent	Block3	congruent/STIM_001.jpg
2899.392	0.885	1	congruent	Block3	congruent/STIM_002.jpg
2904.176	0.678	1	congruent	Block3	congruent/STIM_002.jpg
2908.654	0.919	1	congruent	Block3	congruent/STIM_002.jpg
2912.708	0.799	0	congruent	Block3	congruent/STIM_002.jpg
2915.61	0.659	1	congruent	Block3	congruent/STIM_002.jpg
2919.259	0.577	1	congruent	Block3	congruent/STIM_003.jpg
2921.964	0.626	1	congruent	Block3	congruent/STIM_003.jpg
2924.633	0.85	1	congruent	Block3	congruent/STIM_003.jpg
2928.623	0.804	1	congruent	Block3	congruent/STIM_003.jpg
2933.348	0.633	1	congruent	Block3	congruent/STIM_003.jpg
2936.106	0.788	1	congruent	Block3	congruent/STIM_004.jpg
2940.337	0.776	1	congruent	Block3	congruent/STIM_004.jpg
2944.166	0.622	1	congruent	Block3	congruent/STIM_004.jpg
2947.206	0.941	1	congruent	Block3	congruent/STIM_004.jpg
2951.659	0.859	1	congruent	Block3	congruent/STIM_004.jpg
2955.863	0.712	1	congruent	Block3	congruent/STIM_005.jpg
2960.137	0.644	0	congruent	Block3	congruent/STIM_005.jpg
2963.082	0.71	1	congruent	Block3	congruent/STIM_005.jpg
2966.106	0.703	1	congruent	Block3	congruent/STIM_005.jpg
2969.488	1.097	1	congruent	Block3	congruent/STIM_005.jpg
2973.522	0.761	1	congruent	Block3	congruent/STIM_006.jpg
2978.052	0.834	0	congruent	Block3	congruent/STIM_006.jpg
2980.914	0.773	1	congruent	Block3	congruent/STIM_006.jpg
2985.201	0.818	1	congruent	Block3	congruent/STIM_006.jpg
2988.455	0.558	0	congruent	Block3	congruent/STIM_006.jpg
2992.164	0.805	0	congruent	Block3	congruent/STIM_007.jpg
2996.391	0.668	1	congruent	Block3	congruent/STIM_007.jpg
2999.504	0.679	1	congruent	Block3	congruent/STIM_007.jpg
3003.878	0.927	1	congruent	Block3	congruent/STIM_007.jpg
3008.016	0.898	1	congruent	Block3	congruent/STIM_007.jpg
3012.443	0.735	1	congruent	Block3	congruent/STIM_008.jpg
3016.678	0.876	1	congruent	Block3	congruent/STIM_008.jpg
3020.436	0.792	1	congruent	Block3	congruent/STIM_008.jpg
3023.34	0.816	1	congruent	Block3	congruent/STIM_008.jpg
3027.633	0.964	1	congruent	Block3	congruent/STIM_008.jpg
3030.834	0.716	1	congruent	Block3	congruent/STIM_009.jpg
3034.93	0.694	1	congruent	Block3	congruent/STIM_009.jpg
3037.929	0.727	1	congruent	Block3	congruent/STIM_009.jpg
3041.888	0.671	1	congruent	Block3	congruent/STIM_009.jpg
3045.604	0.666	1	congruent	Block3	congruent/STIM_009.jpg
3048.829	0.725	1	congruent	Block3	congruent/STIM_010.jpg
3052.904	0.629	1	congruent	Block3	congruent/STIM_010.jpg
3057.419	0.533	1	congruent	Block3	congruent/STIM_010.jpg
3060.858	0.713	1	congruent	Block3	congruent/STIM_010.jpg
3065.119	0.852	1	congruent	Block3	congruent/STIM_010.jpg
3068.923	0.657	1	congruent	Block3	congruent/STIM_011.jpg
3072.463	0.658	1	congruent	Block3	congruent/STIM_011.jpg
3076.195	0.814	1	congruent	Block3	congruent/STIM_011.jpg
3080.556	0.912	1	congruent	Block3	congruent/STIM_011.jpg
3084.449	0.666	1	congruent	Block3	congruent/STIM_011.jpg
3087.641	0.616	1	congruent	Block3	congruent/STIM_012.jpg
3090.611	0.742	1	congruent	Block3	congruent/STIM_012.jpg
3093.82	0.616	1	congruent	Block3	congruent/STIM_012.jpg
3096.582	0.638	1	congruent	Block3	congruent/STIM_012.jpg
3099.863	0.795	1	congruent	Block3	congruent/STIM_012.jpg
3102.818	0.892	0	congruent	Block3	congruent/STIM_013.jpg
3106.091	0.587	1	congruent	Block3	congruent/STIM_013.jpg
3109.474	0.981	0	congruent	Block3	congruent/STIM_013.jpg
3113.268	0.642	1	congruent	Block3	congruent/STIM_013.jpg
3116.619	0.462	1	congruent	Block3	congruent/STIM_013.jpg
3119.881	1.022	1	congruent	Block3	congruent/STIM_014.jpg
3123.248	0.601	1	congruent	Block3	congruent/STIM_014.jpg
3126.387	0.636	1	congruent	Block3	congruent/STIM_014.jpg
3130.669	0.876	1	congruent	Block3	congruent/STIM_014.jpg
3134.271	1.062	1	congruent	Block3	congruent/STIM_014.jpg
3138.602	0.924	1	congruent	Block3	congruent/STIM_015.jpg
3143.056	0.722	1	congruent	Block3	congruent/STIM_015.jpg
3147.158	0.662	1	congruent	Block3	congruent/STIM_015.jpg
3150.478	0.885	1	congruent	Block3	congruent/STIM_015.jpg
3153.601	0.906	1	congruent	Block3	congruent/STIM_015.jpg
3158.098	0.731	1	congruent	Block3	congruent/STIM_016.jpg
3162.306	0.681	1	congruent	Block3	congruent/STIM_016.jpg
3166.034	0.502	1	congruent	Block3	congruent/STIM_016.jpg
3169.998	0.59	1	congruent	Block3	congruent/STIM_016.jpg
3173.686	0.836	1	congruent	Block3	congruent/STIM_016.jpg
3177.272	0.527	1	congruent	Block3	congruent/STIM_017.jpg
3181.569	0.627	1	congruent	Block3	congruent/STIM_017.jpg
3184.74	0.619	1	congruent	Block3	congruent/STIM_017.jpg
3188.328	0.988	1	congruent	Block3	congruent/STIM_017.jpg
3191.975	0.685	1	congruent	Block3	congruent/STIM_017.jpg
3195.785	0.587	1	congruent	Block3	congruent/STIM_018.jpg
3199.147	0.862	1	congruent	Block3	congruent/STIM_018.jpg
3202.976	0.587	1	congruent	Block3	congruent/STIM_018.jpg
3205.617	0.716	1	congruent	Block3	congruent/STIM_018.jpg
3210.02	0.858	1	congruent	Block3	congruent/STIM_018.jpg
3214.587	0.928	0	congruent	Block3	congruent/STIM_019.jpg
3218.59	0.954	1	congruent	Block3	congruent/STIM_019.jpg
3221.476	0.776	1	congruent	Block3	congruent/STIM_019.jpg
3225.577	0.769	1	congruent	Block3	congruent/STIM_019.jpg
3228.939	0.572	1	congruent	Block3	congruent/STIM_019.jpg
3231.716	0.838	1	congruent	Block3	congruent/STIM_020.jpg
3234.945	0.796	1	congruent	Block3	congruent/STIM_020.jpg
3237.983	0.827	1	congruent	Block3	congruent/STIM_020.jpg
3242.165	0.759	1	congruent	Block3	congruent/STIM_020.jpg
3244.877	0.599	1	congruent	Block3	congruent/STIM_020.jpg
3249.345	0.823	1	congruent	Block3	congruent/STIM_021.jpg
3253.224	0.788	1	congruent	Block3	congruent/STIM_021.jpg
3256.512	0.954	1	congruent	Block3	congruent/STIM_021.jpg
3261.265	0.529	1	congruent	Block3	congruent/STIM_021.jpg
3265.481	0.722	1	congruent	Block3	congruent/STIM_021.jpg
3269.38	0.622	1	congruent	Block3	congruent/STIM_022.jpg
3273.57	0.56	1	congruent	Block3	congruent/STIM_022.jpg
3277.171	0.856	1	congruent	Block3	congruent/STIM_022.jpg
3281.141	0.589	0	congruent	Block3	congruent/STIM_022.jpg
3285.613	0.613	1	congruent	Block3	congruent/STIM_022.jpg
3289.824	0.854	1	congruent	Block3	congruent/STIM_023.jpg
3294.4	0.876	1	congruent	Block3	congruent/STIM_023.jpg
3297.394	0.852	1	congruent	Block3	congruent/STIM_023.jpg
3300.936	0.983	1	congruent	Block3	congruent/STIM_023.jpg
3304.239	0.682	1	congruent	Block3	congruent/STIM_023.jpg
3307.413	0.804	1	congruent	Block3	congruent/STIM_024.jpg
3311.12	0.767	1	congruent	Block3	congruent/STIM_024.jpg
3314.833	0.847	1	congruent	Block3	congruent/STIM_024.jpg
3319.257	0.861	1	congruent	Block3	congruent/STIM_024.jpg
3322.077	0.738	1	congruent	Block3	congruent/STIM_024.jpg
3324.765	0.861	1	congruent	Block3	congruent/STIM_025.jpg
3328.685	0.717	1	congruent	Block3	congruent/STIM_025.jpg
3332.638	0.714	1	congruent	Block3	congruent/STIM_025.jpg
3336.726	0.548	1	congruent	Block3	congruent/STIM_025.jpg
3340.983	0.869	1	congruent	Block3	congruent/STIM_025.jpg
3345.694	0.595	1	congruent	Block3	congruent/STIM_026.jpg
3348.463	0.848	1	congruent	Block3	congruent/STIM_026.jpg
3351.406	0.541	1	congruent	Block3	congruent/STIM_026.jpg
3355.367	0.896	1	congruent	Block3	congruent/STIM_026.jpg
3358.463	0.634	1	congruent	Block3	congruent/STIM_026.jpg
3363.057	0.608	1	congruent	Block3	congruent/STIM_027.jpg
3366.372	0.572	1	congruent	Block3	congruent/STIM_027.jpg
3369.8	0.971	1	congruent	Block3	congruent/STIM_027.jpg
3374.067	0.553	1	congruent	Block3	congruent/STIM_027.jpg
3377.697	0.989	1	congruent	Block3	congruent/STIM_027.jpg
3380.756	0.682	1	congruent	Block3	congruent/STIM_028.jpg
3384.795	0.733	1	congruent	Block3	congruent/STIM_028.jpg
3388.337	0.796	1	congruent	Block3	congruent/STIM_028.jpg
3391.837	1.038	1	congruent	Block3	congruent/STIM_028.jpg
3395.658	0.989	1	congruent	Block3	congruent/STIM_028.jpg
3398.83	0.682	1	congruent	Block3	congruent/STIM_029.jpg
3403.199	1.001	1	congruent	Block3	congruent/STIM_029.jpg
3406.762	0.64	1	congruent	Block3	congruent/STIM_029.jpg
3409.636	0.869	1	congruent	Block3	congruent/STIM_029.jpg
3413.726	0.795	1	congruent	Block3	congruent/STIM_029.jpg
