onset	duration	accuracy	trial_type	learning_stage	stimulus
0.0	1.124	incorrect	incongruent	Block1	incongruent/STIM_000.jpg
4.878	1.202	correct	incongruent	Block1	incongruent/STIM_000.jpg
9.96	0.905	correct	incongruent	Block1	incongruent/STIM_000.jpg
14.097	1.041	correct	incongruent	Block1	incongruent/STIM_000.jpg
17.363	0.859	correct	incongruent	Block1	incongruent/STIM_000.jpg
20.879	0.762	correct	incongruent	Block1	incongruent/STIM_001.jpg
23.727	1.136	correct	incongruent	Block1	incongruent/STIM_001.jpg
27.304	1.001	correct	incongruent	Block1	incongruent/STIM_001.jpg
30.327	0.88	incorrect	incongruent	Block1	incongruent/STIM_001.jpg
33.868	1.096	correct	incongruent	Block1	incongruent/STIM_001.jpg
37.945	1.186	correct	incongruent	Block1	incongruent/STIM_002.jpg
42.671	0.983	correct	incongruent	Block1	incongruent/STIM_002.jpg
46.808	1.233	correct	incongruent	Block1	incongruent/STIM_002.jpg
51.367	0.697	correct	incongruent	Block1	incongruent/STIM_002.jpg
54.324	1.002	correct	incongruent	Block1	incongruent/STIM_002.jpg
59.194	1.048	correct	incongruent	Block1	incongruent/STIM_003.jpg
64.226	0.701	correct	incongruent	Block1	incongruent/STIM_003.jpg
67.939	0.945	correct	incongruent	Block1	incongruent/STIM_003.jpg
72.731	1.083	correct	incongruent	Block1	incongruent/STIM_003.jpg
76.091	0.836	correct	incongruent	Block1	incongruent/STIM_003.jpg
80.444	1.37	correct	incongruent	Block1	incongruent/STIM_004.jpg
85.381	1.462	correct	incongruent	Block1	incongruent/STIM_004.jpg
90.111	1.192	correct	incongruent	Block1	incongruent/STIM_004.jpg
94.277	1.267	correct	incongruent	Block1	incongruent/STIM_004.jpg
99.072	1.142	correct	incongruent	Block1	incongruent/STIM_004.jpg
103.789	1.343	correct	incongruent	Block1	incongruent/STIM_005.jpg
108.782	1.363	correct	incongruent	Block1	incongruent/STIM_005.jpg
113.621	0.656	correct	incongruent	Block1	incongruent/STIM_005.jpg
118.138	1.298	correct	incongruent	Block1	incongruent/STIM_005.jpg
121.775	0.663	correct	incongruent	Block1	incongruent/STIM_005.jpg
125.384	1.035	correct	incongruent	Block1	incongruent/STIM_006.jpg
128.551	0.728	correct	incongruent	Block1	incongruent/STIM_006.jpg
132.17	0.94	incorrect	incongruent	Block1	incongruent/STIM_006.jpg
136.681	0.852	correct	incongruent	Block1	incongruent/STIM_006.jpg
139.882	1.013	correct	incongruent	Block1	incongruent/STIM_006.jpg
142.922	1.015	correct	incongruent	Block1	incongruent/STIM_007.jpg
147.713	0.775	correct	incongruent	Block1	incongruent/STIM_007.jpg
151.871	1.298	correct	incongruent	Block1	incongruent/STIM_007.jpg
155.539	0.679	correct	incongruent	Block1	incongruent/STIM_007.jpg
158.943	0.862	correct	incongruent	Block1	incongruent/STIM_007.jpg
162.476	1.179	correct	incongruent	Block1	incongruent/STIM_008.jpg
166.331	1.449	correct	incongruent	Block1	incongruent/STIM_008.jpg
171.155	1.288	incorrect	incongruent	Block1	incongruent/STIM_008.jpg
175.839	0.691	correct	incongruent	Block1	incongruent/STIM_008.jpg
178.64	0.912	correct	incongruent	Block1	incongruent/STIM_008.jpg
183.116	1.433	correct	incongruent	Block1	incongruent/STIM_009.jpg
187.273	1.39	correct	incongruent	Block1	incongruent/STIM_009.jpg
191.259	1.136	correct	incongruent	Block1	incongruent/STIM_009.jpg
196.09	0.688	correct	incongruent	Block1	incongruent/STIM_009.jpg
199.627	1.188	correct	incongruent	Block1	incongruent/STIM_009.jpg
203.94	0.796	correct	incongruent	Block1	incongruent/STIM_010.jpg
207.468	1.036	correct	incongruent	Block1	incongruent/STIM_010.jpg
210.543	0.7	correct	incongruent	Block1	incongruent/STIM_010.jpg
214.57	1.311	correct	incongruent	Block1	incongruent/STIM_010.jpg
219.146	0.746	incorrect	incongruent	Block1	incongruent/STIM_010.jpg
223.151	0.853	correct	incongruent	Block1	incongruent/STIM_011.jpg
226.261	1.156	correct	incongruent	Block1	incongruent/STIM_011.jpg
231.397	1.36	correct	incongruent	Block1	incongruent/STIM_011.jpg
234.998	1.31	correct	incongruent	Block1	incongruent/STIM_011.jpg
239.084	1.034	correct	incongruent	Block1	incongruent/STIM_011.jpg
242.319	1.53	correct	incongruent	Block1	incongruent/STIM_012.jpg
246.872	0.928	incorrect	incongruent	Block1	incongruent/STIM_012.jpg
249.936	1.257	correct	incongruent	Block1	incongruent/STIM_012.jpg
255.019	0.635	correct	incongruent	Block1	incongruent/STIM_012.jpg
257.957	1.032	correct	incongruent	Block1	incongruent/STIM_012.jpg
262.858	1.115	correct	incongruent	Block1	incongruent/STIM_013.jpg
267.29	0.957	incorrect	incongruent	Block1	incongruent/STIM_013.jpg
271.028	0.988	correct	incongruent	Block1	incongruent/STIM_013.jpg
274.735	0.689	correct	incongruent	Block1	incongruent/STIM_013.jpg
278.732	0.895	correct	incongruent	Block1	incongruent/STIM_013.jpg
282.644	1.324	correct	incongruent	Block1	incongruent/STIM_014.jpg
287.266	0.877	correct	incongruent	Block1	incongruent/STIM_014.jpg
290.728	0.785	correct	incongruent	Block1	incongruent/STIM_014.jpg
294.246	1.061	correct	incongruent	Block1	incongruent/STIM_014.jpg
297.376	0.992	correct	incongruent	Block1	incongruent/STIM_014.jpg
301.028	0.814	incorrect	incongruent	Block1	incongruent/STIM_015.jpg
305.151	1.383	correct	incongruent	Block1	incongruent/STIM_015.jpg
309.176	1.311	correct	incongruent	Block1	incongruent/STIM_015.jpg
313.181	1.286	incorrect	incongruent	Block1	incongruent/STIM_015.jpg
317.167	0.861	correct	incongruent	Block1	incongruent/STIM_015.jpg
320.556	1.437	correct	incongruent	Block1	incongruent/STIM_016.jpg
325.093	1.436	correct	incongruent	Block1	incongruent/STIM_016.jpg
330.425	1.105	correct	incongruent	Block1	incongruent/STIM_016.jpg
334.745	0.81	correct	incongruent	Block1	incongruent/STIM_016.jpg
338.364	0.805	correct	incongruent	Block1	incongruent/STIM_016.jpg
342.217	0.835	correct	incongruent	Block1	incongruent/STIM_017.jpg
345.672	1.191	correct	incongruent	Block1	incongruent/STIM_017.jpg
349.045	0.968	correct	incongruent	Block1	incongruent/STIM_017.jpg
354.008	1.237	incorrect	incongruent	Block1	incongruent/STIM_017.jpg
357.69	1.043	incorrect	incongruent	Block1	incongruent/STIM_017.jpg
362.363	1.106	correct	incongruent	Block1	incongruent/STIM_018.jpg
365.811	1.205	correct	incongruent	Block1	incongruent/STIM_018.jpg
369.705	0.683	correct	incongruent	Block1	incongruent/STIM_018.jpg
373.592	0.939	correct	incongruent	Block1	incongruent/STIM_018.jpg
376.875	0.774	correct	incongruent	Block1	incongruent/STIM_018.jpg
380.924	1.547	correct	incongruent	Block1	incongruent/STIM_019.jpg
385.331	1.352	correct	incongruent	Block1	incongruent/STIM_019.jpg
389.94	0.93	correct	incongruent	Block1	incongruent/STIM_019.jpg
393.962	0.91	correct	incongruent	Block1	incongruent/STIM_019.jpg
398.146	1.051	correct	incongruent	Block1	incongruent/STIM_019.jpg
402.507	1.021	correct	incongruent	Block1	incongruent/STIM_020.jpg
406.634	1.239	correct	incongruent	Block1	incongruent/STIM_020.jpg
410.738	0.765	correct	incongruent	Block1	incongruent/STIM_020.jpg
414.164	1.115	correct	incongruent	Block1	incongruent/STIM_020.jpg
417.785	0.617	correct	incongruent	Block1	incongruent/STIM_020.jpg
422.2	1.534	correct	incongruent	Block1	incongruent/STIM_021.jpg
427.18	1.288	correct	incongruent	Block1	incongruent/STIM_021.jpg
432.233	0.654	incorrect	incongruent	Block1	incongruent/STIM_021.jpg
436.633	0.715	correct	incongruent	Block1	incongruent/STIM_021.jpg
440.0	0.702	correct	incongruent	Block1	incongruent/STIM_021.jpg
444.669	1.382	correct	incongruent	Block1	incongruent/STIM_022.jpg
450.001	1.073	correct	incongruent	Block1	incongruent/STIM_022.jpg
453.419	0.967	correct	incongruent	Block1	incongruent/STIM_022.jpg
457.46	1.166	correct	incongruent	Block1	incongruent/STIM_022.jpg
461.024	1.047	incorrect	incongruent	Block1	incongruent/STIM_022.jpg
465.033	0.839	correct	incongruent	Block1	incongruent/STIM_023.jpg
468.812	1.084	correct	incongruent	Block1	incongruent/STIM_023.jpg
473.224	1.264	correct	incongruent	Block1	incongruent/STIM_023.jpg
476.791	0.778	correct	incongruent	Block1	incongruent/STIM_023.jpg
481.498	1.078	correct	incongruent	Block1	incongruent/STIM_023.jpg
486.506	1.427	correct	incongruent	Block1	incongruent/STIM_024.jpg
491.616	1.464	incorrect	incongruent	Block1	incongruent/STIM_024.jpg
496.401	0.832	correct	incongruent	Block1	incongruent/STIM_024.jpg
500.391	0.621	correct	incongruent	Block1	incongruent/STIM_024.jpg
504.006	0.688	correct	incongruent	Block1	incongruent/STIM_024.jpg
508.582	1.294	correct	incongruent	Block1	incongruent/STIM_025.jpg
513.498	1.151	incorrect	incongruent	Block1	incongruent/STIM_025.jpg
517.105	1.05	correct	incongruent	Block1	incongruent/STIM_025.jpg
521.986	0.804	correct	incongruent	Block1	incongruent/STIM_025.jpg
525.907	0.896	correct	incongruent	Block1	incongruent/STIM_025.jpg
528.944	0.909	correct	incongruent	Block1	incongruent/STIM_026.jpg
533.683	1.393	correct	incongruent	Block1	incongruent/STIM_026.jpg
538.13	0.758	correct	incongruent	Block1	incongruent/STIM_026.jpg
541.737	1.306	correct	incongruent	Block1	incongruent/STIM_026.jpg
547.038	1.025	correct	incongruent	Block1	incongruent/STIM_026.jpg
550.91	0.878	correct	incongruent	Block1	incongruent/STIM_027.jpg
553.858	1.429	correct	incongruent	Block1	incongruent/STIM_027.jpg
558.887	0.75	correct	incongruent	Block1	incongruent/STIM_027.jpg
561.867	0.898	correct	incongruent	Block1	incongruent/STIM_027.jpg
566.439	0.923	correct	incongruent	Block1	incongruent/STIM_027.jpg
570.582	0.954	correct	incongruent	Block1	incongruent/STIM_028.jpg
573.92	1.024	correct	incongruent	Block1	incongruent/STIM_028.jpg
578.531	0.84	correct	incongruent	Block1	incongruent/STIM_028.jpg
581.89	0.622	correct	incongruent	Block1	incongruent/STIM_028.jpg
584.74	0.835	correct	incongruent	Block1	incongruent/STIM_028.jpg
589.541	0.797	incorrect	incongruent	Block1	incongruent/STIM_029.jpg
593.526	1.015	correct	incongruent	Block1	incongruent/STIM_029.jpg
597.398	1.111	incorrect	incongruent	Block1	incongruent/STIM_029.jpg
601.499	1.07	correct	incongruent	Block1	incongruent/STIM_029.jpg
606.457	1.2	correct	incongruent	Block1	incongruent/STIM_029.jpg
609.895	0.891	correct	congruent	Block1	congruent/STIM_000.jpg
612.867	0.651	correct	congruent	Block1	congruent/STIM_000.jpg
616.042	0.553	correct	congruent	Block1	congruent/STIM_000.jpg
620.486	0.642	correct	congruent	Block1	congruent/STIM_000.jpg
623.702	0.921	correct	congruent	Block1	congruent/STIM_000.jpg
628.265	0.829	correct	congruent	Block1	congruent/STIM_001.jpg
632.456	0.694	correct	congruent	Block1	congruent/STIM_001.jpg
635.425	0.757	correct	congruent	Block1	congruent/STIM_001.jpg
638.668	0.925	correct	congruent	Block1	congruent/STIM_001.jpg
642.5	0.728	correct	congruent	Block1	congruent/STIM_001.jpg
645.662	0.768	correct	congruent	Block1	congruent/STIM_002.jpg
650.172	0.857	correct	congruent	Block1	congruent/STIM_002.jpg
654.951	0.822	correct	congruent	Block1	congruent/STIM_002.jpg
658.748	0.779	correct	congruent	Block1	congruent/STIM_002.jpg
662.519	0.808	correct	congruent	Block1	congruent/STIM_002.jpg
665.728	0.594	correct	congruent	Block1	congruent/STIM_003.jpg
670.086	0.774	correct	congruent	Block1	congruent/STIM_003.jpg
673.688	0.614	correct	congruent	Block1	congruent/STIM_003.jpg
677.753	0.612	correct	congruent	Block1	congruent/STIM_003.jpg
682.024	0.581	correct	congruent	Block1	congruent/STIM_003.jpg
685.805	0.612	correct	congruent	Block1	congruent/STIM_004.jpg
689.571	0.687	correct	congruent	Block1	congruent/STIM_004.jpg
692.296	0.923	correct	congruent	Block1	congruent/STIM_004.jpg
695.927	0.586	incorrect	congruent	Block1	congruent/STIM_004.jpg
698.66	0.633	correct	congruent	Block1	congruent/STIM_004.jpg
702.166	0.82	correct	congruent	Block1	congruent/STIM_005.jpg
705.129	0.758	incorrect	congruent	Block1	congruent/STIM_005.jpg
708.48	0.701	correct	congruent	Block1	congruent/STIM_005.jpg
712.455	0.76	correct	congruent	Block1	congruent/STIM_005.jpg
716.692	0.549	incorrect	congruent	Block1	congruent/STIM_005.jpg
720.966	0.541	correct	congruent	Block1	congruent/STIM_006.jpg
724.23	0.88	incorrect	congruent	Block1	congruent/STIM_006.jpg
727.841	0.633	correct	congruent	Block1	congruent/STIM_006.jpg
731.937	0.698	incorrect	congruent	Block1	congruent/STIM_006.jpg
736.469	0.877	correct	congruent	Block1	congruent/STIM_006.jpg
740.249	0.785	correct	congruent	Block1	congruent/STIM_007.jpg
743.339	0.563	correct	congruent	Block1	congruent/STIM_007.jpg
746.702	0.808	correct	congruent	Block1	congruent/STIM_007.jpg
751.305	0.804	incorrect	congruent	Block1	congruent/STIM_007.jpg
755.676	0.718	correct	congruent	Block1	congruent/STIM_007.jpg
758.763	0.864	correct	congruent	Block1	congruent/STIM_008.jpg
762.739	0.539	correct	congruent	Block1	congruent/STIM_008.jpg
767.273	0.529	correct	congruent	Block1	congruent/STIM_008.jpg
770.732	0.663	incorrect	congruent	Block1	congruent/STIM_008.jpg
774.427	0.836	correct	congruent	Block1	congruent/STIM_008.jpg
777.577	0.54	correct	congruent	Block1	congruent/STIM_009.jpg
780.676	0.691	correct	congruent	Block1	congruent/STIM_009.jpg
783.588	0.691	correct	congruent	Block1	congruent/STIM_009.jpg
787.844	0.52	correct	congruent	Block1	congruent/STIM_009.jpg
791.084	0.552	correct	congruent	Block1	congruent/STIM_009.jpg
795.04	0.93	correct	congruent	Block1	congruent/STIM_010.jpg
799.934	0.548	correct	congruent	Block1	congruent/STIM_010.jpg
802.536	0.799	correct	congruent	Block1	congruent/STIM_010.jpg
806.258	0.819	correct	congruent	Block1	congruent/STIM_010.jpg
810.985	0.922	incorrect	congruent	Block1	congruent/STIM_010.jpg
814.146	0.906	correct	congruent	Block1	congruent/STIM_011.jpg
817.489	0.768	correct	congruent	Block1	congruent/STIM_011.jpg
821.955	0.744	correct	congruent	Block1	congruent/STIM_011.jpg
826.548	0.668	correct	congruent	Block1	congruent/STIM_011.jpg
830.805	0.522	correct	congruent	Block1	congruent/STIM_011.jpg
833.928	0.893	correct	congruent	Block1	congruent/STIM_012.jpg
837.484	0.616	correct	congruent	Block1	congruent/STIM_012.jpg
841.296	0.828	correct	congruent	Block1	congruent/STIM_012.jpg
845.484	0.836	incorrect	congruent	Block1	congruent/STIM_012.jpg
850.276	0.816	correct	congruent	Block1	congruent/STIM_012.jpg
854.545	0.832	correct	congruent	Block1	congruent/STIM_013.jpg
858.117	0.584	incorrect	congruent	Block1	congruent/STIM_013.jpg
861.768	0.737	correct	congruent	Block1	congruent/STIM_013.jpg
865.575	0.546	correct	congruent	Block1	congruent/STIM_013.jpg
869.226	0.747	incorrect	congruent	Block1	congruent/STIM_013.jpg
872.522	0.67	correct	congruent	Block1	congruent/STIM_014.jpg
876.615	0.899	correct	congruent	Block1	congruent/STIM_014.jpg
879.963	0.918	correct	congruent	Block1	congruent/STIM_014.jpg
884.526	0.581	correct	congruent	Block1	congruent/STIM_014.jpg
888.468	0.926	correct	congruent	Block1	congruent/STIM_014.jpg
892.902	0.906	correct	congruent	Block1	congruent/STIM_015.jpg
897.437	0.841	correct	congruent	Block1	congruent/STIM_015.jpg
901.913	0.625	correct	congruent	Block1	congruent/STIM_015.jpg
904.8	0.709	correct	congruent	Block1	congruent/STIM_015.jpg
908.871	0.656	correct	congruent	Block1	congruent/STIM_015.jpg
913.364	0.622	correct	congruent	Block1	congruent/STIM_016.jpg
916.71	0.798	correct	congruent	Block1	congruent/STIM_016.jpg
920.855	0.6	correct	congruent	Block1	congruent/STIM_016.jpg
924.256	0.786	incorrect	congruent	Block1	congruent/STIM_016.jpg
927.81	0.843	correct	congruent	Block1	congruent/STIM_016.jpg
932.102	0.769	correct	congruent	Block1	congruent/STIM_017.jpg
934.89	0.926	correct	congruent	Block1	congruent/STIM_017.jpg
938.696	0.703	correct	congruent	Block1	congruent/STIM_017.jpg
941.439	0.529	correct	congruent	Block1	congruent/STIM_017.jpg
944.447	0.868	correct	congruent	Block1	congruent/STIM_017.jpg
949.083	0.572	incorrect	congruent	Block1	congruent/STIM_018.jpg
952.433	0.614	correct	congruent	Block1	congruent/STIM_018.jpg
956.837	0.604	correct	congruent	Block1	congruent/STIM_018.jpg
959.712	0.529	correct	congruent	Block1	congruent/STIM_018.jpg
962.825	0.815	correct	congruent	Block1	congruent/STIM_018.jpg
966.69	0.546	correct	congruent	Block1	congruent/STIM_019.jpg
969.806	0.879	correct	congruent	Block1	congruent/STIM_019.jpg
973.317	0.865	correct	congruent	Block1	congruent/STIM_019.jpg
977.337	0.925	correct	congruent	Block1	congruent/STIM_019.jpg
981.372	0.891	correct	congruent	Block1	congruent/STIM_019.jpg
985.003	0.829	correct	congruent	Block1	congruent/STIM_020.jpg
989.756	0.86	correct	congruent	Block1	congruent/STIM_020.jpg
993.035	0.768	correct	congruent	Block1	congruent/STIM_020.jpg
996.894	0.876	correct	congruent	Block1	congruent/STIM_020.jpg
1001.592	0.541	correct	congruent	Block1	congruent/STIM_020.jpg
1004.429	0.905	correct	congruent	Block1	congruent/STIM_021.jpg
1007.412	0.576	correct	congruent	Block1	congruent/STIM_021.jpg
1011.033	0.931	correct	congruent	Block1	congruent/STIM_021.jpg
1015.122	0.843	correct	congruent	Block1	congruent/STIM_021.jpg
1018.813	0.58	correct	congruent	Block1	congruent/STIM_021.jpg
1021.697	0.627	correct	congruent	Block1	congruent/STIM_022.jpg
1026.262	0.829	correct	congruent	Block1	congruent/STIM_022.jpg
1030.203	0.821	correct	congruent	Block1	congruent/STIM_022.jpg
1033.723	0.645	correct	congruent	Block1	congruent/STIM_022.jpg
1037.448	0.67	correct	congruent	Block1	congruent/STIM_022.jpg
1040.864	0.688	correct	congruent	Block1	congruent/STIM_023.jpg
1044.115	0.542	correct	congruent	Block1	congruent/STIM_023.jpg
1046.764	0.537	correct	congruent	Block1	congruent/STIM_023.jpg
1051.301	0.607	correct	congruent	Block1	congruent/STIM_023.jpg
1054.316	0.887	correct	congruent	Block1	congruent/STIM_023.jpg
1058.01	0.533	correct	congruent	Block1	congruent/STIM_024.jpg
1062.217	0.612	correct	congruent	Block1	congruent/STIM_024.jpg
1066.37	0.744	correct	congruent	Block1	congruent/STIM_024.jpg
1069.579	0.814	correct	congruent	Block1	congruent/STIM_024.jpg
1072.807	0.669	correct	congruent	Block1	congruent/STIM_024.jpg
1077.201	0.798	correct	congruent	Block1	congruent/STIM_025.jpg
1081.461	0.746	incorrect	congruent	Block1	congruent/STIM_025.jpg
1084.383	0.638	incorrect	congruent	Block1	congruent/STIM_025.jpg
1087.871	0.869	correct	congruent	Block1	congruent/STIM_025.jpg
1091.859	0.608	correct	congruent	Block1	congruent/STIM_025.jpg
1095.996	0.918	correct	congruent	Block1	congruent/STIM_026.jpg
1099.059	0.797	correct	congruent	Block1	congruent/STIM_026.jpg
1102.821	0.636	correct	congruent	Block1	congruent/STIM_026.jpg
1106.865	0.639	correct	congruent	Block1	congruent/STIM_026.jpg
1110.772	0.698	correct	congruent	Block1	congruent/STIM_026.jpg
1114.133	0.653	correct	congruent	Block1	congruent/STIM_027.jpg
1118.021	0.572	correct	congruent	Block1	congruent/STIM_027.jpg
1121.132	0.585	correct	congruent	Block1	congruent/STIM_027.jpg
1124.865	0.902	correct	congruent	Block1	congruent/STIM_027.jpg
1129.402	0.837	correct	congruent	Block1	congruent/STIM_027.jpg
1133.184	0.798	incorrect	congruent	Block1	congruent/STIM_028.jpg
1136.957	0.843	correct	congruent	Block1	congruent/STIM_028.jpg
1141.48	0.525	correct	congruent	Block1	congruent/STIM_028.jpg
1145.833	0.657	correct	congruent	Block1	congruent/STIM_028.jpg
1148.64	0.826	incorrect	congruent	Block1	congruent/STIM_028.jpg
1152.183	0.769	correct	congruent	Block1	congruent/STIM_029.jpg
1155.674	0.835	correct	congruent	Block1	congruent/STIM_029.jpg
1159.161	0.597	correct	congruent	Block1	congruent/STIM_029.jpg
1161.871	0.748	incorrect	congruent	Block1	congruent/STIM_029.jpg
1165.162	0.864	correct	congruent	Block1	congruent/STIM_029.jpg
1168.131	1.164	correct	incongruent	Block2	incongruent/STIM_000.jpg
1172.083	0.78	incorrect	incongruent	Block2	incongruent/STIM_000.jpg
1176.033	0.768	correct	incongruent	Block2	incongruent/STIM_000.jpg
1179.066	0.528	correct	incongruent	Block2	incongruent/STIM_000.jpg
1182.241	0.548	correct	incongruent	Block2	incongruent/STIM_000.jpg
1186.469	1.084	correct	incongruent	Block2	incongruent/STIM_001.jpg
1190.051	0.892	incorrect	incongruent	Block2	incongruent/STIM_001.jpg
1193.117	0.784	correct	incongruent	Block2	incongruent/STIM_001.jpg
1197.565	0.514	correct	incongruent	Block2	incongruent/STIM_001.jpg
1202.053	0.613	correct	incongruent	Block2	incongruent/STIM_001.jpg
1206.147	0.942	correct	incongruent	Block2	incongruent/STIM_002.jpg
1210.712	1.038	correct	incongruent	Block2	incongruent/STIM_002.jpg
1215.406	0.569	correct	incongruent	Block2	incongruent/STIM_002.jpg
1218.176	0.717	correct	incongruent	Block2	incongruent/STIM_002.jpg
1222.438	0.82	correct	incongruent	Block2	incongruent/STIM_002.jpg
1225.994	1.003	correct	incongruent	Block2	incongruent/STIM_003.jpg
1229.936	0.765	correct	incongruent	Block2	incongruent/STIM_003.jpg
1234.475	0.885	correct	incongruent	Block2	incongruent/STIM_003.jpg
1237.644	0.839	correct	incongruent	Block2	incongruent/STIM_003.jpg
1241.173	0.731	correct	incongruent	Block2	incongruent/STIM_003.jpg
1244.548	0.672	correct	incongruent	Block2	incongruent/STIM_004.jpg
1247.411	0.93	correct	incongruent	Block2	incongruent/STIM_004.jpg
1251.71	1.148	correct	incongruent	Block2	incongruent/STIM_004.jpg
1255.831	0.674	correct	incongruent	Block2	incongruent/STIM_004.jpg
1259.172	1.009	correct	incongruent	Block2	incongruent/STIM_004.jpg
1262.939	0.888	correct	incongruent	Block2	incongruent/STIM_005.jpg
1267.464	0.706	correct	incongruent	Block2	incongruent/STIM_005.jpg
1272.079	0.625	correct	incongruent	Block2	incongruent/STIM_005.jpg
1276.659	0.573	correct	incongruent	Block2	incongruent/STIM_005.jpg
1280.029	0.927	correct	incongruent	Block2	incongruent/STIM_005.jpg
1284.228	1.091	correct	incongruent	Block2	incongruent/STIM_006.jpg
1288.03	1.009	correct	incongruent	Block2	incongruent/STIM_006.jpg
1292.703	0.719	correct	incongruent	Block2	incongruent/STIM_006.jpg
1295.551	0.973	correct	incongruent	Block2	incongruent/STIM_006.jpg
1300.074	0.838	correct	incongruent	Block2	incongruent/STIM_006.jpg
1304.155	0.936	correct	incongruent	Block2	incongruent/STIM_007.jpg
1307.178	0.857	incorrect	incongruent	Block2	incongruent/STIM_007.jpg
1310.826	1.158	correct	incongruent	Block2	incongruent/STIM_007.jpg
1315.281	0.644	correct	incongruent	Block2	incongruent/STIM_007.jpg
1318.889	0.694	correct	incongruent	Block2	incongruent/STIM_007.jpg
1322.111	0.78	correct	incongruent	Block2	incongruent/STIM_008.jpg
1326.119	0.602	correct	incongruent	Block2	incongruent/STIM_008.jpg
1329.263	0.82	correct	incongruent	Block2	incongruent/STIM_008.jpg
1332.518	0.811	correct	incongruent	Block2	incongruent/STIM_008.jpg
1335.362	0.738	correct	incongruent	Block2	incongruent/STIM_008.jpg
1339.685	0.97	correct	incongruent	Block2	incongruent/STIM_009.jpg
1342.846	0.824	correct	incongruent	Block2	incongruent/STIM_009.jpg
1347.048	0.599	correct	incongruent	Block2	incongruent/STIM_009.jpg
1351.374	0.543	correct	incongruent	Block2	incongruent/STIM_009.jpg
1354.136	0.708	correct	incongruent	Block2	incongruent/STIM_009.jpg
1358.272	1.27	incorrect	incongruent	Block2	incongruent/STIM_010.jpg
1362.196	1.152	correct	incongruent	Block2	incongruent/STIM_010.jpg
1365.391	0.803	correct	incongruent	Block2	incongruent/STIM_010.jpg
1369.135	1.083	correct	incongruent	Block2	incongruent/STIM_010.jpg
1373.906	0.85	correct	incongruent	Block2	incongruent/STIM_010.jpg
1376.985	1.161	correct	incongruent	Block2	incongruent/STIM_011.jpg
1381.783	0.931	correct	incongruent	Block2	incongruent/STIM_011.jpg
1385.705	0.96	correct	incongruent	Block2	incongruent/STIM_011.jpg
1389.439	0.805	correct	incongruent	Block2	incongruent/STIM_011.jpg
1392.435	1.076	correct	incongruent	Block2	incongruent/STIM_011.jpg
1395.628	0.901	correct	incongruent	Block2	incongruent/STIM_012.jpg
1398.561	1.007	correct	incongruent	Block2	incongruent/STIM_012.jpg
1403.269	0.7	correct	incongruent	Block2	incongruent/STIM_012.jpg
1406.741	1.014	correct	incongruent	Block2	incongruent/STIM_012.jpg
1411.321	0.992	correct	incongruent	Block2	incongruent/STIM_012.jpg
1415.117	1.062	correct	incongruent	Block2	incongruent/STIM_013.jpg
1420.038	0.629	correct	incongruent	Block2	incongruent/STIM_013.jpg
1424.464	0.98	correct	incongruent	Block2	incongruent/STIM_013.jpg
1428.534	0.628	correct	incongruent	Block2	incongruent/STIM_013.jpg
1431.883	0.565	correct	incongruent	Block2	incongruent/STIM_013.jpg
1434.502	1.318	incorrect	incongruent	Block2	incongruent/STIM_014.jpg
1439.447	1.237	correct	incongruent	Block2	incongruent/STIM_014.jpg
1444.061	0.99	correct	incongruent	Block2	incongruent/STIM_014.jpg
1448.411	0.896	correct	incongruent	Block2	incongruent/STIM_014.jpg
1451.977	0.916	correct	incongruent	Block2	incongruent/STIM_014.jpg
1455.144	1.265	correct	incongruent	Block2	incongruent/STIM_015.jpg
1459.826	0.758	correct	incongruent	Block2	incongruent/STIM_015.jpg
1462.783	0.897	correct	incongruent	Block2	incongruent/STIM_015.jpg
1467.443	0.538	correct	incongruent	Block2	incongruent/STIM_015.jpg
1471.799	1.031	correct	incongruent	Block2	incongruent/STIM_015.jpg
1476.05	1.087	correct	incongruent	Block2	incongruent/STIM_016.jpg
1480.847	1.047	correct	incongruent	Block2	incongruent/STIM_016.jpg
1484.439	1.159	correct	incongruent	Block2	incongruent/STIM_016.jpg
1488.047	1.044	correct	incongruent	Block2	incongruent/STIM_016.jpg
1492.764	0.639	correct	incongruent	Block2	incongruent/STIM_016.jpg
1496.641	1.23	correct	incongruent	Block2	incongruent/STIM_017.jpg
1500.778	0.715	correct	incongruent	Block2	incongruent/STIM_017.jpg
1504.872	0.698	correct	incongruent	Block2	incongruent/STIM_017.jpg
1507.598	0.845	correct	incongruent	Block2	incongruent/STIM_017.jpg
1511.784	0.975	correct	incongruent	Block2	incongruent/STIM_017.jpg
1515.148	1.117	correct	incongruent	Block2	incongruent/STIM_018.jpg
1519.821	1.034	correct	incongruent	Block2	incongruent/STIM_018.jpg
1524.657	1.028	incorrect	incongruent	Block2	incongruent/STIM_018.jpg
1528.233	0.681	correct	incongruent	Block2	incongruent/STIM_018.jpg
1532.406	0.507	correct	incongruent	Block2	incongruent/STIM_018.jpg
1535.266	1.167	correct	incongruent	Block2	incongruent/STIM_019.jpg
1539.891	0.721	correct	incongruent	Block2	incongruent/STIM_019.jpg
1542.937	0.703	correct	incongruent	Block2	incongruent/STIM_019.jpg
1546.655	0.848	correct	incongruent	Block2	incongruent/STIM_019.jpg
1549.647	0.676	incorrect	incongruent	Block2	incongruent/STIM_019.jpg
1552.613	0.867	correct	incongruent	Block2	incongruent/STIM_020.jpg
1556.072	1.231	correct	incongruent	Block2	incongruent/STIM_020.jpg
1560.267	1.029	correct	incongruent	Block2	incongruent/STIM_020.jpg
1563.462	0.855	correct	incongruent	Block2	incongruent/STIM_020.jpg
1566.568	0.808	correct	incongruent	Block2	incongruent/STIM_020.jpg
1569.788	1.202	correct	incongruent	Block2	incongruent/STIM_021.jpg
1574.506	1.09	correct	incongruent	Block2	incongruent/STIM_021.jpg
1578.362	1.159	correct	incongruent	Block2	incongruent/STIM_021.jpg
1581.618	0.894	correct	incongruent	Block2	incongruent/STIM_021.jpg
1585.828	0.869	correct	incongruent	Block2	incongruent/STIM_021.jpg
1590.365	1.085	correct	incongruent	Block2	incongruent/STIM_022.jpg
1594.206	1.205	correct	incongruent	Block2	incongruent/STIM_022.jpg
1599.193	0.685	correct	incongruent	Block2	incongruent/STIM_022.jpg
1602.813	0.813	correct	incongruent	Block2	incongruent/STIM_022.jpg
1606.816	0.888	correct	incongruent	Block2	incongruent/STIM_022.jpg
1611.416	1.243	incorrect	incongruent	Block2	incongruent/STIM_023.jpg
1615.119	0.786	correct	incongruent	Block2	incongruent/STIM_023.jpg
1619.554	1.144	correct	incongruent	Block2	incongruent/STIM_023.jpg
1622.978	0.922	correct	incongruent	Block2	incongruent/STIM_023.jpg
1626.367	0.944	correct	incongruent	Block2	incongruent/STIM_023.jpg
1630.837	1.256	correct	incongruent	Block2	incongruent/STIM_024.jpg
1635.19	0.588	correct	incongruent	Block2	incongruent/STIM_024.jpg
1638.068	0.699	correct	incongruent	Block2	incongruent/STIM_024.jpg
1641.643	1.065	correct	incongruent	Block2	incongruent/STIM_024.jpg
1646.271	0.516	correct	incongruent	Block2	incongruent/STIM_024.jpg
1650.336	0.981	incorrect	incongruent	Block2	incongruent/STIM_025.jpg
1654.613	0.73	correct	incongruent	Block2	incongruent/STIM_025.jpg
1658.184	0.854	correct	incongruent	Block2	incongruent/STIM_025.jpg
1661.76	0.605	correct	incongruent	Block2	incongruent/STIM_025.jpg
1665.649	0.856	correct	incongruent	Block2	incongruent/STIM_025.jpg
1670.283	0.728	incorrect	incongruent	Block2	incongruent/STIM_026.jpg
1674.878	0.586	correct	incongruent	Block2	incongruent/STIM_026.jpg
1678.554	0.738	correct	incongruent	Block2	incongruent/STIM_026.jpg
1682.23	0.655	incorrect	incongruent	Block2	incongruent/STIM_026.jpg
1685.186	0.687	correct	incongruent	Block2	incongruent/STIM_026.jpg
1688.278	1.298	correct	incongruent	Block2	incongruent/STIM_027.jpg
1693.21	1.038	correct	incongruent	Block2	incongruent/STIM_027.jpg
1698.006	0.679	correct	incongruent	Block2	incongruent/STIM_027.jpg
1701.111	0.791	correct	incongruent	Block2	incongruent/STIM_027.jpg
1705.004	0.947	correct	incongruent	Block2	incongruent/STIM_027.jpg
1709.329	0.708	correct	incongruent	Block2	incongruent/STIM_028.jpg
1712.641	1.046	correct	incongruent	Block2	incongruent/STIM_028.jpg
1716.779	0.934	correct	incongruent	Block2	incongruent/STIM_028.jpg
1720.257	0.803	correct	incongruent	Block2	incongruent/STIM_028.jpg
1724.937	0.834	correct	incongruent	Block2	incongruent/STIM_028.jpg
1727.868	1.235	correct	incongruent	Block2	incongruent/STIM_029.jpg
1732.014	0.935	correct	incongruent	Block2	incongruent/STIM_029.jpg
1735.983	1.023	incorrect	incongruent	Block2	incongruent/STIM_029.jpg
1739.458	0.997	correct	incongruent	Block2	incongruent/STIM_029.jpg
1742.693	1.02	correct	incongruent	Block2	incongruent/STIM_029.jpg
1746.108	0.758	correct	congruent	Block2	congruent/STIM_000.jpg
1749.375	0.559	correct	congruent	Block2	congruent/STIM_000.jpg
1753.918	0.818	correct	congruent	Block2	congruent/STIM_000.jpg
1758.38	0.715	correct	congruent	Block2	congruent/STIM_000.jpg
1761.447	0.874	correct	congruent	Block2	congruent/STIM_000.jpg
1765.951	0.538	correct	congruent	Block2	congruent/STIM_001.jpg
1769.974	0.772	correct	congruent	Block2	congruent/STIM_001.jpg
1774.493	0.561	correct	congruent	Block2	congruent/STIM_001.jpg
1777.618	0.731	correct	congruent	Block2	congruent/STIM_001.jpg
1780.626	0.628	correct	congruent	Block2	congruent/STIM_001.jpg
1784.907	0.602	correct	congruent	Block2	congruent/STIM_002.jpg
1788.34	0.87	correct	congruent	Block2	congruent/STIM_002.jpg
1793.175	0.836	correct	congruent	Block2	congruent/STIM_002.jpg
1796.421	0.787	correct	congruent	Block2	congruent/STIM_002.jpg
1799.934	0.763	correct	congruent	Block2	congruent/STIM_002.jpg
1803.787	0.694	correct	congruent	Block2	congruent/STIM_003.jpg
1808.002	0.572	correct	congruent	Block2	congruent/STIM_003.jpg
1812.398	0.826	correct	congruent	Block2	congruent/STIM_003.jpg
1815.723	0.735	correct	congruent	Block2	congruent/STIM_003.jpg
1820.153	0.529	correct	congruent	Block2	congruent/STIM_003.jpg
1823.966	0.681	correct	congruent	Block2	congruent/STIM_004.jpg
1827.545	0.696	correct	congruent	Block2	congruent/STIM_004.jpg
1831.96	0.654	correct	congruent	Block2	congruent/STIM_004.jpg
1835.563	0.875	correct	congruent	Block2	congruent/STIM_004.jpg
1839.644	0.558	correct	congruent	Block2	congruent/STIM_004.jpg
1843.473	0.61	correct	congruent	Block2	congruent/STIM_005.jpg
1846.477	0.738	correct	congruent	Block2	congruent/STIM_005.jpg
1851.058	0.62	correct	congruent	Block2	congruent/STIM_005.jpg
1853.753	0.556	correct	congruent	Block2	congruent/STIM_005.jpg
1856.708	0.756	correct	congruent	Block2	congruent/STIM_005.jpg
1860.642	0.579	correct	congruent	Block2	congruent/STIM_006.jpg
1864.375	0.608	correct	congruent	Block2	congruent/STIM_006.jpg
1868.908	0.777	correct	congruent	Block2	congruent/STIM_006.jpg
1873.545	0.609	correct	congruent	Block2	congruent/STIM_006.jpg
1878.027	0.65	correct	congruent	Block2	congruent/STIM_006.jpg
1881.12	0.677	correct	congruent	Block2	congruent/STIM_007.jpg
1885.066	0.643	correct	congruent	Block2	congruent/STIM_007.jpg
1888.536	0.706	correct	congruent	Block2	congruent/STIM_007.jpg
1891.545	0.832	correct	congruent	Block2	congruent/STIM_007.jpg
1894.752	0.778	correct	congruent	Block2	congruent/STIM_007.jpg
1899.276	0.605	correct	congruent	Block2	congruent/STIM_008.jpg
1903.7	0.68	correct	congruent	Block2	congruent/STIM_008.jpg
1906.402	0.731	correct	congruent	Block2	congruent/STIM_008.jpg
1909.302	0.58	correct	congruent	Block2	congruent/STIM_008.jpg
1912.432	0.556	incorrect	congruent	Block2	congruent/STIM_008.jpg
1915.714	0.835	correct	congruent	Block2	congruent/STIM_009.jpg
1919.277	0.782	correct	congruent	Block2	congruent/STIM_009.jpg
1922.122	0.538	correct	congruent	Block2	congruent/STIM_009.jpg
1924.905	0.888	correct	congruent	Block2	congruent/STIM_009.jpg
1928.158	0.602	correct	congruent	Block2	congruent/STIM_009.jpg
1931.395	0.842	correct	congruent	Block2	congruent/STIM_010.jpg
1935.707	0.627	incorrect	congruent	Block2	congruent/STIM_010.jpg
1939.126	0.626	correct	congruent	Block2	congruent/STIM_010.jpg
1943.192	0.783	correct	congruent	Block2	congruent/STIM_010.jpg
1946.891	0.738	correct	congruent	Block2	congruent/STIM_010.jpg
1951.343	0.744	correct	congruent	Block2	congruent/STIM_011.jpg
1954.709	0.662	correct	congruent	Block2	congruent/STIM_011.jpg
1959.109	0.634	correct	congruent	Block2	congruent/STIM_011.jpg
1962.782	0.727	correct	congruent	Block2	congruent/STIM_011.jpg
1966.493	0.835	correct	congruent	Block2	congruent/STIM_011.jpg
1970.983	0.526	incorrect	congruent	Block2	congruent/STIM_012.jpg
1974.791	0.588	correct	congruent	Block2	congruent/STIM_012.jpg
1977.894	0.861	correct	congruent	Block2	congruent/STIM_012.jpg
1982.112	0.856	correct	congruent	Block2	congruent/STIM_012.jpg
1986.843	0.565	incorrect	congruent	Block2	congruent/STIM_012.jpg
1989.665	0.613	correct	congruent	Block2	congruent/STIM_013.jpg
1992.874	0.83	correct	congruent	Block2	congruent/STIM_013.jpg
1996.66	0.768	correct	congruent	Block2	congruent/STIM_013.jpg
2000.992	0.828	correct	congruent	Block2	congruent/STIM_013.jpg
2005.181	0.711	correct	congruent	Block2	congruent/STIM_013.jpg
2008.707	0.568	correct	congruent	Block2	congruent/STIM_014.jpg
2011.838	0.789	correct	congruent	Block2	congruent/STIM_014.jpg
2015.733	0.724	correct	congruent	Block2	congruent/STIM_014.jpg
2018.875	0.651	correct	congruent	Block2	congruent/STIM_014.jpg
2022.263	0.709	correct	congruent	Block2	congruent/STIM_014.jpg
2026.941	0.62	correct	congruent	Block2	congruent/STIM_015.jpg
2029.837	0.648	incorrect	congruent	Block2	congruent/STIM_015.jpg
2033.74	0.893	incorrect	congruent	Block2	congruent/STIM_015.jpg
2038.333	0.884	correct	congruent	Block2	congruent/STIM_015.jpg
2042.926	0.525	correct	congruent	Block2	congruent/STIM_015.jpg
2047.378	0.673	correct	congruent	Block2	congruent/STIM_016.jpg
2050.786	0.667	correct	congruent	Block2	congruent/STIM_016.jpg
2053.541	0.524	correct	congruent	Block2	congruent/STIM_016.jpg
2057.306	0.567	correct	congruent	Block2	congruent/STIM_016.jpg
2060.601	0.665	correct	congruent	Block2	congruent/STIM_016.jpg
2064.128	0.69	correct	congruent	Block2	congruent/STIM_017.jpg
2068.646	0.79	correct	congruent	Block2	congruent/STIM_017.jpg
2071.94	0.805	correct	congruent	Block2	congruent/STIM_017.jpg
2075.599	0.663	correct	congruent	Block2	congruent/STIM_017.jpg
2078.872	0.657	correct	congruent	Block2	congruent/STIM_017.jpg
2081.744	0.651	correct	congruent	Block2	congruent/STIM_018.jpg
2086.198	0.593	correct	congruent	Block2	congruent/STIM_018.jpg
2088.863	0.824	correct	congruent	Block2	congruent/STIM_018.jpg
2091.817	0.731	correct	congruent	Block2	congruent/STIM_018.jpg
2095.626	0.528	correct	congruent	Block2	congruent/STIM_018.jpg
2099.027	0.666	correct	congruent	Block2	congruent/STIM_019.jpg
2102.457	0.528	correct	congruent	Block2	congruent/STIM_019.jpg
2105.981	0.86	correct	congruent	Block2	congruent/STIM_019.jpg
2110.118	0.538	correct	congruent	Block2	congruent/STIM_019.jpg
2114.149	0.633	incorrect	congruent	Block2	congruent/STIM_019.jpg
2116.943	0.907	correct	congruent	Block2	congruent/STIM_020.jpg
2121.494	0.839	correct	congruent	Block2	congruent/STIM_020.jpg
2126.092	0.54	incorrect	congruent	Block2	congruent/STIM_020.jpg
2129.521	0.842	correct	congruent	Block2	congruent/STIM_020.jpg
2134.265	0.542	correct	congruent	Block2	congruent/STIM_020.jpg
2137.861	0.733	incorrect	congruent	Block2	congruent/STIM_021.jpg
2141.31	0.885	correct	congruent	Block2	congruent/STIM_021.jpg
2144.378	0.769	incorrect	congruent	Block2	congruent/STIM_021.jpg
2147.756	0.62	correct	congruent	Block2	congruent/STIM_021.jpg
2151.511	0.607	correct	congruent	Block2	congruent/STIM_021.jpg
2155.453	0.594	correct	congruent	Block2	congruent/STIM_022.jpg
2158.674	0.836	correct	congruent	Block2	congruent/STIM_022.jpg
2161.597	0.698	correct	congruent	Block2	congruent/STIM_022.jpg
2166.204	0.664	correct	congruent	Block2	congruent/STIM_022.jpg
2169.344	0.716	incorrect	congruent	Block2	congruent/STIM_022.jpg
2173.86	0.868	correct	congruent	Block2	congruent/STIM_023.jpg
2177.741	0.805	correct	congruent	Block2	congruent/STIM_023.jpg
2181.248	0.559	correct	congruent	Block2	congruent/STIM_023.jpg
2185.58	0.787	correct	congruent	Block2	congruent/STIM_023.jpg
2188.693	0.538	correct	congruent	Block2	congruent/STIM_023.jpg
2193.007	0.703	correct	congruent	Block2	congruent/STIM_024.jpg
2196.615	0.72	correct	congruent	Block2	congruent/STIM_024.jpg
2201.094	0.6	correct	congruent	Block2	congruent/STIM_024.jpg
2204.93	0.697	correct	congruent	Block2	congruent/STIM_024.jpg
2209.561	0.675	incorrect	congruent	Block2	congruent/STIM_024.jpg
2213.424	0.601	correct	congruent	Block2	congruent/STIM_025.jpg
2217.343	0.913	correct	congruent	Block2	congruent/STIM_025.jpg
2220.265	0.7	correct	congruent	Block2	congruent/STIM_025.jpg
2224.882	0.56	correct	congruent	Block2	congruent/STIM_025.jpg
2227.746	0.663	correct	congruent	Block2	congruent/STIM_025.jpg
2230.52	0.772	correct	congruent	Block2	congruent/STIM_026.jpg
2234.595	0.662	correct	congruent	Block2	congruent/STIM_026.jpg
2239.12	0.751	correct	congruent	Block2	congruent/STIM_026.jpg
2241.897	0.678	correct	congruent	Block2	congruent/STIM_026.jpg
2246.154	0.625	correct	congruent	Block2	congruent/STIM_026.jpg
2249.886	0.683	correct	congruent	Block2	congruent/STIM_027.jpg
2253.402	0.702	correct	congruent	Block2	congruent/STIM_027.jpg
2256.564	0.524	correct	congruent	Block2	congruent/STIM_027.jpg
2259.627	0.702	correct	congruent	Block2	congruent/STIM_027.jpg
2263.66	0.913	correct	congruent	Block2	congruent/STIM_027.jpg
2266.778	0.82	correct	congruent	Block2	congruent/STIM_028.jpg
2270.172	0.908	correct	congruent	Block2	congruent/STIM_028.jpg
2273.908	0.767	correct	congruent	Block2	congruent/STIM_028.jpg
2277.049	0.73	correct	congruent	Block2	congruent/STIM_028.jpg
2280.961	0.861	correct	congruent	Block2	congruent/STIM_028.jpg
2285.244	0.872	correct	congruent	Block2	congruent/STIM_029.jpg
2289.253	0.59	correct	congruent	Block2	congruent/STIM_029.jpg
2292.829	0.638	correct	congruent	Block2	congruent/STIM_029.jpg
2296.673	0.542	correct	congruent	Block2	congruent/STIM_029.jpg
2299.785	0.546	correct	congruent	Block2	congruent/STIM_029.jpg
2304.12	0.804	correct	incongruent	Block3	incongruent/STIM_000.jpg
2307.545	1.03	correct	incongruent	Block3	incongruent/STIM_000.jpg
2311.067	0.654	correct	incongruent	Block3	incongruent/STIM_000.jpg
2314.235	0.89	correct	incongruent	Block3	incongruent/STIM_000.jpg
2318.444	0.755	correct	incongruent	Block3	incongruent/STIM_000.jpg
2322.965	0.707	correct	incongruent	Block3	incongruent/STIM_001.jpg
2326.227	0.72	correct	incongruent	Block3	incongruent/STIM_001.jpg
2330.705	0.871	correct	incongruent	Block3	incongruent/STIM_001.jpg
2333.792	0.75	correct	incongruent	Block3	incongruent/STIM_001.jpg
2337.413	0.655	correct	incongruent	Block3	incongruent/STIM_001.jpg
2341.467	0.962	correct	incongruent	Block3	incongruent/STIM_002.jpg
2345.094	0.96	correct	incongruent	Block3	incongruent/STIM_002.jpg
2349.347	0.969	correct	incongruent	Block3	incongruent/STIM_002.jpg
2353.722	0.803	correct	incongruent	Block3	incongruent/STIM_002.jpg
2358.358	1.072	correct	incongruent	Block3	incongruent/STIM_002.jpg
2362.509	0.528	correct	incongruent	Block3	incongruent/STIM_003.jpg
2365.729	0.595	correct	incongruent	Block3	incongruent/STIM_003.jpg
2369.085	0.963	correct	incongruent	Block3	incongruent/STIM_003.jpg
2372.932	0.698	correct	incongruent	Block3	incongruent/STIM_003.jpg
2376.417	0.518	correct	incongruent	Block3	incongruent/STIM_003.jpg
2379.925	0.716	correct	incongruent	Block3	incongruent/STIM_004.jpg
2383.239	0.9	correct	incongruent	Block3	incongruent/STIM_004.jpg
2386.308	0.576	correct	incongruent	Block3	incongruent/STIM_004.jpg
2389.094	1.008	correct	incongruent	Block3	incongruent/STIM_004.jpg
2393.593	0.7	correct	incongruent	Block3	incongruent/STIM_004.jpg
2396.335	0.744	correct	incongruent	Block3	incongruent/STIM_005.jpg
2399.394	0.903	correct	incongruent	Block3	incongruent/STIM_005.jpg
2402.486	1.077	incorrect	incongruent	Block3	incongruent/STIM_005.jpg
2406.889	0.598	correct	incongruent	Block3	incongruent/STIM_005.jpg
2411.172	0.667	correct	incongruent	Block3	incongruent/STIM_005.jpg
2415.048	0.858	correct	incongruent	Block3	incongruent/STIM_006.jpg
2419.416	0.847	correct	incongruent	Block3	incongruent/STIM_006.jpg
2423.801	0.7	correct	incongruent	Block3	incongruent/STIM_006.jpg
2426.761	0.95	correct	incongruent	Block3	incongruent/STIM_006.jpg
2430.725	0.721	correct	incongruent	Block3	incongruent/STIM_006.jpg
2435.008	0.516	correct	incongruent	Block3	incongruent/STIM_007.jpg
2438.899	0.847	correct	incongruent	Block3	incongruent/STIM_007.jpg
2443.084	0.838	correct	incongruent	Block3	incongruent/STIM_007.jpg
2446.977	0.867	correct	incongruent	Block3	incongruent/STIM_007.jpg
2451.038	0.745	correct	incongruent	Block3	incongruent/STIM_007.jpg
2453.855	0.956	correct	incongruent	Block3	incongruent/STIM_008.jpg
2458.274	0.799	correct	incongruent	Block3	incongruent/STIM_008.jpg
2462.871	0.572	correct	incongruent	Block3	incongruent/STIM_008.jpg
2466.588	0.662	correct	incongruent	Block3	incongruent/STIM_008.jpg
2469.347	0.748	correct	incongruent	Block3	incongruent/STIM_008.jpg
2473.018	0.762	incorrect	incongruent	Block3	incongruent/STIM_009.jpg
2476.22	0.828	correct	incongruent	Block3	incongruent/STIM_009.jpg
2479.111	0.812	correct	incongruent	Block3	incongruent/STIM_009.jpg
2482.049	0.664	correct	incongruent	Block3	incongruent/STIM_009.jpg
2485.997	0.926	correct	incongruent	Block3	incongruent/STIM_009.jpg
2489.511	0.831	correct	incongruent	Block3	incongruent/STIM_010.jpg
2493.993	0.703	incorrect	incongruent	Block3	incongruent/STIM_010.jpg
2497.709	0.558	correct	incongruent	Block3	incongruent/STIM_010.jpg
2500.62	0.767	correct	incongruent	Block3	incongruent/STIM_010.jpg
2503.962	0.683	correct	incongruent	Block3	incongruent/STIM_010.jpg
2506.851	0.644	correct	incongruent	Block3	incongruent/STIM_011.jpg
2510.944	0.569	correct	incongruent	Block3	incongruent/STIM_011.jpg
2513.671	0.953	correct	incongruent	Block3	incongruent/STIM_011.jpg
2518.378	0.568	correct	incongruent	Block3	incongruent/STIM_011.jpg
2521.418	0.603	correct	incongruent	Block3	incongruent/STIM_011.jpg
2524.729	0.582	correct	incongruent	Block3	incongruent/STIM_012.jpg
2528.738	0.962	correct	incongruent	Block3	incongruent/STIM_012.jpg
2532.293	1.08	correct	incongruent	Block3	incongruent/STIM_012.jpg
2536.114	0.543	correct	incongruent	Block3	incongruent/STIM_012.jpg
2538.892	0.927	correct	incongruent	Block3	incongruent/STIM_012.jpg
2542.053	0.627	correct	incongruent	Block3	incongruent/STIM_013.jpg
2545.988	0.785	correct	incongruent	Block3	incongruent/STIM_013.jpg
2549.622	0.606	correct	incongruent	Block3	incongruent/STIM_013.jpg
2553.077	0.555	correct	incongruent	Block3	incongruent/STIM_013.jpg
2555.983	0.774	correct	incongruent	Block3	incongruent/STIM_013.jpg
2558.798	1.049	correct	incongruent	Block3	incongruent/STIM_014.jpg
2563.309	0.699	correct	incongruent	Block3	incongruent/STIM_014.jpg
2566.403	0.736	correct	incongruent	Block3	incongruent/STIM_014.jpg
2570.145	0.954	correct	incongruent	Block3	incongruent/STIM_014.jpg
2573.111	1.079	correct	incongruent	Block3	incongruent/STIM_014.jpg
2576.994	0.931	correct	incongruent	Block3	incongruent/STIM_015.jpg
2579.95	1.026	correct	incongruent	Block3	incongruent/STIM_015.jpg
2583.445	0.609	correct	incongruent	Block3	incongruent/STIM_015.jpg
2587.005	0.936	correct	incongruent	Block3	incongruent/STIM_015.jpg
2591.494	0.553	correct	incongruent	Block3	incongruent/STIM_015.jpg
2594.52	0.61	correct	incongruent	Block3	incongruent/STIM_016.jpg
2597.749	0.54	correct	incongruent	Block3	incongruent/STIM_016.jpg
2600.945	0.81	correct	incongruent	Block3	incongruent/STIM_016.jpg
2605.414	0.617	correct	incongruent	Block3	incongruent/STIM_016.jpg
2609.607	0.557	correct	incongruent	Block3	incongruent/STIM_016.jpg
2612.344	1.011	correct	incongruent	Block3	incongruent/STIM_017.jpg
2617.15	0.612	incorrect	incongruent	Block3	incongruent/STIM_017.jpg
2619.774	1.014	correct	incongruent	Block3	incongruent/STIM_017.jpg
2623.426	0.677	correct	incongruent	Block3	incongruent/STIM_017.jpg
2627.42	0.853	correct	incongruent	Block3	incongruent/STIM_017.jpg
2631.24	0.706	correct	incongruent	Block3	incongruent/STIM_018.jpg
2635.755	0.868	correct	incongruent	Block3	incongruent/STIM_018.jpg
2639.859	0.707	correct	incongruent	Block3	incongruent/STIM_018.jpg
2644.248	0.664	correct	incongruent	Block3	incongruent/STIM_018.jpg
2647.331	0.687	correct	incongruent	Block3	incongruent/STIM_018.jpg
2650.646	0.681	correct	incongruent	Block3	incongruent/STIM_019.jpg
2653.643	0.788	correct	incongruent	Block3	incongruent/STIM_019.jpg
2657.466	0.877	correct	incongruent	Block3	incongruent/STIM_019.jpg
2661.264	1.075	correct	incongruent	Block3	incongruent/STIM_019.jpg
2664.881	0.948	correct	incongruent	Block3	incongruent/STIM_019.jpg
2668.376	0.833	correct	incongruent	Block3	incongruent/STIM_020.jpg
2672.201	1.068	correct	incongruent	Block3	incongruent/STIM_020.jpg
2677.047	0.736	correct	incongruent	Block3	incongruent/STIM_020.jpg
2680.841	0.764	correct	incongruent	Block3	incongruent/STIM_020.jpg
2684.33	0.724	correct	incongruent	Block3	incongruent/STIM_020.jpg
2688.59	0.676	correct	incongruent	Block3	incongruent/STIM_021.jpg
2691.805	1.021	correct	incongruent	Block3	incongruent/STIM_021.jpg
2696.74	0.789	correct	incongruent	Block3	incongruent/STIM_021.jpg
2701.443	1.079	correct	incongruent	Block3	incongruent/STIM_021.jpg
2706.463	0.924	correct	incongruent	Block3	incongruent/STIM_021.jpg
2710.313	0.73	correct	incongruent	Block3	incongruent/STIM_022.jpg
2714.896	0.627	correct	incongruent	Block3	incongruent/STIM_022.jpg
2717.843	0.563	correct	incongruent	Block3	incongruent/STIM_022.jpg
2720.523	0.81	correct	incongruent	Block3	incongruent/STIM_022.jpg
2723.431	0.607	correct	incongruent	Block3	incongruent/STIM_022.jpg
2727.44	0.547	correct	incongruent	Block3	incongruent/STIM_023.jpg
2731.95	1.057	correct	incongruent	Block3	incongruent/STIM_023.jpg
2735.357	0.809	correct	incongruent	Block3	incongruent/STIM_023.jpg
2739.556	0.593	correct	incongruent	Block3	incongruent/STIM_023.jpg
2743.669	0.859	correct	incongruent	Block3	incongruent/STIM_023.jpg
2748.424	1.04	correct	incongruent	Block3	incongruent/STIM_024.jpg
2752.406	0.593	correct	incongruent	Block3	incongruent/STIM_024.jpg
2755.638	0.58	correct	incongruent	Block3	incongruent/STIM_024.jpg
2758.452	0.66	correct	incongruent	Block3	incongruent/STIM_024.jpg
2761.877	1.012	correct	incongruent	Block3	incongruent/STIM_024.jpg
2766.057	0.589	correct	incongruent	Block3	incongruent/STIM_025.jpg
2769.928	0.604	correct	incongruent	Block3	incongruent/STIM_025.jpg
2773.311	1.079	correct	incongruent	Block3	incongruent/STIM_025.jpg
2777.31	0.73	correct	incongruent	Block3	incongruent/STIM_025.jpg
2781.454	0.967	correct	incongruent	Block3	incongruent/STIM_025.jpg
2786.281	0.605	correct	incongruent	Block3	incongruent/STIM_026.jpg
2789.225	0.8	correct	incongruent	Block3	incongruent/STIM_026.jpg
2793.015	0.725	correct	incongruent	Block3	incongruent/STIM_026.jpg
2797.501	0.578	correct	incongruent	Block3	incongruent/STIM_026.jpg
2801.394	0.908	correct	incongruent	Block3	incongruent/STIM_026.jpg
2804.858	0.828	correct	incongruent	Block3	incongruent/STIM_027.jpg
2808.113	0.934	correct	incongruent	Block3	incongruent/STIM_027.jpg
2812.101	0.657	correct	incongruent	Block3	incongruent/STIM_027.jpg
2815.525	1.021	correct	incongruent	Block3	incongruent/STIM_027.jpg
2819.708	0.602	correct	incongruent	Block3	incongruent/STIM_027.jpg
2822.743	0.651	correct	incongruent	Block3	incongruent/STIM_028.jpg
2825.426	1.068	correct	incongruent	Block3	incongruent/STIM_028.jpg
2829.07	0.782	correct	incongruent	Block3	incongruent/STIM_028.jpg
2832.841	0.716	correct	incongruent	Block3	incongruent/STIM_028.jpg
2837.516	1.055	correct	incongruent	Block3	incongruent/STIM_028.jpg
2841.233	0.99	correct	incongruent	Block3	incongruent/STIM_029.jpg
2844.325	0.789	correct	incongruent	Block3	incongruent/STIM_029.jpg
2847.182	0.922	correct	incongruent	Block3	incongruent/STIM_029.jpg
2850.893	0.795	correct	incongruent	Block3	incongruent/STIM_029.jpg
2854.432	1.055	correct	incongruent	Block3	incongruent/STIM_029.jpg
2859.462	0.652	correct	congruent	Block3	congruent/STIM_000.jpg
2862.779	0.873	correct	congruent	Block3	congruent/STIM_000.jpg
2866.903	0.738	correct	congruent	Block3	congruent/STIM_000.jpg
2870.76	0.652	correct	congruent	Block3	congruent/STIM_000.jpg
2874.492	0.694	correct	congruent	Block3	congruent/STIM_000.jpg
2878.354	0.615	correct	congruent	Block3	congruent/STIM_001.jpg
2881.715	0.896	correct	congruent	Block3	congruent/STIM_001.jpg
2885.62	0.917	correct	congruent	Block3	congruent/STIM_001.jpg
2890.202	0.756	correct	congruent	Block3	congruent/STIM_001.jpg
2894.447	0.833	correct	congruent	Block3	congruent/STIM_001.jpg
2897.382	0.887	correct	congruent	Block3	congruent/STIM_002.jpg
2901.77	0.538	correct	congruent	Block3	congruent/STIM_002.jpg
2904.947	0.86	correct	congruent	Block3	congruent/STIM_002.jpg
2907.96	0.766	correct	congruent	Block3	congruent/STIM_002.jpg
2911.47	0.777	correct	congruent	Block3	congruent/STIM_002.jpg
2915.34	0.645	correct	congruent	Block3	congruent/STIM_003.jpg
2919.185	0.752	correct	congruent	Block3	congruent/STIM_003.jpg
2922.022	0.543	correct	congruent	Block3	congruent/STIM_003.jpg
2925.397	0.667	correct	congruent	Block3	congruent/STIM_003.jpg
2928.18	0.684	correct	congruent	Block3	congruent/STIM_003.jpg
2931.52	0.869	correct	congruent	Block3	congruent/STIM_004.jpg
2934.617	0.613	correct	congruent	Block3	congruent/STIM_004.jpg
2938.396	0.832	incorrect	congruent	Block3	congruent/STIM_004.jpg
2941.477	0.753	correct	congruent	Block3	congruent/STIM_004.jpg
2945.611	0.775	correct	congruent	Block3	congruent/STIM_004.jpg
2949.408	0.9	correct	congruent	Block3	congruent/STIM_005.jpg
2952.745	0.564	incorrect	congruent	Block3	congruent/STIM_005.jpg
2956.762	0.616	correct	congruent	Block3	congruent/STIM_005.jpg
2959.427	0.681	correct	congruent	Block3	congruent/STIM_005.jpg
2962.972	0.575	correct	congruent	Block3	congruent/STIM_005.jpg
2966.647	0.783	correct	congruent	Block3	congruent/STIM_006.jpg
2971.111	0.888	incorrect	congruent	Block3	congruent/STIM_006.jpg
2974.383	0.567	correct	congruent	Block3	congruent/STIM_006.jpg
2978.64	0.659	correct	congruent	Block3	congruent/STIM_006.jpg
2981.717	0.565	incorrect	congruent	Block3	congruent/STIM_006.jpg
2985.846	0.547	incorrect	congruent	Block3	congruent/STIM_007.jpg
2990.097	0.75	correct	congruent	Block3	congruent/STIM_007.jpg
2992.985	0.834	correct	congruent	Block3	congruent/STIM_007.jpg
2997.166	0.634	correct	congruent	Block3	congruent/STIM_007.jpg
3000.416	0.859	correct	congruent	Block3	congruent/STIM_007.jpg
3003.757	0.779	correct	congruent	Block3	congruent/STIM_008.jpg
3007.286	0.703	correct	congruent	Block3	congruent/STIM_008.jpg
3011.459	0.854	correct	congruent	Block3	congruent/STIM_008.jpg
3015.226	0.816	correct	congruent	Block3	congruent/STIM_008.jpg
3018.224	0.831	correct	congruent	Block3	congruent/STIM_008.jpg
3022.442	0.91	correct	congruent	Block3	congruent/STIM_009.jpg
3026.667	0.85	correct	congruent	Block3	congruent/STIM_009.jpg
3030.444	0.875	correct	congruent	Block3	congruent/STIM_009.jpg
3034.198	0.592	incorrect	congruent	Block3	congruent/STIM_009.jpg
3037.585	0.884	correct	congruent	Block3	congruent/STIM_009.jpg
3042.246	0.927	correct	congruent	Block3	congruent/STIM_010.jpg
3046.567	0.557	correct	congruent	Block3	congruent/STIM_010.jpg
3049.882	0.761	correct	congruent	Block3	congruent/STIM_010.jpg
3052.902	0.843	correct	congruent	Block3	congruent/STIM_010.jpg
3056.217	0.55	correct	congruent	Block3	congruent/STIM_010.jpg
3060.105	0.704	correct	congruent	Block3	congruent/STIM_011.jpg
3063.647	0.824	correct	congruent	Block3	congruent/STIM_011.jpg
3066.564	0.747	correct	congruent	Block3	congruent/STIM_011.jpg
3069.591	0.592	incorrect	congruent	Block3	congruent/STIM_011.jpg
3073.726	0.788	correct	congruent	Block3	congruent/STIM_011.jpg
3076.649	0.671	correct	congruent	Block3	congruent/STIM_012.jpg
3080.062	0.906	correct	congruent	Block3	congruent/STIM_012.jpg
3084.784	0.658	correct	congruent	Block3	congruent/STIM_012.jpg
3087.783	0.644	correct	congruent	Block3	congruent/STIM_012.jpg
3090.645	0.538	correct	congruent	Block3	congruent/STIM_012.jpg
3094.843	0.787	incorrect	congruent	Block3	congruent/STIM_013.jpg
3098.413	0.661	correct	congruent	Block3	congruent/STIM_013.jpg
3101.298	0.642	incorrect	congruent	Block3	congruent/STIM_013.jpg
3105.909	0.695	correct	congruent	Block3	congruent/STIM_013.jpg
3108.814	0.917	correct	congruent	Block3	congruent/STIM_013.jpg
3113.304	0.776	correct	congruent	Block3	congruent/STIM_014.jpg
3116.432	0.82	correct	congruent	Block3	congruent/STIM_014.jpg
3120.828	0.669	correct	congruent	Block3	congruent/STIM_014.jpg
3123.761	0.566	correct	congruent	Block3	congruent/STIM_014.jpg
3126.673	0.692	incorrect	congruent	Block3	congruent/STIM_014.jpg
3129.551	0.893	correct	congruent	Block3	congruent/STIM_015.jpg
3133.232	0.696	correct	congruent	Block3	congruent/STIM_015.jpg
3137.899	0.802	correct	congruent	Block3	congruent/STIM_015.jpg
3141.643	0.913	correct	congruent	Block3	congruent/STIM_015.jpg
3145.582	0.528	correct	congruent	Block3	congruent/STIM_015.jpg
3149.672	0.734	correct	congruent	Block3	congruent/STIM_016.jpg
3153.953	0.699	correct	congruent	Block3	congruent/STIM_016.jpg
3157.057	0.566	correct	congruent	Block3	congruent/STIM_016.jpg
3160.582	0.678	correct	congruent	Block3	congruent/STIM_016.jpg
3164.802	0.72	correct	congruent	Block3	congruent/STIM_016.jpg
3168.312	0.914	correct	congruent	Block3	congruent/STIM_017.jpg
3173.176	0.663	correct	congruent	Block3	congruent/STIM_017.jpg
3176.614	0.547	correct	congruent	Block3	congruent/STIM_017.jpg
3179.468	0.811	correct	congruent	Block3	congruent/STIM_017.jpg
3183.207	0.782	correct	congruent	Block3	congruent/STIM_017.jpg
3187.346	0.559	correct	congruent	Block3	congruent/STIM_018.jpg
3191.779	0.634	correct	congruent	Block3	congruent/STIM_018.jpg
3195.928	0.595	correct	congruent	Block3	congruent/STIM_018.jpg
3200.39	0.686	correct	congruent	Block3	congruent/STIM_018.jpg
3203.221	0.891	correct	congruent	Block3	congruent/STIM_018.jpg
3206.937	0.85	correct	congruent	Block3	congruent/STIM_019.jpg
3210.483	0.87	correct	congruent	Block3	congruent/STIM_019.jpg
3214.549	0.558	correct	congruent	Block3	congruent/STIM_019.jpg
3217.746	0.628	correct	congruent	Block3	congruent/STIM_019.jpg
3221.961	0.761	correct	congruent	Block3	congruent/STIM_019.jpg
3225.492	0.795	correct	congruent	Block3	congruent/STIM_020.jpg
3229.638	0.532	correct	congruent	Block3	congruent/STIM_020.jpg
3232.531	0.848	correct	congruent	Block3	congruent/STIM_020.jpg
3237.118	0.612	correct	congruent	Block3	congruent/STIM_020.jpg
3241.633	0.576	correct	congruent	Block3	congruent/STIM_020.jpg
3244.934	0.869	correct	congruent	Block3	congruent/STIM_021.jpg
3248.472	0.916	correct	congruent	Block3	congruent/STIM_021.jpg
3252.104	0.57	correct	congruent	Block3	congruent/STIM_021.jpg
3255.246	0.812	correct	congruent	Block3	congruent/STIM_021.jpg
3258.226	0.651	correct	congruent	Block3	congruent/STIM_021.jpg
3261.645	0.726	correct	congruent	Block3	congruent/STIM_022.jpg
3265.941	0.587	correct	congruent	Block3	congruent/STIM_022.jpg
3270.01	0.573	correct	congruent	Block3	congruent/STIM_022.jpg
3273.654	0.669	correct	congruent	Block3	congruent/STIM_022.jpg
3277.316	0.555	incorrect	congruent	Block3	congruent/STIM_022.jpg
3279.952	0.62	correct	congruent	Block3	congruent/STIM_023.jpg
3284.016	0.734	correct	congruent	Block3	congruent/STIM_023.jpg
3288.037	0.785	correct	congruent	Block3	congruent/STIM_023.jpg
3291.873	0.745	correct	congruent	Block3	congruent/STIM_023.jpg
3295.314	0.645	correct	congruent	Block3	congruent/STIM_023.jpg
3299.025	0.857	correct	congruent	Block3	congruent/STIM_024.jpg
3302.784	0.847	correct	congruent	Block3	congruent/STIM_024.jpg
3306.556	0.822	correct	congruent	Block3	congruent/STIM_024.jpg
3310.931	0.923	correct	congruent	Block3	congruent/STIM_024.jpg
3314.825	0.601	correct	congruent	Block3	congruent/STIM_024.jpg
3318.811	0.54	correct	congruent	Block3	congruent/STIM_025.jpg
3322.689	0.93	correct	congruent	Block3	congruent/STIM_025.jpg
3325.913	0.886	correct	congruent	Block3	congruent/STIM_025.jpg
3328.969	0.777	correct	congruent	Block3	congruent/STIM_025.jpg
3332.915	0.801	correct	congruent	Block3	congruent/STIM_025.jpg
3337.576	0.74	correct	congruent	Block3	congruent/STIM_026.jpg
3342.026	0.861	correct	congruent	Block3	congruent/STIM_026.jpg
3345.658	0.564	correct	congruent	Block3	congruent/STIM_026.jpg
3350.073	0.57	correct	congruent	Block3	congruent/STIM_026.jpg
3353.665	0.732	correct	congruent	Block3	congruent/STIM_026.jpg
3357.529	0.546	correct	congruent	Block3	congruent/STIM_027.jpg
3361.808	0.586	correct	congruent	Block3	congruent/STIM_027.jpg
3365.621	0.924	correct	congruent	Block3	congruent/STIM_027.jpg
3368.98	0.701	correct	congruent	Block3	congruent/STIM_027.jpg
3372.351	0.898	correct	congruent	Block3	congruent/STIM_027.jpg
3375.404	0.669	correct	congruent	Block3	congruent/STIM_028.jpg
3379.693	0.547	correct	congruent	Block3	congruent/STIM_028.jpg
3383.586	0.915	correct	congruent	Block3	congruent/STIM_028.jpg
3386.971	0.545	correct	congruent	Block3	congruent/STIM_028.jpg
3390.539	0.63	correct	congruent	Block3	congruent/STIM_028.jpg
3394.859	0.606	correct	congruent	Block3	congruent/STIM_029.jpg
3399.168	0.901	correct	congruent	Block3	congruent/STIM_029.jpg
3402.925	0.575	correct	congruent	Block3	congruent/STIM_029.jpg
3405.931	0.697	correct	congruent	Block3	congruent/STIM_029.jpg
3409.429	0.872	correct	congruent	Block3	congruent/STIM_029.jpg
