onset	duration	accuracy_binary	trial_type	learning_stage	stimulus
0.0	1.124	0	incongruent	Block1	incongruent/STIM_000.jpg
4.878	1.202	1	incongruent	Block1	incongruent/STIM_000.jpg
9.96	0.905	1	incongruent	Block1	incongruent/STIM_000.jpg
14.097	1.041	1	incongruent	Block1	incongruent/STIM_000.jpg
17.363	0.859	1	incongruent	Block1	incongruent/STIM_000.jpg
20.879	0.762	1	incongruent	Block1	incongruent/STIM_001.jpg
23.727	1.136	1	incongruent	Block1	incongruent/STIM_001.jpg
27.304	1.001	1	incongruent	Block1	incongruent/STIM_001.jpg
30.327	0.88	0	incongruent	Block1	incongruent/STIM_001.jpg
33.868	1.096	1	incongruent	Block1	incongruent/STIM_001.jpg
37.945	1.186	1	incongruent	Block1	incongruent/STIM_002.jpg
42.671	0.983	1	incongruent	Block1	incongruent/STIM_002.jpg
46.808	1.233	1	incongruent	Block1	incongruent/STIM_002.jpg
51.367	0.697	1	incongruent	Block1	incongruent/STIM_002.jpg
54.324	1.002	1	incongruent	Block1	incongruent/STIM_002.jpg
59.194	1.048	1	incongruent	Block1	incongruent/STIM_003.jpg
64.226	0.701	1	incongruent	Block1	incongruent/STIM_003.jpg
67.939	0.945	1	incongruent	Block1	incongruent/STIM_003.jpg
72.731	1.083	1	incongruent	Block1	incongruent/STIM_003.jpg
76.091	0.836	1	incongruent	Block1	incongruent/STIM_003.jpg
80.444	1.37	1	incongruent	Block1	incongruent/STIM_004.jpg
85.381	1.462	1	incongruent	Block1	incongruent/STIM_004.jpg
90.111	1.192	1	incongruent	Block1	incongruent/STIM_004.jpg
94.277	1.267	1	incongruent	Block1	incongruent/STIM_004.jpg
99.072	1.142	1	incongruent	Block1	incongruent/STIM_004.jpg
103.789	1.343	1	incongruent	Block1	incongruent/STIM_005.jpg
108.782	1.363	1	incongruent	Block1	incongruent/STIM_005.jpg
113.621	0.656	1	incongruent	Block1	incongruent/STIM_005.jpg
118.138	1.298	1	incongruent	Block1	incongruent/STIM_005.jpg
121.775	0.663	1	incongruent	Block1	incongruent/STIM_005.jpg
125.384	1.035	1	incongruent	Block1	incongruent/STIM_006.jpg
128.551	0.728	1	incongruent	Block1	incongruent/STIM_006.jpg
132.17	0.94	0	incongruent	Block1	incongruent/STIM_006.jpg
136.681	0.852	1	incongruent	Block1	incongruent/STIM_006.jpg
139.882	1.013	1	incongruent	Block1	incongruent/STIM_006.jpg
142.922	1.015	1	incongruent	Block1	incongruent/STIM_007.jpg
147.713	0.775	1	incongruent	Block1	incongruent/STIM_007.jpg
151.871	1.298	1	incongruent	Block1	incongruent/STIM_007.jpg
155.539	0.679	1	incongruent	Block1	incongruent/STIM_007.jpg
158.943	0.862	1	incongruent	Block1	incongruent/STIM_007.jpg
162.476	1.179	1	incongruent	Block1	incongruent/STIM_008.jpg
166.331	1.449	1	incongruent	Block1	incongruent/STIM_008.jpg
171.155	1.288	0	incongruent	Block1	incongruent/STIM_008.jpg
175.839	0.691	1	incongruent	Block1	incongruent/STIM_008.jpg
178.64	0.912	1	incongruent	Block1	incongruent/STIM_008.jpg
183.116	1.433	1	incongruent	Block1	incongruent/STIM_009.jpg
187.273	1.39	1	incongruent	Block1	incongruent/STIM_009.jpg
191.259	1.136	1	incongruent	Block1	incongruent/STIM_009.jpg
196.09	0.688	1	incongruent	Block1	incongruent/STIM_009.jpg
199.627	1.188	1	incongruent	Block1	incongruent/STIM_009.jpg
203.94	0.796	1	incongruent	Block1	incongruent/STIM_010.jpg
207.468	1.036	1	incongruent	Block1	incongruent/STIM_010.jpg
210.543	0.7	1	incongruent	Block1	incongruent/STIM_010.jpg
214.57	1.311	1	incongruent	Block1	incongruent/STIM_010.jpg
219.146	0.746	0	incongruent	Block1	incongruent/STIM_010.jpg
223.151	0.853	1	incongruent	Block1	incongruent/STIM_011.jpg
226.261	1.156	1	incongruent	Block1	incongruent/STIM_011.jpg
231.397	1.36	1	incongruent	Block1	incongruent/STIM_011.jpg
234.998	1.31	1	incongruent	Block1	incongruent/STIM_011.jpg
239.084	1.034	1	incongruent	Block1	incongruent/STIM_011.jpg
242.319	1.53	1	incongruent	Block1	incongruent/STIM_012.jpg
246.872	0.928	0	incongruent	Block1	incongruent/STIM_012.jpg
249.936	1.257	1	incongruent	Block1	incongruent/STIM_012.jpg
255.019	0.635	1	incongruent	Block1	incongruent/STIM_012.jpg
257.957	1.032	1	incongruent	Block1	incongruent/STIM_012.jpg
262.858	1.115	1	incongruent	Block1	incongruent/STIM_013.jpg
267.29	0.957	0	incongruent	Block1	incongruent/STIM_013.jpg
271.028	0.988	1	incongruent	Block1	incongruent/STIM_013.jpg
274.735	0.689	1	incongruent	Block1	incongruent/STIM_013.jpg
278.732	0.895	1	incongruent	Block1	incongruent/STIM_013.jpg
282.644	1.324	1	incongruent	Block1	incongruent/STIM_014.jpg
287.266	0.877	1	incongruent	Block1	incongruent/STIM_014.jpg
290.728	0.785	1	incongruent	Block1	incongruent/STIM_014.jpg
294.246	1.061	1	incongruent	Block1	incongruent/STIM_014.jpg
297.376	0.992	1	incongruent	Block1	incongruent/STIM_014.jpg
301.028	0.814	0	incongruent	Block1	incongruent/STIM_015.jpg
305.151	1.383	1	incongruent	Block1	incongruent/STIM_015.jpg
309.176	1.311	1	incongruent	Block1	incongruent/STIM_015.jpg
313.181	1.286	0	incongruent	Block1	incongruent/STIM_015.jpg
317.167	0.861	1	incongruent	Block1	incongruent/STIM_015.jpg
320.556	1.437	1	incongruent	Block1	incongruent/STIM_016.jpg
325.093	1.436	1	incongruent	Block1	incongruent/STIM_016.jpg
330.425	1.105	1	incongruent	Block1	incongruent/STIM_016.jpg
334.745	0.81	1	incongruent	Block1	incongruent/STIM_016.jpg
338.364	0.805	1	incongruent	Block1	incongruent/STIM_016.jpg
342.217	0.835	1	incongruent	Block1	incongruent/STIM_017.jpg
345.672	1.191	1	incongruent	Block1	incongruent/STIM_017.jpg
349.045	0.968	1	incongruent	Block1	incongruent/STIM_017.jpg
354.008	1.237	0	incongruent	Block1	incongruent/STIM_017.jpg
357.69	1.043	0	incongruent	Block1	incongruent/STIM_017.jpg
362.363	1.106	1	incongruent	Block1	incongruent/STIM_018.jpg
365.811	1.205	1	incongruent	Block1	incongruent/STIM_018.jpg
369.705	0.683	1	incongruent	Block1	incongruent/STIM_018.jpg
373.592	0.939	1	incongruent	Block1	incongruent/STIM_018.jpg
376.875	0.774	1	incongruent	Block1	incongruent/STIM_018.jpg
380.924	1.547	1	incongruent	Block1	incongruent/STIM_019.jpg
385.331	1.352	1	incongruent	Block1	incongruent/STIM_019.jpg
389.94	0.93	1	incongruent	Block1	incongruent/STIM_019.jpg
393.962	0.91	1	incongruent	Block1	incongruent/STIM_019.jpg
398.146	1.051	1	incongruent	Block1	incongruent/STIM_019.jpg
402.507	1.021	1	incongruent	Block1	incongruent/STIM_020.jpg
406.634	1.239	1	incongruent	Block1	incongruent/STIM_020.jpg
410.738	0.765	1	incongruent	Block1	incongruent/STIM_020.jpg
414.164	1.115	1	incongruent	Block1	incongruent/STIM_020.jpg
417.785	0.617	1	incongruent	Block1	incongruent/STIM_020.jpg
422.2	1.534	1	incongruent	Block1	incongruent/STIM_021.jpg
427.18	1.288	1	incongruent	Block1	incongruent/STIM_021.jpg
432.233	0.654	0	incongruent	Block1	incongruent/STIM_021.jpg
436.633	0.715	1	incongruent	Block1	incongruent/STIM_021.jpg
440.0	0.702	1	incongruent	Block1	incongruent/STIM_021.jpg
444.669	1.382	1	incongruent	Block1	incongruent/STIM_022.jpg
450.001	1.073	1	incongruent	Block1	incongruent/STIM_022.jpg
453.419	0.967	1	incongruent	Block1	incongruent/STIM_022.jpg
457.46	1.166	1	incongruent	Block1	incongruent/STIM_022.jpg
461.024	1.047	0	incongruent	Block1	incongruent/STIM_022.jpg
465.033	0.839	1	incongruent	Block1	incongruent/STIM_023.jpg
468.812	1.084	1	incongruent	Block1	incongruent/STIM_023.jpg
473.224	1.264	1	incongruent	Block1	incongruent/STIM_023.jpg
476.791	0.778	1	incongruent	Block1	incongruent/STIM_023.jpg
481.498	1.078	1	incongruent	Block1	incongruent/STIM_023.jpg
486.506	1.427	1	incongruent	Block1	incongruent/STIM_024.jpg
491.616	1.464	0	incongruent	Block1	incongruent/STIM_024.jpg
496.401	0.832	1	incongruent	Block1	incongruent/STIM_024.jpg
500.391	0.621	1	incongruent	Block1	incongruent/STIM_024.jpg
504.006	0.688	1	incongruent	Block1	incongruent/STIM_024.jpg
508.582	1.294	1	incongruent	Block1	incongruent/STIM_025.jpg
513.498	1.151	0	incongruent	Block1	incongruent/STIM_025.jpg
517.105	1.05	1	incongruent	Block1	incongruent/STIM_025.jpg
521.986	0.804	1	incongruent	Block1	incongruent/STIM_025.jpg
525.907	0.896	1	incongruent	Block1	incongruent/STIM_025.jpg
528.944	0.909	1	incongruent	Block1	incongruent/STIM_026.jpg
533.683	1.393	1	incongruent	Block1	incongruent/STIM_026.jpg
538.13	0.758	1	incongruent	Block1	incongruent/STIM_026.jpg
541.737	1.306	1	incongruent	Block1	incongruent/STIM_026.jpg
547.038	1.025	1	incongruent	Block1	incongruent/STIM_026.jpg
550.91	0.878	1	incongruent	Block1	incongruent/STIM_027.jpg
553.858	1.429	1	incongruent	Block1	incongruent/STIM_027.jpg
558.887	0.75	1	incongruent	Block1	incongruent/STIM_027.jpg
561.867	0.898	1	incongruent	Block1	incongruent/STIM_027.jpg
566.439	0.923	1	incongruent	Block1	incongruent/STIM_027.jpg
570.582	0.954	1	incongruent	Block1	incongruent/STIM_028.jpg
573.92	1.024	1	incongruent	Block1	incongruent/STIM_028.jpg
578.531	0.84	1	incongruent	Block1	incongruent/STIM_028.jpg
581.89	0.622	1	incongruent	Block1	incongruent/STIM_028.jpg
584.74	0.835	1	incongruent	Block1	incongruent/STIM_028.jpg
589.541	0.797	0	incongruent	Block1	incongruent/STIM_029.jpg
593.526	1.015	1	incongruent	Block1	incongruent/STIM_029.jpg
597.398	1.111	0	incongruent	Block1	incongruent/STIM_029.jpg
601.499	1.07	1	incongruent	Block1	incongruent/STIM_029.jpg
606.457	1.2	1	incongruent	Block1	incongruent/STIM_029.jpg
609.895	0.891	1	congruent	Block1	congruent/STIM_000.jpg
612.867	0.651	1	congruent	Block1	congruent/STIM_000.jpg
616.042	0.553	1	congruent	Block1	congruent/STIM_000.jpg
620.486	0.642	1	congruent	Block1	congruent/STIM_000.jpg
623.702	0.921	1	congruent	Block1	congruent/STIM_000.jpg
628.265	0.829	1	congruent	Block1	congruent/STIM_001.jpg
632.456	0.694	1	congruent	Block1	congruent/STIM_001.jpg
635.425	0.757	1	congruent	Block1	congruent/STIM_001.jpg
638.668	0.925	1	congruent	Block1	congruent/STIM_001.jpg
642.5	0.728	1	congruent	Block1	congruent/STIM_001.jpg
645.662	0.768	1	congruent	Block1	congruent/STIM_002.jpg
650.172	0.857	1	congruent	Block1	congruent/STIM_002.jpg
654.951	0.822	1	congruent	Block1	congruent/STIM_002.jpg
658.748	0.779	1	congruent	Block1	congruent/STIM_002.jpg
662.519	0.808	1	congruent	Block1	congruent/STIM_002.jpg
665.728	0.594	1	congruent	Block1	congruent/STIM_003.jpg
670.086	0.774	1	congruent	Block1	congruent/STIM_003.jpg
673.688	0.614	1	congruent	Block1	congruent/STIM_003.jpg
677.753	0.612	1	congruent	Block1	congruent/STIM_003.jpg
682.024	0.581	1	congruent	Block1	congruent/STIM_003.jpg
685.805	0.612	1	congruent	Block1	congruent/STIM_004.jpg
689.571	0.687	1	congruent	Block1	congruent/STIM_004.jpg
692.296	0.923	1	congruent	Block1	congruent/STIM_004.jpg
695.927	0.586	0	congruent	Block1	congruent/STIM_004.jpg
698.66	0.633	1	congruent	Block1	congruent/STIM_004.jpg
702.166	0.82	1	congruent	Block1	congruent/STIM_005.jpg
705.129	0.758	0	congruent	Block1	congruent/STIM_005.jpg
708.48	0.701	1	congruent	Block1	congruent/STIM_005.jpg
712.455	0.76	1	congruent	Block1	congruent/STIM_005.jpg
716.692	0.549	0	congruent	Block1	congruent/STIM_005.jpg
720.966	0.541	1	congruent	Block1	congruent/STIM_006.jpg
724.23	0.88	0	congruent	Block1	congruent/STIM_006.jpg
727.841	0.633	1	congruent	Block1	congruent/STIM_006.jpg
731.937	0.698	0	congruent	Block1	congruent/STIM_006.jpg
736.469	0.877	1	congruent	Block1	congruent/STIM_006.jpg
740.249	0.785	1	congruent	Block1	congruent/STIM_007.jpg
743.339	0.563	1	congruent	Block1	congruent/STIM_007.jpg
746.702	0.808	1	congruent	Block1	congruent/STIM_007.jpg
751.305	0.804	0	congruent	Block1	congruent/STIM_007.jpg
755.676	0.718	1	congruent	Block1	congruent/STIM_007.jpg
758.763	0.864	1	congruent	Block1	congruent/STIM_008.jpg
762.739	0.539	1	congruent	Block1	congruent/STIM_008.jpg
767.273	0.529	1	congruent	Block1	congruent/STIM_008.jpg
770.732	0.663	0	congruent	Block1	congruent/STIM_008.jpg
774.427	0.836	1	congruent	Block1	congruent/STIM_008.jpg
777.577	0.54	1	congruent	Block1	congruent/STIM_009.jpg
780.676	0.691	1	congruent	Block1	congruent/STIM_009.jpg
783.588	0.691	1	congruent	Block1	congruent/STIM_009.jpg
787.844	0.52	1	congruent	Block1	congruent/STIM_009.jpg
791.084	0.552	1	congruent	Block1	congruent/STIM_009.jpg
795.04	0.93	1	congruent	Block1	congruent/STIM_010.jpg
799.934	0.548	1	congruent	Block1	congruent/STIM_010.jpg
802.536	0.799	1	congruent	Block1	congruent/STIM_010.jpg
806.258	0.819	1	congruent	Block1	congruent/STIM_010.jpg
810.985	0.922	0	congruent	Block1	congruent/STIM_010.jpg
814.146	0.906	1	congruent	Block1	congruent/STIM_011.jpg
817.489	0.768	1	congruent	Block1	congruent/STIM_011.jpg
821.955	0.744	1	congruent	Block1	congruent/STIM_011.jpg
826.548	0.668	1	congruent	Block1	congruent/STIM_011.jpg
830.805	0.522	1	congruent	Block1	congruent/STIM_011.jpg
833.928	0.893	1	congruent	Block1	congruent/STIM_012.jpg
837.484	0.616	1	congruent	Block1	congruent/STIM_012.jpg
841.296	0.828	1	congruent	Block1	congruent/STIM_012.jpg
845.484	0.836	0	congruent	Block1	congruent/STIM_012.jpg
850.276	0.816	1	congruent	Block1	congruent/STIM_012.jpg
854.545	0.832	1	congruent	Block1	congruent/STIM_013.jpg
858.117	0.584	0	congruent	Block1	congruent/STIM_013.jpg
861.768	0.737	1	congruent	Block1	congruent/STIM_013.jpg
865.575	0.546	1	congruent	Block1	congruent/STIM_013.jpg
869.226	0.747	0	congruent	Block1	congruent/STIM_013.jpg
872.522	0.67	1	congruent	Block1	congruent/STIM_014.jpg
876.615	0.899	1	congruent	Block1	congruent/STIM_014.jpg
879.963	0.918	1	congruent	Block1	congruent/STIM_014.jpg
884.526	0.581	1	congruent	Block1	congruent/STIM_014.jpg
888.468	0.926	1	congruent	Block1	congruent/STIM_014.jpg
892.902	0.906	1	congruent	Block1	congruent/STIM_015.jpg
897.437	0.841	1	congruent	Block1	congruent/STIM_015.jpg
901.913	0.625	1	congruent	Block1	congruent/STIM_015.jpg
904.8	0.709	1	congruent	Block1	congruent/STIM_015.jpg
908.871	0.656	1	congruent	Block1	congruent/STIM_015.jpg
913.364	0.622	1	congruent	Block1	congruent/STIM_016.jpg
916.71	0.798	1	congruent	Block1	congruent/STIM_016.jpg
920.855	0.6	1	congruent	Block1	congruent/STIM_016.jpg
924.256	0.786	0	congruent	Block1	congruent/STIM_016.jpg
927.81	0.843	1	congruent	Block1	congruent/STIM_016.jpg
932.102	0.769	1	congruent	Block1	congruent/STIM_017.jpg
934.89	0.926	1	congruent	Block1	congruent/STIM_017.jpg
938.696	0.703	1	congruent	Block1	congruent/STIM_017.jpg
941.439	0.529	1	congruent	Block1	congruent/STIM_017.jpg
944.447	0.868	1	congruent	Block1	congruent/STIM_017.jpg
949.083	0.572	0	congruent	Block1	congruent/STIM_018.jpg
952.433	0.614	1	congruent	Block1	congruent/STIM_018.jpg
956.837	0.604	1	congruent	Block1	congruent/STIM_018.jpg
959.712	0.529	1	congruent	Block1	congruent/STIM_018.jpg
962.825	0.815	1	congruent	Block1	congruent/STIM_018.jpg
966.69	0.546	1	congruent	Block1	congruent/STIM_019.jpg
969.806	0.879	1	congruent	Block1	congruent/STIM_019.jpg
973.317	0.865	1	congruent	Block1	congruent/STIM_019.jpg
977.337	0.925	1	congruent	Block1	congruent/STIM_019.jpg
981.372	0.891	1	congruent	Block1	congruent/STIM_019.jpg
985.003	0.829	1	congruent	Block1	congruent/STIM_020.jpg
989.756	0.86	1	congruent	Block1	congruent/STIM_020.jpg
993.035	0.768	1	congruent	Block1	congruent/STIM_020.jpg
996.894	0.876	1	congruent	Block1	congruent/STIM_020.jpg
1001.592	0.541	1	congruent	Block1	congruent/STIM_020.jpg
1004.429	0.905	1	congruent	Block1	congruent/STIM_021.jpg
1007.412	0.576	1	congruent	Block1	congruent/STIM_021.jpg
1011.033	0.931	1	congruent	Block1	congruent/STIM_021.jpg
1015.122	0.843	1	congruent	Block1	congruent/STIM_021.jpg
1018.813	0.58	1	congruent	Block1	congruent/STIM_021.jpg
1021.697	0.627	1	congruent	Block1	congruent/STIM_022.jpg
1026.262	0.829	1	congruent	Block1	congruent/STIM_022.jpg
1030.203	0.821	1	congruent	Block1	congruent/STIM_022.jpg
1033.723	0.645	1	congruent	Block1	congruent/STIM_022.jpg
1037.448	0.67	1	congruent	Block1	congruent/STIM_022.jpg
1040.864	0.688	1	congruent	Block1	congruent/STIM_023.jpg
1044.115	0.542	1	congruent	Block1	congruent/STIM_023.jpg
1046.764	0.537	1	congruent	Block1	congruent/STIM_023.jpg
1051.301	0.607	1	congruent	Block1	congruent/STIM_023.jpg
1054.316	0.887	1	congruent	Block1	congruent/STIM_023.jpg
1058.01	0.533	1	congruent	Block1	congruent/STIM_024.jpg
1062.217	0.612	1	congruent	Block1	congruent/STIM_024.jpg
1066.37	0.744	1	congruent	Block1	congruent/STIM_024.jpg
1069.579	0.814	1	congruent	Block1	congruent/STIM_024.jpg
1072.807	0.669	1	congruent	Block1	congruent/STIM_024.jpg
1077.201	0.798	1	congruent	Block1	congruent/STIM_025.jpg
1081.461	0.746	0	congruent	Block1	congruent/STIM_025.jpg
1084.383	0.638	0	congruent	Block1	congruent/STIM_025.jpg
1087.871	0.869	1	congruent	Block1	congruent/STIM_025.jpg
1091.859	0.608	1	congruent	Block1	congruent/STIM_025.jpg
1095.996	0.918	1	congruent	Block1	congruent/STIM_026.jpg
1099.059	0.797	1	congruent	Block1	congruent/STIM_026.jpg
1102.821	0.636	1	congruent	Block1	congruent/STIM_026.jpg
1106.865	0.639	1	congruent	Block1	congruent/STIM_026.jpg
1110.772	0.698	1	congruent	Block1	congruent/STIM_026.jpg
1114.133	0.653	1	congruent	Block1	congruent/STIM_027.jpg
1118.021	0.572	1	congruent	Block1	congruent/STIM_027.jpg
1121.132	0.585	1	congruent	Block1	congruent/STIM_027.jpg
1124.865	0.902	1	congruent	Block1	congruent/STIM_027.jpg
1129.402	0.837	1	congruent	Block1	congruent/STIM_027.jpg
1133.184	0.798	0	congruent	Block1	congruent/STIM_028.jpg
1136.957	0.843	1	congruent	Block1	congruent/STIM_028.jpg
1141.48	0.525	1	congruent	Block1	congruent/STIM_028.jpg
1145.833	0.657	1	congruent	Block1	congruent/STIM_028.jpg
1148.64	0.826	0	congruent	Block1	congruent/STIM_028.jpg
1152.183	0.769	1	congruent	Block1	congruent/STIM_029.jpg
1155.674	0.835	1	congruent	Block1	congruent/STIM_029.jpg
1159.161	0.597	1	congruent	Block1	congruent/STIM_029.jpg
1161.871	0.748	0	congruent	Block1	congruent/STIM_029.jpg
1165.162	0.864	1	congruent	Block1	congruent/STIM_029.jpg
1168.131	1.164	1	incongruent	Block2	incongruent/STIM_000.jpg
1172.083	0.78	0	incongruent	Block2	incongruent/STIM_000.jpg
1176.033	0.768	1	incongruent	Block2	incongruent/STIM_000.jpg
1179.066	0.528	1	incongruent	Block2	incongruent/STIM_000.jpg
1182.241	0.548	1	incongruent	Block2	incongruent/STIM_000.jpg
1186.469	1.084	1	incongruent	Block2	incongruent/STIM_001.jpg
1190.051	0.892	0	incongruent	Block2	incongruent/STIM_001.jpg
1193.117	0.784	1	incongruent	Block2	incongruent/STIM_001.jpg
1197.565	0.514	1	incongruent	Block2	incongruent/STIM_001.jpg
1202.053	0.613	1	incongruent	Block2	incongruent/STIM_001.jpg
1206.147	0.942	1	incongruent	Block2	incongruent/STIM_002.jpg
1210.712	1.038	1	incongruent	Block2	incongruent/STIM_002.jpg
1215.406	0.569	1	incongruent	Block2	incongruent/STIM_002.jpg
1218.176	0.717	1	incongruent	Block2	incongruent/STIM_002.jpg
1222.438	0.82	1	incongruent	Block2	incongruent/STIM_002.jpg
1225.994	1.003	1	incongruent	Block2	incongruent/STIM_003.jpg
1229.936	0.765	1	incongruent	Block2	incongruent/STIM_003.jpg
1234.475	0.885	1	incongruent	Block2	incongruent/STIM_003.jpg
1237.644	0.839	1	incongruent	Block2	incongruent/STIM_003.jpg
1241.173	0.731	1	incongruent	Block2	incongruent/STIM_003.jpg
1244.548	0.672	1	incongruent	Block2	incongruent/STIM_004.jpg
1247.411	0.93	1	incongruent	Block2	incongruent/STIM_004.jpg
1251.71	1.148	1	incongruent	Block2	incongruent/STIM_004.jpg
1255.831	0.674	1	incongruent	Block2	incongruent/STIM_004.jpg
1259.172	1.009	1	incongruent	Block2	incongruent/STIM_004.jpg
1262.939	0.888	1	incongruent	Block2	incongruent/STIM_005.jpg
1267.464	0.706	1	incongruent	Block2	incongruent/STIM_005.jpg
1272.079	0.625	1	incongruent	Block2	incongruent/STIM_005.jpg
1276.659	0.573	1	incongruent	Block2	incongruent/STIM_005.jpg
1280.029	0.927	1	incongruent	Block2	incongruent/STIM_005.jpg
1284.228	1.091	1	incongruent	Block2	incongruent/STIM_006.jpg
1288.03	1.009	1	incongruent	Block2	incongruent/STIM_006.jpg
1292.703	0.719	1	incongruent	Block2	incongruent/STIM_006.jpg
1295.551	0.973	1	incongruent	Block2	incongruent/STIM_006.jpg
1300.074	0.838	1	incongruent	Block2	incongruent/STIM_006.jpg
1304.155	0.936	1	incongruent	Block2	incongruent/STIM_007.jpg
1307.178	0.857	0	incongruent	Block2	incongruent/STIM_007.jpg
1310.826	1.158	1	incongruent	Block2	incongruent/STIM_007.jpg
1315.281	0.644	1	incongruent	Block2	incongruent/STIM_007.jpg
1318.889	0.694	1	incongruent	Block2	incongruent/STIM_007.jpg
1322.111	0.78	1	incongruent	Block2	incongruent/STIM_008.jpg
1326.119	0.602	1	incongruent	Block2	incongruent/STIM_008.jpg
1329.263	0.82	1	incongruent	Block2	incongruent/STIM_008.jpg
1332.518	0.811	1	incongruent	Block2	incongruent/STIM_008.jpg
1335.362	0.738	1	incongruent	Block2	incongruent/STIM_008.jpg
1339.685	0.97	1	incongruent	Block2	incongruent/STIM_009.jpg
1342.846	0.824	1	incongruent	Block2	incongruent/STIM_009.jpg
1347.048	0.599	1	incongruent	Block2	incongruent/STIM_009.jpg
1351.374	0.543	1	incongruent	Block2	incongruent/STIM_009.jpg
1354.136	0.708	1	incongruent	Block2	incongruent/STIM_009.jpg
1358.272	1.27	0	incongruent	Block2	incongruent/STIM_010.jpg
1362.196	1.152	1	incongruent	Block2	incongruent/STIM_010.jpg
1365.391	0.803	1	incongruent	Block2	incongruent/STIM_010.jpg
1369.135	1.083	1	incongruent	Block2	incongruent/STIM_010.jpg
1373.906	0.85	1	incongruent	Block2	incongruent/STIM_010.jpg
1376.985	1.161	1	incongruent	Block2	incongruent/STIM_011.jpg
1381.783	0.931	1	incongruent	Block2	incongruent/STIM_011.jpg
1385.705	0.96	1	incongruent	Block2	incongruent/STIM_011.jpg
1389.439	0.805	1	incongruent	Block2	incongruent/STIM_011.jpg
1392.435	1.076	1	incongruent	Block2	incongruent/STIM_011.jpg
1395.628	0.901	1	incongruent	Block2	incongruent/STIM_012.jpg
1398.561	1.007	1	incongruent	Block2	incongruent/STIM_012.jpg
1403.269	0.7	1	incongruent	Block2	incongruent/STIM_012.jpg
1406.741	1.014	1	incongruent	Block2	incongruent/STIM_012.jpg
1411.321	0.992	1	incongruent	Block2	incongruent/STIM_012.jpg
1415.117	1.062	1	incongruent	Block2	incongruent/STIM_013.jpg
1420.038	0.629	1	incongruent	Block2	incongruent/STIM_013.jpg
1424.464	0.98	1	incongruent	Block2	incongruent/STIM_013.jpg
1428.534	0.628	1	incongruent	Block2	incongruent/STIM_013.jpg
1431.883	0.565	1	incongruent	Block2	incongruent/STIM_013.jpg
1434.502	1.318	0	incongruent	Block2	incongruent/STIM_014.jpg
1439.447	1.237	1	incongruent	Block2	incongruent/STIM_014.jpg
1444.061	0.99	1	incongruent	Block2	incongruent/STIM_014.jpg
1448.411	0.896	1	incongruent	Block2	incongruent/STIM_014.jpg
1451.977	0.916	1	incongruent	Block2	incongruent/STIM_014.jpg
1455.144	1.265	1	incongruent	Block2	incongruent/STIM_015.jpg
1459.826	0.758	1	incongruent	Block2	incongruent/STIM_015.jpg
1462.783	0.897	1	incongruent	Block2	incongruent/STIM_015.jpg
1467.443	0.538	1	incongruent	Block2	incongruent/STIM_015.jpg
1471.799	1.031	1	incongruent	Block2	incongruent/STIM_015.jpg
1476.05	1.087	1	incongruent	Block2	incongruent/STIM_016.jpg
1480.847	1.047	1	incongruent	Block2	incongruent/STIM_016.jpg
1484.439	1.159	1	incongruent	Block2	incongruent/STIM_016.jpg
1488.047	1.044	1	incongruent	Block2	incongruent/STIM_016.jpg
1492.764	0.639	1	incongruent	Block2	incongruent/STIM_016.jpg
1496.641	1.23	1	incongruent	Block2	incongruent/STIM_017.jpg
1500.778	0.715	1	incongruent	Block2	incongruent/STIM_017.jpg
1504.872	0.698	1	incongruent	Block2	incongruent/STIM_017.jpg
1507.598	0.845	1	incongruent	Block2	incongruent/STIM_017.jpg
1511.784	0.975	1	incongruent	Block2	incongruent/STIM_017.jpg
1515.148	1.117	1	incongruent	Block2	incongruent/STIM_018.jpg
1519.821	1.034	1	incongruent	Block2	incongruent/STIM_018.jpg
1524.657	1.028	0	incongruent	Block2	incongruent/STIM_018.jpg
1528.233	0.681	1	incongruent	Block2	incongruent/STIM_018.jpg
1532.406	0.507	1	incongruent	Block2	incongruent/STIM_018.jpg
1535.266	1.167	1	incongruent	Block2	incongruent/STIM_019.jpg
1539.891	0.721	1	incongruent	Block2	incongruent/STIM_019.jpg
1542.937	0.703	1	incongruent	Block2	incongruent/STIM_019.jpg
1546.655	0.848	1	incongruent	Block2	incongruent/STIM_019.jpg
1549.647	0.676	0	incongruent	Block2	incongruent/STIM_019.jpg
1552.613	0.867	1	incongruent	Block2	incongruent/STIM_020.jpg
1556.072	1.231	1	incongruent	Block2	incongruent/STIM_020.jpg
1560.267	1.029	1	incongruent	Block2	incongruent/STIM_020.jpg
1563.462	0.855	1	incongruent	Block2	incongruent/STIM_020.jpg
1566.568	0.808	1	incongruent	Block2	incongruent/STIM_020.jpg
1569.788	1.202	1	incongruent	Block2	incongruent/STIM_021.jpg
1574.506	1.09	1	incongruent	Block2	incongruent/STIM_021.jpg
1578.362	1.159	1	incongruent	Block2	incongruent/STIM_021.jpg
1581.618	0.894	1	incongruent	Block2	incongruent/STIM_021.jpg
1585.828	0.869	1	incongruent	Block2	incongruent/STIM_021.jpg
1590.365	1.085	1	incongruent	Block2	incongruent/STIM_022.jpg
1594.206	1.205	1	incongruent	Block2	incongruent/STIM_022.jpg
1599.193	0.685	1	incongruent	Block2	incongruent/STIM_022.jpg
1602.813	0.813	1	incongruent	Block2	incongruent/STIM_022.jpg
1606.816	0.888	1	incongruent	Block2	incongruent/STIM_022.jpg
1611.416	1.243	0	incongruent	Block2	incongruent/STIM_023.jpg
1615.119	0.786	1	incongruent	Block2	incongruent/STIM_023.jpg
1619.554	1.144	1	incongruent	Block2	incongruent/STIM_023.jpg
1622.978	0.922	1	incongruent	Block2	incongruent/STIM_023.jpg
1626.367	0.944	1	incongruent	Block2	incongruent/STIM_023.jpg
1630.837	1.256	1	incongruent	Block2	incongruent/STIM_024.jpg
1635.19	0.588	1	incongruent	Block2	incongruent/STIM_024.jpg
1638.068	0.699	1	incongruent	Block2	incongruent/STIM_024.jpg
1641.643	1.065	1	incongruent	Block2	incongruent/STIM_024.jpg
1646.271	0.516	1	incongruent	Block2	incongruent/STIM_024.jpg
1650.336	0.981	0	incongruent	Block2	incongruent/STIM_025.jpg
1654.613	0.73	1	incongruent	Block2	incongruent/STIM_025.jpg
1658.184	0.854	1	incongruent	Block2	incongruent/STIM_025.jpg
1661.76	0.605	1	incongruent	Block2	incongruent/STIM_025.jpg
1665.649	0.856	1	incongruent	Block2	incongruent/STIM_025.jpg
1670.283	0.728	0	incongruent	Block2	incongruent/STIM_026.jpg
1674.878	0.586	1	incongruent	Block2	incongruent/STIM_026.jpg
1678.554	0.738	1	incongruent	Block2	incongruent/STIM_026.jpg
1682.23	0.655	0	incongruent	Block2	incongruent/STIM_026.jpg
1685.186	0.687	1	incongruent	Block2	incongruent/STIM_026.jpg
1688.278	1.298	1	incongruent	Block2	incongruent/STIM_027.jpg
1693.21	1.038	1	incongruent	Block2	incongruent/STIM_027.jpg
1698.006	0.679	1	incongruent	Block2	incongruent/STIM_027.jpg
1701.111	0.791	1	incongruent	Block2	incongruent/STIM_027.jpg
1705.004	0.947	1	incongruent	Block2	incongruent/STIM_027.jpg
1709.329	0.708	1	incongruent	Block2	incongruent/STIM_028.jpg
1712.641	1.046	1	incongruent	Block2	incongruent/STIM_028.jpg
1716.779	0.934	1	incongruent	Block2	incongruent/STIM_028.jpg
1720.257	0.803	1	incongruent	Block2	incongruent/STIM_028.jpg
1724.937	0.834	1	incongruent	Block2	incongruent/STIM_028.jpg
1727.868	1.235	1	incongruent	Block2	incongruent/STIM_029.jpg
1732.014	0.935	1	incongruent	Block2	incongruent/STIM_029.jpg
1735.983	1.023	0	incongruent	Block2	incongruent/STIM_029.jpg
1739.458	0.997	1	incongruent	Block2	incongruent/STIM_029.jpg
1742.693	1.02	1	incongruent	Block2	incongruent/STIM_029.jpg
1746.108	0.758	1	congruent	Block2	congruent/STIM_000.jpg
1749.375	0.559	1	congruent	Block2	congruent/STIM_000.jpg
1753.918	0.818	1	congruent	Block2	congruent/STIM_000.jpg
1758.38	0.715	1	congruent	Block2	congruent/STIM_000.jpg
1761.447	0.874	1	congruent	Block2	congruent/STIM_000.jpg
1765.951	0.538	1	congruent	Block2	congruent/STIM_001.jpg
1769.974	0.772	1	congruent	Block2	congruent/STIM_001.jpg
1774.493	0.561	1	congruent	Block2	congruent/STIM_001.jpg
1777.618	0.731	1	congruent	Block2	congruent/STIM_001.jpg
1780.626	0.628	1	congruent	Block2	congruent/STIM_001.jpg
1784.907	0.602	1	congruent	Block2	congruent/STIM_002.jpg
1788.34	0.87	1	congruent	Block2	congruent/STIM_002.jpg
1793.175	0.836	1	congruent	Block2	congruent/STIM_002.jpg
1796.421	0.787	1	congruent	Block2	congruent/STIM_002.jpg
1799.934	0.763	1	congruent	Block2	congruent/STIM_002.jpg
1803.787	0.694	1	congruent	Block2	congruent/STIM_003.jpg
1808.002	0.572	1	congruent	Block2	congruent/STIM_003.jpg
1812.398	0.826	1	congruent	Block2	congruent/STIM_003.jpg
1815.723	0.735	1	congruent	Block2	congruent/STIM_003.jpg
1820.153	0.529	1	congruent	Block2	congruent/STIM_003.jpg
1823.966	0.681	1	congruent	Block2	congruent/STIM_004.jpg
1827.545	0.696	1	congruent	Block2	congruent/STIM_004.jpg
1831.96	0.654	1	congruent	Block2	congruent/STIM_004.jpg
1835.563	0.875	1	congruent	Block2	congruent/STIM_004.jpg
1839.644	0.558	1	congruent	Block2	congruent/STIM_004.jpg
1843.473	0.61	1	congruent	Block2	congruent/STIM_005.jpg
1846.477	0.738	1	congruent	Block2	congruent/STIM_005.jpg
1851.058	0.62	1	congruent	Block2	congruent/STIM_005.jpg
1853.753	0.556	1	congruent	Block2	congruent/STIM_005.jpg
1856.708	0.756	1	congruent	Block2	congruent/STIM_005.jpg
1860.642	0.579	1	congruent	Block2	congruent/STIM_006.jpg
1864.375	0.608	1	congruent	Block2	congruent/STIM_006.jpg
1868.908	0.777	1	congruent	Block2	congruent/STIM_006.jpg
1873.545	0.609	1	congruent	Block2	congruent/STIM_006.jpg
1878.027	0.65	1	congruent	Block2	congruent/STIM_006.jpg
1881.12	0.677	1	congruent	Block2	congruent/STIM_007.jpg
1885.066	0.643	1	congruent	Block2	congruent/STIM_007.jpg
1888.536	0.706	1	congruent	Block2	congruent/STIM_007.jpg
1891.545	0.832	1	congruent	Block2	congruent/STIM_007.jpg
1894.752	0.778	1	congruent	Block2	congruent/STIM_007.jpg
1899.276	0.605	1	congruent	Block2	congruent/STIM_008.jpg
1903.7	0.68	1	congruent	Block2	congruent/STIM_008.jpg
1906.402	0.731	1	congruent	Block2	congruent/STIM_008.jpg
1909.302	0.58	1	congruent	Block2	congruent/STIM_008.jpg
1912.432	0.556	0	congruent	Block2	congruent/STIM_008.jpg
1915.714	0.835	1	congruent	Block2	congruent/STIM_009.jpg
1919.277	0.782	1	congruent	Block2	congruent/STIM_009.jpg
1922.122	0.538	1	congruent	Block2	congruent/STIM_009.jpg
1924.905	0.888	1	congruent	Block2	congruent/STIM_009.jpg
1928.158	0.602	1	congruent	Block2	congruent/STIM_009.jpg
1931.395	0.842	1	congruent	Block2	congruent/STIM_010.jpg
1935.707	0.627	0	congruent	Block2	congruent/STIM_010.jpg
1939.126	0.626	1	congruent	Block2	congruent/STIM_010.jpg
1943.192	0.783	1	congruent	Block2	congruent/STIM_010.jpg
1946.891	0.738	1	congruent	Block2	congruent/STIM_010.jpg
1951.343	0.744	1	congruent	Block2	congruent/STIM_011.jpg
1954.709	0.662	1	congruent	Block2	congruent/STIM_011.jpg
1959.109	0.634	1	congruent	Block2	congruent/STIM_011.jpg
1962.782	0.727	1	congruent	Block2	congruent/STIM_011.jpg
1966.493	0.835	1	congruent	Block2	congruent/STIM_011.jpg
1970.983	0.526	0	congruent	Block2	congruent/STIM_012.jpg
1974.791	0.588	1	congruent	Block2	congruent/STIM_012.jpg
1977.894	0.861	1	congruent	Block2	congruent/STIM_012.jpg
1982.112	0.856	1	congruent	Block2	congruent/STIM_012.jpg
1986.843	0.565	0	congruent	Block2	congruent/STIM_012.jpg
1989.665	0.613	1	congruent	Block2	congruent/STIM_013.jpg
1992.874	0.83	1	congruent	Block2	congruent/STIM_013.jpg
1996.66	0.768	1	congruent	Block2	congruent/STIM_013.jpg
2000.992	0.828	1	congruent	Block2	congruent/STIM_013.jpg
2005.181	0.711	1	congruent	Block2	congruent/STIM_013.jpg
2008.707	0.568	1	congruent	Block2	congruent/STIM_014.jpg
2011.838	0.789	1	congruent	Block2	congruent/STIM_014.jpg
2015.733	0.724	1	congruent	Block2	congruent/STIM_014.jpg
2018.875	0.651	1	congruent	Block2	congruent/STIM_014.jpg
2022.263	0.709	1	congruent	Block2	congruent/STIM_014.jpg
2026.941	0.62	1	congruent	Block2	congruent/STIM_015.jpg
2029.837	0.648	0	congruent	Block2	congruent/STIM_015.jpg
2033.74	0.893	0	congruent	Block2	congruent/STIM_015.jpg
2038.333	0.884	1	congruent	Block2	congruent/STIM_015.jpg
2042.926	0.525	1	congruent	Block2	congruent/STIM_015.jpg
2047.378	0.673	1	congruent	Block2	congruent/STIM_016.jpg
2050.786	0.667	1	congruent	Block2	congruent/STIM_016.jpg
2053.541	0.524	1	congruent	Block2	congruent/STIM_016.jpg
2057.306	0.567	1	congruent	Block2	congruent/STIM_016.jpg
2060.601	0.665	1	congruent	Block2	congruent/STIM_016.jpg
2064.128	0.69	1	congruent	Block2	congruent/STIM_017.jpg
2068.646	0.79	1	congruent	Block2	congruent/STIM_017.jpg
2071.94	0.805	1	congruent	Block2	congruent/STIM_017.jpg
2075.599	0.663	1	congruent	Block2	congruent/STIM_017.jpg
2078.872	0.657	1	congruent	Block2	congruent/STIM_017.jpg
2081.744	0.651	1	congruent	Block2	congruent/STIM_018.jpg
2086.198	0.593	1	congruent	Block2	congruent/STIM_018.jpg
2088.863	0.824	1	congruent	Block2	congruent/STIM_018.jpg
2091.817	0.731	1	congruent	Block2	congruent/STIM_018.jpg
2095.626	0.528	1	congruent	Block2	congruent/STIM_018.jpg
2099.027	0.666	1	congruent	Block2	congruent/STIM_019.jpg
2102.457	0.528	1	congruent	Block2	congruent/STIM_019.jpg
2105.981	0.86	1	congruent	Block2	congruent/STIM_019.jpg
2110.118	0.538	1	congruent	Block2	congruent/STIM_019.jpg
2114.149	0.633	0	congruent	Block2	congruent/STIM_019.jpg
2116.943	0.907	1	congruent	Block2	congruent/STIM_020.jpg
2121.494	0.839	1	congruent	Block2	congruent/STIM_020.jpg
2126.092	0.54	0	congruent	Block2	congruent/STIM_020.jpg
2129.521	0.842	1	congruent	Block2	congruent/STIM_020.jpg
2134.265	0.542	1	congruent	Block2	congruent/STIM_020.jpg
2137.861	0.733	0	congruent	Block2	congruent/STIM_021.jpg
2141.31	0.885	1	congruent	Block2	congruent/STIM_021.jpg
2144.378	0.769	0	congruent	Block2	congruent/STIM_021.jpg
2147.756	0.62	1	congruent	Block2	congruent/STIM_021.jpg
2151.511	0.607	1	congruent	Block2	congruent/STIM_021.jpg
2155.453	0.594	1	congruent	Block2	congruent/STIM_022.jpg
2158.674	0.836	1	congruent	Block2	congruent/STIM_022.jpg
2161.597	0.698	1	congruent	Block2	congruent/STIM_022.jpg
2166.204	0.664	1	congruent	Block2	congruent/STIM_022.jpg
2169.344	0.716	0	congruent	Block2	congruent/STIM_022.jpg
2173.86	0.868	1	congruent	Block2	congruent/STIM_023.jpg
2177.741	0.805	1	congruent	Block2	congruent/STIM_023.jpg
2181.248	0.559	1	congruent	Block2	congruent/STIM_023.jpg
2185.58	0.787	1	congruent	Block2	congruent/STIM_023.jpg
2188.693	0.538	1	congruent	Block2	congruent/STIM_023.jpg
2193.007	0.703	1	congruent	Block2	congruent/STIM_024.jpg
2196.615	0.72	1	congruent	Block2	congruent/STIM_024.jpg
2201.094	0.6	1	congruent	Block2	congruent/STIM_024.jpg
2204.93	0.697	1	congruent	Block2	congruent/STIM_024.jpg
2209.561	0.675	0	congruent	Block2	congruent/STIM_024.jpg
2213.424	0.601	1	congruent	Block2	congruent/STIM_025.jpg
2217.343	0.913	1	congruent	Block2	congruent/STIM_025.jpg
2220.265	0.7	1	congruent	Block2	congruent/STIM_025.jpg
2224.882	0.56	1	congruent	Block2	congruent/STIM_025.jpg
2227.746	0.663	1	congruent	Block2	congruent/STIM_025.jpg
2230.52	0.772	1	congruent	Block2	congruent/STIM_026.jpg
2234.595	0.662	1	congruent	Block2	congruent/STIM_026.jpg
2239.12	0.751	1	congruent	Block2	congruent/STIM_026.jpg
2241.897	0.678	1	congruent	Block2	congruent/STIM_026.jpg
2246.154	0.625	1	congruent	Block2	congruent/STIM_026.jpg
2249.886	0.683	1	congruent	Block2	congruent/STIM_027.jpg
2253.402	0.702	1	congruent	Block2	congruent/STIM_027.jpg
2256.564	0.524	1	congruent	Block2	congruent/STIM_027.jpg
2259.627	0.702	1	congruent	Block2	congruent/STIM_027.jpg
2263.66	0.913	1	congruent	Block2	congruent/STIM_027.jpg
2266.778	0.82	1	congruent	Block2	congruent/STIM_028.jpg
2270.172	0.908	1	congruent	Block2	congruent/STIM_028.jpg
2273.908	0.767	1	congruent	Block2	congruent/STIM_028.jpg
2277.049	0.73	1	congruent	Block2	congruent/STIM_028.jpg
2280.961	0.861	1	congruent	Block2	congruent/STIM_028.jpg
2285.244	0.872	1	congruent	Block2	congruent/STIM_029.jpg
2289.253	0.59	1	congruent	Block2	congruent/STIM_029.jpg
2292.829	0.638	1	congruent	Block2	congruent/STIM_029.jpg
2296.673	0.542	1	congruent	Block2	congruent/STIM_029.jpg
2299.785	0.546	1	congruent	Block2	congruent/STIM_029.jpg
2304.12	0.804	1	incongruent	Block3	incongruent/STIM_000.jpg
2307.545	1.03	1	incongruent	Block3	incongruent/STIM_000.jpg
2311.067	0.654	1	incongruent	Block3	incongruent/STIM_000.jpg
2314.235	0.89	1	incongruent	Block3	incongruent/STIM_000.jpg
2318.444	0.755	1	incongruent	Block3	incongruent/STIM_000.jpg
2322.965	0.707	1	incongruent	Block3	incongruent/STIM_001.jpg
2326.227	0.72	1	incongruent	Block3	incongruent/STIM_001.jpg
2330.705	0.871	1	incongruent	Block3	incongruent/STIM_001.jpg
2333.792	0.75	1	incongruent	Block3	incongruent/STIM_001.jpg
2337.413	0.655	1	incongruent	Block3	incongruent/STIM_001.jpg
2341.467	0.962	1	incongruent	Block3	incongruent/STIM_002.jpg
2345.094	0.96	1	incongruent	Block3	incongruent/STIM_002.jpg
2349.347	0.969	1	incongruent	Block3	incongruent/STIM_002.jpg
2353.722	0.803	1	incongruent	Block3	incongruent/STIM_002.jpg
2358.358	1.072	1	incongruent	Block3	incongruent/STIM_002.jpg
2362.509	0.528	1	incongruent	Block3	incongruent/STIM_003.jpg
2365.729	0.595	1	incongruent	Block3	incongruent/STIM_003.jpg
2369.085	0.963	1	incongruent	Block3	incongruent/STIM_003.jpg
2372.932	0.698	1	incongruent	Block3	incongruent/STIM_003.jpg
2376.417	0.518	1	incongruent	Block3	incongruent/STIM_003.jpg
2379.925	0.716	1	incongruent	Block3	incongruent/STIM_004.jpg
2383.239	0.9	1	incongruent	Block3	incongruent/STIM_004.jpg
2386.308	0.576	1	incongruent	Block3	incongruent/STIM_004.jpg
2389.094	1.008	1	incongruent	Block3	incongruent/STIM_004.jpg
2393.593	0.7	1	incongruent	Block3	incongruent/STIM_004.jpg
2396.335	0.744	1	incongruent	Block3	incongruent/STIM_005.jpg
2399.394	0.903	1	incongruent	Block3	incongruent/STIM_005.jpg
2402.486	1.077	0	incongruent	Block3	incongruent/STIM_005.jpg
2406.889	0.598	1	incongruent	Block3	incongruent/STIM_005.jpg
2411.172	0.667	1	incongruent	Block3	incongruent/STIM_005.jpg
2415.048	0.858	1	incongruent	Block3	incongruent/STIM_006.jpg
2419.416	0.847	1	incongruent	Block3	incongruent/STIM_006.jpg
2423.801	0.7	1	incongruent	Block3	incongruent/STIM_006.jpg
2426.761	0.95	1	incongruent	Block3	incongruent/STIM_006.jpg
2430.725	0.721	1	incongruent	Block3	incongruent/STIM_006.jpg
2435.008	0.516	1	incongruent	Block3	incongruent/STIM_007.jpg
2438.899	0.847	1	incongruent	Block3	incongruent/STIM_007.jpg
2443.084	0.838	1	incongruent	Block3	incongruent/STIM_007.jpg
2446.977	0.867	1	incongruent	Block3	incongruent/STIM_007.jpg
2451.038	0.745	1	incongruent	Block3	incongruent/STIM_007.jpg
2453.855	0.956	1	incongruent	Block3	incongruent/STIM_008.jpg
2458.274	0.799	1	incongruent	Block3	incongruent/STIM_008.jpg
2462.871	0.572	1	incongruent	Block3	incongruent/STIM_008.jpg
2466.588	0.662	1	incongruent	Block3	incongruent/STIM_008.jpg
2469.347	0.748	1	incongruent	Block3	incongruent/STIM_008.jpg
2473.018	0.762	0	incongruent	Block3	incongruent/STIM_009.jpg
2476.22	0.828	1	incongruent	Block3	incongruent/STIM_009.jpg
2479.111	0.812	1	incongruent	Block3	incongruent/STIM_009.jpg
2482.049	0.664	1	incongruent	Block3	incongruent/STIM_009.jpg
2485.997	0.926	1	incongruent	Block3	incongruent/STIM_009.jpg
2489.511	0.831	1	incongruent	Block3	incongruent/STIM_010.jpg
2493.993	0.703	0	incongruent	Block3	incongruent/STIM_010.jpg
2497.709	0.558	1	incongruent	Block3	incongruent/STIM_010.jpg
2500.62	0.767	1	incongruent	Block3	incongruent/STIM_010.jpg
2503.962	0.683	1	incongruent	Block3	incongruent/STIM_010.jpg
2506.851	0.644	1	incongruent	Block3	incongruent/STIM_011.jpg
2510.944	0.569	1	incongruent	Block3	incongruent/STIM_011.jpg
2513.671	0.953	1	incongruent	Block3	incongruent/STIM_011.jpg
2518.378	0.568	1	incongruent	Block3	incongruent/STIM_011.jpg
2521.418	0.603	1	incongruent	Block3	incongruent/STIM_011.jpg
2524.729	0.582	1	incongruent	Block3	incongruent/STIM_012.jpg
2528.738	0.962	1	incongruent	Block3	incongruent/STIM_012.jpg
2532.293	1.08	1	incongruent	Block3	incongruent/STIM_012.jpg
2536.114	0.543	1	incongruent	Block3	incongruent/STIM_012.jpg
2538.892	0.927	1	incongruent	Block3	incongruent/STIM_012.jpg
2542.053	0.627	1	incongruent	Block3	incongruent/STIM_013.jpg
2545.988	0.785	1	incongruent	Block3	incongruent/STIM_013.jpg
2549.622	0.606	1	incongruent	Block3	incongruent/STIM_013.jpg
2553.077	0.555	1	incongruent	Block3	incongruent/STIM_013.jpg
2555.983	0.774	1	incongruent	Block3	incongruent/STIM_013.jpg
2558.798	1.049	1	incongruent	Block3	incongruent/STIM_014.jpg
2563.309	0.699	1	incongruent	Block3	incongruent/STIM_014.jpg
2566.403	0.736	1	incongruent	Block3	incongruent/STIM_014.jpg
2570.145	0.954	1	incongruent	Block3	incongruent/STIM_014.jpg
2573.111	1.079	1	incongruent	Block3	incongruent/STIM_014.jpg
2576.994	0.931	1	incongruent	Block3	incongruent/STIM_015.jpg
2579.95	1.026	1	incongruent	Block3	incongruent/STIM_015.jpg
2583.445	0.609	1	incongruent	Block3	incongruent/STIM_015.jpg
2587.005	0.936	1	incongruent	Block3	incongruent/STIM_015.jpg
2591.494	0.553	1	incongruent	Block3	incongruent/STIM_015.jpg
2594.52	0.61	1	incongruent	Block3	incongruent/STIM_016.jpg
2597.749	0.54	1	incongruent	Block3	incongruent/STIM_016.jpg
2600.945	0.81	1	incongruent	Block3	incongruent/STIM_016.jpg
2605.414	0.617	1	incongruent	Block3	incongruent/STIM_016.jpg
2609.607	0.557	1	incongruent	Block3	incongruent/STIM_016.jpg
2612.344	1.011	1	incongruent	Block3	incongruent/STIM_017.jpg
2617.15	0.612	0	incongruent	Block3	incongruent/STIM_017.jpg
2619.774	1.014	1	incongruent	Block3	incongruent/STIM_017.jpg
2623.426	0.677	1	incongruent	Block3	incongruent/STIM_017.jpg
2627.42	0.853	1	incongruent	Block3	incongruent/STIM_017.jpg
2631.24	0.706	1	incongruent	Block3	incongruent/STIM_018.jpg
2635.755	0.868	1	incongruent	Block3	incongruent/STIM_018.jpg
2639.859	0.707	1	incongruent	Block3	incongruent/STIM_018.jpg
2644.248	0.664	1	incongruent	Block3	incongruent/STIM_018.jpg
2647.331	0.687	1	incongruent	Block3	incongruent/STIM_018.jpg
2650.646	0.681	1	incongruent	Block3	incongruent/STIM_019.jpg
2653.643	0.788	1	incongruent	Block3	incongruent/STIM_019.jpg
2657.466	0.877	1	incongruent	Block3	incongruent/STIM_019.jpg
2661.264	1.075	1	incongruent	Block3	incongruent/STIM_019.jpg
2664.881	0.948	1	incongruent	Block3	incongruent/STIM_019.jpg
2668.376	0.833	1	incongruent	Block3	incongruent/STIM_020.jpg
2672.201	1.068	1	incongruent	Block3	incongruent/STIM_020.jpg
2677.047	0.736	1	incongruent	Block3	incongruent/STIM_020.jpg
2680.841	0.764	1	incongruent	Block3	incongruent/STIM_020.jpg
2684.33	0.724	1	incongruent	Block3	incongruent/STIM_020.jpg
2688.59	0.676	1	incongruent	Block3	incongruent/STIM_021.jpg
2691.805	1.021	1	incongruent	Block3	incongruent/STIM_021.jpg
2696.74	0.789	1	incongruent	Block3	incongruent/STIM_021.jpg
2701.443	1.079	1	incongruent	Block3	incongruent/STIM_021.jpg
2706.463	0.924	1	incongruent	Block3	incongruent/STIM_021.jpg
2710.313	0.73	1	incongruent	Block3	incongruent/STIM_022.jpg
2714.896	0.627	1	incongruent	Block3	incongruent/STIM_022.jpg
2717.843	0.563	1	incongruent	Block3	incongruent/STIM_022.jpg
2720.523	0.81	1	incongruent	Block3	incongruent/STIM_022.jpg
2723.431	0.607	1	incongruent	Block3	incongruent/STIM_022.jpg
2727.44	0.547	1	incongruent	Block3	incongruent/STIM_023.jpg
2731.95	1.057	1	incongruent	Block3	incongruent/STIM_023.jpg
2735.357	0.809	1	incongruent	Block3	incongruent/STIM_023.jpg
2739.556	0.593	1	incongruent	Block3	incongruent/STIM_023.jpg
2743.669	0.859	1	incongruent	Block3	incongruent/STIM_023.jpg
2748.424	1.04	1	incongruent	Block3	incongruent/STIM_024.jpg
2752.406	0.593	1	incongruent	Block3	incongruent/STIM_024.jpg
2755.638	0.58	1	incongruent	Block3	incongruent/STIM_024.jpg
2758.452	0.66	1	incongruent	Block3	incongruent/STIM_024.jpg
2761.877	1.012	1	incongruent	Block3	incongruent/STIM_024.jpg
2766.057	0.589	1	incongruent	Block3	incongruent/STIM_025.jpg
2769.928	0.604	1	incongruent	Block3	incongruent/STIM_025.jpg
2773.311	1.079	1	incongruent	Block3	incongruent/STIM_025.jpg
2777.31	0.73	1	incongruent	Block3	incongruent/STIM_025.jpg
2781.454	0.967	1	incongruent	Block3	incongruent/STIM_025.jpg
2786.281	0.605	1	incongruent	Block3	incongruent/STIM_026.jpg
2789.225	0.8	1	incongruent	Block3	incongruent/STIM_026.jpg
2793.015	0.725	1	incongruent	Block3	incongruent/STIM_026.jpg
2797.501	0.578	1	incongruent	Block3	incongruent/STIM_026.jpg
2801.394	0.908	1	incongruent	Block3	incongruent/STIM_026.jpg
2804.858	0.828	1	incongruent	Block3	incongruent/STIM_027.jpg
2808.113	0.934	1	incongruent	Block3	incongruent/STIM_027.jpg
2812.101	0.657	1	incongruent	Block3	incongruent/STIM_027.jpg
2815.525	1.021	1	incongruent	Block3	incongruent/STIM_027.jpg
2819.708	0.602	1	incongruent	Block3	incongruent/STIM_027.jpg
2822.743	0.651	1	incongruent	Block3	incongruent/STIM_028.jpg
2825.426	1.068	1	incongruent	Block3	incongruent/STIM_028.jpg
2829.07	0.782	1	incongruent	Block3	incongruent/STIM_028.jpg
2832.841	0.716	1	incongruent	Block3	incongruent/STIM_028.jpg
2837.516	1.055	1	incongruent	Block3	incongruent/STIM_028.jpg
2841.233	0.99	1	incongruent	Block3	incongruent/STIM_029.jpg
2844.325	0.789	1	incongruent	Block3	incongruent/STIM_029.jpg
2847.182	0.922	1	incongruent	Block3	incongruent/STIM_029.jpg
2850.893	0.795	1	incongruent	Block3	incongruent/STIM_029.jpg
2854.432	1.055	1	incongruent	Block3	incongruent/STIM_029.jpg
2859.462	0.652	1	congruent	Block3	congruent/STIM_000.jpg
2862.779	0.873	1	congruent	Block3	congruent/STIM_000.jpg
2866.903	0.738	1	congruent	Block3	congruent/STIM_000.jpg
2870.76	0.652	1	congruent	Block3	congruent/STIM_000.jpg
2874.492	0.694	1	congruent	Block3	congruent/STIM_000.jpg
2878.354	0.615	1	congruent	Block3	congruent/STIM_001.jpg
2881.715	0.896	1	congruent	Block3	congruent/STIM_001.jpg
2885.62	0.917	1	congruent	Block3	congruent/STIM_001.jpg
2890.202	0.756	1	congruent	Block3	congruent/STIM_001.jpg
2894.447	0.833	1	congruent	Block3	congruent/STIM_001.jpg
2897.382	0.887	1	congruent	Block3	congruent/STIM_002.jpg
2901.77	0.538	1	congruent	Block3	congruent/STIM_002.jpg
2904.947	0.86	1	congruent	Block3	congruent/STIM_002.jpg
2907.96	0.766	1	congruent	Block3	congruent/STIM_002.jpg
2911.47	0.777	1	congruent	Block3	congruent/STIM_002.jpg
2915.34	0.645	1	congruent	Block3	congruent/STIM_003.jpg
2919.185	0.752	1	congruent	Block3	congruent/STIM_003.jpg
2922.022	0.543	1	congruent	Block3	congruent/STIM_003.jpg
2925.397	0.667	1	congruent	Block3	congruent/STIM_003.jpg
2928.18	0.684	1	congruent	Block3	congruent/STIM_003.jpg
2931.52	0.869	1	congruent	Block3	congruent/STIM_004.jpg
2934.617	0.613	1	congruent	Block3	congruent/STIM_004.jpg
2938.396	0.832	0	congruent	Block3	congruent/STIM_004.jpg
2941.477	0.753	1	congruent	Block3	congruent/STIM_004.jpg
2945.611	0.775	1	congruent	Block3	congruent/STIM_004.jpg
2949.408	0.9	1	congruent	Block3	congruent/STIM_005.jpg
2952.745	0.564	0	congruent	Block3	congruent/STIM_005.jpg
2956.762	0.616	1	congruent	Block3	congruent/STIM_005.jpg
2959.427	0.681	1	congruent	Block3	congruent/STIM_005.jpg
2962.972	0.575	1	congruent	Block3	congruent/STIM_005.jpg
2966.647	0.783	1	congruent	Block3	congruent/STIM_006.jpg
2971.111	0.888	0	congruent	Block3	congruent/STIM_006.jpg
2974.383	0.567	1	congruent	Block3	congruent/STIM_006.jpg
2978.64	0.659	1	congruent	Block3	congruent/STIM_006.jpg
2981.717	0.565	0	congruent	Block3	congruent/STIM_006.jpg
2985.846	0.547	0	congruent	Block3	congruent/STIM_007.jpg
2990.097	0.75	1	congruent	Block3	congruent/STIM_007.jpg
2992.985	0.834	1	congruent	Block3	congruent/STIM_007.jpg
2997.166	0.634	1	congruent	Block3	congruent/STIM_007.jpg
3000.416	0.859	1	congruent	Block3	congruent/STIM_007.jpg
3003.757	0.779	1	congruent	Block3	congruent/STIM_008.jpg
3007.286	0.703	1	congruent	Block3	congruent/STIM_008.jpg
3011.459	0.854	1	congruent	Block3	congruent/STIM_008.jpg
3015.226	0.816	1	congruent	Block3	congruent/STIM_008.jpg
3018.224	0.831	1	congruent	Block3	congruent/STIM_008.jpg
3022.442	0.91	1	congruent	Block3	congruent/STIM_009.jpg
3026.667	0.85	1	congruent	Block3	congruent/STIM_009.jpg
3030.444	0.875	1	congruent	Block3	congruent/STIM_009.jpg
3034.198	0.592	0	congruent	Block3	congruent/STIM_009.jpg
3037.585	0.884	1	congruent	Block3	congruent/STIM_009.jpg
3042.246	0.927	1	congruent	Block3	congruent/STIM_010.jpg
3046.567	0.557	1	congruent	Block3	congruent/STIM_010.jpg
3049.882	0.761	1	congruent	Block3	congruent/STIM_010.jpg
3052.902	0.843	1	congruent	Block3	congruent/STIM_010.jpg
3056.217	0.55	1	congruent	Block3	congruent/STIM_010.jpg
3060.105	0.704	1	congruent	Block3	congruent/STIM_011.jpg
3063.647	0.824	1	congruent	Block3	congruent/STIM_011.jpg
3066.564	0.747	1	congruent	Block3	congruent/STIM_011.jpg
3069.591	0.592	0	congruent	Block3	congruent/STIM_011.jpg
3073.726	0.788	1	congruent	Block3	congruent/STIM_011.jpg
3076.649	0.671	1	congruent	Block3	congruent/STIM_012.jpg
3080.062	0.906	1	congruent	Block3	congruent/STIM_012.jpg
3084.784	0.658	1	congruent	Block3	congruent/STIM_012.jpg
3087.783	0.644	1	congruent	Block3	congruent/STIM_012.jpg
3090.645	0.538	1	congruent	Block3	congruent/STIM_012.jpg
3094.843	0.787	0	congruent	Block3	congruent/STIM_013.jpg
3098.413	0.661	1	congruent	Block3	congruent/STIM_013.jpg
3101.298	0.642	0	congruent	Block3	congruent/STIM_013.jpg
3105.909	0.695	1	congruent	Block3	congruent/STIM_013.jpg
3108.814	0.917	1	congruent	Block3	congruent/STIM_013.jpg
3113.304	0.776	1	congruent	Block3	congruent/STIM_014.jpg
3116.432	0.82	1	congruent	Block3	congruent/STIM_014.jpg
3120.828	0.669	1	congruent	Block3	congruent/STIM_014.jpg
3123.761	0.566	1	congruent	Block3	congruent/STIM_014.jpg
3126.673	0.692	0	congruent	Block3	congruent/STIM_014.jpg
3129.551	0.893	1	congruent	Block3	congruent/STIM_015.jpg
3133.232	0.696	1	congruent	Block3	congruent/STIM_015.jpg
3137.899	0.802	1	congruent	Block3	congruent/STIM_015.jpg
3141.643	0.913	1	congruent	Block3	congruent/STIM_015.jpg
3145.582	0.528	1	congruent	Block3	congruent/STIM_015.jpg
3149.672	0.734	1	congruent	Block3	congruent/STIM_016.jpg
3153.953	0.699	1	congruent	Block3	congruent/STIM_016.jpg
3157.057	0.566	1	congruent	Block3	congruent/STIM_016.jpg
3160.582	0.678	1	congruent	Block3	congruent/STIM_016.jpg
3164.802	0.72	1	congruent	Block3	congruent/STIM_016.jpg
3168.312	0.914	1	congruent	Block3	congruent/STIM_017.jpg
3173.176	0.663	1	congruent	Block3	congruent/STIM_017.jpg
3176.614	0.547	1	congruent	Block3	congruent/STIM_017.jpg
3179.468	0.811	1	congruent	Block3	congruent/STIM_017.jpg
3183.207	0.782	1	congruent	Block3	congruent/STIM_017.jpg
3187.346	0.559	1	congruent	Block3	congruent/STIM_018.jpg
3191.779	0.634	1	congruent	Block3	congruent/STIM_018.jpg
3195.928	0.595	1	congruent	Block3	congruent/STIM_018.jpg
3200.39	0.686	1	congruent	Block3	congruent/STIM_018.jpg
3203.221	0.891	1	congruent	Block3	congruent/STIM_018.jpg
3206.937	0.85	1	congruent	Block3	congruent/STIM_019.jpg
3210.483	0.87	1	congruent	Block3	congruent/STIM_019.jpg
3214.549	0.558	1	congruent	Block3	congruent/STIM_019.jpg
3217.746	0.628	1	congruent	Block3	congruent/STIM_019.jpg
3221.961	0.761	1	congruent	Block3	congruent/STIM_019.jpg
3225.492	0.795	1	congruent	Block3	congruent/STIM_020.jpg
3229.638	0.532	1	congruent	Block3	congruent/STIM_020.jpg
3232.531	0.848	1	congruent	Block3	congruent/STIM_020.jpg
3237.118	0.612	1	congruent	Block3	congruent/STIM_020.jpg
3241.633	0.576	1	congruent	Block3	congruent/STIM_020.jpg
3244.934	0.869	1	congruent	Block3	congruent/STIM_021.jpg
3248.472	0.916	1	congruent	Block3	congruent/STIM_021.jpg
3252.104	0.57	1	congruent	Block3	congruent/STIM_021.jpg
3255.246	0.812	1	congruent	Block3	congruent/STIM_021.jpg
3258.226	0.651	1	congruent	Block3	congruent/STIM_021.jpg
3261.645	0.726	1	congruent	Block3	congruent/STIM_022.jpg
3265.941	0.587	1	congruent	Block3	congruent/STIM_022.jpg
3270.01	0.573	1	congruent	Block3	congruent/STIM_022.jpg
3273.654	0.669	1	congruent	Block3	congruent/STIM_022.jpg
3277.316	0.555	0	congruent	Block3	congruent/STIM_022.jpg
3279.952	0.62	1	congruent	Block3	congruent/STIM_023.jpg
3284.016	0.734	1	congruent	Block3	congruent/STIM_023.jpg
3288.037	0.785	1	congruent	Block3	congruent/STIM_023.jpg
3291.873	0.745	1	congruent	Block3	congruent/STIM_023.jpg
3295.314	0.645	1	congruent	Block3	congruent/STIM_023.jpg
3299.025	0.857	1	congruent	Block3	congruent/STIM_024.jpg
3302.784	0.847	1	congruent	Block3	congruent/STIM_024.jpg
3306.556	0.822	1	congruent	Block3	congruent/STIM_024.jpg
3310.931	0.923	1	congruent	Block3	congruent/STIM_024.jpg
3314.825	0.601	1	congruent	Block3	congruent/STIM_024.jpg
3318.811	0.54	1	congruent	Block3	congruent/STIM_025.jpg
3322.689	0.93	1	congruent	Block3	congruent/STIM_025.jpg
3325.913	0.886	1	congruent	Block3	congruent/STIM_025.jpg
3328.969	0.777	1	congruent	Block3	congruent/STIM_025.jpg
3332.915	0.801	1	congruent	Block3	congruent/STIM_025.jpg
3337.576	0.74	1	congruent	Block3	congruent/STIM_026.jpg
3342.026	0.861	1	congruent	Block3	congruent/STIM_026.jpg
3345.658	0.564	1	congruent	Block3	congruent/STIM_026.jpg
3350.073	0.57	1	congruent	Block3	congruent/STIM_026.jpg
3353.665	0.732	1	congruent	Block3	congruent/STIM_026.jpg
3357.529	0.546	1	congruent	Block3	congruent/STIM_027.jpg
3361.808	0.586	1	congruent	Block3	congruent/STIM_027.jpg
3365.621	0.924	1	congruent	Block3	congruent/STIM_027.jpg
3368.98	0.701	1	congruent	Block3	congruent/STIM_027.jpg
3372.351	0.898	1	congruent	Block3	congruent/STIM_027.jpg
3375.404	0.669	1	congruent	Block3	congruent/STIM_028.jpg
3379.693	0.547	1	congruent	Block3	congruent/STIM_028.jpg
3383.586	0.915	1	congruent	Block3	congruent/STIM_028.jpg
3386.971	0.545	1	congruent	Block3	congruent/STIM_028.jpg
3390.539	0.63	1	congruent	Block3	congruent/STIM_028.jpg
3394.859	0.606	1	congruent	Block3	congruent/STIM_029.jpg
3399.168	0.901	1	congruent	Block3	congruent/STIM_029.jpg
3402.925	0.575	1	congruent	Block3	congruent/STIM_029.jpg
3405.931	0.697	1	congruent	Block3	congruent/STIM_029.jpg
3409.429	0.872	1	congruent	Block3	congruent/STIM_029.jpg
