onset	duration	accuracy_binary	trial_type	learning_stage	stimulus
0.0	3.257	1	navigation	Trial1	navigation/STIM_000.jpg
5.736	2.115	1	navigation	Trial1	navigation/STIM_000.jpg
10.062	2.578	1	navigation	Trial1	navigation/STIM_000.jpg
16.214	2.383	1	navigation	Trial1	navigation/STIM_000.jpg
21.409	3.184	1	navigation	Trial1	navigation/STIM_000.jpg
28.42	1.595	1	navigation	Trial1	navigation/STIM_000.jpg
32.392	2.741	0	navigation	Trial1	navigation/STIM_001.jpg
38.189	2.543	1	navigation	Trial1	navigation/STIM_001.jpg
43.096	4.062	0	navigation	Trial1	navigation/STIM_001.jpg
50.524	3.767	1	navigation	Trial1	navigation/STIM_001.jpg
57.674	2.241	1	navigation	Trial1	navigation/STIM_001.jpg
62.846	1.728	1	navigation	Trial1	navigation/STIM_001.jpg
67.343	3.769	0	navigation	Trial1	navigation/STIM_002.jpg
74.358	3.372	1	navigation	Trial1	navigation/STIM_002.jpg
81.404	3.484	0	navigation	Trial1	navigation/STIM_002.jpg
88.73	2.848	1	navigation	Trial1	navigation/STIM_002.jpg
93.952	3.33	0	navigation	Trial1	navigation/STIM_002.jpg
99.389	1.52	1	navigation	Trial1	navigation/STIM_002.jpg
104.039	3.015	1	navigation	Trial1	navigation/STIM_003.jpg
109.615	2.566	1	navigation	Trial1	navigation/STIM_003.jpg
115.596	2.725	0	navigation	Trial1	navigation/STIM_003.jpg
121.555	3.712	0	navigation	Trial1	navigation/STIM_003.jpg
129.164	1.789	0	navigation	Trial1	navigation/STIM_003.jpg
134.187	2.362	1	navigation	Trial1	navigation/STIM_003.jpg
139.053	3.679	0	navigation	Trial1	navigation/STIM_004.jpg
146.108	2.417	1	navigation	Trial1	navigation/STIM_004.jpg
151.952	3.697	1	navigation	Trial1	navigation/STIM_004.jpg
159.106	3.414	1	navigation	Trial1	navigation/STIM_004.jpg
166.517	3.008	1	navigation	Trial1	navigation/STIM_004.jpg
173.015	1.73	0	navigation	Trial1	navigation/STIM_004.jpg
178.1	2.893	1	navigation	Trial1	navigation/STIM_005.jpg
183.19	3.916	1	navigation	Trial1	navigation/STIM_005.jpg
190.537	2.125	0	navigation	Trial1	navigation/STIM_005.jpg
195.517	2.179	1	navigation	Trial1	navigation/STIM_005.jpg
200.581	3.77	1	navigation	Trial1	navigation/STIM_005.jpg
207.13	3.192	1	navigation	Trial1	navigation/STIM_005.jpg
214.14	3.282	1	navigation	Trial1	navigation/STIM_006.jpg
219.76	3.334	0	navigation	Trial1	navigation/STIM_006.jpg
226.181	1.868	0	navigation	Trial1	navigation/STIM_006.jpg
232.03	2.587	1	navigation	Trial1	navigation/STIM_006.jpg
238.262	2.092	1	navigation	Trial1	navigation/STIM_006.jpg
243.939	1.795	0	navigation	Trial1	navigation/STIM_006.jpg
249.389	2.004	1	navigation	Trial1	navigation/STIM_007.jpg
255.299	4.54	1	navigation	Trial1	navigation/STIM_007.jpg
263.034	2.519	0	navigation	Trial1	navigation/STIM_007.jpg
269.168	3.018	0	navigation	Trial1	navigation/STIM_007.jpg
275.147	3.545	1	navigation	Trial1	navigation/STIM_007.jpg
282.563	1.794	0	navigation	Trial1	navigation/STIM_007.jpg
287.936	2.211	1	navigation	Trial1	navigation/STIM_008.jpg
293.142	3.448	1	navigation	Trial1	navigation/STIM_008.jpg
298.877	2.022	1	navigation	Trial1	navigation/STIM_008.jpg
304.02	2.479	1	navigation	Trial1	navigation/STIM_008.jpg
309.328	3.382	1	navigation	Trial1	navigation/STIM_008.jpg
315.175	3.563	1	navigation	Trial1	navigation/STIM_008.jpg
320.821	3.132	0	navigation	Trial1	navigation/STIM_009.jpg
326.426	4.277	1	navigation	Trial1	navigation/STIM_009.jpg
334.419	1.953	1	navigation	Trial1	navigation/STIM_009.jpg
340.02	2.642	1	navigation	Trial1	navigation/STIM_009.jpg
345.748	3.283	0	navigation	Trial1	navigation/STIM_009.jpg
351.599	2.699	1	navigation	Trial1	navigation/STIM_009.jpg
357.862	3.699	1	navigation	Trial1	navigation/STIM_010.jpg
364.992	4.336	1	navigation	Trial1	navigation/STIM_010.jpg
371.614	1.826	0	navigation	Trial1	navigation/STIM_010.jpg
376.576	1.796	0	navigation	Trial1	navigation/STIM_010.jpg
381.675	1.642	1	navigation	Trial1	navigation/STIM_010.jpg
386.501	1.525	1	navigation	Trial1	navigation/STIM_010.jpg
390.638	3.766	0	navigation	Trial1	navigation/STIM_011.jpg
397.081	2.341	1	navigation	Trial1	navigation/STIM_011.jpg
402.821	2.103	0	navigation	Trial1	navigation/STIM_011.jpg
408.495	3.18	1	navigation	Trial1	navigation/STIM_011.jpg
413.783	3.223	1	navigation	Trial1	navigation/STIM_011.jpg
419.786	2.478	0	navigation	Trial1	navigation/STIM_011.jpg
426.159	1.095	1	pointing	Trial1	pointing/STIM_000.jpg
429.389	1.391	1	pointing	Trial1	pointing/STIM_000.jpg
434.283	1.008	1	pointing	Trial1	pointing/STIM_000.jpg
438.119	1.036	0	pointing	Trial1	pointing/STIM_000.jpg
442.912	1.195	1	pointing	Trial1	pointing/STIM_000.jpg
447.9	1.283	1	pointing	Trial1	pointing/STIM_000.jpg
453.129	1.275	1	pointing	Trial1	pointing/STIM_001.jpg
457.888	1.398	1	pointing	Trial1	pointing/STIM_001.jpg
462.07	1.352	1	pointing	Trial1	pointing/STIM_001.jpg
466.845	1.398	1	pointing	Trial1	pointing/STIM_001.jpg
470.766	0.949	1	pointing	Trial1	pointing/STIM_001.jpg
473.885	1.094	0	pointing	Trial1	pointing/STIM_001.jpg
478.862	1.382	1	pointing	Trial1	pointing/STIM_002.jpg
482.245	1.416	1	pointing	Trial1	pointing/STIM_002.jpg
486.53	1.255	0	pointing	Trial1	pointing/STIM_002.jpg
490.936	1.047	1	pointing	Trial1	pointing/STIM_002.jpg
494.558	1.155	1	pointing	Trial1	pointing/STIM_002.jpg
498.013	1.104	1	pointing	Trial1	pointing/STIM_002.jpg
501.812	1.312	1	pointing	Trial1	pointing/STIM_003.jpg
506.394	1.397	1	pointing	Trial1	pointing/STIM_003.jpg
510.4	0.872	0	pointing	Trial1	pointing/STIM_003.jpg
514.233	0.788	0	pointing	Trial1	pointing/STIM_003.jpg
518.584	1.328	1	pointing	Trial1	pointing/STIM_003.jpg
522.566	1.235	1	pointing	Trial1	pointing/STIM_003.jpg
527.269	0.969	1	pointing	Trial1	pointing/STIM_004.jpg
532.121	1.34	1	pointing	Trial1	pointing/STIM_004.jpg
536.123	0.996	1	pointing	Trial1	pointing/STIM_004.jpg
539.564	1.416	1	pointing	Trial1	pointing/STIM_004.jpg
543.747	1.276	1	pointing	Trial1	pointing/STIM_004.jpg
547.71	1.022	1	pointing	Trial1	pointing/STIM_004.jpg
551.434	1.346	1	pointing	Trial1	pointing/STIM_005.jpg
554.792	1.092	1	pointing	Trial1	pointing/STIM_005.jpg
557.944	0.808	1	pointing	Trial1	pointing/STIM_005.jpg
561.033	1.25	1	pointing	Trial1	pointing/STIM_005.jpg
564.314	1.155	1	pointing	Trial1	pointing/STIM_005.jpg
569.116	0.93	1	pointing	Trial1	pointing/STIM_005.jpg
572.37	1.336	1	pointing	Trial1	pointing/STIM_006.jpg
576.702	0.803	1	pointing	Trial1	pointing/STIM_006.jpg
580.505	0.827	1	pointing	Trial1	pointing/STIM_006.jpg
584.702	1.104	1	pointing	Trial1	pointing/STIM_006.jpg
589.794	1.235	1	pointing	Trial1	pointing/STIM_006.jpg
593.564	0.952	1	pointing	Trial1	pointing/STIM_006.jpg
597.167	0.958	1	pointing	Trial1	pointing/STIM_007.jpg
601.137	1.2	1	pointing	Trial1	pointing/STIM_007.jpg
604.862	1.102	1	pointing	Trial1	pointing/STIM_007.jpg
608.282	1.198	0	pointing	Trial1	pointing/STIM_007.jpg
612.357	1.402	1	pointing	Trial1	pointing/STIM_007.jpg
616.628	0.888	1	pointing	Trial1	pointing/STIM_007.jpg
620.425	1.198	1	pointing	Trial1	pointing/STIM_008.jpg
625.274	1.34	1	pointing	Trial1	pointing/STIM_008.jpg
628.912	0.948	1	pointing	Trial1	pointing/STIM_008.jpg
633.801	1.102	1	pointing	Trial1	pointing/STIM_008.jpg
637.341	1.162	1	pointing	Trial1	pointing/STIM_008.jpg
641.803	0.946	1	pointing	Trial1	pointing/STIM_008.jpg
644.938	1.073	1	pointing	Trial1	pointing/STIM_009.jpg
648.167	1.373	1	pointing	Trial1	pointing/STIM_009.jpg
652.224	1.223	1	pointing	Trial1	pointing/STIM_009.jpg
657.271	1.278	1	pointing	Trial1	pointing/STIM_009.jpg
660.672	0.881	1	pointing	Trial1	pointing/STIM_009.jpg
665.4	1.187	1	pointing	Trial1	pointing/STIM_009.jpg
670.581	1.096	1	pointing	Trial1	pointing/STIM_010.jpg
673.9	1.446	1	pointing	Trial1	pointing/STIM_010.jpg
677.88	1.293	1	pointing	Trial1	pointing/STIM_010.jpg
682.918	0.886	1	pointing	Trial1	pointing/STIM_010.jpg
686.35	0.836	1	pointing	Trial1	pointing/STIM_010.jpg
689.436	1.238	0	pointing	Trial1	pointing/STIM_010.jpg
694.564	0.89	0	pointing	Trial1	pointing/STIM_011.jpg
699.204	0.916	1	pointing	Trial1	pointing/STIM_011.jpg
703.799	0.966	1	pointing	Trial1	pointing/STIM_011.jpg
708.683	1.466	1	pointing	Trial1	pointing/STIM_011.jpg
713.0	0.936	0	pointing	Trial1	pointing/STIM_011.jpg
716.468	1.153	1	pointing	Trial1	pointing/STIM_011.jpg
719.782	3.633	0	navigation	Trial2	navigation/STIM_000.jpg
726.374	3.222	0	navigation	Trial2	navigation/STIM_000.jpg
731.817	2.075	1	navigation	Trial2	navigation/STIM_000.jpg
737.598	2.534	1	navigation	Trial2	navigation/STIM_000.jpg
742.54	3.367	1	navigation	Trial2	navigation/STIM_000.jpg
748.182	2.713	0	navigation	Trial2	navigation/STIM_000.jpg
754.466	1.976	0	navigation	Trial2	navigation/STIM_001.jpg
760.282	3.778	1	navigation	Trial2	navigation/STIM_001.jpg
767.9	2.952	0	navigation	Trial2	navigation/STIM_001.jpg
774.777	3.114	1	navigation	Trial2	navigation/STIM_001.jpg
780.464	3.111	1	navigation	Trial2	navigation/STIM_001.jpg
786.001	2.905	1	navigation	Trial2	navigation/STIM_001.jpg
791.677	3.276	1	navigation	Trial2	navigation/STIM_002.jpg
797.666	1.833	1	navigation	Trial2	navigation/STIM_002.jpg
802.891	2.152	1	navigation	Trial2	navigation/STIM_002.jpg
807.366	1.528	1	navigation	Trial2	navigation/STIM_002.jpg
812.4	1.492	1	navigation	Trial2	navigation/STIM_002.jpg
815.939	1.888	1	navigation	Trial2	navigation/STIM_002.jpg
820.298	2.238	1	navigation	Trial2	navigation/STIM_003.jpg
825.271	1.805	1	navigation	Trial2	navigation/STIM_003.jpg
829.579	1.728	1	navigation	Trial2	navigation/STIM_003.jpg
834.895	2.672	1	navigation	Trial2	navigation/STIM_003.jpg
840.652	2.785	1	navigation	Trial2	navigation/STIM_003.jpg
846.169	3.066	0	navigation	Trial2	navigation/STIM_003.jpg
851.71	3.836	1	navigation	Trial2	navigation/STIM_004.jpg
858.83	2.981	0	navigation	Trial2	navigation/STIM_004.jpg
864.701	2.879	1	navigation	Trial2	navigation/STIM_004.jpg
871.362	1.959	1	navigation	Trial2	navigation/STIM_004.jpg
876.781	1.909	1	navigation	Trial2	navigation/STIM_004.jpg
882.248	3.403	1	navigation	Trial2	navigation/STIM_004.jpg
889.438	2.406	0	navigation	Trial2	navigation/STIM_005.jpg
895.166	3.056	1	navigation	Trial2	navigation/STIM_005.jpg
901.809	1.544	0	navigation	Trial2	navigation/STIM_005.jpg
905.58	3.003	1	navigation	Trial2	navigation/STIM_005.jpg
912.47	2.94	0	navigation	Trial2	navigation/STIM_005.jpg
917.658	2.467	0	navigation	Trial2	navigation/STIM_005.jpg
922.329	1.675	1	navigation	Trial2	navigation/STIM_006.jpg
927.694	2.072	0	navigation	Trial2	navigation/STIM_006.jpg
933.308	1.713	1	navigation	Trial2	navigation/STIM_006.jpg
937.987	2.224	1	navigation	Trial2	navigation/STIM_006.jpg
943.059	2.834	1	navigation	Trial2	navigation/STIM_006.jpg
949.567	2.856	1	navigation	Trial2	navigation/STIM_006.jpg
956.129	3.228	1	navigation	Trial2	navigation/STIM_007.jpg
962.374	3.57	1	navigation	Trial2	navigation/STIM_007.jpg
968.34	2.761	1	navigation	Trial2	navigation/STIM_007.jpg
973.484	2.509	1	navigation	Trial2	navigation/STIM_007.jpg
979.979	1.474	1	navigation	Trial2	navigation/STIM_007.jpg
984.418	2.626	1	navigation	Trial2	navigation/STIM_007.jpg
990.735	2.302	1	navigation	Trial2	navigation/STIM_008.jpg
997.008	3.836	1	navigation	Trial2	navigation/STIM_008.jpg
1004.598	2.873	0	navigation	Trial2	navigation/STIM_008.jpg
1009.985	1.38	1	navigation	Trial2	navigation/STIM_008.jpg
1014.93	1.627	0	navigation	Trial2	navigation/STIM_008.jpg
1019.164	3.294	1	navigation	Trial2	navigation/STIM_008.jpg
1026.039	2.313	1	navigation	Trial2	navigation/STIM_009.jpg
1032.064	2.547	1	navigation	Trial2	navigation/STIM_009.jpg
1037.149	2.233	1	navigation	Trial2	navigation/STIM_009.jpg
1043.15	2.233	1	navigation	Trial2	navigation/STIM_009.jpg
1048.542	2.187	1	navigation	Trial2	navigation/STIM_009.jpg
1054.158	2.612	1	navigation	Trial2	navigation/STIM_009.jpg
1059.297	3.315	1	navigation	Trial2	navigation/STIM_010.jpg
1064.982	2.134	1	navigation	Trial2	navigation/STIM_010.jpg
1070.174	1.921	1	navigation	Trial2	navigation/STIM_010.jpg
1075.534	2.058	0	navigation	Trial2	navigation/STIM_010.jpg
1079.792	2.93	1	navigation	Trial2	navigation/STIM_010.jpg
1084.891	2.599	1	navigation	Trial2	navigation/STIM_010.jpg
1090.874	3.823	1	navigation	Trial2	navigation/STIM_011.jpg
1097.91	2.522	1	navigation	Trial2	navigation/STIM_011.jpg
1102.591	2.624	1	navigation	Trial2	navigation/STIM_011.jpg
1108.557	1.409	0	navigation	Trial2	navigation/STIM_011.jpg
1113.112	2.764	1	navigation	Trial2	navigation/STIM_011.jpg
1118.092	2.582	1	navigation	Trial2	navigation/STIM_011.jpg
1124.071	0.863	1	pointing	Trial2	pointing/STIM_000.jpg
1127.077	0.913	1	pointing	Trial2	pointing/STIM_000.jpg
1131.512	1.208	1	pointing	Trial2	pointing/STIM_000.jpg
1135.022	1.022	1	pointing	Trial2	pointing/STIM_000.jpg
1139.493	1.17	1	pointing	Trial2	pointing/STIM_000.jpg
1143.242	1.366	1	pointing	Trial2	pointing/STIM_000.jpg
1148.286	0.926	0	pointing	Trial2	pointing/STIM_001.jpg
1152.266	1.357	0	pointing	Trial2	pointing/STIM_001.jpg
1157.263	1.39	1	pointing	Trial2	pointing/STIM_001.jpg
1162.4	0.838	0	pointing	Trial2	pointing/STIM_001.jpg
1166.495	1.32	1	pointing	Trial2	pointing/STIM_001.jpg
1169.875	1.064	1	pointing	Trial2	pointing/STIM_001.jpg
1174.361	1.014	1	pointing	Trial2	pointing/STIM_002.jpg
1178.464	1.332	1	pointing	Trial2	pointing/STIM_002.jpg
1183.106	1.252	1	pointing	Trial2	pointing/STIM_002.jpg
1187.936	1.454	1	pointing	Trial2	pointing/STIM_002.jpg
1192.205	0.87	1	pointing	Trial2	pointing/STIM_002.jpg
1197.004	1.337	1	pointing	Trial2	pointing/STIM_002.jpg
1200.783	0.786	1	pointing	Trial2	pointing/STIM_003.jpg
1205.007	1.014	1	pointing	Trial2	pointing/STIM_003.jpg
1209.393	1.222	1	pointing	Trial2	pointing/STIM_003.jpg
1214.441	1.218	0	pointing	Trial2	pointing/STIM_003.jpg
1218.821	0.859	1	pointing	Trial2	pointing/STIM_003.jpg
1223.189	1.361	1	pointing	Trial2	pointing/STIM_003.jpg
1227.141	1.037	1	pointing	Trial2	pointing/STIM_004.jpg
1231.719	1.188	1	pointing	Trial2	pointing/STIM_004.jpg
1235.686	1.132	1	pointing	Trial2	pointing/STIM_004.jpg
1240.752	0.935	1	pointing	Trial2	pointing/STIM_004.jpg
1244.317	1.412	1	pointing	Trial2	pointing/STIM_004.jpg
1249.528	1.244	1	pointing	Trial2	pointing/STIM_004.jpg
1254.04	1.07	1	pointing	Trial2	pointing/STIM_005.jpg
1258.194	1.436	0	pointing	Trial2	pointing/STIM_005.jpg
1263.554	1.168	1	pointing	Trial2	pointing/STIM_005.jpg
1266.916	1.129	1	pointing	Trial2	pointing/STIM_005.jpg
1270.715	1.011	1	pointing	Trial2	pointing/STIM_005.jpg
1274.837	1.317	1	pointing	Trial2	pointing/STIM_005.jpg
1279.321	0.792	1	pointing	Trial2	pointing/STIM_006.jpg
1283.529	1.335	1	pointing	Trial2	pointing/STIM_006.jpg
1288.817	0.822	1	pointing	Trial2	pointing/STIM_006.jpg
1293.4	1.201	1	pointing	Trial2	pointing/STIM_006.jpg
1297.121	1.053	1	pointing	Trial2	pointing/STIM_006.jpg
1301.423	0.856	1	pointing	Trial2	pointing/STIM_006.jpg
1305.367	1.292	1	pointing	Trial2	pointing/STIM_007.jpg
1310.424	1.45	1	pointing	Trial2	pointing/STIM_007.jpg
1314.349	0.865	1	pointing	Trial2	pointing/STIM_007.jpg
1318.657	1.379	1	pointing	Trial2	pointing/STIM_007.jpg
1322.121	0.832	1	pointing	Trial2	pointing/STIM_007.jpg
1325.621	0.977	1	pointing	Trial2	pointing/STIM_007.jpg
1328.683	0.924	1	pointing	Trial2	pointing/STIM_008.jpg
1332.356	1.429	0	pointing	Trial2	pointing/STIM_008.jpg
1336.83	1.406	1	pointing	Trial2	pointing/STIM_008.jpg
1340.388	0.956	0	pointing	Trial2	pointing/STIM_008.jpg
1343.481	1.107	1	pointing	Trial2	pointing/STIM_008.jpg
1347.23	1.429	1	pointing	Trial2	pointing/STIM_008.jpg
1351.107	1.378	1	pointing	Trial2	pointing/STIM_009.jpg
1355.675	1.38	1	pointing	Trial2	pointing/STIM_009.jpg
1360.376	1.307	1	pointing	Trial2	pointing/STIM_009.jpg
1364.43	0.794	1	pointing	Trial2	pointing/STIM_009.jpg
1368.191	1.264	1	pointing	Trial2	pointing/STIM_009.jpg
1372.238	1.178	1	pointing	Trial2	pointing/STIM_009.jpg
1376.36	0.963	1	pointing	Trial2	pointing/STIM_010.jpg
1380.093	1.19	1	pointing	Trial2	pointing/STIM_010.jpg
1385.19	1.427	1	pointing	Trial2	pointing/STIM_010.jpg
1389.96	1.079	1	pointing	Trial2	pointing/STIM_010.jpg
1394.334	1.297	1	pointing	Trial2	pointing/STIM_010.jpg
1397.776	1.381	1	pointing	Trial2	pointing/STIM_010.jpg
1402.144	1.226	1	pointing	Trial2	pointing/STIM_011.jpg
1405.859	0.936	1	pointing	Trial2	pointing/STIM_011.jpg
1409.372	1.262	0	pointing	Trial2	pointing/STIM_011.jpg
1414.611	1.234	1	pointing	Trial2	pointing/STIM_011.jpg
1418.077	1.168	1	pointing	Trial2	pointing/STIM_011.jpg
1421.827	1.378	0	pointing	Trial2	pointing/STIM_011.jpg
1426.73	2.408	1	navigation	Trial3	navigation/STIM_000.jpg
1431.195	2.952	1	navigation	Trial3	navigation/STIM_000.jpg
1437.681	3.397	1	navigation	Trial3	navigation/STIM_000.jpg
1444.818	1.732	1	navigation	Trial3	navigation/STIM_000.jpg
1449.501	2.72	1	navigation	Trial3	navigation/STIM_000.jpg
1454.378	2.108	1	navigation	Trial3	navigation/STIM_000.jpg
1458.684	2.032	1	navigation	Trial3	navigation/STIM_001.jpg
1464.425	1.947	1	navigation	Trial3	navigation/STIM_001.jpg
1468.712	2.721	0	navigation	Trial3	navigation/STIM_001.jpg
1474.624	2.284	1	navigation	Trial3	navigation/STIM_001.jpg
1480.531	2.798	1	navigation	Trial3	navigation/STIM_001.jpg
1486.306	3.211	1	navigation	Trial3	navigation/STIM_001.jpg
1491.64	2.034	1	navigation	Trial3	navigation/STIM_002.jpg
1496.428	3.371	0	navigation	Trial3	navigation/STIM_002.jpg
1502.433	2.969	0	navigation	Trial3	navigation/STIM_002.jpg
1509.292	1.68	1	navigation	Trial3	navigation/STIM_002.jpg
1513.924	2.398	1	navigation	Trial3	navigation/STIM_002.jpg
1520.084	2.485	1	navigation	Trial3	navigation/STIM_002.jpg
1526.277	2.444	1	navigation	Trial3	navigation/STIM_003.jpg
1532.193	2.465	1	navigation	Trial3	navigation/STIM_003.jpg
1537.914	1.47	1	navigation	Trial3	navigation/STIM_003.jpg
1541.758	2.53	1	navigation	Trial3	navigation/STIM_003.jpg
1546.757	1.897	0	navigation	Trial3	navigation/STIM_003.jpg
1551.853	1.972	1	navigation	Trial3	navigation/STIM_003.jpg
1557.188	2.726	1	navigation	Trial3	navigation/STIM_004.jpg
1563.785	1.894	1	navigation	Trial3	navigation/STIM_004.jpg
1567.709	1.989	0	navigation	Trial3	navigation/STIM_004.jpg
1572.295	3.061	1	navigation	Trial3	navigation/STIM_004.jpg
1578.283	3.281	1	navigation	Trial3	navigation/STIM_004.jpg
1584.823	2.492	0	navigation	Trial3	navigation/STIM_004.jpg
1590.832	1.835	1	navigation	Trial3	navigation/STIM_005.jpg
1595.915	2.806	1	navigation	Trial3	navigation/STIM_005.jpg
1601.121	3.175	1	navigation	Trial3	navigation/STIM_005.jpg
1608.007	1.412	0	navigation	Trial3	navigation/STIM_005.jpg
1613.404	1.737	1	navigation	Trial3	navigation/STIM_005.jpg
1617.956	1.632	0	navigation	Trial3	navigation/STIM_005.jpg
1622.893	2.283	1	navigation	Trial3	navigation/STIM_006.jpg
1628.92	1.746	1	navigation	Trial3	navigation/STIM_006.jpg
1634.08	2.369	0	navigation	Trial3	navigation/STIM_006.jpg
1639.417	1.795	1	navigation	Trial3	navigation/STIM_006.jpg
1644.194	1.806	1	navigation	Trial3	navigation/STIM_006.jpg
1649.503	1.958	1	navigation	Trial3	navigation/STIM_006.jpg
1655.012	1.806	1	navigation	Trial3	navigation/STIM_007.jpg
1659.661	1.829	1	navigation	Trial3	navigation/STIM_007.jpg
1663.731	3.176	1	navigation	Trial3	navigation/STIM_007.jpg
1670.837	1.919	0	navigation	Trial3	navigation/STIM_007.jpg
1676.081	2.2	1	navigation	Trial3	navigation/STIM_007.jpg
1681.048	2.415	1	navigation	Trial3	navigation/STIM_007.jpg
1685.567	2.222	0	navigation	Trial3	navigation/STIM_008.jpg
1691.719	2.834	1	navigation	Trial3	navigation/STIM_008.jpg
1696.696	1.932	1	navigation	Trial3	navigation/STIM_008.jpg
1700.851	2.652	1	navigation	Trial3	navigation/STIM_008.jpg
1706.203	1.545	0	navigation	Trial3	navigation/STIM_008.jpg
1710.52	1.579	1	navigation	Trial3	navigation/STIM_008.jpg
1714.585	1.648	1	navigation	Trial3	navigation/STIM_009.jpg
1719.345	1.787	1	navigation	Trial3	navigation/STIM_009.jpg
1724.356	2.49	0	navigation	Trial3	navigation/STIM_009.jpg
1729.066	2.962	0	navigation	Trial3	navigation/STIM_009.jpg
1734.839	2.496	1	navigation	Trial3	navigation/STIM_009.jpg
1740.134	1.675	1	navigation	Trial3	navigation/STIM_009.jpg
1745.067	2.342	1	navigation	Trial3	navigation/STIM_010.jpg
1749.627	1.391	1	navigation	Trial3	navigation/STIM_010.jpg
1754.282	2.915	1	navigation	Trial3	navigation/STIM_010.jpg
1759.445	3.302	0	navigation	Trial3	navigation/STIM_010.jpg
1765.553	1.868	1	navigation	Trial3	navigation/STIM_010.jpg
1771.357	1.504	1	navigation	Trial3	navigation/STIM_010.jpg
1776.204	2.812	1	navigation	Trial3	navigation/STIM_011.jpg
1782.142	3.307	1	navigation	Trial3	navigation/STIM_011.jpg
1788.23	3.012	1	navigation	Trial3	navigation/STIM_011.jpg
1794.713	1.74	1	navigation	Trial3	navigation/STIM_011.jpg
1798.878	1.44	0	navigation	Trial3	navigation/STIM_011.jpg
1803.181	2.342	1	navigation	Trial3	navigation/STIM_011.jpg
1809.171	1.097	1	pointing	Trial3	pointing/STIM_000.jpg
1813.238	1.159	0	pointing	Trial3	pointing/STIM_000.jpg
1818.167	1.362	0	pointing	Trial3	pointing/STIM_000.jpg
1823.458	0.954	1	pointing	Trial3	pointing/STIM_000.jpg
1826.986	1.398	1	pointing	Trial3	pointing/STIM_000.jpg
1831.66	0.908	1	pointing	Trial3	pointing/STIM_000.jpg
1835.317	1.338	1	pointing	Trial3	pointing/STIM_001.jpg
1840.19	1.234	1	pointing	Trial3	pointing/STIM_001.jpg
1843.847	0.862	1	pointing	Trial3	pointing/STIM_001.jpg
1848.514	1.196	1	pointing	Trial3	pointing/STIM_001.jpg
1851.849	1.028	1	pointing	Trial3	pointing/STIM_001.jpg
1856.365	1.435	1	pointing	Trial3	pointing/STIM_001.jpg
1859.824	1.188	1	pointing	Trial3	pointing/STIM_002.jpg
1864.875	0.938	0	pointing	Trial3	pointing/STIM_002.jpg
1867.994	0.789	1	pointing	Trial3	pointing/STIM_002.jpg
1871.86	1.43	1	pointing	Trial3	pointing/STIM_002.jpg
1876.527	0.831	1	pointing	Trial3	pointing/STIM_002.jpg
1880.268	0.88	1	pointing	Trial3	pointing/STIM_002.jpg
1883.971	1.171	1	pointing	Trial3	pointing/STIM_003.jpg
1887.609	1.29	1	pointing	Trial3	pointing/STIM_003.jpg
1892.323	0.994	1	pointing	Trial3	pointing/STIM_003.jpg
1895.506	0.918	1	pointing	Trial3	pointing/STIM_003.jpg
1898.7	0.816	1	pointing	Trial3	pointing/STIM_003.jpg
1901.59	1.24	1	pointing	Trial3	pointing/STIM_003.jpg
1906.635	0.984	1	pointing	Trial3	pointing/STIM_004.jpg
1910.247	0.916	1	pointing	Trial3	pointing/STIM_004.jpg
1913.906	1.109	1	pointing	Trial3	pointing/STIM_004.jpg
1917.075	1.345	1	pointing	Trial3	pointing/STIM_004.jpg
1921.1	1.349	1	pointing	Trial3	pointing/STIM_004.jpg
1925.893	1.023	1	pointing	Trial3	pointing/STIM_004.jpg
1929.137	0.979	1	pointing	Trial3	pointing/STIM_005.jpg
1933.974	0.993	1	pointing	Trial3	pointing/STIM_005.jpg
1938.768	1.071	0	pointing	Trial3	pointing/STIM_005.jpg
1943.423	1.133	1	pointing	Trial3	pointing/STIM_005.jpg
1948.38	1.337	1	pointing	Trial3	pointing/STIM_005.jpg
1952.049	0.81	1	pointing	Trial3	pointing/STIM_005.jpg
1955.237	1.466	1	pointing	Trial3	pointing/STIM_006.jpg
1958.796	1.131	1	pointing	Trial3	pointing/STIM_006.jpg
1962.747	1.416	1	pointing	Trial3	pointing/STIM_006.jpg
1967.405	1.463	1	pointing	Trial3	pointing/STIM_006.jpg
1971.024	0.798	1	pointing	Trial3	pointing/STIM_006.jpg
1975.674	1.244	1	pointing	Trial3	pointing/STIM_006.jpg
1980.061	1.023	1	pointing	Trial3	pointing/STIM_007.jpg
1984.035	1.025	0	pointing	Trial3	pointing/STIM_007.jpg
1988.619	1.131	1	pointing	Trial3	pointing/STIM_007.jpg
1992.753	1.32	1	pointing	Trial3	pointing/STIM_007.jpg
1997.324	1.259	1	pointing	Trial3	pointing/STIM_007.jpg
2002.371	1.1	1	pointing	Trial3	pointing/STIM_007.jpg
2006.112	1.422	1	pointing	Trial3	pointing/STIM_008.jpg
2010.91	0.888	1	pointing	Trial3	pointing/STIM_008.jpg
2015.251	1.225	1	pointing	Trial3	pointing/STIM_008.jpg
2018.835	0.978	1	pointing	Trial3	pointing/STIM_008.jpg
2021.915	1.175	1	pointing	Trial3	pointing/STIM_008.jpg
2026.926	0.868	1	pointing	Trial3	pointing/STIM_008.jpg
2030.008	1.142	1	pointing	Trial3	pointing/STIM_009.jpg
2034.973	1.265	1	pointing	Trial3	pointing/STIM_009.jpg
2038.398	1.174	1	pointing	Trial3	pointing/STIM_009.jpg
2042.635	1.242	1	pointing	Trial3	pointing/STIM_009.jpg
2047.326	1.447	1	pointing	Trial3	pointing/STIM_009.jpg
2052.183	1.255	1	pointing	Trial3	pointing/STIM_009.jpg
2057.051	0.971	1	pointing	Trial3	pointing/STIM_010.jpg
2061.579	0.862	0	pointing	Trial3	pointing/STIM_010.jpg
2065.455	0.914	1	pointing	Trial3	pointing/STIM_010.jpg
2069.528	1.348	1	pointing	Trial3	pointing/STIM_010.jpg
2073.641	1.116	1	pointing	Trial3	pointing/STIM_010.jpg
2078.625	1.229	1	pointing	Trial3	pointing/STIM_010.jpg
2082.709	0.819	1	pointing	Trial3	pointing/STIM_011.jpg
2086.096	0.927	1	pointing	Trial3	pointing/STIM_011.jpg
2090.594	1.203	1	pointing	Trial3	pointing/STIM_011.jpg
2094.391	1.43	1	pointing	Trial3	pointing/STIM_011.jpg
2098.999	1.328	1	pointing	Trial3	pointing/STIM_011.jpg
2103.062	1.008	1	pointing	Trial3	pointing/STIM_011.jpg
