onset	duration	accuracy	trial_type	learning_stage	stimulus
0.0	2.047	correct	navigation	Trial1	navigation/STIM_000.jpg
5.633	3.601	correct	navigation	Trial1	navigation/STIM_000.jpg
12.888	3.776	correct	navigation	Trial1	navigation/STIM_000.jpg
20.069	4.161	correct	navigation	Trial1	navigation/STIM_000.jpg
27.215	3.46	incorrect	navigation	Trial1	navigation/STIM_000.jpg
34.704	2.327	correct	navigation	Trial1	navigation/STIM_000.jpg
40.469	2.566	incorrect	navigation	Trial1	navigation/STIM_001.jpg
45.965	2.051	correct	navigation	Trial1	navigation/STIM_001.jpg
50.092	3.67	correct	navigation	Trial1	navigation/STIM_001.jpg
57.015	1.886	correct	navigation	Trial1	navigation/STIM_001.jpg
61.886	3.363	correct	navigation	Trial1	navigation/STIM_001.jpg
67.968	2.256	correct	navigation	Trial1	navigation/STIM_001.jpg
73.841	3.497	incorrect	navigation	Trial1	navigation/STIM_002.jpg
81.055	2.173	correct	navigation	Trial1	navigation/STIM_002.jpg
87.104	1.902	incorrect	navigation	Trial1	navigation/STIM_002.jpg
92.706	2.14	correct	navigation	Trial1	navigation/STIM_002.jpg
98.293	3.321	correct	navigation	Trial1	navigation/STIM_002.jpg
104.567	1.707	correct	navigation	Trial1	navigation/STIM_002.jpg
109.431	3.546	correct	navigation	Trial1	navigation/STIM_003.jpg
116.298	2.414	correct	navigation	Trial1	navigation/STIM_003.jpg
122.489	3.613	incorrect	navigation	Trial1	navigation/STIM_003.jpg
128.775	1.944	incorrect	navigation	Trial1	navigation/STIM_003.jpg
134.091	2.479	incorrect	navigation	Trial1	navigation/STIM_003.jpg
139.008	2.658	correct	navigation	Trial1	navigation/STIM_003.jpg
145.614	2.083	correct	navigation	Trial1	navigation/STIM_004.jpg
151.726	3.714	correct	navigation	Trial1	navigation/STIM_004.jpg
159.244	4.201	correct	navigation	Trial1	navigation/STIM_004.jpg
165.963	4.104	incorrect	navigation	Trial1	navigation/STIM_004.jpg
173.459	3.343	correct	navigation	Trial1	navigation/STIM_004.jpg
179.182	3.215	correct	navigation	Trial1	navigation/STIM_004.jpg
185.642	2.952	incorrect	navigation	Trial1	navigation/STIM_005.jpg
191.935	2.191	correct	navigation	Trial1	navigation/STIM_005.jpg
198.154	2.823	incorrect	navigation	Trial1	navigation/STIM_005.jpg
203.542	1.779	correct	navigation	Trial1	navigation/STIM_005.jpg
209.198	2.445	correct	navigation	Trial1	navigation/STIM_005.jpg
215.154	2.367	correct	navigation	Trial1	navigation/STIM_005.jpg
219.723	2.653	correct	navigation	Trial1	navigation/STIM_006.jpg
224.567	3.54	incorrect	navigation	Trial1	navigation/STIM_006.jpg
232.223	4.336	incorrect	navigation	Trial1	navigation/STIM_006.jpg
239.639	2.49	correct	navigation	Trial1	navigation/STIM_006.jpg
245.213	3.717	correct	navigation	Trial1	navigation/STIM_006.jpg
252.851	2.116	incorrect	navigation	Trial1	navigation/STIM_006.jpg
258.193	3.118	correct	navigation	Trial1	navigation/STIM_007.jpg
265.42	4.246	correct	navigation	Trial1	navigation/STIM_007.jpg
273.312	4.07	correct	navigation	Trial1	navigation/STIM_007.jpg
280.672	2.852	incorrect	navigation	Trial1	navigation/STIM_007.jpg
286.666	2.682	correct	navigation	Trial1	navigation/STIM_007.jpg
292.71	2.496	incorrect	navigation	Trial1	navigation/STIM_007.jpg
297.482	2.659	correct	navigation	Trial1	navigation/STIM_008.jpg
303.033	4.106	correct	navigation	Trial1	navigation/STIM_008.jpg
310.07	3.984	correct	navigation	Trial1	navigation/STIM_008.jpg
317.21	3.353	correct	navigation	Trial1	navigation/STIM_008.jpg
323.407	3.187	correct	navigation	Trial1	navigation/STIM_008.jpg
330.109	2.55	correct	navigation	Trial1	navigation/STIM_008.jpg
335.158	2.298	incorrect	navigation	Trial1	navigation/STIM_009.jpg
340.355	3.316	correct	navigation	Trial1	navigation/STIM_009.jpg
346.13	2.221	correct	navigation	Trial1	navigation/STIM_009.jpg
351.783	2.26	incorrect	navigation	Trial1	navigation/STIM_009.jpg
357.526	1.925	incorrect	navigation	Trial1	navigation/STIM_009.jpg
362.433	2.838	correct	navigation	Trial1	navigation/STIM_009.jpg
368.202	3.343	correct	navigation	Trial1	navigation/STIM_010.jpg
375.34	3.452	correct	navigation	Trial1	navigation/STIM_010.jpg
382.309	2.65	incorrect	navigation	Trial1	navigation/STIM_010.jpg
387.126	3.261	incorrect	navigation	Trial1	navigation/STIM_010.jpg
392.53	3.552	correct	navigation	Trial1	navigation/STIM_010.jpg
399.578	3.151	correct	navigation	Trial1	navigation/STIM_010.jpg
405.554	3.542	correct	navigation	Trial1	navigation/STIM_011.jpg
412.67	1.862	correct	navigation	Trial1	navigation/STIM_011.jpg
418.037	3.402	incorrect	navigation	Trial1	navigation/STIM_011.jpg
423.566	1.851	correct	navigation	Trial1	navigation/STIM_011.jpg
428.903	3.452	correct	navigation	Trial1	navigation/STIM_011.jpg
435.134	2.92	incorrect	navigation	Trial1	navigation/STIM_011.jpg
442.103	1.169	incorrect	pointing	Trial1	pointing/STIM_000.jpg
446.688	0.779	correct	pointing	Trial1	pointing/STIM_000.jpg
449.994	1.21	correct	pointing	Trial1	pointing/STIM_000.jpg
454.522	1.1	incorrect	pointing	Trial1	pointing/STIM_000.jpg
457.595	0.81	correct	pointing	Trial1	pointing/STIM_000.jpg
460.655	1.202	correct	pointing	Trial1	pointing/STIM_000.jpg
464.342	1.052	incorrect	pointing	Trial1	pointing/STIM_001.jpg
468.765	1.281	correct	pointing	Trial1	pointing/STIM_001.jpg
472.209	1.217	correct	pointing	Trial1	pointing/STIM_001.jpg
477.106	1.162	correct	pointing	Trial1	pointing/STIM_001.jpg
481.924	1.018	correct	pointing	Trial1	pointing/STIM_001.jpg
485.337	1.08	incorrect	pointing	Trial1	pointing/STIM_001.jpg
489.24	1.306	correct	pointing	Trial1	pointing/STIM_002.jpg
494.193	0.876	correct	pointing	Trial1	pointing/STIM_002.jpg
498.917	1.112	incorrect	pointing	Trial1	pointing/STIM_002.jpg
502.275	0.999	correct	pointing	Trial1	pointing/STIM_002.jpg
505.811	1.234	correct	pointing	Trial1	pointing/STIM_002.jpg
509.971	1.16	correct	pointing	Trial1	pointing/STIM_002.jpg
514.626	1.015	correct	pointing	Trial1	pointing/STIM_003.jpg
518.039	1.071	correct	pointing	Trial1	pointing/STIM_003.jpg
521.396	1.146	incorrect	pointing	Trial1	pointing/STIM_003.jpg
524.68	0.957	incorrect	pointing	Trial1	pointing/STIM_003.jpg
528.745	0.924	correct	pointing	Trial1	pointing/STIM_003.jpg
532.028	1.382	correct	pointing	Trial1	pointing/STIM_003.jpg
535.512	1.201	correct	pointing	Trial1	pointing/STIM_004.jpg
540.235	1.141	correct	pointing	Trial1	pointing/STIM_004.jpg
543.764	1.238	correct	pointing	Trial1	pointing/STIM_004.jpg
548.152	1.252	correct	pointing	Trial1	pointing/STIM_004.jpg
551.644	1.143	correct	pointing	Trial1	pointing/STIM_004.jpg
555.388	0.991	correct	pointing	Trial1	pointing/STIM_004.jpg
559.632	0.884	correct	pointing	Trial1	pointing/STIM_005.jpg
564.157	1.398	incorrect	pointing	Trial1	pointing/STIM_005.jpg
569.183	0.911	correct	pointing	Trial1	pointing/STIM_005.jpg
574.062	0.891	correct	pointing	Trial1	pointing/STIM_005.jpg
577.987	1.232	correct	pointing	Trial1	pointing/STIM_005.jpg
582.942	0.782	correct	pointing	Trial1	pointing/STIM_005.jpg
587.616	1.028	correct	pointing	Trial1	pointing/STIM_006.jpg
592.692	1.358	correct	pointing	Trial1	pointing/STIM_006.jpg
596.933	1.244	correct	pointing	Trial1	pointing/STIM_006.jpg
601.37	0.918	correct	pointing	Trial1	pointing/STIM_006.jpg
605.832	0.914	correct	pointing	Trial1	pointing/STIM_006.jpg
610.671	1.307	correct	pointing	Trial1	pointing/STIM_006.jpg
614.307	0.975	correct	pointing	Trial1	pointing/STIM_007.jpg
617.369	0.789	correct	pointing	Trial1	pointing/STIM_007.jpg
622.133	1.103	correct	pointing	Trial1	pointing/STIM_007.jpg
625.968	1.315	incorrect	pointing	Trial1	pointing/STIM_007.jpg
630.962	1.47	correct	pointing	Trial1	pointing/STIM_007.jpg
634.961	0.905	correct	pointing	Trial1	pointing/STIM_007.jpg
638.537	1.277	correct	pointing	Trial1	pointing/STIM_008.jpg
643.01	1.004	correct	pointing	Trial1	pointing/STIM_008.jpg
647.361	0.893	correct	pointing	Trial1	pointing/STIM_008.jpg
651.371	1.178	correct	pointing	Trial1	pointing/STIM_008.jpg
654.756	1.266	correct	pointing	Trial1	pointing/STIM_008.jpg
658.206	1.056	correct	pointing	Trial1	pointing/STIM_008.jpg
661.153	1.218	correct	pointing	Trial1	pointing/STIM_009.jpg
666.264	1.033	correct	pointing	Trial1	pointing/STIM_009.jpg
670.102	1.17	correct	pointing	Trial1	pointing/STIM_009.jpg
673.234	0.848	correct	pointing	Trial1	pointing/STIM_009.jpg
677.838	1.035	correct	pointing	Trial1	pointing/STIM_009.jpg
681.49	0.923	correct	pointing	Trial1	pointing/STIM_009.jpg
684.87	1.3	correct	pointing	Trial1	pointing/STIM_010.jpg
688.517	1.2	correct	pointing	Trial1	pointing/STIM_010.jpg
691.977	1.152	correct	pointing	Trial1	pointing/STIM_010.jpg
695.264	1.158	correct	pointing	Trial1	pointing/STIM_010.jpg
700.143	0.824	correct	pointing	Trial1	pointing/STIM_010.jpg
703.713	0.79	incorrect	pointing	Trial1	pointing/STIM_010.jpg
708.332	0.946	correct	pointing	Trial1	pointing/STIM_011.jpg
711.37	1.156	correct	pointing	Trial1	pointing/STIM_011.jpg
715.481	1.102	correct	pointing	Trial1	pointing/STIM_011.jpg
719.581	0.981	correct	pointing	Trial1	pointing/STIM_011.jpg
723.131	0.892	incorrect	pointing	Trial1	pointing/STIM_011.jpg
726.503	0.955	correct	pointing	Trial1	pointing/STIM_011.jpg
730.032	2.558	incorrect	navigation	Trial2	navigation/STIM_000.jpg
735.73	1.697	incorrect	navigation	Trial2	navigation/STIM_000.jpg
740.293	2.855	correct	navigation	Trial2	navigation/STIM_000.jpg
745.482	2.917	correct	navigation	Trial2	navigation/STIM_000.jpg
751.629	1.448	correct	navigation	Trial2	navigation/STIM_000.jpg
755.499	1.91	incorrect	navigation	Trial2	navigation/STIM_000.jpg
761.173	3.903	incorrect	navigation	Trial2	navigation/STIM_001.jpg
768.697	2.2	correct	navigation	Trial2	navigation/STIM_001.jpg
774.629	2.276	correct	navigation	Trial2	navigation/STIM_001.jpg
779.682	1.767	correct	navigation	Trial2	navigation/STIM_001.jpg
784.744	2.509	correct	navigation	Trial2	navigation/STIM_001.jpg
790.905	3.387	correct	navigation	Trial2	navigation/STIM_001.jpg
796.61	4.038	correct	navigation	Trial2	navigation/STIM_002.jpg
803.387	3.257	correct	navigation	Trial2	navigation/STIM_002.jpg
810.518	2.096	correct	navigation	Trial2	navigation/STIM_002.jpg
815.971	3.054	correct	navigation	Trial2	navigation/STIM_002.jpg
822.018	2.856	correct	navigation	Trial2	navigation/STIM_002.jpg
827.846	2.562	correct	navigation	Trial2	navigation/STIM_002.jpg
833.583	2.342	correct	navigation	Trial2	navigation/STIM_003.jpg
838.775	3.036	correct	navigation	Trial2	navigation/STIM_003.jpg
844.43	2.226	correct	navigation	Trial2	navigation/STIM_003.jpg
849.01	1.749	correct	navigation	Trial2	navigation/STIM_003.jpg
853.307	2.765	correct	navigation	Trial2	navigation/STIM_003.jpg
858.39	1.924	correct	navigation	Trial2	navigation/STIM_003.jpg
863.809	4.025	correct	navigation	Trial2	navigation/STIM_004.jpg
870.677	2.473	incorrect	navigation	Trial2	navigation/STIM_004.jpg
875.87	2.808	correct	navigation	Trial2	navigation/STIM_004.jpg
881.667	2.662	correct	navigation	Trial2	navigation/STIM_004.jpg
886.92	1.948	correct	navigation	Trial2	navigation/STIM_004.jpg
892.854	3.288	correct	navigation	Trial2	navigation/STIM_004.jpg
900.122	3.77	incorrect	navigation	Trial2	navigation/STIM_005.jpg
906.141	3.358	incorrect	navigation	Trial2	navigation/STIM_005.jpg
911.921	2.917	incorrect	navigation	Trial2	navigation/STIM_005.jpg
917.651	2.559	correct	navigation	Trial2	navigation/STIM_005.jpg
923.191	1.439	incorrect	navigation	Trial2	navigation/STIM_005.jpg
927.012	1.692	incorrect	navigation	Trial2	navigation/STIM_005.jpg
931.472	2.846	correct	navigation	Trial2	navigation/STIM_006.jpg
937.164	1.866	incorrect	navigation	Trial2	navigation/STIM_006.jpg
941.869	2.782	correct	navigation	Trial2	navigation/STIM_006.jpg
947.833	2.882	correct	navigation	Trial2	navigation/STIM_006.jpg
952.747	1.434	correct	navigation	Trial2	navigation/STIM_006.jpg
956.53	3.035	correct	navigation	Trial2	navigation/STIM_006.jpg
962.213	3.184	correct	navigation	Trial2	navigation/STIM_007.jpg
968.841	2.678	correct	navigation	Trial2	navigation/STIM_007.jpg
975.224	1.822	correct	navigation	Trial2	navigation/STIM_007.jpg
980.496	2.397	correct	navigation	Trial2	navigation/STIM_007.jpg
985.005	1.846	correct	navigation	Trial2	navigation/STIM_007.jpg
988.96	2.851	incorrect	navigation	Trial2	navigation/STIM_007.jpg
994.369	3.722	correct	navigation	Trial2	navigation/STIM_008.jpg
1000.9	3.608	correct	navigation	Trial2	navigation/STIM_008.jpg
1007.047	3.598	incorrect	navigation	Trial2	navigation/STIM_008.jpg
1014.082	2.788	correct	navigation	Trial2	navigation/STIM_008.jpg
1019.248	2.931	incorrect	navigation	Trial2	navigation/STIM_008.jpg
1025.689	1.665	correct	navigation	Trial2	navigation/STIM_008.jpg
1031.27	4.045	correct	navigation	Trial2	navigation/STIM_009.jpg
1037.705	1.511	correct	navigation	Trial2	navigation/STIM_009.jpg
1043.301	2.245	correct	navigation	Trial2	navigation/STIM_009.jpg
1048.572	2.387	correct	navigation	Trial2	navigation/STIM_009.jpg
1054.771	2.841	incorrect	navigation	Trial2	navigation/STIM_009.jpg
1060.763	3.066	correct	navigation	Trial2	navigation/STIM_009.jpg
1067.084	1.885	correct	navigation	Trial2	navigation/STIM_010.jpg
1072.213	2.258	correct	navigation	Trial2	navigation/STIM_010.jpg
1078.253	3.657	correct	navigation	Trial2	navigation/STIM_010.jpg
1084.184	1.936	correct	navigation	Trial2	navigation/STIM_010.jpg
1089.857	1.492	correct	navigation	Trial2	navigation/STIM_010.jpg
1093.72	1.972	correct	navigation	Trial2	navigation/STIM_010.jpg
1099.034	2.95	correct	navigation	Trial2	navigation/STIM_011.jpg
1105.231	3.538	correct	navigation	Trial2	navigation/STIM_011.jpg
1111.792	2.715	correct	navigation	Trial2	navigation/STIM_011.jpg
1117.154	1.953	incorrect	navigation	Trial2	navigation/STIM_011.jpg
1121.325	2.271	correct	navigation	Trial2	navigation/STIM_011.jpg
1127.455	2.68	correct	navigation	Trial2	navigation/STIM_011.jpg
1133.368	1.435	correct	pointing	Trial2	pointing/STIM_000.jpg
1137.138	0.923	correct	pointing	Trial2	pointing/STIM_000.jpg
1140.793	1.446	correct	pointing	Trial2	pointing/STIM_000.jpg
1146.028	0.911	correct	pointing	Trial2	pointing/STIM_000.jpg
1149.962	1.431	correct	pointing	Trial2	pointing/STIM_000.jpg
1155.396	1.07	correct	pointing	Trial2	pointing/STIM_000.jpg
1160.007	0.924	incorrect	pointing	Trial2	pointing/STIM_001.jpg
1163.079	1.367	incorrect	pointing	Trial2	pointing/STIM_001.jpg
1166.62	1.45	correct	pointing	Trial2	pointing/STIM_001.jpg
1170.4	1.326	incorrect	pointing	Trial2	pointing/STIM_001.jpg
1175.171	0.843	correct	pointing	Trial2	pointing/STIM_001.jpg
1178.611	1.167	correct	pointing	Trial2	pointing/STIM_001.jpg
1181.984	0.894	correct	pointing	Trial2	pointing/STIM_002.jpg
1186.318	1.032	correct	pointing	Trial2	pointing/STIM_002.jpg
1189.693	1.181	correct	pointing	Trial2	pointing/STIM_002.jpg
1193.199	0.851	correct	pointing	Trial2	pointing/STIM_002.jpg
1197.99	0.968	correct	pointing	Trial2	pointing/STIM_002.jpg
1202.011	0.965	correct	pointing	Trial2	pointing/STIM_002.jpg
1205.557	1.468	correct	pointing	Trial2	pointing/STIM_003.jpg
1210.681	1.279	correct	pointing	Trial2	pointing/STIM_003.jpg
1215.144	0.846	correct	pointing	Trial2	pointing/STIM_003.jpg
1218.344	1.376	incorrect	pointing	Trial2	pointing/STIM_003.jpg
1223.446	1.437	correct	pointing	Trial2	pointing/STIM_003.jpg
1227.211	1.18	correct	pointing	Trial2	pointing/STIM_003.jpg
1230.582	1.086	correct	pointing	Trial2	pointing/STIM_004.jpg
1235.596	1.286	correct	pointing	Trial2	pointing/STIM_004.jpg
1239.546	0.817	correct	pointing	Trial2	pointing/STIM_004.jpg
1243.328	1.141	correct	pointing	Trial2	pointing/STIM_004.jpg
1247.551	1.124	correct	pointing	Trial2	pointing/STIM_004.jpg
1252.319	1.125	correct	pointing	Trial2	pointing/STIM_004.jpg
1255.886	1.064	correct	pointing	Trial2	pointing/STIM_005.jpg
1260.002	1.414	incorrect	pointing	Trial2	pointing/STIM_005.jpg
1265.318	1.124	correct	pointing	Trial2	pointing/STIM_005.jpg
1268.738	0.999	correct	pointing	Trial2	pointing/STIM_005.jpg
1273.314	1.369	correct	pointing	Trial2	pointing/STIM_005.jpg
1277.104	1.013	correct	pointing	Trial2	pointing/STIM_005.jpg
1281.549	0.826	correct	pointing	Trial2	pointing/STIM_006.jpg
1285.132	1.306	correct	pointing	Trial2	pointing/STIM_006.jpg
1288.973	1.158	correct	pointing	Trial2	pointing/STIM_006.jpg
1294.064	0.937	correct	pointing	Trial2	pointing/STIM_006.jpg
1298.182	0.832	correct	pointing	Trial2	pointing/STIM_006.jpg
1301.695	1.49	correct	pointing	Trial2	pointing/STIM_006.jpg
1306.953	0.784	correct	pointing	Trial2	pointing/STIM_007.jpg
1309.825	0.935	correct	pointing	Trial2	pointing/STIM_007.jpg
1313.886	1.418	correct	pointing	Trial2	pointing/STIM_007.jpg
1319.072	1.247	correct	pointing	Trial2	pointing/STIM_007.jpg
1323.577	0.844	correct	pointing	Trial2	pointing/STIM_007.jpg
1327.179	1.218	correct	pointing	Trial2	pointing/STIM_007.jpg
1331.278	1.184	correct	pointing	Trial2	pointing/STIM_008.jpg
1336.041	0.783	incorrect	pointing	Trial2	pointing/STIM_008.jpg
1340.439	1.149	correct	pointing	Trial2	pointing/STIM_008.jpg
1343.972	1.493	correct	pointing	Trial2	pointing/STIM_008.jpg
1347.812	0.914	correct	pointing	Trial2	pointing/STIM_008.jpg
1350.759	1.353	correct	pointing	Trial2	pointing/STIM_008.jpg
1354.419	1.367	correct	pointing	Trial2	pointing/STIM_009.jpg
1359.457	0.813	correct	pointing	Trial2	pointing/STIM_009.jpg
1363.618	1.136	correct	pointing	Trial2	pointing/STIM_009.jpg
1367.707	0.9	correct	pointing	Trial2	pointing/STIM_009.jpg
1372.499	0.84	correct	pointing	Trial2	pointing/STIM_009.jpg
1377.294	1.355	correct	pointing	Trial2	pointing/STIM_009.jpg
1382.211	1.312	correct	pointing	Trial2	pointing/STIM_010.jpg
1386.416	1.046	correct	pointing	Trial2	pointing/STIM_010.jpg
1390.264	0.959	correct	pointing	Trial2	pointing/STIM_010.jpg
1393.567	1.261	correct	pointing	Trial2	pointing/STIM_010.jpg
1398.764	1.011	correct	pointing	Trial2	pointing/STIM_010.jpg
1402.51	0.877	correct	pointing	Trial2	pointing/STIM_010.jpg
1406.765	0.872	correct	pointing	Trial2	pointing/STIM_011.jpg
1409.91	0.666	correct	pointing	Trial2	pointing/STIM_011.jpg
1414.325	1.292	incorrect	pointing	Trial2	pointing/STIM_011.jpg
1419.354	0.864	correct	pointing	Trial2	pointing/STIM_011.jpg
1423.675	0.962	correct	pointing	Trial2	pointing/STIM_011.jpg
1428.1	0.942	incorrect	pointing	Trial2	pointing/STIM_011.jpg
1432.789	2.617	correct	navigation	Trial3	navigation/STIM_000.jpg
1437.948	1.543	correct	navigation	Trial3	navigation/STIM_000.jpg
1441.513	1.633	correct	navigation	Trial3	navigation/STIM_000.jpg
1445.474	1.446	correct	navigation	Trial3	navigation/STIM_000.jpg
1449.798	2.531	correct	navigation	Trial3	navigation/STIM_000.jpg
1454.558	3.293	incorrect	navigation	Trial3	navigation/STIM_000.jpg
1461.578	2.839	correct	navigation	Trial3	navigation/STIM_001.jpg
1467.901	1.595	correct	navigation	Trial3	navigation/STIM_001.jpg
1472.968	2.986	incorrect	navigation	Trial3	navigation/STIM_001.jpg
1479.604	1.336	correct	navigation	Trial3	navigation/STIM_001.jpg
1484.538	2.214	correct	navigation	Trial3	navigation/STIM_001.jpg
1490.68	1.951	correct	navigation	Trial3	navigation/STIM_001.jpg
1495.522	1.606	correct	navigation	Trial3	navigation/STIM_002.jpg
1500.372	2.397	incorrect	navigation	Trial3	navigation/STIM_002.jpg
1505.335	3.163	correct	navigation	Trial3	navigation/STIM_002.jpg
1510.924	2.822	correct	navigation	Trial3	navigation/STIM_002.jpg
1517.587	2.487	correct	navigation	Trial3	navigation/STIM_002.jpg
1523.331	2.428	correct	navigation	Trial3	navigation/STIM_002.jpg
1528.151	3.193	correct	navigation	Trial3	navigation/STIM_003.jpg
1534.572	3.022	correct	navigation	Trial3	navigation/STIM_003.jpg
1540.638	3.133	correct	navigation	Trial3	navigation/STIM_003.jpg
1546.57	1.393	correct	navigation	Trial3	navigation/STIM_003.jpg
1550.111	3.368	correct	navigation	Trial3	navigation/STIM_003.jpg
1557.255	2.1	correct	navigation	Trial3	navigation/STIM_003.jpg
1562.082	2.835	correct	navigation	Trial3	navigation/STIM_004.jpg
1568.28	3.049	correct	navigation	Trial3	navigation/STIM_004.jpg
1575.325	2.55	incorrect	navigation	Trial3	navigation/STIM_004.jpg
1581.046	1.684	correct	navigation	Trial3	navigation/STIM_004.jpg
1586.73	2.926	correct	navigation	Trial3	navigation/STIM_004.jpg
1593.158	2.805	correct	navigation	Trial3	navigation/STIM_004.jpg
1598.523	3.324	correct	navigation	Trial3	navigation/STIM_005.jpg
1605.006	3.134	correct	navigation	Trial3	navigation/STIM_005.jpg
1610.266	1.528	correct	navigation	Trial3	navigation/STIM_005.jpg
1615.813	1.448	incorrect	navigation	Trial3	navigation/STIM_005.jpg
1619.558	1.834	correct	navigation	Trial3	navigation/STIM_005.jpg
1624.83	1.941	correct	navigation	Trial3	navigation/STIM_005.jpg
1629.786	1.862	correct	navigation	Trial3	navigation/STIM_006.jpg
1634.49	2.286	correct	navigation	Trial3	navigation/STIM_006.jpg
1640.423	2.612	incorrect	navigation	Trial3	navigation/STIM_006.jpg
1645.453	2.352	correct	navigation	Trial3	navigation/STIM_006.jpg
1650.829	2.819	correct	navigation	Trial3	navigation/STIM_006.jpg
1657.02	1.696	correct	navigation	Trial3	navigation/STIM_006.jpg
1662.527	1.625	correct	navigation	Trial3	navigation/STIM_007.jpg
1667.712	3.031	correct	navigation	Trial3	navigation/STIM_007.jpg
1673.892	1.691	correct	navigation	Trial3	navigation/STIM_007.jpg
1678.408	3.223	correct	navigation	Trial3	navigation/STIM_007.jpg
1684.653	1.428	correct	navigation	Trial3	navigation/STIM_007.jpg
1689.906	1.81	correct	navigation	Trial3	navigation/STIM_007.jpg
1695.343	2.434	incorrect	navigation	Trial3	navigation/STIM_008.jpg
1701.425	2.548	correct	navigation	Trial3	navigation/STIM_008.jpg
1707.426	2.605	correct	navigation	Trial3	navigation/STIM_008.jpg
1713.285	1.407	correct	navigation	Trial3	navigation/STIM_008.jpg
1717.384	3.15	incorrect	navigation	Trial3	navigation/STIM_008.jpg
1723.546	2.974	correct	navigation	Trial3	navigation/STIM_008.jpg
1728.614	1.39	correct	navigation	Trial3	navigation/STIM_009.jpg
1733.014	2.001	correct	navigation	Trial3	navigation/STIM_009.jpg
1737.473	2.875	incorrect	navigation	Trial3	navigation/STIM_009.jpg
1744.216	1.936	incorrect	navigation	Trial3	navigation/STIM_009.jpg
1750.164	1.378	correct	navigation	Trial3	navigation/STIM_009.jpg
1753.809	3.202	incorrect	navigation	Trial3	navigation/STIM_009.jpg
1759.4	1.454	correct	navigation	Trial3	navigation/STIM_010.jpg
1764.547	1.575	correct	navigation	Trial3	navigation/STIM_010.jpg
1769.883	2.394	correct	navigation	Trial3	navigation/STIM_010.jpg
1775.419	1.677	correct	navigation	Trial3	navigation/STIM_010.jpg
1781.048	1.817	correct	navigation	Trial3	navigation/STIM_010.jpg
1785.62	2.736	correct	navigation	Trial3	navigation/STIM_010.jpg
1792.072	3.086	correct	navigation	Trial3	navigation/STIM_011.jpg
1797.861	1.355	correct	navigation	Trial3	navigation/STIM_011.jpg
1801.85	1.503	correct	navigation	Trial3	navigation/STIM_011.jpg
1806.347	3.1	correct	navigation	Trial3	navigation/STIM_011.jpg
1812.042	1.653	incorrect	navigation	Trial3	navigation/STIM_011.jpg
1816.183	3.031	correct	navigation	Trial3	navigation/STIM_011.jpg
1821.5	0.929	correct	pointing	Trial3	pointing/STIM_000.jpg
1825.273	1.058	incorrect	pointing	Trial3	pointing/STIM_000.jpg
1829.778	1.375	incorrect	pointing	Trial3	pointing/STIM_000.jpg
1834.413	1.114	correct	pointing	Trial3	pointing/STIM_000.jpg
1839.404	1.22	correct	pointing	Trial3	pointing/STIM_000.jpg
1843.694	1.103	correct	pointing	Trial3	pointing/STIM_000.jpg
1848.589	0.971	correct	pointing	Trial3	pointing/STIM_001.jpg
1853.439	1.261	correct	pointing	Trial3	pointing/STIM_001.jpg
1857.015	0.918	correct	pointing	Trial3	pointing/STIM_001.jpg
1860.652	0.998	correct	pointing	Trial3	pointing/STIM_001.jpg
1864.852	0.984	correct	pointing	Trial3	pointing/STIM_001.jpg
1869.383	1.454	correct	pointing	Trial3	pointing/STIM_001.jpg
1874.221	1.463	correct	pointing	Trial3	pointing/STIM_002.jpg
1879.152	0.816	incorrect	pointing	Trial3	pointing/STIM_002.jpg
1882.823	0.975	correct	pointing	Trial3	pointing/STIM_002.jpg
1886.235	1.205	correct	pointing	Trial3	pointing/STIM_002.jpg
1891.097	1.4	correct	pointing	Trial3	pointing/STIM_002.jpg
1896.171	1.048	correct	pointing	Trial3	pointing/STIM_002.jpg
1900.487	1.356	correct	pointing	Trial3	pointing/STIM_003.jpg
1905.8	1.367	correct	pointing	Trial3	pointing/STIM_003.jpg
1910.443	1.315	correct	pointing	Trial3	pointing/STIM_003.jpg
1914.614	0.907	correct	pointing	Trial3	pointing/STIM_003.jpg
1919.271	1.38	correct	pointing	Trial3	pointing/STIM_003.jpg
1924.103	1.149	correct	pointing	Trial3	pointing/STIM_003.jpg
1927.534	1.099	correct	pointing	Trial3	pointing/STIM_004.jpg
1931.867	0.833	correct	pointing	Trial3	pointing/STIM_004.jpg
1936.479	0.952	correct	pointing	Trial3	pointing/STIM_004.jpg
1939.932	1.133	correct	pointing	Trial3	pointing/STIM_004.jpg
1945.085	1.084	correct	pointing	Trial3	pointing/STIM_004.jpg
1949.467	1.22	correct	pointing	Trial3	pointing/STIM_004.jpg
1953.662	0.955	correct	pointing	Trial3	pointing/STIM_005.jpg
1957.388	1.129	correct	pointing	Trial3	pointing/STIM_005.jpg
1960.578	1.21	incorrect	pointing	Trial3	pointing/STIM_005.jpg
1965.794	1.199	correct	pointing	Trial3	pointing/STIM_005.jpg
1969.891	0.858	correct	pointing	Trial3	pointing/STIM_005.jpg
1974.531	0.723	correct	pointing	Trial3	pointing/STIM_005.jpg
1977.92	0.908	correct	pointing	Trial3	pointing/STIM_006.jpg
1981.607	0.826	correct	pointing	Trial3	pointing/STIM_006.jpg
1984.59	1.108	correct	pointing	Trial3	pointing/STIM_006.jpg
1987.804	1.101	correct	pointing	Trial3	pointing/STIM_006.jpg
1991.372	0.904	correct	pointing	Trial3	pointing/STIM_006.jpg
1995.953	1.15	correct	pointing	Trial3	pointing/STIM_006.jpg
2000.263	1.338	correct	pointing	Trial3	pointing/STIM_007.jpg
2004.603	1.333	incorrect	pointing	Trial3	pointing/STIM_007.jpg
2009.726	1.226	correct	pointing	Trial3	pointing/STIM_007.jpg
2014.758	1.334	correct	pointing	Trial3	pointing/STIM_007.jpg
2018.88	1.501	correct	pointing	Trial3	pointing/STIM_007.jpg
2024.14	1.034	correct	pointing	Trial3	pointing/STIM_007.jpg
2028.018	1.308	correct	pointing	Trial3	pointing/STIM_008.jpg
2032.389	1.306	correct	pointing	Trial3	pointing/STIM_008.jpg
2036.675	1.2	correct	pointing	Trial3	pointing/STIM_008.jpg
2040.508	1.224	correct	pointing	Trial3	pointing/STIM_008.jpg
2045.179	0.941	correct	pointing	Trial3	pointing/STIM_008.jpg
2049.861	0.898	correct	pointing	Trial3	pointing/STIM_008.jpg
2053.555	0.936	correct	pointing	Trial3	pointing/STIM_009.jpg
2058.575	1.33	correct	pointing	Trial3	pointing/STIM_009.jpg
2062.682	1.096	correct	pointing	Trial3	pointing/STIM_009.jpg
2065.91	1.213	correct	pointing	Trial3	pointing/STIM_009.jpg
2069.235	0.923	correct	pointing	Trial3	pointing/STIM_009.jpg
2074.095	1.396	correct	pointing	Trial3	pointing/STIM_009.jpg
2078.385	1.464	correct	pointing	Trial3	pointing/STIM_010.jpg
2082.516	1.177	incorrect	pointing	Trial3	pointing/STIM_010.jpg
2086.469	0.865	correct	pointing	Trial3	pointing/STIM_010.jpg
2090.693	1.246	correct	pointing	Trial3	pointing/STIM_010.jpg
2094.577	0.844	correct	pointing	Trial3	pointing/STIM_010.jpg
2098.361	1.372	correct	pointing	Trial3	pointing/STIM_010.jpg
2103.581	0.996	correct	pointing	Trial3	pointing/STIM_011.jpg
2107.908	0.93	correct	pointing	Trial3	pointing/STIM_011.jpg
2112.037	1.439	correct	pointing	Trial3	pointing/STIM_011.jpg
2117.326	1.032	correct	pointing	Trial3	pointing/STIM_011.jpg
2121.711	1.446	correct	pointing	Trial3	pointing/STIM_011.jpg
2126.329	1.273	correct	pointing	Trial3	pointing/STIM_011.jpg
