onset	duration	response_time_ms	trial_type	learning_stage	stimulus	response_port
0.0	2.047	2046.7	navigation	Trial1	navigation/STIM_000.jpg	100
5.633	3.601	3601.4	navigation	Trial1	navigation/STIM_000.jpg	100
12.888	3.776	3776.0	navigation	Trial1	navigation/STIM_000.jpg	100
20.069	4.161	4161.2	navigation	Trial1	navigation/STIM_000.jpg	99
27.215	3.46	3459.8	navigation	Trial1	navigation/STIM_000.jpg	99
34.704	2.327	2326.9	navigation	Trial1	navigation/STIM_000.jpg	100
40.469	2.566	2565.9	navigation	Trial1	navigation/STIM_001.jpg	100
45.965	2.051	2051.3	navigation	Trial1	navigation/STIM_001.jpg	99
50.092	3.67	3669.8	navigation	Trial1	navigation/STIM_001.jpg	99
57.015	1.886	1885.7	navigation	Trial1	navigation/STIM_001.jpg	100
61.886	3.363	3362.9	navigation	Trial1	navigation/STIM_001.jpg	100
67.968	2.256	2256.5	navigation	Trial1	navigation/STIM_001.jpg	100
73.841	3.497	3496.9	navigation	Trial1	navigation/STIM_002.jpg	99
81.055	2.173	2172.8	navigation	Trial1	navigation/STIM_002.jpg	100
87.104	1.902	1901.9	navigation	Trial1	navigation/STIM_002.jpg	100
92.706	2.14	2139.9	navigation	Trial1	navigation/STIM_002.jpg	100
98.293	3.321	3320.7	navigation	Trial1	navigation/STIM_002.jpg	99
104.567	1.707	1706.8	navigation	Trial1	navigation/STIM_002.jpg	99
109.431	3.546	3546.0	navigation	Trial1	navigation/STIM_003.jpg	99
116.298	2.414	2414.5	navigation	Trial1	navigation/STIM_003.jpg	100
122.489	3.613	3613.4	navigation	Trial1	navigation/STIM_003.jpg	100
128.775	1.944	1943.6	navigation	Trial1	navigation/STIM_003.jpg	99
134.091	2.479	2479.3	navigation	Trial1	navigation/STIM_003.jpg	100
139.008	2.658	2658.4	navigation	Trial1	navigation/STIM_003.jpg	100
145.614	2.083	2082.9	navigation	Trial1	navigation/STIM_004.jpg	99
151.726	3.714	3713.9	navigation	Trial1	navigation/STIM_004.jpg	99
159.244	4.201	4201.1	navigation	Trial1	navigation/STIM_004.jpg	99
165.963	4.104	4104.5	navigation	Trial1	navigation/STIM_004.jpg	99
173.459	3.343	3342.6	navigation	Trial1	navigation/STIM_004.jpg	100
179.182	3.215	3215.2	navigation	Trial1	navigation/STIM_004.jpg	100
185.642	2.952	2952.2	navigation	Trial1	navigation/STIM_005.jpg	100
191.935	2.191	2191.0	navigation	Trial1	navigation/STIM_005.jpg	100
198.154	2.823	2822.8	navigation	Trial1	navigation/STIM_005.jpg	100
203.542	1.779	1778.9	navigation	Trial1	navigation/STIM_005.jpg	100
209.198	2.445	2444.9	navigation	Trial1	navigation/STIM_005.jpg	100
215.154	2.367	2367.4	navigation	Trial1	navigation/STIM_005.jpg	99
219.723	2.653	2652.9	navigation	Trial1	navigation/STIM_006.jpg	100
224.567	3.54	3539.8	navigation	Trial1	navigation/STIM_006.jpg	100
232.223	4.336	4336.1	navigation	Trial1	navigation/STIM_006.jpg	99
239.639	2.49	2490.4	navigation	Trial1	navigation/STIM_006.jpg	100
245.213	3.717	3716.8	navigation	Trial1	navigation/STIM_006.jpg	100
252.851	2.116	2115.9	navigation	Trial1	navigation/STIM_006.jpg	100
258.193	3.118	3117.8	navigation	Trial1	navigation/STIM_007.jpg	99
265.42	4.246	4246.2	navigation	Trial1	navigation/STIM_007.jpg	100
273.312	4.07	4070.0	navigation	Trial1	navigation/STIM_007.jpg	100
280.672	2.852	2851.9	navigation	Trial1	navigation/STIM_007.jpg	99
286.666	2.682	2682.0	navigation	Trial1	navigation/STIM_007.jpg	99
292.71	2.496	2496.2	navigation	Trial1	navigation/STIM_007.jpg	99
297.482	2.659	2658.9	navigation	Trial1	navigation/STIM_008.jpg	99
303.033	4.106	4106.1	navigation	Trial1	navigation/STIM_008.jpg	99
310.07	3.984	3984.3	navigation	Trial1	navigation/STIM_008.jpg	99
317.21	3.353	3352.7	navigation	Trial1	navigation/STIM_008.jpg	99
323.407	3.187	3187.3	navigation	Trial1	navigation/STIM_008.jpg	99
330.109	2.55	2549.8	navigation	Trial1	navigation/STIM_008.jpg	99
335.158	2.298	2297.7	navigation	Trial1	navigation/STIM_009.jpg	99
340.355	3.316	3316.0	navigation	Trial1	navigation/STIM_009.jpg	99
346.13	2.221	2221.2	navigation	Trial1	navigation/STIM_009.jpg	99
351.783	2.26	2260.4	navigation	Trial1	navigation/STIM_009.jpg	99
357.526	1.925	1925.3	navigation	Trial1	navigation/STIM_009.jpg	99
362.433	2.838	2838.4	navigation	Trial1	navigation/STIM_009.jpg	100
368.202	3.343	3342.9	navigation	Trial1	navigation/STIM_010.jpg	100
375.34	3.452	3451.5	navigation	Trial1	navigation/STIM_010.jpg	100
382.309	2.65	2649.5	navigation	Trial1	navigation/STIM_010.jpg	100
387.126	3.261	3260.9	navigation	Trial1	navigation/STIM_010.jpg	99
392.53	3.552	3552.2	navigation	Trial1	navigation/STIM_010.jpg	100
399.578	3.151	3150.9	navigation	Trial1	navigation/STIM_010.jpg	99
405.554	3.542	3541.9	navigation	Trial1	navigation/STIM_011.jpg	100
412.67	1.862	1862.1	navigation	Trial1	navigation/STIM_011.jpg	100
418.037	3.402	3401.9	navigation	Trial1	navigation/STIM_011.jpg	100
423.566	1.851	1850.8	navigation	Trial1	navigation/STIM_011.jpg	99
428.903	3.452	3452.2	navigation	Trial1	navigation/STIM_011.jpg	100
435.134	2.92	2919.6	navigation	Trial1	navigation/STIM_011.jpg	99
442.103	1.169	1169.0	pointing	Trial1	pointing/STIM_000.jpg	100
446.688	0.779	778.8	pointing	Trial1	pointing/STIM_000.jpg	99
449.994	1.21	1210.4	pointing	Trial1	pointing/STIM_000.jpg	100
454.522	1.1	1100.4	pointing	Trial1	pointing/STIM_000.jpg	100
457.595	0.81	809.8	pointing	Trial1	pointing/STIM_000.jpg	99
460.655	1.202	1201.5	pointing	Trial1	pointing/STIM_000.jpg	100
464.342	1.052	1052.5	pointing	Trial1	pointing/STIM_001.jpg	99
468.765	1.281	1280.6	pointing	Trial1	pointing/STIM_001.jpg	99
472.209	1.217	1216.7	pointing	Trial1	pointing/STIM_001.jpg	100
477.106	1.162	1162.1	pointing	Trial1	pointing/STIM_001.jpg	100
481.924	1.018	1017.7	pointing	Trial1	pointing/STIM_001.jpg	99
485.337	1.08	1080.5	pointing	Trial1	pointing/STIM_001.jpg	99
489.24	1.306	1306.0	pointing	Trial1	pointing/STIM_002.jpg	100
494.193	0.876	876.5	pointing	Trial1	pointing/STIM_002.jpg	99
498.917	1.112	1112.1	pointing	Trial1	pointing/STIM_002.jpg	99
502.275	0.999	999.4	pointing	Trial1	pointing/STIM_002.jpg	99
505.811	1.234	1233.5	pointing	Trial1	pointing/STIM_002.jpg	99
509.971	1.16	1160.3	pointing	Trial1	pointing/STIM_002.jpg	100
514.626	1.015	1015.1	pointing	Trial1	pointing/STIM_003.jpg	100
518.039	1.071	1071.0	pointing	Trial1	pointing/STIM_003.jpg	100
521.396	1.146	1146.3	pointing	Trial1	pointing/STIM_003.jpg	100
524.68	0.957	957.2	pointing	Trial1	pointing/STIM_003.jpg	99
528.745	0.924	923.8	pointing	Trial1	pointing/STIM_003.jpg	100
532.028	1.382	1382.1	pointing	Trial1	pointing/STIM_003.jpg	99
535.512	1.201	1201.1	pointing	Trial1	pointing/STIM_004.jpg	100
540.235	1.141	1140.7	pointing	Trial1	pointing/STIM_004.jpg	99
543.764	1.238	1238.1	pointing	Trial1	pointing/STIM_004.jpg	99
548.152	1.252	1251.5	pointing	Trial1	pointing/STIM_004.jpg	100
551.644	1.143	1143.0	pointing	Trial1	pointing/STIM_004.jpg	99
555.388	0.991	990.6	pointing	Trial1	pointing/STIM_004.jpg	99
559.632	0.884	884.0	pointing	Trial1	pointing/STIM_005.jpg	100
564.157	1.398	1397.5	pointing	Trial1	pointing/STIM_005.jpg	99
569.183	0.911	911.3	pointing	Trial1	pointing/STIM_005.jpg	99
574.062	0.891	891.4	pointing	Trial1	pointing/STIM_005.jpg	99
577.987	1.232	1231.9	pointing	Trial1	pointing/STIM_005.jpg	100
582.942	0.782	782.3	pointing	Trial1	pointing/STIM_005.jpg	99
587.616	1.028	1028.0	pointing	Trial1	pointing/STIM_006.jpg	99
592.692	1.358	1358.5	pointing	Trial1	pointing/STIM_006.jpg	100
596.933	1.244	1244.4	pointing	Trial1	pointing/STIM_006.jpg	100
601.37	0.918	917.6	pointing	Trial1	pointing/STIM_006.jpg	99
605.832	0.914	913.6	pointing	Trial1	pointing/STIM_006.jpg	99
610.671	1.307	1307.3	pointing	Trial1	pointing/STIM_006.jpg	99
614.307	0.975	975.2	pointing	Trial1	pointing/STIM_007.jpg	100
617.369	0.789	789.2	pointing	Trial1	pointing/STIM_007.jpg	100
622.133	1.103	1103.3	pointing	Trial1	pointing/STIM_007.jpg	99
625.968	1.315	1315.1	pointing	Trial1	pointing/STIM_007.jpg	99
630.962	1.47	1470.4	pointing	Trial1	pointing/STIM_007.jpg	99
634.961	0.905	905.2	pointing	Trial1	pointing/STIM_007.jpg	99
638.537	1.277	1277.3	pointing	Trial1	pointing/STIM_008.jpg	100
643.01	1.004	1004.5	pointing	Trial1	pointing/STIM_008.jpg	100
647.361	0.893	892.9	pointing	Trial1	pointing/STIM_008.jpg	99
651.371	1.178	1177.8	pointing	Trial1	pointing/STIM_008.jpg	100
654.756	1.266	1266.3	pointing	Trial1	pointing/STIM_008.jpg	99
658.206	1.056	1056.3	pointing	Trial1	pointing/STIM_008.jpg	100
661.153	1.218	1218.1	pointing	Trial1	pointing/STIM_009.jpg	100
666.264	1.033	1033.0	pointing	Trial1	pointing/STIM_009.jpg	99
670.102	1.17	1170.5	pointing	Trial1	pointing/STIM_009.jpg	100
673.234	0.848	848.1	pointing	Trial1	pointing/STIM_009.jpg	100
677.838	1.035	1035.4	pointing	Trial1	pointing/STIM_009.jpg	99
681.49	0.923	922.9	pointing	Trial1	pointing/STIM_009.jpg	99
684.87	1.3	1300.2	pointing	Trial1	pointing/STIM_010.jpg	99
688.517	1.2	1200.5	pointing	Trial1	pointing/STIM_010.jpg	99
691.977	1.152	1151.9	pointing	Trial1	pointing/STIM_010.jpg	100
695.264	1.158	1157.6	pointing	Trial1	pointing/STIM_010.jpg	99
700.143	0.824	823.8	pointing	Trial1	pointing/STIM_010.jpg	99
703.713	0.79	789.7	pointing	Trial1	pointing/STIM_010.jpg	99
708.332	0.946	945.8	pointing	Trial1	pointing/STIM_011.jpg	100
711.37	1.156	1156.1	pointing	Trial1	pointing/STIM_011.jpg	100
715.481	1.102	1101.8	pointing	Trial1	pointing/STIM_011.jpg	99
719.581	0.981	980.7	pointing	Trial1	pointing/STIM_011.jpg	99
723.131	0.892	892.1	pointing	Trial1	pointing/STIM_011.jpg	99
726.503	0.955	954.8	pointing	Trial1	pointing/STIM_011.jpg	100
730.032	2.558	2558.2	navigation	Trial2	navigation/STIM_000.jpg	99
735.73	1.697	1697.0	navigation	Trial2	navigation/STIM_000.jpg	100
740.293	2.855	2855.2	navigation	Trial2	navigation/STIM_000.jpg	100
745.482	2.917	2917.0	navigation	Trial2	navigation/STIM_000.jpg	99
751.629	1.448	1448.0	navigation	Trial2	navigation/STIM_000.jpg	100
755.499	1.91	1910.3	navigation	Trial2	navigation/STIM_000.jpg	99
761.173	3.903	3903.3	navigation	Trial2	navigation/STIM_001.jpg	100
768.697	2.2	2200.5	navigation	Trial2	navigation/STIM_001.jpg	100
774.629	2.276	2276.1	navigation	Trial2	navigation/STIM_001.jpg	100
779.682	1.767	1767.3	navigation	Trial2	navigation/STIM_001.jpg	100
784.744	2.509	2509.3	navigation	Trial2	navigation/STIM_001.jpg	99
790.905	3.387	3386.6	navigation	Trial2	navigation/STIM_001.jpg	99
796.61	4.038	4038.4	navigation	Trial2	navigation/STIM_002.jpg	100
803.387	3.257	3257.3	navigation	Trial2	navigation/STIM_002.jpg	100
810.518	2.096	2096.5	navigation	Trial2	navigation/STIM_002.jpg	99
815.971	3.054	3054.0	navigation	Trial2	navigation/STIM_002.jpg	99
822.018	2.856	2855.5	navigation	Trial2	navigation/STIM_002.jpg	100
827.846	2.562	2562.4	navigation	Trial2	navigation/STIM_002.jpg	100
833.583	2.342	2341.6	navigation	Trial2	navigation/STIM_003.jpg	99
838.775	3.036	3036.2	navigation	Trial2	navigation/STIM_003.jpg	100
844.43	2.226	2226.5	navigation	Trial2	navigation/STIM_003.jpg	99
849.01	1.749	1749.1	navigation	Trial2	navigation/STIM_003.jpg	100
853.307	2.765	2765.3	navigation	Trial2	navigation/STIM_003.jpg	100
858.39	1.924	1924.5	navigation	Trial2	navigation/STIM_003.jpg	99
863.809	4.025	4025.3	navigation	Trial2	navigation/STIM_004.jpg	100
870.677	2.473	2472.9	navigation	Trial2	navigation/STIM_004.jpg	100
875.87	2.808	2807.5	navigation	Trial2	navigation/STIM_004.jpg	99
881.667	2.662	2662.5	navigation	Trial2	navigation/STIM_004.jpg	100
886.92	1.948	1948.3	navigation	Trial2	navigation/STIM_004.jpg	99
892.854	3.288	3288.1	navigation	Trial2	navigation/STIM_004.jpg	99
900.122	3.77	3770.4	navigation	Trial2	navigation/STIM_005.jpg	100
906.141	3.358	3357.9	navigation	Trial2	navigation/STIM_005.jpg	100
911.921	2.917	2917.2	navigation	Trial2	navigation/STIM_005.jpg	99
917.651	2.559	2559.1	navigation	Trial2	navigation/STIM_005.jpg	99
923.191	1.439	1439.0	navigation	Trial2	navigation/STIM_005.jpg	100
927.012	1.692	1692.0	navigation	Trial2	navigation/STIM_005.jpg	100
931.472	2.846	2846.5	navigation	Trial2	navigation/STIM_006.jpg	99
937.164	1.866	1866.2	navigation	Trial2	navigation/STIM_006.jpg	100
941.869	2.782	2782.0	navigation	Trial2	navigation/STIM_006.jpg	99
947.833	2.882	2882.3	navigation	Trial2	navigation/STIM_006.jpg	100
952.747	1.434	1433.9	navigation	Trial2	navigation/STIM_006.jpg	99
956.53	3.035	3035.2	navigation	Trial2	navigation/STIM_006.jpg	100
962.213	3.184	3184.2	navigation	Trial2	navigation/STIM_007.jpg	99
968.841	2.678	2678.3	navigation	Trial2	navigation/STIM_007.jpg	100
975.224	1.822	1821.7	navigation	Trial2	navigation/STIM_007.jpg	100
980.496	2.397	2397.0	navigation	Trial2	navigation/STIM_007.jpg	99
985.005	1.846	1845.8	navigation	Trial2	navigation/STIM_007.jpg	99
988.96	2.851	2850.7	navigation	Trial2	navigation/STIM_007.jpg	99
994.369	3.722	3721.7	navigation	Trial2	navigation/STIM_008.jpg	100
1000.9	3.608	3607.8	navigation	Trial2	navigation/STIM_008.jpg	100
1007.047	3.598	3597.9	navigation	Trial2	navigation/STIM_008.jpg	100
1014.082	2.788	2788.0	navigation	Trial2	navigation/STIM_008.jpg	100
1019.248	2.931	2930.6	navigation	Trial2	navigation/STIM_008.jpg	100
1025.689	1.665	1665.0	navigation	Trial2	navigation/STIM_008.jpg	100
1031.27	4.045	4045.2	navigation	Trial2	navigation/STIM_009.jpg	99
1037.705	1.511	1510.6	navigation	Trial2	navigation/STIM_009.jpg	100
1043.301	2.245	2245.0	navigation	Trial2	navigation/STIM_009.jpg	100
1048.572	2.387	2386.9	navigation	Trial2	navigation/STIM_009.jpg	99
1054.771	2.841	2841.3	navigation	Trial2	navigation/STIM_009.jpg	99
1060.763	3.066	3065.8	navigation	Trial2	navigation/STIM_009.jpg	99
1067.084	1.885	1885.4	navigation	Trial2	navigation/STIM_010.jpg	99
1072.213	2.258	2258.0	navigation	Trial2	navigation/STIM_010.jpg	99
1078.253	3.657	3657.0	navigation	Trial2	navigation/STIM_010.jpg	100
1084.184	1.936	1936.4	navigation	Trial2	navigation/STIM_010.jpg	99
1089.857	1.492	1491.5	navigation	Trial2	navigation/STIM_010.jpg	100
1093.72	1.972	1971.9	navigation	Trial2	navigation/STIM_010.jpg	99
1099.034	2.95	2949.8	navigation	Trial2	navigation/STIM_011.jpg	100
1105.231	3.538	3537.9	navigation	Trial2	navigation/STIM_011.jpg	100
1111.792	2.715	2715.2	navigation	Trial2	navigation/STIM_011.jpg	100
1117.154	1.953	1953.3	navigation	Trial2	navigation/STIM_011.jpg	100
1121.325	2.271	2270.7	navigation	Trial2	navigation/STIM_011.jpg	99
1127.455	2.68	2680.5	navigation	Trial2	navigation/STIM_011.jpg	99
1133.368	1.435	1435.2	pointing	Trial2	pointing/STIM_000.jpg	99
1137.138	0.923	922.7	pointing	Trial2	pointing/STIM_000.jpg	99
1140.793	1.446	1445.9	pointing	Trial2	pointing/STIM_000.jpg	100
1146.028	0.911	911.1	pointing	Trial2	pointing/STIM_000.jpg	100
1149.962	1.431	1431.1	pointing	Trial2	pointing/STIM_000.jpg	99
1155.396	1.07	1069.9	pointing	Trial2	pointing/STIM_000.jpg	100
1160.007	0.924	924.2	pointing	Trial2	pointing/STIM_001.jpg	100
1163.079	1.367	1366.6	pointing	Trial2	pointing/STIM_001.jpg	99
1166.62	1.45	1450.4	pointing	Trial2	pointing/STIM_001.jpg	99
1170.4	1.326	1325.9	pointing	Trial2	pointing/STIM_001.jpg	100
1175.171	0.843	842.7	pointing	Trial2	pointing/STIM_001.jpg	99
1178.611	1.167	1167.0	pointing	Trial2	pointing/STIM_001.jpg	100
1181.984	0.894	894.0	pointing	Trial2	pointing/STIM_002.jpg	100
1186.318	1.032	1031.7	pointing	Trial2	pointing/STIM_002.jpg	100
1189.693	1.181	1180.8	pointing	Trial2	pointing/STIM_002.jpg	100
1193.199	0.851	851.0	pointing	Trial2	pointing/STIM_002.jpg	100
1197.99	0.968	968.4	pointing	Trial2	pointing/STIM_002.jpg	100
1202.011	0.965	965.1	pointing	Trial2	pointing/STIM_002.jpg	99
1205.557	1.468	1468.3	pointing	Trial2	pointing/STIM_003.jpg	99
1210.681	1.279	1278.8	pointing	Trial2	pointing/STIM_003.jpg	100
1215.144	0.846	845.7	pointing	Trial2	pointing/STIM_003.jpg	99
1218.344	1.376	1376.3	pointing	Trial2	pointing/STIM_003.jpg	99
1223.446	1.437	1437.3	pointing	Trial2	pointing/STIM_003.jpg	99
1227.211	1.18	1179.5	pointing	Trial2	pointing/STIM_003.jpg	100
1230.582	1.086	1086.5	pointing	Trial2	pointing/STIM_004.jpg	100
1235.596	1.286	1286.0	pointing	Trial2	pointing/STIM_004.jpg	99
1239.546	0.817	817.3	pointing	Trial2	pointing/STIM_004.jpg	100
1243.328	1.141	1140.6	pointing	Trial2	pointing/STIM_004.jpg	99
1247.551	1.124	1124.0	pointing	Trial2	pointing/STIM_004.jpg	99
1252.319	1.125	1125.1	pointing	Trial2	pointing/STIM_004.jpg	100
1255.886	1.064	1064.4	pointing	Trial2	pointing/STIM_005.jpg	99
1260.002	1.414	1414.2	pointing	Trial2	pointing/STIM_005.jpg	100
1265.318	1.124	1123.5	pointing	Trial2	pointing/STIM_005.jpg	100
1268.738	0.999	999.2	pointing	Trial2	pointing/STIM_005.jpg	100
1273.314	1.369	1369.3	pointing	Trial2	pointing/STIM_005.jpg	100
1277.104	1.013	1013.0	pointing	Trial2	pointing/STIM_005.jpg	99
1281.549	0.826	825.7	pointing	Trial2	pointing/STIM_006.jpg	100
1285.132	1.306	1305.5	pointing	Trial2	pointing/STIM_006.jpg	100
1288.973	1.158	1157.7	pointing	Trial2	pointing/STIM_006.jpg	100
1294.064	0.937	936.7	pointing	Trial2	pointing/STIM_006.jpg	100
1298.182	0.832	832.4	pointing	Trial2	pointing/STIM_006.jpg	99
1301.695	1.49	1489.5	pointing	Trial2	pointing/STIM_006.jpg	99
1306.953	0.784	783.6	pointing	Trial2	pointing/STIM_007.jpg	100
1309.825	0.935	935.0	pointing	Trial2	pointing/STIM_007.jpg	99
1313.886	1.418	1417.5	pointing	Trial2	pointing/STIM_007.jpg	99
1319.072	1.247	1247.3	pointing	Trial2	pointing/STIM_007.jpg	99
1323.577	0.844	844.3	pointing	Trial2	pointing/STIM_007.jpg	100
1327.179	1.218	1217.7	pointing	Trial2	pointing/STIM_007.jpg	99
1331.278	1.184	1184.4	pointing	Trial2	pointing/STIM_008.jpg	99
1336.041	0.783	783.4	pointing	Trial2	pointing/STIM_008.jpg	99
1340.439	1.149	1148.8	pointing	Trial2	pointing/STIM_008.jpg	100
1343.972	1.493	1492.9	pointing	Trial2	pointing/STIM_008.jpg	99
1347.812	0.914	913.5	pointing	Trial2	pointing/STIM_008.jpg	99
1350.759	1.353	1353.2	pointing	Trial2	pointing/STIM_008.jpg	99
1354.419	1.367	1367.2	pointing	Trial2	pointing/STIM_009.jpg	99
1359.457	0.813	812.7	pointing	Trial2	pointing/STIM_009.jpg	100
1363.618	1.136	1136.4	pointing	Trial2	pointing/STIM_009.jpg	100
1367.707	0.9	899.8	pointing	Trial2	pointing/STIM_009.jpg	100
1372.499	0.84	839.9	pointing	Trial2	pointing/STIM_009.jpg	99
1377.294	1.355	1355.3	pointing	Trial2	pointing/STIM_009.jpg	100
1382.211	1.312	1312.4	pointing	Trial2	pointing/STIM_010.jpg	99
1386.416	1.046	1045.8	pointing	Trial2	pointing/STIM_010.jpg	100
1390.264	0.959	959.2	pointing	Trial2	pointing/STIM_010.jpg	99
1393.567	1.261	1260.7	pointing	Trial2	pointing/STIM_010.jpg	100
1398.764	1.011	1011.1	pointing	Trial2	pointing/STIM_010.jpg	99
1402.51	0.877	877.0	pointing	Trial2	pointing/STIM_010.jpg	100
1406.765	0.872	872.4	pointing	Trial2	pointing/STIM_011.jpg	99
1409.91	0.666	666.3	pointing	Trial2	pointing/STIM_011.jpg	99
1414.325	1.292	1292.1	pointing	Trial2	pointing/STIM_011.jpg	100
1419.354	0.864	864.3	pointing	Trial2	pointing/STIM_011.jpg	99
1423.675	0.962	962.1	pointing	Trial2	pointing/STIM_011.jpg	99
1428.1	0.942	942.5	pointing	Trial2	pointing/STIM_011.jpg	99
1432.789	2.617	2617.4	navigation	Trial3	navigation/STIM_000.jpg	100
1437.948	1.543	1542.9	navigation	Trial3	navigation/STIM_000.jpg	99
1441.513	1.633	1632.9	navigation	Trial3	navigation/STIM_000.jpg	99
1445.474	1.446	1446.1	navigation	Trial3	navigation/STIM_000.jpg	99
1449.798	2.531	2531.4	navigation	Trial3	navigation/STIM_000.jpg	100
1454.558	3.293	3292.8	navigation	Trial3	navigation/STIM_000.jpg	99
1461.578	2.839	2839.4	navigation	Trial3	navigation/STIM_001.jpg	99
1467.901	1.595	1594.8	navigation	Trial3	navigation/STIM_001.jpg	100
1472.968	2.986	2986.3	navigation	Trial3	navigation/STIM_001.jpg	99
1479.604	1.336	1336.4	navigation	Trial3	navigation/STIM_001.jpg	99
1484.538	2.214	2214.5	navigation	Trial3	navigation/STIM_001.jpg	100
1490.68	1.951	1951.1	navigation	Trial3	navigation/STIM_001.jpg	99
1495.522	1.606	1606.5	navigation	Trial3	navigation/STIM_002.jpg	100
1500.372	2.397	2397.0	navigation	Trial3	navigation/STIM_002.jpg	100
1505.335	3.163	3162.8	navigation	Trial3	navigation/STIM_002.jpg	99
1510.924	2.822	2822.4	navigation	Trial3	navigation/STIM_002.jpg	99
1517.587	2.487	2487.4	navigation	Trial3	navigation/STIM_002.jpg	100
1523.331	2.428	2427.6	navigation	Trial3	navigation/STIM_002.jpg	100
1528.151	3.193	3193.3	navigation	Trial3	navigation/STIM_003.jpg	100
1534.572	3.022	3021.9	navigation	Trial3	navigation/STIM_003.jpg	99
1540.638	3.133	3132.9	navigation	Trial3	navigation/STIM_003.jpg	100
1546.57	1.393	1392.7	navigation	Trial3	navigation/STIM_003.jpg	100
1550.111	3.368	3367.9	navigation	Trial3	navigation/STIM_003.jpg	99
1557.255	2.1	2099.7	navigation	Trial3	navigation/STIM_003.jpg	99
1562.082	2.835	2834.9	navigation	Trial3	navigation/STIM_004.jpg	99
1568.28	3.049	3049.2	navigation	Trial3	navigation/STIM_004.jpg	99
1575.325	2.55	2550.2	navigation	Trial3	navigation/STIM_004.jpg	99
1581.046	1.684	1684.4	navigation	Trial3	navigation/STIM_004.jpg	99
1586.73	2.926	2926.2	navigation	Trial3	navigation/STIM_004.jpg	99
1593.158	2.805	2805.4	navigation	Trial3	navigation/STIM_004.jpg	99
1598.523	3.324	3323.9	navigation	Trial3	navigation/STIM_005.jpg	99
1605.006	3.134	3133.8	navigation	Trial3	navigation/STIM_005.jpg	100
1610.266	1.528	1528.1	navigation	Trial3	navigation/STIM_005.jpg	99
1615.813	1.448	1447.5	navigation	Trial3	navigation/STIM_005.jpg	99
1619.558	1.834	1833.9	navigation	Trial3	navigation/STIM_005.jpg	99
1624.83	1.941	1940.9	navigation	Trial3	navigation/STIM_005.jpg	99
1629.786	1.862	1861.8	navigation	Trial3	navigation/STIM_006.jpg	99
1634.49	2.286	2285.5	navigation	Trial3	navigation/STIM_006.jpg	99
1640.423	2.612	2611.5	navigation	Trial3	navigation/STIM_006.jpg	100
1645.453	2.352	2352.3	navigation	Trial3	navigation/STIM_006.jpg	99
1650.829	2.819	2819.2	navigation	Trial3	navigation/STIM_006.jpg	99
1657.02	1.696	1696.3	navigation	Trial3	navigation/STIM_006.jpg	99
1662.527	1.625	1625.2	navigation	Trial3	navigation/STIM_007.jpg	100
1667.712	3.031	3030.7	navigation	Trial3	navigation/STIM_007.jpg	100
1673.892	1.691	1691.4	navigation	Trial3	navigation/STIM_007.jpg	99
1678.408	3.223	3223.1	navigation	Trial3	navigation/STIM_007.jpg	99
1684.653	1.428	1428.1	navigation	Trial3	navigation/STIM_007.jpg	99
1689.906	1.81	1810.4	navigation	Trial3	navigation/STIM_007.jpg	99
1695.343	2.434	2434.0	navigation	Trial3	navigation/STIM_008.jpg	99
1701.425	2.548	2548.0	navigation	Trial3	navigation/STIM_008.jpg	100
1707.426	2.605	2605.3	navigation	Trial3	navigation/STIM_008.jpg	99
1713.285	1.407	1406.8	navigation	Trial3	navigation/STIM_008.jpg	100
1717.384	3.15	3149.7	navigation	Trial3	navigation/STIM_008.jpg	100
1723.546	2.974	2973.5	navigation	Trial3	navigation/STIM_008.jpg	99
1728.614	1.39	1390.2	navigation	Trial3	navigation/STIM_009.jpg	99
1733.014	2.001	2000.6	navigation	Trial3	navigation/STIM_009.jpg	99
1737.473	2.875	2874.6	navigation	Trial3	navigation/STIM_009.jpg	99
1744.216	1.936	1935.8	navigation	Trial3	navigation/STIM_009.jpg	100
1750.164	1.378	1378.4	navigation	Trial3	navigation/STIM_009.jpg	99
1753.809	3.202	3201.8	navigation	Trial3	navigation/STIM_009.jpg	99
1759.4	1.454	1453.5	navigation	Trial3	navigation/STIM_010.jpg	99
1764.547	1.575	1575.2	navigation	Trial3	navigation/STIM_010.jpg	100
1769.883	2.394	2394.0	navigation	Trial3	navigation/STIM_010.jpg	100
1775.419	1.677	1677.3	navigation	Trial3	navigation/STIM_010.jpg	100
1781.048	1.817	1817.0	navigation	Trial3	navigation/STIM_010.jpg	100
1785.62	2.736	2736.4	navigation	Trial3	navigation/STIM_010.jpg	99
1792.072	3.086	3085.6	navigation	Trial3	navigation/STIM_011.jpg	100
1797.861	1.355	1354.8	navigation	Trial3	navigation/STIM_011.jpg	99
1801.85	1.503	1503.0	navigation	Trial3	navigation/STIM_011.jpg	100
1806.347	3.1	3099.7	navigation	Trial3	navigation/STIM_011.jpg	99
1812.042	1.653	1653.0	navigation	Trial3	navigation/STIM_011.jpg	99
1816.183	3.031	3031.0	navigation	Trial3	navigation/STIM_011.jpg	99
1821.5	0.929	929.4	pointing	Trial3	pointing/STIM_000.jpg	99
1825.273	1.058	1058.5	pointing	Trial3	pointing/STIM_000.jpg	100
1829.778	1.375	1375.2	pointing	Trial3	pointing/STIM_000.jpg	99
1834.413	1.114	1114.3	pointing	Trial3	pointing/STIM_000.jpg	99
1839.404	1.22	1220.1	pointing	Trial3	pointing/STIM_000.jpg	100
1843.694	1.103	1102.8	pointing	Trial3	pointing/STIM_000.jpg	100
1848.589	0.971	971.0	pointing	Trial3	pointing/STIM_001.jpg	100
1853.439	1.261	1260.8	pointing	Trial3	pointing/STIM_001.jpg	100
1857.015	0.918	918.3	pointing	Trial3	pointing/STIM_001.jpg	99
1860.652	0.998	997.9	pointing	Trial3	pointing/STIM_001.jpg	99
1864.852	0.984	984.4	pointing	Trial3	pointing/STIM_001.jpg	100
1869.383	1.454	1453.7	pointing	Trial3	pointing/STIM_001.jpg	100
1874.221	1.463	1462.6	pointing	Trial3	pointing/STIM_002.jpg	99
1879.152	0.816	815.7	pointing	Trial3	pointing/STIM_002.jpg	99
1882.823	0.975	974.9	pointing	Trial3	pointing/STIM_002.jpg	99
1886.235	1.205	1205.2	pointing	Trial3	pointing/STIM_002.jpg	99
1891.097	1.4	1399.5	pointing	Trial3	pointing/STIM_002.jpg	100
1896.171	1.048	1048.5	pointing	Trial3	pointing/STIM_002.jpg	100
1900.487	1.356	1355.8	pointing	Trial3	pointing/STIM_003.jpg	100
1905.8	1.367	1367.0	pointing	Trial3	pointing/STIM_003.jpg	99
1910.443	1.315	1315.4	pointing	Trial3	pointing/STIM_003.jpg	99
1914.614	0.907	907.0	pointing	Trial3	pointing/STIM_003.jpg	99
1919.271	1.38	1380.1	pointing	Trial3	pointing/STIM_003.jpg	100
1924.103	1.149	1149.3	pointing	Trial3	pointing/STIM_003.jpg	99
1927.534	1.099	1098.7	pointing	Trial3	pointing/STIM_004.jpg	100
1931.867	0.833	832.7	pointing	Trial3	pointing/STIM_004.jpg	100
1936.479	0.952	952.0	pointing	Trial3	pointing/STIM_004.jpg	100
1939.932	1.133	1133.2	pointing	Trial3	pointing/STIM_004.jpg	100
1945.085	1.084	1083.8	pointing	Trial3	pointing/STIM_004.jpg	99
1949.467	1.22	1220.2	pointing	Trial3	pointing/STIM_004.jpg	99
1953.662	0.955	954.8	pointing	Trial3	pointing/STIM_005.jpg	99
1957.388	1.129	1128.7	pointing	Trial3	pointing/STIM_005.jpg	99
1960.578	1.21	1210.1	pointing	Trial3	pointing/STIM_005.jpg	99
1965.794	1.199	1199.1	pointing	Trial3	pointing/STIM_005.jpg	100
1969.891	0.858	857.9	pointing	Trial3	pointing/STIM_005.jpg	100
1974.531	0.723	722.6	pointing	Trial3	pointing/STIM_005.jpg	100
1977.92	0.908	907.7	pointing	Trial3	pointing/STIM_006.jpg	100
1981.607	0.826	825.6	pointing	Trial3	pointing/STIM_006.jpg	99
1984.59	1.108	1108.4	pointing	Trial3	pointing/STIM_006.jpg	100
1987.804	1.101	1101.0	pointing	Trial3	pointing/STIM_006.jpg	100
1991.372	0.904	904.5	pointing	Trial3	pointing/STIM_006.jpg	99
1995.953	1.15	1150.5	pointing	Trial3	pointing/STIM_006.jpg	100
2000.263	1.338	1338.1	pointing	Trial3	pointing/STIM_007.jpg	100
2004.603	1.333	1333.2	pointing	Trial3	pointing/STIM_007.jpg	99
2009.726	1.226	1225.8	pointing	Trial3	pointing/STIM_007.jpg	99
2014.758	1.334	1333.7	pointing	Trial3	pointing/STIM_007.jpg	99
2018.88	1.501	1500.7	pointing	Trial3	pointing/STIM_007.jpg	99
2024.14	1.034	1033.7	pointing	Trial3	pointing/STIM_007.jpg	100
2028.018	1.308	1308.5	pointing	Trial3	pointing/STIM_008.jpg	99
2032.389	1.306	1306.1	pointing	Trial3	pointing/STIM_008.jpg	100
2036.675	1.2	1199.7	pointing	Trial3	pointing/STIM_008.jpg	99
2040.508	1.224	1224.3	pointing	Trial3	pointing/STIM_008.jpg	100
2045.179	0.941	940.7	pointing	Trial3	pointing/STIM_008.jpg	100
2049.861	0.898	897.6	pointing	Trial3	pointing/STIM_008.jpg	99
2053.555	0.936	936.2	pointing	Trial3	pointing/STIM_009.jpg	100
2058.575	1.33	1330.5	pointing	Trial3	pointing/STIM_009.jpg	100
2062.682	1.096	1095.8	pointing	Trial3	pointing/STIM_009.jpg	99
2065.91	1.213	1213.1	pointing	Trial3	pointing/STIM_009.jpg	99
2069.235	0.923	922.6	pointing	Trial3	pointing/STIM_009.jpg	99
2074.095	1.396	1396.1	pointing	Trial3	pointing/STIM_009.jpg	100
2078.385	1.464	1463.6	pointing	Trial3	pointing/STIM_010.jpg	100
2082.516	1.177	1177.3	pointing	Trial3	pointing/STIM_010.jpg	100
2086.469	0.865	864.6	pointing	Trial3	pointing/STIM_010.jpg	99
2090.693	1.246	1246.1	pointing	Trial3	pointing/STIM_010.jpg	100
2094.577	0.844	843.8	pointing	Trial3	pointing/STIM_010.jpg	99
2098.361	1.372	1372.2	pointing	Trial3	pointing/STIM_010.jpg	100
2103.581	0.996	995.6	pointing	Trial3	pointing/STIM_011.jpg	99
2107.908	0.93	929.9	pointing	Trial3	pointing/STIM_011.jpg	100
2112.037	1.439	1438.9	pointing	Trial3	pointing/STIM_011.jpg	99
2117.326	1.032	1031.9	pointing	Trial3	pointing/STIM_011.jpg	100
2121.711	1.446	1446.3	pointing	Trial3	pointing/STIM_011.jpg	100
2126.329	1.273	1272.6	pointing	Trial3	pointing/STIM_011.jpg	100
