onset	duration	response_time_ms	trial_type	learning_stage	stimulus	response_port
0.0	3.257	3257.2	navigation	Trial1	navigation/STIM_000.jpg	100
5.736	2.115	2114.8	navigation	Trial1	navigation/STIM_000.jpg	100
10.062	2.578	2577.5	navigation	Trial1	navigation/STIM_000.jpg	100
16.214	2.383	2382.7	navigation	Trial1	navigation/STIM_000.jpg	99
21.409	3.184	3184.3	navigation	Trial1	navigation/STIM_000.jpg	99
28.42	1.595	1594.7	navigation	Trial1	navigation/STIM_000.jpg	100
32.392	2.741	2740.6	navigation	Trial1	navigation/STIM_001.jpg	100
38.189	2.543	2543.1	navigation	Trial1	navigation/STIM_001.jpg	99
43.096	4.062	4062.2	navigation	Trial1	navigation/STIM_001.jpg	99
50.524	3.767	3767.0	navigation	Trial1	navigation/STIM_001.jpg	100
57.674	2.241	2241.4	navigation	Trial1	navigation/STIM_001.jpg	100
62.846	1.728	1728.5	navigation	Trial1	navigation/STIM_001.jpg	100
67.343	3.769	3769.3	navigation	Trial1	navigation/STIM_002.jpg	99
74.358	3.372	3372.1	navigation	Trial1	navigation/STIM_002.jpg	100
81.404	3.484	3483.7	navigation	Trial1	navigation/STIM_002.jpg	100
88.73	2.848	2848.3	navigation	Trial1	navigation/STIM_002.jpg	100
93.952	3.33	3330.3	navigation	Trial1	navigation/STIM_002.jpg	99
99.389	1.52	1520.2	navigation	Trial1	navigation/STIM_002.jpg	99
104.039	3.015	3015.0	navigation	Trial1	navigation/STIM_003.jpg	99
109.615	2.566	2565.5	navigation	Trial1	navigation/STIM_003.jpg	100
115.596	2.725	2724.6	navigation	Trial1	navigation/STIM_003.jpg	100
121.555	3.712	3712.2	navigation	Trial1	navigation/STIM_003.jpg	99
129.164	1.789	1789.1	navigation	Trial1	navigation/STIM_003.jpg	100
134.187	2.362	2361.5	navigation	Trial1	navigation/STIM_003.jpg	100
139.053	3.679	3679.1	navigation	Trial1	navigation/STIM_004.jpg	99
146.108	2.417	2416.7	navigation	Trial1	navigation/STIM_004.jpg	99
151.952	3.697	3697.2	navigation	Trial1	navigation/STIM_004.jpg	99
159.106	3.414	3413.5	navigation	Trial1	navigation/STIM_004.jpg	99
166.517	3.008	3008.0	navigation	Trial1	navigation/STIM_004.jpg	100
173.015	1.73	1729.7	navigation	Trial1	navigation/STIM_004.jpg	100
178.1	2.893	2893.2	navigation	Trial1	navigation/STIM_005.jpg	100
183.19	3.916	3915.7	navigation	Trial1	navigation/STIM_005.jpg	100
190.537	2.125	2125.1	navigation	Trial1	navigation/STIM_005.jpg	100
195.517	2.179	2179.3	navigation	Trial1	navigation/STIM_005.jpg	100
200.581	3.77	3770.3	navigation	Trial1	navigation/STIM_005.jpg	100
207.13	3.192	3191.9	navigation	Trial1	navigation/STIM_005.jpg	99
214.14	3.282	3282.5	navigation	Trial1	navigation/STIM_006.jpg	100
219.76	3.334	3334.1	navigation	Trial1	navigation/STIM_006.jpg	100
226.181	1.868	1868.0	navigation	Trial1	navigation/STIM_006.jpg	99
232.03	2.587	2586.6	navigation	Trial1	navigation/STIM_006.jpg	100
238.262	2.092	2092.5	navigation	Trial1	navigation/STIM_006.jpg	100
243.939	1.795	1794.8	navigation	Trial1	navigation/STIM_006.jpg	100
249.389	2.004	2004.2	navigation	Trial1	navigation/STIM_007.jpg	99
255.299	4.54	4540.0	navigation	Trial1	navigation/STIM_007.jpg	100
263.034	2.519	2519.1	navigation	Trial1	navigation/STIM_007.jpg	100
269.168	3.018	3017.9	navigation	Trial1	navigation/STIM_007.jpg	99
275.147	3.545	3544.9	navigation	Trial1	navigation/STIM_007.jpg	99
282.563	1.794	1793.7	navigation	Trial1	navigation/STIM_007.jpg	99
287.936	2.211	2211.0	navigation	Trial1	navigation/STIM_008.jpg	99
293.142	3.448	3448.2	navigation	Trial1	navigation/STIM_008.jpg	99
298.877	2.022	2021.8	navigation	Trial1	navigation/STIM_008.jpg	99
304.02	2.479	2479.1	navigation	Trial1	navigation/STIM_008.jpg	99
309.328	3.382	3382.2	navigation	Trial1	navigation/STIM_008.jpg	99
315.175	3.563	3563.3	navigation	Trial1	navigation/STIM_008.jpg	99
320.821	3.132	3132.2	navigation	Trial1	navigation/STIM_009.jpg	99
326.426	4.277	4276.8	navigation	Trial1	navigation/STIM_009.jpg	99
334.419	1.953	1953.4	navigation	Trial1	navigation/STIM_009.jpg	99
340.02	2.642	2642.5	navigation	Trial1	navigation/STIM_009.jpg	99
345.748	3.283	3283.3	navigation	Trial1	navigation/STIM_009.jpg	99
351.599	2.699	2698.8	navigation	Trial1	navigation/STIM_009.jpg	100
357.862	3.699	3699.4	navigation	Trial1	navigation/STIM_010.jpg	100
364.992	4.336	4335.6	navigation	Trial1	navigation/STIM_010.jpg	100
371.614	1.826	1825.5	navigation	Trial1	navigation/STIM_010.jpg	100
376.576	1.796	1796.2	navigation	Trial1	navigation/STIM_010.jpg	99
381.675	1.642	1642.4	navigation	Trial1	navigation/STIM_010.jpg	100
386.501	1.525	1524.9	navigation	Trial1	navigation/STIM_010.jpg	99
390.638	3.766	3765.6	navigation	Trial1	navigation/STIM_011.jpg	100
397.081	2.341	2340.6	navigation	Trial1	navigation/STIM_011.jpg	100
402.821	2.103	2103.2	navigation	Trial1	navigation/STIM_011.jpg	100
408.495	3.18	3180.1	navigation	Trial1	navigation/STIM_011.jpg	99
413.783	3.223	3222.8	navigation	Trial1	navigation/STIM_011.jpg	100
419.786	2.478	2477.9	navigation	Trial1	navigation/STIM_011.jpg	99
426.159	1.095	1095.1	pointing	Trial1	pointing/STIM_000.jpg	100
429.389	1.391	1390.7	pointing	Trial1	pointing/STIM_000.jpg	99
434.283	1.008	1007.7	pointing	Trial1	pointing/STIM_000.jpg	100
438.119	1.036	1036.3	pointing	Trial1	pointing/STIM_000.jpg	100
442.912	1.195	1195.1	pointing	Trial1	pointing/STIM_000.jpg	99
447.9	1.283	1283.3	pointing	Trial1	pointing/STIM_000.jpg	100
453.129	1.275	1275.2	pointing	Trial1	pointing/STIM_001.jpg	99
457.888	1.398	1397.5	pointing	Trial1	pointing/STIM_001.jpg	99
462.07	1.352	1351.8	pointing	Trial1	pointing/STIM_001.jpg	100
466.845	1.398	1397.6	pointing	Trial1	pointing/STIM_001.jpg	100
470.766	0.949	949.2	pointing	Trial1	pointing/STIM_001.jpg	99
473.885	1.094	1093.6	pointing	Trial1	pointing/STIM_001.jpg	99
478.862	1.382	1381.8	pointing	Trial1	pointing/STIM_002.jpg	100
482.245	1.416	1416.1	pointing	Trial1	pointing/STIM_002.jpg	99
486.53	1.255	1255.0	pointing	Trial1	pointing/STIM_002.jpg	99
490.936	1.047	1046.6	pointing	Trial1	pointing/STIM_002.jpg	99
494.558	1.155	1154.8	pointing	Trial1	pointing/STIM_002.jpg	99
498.013	1.104	1103.5	pointing	Trial1	pointing/STIM_002.jpg	100
501.812	1.312	1311.8	pointing	Trial1	pointing/STIM_003.jpg	100
506.394	1.397	1397.0	pointing	Trial1	pointing/STIM_003.jpg	100
510.4	0.872	872.2	pointing	Trial1	pointing/STIM_003.jpg	100
514.233	0.788	788.0	pointing	Trial1	pointing/STIM_003.jpg	99
518.584	1.328	1328.1	pointing	Trial1	pointing/STIM_003.jpg	100
522.566	1.235	1235.3	pointing	Trial1	pointing/STIM_003.jpg	99
527.269	0.969	969.3	pointing	Trial1	pointing/STIM_004.jpg	100
532.121	1.34	1340.5	pointing	Trial1	pointing/STIM_004.jpg	99
536.123	0.996	996.5	pointing	Trial1	pointing/STIM_004.jpg	99
539.564	1.416	1416.1	pointing	Trial1	pointing/STIM_004.jpg	100
543.747	1.276	1276.5	pointing	Trial1	pointing/STIM_004.jpg	99
547.71	1.022	1022.5	pointing	Trial1	pointing/STIM_004.jpg	99
551.434	1.346	1346.3	pointing	Trial1	pointing/STIM_005.jpg	100
554.792	1.092	1092.5	pointing	Trial1	pointing/STIM_005.jpg	99
557.944	0.808	807.7	pointing	Trial1	pointing/STIM_005.jpg	99
561.033	1.25	1250.2	pointing	Trial1	pointing/STIM_005.jpg	99
564.314	1.155	1155.4	pointing	Trial1	pointing/STIM_005.jpg	100
569.116	0.93	930.1	pointing	Trial1	pointing/STIM_005.jpg	99
572.37	1.336	1336.0	pointing	Trial1	pointing/STIM_006.jpg	99
576.702	0.803	803.3	pointing	Trial1	pointing/STIM_006.jpg	100
580.505	0.827	826.8	pointing	Trial1	pointing/STIM_006.jpg	100
584.702	1.104	1103.6	pointing	Trial1	pointing/STIM_006.jpg	99
589.794	1.235	1235.0	pointing	Trial1	pointing/STIM_006.jpg	99
593.564	0.952	952.3	pointing	Trial1	pointing/STIM_006.jpg	99
597.167	0.958	957.5	pointing	Trial1	pointing/STIM_007.jpg	100
601.137	1.2	1199.9	pointing	Trial1	pointing/STIM_007.jpg	100
604.862	1.102	1102.1	pointing	Trial1	pointing/STIM_007.jpg	99
608.282	1.198	1197.9	pointing	Trial1	pointing/STIM_007.jpg	99
612.357	1.402	1402.5	pointing	Trial1	pointing/STIM_007.jpg	99
616.628	0.888	887.7	pointing	Trial1	pointing/STIM_007.jpg	99
620.425	1.198	1198.4	pointing	Trial1	pointing/STIM_008.jpg	100
625.274	1.34	1339.6	pointing	Trial1	pointing/STIM_008.jpg	100
628.912	0.948	948.2	pointing	Trial1	pointing/STIM_008.jpg	99
633.801	1.102	1102.3	pointing	Trial1	pointing/STIM_008.jpg	100
637.341	1.162	1162.0	pointing	Trial1	pointing/STIM_008.jpg	99
641.803	0.946	945.8	pointing	Trial1	pointing/STIM_008.jpg	100
644.938	1.073	1073.2	pointing	Trial1	pointing/STIM_009.jpg	100
648.167	1.373	1373.4	pointing	Trial1	pointing/STIM_009.jpg	99
652.224	1.223	1223.0	pointing	Trial1	pointing/STIM_009.jpg	100
657.271	1.278	1278.4	pointing	Trial1	pointing/STIM_009.jpg	100
660.672	0.881	881.1	pointing	Trial1	pointing/STIM_009.jpg	99
665.4	1.187	1187.3	pointing	Trial1	pointing/STIM_009.jpg	99
670.581	1.096	1095.6	pointing	Trial1	pointing/STIM_010.jpg	99
673.9	1.446	1445.6	pointing	Trial1	pointing/STIM_010.jpg	99
677.88	1.293	1293.0	pointing	Trial1	pointing/STIM_010.jpg	100
682.918	0.886	886.4	pointing	Trial1	pointing/STIM_010.jpg	99
686.35	0.836	835.6	pointing	Trial1	pointing/STIM_010.jpg	99
689.436	1.238	1237.5	pointing	Trial1	pointing/STIM_010.jpg	99
694.564	0.89	890.1	pointing	Trial1	pointing/STIM_011.jpg	100
699.204	0.916	916.5	pointing	Trial1	pointing/STIM_011.jpg	100
703.799	0.966	966.1	pointing	Trial1	pointing/STIM_011.jpg	99
708.683	1.466	1465.6	pointing	Trial1	pointing/STIM_011.jpg	99
713.0	0.936	936.4	pointing	Trial1	pointing/STIM_011.jpg	99
716.468	1.153	1152.8	pointing	Trial1	pointing/STIM_011.jpg	100
719.782	3.633	3632.9	navigation	Trial2	navigation/STIM_000.jpg	99
726.374	3.222	3222.5	navigation	Trial2	navigation/STIM_000.jpg	100
731.817	2.075	2075.1	navigation	Trial2	navigation/STIM_000.jpg	100
737.598	2.534	2534.2	navigation	Trial2	navigation/STIM_000.jpg	99
742.54	3.367	3367.2	navigation	Trial2	navigation/STIM_000.jpg	100
748.182	2.713	2712.7	navigation	Trial2	navigation/STIM_000.jpg	99
754.466	1.976	1976.3	navigation	Trial2	navigation/STIM_001.jpg	100
760.282	3.778	3777.8	navigation	Trial2	navigation/STIM_001.jpg	100
767.9	2.952	2951.8	navigation	Trial2	navigation/STIM_001.jpg	100
774.777	3.114	3114.4	navigation	Trial2	navigation/STIM_001.jpg	100
780.464	3.111	3110.9	navigation	Trial2	navigation/STIM_001.jpg	99
786.001	2.905	2904.6	navigation	Trial2	navigation/STIM_001.jpg	99
791.677	3.276	3275.6	navigation	Trial2	navigation/STIM_002.jpg	100
797.666	1.833	1833.2	navigation	Trial2	navigation/STIM_002.jpg	100
802.891	2.152	2152.2	navigation	Trial2	navigation/STIM_002.jpg	99
807.366	1.528	1527.7	navigation	Trial2	navigation/STIM_002.jpg	99
812.4	1.492	1492.3	navigation	Trial2	navigation/STIM_002.jpg	100
815.939	1.888	1888.3	navigation	Trial2	navigation/STIM_002.jpg	100
820.298	2.238	2237.7	navigation	Trial2	navigation/STIM_003.jpg	99
825.271	1.805	1804.6	navigation	Trial2	navigation/STIM_003.jpg	100
829.579	1.728	1728.0	navigation	Trial2	navigation/STIM_003.jpg	99
834.895	2.672	2672.3	navigation	Trial2	navigation/STIM_003.jpg	100
840.652	2.785	2785.0	navigation	Trial2	navigation/STIM_003.jpg	100
846.169	3.066	3065.7	navigation	Trial2	navigation/STIM_003.jpg	99
851.71	3.836	3835.7	navigation	Trial2	navigation/STIM_004.jpg	100
858.83	2.981	2980.9	navigation	Trial2	navigation/STIM_004.jpg	100
864.701	2.879	2879.4	navigation	Trial2	navigation/STIM_004.jpg	99
871.362	1.959	1959.4	navigation	Trial2	navigation/STIM_004.jpg	100
876.781	1.909	1909.1	navigation	Trial2	navigation/STIM_004.jpg	99
882.248	3.403	3403.4	navigation	Trial2	navigation/STIM_004.jpg	99
889.438	2.406	2405.7	navigation	Trial2	navigation/STIM_005.jpg	100
895.166	3.056	3056.5	navigation	Trial2	navigation/STIM_005.jpg	100
901.809	1.544	1544.2	navigation	Trial2	navigation/STIM_005.jpg	99
905.58	3.003	3003.3	navigation	Trial2	navigation/STIM_005.jpg	99
912.47	2.94	2940.2	navigation	Trial2	navigation/STIM_005.jpg	100
917.658	2.467	2466.6	navigation	Trial2	navigation/STIM_005.jpg	100
922.329	1.675	1675.4	navigation	Trial2	navigation/STIM_006.jpg	99
927.694	2.072	2071.5	navigation	Trial2	navigation/STIM_006.jpg	100
933.308	1.713	1712.6	navigation	Trial2	navigation/STIM_006.jpg	99
937.987	2.224	2224.5	navigation	Trial2	navigation/STIM_006.jpg	100
943.059	2.834	2834.1	navigation	Trial2	navigation/STIM_006.jpg	99
949.567	2.856	2855.8	navigation	Trial2	navigation/STIM_006.jpg	100
956.129	3.228	3228.1	navigation	Trial2	navigation/STIM_007.jpg	99
962.374	3.57	3570.3	navigation	Trial2	navigation/STIM_007.jpg	100
968.34	2.761	2761.0	navigation	Trial2	navigation/STIM_007.jpg	100
973.484	2.509	2509.2	navigation	Trial2	navigation/STIM_007.jpg	99
979.979	1.474	1474.5	navigation	Trial2	navigation/STIM_007.jpg	99
984.418	2.626	2625.8	navigation	Trial2	navigation/STIM_007.jpg	99
990.735	2.302	2302.4	navigation	Trial2	navigation/STIM_008.jpg	100
997.008	3.836	3836.3	navigation	Trial2	navigation/STIM_008.jpg	100
1004.598	2.873	2873.1	navigation	Trial2	navigation/STIM_008.jpg	100
1009.985	1.38	1379.6	navigation	Trial2	navigation/STIM_008.jpg	100
1014.93	1.627	1627.3	navigation	Trial2	navigation/STIM_008.jpg	100
1019.164	3.294	3293.8	navigation	Trial2	navigation/STIM_008.jpg	100
1026.039	2.313	2312.9	navigation	Trial2	navigation/STIM_009.jpg	99
1032.064	2.547	2546.8	navigation	Trial2	navigation/STIM_009.jpg	100
1037.149	2.233	2233.3	navigation	Trial2	navigation/STIM_009.jpg	100
1043.15	2.233	2233.1	navigation	Trial2	navigation/STIM_009.jpg	99
1048.542	2.187	2186.7	navigation	Trial2	navigation/STIM_009.jpg	99
1054.158	2.612	2612.1	navigation	Trial2	navigation/STIM_009.jpg	99
1059.297	3.315	3315.0	navigation	Trial2	navigation/STIM_010.jpg	99
1064.982	2.134	2133.7	navigation	Trial2	navigation/STIM_010.jpg	99
1070.174	1.921	1920.9	navigation	Trial2	navigation/STIM_010.jpg	100
1075.534	2.058	2057.9	navigation	Trial2	navigation/STIM_010.jpg	99
1079.792	2.93	2929.8	navigation	Trial2	navigation/STIM_010.jpg	100
1084.891	2.599	2599.1	navigation	Trial2	navigation/STIM_010.jpg	99
1090.874	3.823	3822.7	navigation	Trial2	navigation/STIM_011.jpg	100
1097.91	2.522	2521.9	navigation	Trial2	navigation/STIM_011.jpg	100
1102.591	2.624	2623.5	navigation	Trial2	navigation/STIM_011.jpg	100
1108.557	1.409	1409.0	navigation	Trial2	navigation/STIM_011.jpg	100
1113.112	2.764	2763.8	navigation	Trial2	navigation/STIM_011.jpg	99
1118.092	2.582	2582.0	navigation	Trial2	navigation/STIM_011.jpg	99
1124.071	0.863	863.4	pointing	Trial2	pointing/STIM_000.jpg	99
1127.077	0.913	913.0	pointing	Trial2	pointing/STIM_000.jpg	99
1131.512	1.208	1207.5	pointing	Trial2	pointing/STIM_000.jpg	100
1135.022	1.022	1022.2	pointing	Trial2	pointing/STIM_000.jpg	100
1139.493	1.17	1170.1	pointing	Trial2	pointing/STIM_000.jpg	99
1143.242	1.366	1365.8	pointing	Trial2	pointing/STIM_000.jpg	100
1148.286	0.926	926.2	pointing	Trial2	pointing/STIM_001.jpg	100
1152.266	1.357	1357.1	pointing	Trial2	pointing/STIM_001.jpg	99
1157.263	1.39	1389.8	pointing	Trial2	pointing/STIM_001.jpg	99
1162.4	0.838	838.1	pointing	Trial2	pointing/STIM_001.jpg	100
1166.495	1.32	1319.8	pointing	Trial2	pointing/STIM_001.jpg	99
1169.875	1.064	1063.5	pointing	Trial2	pointing/STIM_001.jpg	100
1174.361	1.014	1013.9	pointing	Trial2	pointing/STIM_002.jpg	100
1178.464	1.332	1332.0	pointing	Trial2	pointing/STIM_002.jpg	100
1183.106	1.252	1251.5	pointing	Trial2	pointing/STIM_002.jpg	100
1187.936	1.454	1454.5	pointing	Trial2	pointing/STIM_002.jpg	100
1192.205	0.87	870.0	pointing	Trial2	pointing/STIM_002.jpg	100
1197.004	1.337	1336.8	pointing	Trial2	pointing/STIM_002.jpg	99
1200.783	0.786	785.5	pointing	Trial2	pointing/STIM_003.jpg	99
1205.007	1.014	1013.9	pointing	Trial2	pointing/STIM_003.jpg	100
1209.393	1.222	1222.1	pointing	Trial2	pointing/STIM_003.jpg	99
1214.441	1.218	1217.6	pointing	Trial2	pointing/STIM_003.jpg	99
1218.821	0.859	858.8	pointing	Trial2	pointing/STIM_003.jpg	99
1223.189	1.361	1361.0	pointing	Trial2	pointing/STIM_003.jpg	100
1227.141	1.037	1036.6	pointing	Trial2	pointing/STIM_004.jpg	100
1231.719	1.188	1188.2	pointing	Trial2	pointing/STIM_004.jpg	99
1235.686	1.132	1132.2	pointing	Trial2	pointing/STIM_004.jpg	100
1240.752	0.935	935.3	pointing	Trial2	pointing/STIM_004.jpg	99
1244.317	1.412	1412.2	pointing	Trial2	pointing/STIM_004.jpg	99
1249.528	1.244	1243.9	pointing	Trial2	pointing/STIM_004.jpg	100
1254.04	1.07	1069.6	pointing	Trial2	pointing/STIM_005.jpg	99
1258.194	1.436	1436.4	pointing	Trial2	pointing/STIM_005.jpg	100
1263.554	1.168	1168.0	pointing	Trial2	pointing/STIM_005.jpg	100
1266.916	1.129	1129.0	pointing	Trial2	pointing/STIM_005.jpg	100
1270.715	1.011	1010.8	pointing	Trial2	pointing/STIM_005.jpg	100
1274.837	1.317	1317.1	pointing	Trial2	pointing/STIM_005.jpg	99
1279.321	0.792	792.3	pointing	Trial2	pointing/STIM_006.jpg	100
1283.529	1.335	1335.2	pointing	Trial2	pointing/STIM_006.jpg	100
1288.817	0.822	822.0	pointing	Trial2	pointing/STIM_006.jpg	100
1293.4	1.201	1200.9	pointing	Trial2	pointing/STIM_006.jpg	100
1297.121	1.053	1053.3	pointing	Trial2	pointing/STIM_006.jpg	99
1301.423	0.856	855.5	pointing	Trial2	pointing/STIM_006.jpg	99
1305.367	1.292	1292.5	pointing	Trial2	pointing/STIM_007.jpg	100
1310.424	1.45	1449.5	pointing	Trial2	pointing/STIM_007.jpg	99
1314.349	0.865	865.4	pointing	Trial2	pointing/STIM_007.jpg	99
1318.657	1.379	1378.7	pointing	Trial2	pointing/STIM_007.jpg	99
1322.121	0.832	832.5	pointing	Trial2	pointing/STIM_007.jpg	100
1325.621	0.977	977.1	pointing	Trial2	pointing/STIM_007.jpg	99
1328.683	0.924	924.2	pointing	Trial2	pointing/STIM_008.jpg	99
1332.356	1.429	1429.3	pointing	Trial2	pointing/STIM_008.jpg	99
1336.83	1.406	1405.6	pointing	Trial2	pointing/STIM_008.jpg	100
1340.388	0.956	955.7	pointing	Trial2	pointing/STIM_008.jpg	99
1343.481	1.107	1107.3	pointing	Trial2	pointing/STIM_008.jpg	99
1347.23	1.429	1429.4	pointing	Trial2	pointing/STIM_008.jpg	99
1351.107	1.378	1377.5	pointing	Trial2	pointing/STIM_009.jpg	99
1355.675	1.38	1379.5	pointing	Trial2	pointing/STIM_009.jpg	100
1360.376	1.307	1306.8	pointing	Trial2	pointing/STIM_009.jpg	100
1364.43	0.794	793.7	pointing	Trial2	pointing/STIM_009.jpg	100
1368.191	1.264	1264.1	pointing	Trial2	pointing/STIM_009.jpg	99
1372.238	1.178	1177.6	pointing	Trial2	pointing/STIM_009.jpg	100
1376.36	0.963	962.6	pointing	Trial2	pointing/STIM_010.jpg	99
1380.093	1.19	1190.2	pointing	Trial2	pointing/STIM_010.jpg	100
1385.19	1.427	1426.6	pointing	Trial2	pointing/STIM_010.jpg	99
1389.96	1.079	1079.4	pointing	Trial2	pointing/STIM_010.jpg	100
1394.334	1.297	1297.2	pointing	Trial2	pointing/STIM_010.jpg	99
1397.776	1.381	1381.1	pointing	Trial2	pointing/STIM_010.jpg	100
1402.144	1.226	1226.2	pointing	Trial2	pointing/STIM_011.jpg	99
1405.859	0.936	935.7	pointing	Trial2	pointing/STIM_011.jpg	99
1409.372	1.262	1262.1	pointing	Trial2	pointing/STIM_011.jpg	100
1414.611	1.234	1233.5	pointing	Trial2	pointing/STIM_011.jpg	99
1418.077	1.168	1167.7	pointing	Trial2	pointing/STIM_011.jpg	99
1421.827	1.378	1377.6	pointing	Trial2	pointing/STIM_011.jpg	99
1426.73	2.408	2408.3	navigation	Trial3	navigation/STIM_000.jpg	100
1431.195	2.952	2952.5	navigation	Trial3	navigation/STIM_000.jpg	99
1437.681	3.397	3396.6	navigation	Trial3	navigation/STIM_000.jpg	99
1444.818	1.732	1732.3	navigation	Trial3	navigation/STIM_000.jpg	99
1449.501	2.72	2719.8	navigation	Trial3	navigation/STIM_000.jpg	100
1454.378	2.108	2107.6	navigation	Trial3	navigation/STIM_000.jpg	99
1458.684	2.032	2031.6	navigation	Trial3	navigation/STIM_001.jpg	99
1464.425	1.947	1947.1	navigation	Trial3	navigation/STIM_001.jpg	100
1468.712	2.721	2720.9	navigation	Trial3	navigation/STIM_001.jpg	99
1474.624	2.284	2284.0	navigation	Trial3	navigation/STIM_001.jpg	99
1480.531	2.798	2798.2	navigation	Trial3	navigation/STIM_001.jpg	100
1486.306	3.211	3210.6	navigation	Trial3	navigation/STIM_001.jpg	99
1491.64	2.034	2034.1	navigation	Trial3	navigation/STIM_002.jpg	100
1496.428	3.371	3371.2	navigation	Trial3	navigation/STIM_002.jpg	100
1502.433	2.969	2968.9	navigation	Trial3	navigation/STIM_002.jpg	99
1509.292	1.68	1680.2	navigation	Trial3	navigation/STIM_002.jpg	99
1513.924	2.398	2397.9	navigation	Trial3	navigation/STIM_002.jpg	100
1520.084	2.485	2485.0	navigation	Trial3	navigation/STIM_002.jpg	100
1526.277	2.444	2444.3	navigation	Trial3	navigation/STIM_003.jpg	100
1532.193	2.465	2465.2	navigation	Trial3	navigation/STIM_003.jpg	99
1537.914	1.47	1469.8	navigation	Trial3	navigation/STIM_003.jpg	100
1541.758	2.53	2530.5	navigation	Trial3	navigation/STIM_003.jpg	100
1546.757	1.897	1897.1	navigation	Trial3	navigation/STIM_003.jpg	99
1551.853	1.972	1972.3	navigation	Trial3	navigation/STIM_003.jpg	99
1557.188	2.726	2725.9	navigation	Trial3	navigation/STIM_004.jpg	99
1563.785	1.894	1893.9	navigation	Trial3	navigation/STIM_004.jpg	99
1567.709	1.989	1989.1	navigation	Trial3	navigation/STIM_004.jpg	99
1572.295	3.061	3060.7	navigation	Trial3	navigation/STIM_004.jpg	99
1578.283	3.281	3280.7	navigation	Trial3	navigation/STIM_004.jpg	99
1584.823	2.492	2492.5	navigation	Trial3	navigation/STIM_004.jpg	99
1590.832	1.835	1834.9	navigation	Trial3	navigation/STIM_005.jpg	99
1595.915	2.806	2806.3	navigation	Trial3	navigation/STIM_005.jpg	100
1601.121	3.175	3175.1	navigation	Trial3	navigation/STIM_005.jpg	99
1608.007	1.412	1412.3	navigation	Trial3	navigation/STIM_005.jpg	99
1613.404	1.737	1736.9	navigation	Trial3	navigation/STIM_005.jpg	99
1617.956	1.632	1632.2	navigation	Trial3	navigation/STIM_005.jpg	99
1622.893	2.283	2282.8	navigation	Trial3	navigation/STIM_006.jpg	99
1628.92	1.746	1746.1	navigation	Trial3	navigation/STIM_006.jpg	99
1634.08	2.369	2369.3	navigation	Trial3	navigation/STIM_006.jpg	100
1639.417	1.795	1795.4	navigation	Trial3	navigation/STIM_006.jpg	99
1644.194	1.806	1806.2	navigation	Trial3	navigation/STIM_006.jpg	99
1649.503	1.958	1957.9	navigation	Trial3	navigation/STIM_006.jpg	99
1655.012	1.806	1806.3	navigation	Trial3	navigation/STIM_007.jpg	100
1659.661	1.829	1829.2	navigation	Trial3	navigation/STIM_007.jpg	100
1663.731	3.176	3175.9	navigation	Trial3	navigation/STIM_007.jpg	99
1670.837	1.919	1918.6	navigation	Trial3	navigation/STIM_007.jpg	99
1676.081	2.2	2200.2	navigation	Trial3	navigation/STIM_007.jpg	99
1681.048	2.415	2415.0	navigation	Trial3	navigation/STIM_007.jpg	99
1685.567	2.222	2222.2	navigation	Trial3	navigation/STIM_008.jpg	99
1691.719	2.834	2833.8	navigation	Trial3	navigation/STIM_008.jpg	100
1696.696	1.932	1931.8	navigation	Trial3	navigation/STIM_008.jpg	99
1700.851	2.652	2652.4	navigation	Trial3	navigation/STIM_008.jpg	100
1706.203	1.545	1544.7	navigation	Trial3	navigation/STIM_008.jpg	100
1710.52	1.579	1579.1	navigation	Trial3	navigation/STIM_008.jpg	99
1714.585	1.648	1648.5	navigation	Trial3	navigation/STIM_009.jpg	99
1719.345	1.787	1786.9	navigation	Trial3	navigation/STIM_009.jpg	99
1724.356	2.49	2490.2	navigation	Trial3	navigation/STIM_009.jpg	99
1729.066	2.962	2961.6	navigation	Trial3	navigation/STIM_009.jpg	100
1734.839	2.496	2495.6	navigation	Trial3	navigation/STIM_009.jpg	99
1740.134	1.675	1675.1	navigation	Trial3	navigation/STIM_009.jpg	99
1745.067	2.342	2342.5	navigation	Trial3	navigation/STIM_010.jpg	99
1749.627	1.391	1390.8	navigation	Trial3	navigation/STIM_010.jpg	100
1754.282	2.915	2915.0	navigation	Trial3	navigation/STIM_010.jpg	100
1759.445	3.302	3301.9	navigation	Trial3	navigation/STIM_010.jpg	100
1765.553	1.868	1867.9	navigation	Trial3	navigation/STIM_010.jpg	100
1771.357	1.504	1504.2	navigation	Trial3	navigation/STIM_010.jpg	99
1776.204	2.812	2812.3	navigation	Trial3	navigation/STIM_011.jpg	100
1782.142	3.307	3306.8	navigation	Trial3	navigation/STIM_011.jpg	99
1788.23	3.012	3012.4	navigation	Trial3	navigation/STIM_011.jpg	100
1794.713	1.74	1740.4	navigation	Trial3	navigation/STIM_011.jpg	99
1798.878	1.44	1440.0	navigation	Trial3	navigation/STIM_011.jpg	99
1803.181	2.342	2342.0	navigation	Trial3	navigation/STIM_011.jpg	99
1809.171	1.097	1097.3	pointing	Trial3	pointing/STIM_000.jpg	99
1813.238	1.159	1159.3	pointing	Trial3	pointing/STIM_000.jpg	100
1818.167	1.362	1362.5	pointing	Trial3	pointing/STIM_000.jpg	99
1823.458	0.954	954.1	pointing	Trial3	pointing/STIM_000.jpg	99
1826.986	1.398	1397.5	pointing	Trial3	pointing/STIM_000.jpg	100
1831.66	0.908	907.6	pointing	Trial3	pointing/STIM_000.jpg	100
1835.317	1.338	1337.7	pointing	Trial3	pointing/STIM_001.jpg	100
1840.19	1.234	1233.6	pointing	Trial3	pointing/STIM_001.jpg	100
1843.847	0.862	862.0	pointing	Trial3	pointing/STIM_001.jpg	99
1848.514	1.196	1196.1	pointing	Trial3	pointing/STIM_001.jpg	99
1851.849	1.028	1027.9	pointing	Trial3	pointing/STIM_001.jpg	100
1856.365	1.435	1434.7	pointing	Trial3	pointing/STIM_001.jpg	100
1859.824	1.188	1187.5	pointing	Trial3	pointing/STIM_002.jpg	99
1864.875	0.938	938.5	pointing	Trial3	pointing/STIM_002.jpg	99
1867.994	0.789	789.1	pointing	Trial3	pointing/STIM_002.jpg	99
1871.86	1.43	1429.9	pointing	Trial3	pointing/STIM_002.jpg	99
1876.527	0.831	831.3	pointing	Trial3	pointing/STIM_002.jpg	100
1880.268	0.88	880.0	pointing	Trial3	pointing/STIM_002.jpg	100
1883.971	1.171	1171.0	pointing	Trial3	pointing/STIM_003.jpg	100
1887.609	1.29	1290.3	pointing	Trial3	pointing/STIM_003.jpg	99
1892.323	0.994	994.3	pointing	Trial3	pointing/STIM_003.jpg	99
1895.506	0.918	918.0	pointing	Trial3	pointing/STIM_003.jpg	99
1898.7	0.816	815.5	pointing	Trial3	pointing/STIM_003.jpg	100
1901.59	1.24	1239.5	pointing	Trial3	pointing/STIM_003.jpg	99
1906.635	0.984	984.0	pointing	Trial3	pointing/STIM_004.jpg	100
1910.247	0.916	916.2	pointing	Trial3	pointing/STIM_004.jpg	100
1913.906	1.109	1109.0	pointing	Trial3	pointing/STIM_004.jpg	100
1917.075	1.345	1344.6	pointing	Trial3	pointing/STIM_004.jpg	100
1921.1	1.349	1348.9	pointing	Trial3	pointing/STIM_004.jpg	99
1925.893	1.023	1022.7	pointing	Trial3	pointing/STIM_004.jpg	99
1929.137	0.979	979.4	pointing	Trial3	pointing/STIM_005.jpg	99
1933.974	0.993	993.1	pointing	Trial3	pointing/STIM_005.jpg	99
1938.768	1.071	1071.3	pointing	Trial3	pointing/STIM_005.jpg	99
1943.423	1.133	1133.2	pointing	Trial3	pointing/STIM_005.jpg	100
1948.38	1.337	1337.3	pointing	Trial3	pointing/STIM_005.jpg	100
1952.049	0.81	810.1	pointing	Trial3	pointing/STIM_005.jpg	100
1955.237	1.466	1465.9	pointing	Trial3	pointing/STIM_006.jpg	100
1958.796	1.131	1131.0	pointing	Trial3	pointing/STIM_006.jpg	99
1962.747	1.416	1415.6	pointing	Trial3	pointing/STIM_006.jpg	100
1967.405	1.463	1463.1	pointing	Trial3	pointing/STIM_006.jpg	100
1971.024	0.798	798.0	pointing	Trial3	pointing/STIM_006.jpg	99
1975.674	1.244	1244.4	pointing	Trial3	pointing/STIM_006.jpg	100
1980.061	1.023	1023.4	pointing	Trial3	pointing/STIM_007.jpg	100
1984.035	1.025	1024.8	pointing	Trial3	pointing/STIM_007.jpg	99
1988.619	1.131	1131.4	pointing	Trial3	pointing/STIM_007.jpg	99
1992.753	1.32	1319.5	pointing	Trial3	pointing/STIM_007.jpg	99
1997.324	1.259	1259.1	pointing	Trial3	pointing/STIM_007.jpg	99
2002.371	1.1	1100.3	pointing	Trial3	pointing/STIM_007.jpg	100
2006.112	1.422	1422.5	pointing	Trial3	pointing/STIM_008.jpg	99
2010.91	0.888	888.4	pointing	Trial3	pointing/STIM_008.jpg	100
2015.251	1.225	1225.0	pointing	Trial3	pointing/STIM_008.jpg	99
2018.835	0.978	978.0	pointing	Trial3	pointing/STIM_008.jpg	100
2021.915	1.175	1174.8	pointing	Trial3	pointing/STIM_008.jpg	100
2026.926	0.868	867.5	pointing	Trial3	pointing/STIM_008.jpg	99
2030.008	1.142	1142.2	pointing	Trial3	pointing/STIM_009.jpg	100
2034.973	1.265	1264.9	pointing	Trial3	pointing/STIM_009.jpg	100
2038.398	1.174	1174.0	pointing	Trial3	pointing/STIM_009.jpg	99
2042.635	1.242	1242.1	pointing	Trial3	pointing/STIM_009.jpg	99
2047.326	1.447	1446.9	pointing	Trial3	pointing/STIM_009.jpg	99
2052.183	1.255	1254.7	pointing	Trial3	pointing/STIM_009.jpg	100
2057.051	0.971	971.3	pointing	Trial3	pointing/STIM_010.jpg	100
2061.579	0.862	861.5	pointing	Trial3	pointing/STIM_010.jpg	100
2065.455	0.914	913.8	pointing	Trial3	pointing/STIM_010.jpg	99
2069.528	1.348	1348.0	pointing	Trial3	pointing/STIM_010.jpg	100
2073.641	1.116	1115.7	pointing	Trial3	pointing/STIM_010.jpg	99
2078.625	1.229	1229.4	pointing	Trial3	pointing/STIM_010.jpg	100
2082.709	0.819	818.6	pointing	Trial3	pointing/STIM_011.jpg	99
2086.096	0.927	926.8	pointing	Trial3	pointing/STIM_011.jpg	100
2090.594	1.203	1202.8	pointing	Trial3	pointing/STIM_011.jpg	99
2094.391	1.43	1430.0	pointing	Trial3	pointing/STIM_011.jpg	100
2098.999	1.328	1328.2	pointing	Trial3	pointing/STIM_011.jpg	100
2103.062	1.008	1008.5	pointing	Trial3	pointing/STIM_011.jpg	100
