onset	duration	accuracy_binary	trial_type	learning_stage	stimulus	coherence
0.000	12.698	0	learning	LS1	PICTURE_592.jpg	i
12.698	n/a	n/a	learning	LS1	PICTURE_379.jpg	i
37.698	n/a	n/a	learning	LS1	PICTURE_465.jpg	c
62.698	n/a	n/a	learning	LS1	PICTURE_692.jpg	c
87.698	14.374	1	learning	LS1	PICTURE_592.jpg	c
102.072	n/a	n/a	learning	LS1	PICTURE_640.jpg	i
127.072	12.105	1	learning	LS1	PICTURE_379.jpg	c
139.177	14.417	1	learning	LS1	PICTURE_640.jpg	c
153.594	15.768	1	learning	LS1	PICTURE_692.jpg	i
169.362	9.443	0	learning	LS1	PICTURE_465.jpg	i
178.805	16.011	0	learning	LS2	PICTURE_640.jpg	i
194.816	10.965	1	learning	LS2	PICTURE_692.jpg	i
205.781	7.679	1	learning	LS2	PICTURE_379.jpg	c
213.460	13.676	0	learning	LS2	PICTURE_465.jpg	i
227.136	15.674	1	learning	LS2	PICTURE_692.jpg	c
242.810	9.036	1	learning	LS2	PICTURE_379.jpg	i
251.846	10.714	1	learning	LS2	PICTURE_592.jpg	i
262.560	19.431	1	learning	LS2	PICTURE_640.jpg	c
281.991	8.155	1	learning	LS2	PICTURE_592.jpg	c
290.146	13.992	1	learning	LS2	PICTURE_465.jpg	c
304.138	10.325	1	learning	LS3	PICTURE_640.jpg	c
314.463	10.244	0	learning	LS3	PICTURE_692.jpg	i
324.707	7.744	1	learning	LS3	PICTURE_465.jpg	c
332.451	7.956	1	learning	LS3	PICTURE_592.jpg	i
340.407	8.655	1	learning	LS3	PICTURE_465.jpg	i
349.062	14.151	1	learning	LS3	PICTURE_640.jpg	i
363.213	6.853	1	learning	LS3	PICTURE_379.jpg	c
370.066	6.600	1	learning	LS3	PICTURE_592.jpg	c
376.666	7.785	1	learning	LS3	PICTURE_692.jpg	c
384.451	8.658	1	learning	LS3	PICTURE_379.jpg	i
393.109	6.750	1	learning	LS4	PICTURE_592.jpg	c
399.859	8.902	1	learning	LS4	PICTURE_640.jpg	c
408.761	8.178	1	learning	LS4	PICTURE_465.jpg	c
416.939	7.607	1	learning	LS4	PICTURE_379.jpg	c
424.546	7.840	1	learning	LS4	PICTURE_640.jpg	i
432.386	6.633	1	learning	LS4	PICTURE_692.jpg	c
439.019	6.865	1	learning	LS4	PICTURE_592.jpg	i
445.884	13.501	0	learning	LS4	PICTURE_465.jpg	i
459.385	8.462	1	learning	LS4	PICTURE_692.jpg	i
467.847	8.854	1	learning	LS4	PICTURE_379.jpg	i
476.701	12.134	1	control	LS1	PICTURE_540.jpg	c
488.835	10.595	1	control	LS1	PICTURE_263.jpg	i
499.430	8.575	1	control	LS1	PICTURE_540.jpg	i
508.005	8.634	1	control	LS1	PICTURE_116.jpg	i
516.639	8.214	1	control	LS1	PICTURE_491.jpg	c
524.853	7.475	1	control	LS1	PICTURE_263.jpg	c
532.328	6.263	1	control	LS1	PICTURE_116.jpg	c
538.591	8.087	1	control	LS1	PICTURE_135.jpg	i
546.678	8.313	1	control	LS1	PICTURE_491.jpg	i
554.991	8.706	1	control	LS1	PICTURE_135.jpg	c
563.697	n/a	n/a	control	LS2	PICTURE_116.jpg	c
588.697	6.231	1	control	LS2	PICTURE_491.jpg	c
594.928	8.384	1	control	LS2	PICTURE_540.jpg	i
603.312	6.217	1	control	LS2	PICTURE_135.jpg	c
609.529	6.770	1	control	LS2	PICTURE_263.jpg	i
616.299	6.203	1	control	LS2	PICTURE_540.jpg	c
622.502	8.361	1	control	LS2	PICTURE_491.jpg	i
630.863	7.160	1	control	LS2	PICTURE_116.jpg	i
638.023	6.914	1	control	LS2	PICTURE_135.jpg	i
644.937	7.474	1	control	LS2	PICTURE_263.jpg	c
652.411	9.252	1	control	LS3	PICTURE_621.jpg	i
661.663	9.811	1	control	LS3	PICTURE_234.jpg	c
671.474	8.771	1	control	LS3	PICTURE_151.jpg	c
680.245	7.552	1	control	LS3	PICTURE_119.jpg	c
687.797	6.492	1	control	LS3	PICTURE_621.jpg	c
694.289	6.552	1	control	LS3	PICTURE_111.jpg	c
700.841	7.731	1	control	LS3	PICTURE_151.jpg	i
708.572	7.949	1	control	LS3	PICTURE_119.jpg	i
716.521	7.695	1	control	LS3	PICTURE_111.jpg	i
724.216	7.921	1	control	LS3	PICTURE_234.jpg	i
732.137	7.134	1	control	LS4	PICTURE_151.jpg	i
739.271	6.886	1	control	LS4	PICTURE_621.jpg	c
746.157	8.398	1	control	LS4	PICTURE_119.jpg	i
754.555	7.350	1	control	LS4	PICTURE_234.jpg	i
761.905	7.583	1	control	LS4	PICTURE_151.jpg	c
769.488	6.857	1	control	LS4	PICTURE_234.jpg	c
776.345	6.608	1	control	LS4	PICTURE_111.jpg	i
782.953	6.527	1	control	LS4	PICTURE_621.jpg	i
789.480	7.406	1	control	LS4	PICTURE_111.jpg	c
796.886	7.159	1	control	LS4	PICTURE_119.jpg	c
804.045	16.368	1	learning	LS1	PICTURE_148.jpg	c
820.413	14.529	1	learning	LS1	PICTURE_202.jpg	c
834.942	10.903	0	learning	LS1	PICTURE_165.jpg	i
845.845	14.160	0	learning	LS1	PICTURE_358.jpg	i
860.005	17.897	1	learning	LS1	PICTURE_453.jpg	c
877.902	11.878	1	learning	LS1	PICTURE_148.jpg	i
889.780	10.019	1	learning	LS1	PICTURE_202.jpg	i
899.799	10.246	1	learning	LS1	PICTURE_358.jpg	c
910.045	11.112	1	learning	LS1	PICTURE_453.jpg	i
921.157	9.746	1	learning	LS1	PICTURE_165.jpg	c
930.903	7.997	1	learning	LS2	PICTURE_202.jpg	c
938.900	8.391	0	learning	LS2	PICTURE_148.jpg	i
947.291	8.783	1	learning	LS2	PICTURE_453.jpg	i
956.074	9.336	1	learning	LS2	PICTURE_165.jpg	c
965.410	10.688	1	learning	LS2	PICTURE_358.jpg	i
976.098	6.929	1	learning	LS2	PICTURE_453.jpg	c
983.027	6.841	1	learning	LS2	PICTURE_358.jpg	c
989.868	8.040	1	learning	LS2	PICTURE_202.jpg	i
997.908	7.160	1	learning	LS2	PICTURE_148.jpg	c
1005.068	12.670	1	learning	LS2	PICTURE_165.jpg	i
1017.738	7.571	1	learning	LS3	PICTURE_358.jpg	i
1025.309	7.163	1	learning	LS3	PICTURE_148.jpg	c
1032.472	7.723	1	learning	LS3	PICTURE_165.jpg	c
1040.195	6.843	1	learning	LS3	PICTURE_358.jpg	c
1047.038	7.708	1	learning	LS3	PICTURE_453.jpg	i
1054.746	7.928	1	learning	LS3	PICTURE_202.jpg	c
1062.674	9.427	1	learning	LS3	PICTURE_148.jpg	i
1072.101	6.926	1	learning	LS3	PICTURE_453.jpg	c
1079.027	8.266	1	learning	LS3	PICTURE_165.jpg	i
1087.293	8.172	1	learning	LS3	PICTURE_202.jpg	i
1095.465	8.019	1	learning	LS4	PICTURE_202.jpg	i
1103.484	6.166	1	learning	LS4	PICTURE_358.jpg	c
1109.650	7.838	1	learning	LS4	PICTURE_165.jpg	i
1117.488	6.472	1	learning	LS4	PICTURE_453.jpg	c
1123.960	6.386	1	learning	LS4	PICTURE_148.jpg	c
1130.346	6.611	1	learning	LS4	PICTURE_358.jpg	i
1136.957	6.203	1	learning	LS4	PICTURE_202.jpg	c
1143.160	7.235	1	learning	LS4	PICTURE_165.jpg	c
1150.395	6.834	1	learning	LS4	PICTURE_453.jpg	i
1157.229	7.547	1	learning	LS4	PICTURE_148.jpg	i
1164.776	10.516	0	learning	LS1	PICTURE_659.jpg	c
1175.292	9.315	0	learning	LS1	PICTURE_654.jpg	i
1184.607	17.072	1	learning	LS1	PICTURE_212.jpg	c
1201.679	11.047	0	learning	LS1	PICTURE_26.jpg	i
1212.726	n/a	n/a	learning	LS1	PICTURE_38.jpg	c
1237.726	15.477	1	learning	LS1	PICTURE_212.jpg	i
1253.203	11.217	0	learning	LS1	PICTURE_659.jpg	i
1264.420	9.358	1	learning	LS1	PICTURE_38.jpg	i
1273.778	10.704	1	learning	LS1	PICTURE_654.jpg	c
1284.482	13.169	1	learning	LS1	PICTURE_26.jpg	c
1297.651	13.982	1	learning	LS2	PICTURE_654.jpg	i
1311.633	8.938	1	learning	LS2	PICTURE_26.jpg	i
1320.571	8.212	1	learning	LS2	PICTURE_212.jpg	c
1328.783	7.485	1	learning	LS2	PICTURE_659.jpg	c
1336.268	7.558	1	learning	LS2	PICTURE_654.jpg	c
1343.826	5.078	1	learning	LS2	PICTURE_38.jpg	c
1348.904	8.669	1	learning	LS2	PICTURE_659.jpg	i
1357.573	8.583	1	learning	LS2	PICTURE_38.jpg	i
1366.156	6.743	0	learning	LS2	PICTURE_212.jpg	i
1372.899	11.301	1	learning	LS2	PICTURE_26.jpg	c
1384.200	9.881	1	learning	LS3	PICTURE_654.jpg	i
1394.081	7.881	1	learning	LS3	PICTURE_212.jpg	c
1401.962	6.842	1	learning	LS3	PICTURE_659.jpg	i
1408.804	6.122	1	learning	LS3	PICTURE_38.jpg	i
1414.926	7.154	1	learning	LS3	PICTURE_212.jpg	i
1422.080	5.948	1	learning	LS3	PICTURE_26.jpg	i
1428.028	7.767	1	learning	LS3	PICTURE_659.jpg	c
1435.795	5.107	1	learning	LS3	PICTURE_26.jpg	c
1440.902	7.247	1	learning	LS3	PICTURE_654.jpg	c
1448.149	6.506	1	learning	LS3	PICTURE_38.jpg	c
1454.655	6.831	1	learning	LS4	PICTURE_212.jpg	c
1461.486	5.618	1	learning	LS4	PICTURE_654.jpg	c
1467.104	6.970	1	learning	LS4	PICTURE_26.jpg	i
1474.074	7.683	1	learning	LS4	PICTURE_659.jpg	i
1481.757	7.436	1	learning	LS4	PICTURE_212.jpg	i
1489.193	7.188	1	learning	LS4	PICTURE_659.jpg	c
1496.381	6.142	1	learning	LS4	PICTURE_38.jpg	i
1502.523	7.814	1	learning	LS4	PICTURE_26.jpg	c
1510.337	7.408	1	learning	LS4	PICTURE_38.jpg	c
1517.745	7.008	1	learning	LS4	PICTURE_654.jpg	i
1524.753	9.978	0	learning	LS1	PICTURE_74.jpg	i
1534.731	11.330	1	learning	LS1	PICTURE_71.jpg	c
1546.061	12.529	1	learning	LS1	PICTURE_68.jpg	c
1558.590	18.046	0	learning	LS1	PICTURE_67.jpg	i
1576.636	7.863	1	learning	LS1	PICTURE_74.jpg	c
1584.499	11.600	1	learning	LS1	PICTURE_71.jpg	i
1596.099	7.181	0	learning	LS1	PICTURE_72.jpg	c
1603.280	12.997	1	learning	LS1	PICTURE_68.jpg	i
1616.277	9.538	1	learning	LS1	PICTURE_72.jpg	i
1625.815	9.605	1	learning	LS1	PICTURE_67.jpg	c
1635.420	9.452	1	learning	LS2	PICTURE_67.jpg	c
1644.872	8.877	1	learning	LS2	PICTURE_72.jpg	i
1653.749	7.351	1	learning	LS2	PICTURE_71.jpg	c
1661.100	5.505	1	learning	LS2	PICTURE_68.jpg	c
1666.605	7.657	1	learning	LS2	PICTURE_71.jpg	i
1674.262	8.530	1	learning	LS2	PICTURE_67.jpg	i
1682.792	7.164	1	learning	LS2	PICTURE_72.jpg	c
1689.956	7.243	1	learning	LS2	PICTURE_74.jpg	i
1697.199	8.921	1	learning	LS2	PICTURE_68.jpg	i
1706.120	7.082	1	learning	LS2	PICTURE_74.jpg	c
1713.202	7.421	1	learning	LS3	PICTURE_67.jpg	c
1720.623	6.381	1	learning	LS3	PICTURE_71.jpg	c
1727.004	7.101	1	learning	LS3	PICTURE_67.jpg	i
1734.105	6.055	1	learning	LS3	PICTURE_72.jpg	c
1740.160	6.774	1	learning	LS3	PICTURE_68.jpg	i
1746.934	7.173	1	learning	LS3	PICTURE_74.jpg	c
1754.107	7.086	1	learning	LS3	PICTURE_71.jpg	i
1761.193	6.666	1	learning	LS3	PICTURE_74.jpg	i
1767.859	6.567	1	learning	LS3	PICTURE_72.jpg	i
1774.426	6.787	1	learning	LS3	PICTURE_68.jpg	c
1781.213	7.578	0	learning	LS4	PICTURE_67.jpg	c
1788.791	7.163	1	learning	LS4	PICTURE_71.jpg	i
1795.954	6.270	1	learning	LS4	PICTURE_72.jpg	c
1802.224	6.663	1	learning	LS4	PICTURE_74.jpg	i
1808.887	7.694	1	learning	LS4	PICTURE_68.jpg	i
1816.581	7.287	1	learning	LS4	PICTURE_71.jpg	c
1823.868	6.720	1	learning	LS4	PICTURE_72.jpg	i
1830.588	6.952	1	learning	LS4	PICTURE_67.jpg	i
1837.540	7.025	1	learning	LS4	PICTURE_74.jpg	c
1844.565	5.985	1	learning	LS4	PICTURE_68.jpg	c
1850.550	12.955	1	learning	LS1	PICTURE_566.jpg	c
1863.505	8.390	1	learning	LS1	PICTURE_224.jpg	c
1871.895	11.662	0	learning	LS1	PICTURE_203.jpg	c
1883.557	13.500	0	learning	LS1	PICTURE_42.jpg	i
1897.057	11.820	0	learning	LS1	PICTURE_414.jpg	i
1908.877	9.474	1	learning	LS1	PICTURE_203.jpg	i
1918.351	17.529	1	learning	LS1	PICTURE_566.jpg	i
1935.880	11.192	1	learning	LS1	PICTURE_414.jpg	c
1947.072	10.772	1	learning	LS1	PICTURE_42.jpg	c
1957.844	11.631	0	learning	LS1	PICTURE_224.jpg	i
1969.475	8.597	1	learning	LS2	PICTURE_224.jpg	c
1978.072	6.425	1	learning	LS2	PICTURE_42.jpg	c
1984.497	8.097	1	learning	LS2	PICTURE_566.jpg	i
1992.594	8.489	1	learning	LS2	PICTURE_224.jpg	i
2001.083	11.761	1	learning	LS2	PICTURE_203.jpg	i
2012.844	7.670	1	learning	LS2	PICTURE_414.jpg	c
2020.514	7.743	1	learning	LS2	PICTURE_42.jpg	i
2028.257	7.497	1	learning	LS2	PICTURE_203.jpg	c
2035.754	8.057	1	learning	LS2	PICTURE_414.jpg	i
2043.811	7.177	1	learning	LS2	PICTURE_566.jpg	c
2050.988	8.949	1	learning	LS3	PICTURE_414.jpg	i
2059.937	7.269	1	learning	LS3	PICTURE_203.jpg	c
2067.206	7.189	1	learning	LS3	PICTURE_224.jpg	c
2074.395	7.103	1	learning	LS3	PICTURE_42.jpg	c
2081.498	5.902	1	learning	LS3	PICTURE_414.jpg	c
2087.400	7.575	1	learning	LS3	PICTURE_42.jpg	i
2094.975	6.374	1	learning	LS3	PICTURE_566.jpg	c
2101.349	6.607	1	learning	LS3	PICTURE_224.jpg	i
2107.956	7.307	1	learning	LS3	PICTURE_203.jpg	i
2115.263	8.965	1	learning	LS3	PICTURE_566.jpg	i
2124.228	8.797	1	learning	LS4	PICTURE_42.jpg	i
2133.025	6.777	1	learning	LS4	PICTURE_414.jpg	c
2139.802	7.163	1	learning	LS4	PICTURE_566.jpg	i
2146.965	6.270	1	learning	LS4	PICTURE_224.jpg	c
2153.235	7.143	1	learning	LS4	PICTURE_203.jpg	i
2160.378	8.015	1	learning	LS4	PICTURE_224.jpg	i
2168.393	6.968	1	learning	LS4	PICTURE_566.jpg	c
2175.361	7.682	1	learning	LS4	PICTURE_414.jpg	i
2183.043	8.074	1	learning	LS4	PICTURE_203.jpg	c
2191.117	9.266	1	learning	LS4	PICTURE_42.jpg	c
2200.383	8.717	1	control	LS1	PICTURE_255.jpg	i
2209.100	7.356	1	control	LS1	PICTURE_338.jpg	i
2216.456	8.716	1	control	LS1	PICTURE_368.jpg	i
2225.172	8.316	1	control	LS1	PICTURE_398.jpg	i
2233.488	8.390	1	control	LS1	PICTURE_391.jpg	i
2241.878	9.269	1	control	LS1	PICTURE_398.jpg	c
2251.147	5.824	1	control	LS1	PICTURE_391.jpg	c
2256.971	6.203	1	control	LS1	PICTURE_255.jpg	c
2263.174	6.744	1	control	LS1	PICTURE_338.jpg	c
2269.918	6.804	1	control	LS1	PICTURE_368.jpg	c
2276.722	7.278	1	control	LS2	PICTURE_338.jpg	i
2284.000	6.065	1	control	LS2	PICTURE_368.jpg	c
2290.065	6.451	1	control	LS2	PICTURE_391.jpg	c
2296.516	7.804	1	control	LS2	PICTURE_338.jpg	c
2304.320	6.596	1	control	LS2	PICTURE_368.jpg	i
2310.916	8.428	1	control	LS2	PICTURE_391.jpg	i
2319.344	10.900	1	control	LS2	PICTURE_398.jpg	i
2330.244	7.135	1	control	LS2	PICTURE_255.jpg	c
2337.379	6.570	1	control	LS2	PICTURE_398.jpg	c
2343.949	7.289	1	control	LS2	PICTURE_255.jpg	i
2351.238	9.381	1	control	LS3	PICTURE_343.jpg	i
2360.619	9.774	1	control	LS3	PICTURE_185.jpg	i
2370.393	9.053	1	control	LS3	PICTURE_708.jpg	c
2379.446	6.575	1	control	LS3	PICTURE_185.jpg	c
2386.021	6.655	1	control	LS3	PICTURE_343.jpg	c
2392.676	7.207	1	control	LS3	PICTURE_551.jpg	i
2399.883	7.921	1	control	LS3	PICTURE_19.jpg	c
2407.804	6.881	1	control	LS3	PICTURE_708.jpg	i
2414.685	7.761	1	control	LS3	PICTURE_19.jpg	i
2422.446	7.174	1	control	LS3	PICTURE_551.jpg	c
2429.620	8.607	1	control	LS4	PICTURE_708.jpg	c
2438.227	6.428	1	control	LS4	PICTURE_551.jpg	c
2444.655	6.328	1	control	LS4	PICTURE_19.jpg	c
2450.983	5.753	1	control	LS4	PICTURE_185.jpg	c
2456.736	6.300	1	control	LS4	PICTURE_19.jpg	i
2463.036	6.534	1	control	LS4	PICTURE_551.jpg	i
2469.570	6.767	1	control	LS4	PICTURE_343.jpg	c
2476.337	6.840	1	control	LS4	PICTURE_185.jpg	i
2483.177	6.753	1	control	LS4	PICTURE_708.jpg	i
2489.930	7.146	1	control	LS4	PICTURE_343.jpg	i
2497.076	11.316	0	learning	LS1	PICTURE_32.jpg	c
2508.392	17.144	1	learning	LS1	PICTURE_77.jpg	i
2525.536	15.778	1	learning	LS1	PICTURE_32.jpg	i
2541.314	11.052	1	learning	LS1	PICTURE_100.jpg	i
2552.366	12.405	1	learning	LS1	PICTURE_77.jpg	c
2564.771	12.158	1	learning	LS1	PICTURE_97.jpg	c
2576.929	8.878	1	learning	LS1	PICTURE_267.jpg	i
2585.807	8.638	1	learning	LS1	PICTURE_97.jpg	i
2594.445	13.516	1	learning	LS1	PICTURE_100.jpg	c
2607.961	9.916	1	learning	LS1	PICTURE_267.jpg	c
2617.877	7.371	1	learning	LS2	PICTURE_267.jpg	i
2625.248	8.541	1	learning	LS2	PICTURE_100.jpg	i
2633.789	10.681	0	learning	LS2	PICTURE_97.jpg	i
2644.470	6.902	1	learning	LS2	PICTURE_32.jpg	c
2651.372	9.519	1	learning	LS2	PICTURE_100.jpg	c
2660.891	11.826	0	learning	LS2	PICTURE_77.jpg	i
2672.717	7.894	1	learning	LS2	PICTURE_267.jpg	c
2680.611	6.841	1	learning	LS2	PICTURE_32.jpg	i
2687.452	8.667	1	learning	LS2	PICTURE_77.jpg	c
2696.119	7.140	1	learning	LS2	PICTURE_97.jpg	c
2703.259	6.993	1	learning	LS3	PICTURE_32.jpg	i
2710.252	7.065	1	learning	LS3	PICTURE_77.jpg	i
2717.317	9.377	1	learning	LS3	PICTURE_267.jpg	i
2726.694	8.011	1	learning	LS3	PICTURE_100.jpg	c
2734.705	7.284	1	learning	LS3	PICTURE_97.jpg	i
2741.989	6.883	1	learning	LS3	PICTURE_32.jpg	c
2748.872	7.116	1	learning	LS3	PICTURE_267.jpg	c
2755.988	6.877	1	learning	LS3	PICTURE_77.jpg	c
2762.865	6.637	1	learning	LS3	PICTURE_97.jpg	c
2769.502	7.196	1	learning	LS3	PICTURE_100.jpg	i
2776.698	6.097	1	learning	LS4	PICTURE_32.jpg	c
2782.795	6.496	1	learning	LS4	PICTURE_77.jpg	c
2789.291	6.095	1	learning	LS4	PICTURE_97.jpg	c
2795.386	6.634	1	learning	LS4	PICTURE_100.jpg	c
2802.020	7.013	1	learning	LS4	PICTURE_267.jpg	i
2809.033	6.912	1	learning	LS4	PICTURE_32.jpg	i
2815.945	8.251	1	learning	LS4	PICTURE_77.jpg	i
2824.196	7.031	1	learning	LS4	PICTURE_97.jpg	i
2831.227	6.937	1	learning	LS4	PICTURE_267.jpg	c
2838.164	7.163	1	learning	LS4	PICTURE_100.jpg	i
