onset	duration	response_time_ms	trial_type	learning_stage	stimulus	response_port
0.0	0.872	871.6	2back	Block1	2back/STIM_000.jpg	99
3.786	0.517	517.2	2back	Block1	2back/STIM_000.jpg	100
7.92	0.602	602.0	2back	Block1	2back/STIM_000.jpg	99
12.163	0.668	667.5	2back	Block1	2back/STIM_001.jpg	100
16.202	0.568	567.9	2back	Block1	2back/STIM_001.jpg	99
19.323	0.565	565.4	2back	Block1	2back/STIM_001.jpg	100
23.862	0.589	588.6	2back	Block1	2back/STIM_002.jpg	99
27.694	0.483	483.0	2back	Block1	2back/STIM_002.jpg	100
31.076	0.903	902.8	2back	Block1	2back/STIM_002.jpg	100
35.628	0.945	945.0	2back	Block1	2back/STIM_003.jpg	100
38.853	0.775	775.1	2back	Block1	2back/STIM_003.jpg	99
43.019	0.892	891.8	2back	Block1	2back/STIM_003.jpg	100
46.977	1.024	1024.0	2back	Block1	2back/STIM_004.jpg	99
50.391	0.813	813.0	2back	Block1	2back/STIM_004.jpg	99
54.812	0.79	789.6	2back	Block1	2back/STIM_004.jpg	99
59.39	0.477	477.0	2back	Block1	2back/STIM_005.jpg	99
63.185	0.934	934.5	2back	Block1	2back/STIM_005.jpg	99
66.962	0.856	856.3	2back	Block1	2back/STIM_005.jpg	100
71.358	0.946	946.5	2back	Block1	2back/STIM_006.jpg	99
75.27	0.668	668.1	2back	Block1	2back/STIM_006.jpg	99
78.11	0.69	690.3	2back	Block1	2back/STIM_006.jpg	99
81.761	0.584	584.1	2back	Block1	2back/STIM_007.jpg	100
84.989	0.963	963.1	2back	Block1	2back/STIM_007.jpg	100
89.092	0.634	634.1	2back	Block1	2back/STIM_007.jpg	99
92.396	0.986	986.5	2back	Block1	2back/STIM_008.jpg	99
96.099	0.594	594.2	2back	Block1	2back/STIM_008.jpg	100
99.268	0.578	578.3	2back	Block1	2back/STIM_008.jpg	100
103.062	0.846	846.2	2back	Block1	2back/STIM_009.jpg	99
106.029	0.828	828.5	2back	Block1	2back/STIM_009.jpg	100
109.063	0.527	527.1	2back	Block1	2back/STIM_009.jpg	99
112.744	0.515	514.8	2back	Block1	2back/STIM_010.jpg	99
116.641	0.935	935.2	2back	Block1	2back/STIM_010.jpg	99
120.688	0.744	744.3	2back	Block1	2back/STIM_010.jpg	99
125.131	0.644	643.5	2back	Block1	2back/STIM_011.jpg	99
128.606	0.432	431.9	2back	Block1	2back/STIM_011.jpg	99
131.328	0.445	445.3	2back	Block1	2back/STIM_011.jpg	100
134.898	0.556	556.5	2back	Block1	2back/STIM_012.jpg	99
138.645	0.674	673.5	2back	Block1	2back/STIM_012.jpg	100
141.739	0.51	510.0	2back	Block1	2back/STIM_012.jpg	100
145.815	0.47	470.3	2back	Block1	2back/STIM_013.jpg	99
149.708	0.797	796.8	2back	Block1	2back/STIM_013.jpg	99
152.918	0.706	705.5	2back	Block1	2back/STIM_013.jpg	100
157.391	0.674	674.4	2back	Block1	2back/STIM_014.jpg	100
160.755	0.852	852.0	2back	Block1	2back/STIM_014.jpg	100
164.08	0.694	694.0	2back	Block1	2back/STIM_014.jpg	99
167.173	0.932	932.3	2back	Block1	2back/STIM_015.jpg	100
172.022	0.48	480.1	2back	Block1	2back/STIM_015.jpg	100
176.326	0.592	591.6	2back	Block1	2back/STIM_015.jpg	99
179.229	1.002	1002.2	2back	Block1	2back/STIM_016.jpg	99
182.551	0.883	883.2	2back	Block1	2back/STIM_016.jpg	99
186.282	0.678	677.8	2back	Block1	2back/STIM_016.jpg	100
189.446	0.657	656.8	2back	Block1	2back/STIM_017.jpg	99
193.401	0.508	507.9	2back	Block1	2back/STIM_017.jpg	99
196.967	0.768	767.9	2back	Block1	2back/STIM_017.jpg	99
200.198	0.582	581.5	2back	Block1	2back/STIM_018.jpg	99
204.045	0.951	951.4	2back	Block1	2back/STIM_018.jpg	99
208.778	0.43	430.5	2back	Block1	2back/STIM_018.jpg	99
211.215	0.956	955.7	2back	Block1	2back/STIM_019.jpg	100
215.924	0.725	725.1	2back	Block1	2back/STIM_019.jpg	100
219.551	0.456	455.5	2back	Block1	2back/STIM_019.jpg	100
222.484	0.938	937.9	2back	Block1	2back/STIM_020.jpg	99
226.305	0.926	925.9	2back	Block1	2back/STIM_020.jpg	100
230.958	0.56	560.3	2back	Block1	2back/STIM_020.jpg	99
233.743	0.556	556.5	2back	Block1	2back/STIM_021.jpg	100
237.824	0.75	750.0	2back	Block1	2back/STIM_021.jpg	100
242.259	0.556	556.0	2back	Block1	2back/STIM_021.jpg	99
246.426	0.843	843.1	2back	Block1	2back/STIM_022.jpg	100
251.075	0.636	636.1	2back	Block1	2back/STIM_022.jpg	100
254.504	0.808	807.7	2back	Block1	2back/STIM_022.jpg	100
259.108	0.725	725.0	2back	Block1	2back/STIM_023.jpg	99
263.005	0.493	493.1	2back	Block1	2back/STIM_023.jpg	100
267.299	0.66	659.7	2back	Block1	2back/STIM_023.jpg	100
270.946	0.977	977.2	2back	Block1	2back/STIM_024.jpg	99
275.725	0.856	856.0	2back	Block1	2back/STIM_024.jpg	99
279.395	0.94	939.8	2back	Block1	2back/STIM_024.jpg	100
284.263	0.563	563.4	2back	Block1	2back/STIM_025.jpg	100
287.508	0.854	853.7	2back	Block1	2back/STIM_025.jpg	100
291.437	0.658	658.5	2back	Block1	2back/STIM_025.jpg	100
296.007	0.534	533.8	2back	Block1	2back/STIM_026.jpg	99
299.598	0.642	641.8	2back	Block1	2back/STIM_026.jpg	100
303.376	0.505	505.0	2back	Block1	2back/STIM_026.jpg	100
306.275	0.554	554.4	2back	Block1	2back/STIM_027.jpg	99
310.293	0.952	951.8	2back	Block1	2back/STIM_027.jpg	99
314.461	0.897	896.6	2back	Block1	2back/STIM_027.jpg	100
319.07	1.023	1022.6	2back	Block1	2back/STIM_028.jpg	99
323.34	0.505	505.4	2back	Block1	2back/STIM_028.jpg	100
327.707	0.59	589.6	2back	Block1	2back/STIM_028.jpg	99
332.259	0.608	608.4	2back	Block1	2back/STIM_029.jpg	100
335.431	0.752	752.5	2back	Block1	2back/STIM_029.jpg	100
339.512	0.928	928.0	2back	Block1	2back/STIM_029.jpg	100
343.267	0.975	975.0	2back	Block1	2back/STIM_030.jpg	99
347.788	0.918	917.7	2back	Block1	2back/STIM_030.jpg	100
351.685	0.898	898.5	2back	Block1	2back/STIM_030.jpg	100
355.063	0.606	605.5	2back	Block1	2back/STIM_031.jpg	100
358.259	0.869	868.9	2back	Block1	2back/STIM_031.jpg	99
361.661	0.739	739.0	2back	Block1	2back/STIM_031.jpg	99
366.387	0.538	537.6	2back	Block1	2back/STIM_032.jpg	99
370.658	0.5	500.2	2back	Block1	2back/STIM_032.jpg	100
374.231	0.551	550.6	2back	Block1	2back/STIM_032.jpg	100
377.207	0.864	863.6	2back	Block1	2back/STIM_033.jpg	100
381.47	0.564	563.9	2back	Block1	2back/STIM_033.jpg	99
385.104	0.773	772.7	2back	Block1	2back/STIM_033.jpg	100
388.568	0.964	964.0	2back	Block1	2back/STIM_034.jpg	100
392.568	0.82	819.9	2back	Block1	2back/STIM_034.jpg	100
397.222	0.854	854.4	2back	Block1	2back/STIM_034.jpg	99
402.022	0.546	545.5	2back	Block1	2back/STIM_035.jpg	100
405.621	0.553	553.2	2back	Block1	2back/STIM_035.jpg	100
409.779	0.777	777.3	2back	Block1	2back/STIM_035.jpg	99
414.454	0.894	893.9	2back	Block1	2back/STIM_036.jpg	100
417.731	0.48	480.3	2back	Block1	2back/STIM_036.jpg	99
420.594	0.806	805.8	2back	Block1	2back/STIM_036.jpg	100
423.402	0.494	494.3	2back	Block1	2back/STIM_037.jpg	100
427.511	0.699	698.8	2back	Block1	2back/STIM_037.jpg	100
431.292	0.751	751.4	2back	Block1	2back/STIM_037.jpg	99
434.344	0.95	949.7	2back	Block1	2back/STIM_038.jpg	100
437.727	0.702	701.9	2back	Block1	2back/STIM_038.jpg	100
441.111	0.456	456.0	2back	Block1	2back/STIM_038.jpg	99
444.342	0.588	587.7	2back	Block1	2back/STIM_039.jpg	100
448.408	0.922	922.0	2back	Block1	2back/STIM_039.jpg	99
452.022	0.755	755.1	2back	Block1	2back/STIM_039.jpg	100
456.702	0.315	314.7	0back	Block1	0back/STIM_000.jpg	99
459.679	0.515	515.4	0back	Block1	0back/STIM_000.jpg	99
463.8	0.514	514.3	0back	Block1	0back/STIM_000.jpg	100
466.656	0.459	459.1	0back	Block1	0back/STIM_001.jpg	99
469.753	0.413	413.4	0back	Block1	0back/STIM_001.jpg	100
474.108	0.455	454.7	0back	Block1	0back/STIM_001.jpg	100
477.511	0.395	395.1	0back	Block1	0back/STIM_002.jpg	99
481.406	0.358	358.2	0back	Block1	0back/STIM_002.jpg	99
483.907	0.545	545.4	0back	Block1	0back/STIM_002.jpg	100
488.173	0.316	316.4	0back	Block1	0back/STIM_003.jpg	100
491.118	0.318	318.5	0back	Block1	0back/STIM_003.jpg	100
494.228	0.424	423.5	0back	Block1	0back/STIM_003.jpg	99
497.249	0.593	593.3	0back	Block1	0back/STIM_004.jpg	100
500.097	0.517	517.0	0back	Block1	0back/STIM_004.jpg	99
503.074	0.35	350.1	0back	Block1	0back/STIM_004.jpg	100
505.425	0.525	524.8	0back	Block1	0back/STIM_005.jpg	100
509.462	0.53	529.8	0back	Block1	0back/STIM_005.jpg	100
512.117	0.327	327.2	0back	Block1	0back/STIM_005.jpg	99
514.958	0.592	592.5	0back	Block1	0back/STIM_006.jpg	100
518.557	0.594	594.4	0back	Block1	0back/STIM_006.jpg	100
521.801	0.385	384.7	0back	Block1	0back/STIM_006.jpg	99
525.045	0.313	313.3	0back	Block1	0back/STIM_007.jpg	99
527.594	0.329	329.1	0back	Block1	0back/STIM_007.jpg	99
531.122	0.522	521.6	0back	Block1	0back/STIM_007.jpg	99
535.084	0.483	482.6	0back	Block1	0back/STIM_008.jpg	100
538.785	0.432	431.7	0back	Block1	0back/STIM_008.jpg	100
542.497	0.536	536.4	0back	Block1	0back/STIM_008.jpg	100
546.09	0.358	358.4	0back	Block1	0back/STIM_009.jpg	100
549.588	0.537	537.2	0back	Block1	0back/STIM_009.jpg	99
553.824	0.306	306.5	0back	Block1	0back/STIM_009.jpg	100
557.241	0.315	315.4	0back	Block1	0back/STIM_010.jpg	100
560.598	0.352	351.9	0back	Block1	0back/STIM_010.jpg	99
564.613	0.387	387.1	0back	Block1	0back/STIM_010.jpg	99
567.972	0.328	327.9	0back	Block1	0back/STIM_011.jpg	99
571.18	0.445	445.2	0back	Block1	0back/STIM_011.jpg	100
573.716	0.533	532.7	0back	Block1	0back/STIM_011.jpg	99
576.512	0.451	450.8	0back	Block1	0back/STIM_012.jpg	99
579.516	0.46	460.4	0back	Block1	0back/STIM_012.jpg	99
582.347	0.524	524.1	0back	Block1	0back/STIM_012.jpg	100
585.967	0.387	386.9	0back	Block1	0back/STIM_013.jpg	100
589.714	0.585	585.2	0back	Block1	0back/STIM_013.jpg	99
592.588	0.407	407.0	0back	Block1	0back/STIM_013.jpg	99
595.893	0.38	380.0	0back	Block1	0back/STIM_014.jpg	100
600.26	0.301	300.8	0back	Block1	0back/STIM_014.jpg	99
604.075	0.363	362.8	0back	Block1	0back/STIM_014.jpg	100
606.757	0.484	483.6	0back	Block1	0back/STIM_015.jpg	100
609.606	0.579	579.2	0back	Block1	0back/STIM_015.jpg	99
613.556	0.423	423.1	0back	Block1	0back/STIM_015.jpg	100
617.255	0.373	373.3	0back	Block1	0back/STIM_016.jpg	100
620.954	0.333	333.0	0back	Block1	0back/STIM_016.jpg	99
624.574	0.509	508.8	0back	Block1	0back/STIM_016.jpg	100
628.93	0.328	327.7	0back	Block1	0back/STIM_017.jpg	100
633.096	0.331	331.0	0back	Block1	0back/STIM_017.jpg	99
636.584	0.357	357.2	0back	Block1	0back/STIM_017.jpg	100
640.235	0.38	379.6	0back	Block1	0back/STIM_018.jpg	100
642.869	0.347	346.6	0back	Block1	0back/STIM_018.jpg	100
645.832	0.559	558.6	0back	Block1	0back/STIM_018.jpg	100
649.081	0.404	404.5	0back	Block1	0back/STIM_019.jpg	100
652.089	0.403	402.7	0back	Block1	0back/STIM_019.jpg	100
655.576	0.491	491.4	0back	Block1	0back/STIM_019.jpg	99
658.445	0.718	717.8	2back	Block2	2back/STIM_000.jpg	100
662.025	0.392	392.2	2back	Block2	2back/STIM_000.jpg	99
665.762	0.385	384.9	2back	Block2	2back/STIM_000.jpg	99
668.425	0.558	557.6	2back	Block2	2back/STIM_001.jpg	99
671.149	0.702	702.2	2back	Block2	2back/STIM_001.jpg	100
675.472	0.357	357.4	2back	Block2	2back/STIM_001.jpg	99
678.668	0.394	393.6	2back	Block2	2back/STIM_002.jpg	100
681.202	0.63	630.4	2back	Block2	2back/STIM_002.jpg	100
684.465	0.73	730.2	2back	Block2	2back/STIM_002.jpg	100
689.047	0.725	724.9	2back	Block2	2back/STIM_003.jpg	100
693.427	0.544	543.6	2back	Block2	2back/STIM_003.jpg	100
696.028	0.57	570.2	2back	Block2	2back/STIM_003.jpg	99
699.712	0.669	669.2	2back	Block2	2back/STIM_004.jpg	99
702.531	0.795	795.0	2back	Block2	2back/STIM_004.jpg	100
706.008	0.671	670.7	2back	Block2	2back/STIM_004.jpg	99
709.031	0.725	724.6	2back	Block2	2back/STIM_005.jpg	99
713.153	0.563	562.7	2back	Block2	2back/STIM_005.jpg	99
717.062	0.732	731.9	2back	Block2	2back/STIM_005.jpg	100
721.015	0.844	844.0	2back	Block2	2back/STIM_006.jpg	100
725.148	0.588	588.2	2back	Block2	2back/STIM_006.jpg	100
729.525	0.349	348.6	2back	Block2	2back/STIM_006.jpg	99
733.579	0.586	585.8	2back	Block2	2back/STIM_007.jpg	99
737.498	0.578	577.6	2back	Block2	2back/STIM_007.jpg	99
740.739	0.783	782.6	2back	Block2	2back/STIM_007.jpg	100
744.582	0.447	446.8	2back	Block2	2back/STIM_008.jpg	99
747.063	0.365	364.6	2back	Block2	2back/STIM_008.jpg	99
750.076	0.594	593.5	2back	Block2	2back/STIM_008.jpg	100
752.732	0.749	749.1	2back	Block2	2back/STIM_009.jpg	99
755.572	0.75	750.2	2back	Block2	2back/STIM_009.jpg	100
760.199	0.554	554.1	2back	Block2	2back/STIM_009.jpg	100
763.0	0.812	811.7	2back	Block2	2back/STIM_010.jpg	99
765.814	0.829	828.9	2back	Block2	2back/STIM_010.jpg	99
770.111	0.743	742.6	2back	Block2	2back/STIM_010.jpg	99
772.955	0.653	652.7	2back	Block2	2back/STIM_011.jpg	100
775.728	0.389	389.4	2back	Block2	2back/STIM_011.jpg	100
780.018	0.448	447.6	2back	Block2	2back/STIM_011.jpg	100
784.321	0.618	618.5	2back	Block2	2back/STIM_012.jpg	100
786.97	0.739	738.6	2back	Block2	2back/STIM_012.jpg	99
791.14	0.456	456.3	2back	Block2	2back/STIM_012.jpg	99
793.949	0.871	870.9	2back	Block2	2back/STIM_013.jpg	99
797.036	0.721	720.6	2back	Block2	2back/STIM_013.jpg	99
800.725	0.666	665.7	2back	Block2	2back/STIM_013.jpg	99
804.68	0.418	418.3	2back	Block2	2back/STIM_014.jpg	100
807.273	0.706	706.3	2back	Block2	2back/STIM_014.jpg	100
811.568	0.485	485.2	2back	Block2	2back/STIM_014.jpg	100
815.447	0.616	616.3	2back	Block2	2back/STIM_015.jpg	100
820.012	0.509	508.9	2back	Block2	2back/STIM_015.jpg	100
824.245	0.64	639.8	2back	Block2	2back/STIM_015.jpg	99
826.955	0.742	742.3	2back	Block2	2back/STIM_016.jpg	100
830.42	0.388	387.9	2back	Block2	2back/STIM_016.jpg	100
834.024	0.627	627.3	2back	Block2	2back/STIM_016.jpg	100
838.37	0.878	877.9	2back	Block2	2back/STIM_017.jpg	100
842.677	0.763	762.6	2back	Block2	2back/STIM_017.jpg	99
846.524	0.499	498.6	2back	Block2	2back/STIM_017.jpg	100
850.576	0.434	433.8	2back	Block2	2back/STIM_018.jpg	100
854.865	0.402	402.1	2back	Block2	2back/STIM_018.jpg	100
859.167	0.42	419.8	2back	Block2	2back/STIM_018.jpg	100
862.298	0.847	847.4	2back	Block2	2back/STIM_019.jpg	100
865.316	0.646	645.7	2back	Block2	2back/STIM_019.jpg	99
868.925	0.502	501.8	2back	Block2	2back/STIM_019.jpg	100
873.313	0.654	654.5	2back	Block2	2back/STIM_020.jpg	99
876.387	0.362	362.2	2back	Block2	2back/STIM_020.jpg	100
880.431	0.384	383.5	2back	Block2	2back/STIM_020.jpg	100
883.165	0.647	646.7	2back	Block2	2back/STIM_021.jpg	100
886.573	0.83	830.4	2back	Block2	2back/STIM_021.jpg	100
891.273	0.523	522.9	2back	Block2	2back/STIM_021.jpg	100
894.501	0.478	477.9	2back	Block2	2back/STIM_022.jpg	100
897.289	0.792	792.3	2back	Block2	2back/STIM_022.jpg	99
900.281	0.69	689.8	2back	Block2	2back/STIM_022.jpg	99
904.942	0.842	841.7	2back	Block2	2back/STIM_023.jpg	99
908.136	0.375	375.0	2back	Block2	2back/STIM_023.jpg	99
911.84	0.592	591.5	2back	Block2	2back/STIM_023.jpg	99
914.442	0.588	587.8	2back	Block2	2back/STIM_024.jpg	100
918.606	0.839	839.2	2back	Block2	2back/STIM_024.jpg	100
921.628	0.414	414.3	2back	Block2	2back/STIM_024.jpg	100
924.355	0.726	726.4	2back	Block2	2back/STIM_025.jpg	100
927.844	0.706	705.5	2back	Block2	2back/STIM_025.jpg	100
931.118	0.462	461.8	2back	Block2	2back/STIM_025.jpg	100
933.964	0.627	626.7	2back	Block2	2back/STIM_026.jpg	100
937.349	0.767	766.6	2back	Block2	2back/STIM_026.jpg	99
941.682	0.36	360.0	2back	Block2	2back/STIM_026.jpg	100
945.911	0.472	471.5	2back	Block2	2back/STIM_027.jpg	100
949.535	0.441	440.6	2back	Block2	2back/STIM_027.jpg	99
953.69	0.688	687.6	2back	Block2	2back/STIM_027.jpg	99
957.202	0.82	819.8	2back	Block2	2back/STIM_028.jpg	100
960.578	0.565	565.2	2back	Block2	2back/STIM_028.jpg	99
963.685	0.46	460.1	2back	Block2	2back/STIM_028.jpg	99
966.588	0.712	712.2	2back	Block2	2back/STIM_029.jpg	99
971.107	0.832	832.1	2back	Block2	2back/STIM_029.jpg	99
975.098	0.449	449.1	2back	Block2	2back/STIM_029.jpg	100
978.726	0.463	463.4	2back	Block2	2back/STIM_030.jpg	100
981.982	0.505	505.0	2back	Block2	2back/STIM_030.jpg	99
984.684	0.425	424.6	2back	Block2	2back/STIM_030.jpg	99
987.632	0.844	843.6	2back	Block2	2back/STIM_031.jpg	99
991.736	0.416	415.6	2back	Block2	2back/STIM_031.jpg	100
995.105	0.63	630.0	2back	Block2	2back/STIM_031.jpg	100
999.145	0.769	768.7	2back	Block2	2back/STIM_032.jpg	100
1002.001	0.791	791.0	2back	Block2	2back/STIM_032.jpg	100
1004.883	0.644	643.6	2back	Block2	2back/STIM_032.jpg	99
1007.724	0.506	506.5	2back	Block2	2back/STIM_033.jpg	100
1012.187	0.369	368.6	2back	Block2	2back/STIM_033.jpg	99
1014.632	0.672	672.0	2back	Block2	2back/STIM_033.jpg	100
1018.008	0.58	579.6	2back	Block2	2back/STIM_034.jpg	100
1020.612	0.611	610.6	2back	Block2	2back/STIM_034.jpg	100
1025.094	0.415	415.2	2back	Block2	2back/STIM_034.jpg	100
1027.889	0.678	677.5	2back	Block2	2back/STIM_035.jpg	100
1031.285	0.779	779.3	2back	Block2	2back/STIM_035.jpg	99
1034.117	0.373	373.4	2back	Block2	2back/STIM_035.jpg	100
1037.489	0.843	842.9	2back	Block2	2back/STIM_036.jpg	99
1040.463	0.734	734.4	2back	Block2	2back/STIM_036.jpg	99
1043.247	0.418	417.7	2back	Block2	2back/STIM_036.jpg	99
1047.315	0.493	493.0	2back	Block2	2back/STIM_037.jpg	100
1051.106	0.603	603.1	2back	Block2	2back/STIM_037.jpg	99
1054.289	0.769	769.4	2back	Block2	2back/STIM_037.jpg	100
1057.09	0.827	827.2	2back	Block2	2back/STIM_038.jpg	100
1061.424	0.437	436.8	2back	Block2	2back/STIM_038.jpg	100
1065.034	0.529	528.7	2back	Block2	2back/STIM_038.jpg	99
1068.847	0.391	391.1	2back	Block2	2back/STIM_039.jpg	100
1072.012	0.792	791.9	2back	Block2	2back/STIM_039.jpg	100
1076.528	0.633	633.4	2back	Block2	2back/STIM_039.jpg	100
1080.818	0.365	365.4	0back	Block2	0back/STIM_000.jpg	99
1083.667	0.525	524.8	0back	Block2	0back/STIM_000.jpg	100
1087.718	0.358	358.1	0back	Block2	0back/STIM_000.jpg	99
1091.462	0.431	431.4	0back	Block2	0back/STIM_001.jpg	100
1095.413	0.563	563.4	0back	Block2	0back/STIM_001.jpg	99
1099.378	0.416	415.7	0back	Block2	0back/STIM_001.jpg	100
1102.695	0.396	396.5	0back	Block2	0back/STIM_002.jpg	99
1106.208	0.406	406.5	0back	Block2	0back/STIM_002.jpg	100
1109.354	0.521	521.3	0back	Block2	0back/STIM_002.jpg	100
1113.139	0.352	351.9	0back	Block2	0back/STIM_003.jpg	99
1116.771	0.502	502.5	0back	Block2	0back/STIM_003.jpg	99
1120.08	0.555	554.6	0back	Block2	0back/STIM_003.jpg	99
1122.986	0.535	535.3	0back	Block2	0back/STIM_004.jpg	99
1126.229	0.375	375.4	0back	Block2	0back/STIM_004.jpg	99
1129.051	0.359	358.7	0back	Block2	0back/STIM_004.jpg	99
1133.044	0.375	374.7	0back	Block2	0back/STIM_005.jpg	100
1135.571	0.362	362.5	0back	Block2	0back/STIM_005.jpg	99
1138.887	0.495	494.9	0back	Block2	0back/STIM_005.jpg	99
1142.311	0.462	462.2	0back	Block2	0back/STIM_006.jpg	99
1146.28	0.444	444.3	0back	Block2	0back/STIM_006.jpg	100
1149.941	0.482	482.0	0back	Block2	0back/STIM_006.jpg	100
1153.59	0.485	485.1	0back	Block2	0back/STIM_007.jpg	99
1157.467	0.52	519.7	0back	Block2	0back/STIM_007.jpg	99
1161.193	0.523	522.8	0back	Block2	0back/STIM_007.jpg	99
1163.992	0.474	473.7	0back	Block2	0back/STIM_008.jpg	99
1167.05	0.479	479.0	0back	Block2	0back/STIM_008.jpg	100
1169.865	0.548	548.2	0back	Block2	0back/STIM_008.jpg	99
1173.233	0.318	317.9	0back	Block2	0back/STIM_009.jpg	99
1177.136	0.372	371.6	0back	Block2	0back/STIM_009.jpg	100
1181.124	0.43	429.7	0back	Block2	0back/STIM_009.jpg	99
1184.691	0.305	304.9	0back	Block2	0back/STIM_010.jpg	99
1188.564	0.349	348.9	0back	Block2	0back/STIM_010.jpg	100
1192.755	0.377	377.4	0back	Block2	0back/STIM_010.jpg	99
1195.326	0.395	395.1	0back	Block2	0back/STIM_011.jpg	100
1198.031	0.39	390.1	0back	Block2	0back/STIM_011.jpg	100
1201.14	0.343	343.1	0back	Block2	0back/STIM_011.jpg	100
1204.474	0.547	547.1	0back	Block2	0back/STIM_012.jpg	99
1207.74	0.522	521.6	0back	Block2	0back/STIM_012.jpg	100
1211.242	0.428	428.0	0back	Block2	0back/STIM_012.jpg	99
1214.156	0.509	508.6	0back	Block2	0back/STIM_013.jpg	100
1217.023	0.361	361.0	0back	Block2	0back/STIM_013.jpg	99
1220.694	0.366	366.2	0back	Block2	0back/STIM_013.jpg	100
1224.281	0.563	562.6	0back	Block2	0back/STIM_014.jpg	99
1227.835	0.352	352.0	0back	Block2	0back/STIM_014.jpg	99
1230.38	0.375	374.6	0back	Block2	0back/STIM_014.jpg	100
1234.607	0.345	345.3	0back	Block2	0back/STIM_015.jpg	99
1237.678	0.308	308.2	0back	Block2	0back/STIM_015.jpg	100
1241.318	0.514	513.5	0back	Block2	0back/STIM_015.jpg	99
1245.658	0.4	400.0	0back	Block2	0back/STIM_016.jpg	99
1248.523	0.421	420.6	0back	Block2	0back/STIM_016.jpg	100
1252.436	0.507	506.6	0back	Block2	0back/STIM_016.jpg	100
1255.021	0.564	563.8	0back	Block2	0back/STIM_017.jpg	100
1258.753	0.421	420.9	0back	Block2	0back/STIM_017.jpg	100
1262.109	0.411	410.8	0back	Block2	0back/STIM_017.jpg	99
1264.735	0.44	439.8	0back	Block2	0back/STIM_018.jpg	99
1269.06	0.563	562.9	0back	Block2	0back/STIM_018.jpg	100
1273.524	0.585	584.9	0back	Block2	0back/STIM_018.jpg	100
1276.41	0.331	331.4	0back	Block2	0back/STIM_019.jpg	100
1280.044	0.315	314.7	0back	Block2	0back/STIM_019.jpg	100
1283.208	0.363	363.1	0back	Block2	0back/STIM_019.jpg	100
1286.905	0.34	339.8	2back	Block3	2back/STIM_000.jpg	99
1290.749	0.468	467.6	2back	Block3	2back/STIM_000.jpg	100
1294.667	0.432	431.9	2back	Block3	2back/STIM_000.jpg	100
1297.866	0.44	439.6	2back	Block3	2back/STIM_001.jpg	99
1300.954	0.317	316.7	2back	Block3	2back/STIM_001.jpg	99
1304.717	0.555	555.2	2back	Block3	2back/STIM_001.jpg	99
1307.644	0.501	501.2	2back	Block3	2back/STIM_002.jpg	99
1311.667	0.5	499.9	2back	Block3	2back/STIM_002.jpg	100
1315.73	0.701	700.8	2back	Block3	2back/STIM_002.jpg	99
1318.54	0.323	323.1	2back	Block3	2back/STIM_003.jpg	100
1322.388	0.492	491.7	2back	Block3	2back/STIM_003.jpg	99
1326.327	0.651	650.6	2back	Block3	2back/STIM_003.jpg	99
1330.957	0.504	504.3	2back	Block3	2back/STIM_004.jpg	100
1333.939	0.586	586.2	2back	Block3	2back/STIM_004.jpg	100
1337.512	0.639	639.0	2back	Block3	2back/STIM_004.jpg	99
1341.537	0.479	478.9	2back	Block3	2back/STIM_005.jpg	99
1345.206	0.442	442.3	2back	Block3	2back/STIM_005.jpg	100
1349.009	0.382	381.8	2back	Block3	2back/STIM_005.jpg	100
1352.392	0.621	621.1	2back	Block3	2back/STIM_006.jpg	100
1355.291	0.632	631.5	2back	Block3	2back/STIM_006.jpg	100
1359.838	0.722	722.4	2back	Block3	2back/STIM_006.jpg	100
1363.173	0.412	411.8	2back	Block3	2back/STIM_007.jpg	99
1366.438	0.357	357.0	2back	Block3	2back/STIM_007.jpg	100
1369.143	0.644	644.0	2back	Block3	2back/STIM_007.jpg	99
1372.975	0.565	565.2	2back	Block3	2back/STIM_008.jpg	99
1376.669	0.467	467.3	2back	Block3	2back/STIM_008.jpg	99
1380.465	0.488	487.5	2back	Block3	2back/STIM_008.jpg	100
1383.234	0.432	432.4	2back	Block3	2back/STIM_009.jpg	100
1386.836	0.434	433.5	2back	Block3	2back/STIM_009.jpg	100
1389.758	0.55	550.3	2back	Block3	2back/STIM_009.jpg	99
1393.803	0.412	411.9	2back	Block3	2back/STIM_010.jpg	100
1397.316	0.588	588.1	2back	Block3	2back/STIM_010.jpg	100
1401.218	0.51	509.7	2back	Block3	2back/STIM_010.jpg	100
1404.338	0.697	697.4	2back	Block3	2back/STIM_011.jpg	99
1408.168	0.531	530.8	2back	Block3	2back/STIM_011.jpg	99
1410.709	0.685	685.2	2back	Block3	2back/STIM_011.jpg	100
1414.328	0.451	451.1	2back	Block3	2back/STIM_012.jpg	100
1417.113	0.636	636.4	2back	Block3	2back/STIM_012.jpg	100
1420.007	0.467	467.0	2back	Block3	2back/STIM_012.jpg	99
1422.853	0.56	560.3	2back	Block3	2back/STIM_013.jpg	99
1427.411	0.325	325.3	2back	Block3	2back/STIM_013.jpg	100
1430.428	0.712	711.7	2back	Block3	2back/STIM_013.jpg	99
1434.857	0.437	437.0	2back	Block3	2back/STIM_014.jpg	99
1438.657	0.471	470.7	2back	Block3	2back/STIM_014.jpg	99
1441.692	0.425	425.0	2back	Block3	2back/STIM_014.jpg	99
1445.86	0.384	384.1	2back	Block3	2back/STIM_015.jpg	100
1449.986	0.492	491.6	2back	Block3	2back/STIM_015.jpg	99
1452.616	0.562	562.4	2back	Block3	2back/STIM_015.jpg	99
1455.752	0.501	500.8	2back	Block3	2back/STIM_016.jpg	100
1459.751	0.479	478.6	2back	Block3	2back/STIM_016.jpg	100
1462.706	0.377	376.8	2back	Block3	2back/STIM_016.jpg	100
1465.373	0.567	567.2	2back	Block3	2back/STIM_017.jpg	100
1468.023	0.386	386.5	2back	Block3	2back/STIM_017.jpg	99
1470.696	0.327	326.6	2back	Block3	2back/STIM_017.jpg	99
1473.466	0.436	436.4	2back	Block3	2back/STIM_018.jpg	99
1476.662	0.566	565.9	2back	Block3	2back/STIM_018.jpg	99
1480.119	0.688	688.5	2back	Block3	2back/STIM_018.jpg	99
1483.834	0.365	364.9	2back	Block3	2back/STIM_019.jpg	99
1486.365	0.667	667.1	2back	Block3	2back/STIM_019.jpg	100
1489.385	0.705	705.1	2back	Block3	2back/STIM_019.jpg	99
1493.528	0.331	330.8	2back	Block3	2back/STIM_020.jpg	100
1497.279	0.369	368.8	2back	Block3	2back/STIM_020.jpg	100
1500.195	0.493	493.1	2back	Block3	2back/STIM_020.jpg	99
1503.77	0.351	351.0	2back	Block3	2back/STIM_021.jpg	99
1506.292	0.673	672.6	2back	Block3	2back/STIM_021.jpg	99
1510.656	0.488	488.2	2back	Block3	2back/STIM_021.jpg	100
1513.94	0.72	719.9	2back	Block3	2back/STIM_022.jpg	99
1518.517	0.44	439.5	2back	Block3	2back/STIM_022.jpg	99
1521.695	0.359	358.8	2back	Block3	2back/STIM_022.jpg	99
1524.345	0.628	627.7	2back	Block3	2back/STIM_023.jpg	100
1527.525	0.481	480.6	2back	Block3	2back/STIM_023.jpg	100
1531.747	0.495	494.8	2back	Block3	2back/STIM_023.jpg	100
1534.556	0.729	728.7	2back	Block3	2back/STIM_024.jpg	100
1538.005	0.598	598.2	2back	Block3	2back/STIM_024.jpg	100
1540.605	0.604	604.0	2back	Block3	2back/STIM_024.jpg	99
1545.154	0.468	467.5	2back	Block3	2back/STIM_025.jpg	100
1548.483	0.621	621.3	2back	Block3	2back/STIM_025.jpg	99
1551.145	0.493	493.1	2back	Block3	2back/STIM_025.jpg	100
1555.052	0.725	724.7	2back	Block3	2back/STIM_026.jpg	100
1558.429	0.508	507.6	2back	Block3	2back/STIM_026.jpg	99
1561.738	0.494	494.3	2back	Block3	2back/STIM_026.jpg	99
1566.178	0.653	653.3	2back	Block3	2back/STIM_027.jpg	99
1569.852	0.332	331.7	2back	Block3	2back/STIM_027.jpg	99
1573.09	0.353	353.0	2back	Block3	2back/STIM_027.jpg	99
1576.457	0.414	414.5	2back	Block3	2back/STIM_028.jpg	100
1579.417	0.6	599.9	2back	Block3	2back/STIM_028.jpg	99
1582.476	0.387	387.2	2back	Block3	2back/STIM_028.jpg	100
1586.635	0.418	418.3	2back	Block3	2back/STIM_029.jpg	100
1590.191	0.424	424.4	2back	Block3	2back/STIM_029.jpg	100
1593.603	0.408	407.9	2back	Block3	2back/STIM_029.jpg	100
1596.34	0.455	454.8	2back	Block3	2back/STIM_030.jpg	100
1600.485	0.548	547.9	2back	Block3	2back/STIM_030.jpg	100
1603.116	0.6	599.5	2back	Block3	2back/STIM_030.jpg	99
1606.208	0.584	584.2	2back	Block3	2back/STIM_031.jpg	99
1609.328	0.434	434.5	2back	Block3	2back/STIM_031.jpg	99
1612.162	0.658	658.2	2back	Block3	2back/STIM_031.jpg	99
1616.422	0.466	465.7	2back	Block3	2back/STIM_032.jpg	100
1619.54	0.659	659.0	2back	Block3	2back/STIM_032.jpg	99
1622.299	0.393	392.6	2back	Block3	2back/STIM_032.jpg	100
1626.29	0.476	476.5	2back	Block3	2back/STIM_033.jpg	99
1629.367	0.53	529.8	2back	Block3	2back/STIM_033.jpg	100
1632.521	0.679	679.1	2back	Block3	2back/STIM_033.jpg	100
1635.659	0.691	691.1	2back	Block3	2back/STIM_034.jpg	100
1640.061	0.484	484.1	2back	Block3	2back/STIM_034.jpg	99
1642.627	0.685	685.1	2back	Block3	2back/STIM_034.jpg	100
1645.43	0.562	562.2	2back	Block3	2back/STIM_035.jpg	99
1649.766	0.658	658.3	2back	Block3	2back/STIM_035.jpg	100
1653.787	0.597	596.7	2back	Block3	2back/STIM_035.jpg	99
1658.09	0.329	328.6	2back	Block3	2back/STIM_036.jpg	100
1661.326	0.513	512.8	2back	Block3	2back/STIM_036.jpg	100
1665.728	0.66	660.5	2back	Block3	2back/STIM_036.jpg	100
1669.714	0.354	354.2	2back	Block3	2back/STIM_037.jpg	100
1673.155	0.317	317.4	2back	Block3	2back/STIM_037.jpg	99
1676.527	0.466	465.6	2back	Block3	2back/STIM_037.jpg	99
1679.889	0.404	403.9	2back	Block3	2back/STIM_038.jpg	99
1683.718	0.69	689.7	2back	Block3	2back/STIM_038.jpg	99
1687.104	0.603	602.7	2back	Block3	2back/STIM_038.jpg	99
1691.435	0.513	512.7	2back	Block3	2back/STIM_039.jpg	100
1695.739	0.506	505.9	2back	Block3	2back/STIM_039.jpg	100
1698.486	0.698	697.6	2back	Block3	2back/STIM_039.jpg	99
1701.329	0.503	503.3	0back	Block3	0back/STIM_000.jpg	99
1704.498	0.416	415.5	0back	Block3	0back/STIM_000.jpg	100
1707.747	0.512	512.3	0back	Block3	0back/STIM_000.jpg	99
1710.555	0.303	303.0	0back	Block3	0back/STIM_001.jpg	99
1713.15	0.348	347.7	0back	Block3	0back/STIM_001.jpg	99
1717.231	0.355	355.4	0back	Block3	0back/STIM_001.jpg	99
1721.569	0.457	456.6	0back	Block3	0back/STIM_002.jpg	100
1725.104	0.484	484.5	0back	Block3	0back/STIM_002.jpg	100
1729.466	0.45	450.2	0back	Block3	0back/STIM_002.jpg	99
1732.402	0.433	433.3	0back	Block3	0back/STIM_003.jpg	99
1735.369	0.45	450.3	0back	Block3	0back/STIM_003.jpg	99
1738.676	0.3	300.3	0back	Block3	0back/STIM_003.jpg	100
1741.576	0.402	402.5	0back	Block3	0back/STIM_004.jpg	100
1744.941	0.578	577.5	0back	Block3	0back/STIM_004.jpg	100
1748.467	0.442	442.3	0back	Block3	0back/STIM_004.jpg	100
1752.357	0.349	348.7	0back	Block3	0back/STIM_005.jpg	99
1756.336	0.568	567.6	0back	Block3	0back/STIM_005.jpg	100
1759.004	0.453	453.0	0back	Block3	0back/STIM_005.jpg	99
1761.952	0.446	445.8	0back	Block3	0back/STIM_006.jpg	100
1766.003	0.35	350.4	0back	Block3	0back/STIM_006.jpg	100
1768.602	0.527	527.1	0back	Block3	0back/STIM_006.jpg	100
1772.281	0.407	407.1	0back	Block3	0back/STIM_007.jpg	99
1775.366	0.392	391.6	0back	Block3	0back/STIM_007.jpg	99
1779.658	0.515	515.4	0back	Block3	0back/STIM_007.jpg	100
1782.23	0.322	322.3	0back	Block3	0back/STIM_008.jpg	99
1785.63	0.407	406.6	0back	Block3	0back/STIM_008.jpg	100
1789.279	0.454	454.0	0back	Block3	0back/STIM_008.jpg	99
1792.613	0.584	583.6	0back	Block3	0back/STIM_009.jpg	100
1796.447	0.506	506.3	0back	Block3	0back/STIM_009.jpg	99
1800.154	0.408	408.5	0back	Block3	0back/STIM_009.jpg	100
1803.253	0.384	383.9	0back	Block3	0back/STIM_010.jpg	99
1806.364	0.466	466.5	0back	Block3	0back/STIM_010.jpg	100
1810.605	0.428	428.2	0back	Block3	0back/STIM_010.jpg	100
1814.919	0.393	393.3	0back	Block3	0back/STIM_011.jpg	100
1819.092	0.406	405.7	0back	Block3	0back/STIM_011.jpg	100
1821.999	0.531	530.7	0back	Block3	0back/STIM_011.jpg	99
1826.115	0.587	586.7	0back	Block3	0back/STIM_012.jpg	100
1830.353	0.446	446.4	0back	Block3	0back/STIM_012.jpg	100
1834.029	0.475	474.6	0back	Block3	0back/STIM_012.jpg	99
1837.202	0.47	470.2	0back	Block3	0back/STIM_013.jpg	100
1841.294	0.353	353.4	0back	Block3	0back/STIM_013.jpg	100
1844.536	0.589	589.0	0back	Block3	0back/STIM_013.jpg	100
1847.913	0.319	319.0	0back	Block3	0back/STIM_014.jpg	100
1850.992	0.572	572.4	0back	Block3	0back/STIM_014.jpg	99
1855.373	0.424	424.0	0back	Block3	0back/STIM_014.jpg	99
1858.169	0.466	466.4	0back	Block3	0back/STIM_015.jpg	100
1861.828	0.402	401.7	0back	Block3	0back/STIM_015.jpg	100
1865.485	0.541	540.6	0back	Block3	0back/STIM_015.jpg	99
1868.495	0.463	463.0	0back	Block3	0back/STIM_016.jpg	99
1872.021	0.321	320.9	0back	Block3	0back/STIM_016.jpg	99
1876.204	0.594	594.4	0back	Block3	0back/STIM_016.jpg	99
1879.364	0.313	313.1	0back	Block3	0back/STIM_017.jpg	100
1883.546	0.431	430.9	0back	Block3	0back/STIM_017.jpg	100
1886.169	0.372	372.3	0back	Block3	0back/STIM_017.jpg	99
1889.384	0.409	409.4	0back	Block3	0back/STIM_018.jpg	100
1893.254	0.396	395.6	0back	Block3	0back/STIM_018.jpg	100
1896.223	0.427	427.3	0back	Block3	0back/STIM_018.jpg	100
1899.201	0.547	547.3	0back	Block3	0back/STIM_019.jpg	100
1901.993	0.37	369.6	0back	Block3	0back/STIM_019.jpg	100
1904.882	0.433	433.0	0back	Block3	0back/STIM_019.jpg	100
1907.759	0.565	564.9	2back	Block4	2back/STIM_000.jpg	99
1911.559	0.366	365.8	2back	Block4	2back/STIM_000.jpg	100
1914.55	0.368	367.6	2back	Block4	2back/STIM_000.jpg	99
1918.529	0.581	581.1	2back	Block4	2back/STIM_001.jpg	100
1921.259	0.479	479.4	2back	Block4	2back/STIM_001.jpg	100
1923.829	0.57	569.7	2back	Block4	2back/STIM_001.jpg	99
1927.017	0.387	386.8	2back	Block4	2back/STIM_002.jpg	100
1930.04	0.686	686.0	2back	Block4	2back/STIM_002.jpg	99
1934.419	0.32	319.8	2back	Block4	2back/STIM_002.jpg	100
1937.392	0.482	482.0	2back	Block4	2back/STIM_003.jpg	99
1940.972	0.59	589.9	2back	Block4	2back/STIM_003.jpg	99
1945.552	0.682	682.4	2back	Block4	2back/STIM_003.jpg	99
1948.604	0.418	418.0	2back	Block4	2back/STIM_004.jpg	99
1952.69	0.67	670.3	2back	Block4	2back/STIM_004.jpg	99
1956.552	0.628	628.3	2back	Block4	2back/STIM_004.jpg	100
1960.081	0.362	362.4	2back	Block4	2back/STIM_005.jpg	100
1963.39	0.398	397.9	2back	Block4	2back/STIM_005.jpg	99
1966.426	0.454	454.3	2back	Block4	2back/STIM_005.jpg	100
1969.544	0.687	687.1	2back	Block4	2back/STIM_006.jpg	99
1973.404	0.333	332.6	2back	Block4	2back/STIM_006.jpg	99
1976.745	0.554	553.7	2back	Block4	2back/STIM_006.jpg	99
1979.751	0.47	470.2	2back	Block4	2back/STIM_007.jpg	100
1983.819	0.523	523.2	2back	Block4	2back/STIM_007.jpg	100
1987.416	0.384	383.8	2back	Block4	2back/STIM_007.jpg	100
1989.867	0.418	418.5	2back	Block4	2back/STIM_008.jpg	100
1994.095	0.543	542.7	2back	Block4	2back/STIM_008.jpg	99
1997.194	0.628	628.4	2back	Block4	2back/STIM_008.jpg	100
2001.279	0.603	602.8	2back	Block4	2back/STIM_009.jpg	100
2005.253	0.656	656.2	2back	Block4	2back/STIM_009.jpg	99
2008.644	0.37	370.3	2back	Block4	2back/STIM_009.jpg	99
2012.382	0.68	680.4	2back	Block4	2back/STIM_010.jpg	100
2015.796	0.498	497.6	2back	Block4	2back/STIM_010.jpg	99
2019.18	0.342	342.2	2back	Block4	2back/STIM_010.jpg	99
2023.47	0.723	723.3	2back	Block4	2back/STIM_011.jpg	99
2026.439	0.391	390.8	2back	Block4	2back/STIM_011.jpg	99
2030.742	0.344	344.4	2back	Block4	2back/STIM_011.jpg	99
2033.68	0.73	729.6	2back	Block4	2back/STIM_012.jpg	100
2037.883	0.548	547.5	2back	Block4	2back/STIM_012.jpg	99
2042.33	0.341	341.0	2back	Block4	2back/STIM_012.jpg	99
2045.8	0.618	618.2	2back	Block4	2back/STIM_013.jpg	99
2048.903	0.384	383.6	2back	Block4	2back/STIM_013.jpg	100
2051.646	0.587	587.0	2back	Block4	2back/STIM_013.jpg	100
2055.1	0.707	707.0	2back	Block4	2back/STIM_014.jpg	99
2058.957	0.51	509.7	2back	Block4	2back/STIM_014.jpg	99
2061.531	0.58	579.5	2back	Block4	2back/STIM_014.jpg	99
2064.992	0.672	672.0	2back	Block4	2back/STIM_015.jpg	100
2067.704	0.612	612.1	2back	Block4	2back/STIM_015.jpg	99
2070.947	0.576	576.2	2back	Block4	2back/STIM_015.jpg	100
2075.005	0.457	456.6	2back	Block4	2back/STIM_016.jpg	99
2078.753	0.412	411.6	2back	Block4	2back/STIM_016.jpg	100
2081.634	0.398	397.9	2back	Block4	2back/STIM_016.jpg	100
2085.02	0.728	728.3	2back	Block4	2back/STIM_017.jpg	100
2088.657	0.317	317.4	2back	Block4	2back/STIM_017.jpg	99
2091.657	0.669	669.0	2back	Block4	2back/STIM_017.jpg	99
2095.245	0.665	664.6	2back	Block4	2back/STIM_018.jpg	100
2098.501	0.332	331.5	2back	Block4	2back/STIM_018.jpg	99
2101.067	0.352	352.1	2back	Block4	2back/STIM_018.jpg	100
2105.058	0.601	600.8	2back	Block4	2back/STIM_019.jpg	99
2108.994	0.341	341.3	2back	Block4	2back/STIM_019.jpg	99
2111.595	0.58	579.9	2back	Block4	2back/STIM_019.jpg	99
2115.445	0.674	673.7	2back	Block4	2back/STIM_020.jpg	99
2118.842	0.448	447.5	2back	Block4	2back/STIM_020.jpg	100
2122.345	0.533	533.1	2back	Block4	2back/STIM_020.jpg	99
2124.99	0.723	722.9	2back	Block4	2back/STIM_021.jpg	99
2128.614	0.358	357.8	2back	Block4	2back/STIM_021.jpg	100
2131.404	0.699	699.1	2back	Block4	2back/STIM_021.jpg	99
2135.173	0.519	519.4	2back	Block4	2back/STIM_022.jpg	100
2138.306	0.615	614.6	2back	Block4	2back/STIM_022.jpg	100
2141.249	0.55	549.7	2back	Block4	2back/STIM_022.jpg	99
2145.241	0.646	646.1	2back	Block4	2back/STIM_023.jpg	99
2149.36	0.319	319.2	2back	Block4	2back/STIM_023.jpg	100
2152.82	0.678	677.7	2back	Block4	2back/STIM_023.jpg	100
2156.785	0.381	380.9	2back	Block4	2back/STIM_024.jpg	99
2160.782	0.567	566.6	2back	Block4	2back/STIM_024.jpg	99
2164.468	0.418	418.5	2back	Block4	2back/STIM_024.jpg	100
2168.849	0.517	517.0	2back	Block4	2back/STIM_025.jpg	100
2171.907	0.33	330.2	2back	Block4	2back/STIM_025.jpg	99
2175.95	0.479	479.4	2back	Block4	2back/STIM_025.jpg	100
2179.333	0.627	627.2	2back	Block4	2back/STIM_026.jpg	99
2183.274	0.716	716.5	2back	Block4	2back/STIM_026.jpg	100
2186.442	0.553	553.3	2back	Block4	2back/STIM_026.jpg	100
2190.969	0.607	606.9	2back	Block4	2back/STIM_027.jpg	99
2194.832	0.395	395.2	2back	Block4	2back/STIM_027.jpg	100
2198.16	0.602	602.1	2back	Block4	2back/STIM_027.jpg	100
2202.246	0.709	709.1	2back	Block4	2back/STIM_028.jpg	99
2206.821	0.608	607.8	2back	Block4	2back/STIM_028.jpg	99
2211.207	0.484	483.5	2back	Block4	2back/STIM_028.jpg	100
2213.737	0.491	491.4	2back	Block4	2back/STIM_029.jpg	100
2217.825	0.449	449.1	2back	Block4	2back/STIM_029.jpg	99
2220.343	0.356	355.9	2back	Block4	2back/STIM_029.jpg	100
2222.902	0.388	388.3	2back	Block4	2back/STIM_030.jpg	100
2226.226	0.59	589.9	2back	Block4	2back/STIM_030.jpg	100
2229.728	0.534	533.8	2back	Block4	2back/STIM_030.jpg	100
2233.226	0.329	328.7	2back	Block4	2back/STIM_031.jpg	99
2235.598	0.35	349.7	2back	Block4	2back/STIM_031.jpg	100
2238.732	0.344	343.5	2back	Block4	2back/STIM_031.jpg	99
2241.197	0.353	352.6	2back	Block4	2back/STIM_032.jpg	99
2243.87	0.521	520.7	2back	Block4	2back/STIM_032.jpg	99
2246.475	0.552	551.9	2back	Block4	2back/STIM_032.jpg	99
2250.215	0.529	529.1	2back	Block4	2back/STIM_033.jpg	100
2253.577	0.501	501.2	2back	Block4	2back/STIM_033.jpg	99
2256.924	0.363	362.8	2back	Block4	2back/STIM_033.jpg	100
2260.062	0.619	619.2	2back	Block4	2back/STIM_034.jpg	100
2264.594	0.661	661.3	2back	Block4	2back/STIM_034.jpg	100
2268.968	0.643	642.9	2back	Block4	2back/STIM_034.jpg	99
2272.123	0.51	510.4	2back	Block4	2back/STIM_035.jpg	99
2275.2	0.418	418.4	2back	Block4	2back/STIM_035.jpg	100
2277.808	0.576	575.7	2back	Block4	2back/STIM_035.jpg	99
2281.027	0.43	430.0	2back	Block4	2back/STIM_036.jpg	99
2283.479	0.498	497.6	2back	Block4	2back/STIM_036.jpg	100
2287.244	0.685	684.8	2back	Block4	2back/STIM_036.jpg	100
2291.357	0.537	536.9	2back	Block4	2back/STIM_037.jpg	99
2295.283	0.336	336.2	2back	Block4	2back/STIM_037.jpg	99
2298.114	0.34	340.0	2back	Block4	2back/STIM_037.jpg	100
2301.471	0.731	731.2	2back	Block4	2back/STIM_038.jpg	99
2304.321	0.406	406.0	2back	Block4	2back/STIM_038.jpg	100
2308.38	0.682	682.4	2back	Block4	2back/STIM_038.jpg	100
2311.81	0.527	526.6	2back	Block4	2back/STIM_039.jpg	99
2315.254	0.447	447.3	2back	Block4	2back/STIM_039.jpg	100
2318.518	0.551	551.4	2back	Block4	2back/STIM_039.jpg	99
2321.492	0.599	598.9	0back	Block4	0back/STIM_000.jpg	100
2325.119	0.378	377.6	0back	Block4	0back/STIM_000.jpg	100
2328.73	0.558	557.6	0back	Block4	0back/STIM_000.jpg	99
2331.63	0.312	311.8	0back	Block4	0back/STIM_001.jpg	99
2335.061	0.516	515.9	0back	Block4	0back/STIM_001.jpg	99
2338.921	0.564	564.1	0back	Block4	0back/STIM_001.jpg	99
2343.037	0.562	561.9	0back	Block4	0back/STIM_002.jpg	99
2346.413	0.337	336.6	0back	Block4	0back/STIM_002.jpg	99
2350.095	0.526	526.5	0back	Block4	0back/STIM_002.jpg	99
2353.977	0.522	521.7	0back	Block4	0back/STIM_003.jpg	100
2357.556	0.302	301.6	0back	Block4	0back/STIM_003.jpg	99
2361.257	0.431	431.4	0back	Block4	0back/STIM_003.jpg	99
2364.065	0.491	491.1	0back	Block4	0back/STIM_004.jpg	99
2366.726	0.449	448.8	0back	Block4	0back/STIM_004.jpg	99
2370.267	0.488	487.9	0back	Block4	0back/STIM_004.jpg	99
2373.956	0.324	323.9	0back	Block4	0back/STIM_005.jpg	99
2377.077	0.384	384.3	0back	Block4	0back/STIM_005.jpg	99
2379.979	0.331	331.2	0back	Block4	0back/STIM_005.jpg	99
2383.234	0.45	450.0	0back	Block4	0back/STIM_006.jpg	100
2386.631	0.41	410.3	0back	Block4	0back/STIM_006.jpg	100
2389.437	0.571	570.8	0back	Block4	0back/STIM_006.jpg	100
2393.693	0.508	508.3	0back	Block4	0back/STIM_007.jpg	99
2397.601	0.537	536.9	0back	Block4	0back/STIM_007.jpg	100
2401.88	0.463	463.4	0back	Block4	0back/STIM_007.jpg	100
2405.528	0.576	576.4	0back	Block4	0back/STIM_008.jpg	99
2409.59	0.423	423.2	0back	Block4	0back/STIM_008.jpg	99
2412.122	0.555	555.4	0back	Block4	0back/STIM_008.jpg	100
2416.174	0.59	589.8	0back	Block4	0back/STIM_009.jpg	99
2419.901	0.569	569.1	0back	Block4	0back/STIM_009.jpg	100
2422.82	0.332	332.4	0back	Block4	0back/STIM_009.jpg	99
2426.686	0.374	374.3	0back	Block4	0back/STIM_010.jpg	99
2430.953	0.413	412.9	0back	Block4	0back/STIM_010.jpg	99
2435.198	0.368	368.3	0back	Block4	0back/STIM_010.jpg	99
2438.227	0.402	401.5	0back	Block4	0back/STIM_011.jpg	99
2442.217	0.488	488.5	0back	Block4	0back/STIM_011.jpg	100
2446.165	0.506	506.0	0back	Block4	0back/STIM_011.jpg	100
2450.291	0.516	516.3	0back	Block4	0back/STIM_012.jpg	100
2454.697	0.506	505.9	0back	Block4	0back/STIM_012.jpg	100
2458.025	0.44	440.1	0back	Block4	0back/STIM_012.jpg	100
2461.433	0.324	324.3	0back	Block4	0back/STIM_013.jpg	100
2465.407	0.406	406.2	0back	Block4	0back/STIM_013.jpg	99
2469.407	0.303	303.3	0back	Block4	0back/STIM_013.jpg	100
2471.993	0.451	450.8	0back	Block4	0back/STIM_014.jpg	100
2475.337	0.44	440.5	0back	Block4	0back/STIM_014.jpg	100
2479.176	0.417	417.2	0back	Block4	0back/STIM_014.jpg	100
2482.211	0.464	463.5	0back	Block4	0back/STIM_015.jpg	99
2486.076	0.597	597.3	0back	Block4	0back/STIM_015.jpg	99
2489.885	0.588	587.9	0back	Block4	0back/STIM_015.jpg	100
2492.86	0.451	450.6	0back	Block4	0back/STIM_016.jpg	100
2495.707	0.508	508.4	0back	Block4	0back/STIM_016.jpg	100
2499.136	0.3	300.4	0back	Block4	0back/STIM_016.jpg	100
2502.071	0.385	384.8	0back	Block4	0back/STIM_017.jpg	99
2506.312	0.587	587.2	0back	Block4	0back/STIM_017.jpg	99
2509.481	0.536	536.5	0back	Block4	0back/STIM_017.jpg	100
2513.211	0.506	505.7	0back	Block4	0back/STIM_018.jpg	99
2516.848	0.43	430.5	0back	Block4	0back/STIM_018.jpg	99
2521.04	0.4	400.1	0back	Block4	0back/STIM_018.jpg	99
2523.673	0.595	594.8	0back	Block4	0back/STIM_019.jpg	99
2526.521	0.375	375.0	0back	Block4	0back/STIM_019.jpg	99
2529.417	0.502	502.3	0back	Block4	0back/STIM_019.jpg	100
