onset	duration	accuracy_binary	trial_type	learning_stage	stimulus
0.0	0.872	0	2back	Block1	2back/STIM_000.jpg
3.786	0.517	0	2back	Block1	2back/STIM_000.jpg
7.92	0.602	1	2back	Block1	2back/STIM_000.jpg
12.163	0.668	1	2back	Block1	2back/STIM_001.jpg
16.202	0.568	0	2back	Block1	2back/STIM_001.jpg
19.323	0.565	0	2back	Block1	2back/STIM_001.jpg
23.862	0.589	0	2back	Block1	2back/STIM_002.jpg
27.694	0.483	1	2back	Block1	2back/STIM_002.jpg
31.076	0.903	1	2back	Block1	2back/STIM_002.jpg
35.628	0.945	0	2back	Block1	2back/STIM_003.jpg
38.853	0.775	1	2back	Block1	2back/STIM_003.jpg
43.019	0.892	1	2back	Block1	2back/STIM_003.jpg
46.977	1.024	1	2back	Block1	2back/STIM_004.jpg
50.391	0.813	0	2back	Block1	2back/STIM_004.jpg
54.812	0.79	1	2back	Block1	2back/STIM_004.jpg
59.39	0.477	0	2back	Block1	2back/STIM_005.jpg
63.185	0.934	0	2back	Block1	2back/STIM_005.jpg
66.962	0.856	0	2back	Block1	2back/STIM_005.jpg
71.358	0.946	0	2back	Block1	2back/STIM_006.jpg
75.27	0.668	1	2back	Block1	2back/STIM_006.jpg
78.11	0.69	1	2back	Block1	2back/STIM_006.jpg
81.761	0.584	0	2back	Block1	2back/STIM_007.jpg
84.989	0.963	0	2back	Block1	2back/STIM_007.jpg
89.092	0.634	1	2back	Block1	2back/STIM_007.jpg
92.396	0.986	1	2back	Block1	2back/STIM_008.jpg
96.099	0.594	0	2back	Block1	2back/STIM_008.jpg
99.268	0.578	0	2back	Block1	2back/STIM_008.jpg
103.062	0.846	0	2back	Block1	2back/STIM_009.jpg
106.029	0.828	0	2back	Block1	2back/STIM_009.jpg
109.063	0.527	0	2back	Block1	2back/STIM_009.jpg
112.744	0.515	1	2back	Block1	2back/STIM_010.jpg
116.641	0.935	1	2back	Block1	2back/STIM_010.jpg
120.688	0.744	1	2back	Block1	2back/STIM_010.jpg
125.131	0.644	1	2back	Block1	2back/STIM_011.jpg
128.606	0.432	0	2back	Block1	2back/STIM_011.jpg
131.328	0.445	1	2back	Block1	2back/STIM_011.jpg
134.898	0.556	1	2back	Block1	2back/STIM_012.jpg
138.645	0.674	0	2back	Block1	2back/STIM_012.jpg
141.739	0.51	0	2back	Block1	2back/STIM_012.jpg
145.815	0.47	1	2back	Block1	2back/STIM_013.jpg
149.708	0.797	0	2back	Block1	2back/STIM_013.jpg
152.918	0.706	0	2back	Block1	2back/STIM_013.jpg
157.391	0.674	0	2back	Block1	2back/STIM_014.jpg
160.755	0.852	0	2back	Block1	2back/STIM_014.jpg
164.08	0.694	1	2back	Block1	2back/STIM_014.jpg
167.173	0.932	1	2back	Block1	2back/STIM_015.jpg
172.022	0.48	1	2back	Block1	2back/STIM_015.jpg
176.326	0.592	0	2back	Block1	2back/STIM_015.jpg
179.229	1.002	0	2back	Block1	2back/STIM_016.jpg
182.551	0.883	1	2back	Block1	2back/STIM_016.jpg
186.282	0.678	0	2back	Block1	2back/STIM_016.jpg
189.446	0.657	0	2back	Block1	2back/STIM_017.jpg
193.401	0.508	1	2back	Block1	2back/STIM_017.jpg
196.967	0.768	0	2back	Block1	2back/STIM_017.jpg
200.198	0.582	0	2back	Block1	2back/STIM_018.jpg
204.045	0.951	0	2back	Block1	2back/STIM_018.jpg
208.778	0.43	0	2back	Block1	2back/STIM_018.jpg
211.215	0.956	1	2back	Block1	2back/STIM_019.jpg
215.924	0.725	1	2back	Block1	2back/STIM_019.jpg
219.551	0.456	0	2back	Block1	2back/STIM_019.jpg
222.484	0.938	0	2back	Block1	2back/STIM_020.jpg
226.305	0.926	1	2back	Block1	2back/STIM_020.jpg
230.958	0.56	1	2back	Block1	2back/STIM_020.jpg
233.743	0.556	0	2back	Block1	2back/STIM_021.jpg
237.824	0.75	0	2back	Block1	2back/STIM_021.jpg
242.259	0.556	1	2back	Block1	2back/STIM_021.jpg
246.426	0.843	1	2back	Block1	2back/STIM_022.jpg
251.075	0.636	1	2back	Block1	2back/STIM_022.jpg
254.504	0.808	0	2back	Block1	2back/STIM_022.jpg
259.108	0.725	1	2back	Block1	2back/STIM_023.jpg
263.005	0.493	1	2back	Block1	2back/STIM_023.jpg
267.299	0.66	1	2back	Block1	2back/STIM_023.jpg
270.946	0.977	1	2back	Block1	2back/STIM_024.jpg
275.725	0.856	0	2back	Block1	2back/STIM_024.jpg
279.395	0.94	1	2back	Block1	2back/STIM_024.jpg
284.263	0.563	0	2back	Block1	2back/STIM_025.jpg
287.508	0.854	1	2back	Block1	2back/STIM_025.jpg
291.437	0.658	1	2back	Block1	2back/STIM_025.jpg
296.007	0.534	1	2back	Block1	2back/STIM_026.jpg
299.598	0.642	0	2back	Block1	2back/STIM_026.jpg
303.376	0.505	1	2back	Block1	2back/STIM_026.jpg
306.275	0.554	0	2back	Block1	2back/STIM_027.jpg
310.293	0.952	1	2back	Block1	2back/STIM_027.jpg
314.461	0.897	1	2back	Block1	2back/STIM_027.jpg
319.07	1.023	0	2back	Block1	2back/STIM_028.jpg
323.34	0.505	1	2back	Block1	2back/STIM_028.jpg
327.707	0.59	0	2back	Block1	2back/STIM_028.jpg
332.259	0.608	0	2back	Block1	2back/STIM_029.jpg
335.431	0.752	1	2back	Block1	2back/STIM_029.jpg
339.512	0.928	1	2back	Block1	2back/STIM_029.jpg
343.267	0.975	0	2back	Block1	2back/STIM_030.jpg
347.788	0.918	1	2back	Block1	2back/STIM_030.jpg
351.685	0.898	0	2back	Block1	2back/STIM_030.jpg
355.063	0.606	0	2back	Block1	2back/STIM_031.jpg
358.259	0.869	1	2back	Block1	2back/STIM_031.jpg
361.661	0.739	1	2back	Block1	2back/STIM_031.jpg
366.387	0.538	0	2back	Block1	2back/STIM_032.jpg
370.658	0.5	1	2back	Block1	2back/STIM_032.jpg
374.231	0.551	1	2back	Block1	2back/STIM_032.jpg
377.207	0.864	1	2back	Block1	2back/STIM_033.jpg
381.47	0.564	0	2back	Block1	2back/STIM_033.jpg
385.104	0.773	1	2back	Block1	2back/STIM_033.jpg
388.568	0.964	0	2back	Block1	2back/STIM_034.jpg
392.568	0.82	0	2back	Block1	2back/STIM_034.jpg
397.222	0.854	0	2back	Block1	2back/STIM_034.jpg
402.022	0.546	1	2back	Block1	2back/STIM_035.jpg
405.621	0.553	1	2back	Block1	2back/STIM_035.jpg
409.779	0.777	1	2back	Block1	2back/STIM_035.jpg
414.454	0.894	0	2back	Block1	2back/STIM_036.jpg
417.731	0.48	1	2back	Block1	2back/STIM_036.jpg
420.594	0.806	1	2back	Block1	2back/STIM_036.jpg
423.402	0.494	0	2back	Block1	2back/STIM_037.jpg
427.511	0.699	0	2back	Block1	2back/STIM_037.jpg
431.292	0.751	1	2back	Block1	2back/STIM_037.jpg
434.344	0.95	0	2back	Block1	2back/STIM_038.jpg
437.727	0.702	1	2back	Block1	2back/STIM_038.jpg
441.111	0.456	1	2back	Block1	2back/STIM_038.jpg
444.342	0.588	0	2back	Block1	2back/STIM_039.jpg
448.408	0.922	1	2back	Block1	2back/STIM_039.jpg
452.022	0.755	0	2back	Block1	2back/STIM_039.jpg
456.702	0.315	0	0back	Block1	0back/STIM_000.jpg
459.679	0.515	1	0back	Block1	0back/STIM_000.jpg
463.8	0.514	1	0back	Block1	0back/STIM_000.jpg
466.656	0.459	1	0back	Block1	0back/STIM_001.jpg
469.753	0.413	0	0back	Block1	0back/STIM_001.jpg
474.108	0.455	1	0back	Block1	0back/STIM_001.jpg
477.511	0.395	0	0back	Block1	0back/STIM_002.jpg
481.406	0.358	0	0back	Block1	0back/STIM_002.jpg
483.907	0.545	0	0back	Block1	0back/STIM_002.jpg
488.173	0.316	0	0back	Block1	0back/STIM_003.jpg
491.118	0.318	1	0back	Block1	0back/STIM_003.jpg
494.228	0.424	1	0back	Block1	0back/STIM_003.jpg
497.249	0.593	0	0back	Block1	0back/STIM_004.jpg
500.097	0.517	1	0back	Block1	0back/STIM_004.jpg
503.074	0.35	1	0back	Block1	0back/STIM_004.jpg
505.425	0.525	1	0back	Block1	0back/STIM_005.jpg
509.462	0.53	0	0back	Block1	0back/STIM_005.jpg
512.117	0.327	0	0back	Block1	0back/STIM_005.jpg
514.958	0.592	1	0back	Block1	0back/STIM_006.jpg
518.557	0.594	1	0back	Block1	0back/STIM_006.jpg
521.801	0.385	0	0back	Block1	0back/STIM_006.jpg
525.045	0.313	1	0back	Block1	0back/STIM_007.jpg
527.594	0.329	0	0back	Block1	0back/STIM_007.jpg
531.122	0.522	1	0back	Block1	0back/STIM_007.jpg
535.084	0.483	0	0back	Block1	0back/STIM_008.jpg
538.785	0.432	1	0back	Block1	0back/STIM_008.jpg
542.497	0.536	1	0back	Block1	0back/STIM_008.jpg
546.09	0.358	1	0back	Block1	0back/STIM_009.jpg
549.588	0.537	1	0back	Block1	0back/STIM_009.jpg
553.824	0.306	0	0back	Block1	0back/STIM_009.jpg
557.241	0.315	1	0back	Block1	0back/STIM_010.jpg
560.598	0.352	1	0back	Block1	0back/STIM_010.jpg
564.613	0.387	1	0back	Block1	0back/STIM_010.jpg
567.972	0.328	1	0back	Block1	0back/STIM_011.jpg
571.18	0.445	0	0back	Block1	0back/STIM_011.jpg
573.716	0.533	1	0back	Block1	0back/STIM_011.jpg
576.512	0.451	1	0back	Block1	0back/STIM_012.jpg
579.516	0.46	0	0back	Block1	0back/STIM_012.jpg
582.347	0.524	1	0back	Block1	0back/STIM_012.jpg
585.967	0.387	1	0back	Block1	0back/STIM_013.jpg
589.714	0.585	0	0back	Block1	0back/STIM_013.jpg
592.588	0.407	1	0back	Block1	0back/STIM_013.jpg
595.893	0.38	1	0back	Block1	0back/STIM_014.jpg
600.26	0.301	1	0back	Block1	0back/STIM_014.jpg
604.075	0.363	1	0back	Block1	0back/STIM_014.jpg
606.757	0.484	1	0back	Block1	0back/STIM_015.jpg
609.606	0.579	1	0back	Block1	0back/STIM_015.jpg
613.556	0.423	1	0back	Block1	0back/STIM_015.jpg
617.255	0.373	0	0back	Block1	0back/STIM_016.jpg
620.954	0.333	1	0back	Block1	0back/STIM_016.jpg
624.574	0.509	1	0back	Block1	0back/STIM_016.jpg
628.93	0.328	1	0back	Block1	0back/STIM_017.jpg
633.096	0.331	1	0back	Block1	0back/STIM_017.jpg
636.584	0.357	1	0back	Block1	0back/STIM_017.jpg
640.235	0.38	1	0back	Block1	0back/STIM_018.jpg
642.869	0.347	1	0back	Block1	0back/STIM_018.jpg
645.832	0.559	0	0back	Block1	0back/STIM_018.jpg
649.081	0.404	1	0back	Block1	0back/STIM_019.jpg
652.089	0.403	1	0back	Block1	0back/STIM_019.jpg
655.576	0.491	0	0back	Block1	0back/STIM_019.jpg
658.445	0.718	0	2back	Block2	2back/STIM_000.jpg
662.025	0.392	1	2back	Block2	2back/STIM_000.jpg
665.762	0.385	1	2back	Block2	2back/STIM_000.jpg
668.425	0.558	0	2back	Block2	2back/STIM_001.jpg
671.149	0.702	0	2back	Block2	2back/STIM_001.jpg
675.472	0.357	0	2back	Block2	2back/STIM_001.jpg
678.668	0.394	0	2back	Block2	2back/STIM_002.jpg
681.202	0.63	1	2back	Block2	2back/STIM_002.jpg
684.465	0.73	1	2back	Block2	2back/STIM_002.jpg
689.047	0.725	1	2back	Block2	2back/STIM_003.jpg
693.427	0.544	0	2back	Block2	2back/STIM_003.jpg
696.028	0.57	1	2back	Block2	2back/STIM_003.jpg
699.712	0.669	0	2back	Block2	2back/STIM_004.jpg
702.531	0.795	1	2back	Block2	2back/STIM_004.jpg
706.008	0.671	0	2back	Block2	2back/STIM_004.jpg
709.031	0.725	1	2back	Block2	2back/STIM_005.jpg
713.153	0.563	1	2back	Block2	2back/STIM_005.jpg
717.062	0.732	1	2back	Block2	2back/STIM_005.jpg
721.015	0.844	1	2back	Block2	2back/STIM_006.jpg
725.148	0.588	1	2back	Block2	2back/STIM_006.jpg
729.525	0.349	1	2back	Block2	2back/STIM_006.jpg
733.579	0.586	0	2back	Block2	2back/STIM_007.jpg
737.498	0.578	1	2back	Block2	2back/STIM_007.jpg
740.739	0.783	0	2back	Block2	2back/STIM_007.jpg
744.582	0.447	0	2back	Block2	2back/STIM_008.jpg
747.063	0.365	0	2back	Block2	2back/STIM_008.jpg
750.076	0.594	1	2back	Block2	2back/STIM_008.jpg
752.732	0.749	1	2back	Block2	2back/STIM_009.jpg
755.572	0.75	1	2back	Block2	2back/STIM_009.jpg
760.199	0.554	1	2back	Block2	2back/STIM_009.jpg
763.0	0.812	0	2back	Block2	2back/STIM_010.jpg
765.814	0.829	0	2back	Block2	2back/STIM_010.jpg
770.111	0.743	1	2back	Block2	2back/STIM_010.jpg
772.955	0.653	1	2back	Block2	2back/STIM_011.jpg
775.728	0.389	1	2back	Block2	2back/STIM_011.jpg
780.018	0.448	0	2back	Block2	2back/STIM_011.jpg
784.321	0.618	1	2back	Block2	2back/STIM_012.jpg
786.97	0.739	0	2back	Block2	2back/STIM_012.jpg
791.14	0.456	0	2back	Block2	2back/STIM_012.jpg
793.949	0.871	1	2back	Block2	2back/STIM_013.jpg
797.036	0.721	1	2back	Block2	2back/STIM_013.jpg
800.725	0.666	1	2back	Block2	2back/STIM_013.jpg
804.68	0.418	0	2back	Block2	2back/STIM_014.jpg
807.273	0.706	1	2back	Block2	2back/STIM_014.jpg
811.568	0.485	1	2back	Block2	2back/STIM_014.jpg
815.447	0.616	0	2back	Block2	2back/STIM_015.jpg
820.012	0.509	1	2back	Block2	2back/STIM_015.jpg
824.245	0.64	0	2back	Block2	2back/STIM_015.jpg
826.955	0.742	0	2back	Block2	2back/STIM_016.jpg
830.42	0.388	0	2back	Block2	2back/STIM_016.jpg
834.024	0.627	0	2back	Block2	2back/STIM_016.jpg
838.37	0.878	1	2back	Block2	2back/STIM_017.jpg
842.677	0.763	1	2back	Block2	2back/STIM_017.jpg
846.524	0.499	0	2back	Block2	2back/STIM_017.jpg
850.576	0.434	1	2back	Block2	2back/STIM_018.jpg
854.865	0.402	1	2back	Block2	2back/STIM_018.jpg
859.167	0.42	0	2back	Block2	2back/STIM_018.jpg
862.298	0.847	0	2back	Block2	2back/STIM_019.jpg
865.316	0.646	1	2back	Block2	2back/STIM_019.jpg
868.925	0.502	1	2back	Block2	2back/STIM_019.jpg
873.313	0.654	0	2back	Block2	2back/STIM_020.jpg
876.387	0.362	1	2back	Block2	2back/STIM_020.jpg
880.431	0.384	1	2back	Block2	2back/STIM_020.jpg
883.165	0.647	0	2back	Block2	2back/STIM_021.jpg
886.573	0.83	1	2back	Block2	2back/STIM_021.jpg
891.273	0.523	0	2back	Block2	2back/STIM_021.jpg
894.501	0.478	0	2back	Block2	2back/STIM_022.jpg
897.289	0.792	0	2back	Block2	2back/STIM_022.jpg
900.281	0.69	1	2back	Block2	2back/STIM_022.jpg
904.942	0.842	1	2back	Block2	2back/STIM_023.jpg
908.136	0.375	0	2back	Block2	2back/STIM_023.jpg
911.84	0.592	1	2back	Block2	2back/STIM_023.jpg
914.442	0.588	1	2back	Block2	2back/STIM_024.jpg
918.606	0.839	1	2back	Block2	2back/STIM_024.jpg
921.628	0.414	0	2back	Block2	2back/STIM_024.jpg
924.355	0.726	0	2back	Block2	2back/STIM_025.jpg
927.844	0.706	0	2back	Block2	2back/STIM_025.jpg
931.118	0.462	1	2back	Block2	2back/STIM_025.jpg
933.964	0.627	1	2back	Block2	2back/STIM_026.jpg
937.349	0.767	1	2back	Block2	2back/STIM_026.jpg
941.682	0.36	1	2back	Block2	2back/STIM_026.jpg
945.911	0.472	1	2back	Block2	2back/STIM_027.jpg
949.535	0.441	1	2back	Block2	2back/STIM_027.jpg
953.69	0.688	1	2back	Block2	2back/STIM_027.jpg
957.202	0.82	1	2back	Block2	2back/STIM_028.jpg
960.578	0.565	1	2back	Block2	2back/STIM_028.jpg
963.685	0.46	1	2back	Block2	2back/STIM_028.jpg
966.588	0.712	0	2back	Block2	2back/STIM_029.jpg
971.107	0.832	0	2back	Block2	2back/STIM_029.jpg
975.098	0.449	1	2back	Block2	2back/STIM_029.jpg
978.726	0.463	0	2back	Block2	2back/STIM_030.jpg
981.982	0.505	1	2back	Block2	2back/STIM_030.jpg
984.684	0.425	1	2back	Block2	2back/STIM_030.jpg
987.632	0.844	1	2back	Block2	2back/STIM_031.jpg
991.736	0.416	0	2back	Block2	2back/STIM_031.jpg
995.105	0.63	0	2back	Block2	2back/STIM_031.jpg
999.145	0.769	0	2back	Block2	2back/STIM_032.jpg
1002.001	0.791	0	2back	Block2	2back/STIM_032.jpg
1004.883	0.644	1	2back	Block2	2back/STIM_032.jpg
1007.724	0.506	1	2back	Block2	2back/STIM_033.jpg
1012.187	0.369	0	2back	Block2	2back/STIM_033.jpg
1014.632	0.672	1	2back	Block2	2back/STIM_033.jpg
1018.008	0.58	0	2back	Block2	2back/STIM_034.jpg
1020.612	0.611	1	2back	Block2	2back/STIM_034.jpg
1025.094	0.415	1	2back	Block2	2back/STIM_034.jpg
1027.889	0.678	1	2back	Block2	2back/STIM_035.jpg
1031.285	0.779	1	2back	Block2	2back/STIM_035.jpg
1034.117	0.373	1	2back	Block2	2back/STIM_035.jpg
1037.489	0.843	1	2back	Block2	2back/STIM_036.jpg
1040.463	0.734	1	2back	Block2	2back/STIM_036.jpg
1043.247	0.418	1	2back	Block2	2back/STIM_036.jpg
1047.315	0.493	1	2back	Block2	2back/STIM_037.jpg
1051.106	0.603	1	2back	Block2	2back/STIM_037.jpg
1054.289	0.769	1	2back	Block2	2back/STIM_037.jpg
1057.09	0.827	0	2back	Block2	2back/STIM_038.jpg
1061.424	0.437	1	2back	Block2	2back/STIM_038.jpg
1065.034	0.529	1	2back	Block2	2back/STIM_038.jpg
1068.847	0.391	0	2back	Block2	2back/STIM_039.jpg
1072.012	0.792	0	2back	Block2	2back/STIM_039.jpg
1076.528	0.633	1	2back	Block2	2back/STIM_039.jpg
1080.818	0.365	1	0back	Block2	0back/STIM_000.jpg
1083.667	0.525	0	0back	Block2	0back/STIM_000.jpg
1087.718	0.358	1	0back	Block2	0back/STIM_000.jpg
1091.462	0.431	0	0back	Block2	0back/STIM_001.jpg
1095.413	0.563	1	0back	Block2	0back/STIM_001.jpg
1099.378	0.416	1	0back	Block2	0back/STIM_001.jpg
1102.695	0.396	1	0back	Block2	0back/STIM_002.jpg
1106.208	0.406	0	0back	Block2	0back/STIM_002.jpg
1109.354	0.521	1	0back	Block2	0back/STIM_002.jpg
1113.139	0.352	0	0back	Block2	0back/STIM_003.jpg
1116.771	0.502	0	0back	Block2	0back/STIM_003.jpg
1120.08	0.555	0	0back	Block2	0back/STIM_003.jpg
1122.986	0.535	1	0back	Block2	0back/STIM_004.jpg
1126.229	0.375	1	0back	Block2	0back/STIM_004.jpg
1129.051	0.359	0	0back	Block2	0back/STIM_004.jpg
1133.044	0.375	1	0back	Block2	0back/STIM_005.jpg
1135.571	0.362	0	0back	Block2	0back/STIM_005.jpg
1138.887	0.495	0	0back	Block2	0back/STIM_005.jpg
1142.311	0.462	1	0back	Block2	0back/STIM_006.jpg
1146.28	0.444	1	0back	Block2	0back/STIM_006.jpg
1149.941	0.482	1	0back	Block2	0back/STIM_006.jpg
1153.59	0.485	1	0back	Block2	0back/STIM_007.jpg
1157.467	0.52	1	0back	Block2	0back/STIM_007.jpg
1161.193	0.523	0	0back	Block2	0back/STIM_007.jpg
1163.992	0.474	1	0back	Block2	0back/STIM_008.jpg
1167.05	0.479	0	0back	Block2	0back/STIM_008.jpg
1169.865	0.548	0	0back	Block2	0back/STIM_008.jpg
1173.233	0.318	0	0back	Block2	0back/STIM_009.jpg
1177.136	0.372	0	0back	Block2	0back/STIM_009.jpg
1181.124	0.43	1	0back	Block2	0back/STIM_009.jpg
1184.691	0.305	1	0back	Block2	0back/STIM_010.jpg
1188.564	0.349	0	0back	Block2	0back/STIM_010.jpg
1192.755	0.377	1	0back	Block2	0back/STIM_010.jpg
1195.326	0.395	0	0back	Block2	0back/STIM_011.jpg
1198.031	0.39	1	0back	Block2	0back/STIM_011.jpg
1201.14	0.343	1	0back	Block2	0back/STIM_011.jpg
1204.474	0.547	1	0back	Block2	0back/STIM_012.jpg
1207.74	0.522	1	0back	Block2	0back/STIM_012.jpg
1211.242	0.428	0	0back	Block2	0back/STIM_012.jpg
1214.156	0.509	1	0back	Block2	0back/STIM_013.jpg
1217.023	0.361	1	0back	Block2	0back/STIM_013.jpg
1220.694	0.366	1	0back	Block2	0back/STIM_013.jpg
1224.281	0.563	1	0back	Block2	0back/STIM_014.jpg
1227.835	0.352	0	0back	Block2	0back/STIM_014.jpg
1230.38	0.375	1	0back	Block2	0back/STIM_014.jpg
1234.607	0.345	0	0back	Block2	0back/STIM_015.jpg
1237.678	0.308	0	0back	Block2	0back/STIM_015.jpg
1241.318	0.514	1	0back	Block2	0back/STIM_015.jpg
1245.658	0.4	1	0back	Block2	0back/STIM_016.jpg
1248.523	0.421	1	0back	Block2	0back/STIM_016.jpg
1252.436	0.507	1	0back	Block2	0back/STIM_016.jpg
1255.021	0.564	0	0back	Block2	0back/STIM_017.jpg
1258.753	0.421	1	0back	Block2	0back/STIM_017.jpg
1262.109	0.411	1	0back	Block2	0back/STIM_017.jpg
1264.735	0.44	1	0back	Block2	0back/STIM_018.jpg
1269.06	0.563	0	0back	Block2	0back/STIM_018.jpg
1273.524	0.585	1	0back	Block2	0back/STIM_018.jpg
1276.41	0.331	1	0back	Block2	0back/STIM_019.jpg
1280.044	0.315	1	0back	Block2	0back/STIM_019.jpg
1283.208	0.363	1	0back	Block2	0back/STIM_019.jpg
1286.905	0.34	1	2back	Block3	2back/STIM_000.jpg
1290.749	0.468	1	2back	Block3	2back/STIM_000.jpg
1294.667	0.432	1	2back	Block3	2back/STIM_000.jpg
1297.866	0.44	1	2back	Block3	2back/STIM_001.jpg
1300.954	0.317	1	2back	Block3	2back/STIM_001.jpg
1304.717	0.555	1	2back	Block3	2back/STIM_001.jpg
1307.644	0.501	1	2back	Block3	2back/STIM_002.jpg
1311.667	0.5	0	2back	Block3	2back/STIM_002.jpg
1315.73	0.701	1	2back	Block3	2back/STIM_002.jpg
1318.54	0.323	0	2back	Block3	2back/STIM_003.jpg
1322.388	0.492	1	2back	Block3	2back/STIM_003.jpg
1326.327	0.651	1	2back	Block3	2back/STIM_003.jpg
1330.957	0.504	1	2back	Block3	2back/STIM_004.jpg
1333.939	0.586	1	2back	Block3	2back/STIM_004.jpg
1337.512	0.639	0	2back	Block3	2back/STIM_004.jpg
1341.537	0.479	1	2back	Block3	2back/STIM_005.jpg
1345.206	0.442	0	2back	Block3	2back/STIM_005.jpg
1349.009	0.382	1	2back	Block3	2back/STIM_005.jpg
1352.392	0.621	1	2back	Block3	2back/STIM_006.jpg
1355.291	0.632	1	2back	Block3	2back/STIM_006.jpg
1359.838	0.722	0	2back	Block3	2back/STIM_006.jpg
1363.173	0.412	1	2back	Block3	2back/STIM_007.jpg
1366.438	0.357	1	2back	Block3	2back/STIM_007.jpg
1369.143	0.644	1	2back	Block3	2back/STIM_007.jpg
1372.975	0.565	1	2back	Block3	2back/STIM_008.jpg
1376.669	0.467	0	2back	Block3	2back/STIM_008.jpg
1380.465	0.488	0	2back	Block3	2back/STIM_008.jpg
1383.234	0.432	1	2back	Block3	2back/STIM_009.jpg
1386.836	0.434	1	2back	Block3	2back/STIM_009.jpg
1389.758	0.55	1	2back	Block3	2back/STIM_009.jpg
1393.803	0.412	1	2back	Block3	2back/STIM_010.jpg
1397.316	0.588	1	2back	Block3	2back/STIM_010.jpg
1401.218	0.51	1	2back	Block3	2back/STIM_010.jpg
1404.338	0.697	0	2back	Block3	2back/STIM_011.jpg
1408.168	0.531	1	2back	Block3	2back/STIM_011.jpg
1410.709	0.685	0	2back	Block3	2back/STIM_011.jpg
1414.328	0.451	0	2back	Block3	2back/STIM_012.jpg
1417.113	0.636	1	2back	Block3	2back/STIM_012.jpg
1420.007	0.467	0	2back	Block3	2back/STIM_012.jpg
1422.853	0.56	1	2back	Block3	2back/STIM_013.jpg
1427.411	0.325	1	2back	Block3	2back/STIM_013.jpg
1430.428	0.712	1	2back	Block3	2back/STIM_013.jpg
1434.857	0.437	1	2back	Block3	2back/STIM_014.jpg
1438.657	0.471	1	2back	Block3	2back/STIM_014.jpg
1441.692	0.425	1	2back	Block3	2back/STIM_014.jpg
1445.86	0.384	1	2back	Block3	2back/STIM_015.jpg
1449.986	0.492	1	2back	Block3	2back/STIM_015.jpg
1452.616	0.562	1	2back	Block3	2back/STIM_015.jpg
1455.752	0.501	1	2back	Block3	2back/STIM_016.jpg
1459.751	0.479	1	2back	Block3	2back/STIM_016.jpg
1462.706	0.377	1	2back	Block3	2back/STIM_016.jpg
1465.373	0.567	1	2back	Block3	2back/STIM_017.jpg
1468.023	0.386	1	2back	Block3	2back/STIM_017.jpg
1470.696	0.327	1	2back	Block3	2back/STIM_017.jpg
1473.466	0.436	0	2back	Block3	2back/STIM_018.jpg
1476.662	0.566	1	2back	Block3	2back/STIM_018.jpg
1480.119	0.688	1	2back	Block3	2back/STIM_018.jpg
1483.834	0.365	0	2back	Block3	2back/STIM_019.jpg
1486.365	0.667	1	2back	Block3	2back/STIM_019.jpg
1489.385	0.705	1	2back	Block3	2back/STIM_019.jpg
1493.528	0.331	0	2back	Block3	2back/STIM_020.jpg
1497.279	0.369	1	2back	Block3	2back/STIM_020.jpg
1500.195	0.493	1	2back	Block3	2back/STIM_020.jpg
1503.77	0.351	1	2back	Block3	2back/STIM_021.jpg
1506.292	0.673	1	2back	Block3	2back/STIM_021.jpg
1510.656	0.488	1	2back	Block3	2back/STIM_021.jpg
1513.94	0.72	1	2back	Block3	2back/STIM_022.jpg
1518.517	0.44	0	2back	Block3	2back/STIM_022.jpg
1521.695	0.359	0	2back	Block3	2back/STIM_022.jpg
1524.345	0.628	0	2back	Block3	2back/STIM_023.jpg
1527.525	0.481	0	2back	Block3	2back/STIM_023.jpg
1531.747	0.495	1	2back	Block3	2back/STIM_023.jpg
1534.556	0.729	1	2back	Block3	2back/STIM_024.jpg
1538.005	0.598	1	2back	Block3	2back/STIM_024.jpg
1540.605	0.604	1	2back	Block3	2back/STIM_024.jpg
1545.154	0.468	0	2back	Block3	2back/STIM_025.jpg
1548.483	0.621	1	2back	Block3	2back/STIM_025.jpg
1551.145	0.493	1	2back	Block3	2back/STIM_025.jpg
1555.052	0.725	1	2back	Block3	2back/STIM_026.jpg
1558.429	0.508	1	2back	Block3	2back/STIM_026.jpg
1561.738	0.494	0	2back	Block3	2back/STIM_026.jpg
1566.178	0.653	1	2back	Block3	2back/STIM_027.jpg
1569.852	0.332	1	2back	Block3	2back/STIM_027.jpg
1573.09	0.353	1	2back	Block3	2back/STIM_027.jpg
1576.457	0.414	1	2back	Block3	2back/STIM_028.jpg
1579.417	0.6	1	2back	Block3	2back/STIM_028.jpg
1582.476	0.387	1	2back	Block3	2back/STIM_028.jpg
1586.635	0.418	1	2back	Block3	2back/STIM_029.jpg
1590.191	0.424	0	2back	Block3	2back/STIM_029.jpg
1593.603	0.408	1	2back	Block3	2back/STIM_029.jpg
1596.34	0.455	1	2back	Block3	2back/STIM_030.jpg
1600.485	0.548	1	2back	Block3	2back/STIM_030.jpg
1603.116	0.6	1	2back	Block3	2back/STIM_030.jpg
1606.208	0.584	1	2back	Block3	2back/STIM_031.jpg
1609.328	0.434	1	2back	Block3	2back/STIM_031.jpg
1612.162	0.658	0	2back	Block3	2back/STIM_031.jpg
1616.422	0.466	1	2back	Block3	2back/STIM_032.jpg
1619.54	0.659	1	2back	Block3	2back/STIM_032.jpg
1622.299	0.393	1	2back	Block3	2back/STIM_032.jpg
1626.29	0.476	1	2back	Block3	2back/STIM_033.jpg
1629.367	0.53	1	2back	Block3	2back/STIM_033.jpg
1632.521	0.679	1	2back	Block3	2back/STIM_033.jpg
1635.659	0.691	1	2back	Block3	2back/STIM_034.jpg
1640.061	0.484	0	2back	Block3	2back/STIM_034.jpg
1642.627	0.685	1	2back	Block3	2back/STIM_034.jpg
1645.43	0.562	0	2back	Block3	2back/STIM_035.jpg
1649.766	0.658	1	2back	Block3	2back/STIM_035.jpg
1653.787	0.597	0	2back	Block3	2back/STIM_035.jpg
1658.09	0.329	1	2back	Block3	2back/STIM_036.jpg
1661.326	0.513	1	2back	Block3	2back/STIM_036.jpg
1665.728	0.66	1	2back	Block3	2back/STIM_036.jpg
1669.714	0.354	0	2back	Block3	2back/STIM_037.jpg
1673.155	0.317	0	2back	Block3	2back/STIM_037.jpg
1676.527	0.466	0	2back	Block3	2back/STIM_037.jpg
1679.889	0.404	0	2back	Block3	2back/STIM_038.jpg
1683.718	0.69	1	2back	Block3	2back/STIM_038.jpg
1687.104	0.603	1	2back	Block3	2back/STIM_038.jpg
1691.435	0.513	1	2back	Block3	2back/STIM_039.jpg
1695.739	0.506	1	2back	Block3	2back/STIM_039.jpg
1698.486	0.698	1	2back	Block3	2back/STIM_039.jpg
1701.329	0.503	1	0back	Block3	0back/STIM_000.jpg
1704.498	0.416	1	0back	Block3	0back/STIM_000.jpg
1707.747	0.512	1	0back	Block3	0back/STIM_000.jpg
1710.555	0.303	1	0back	Block3	0back/STIM_001.jpg
1713.15	0.348	0	0back	Block3	0back/STIM_001.jpg
1717.231	0.355	1	0back	Block3	0back/STIM_001.jpg
1721.569	0.457	1	0back	Block3	0back/STIM_002.jpg
1725.104	0.484	1	0back	Block3	0back/STIM_002.jpg
1729.466	0.45	0	0back	Block3	0back/STIM_002.jpg
1732.402	0.433	1	0back	Block3	0back/STIM_003.jpg
1735.369	0.45	1	0back	Block3	0back/STIM_003.jpg
1738.676	0.3	1	0back	Block3	0back/STIM_003.jpg
1741.576	0.402	1	0back	Block3	0back/STIM_004.jpg
1744.941	0.578	0	0back	Block3	0back/STIM_004.jpg
1748.467	0.442	0	0back	Block3	0back/STIM_004.jpg
1752.357	0.349	1	0back	Block3	0back/STIM_005.jpg
1756.336	0.568	0	0back	Block3	0back/STIM_005.jpg
1759.004	0.453	1	0back	Block3	0back/STIM_005.jpg
1761.952	0.446	1	0back	Block3	0back/STIM_006.jpg
1766.003	0.35	1	0back	Block3	0back/STIM_006.jpg
1768.602	0.527	0	0back	Block3	0back/STIM_006.jpg
1772.281	0.407	1	0back	Block3	0back/STIM_007.jpg
1775.366	0.392	1	0back	Block3	0back/STIM_007.jpg
1779.658	0.515	1	0back	Block3	0back/STIM_007.jpg
1782.23	0.322	1	0back	Block3	0back/STIM_008.jpg
1785.63	0.407	1	0back	Block3	0back/STIM_008.jpg
1789.279	0.454	1	0back	Block3	0back/STIM_008.jpg
1792.613	0.584	1	0back	Block3	0back/STIM_009.jpg
1796.447	0.506	1	0back	Block3	0back/STIM_009.jpg
1800.154	0.408	1	0back	Block3	0back/STIM_009.jpg
1803.253	0.384	1	0back	Block3	0back/STIM_010.jpg
1806.364	0.466	1	0back	Block3	0back/STIM_010.jpg
1810.605	0.428	1	0back	Block3	0back/STIM_010.jpg
1814.919	0.393	0	0back	Block3	0back/STIM_011.jpg
1819.092	0.406	0	0back	Block3	0back/STIM_011.jpg
1821.999	0.531	1	0back	Block3	0back/STIM_011.jpg
1826.115	0.587	1	0back	Block3	0back/STIM_012.jpg
1830.353	0.446	1	0back	Block3	0back/STIM_012.jpg
1834.029	0.475	1	0back	Block3	0back/STIM_012.jpg
1837.202	0.47	0	0back	Block3	0back/STIM_013.jpg
1841.294	0.353	1	0back	Block3	0back/STIM_013.jpg
1844.536	0.589	1	0back	Block3	0back/STIM_013.jpg
1847.913	0.319	0	0back	Block3	0back/STIM_014.jpg
1850.992	0.572	0	0back	Block3	0back/STIM_014.jpg
1855.373	0.424	1	0back	Block3	0back/STIM_014.jpg
1858.169	0.466	1	0back	Block3	0back/STIM_015.jpg
1861.828	0.402	0	0back	Block3	0back/STIM_015.jpg
1865.485	0.541	0	0back	Block3	0back/STIM_015.jpg
1868.495	0.463	1	0back	Block3	0back/STIM_016.jpg
1872.021	0.321	1	0back	Block3	0back/STIM_016.jpg
1876.204	0.594	1	0back	Block3	0back/STIM_016.jpg
1879.364	0.313	1	0back	Block3	0back/STIM_017.jpg
1883.546	0.431	1	0back	Block3	0back/STIM_017.jpg
1886.169	0.372	1	0back	Block3	0back/STIM_017.jpg
1889.384	0.409	1	0back	Block3	0back/STIM_018.jpg
1893.254	0.396	1	0back	Block3	0back/STIM_018.jpg
1896.223	0.427	1	0back	Block3	0back/STIM_018.jpg
1899.201	0.547	1	0back	Block3	0back/STIM_019.jpg
1901.993	0.37	1	0back	Block3	0back/STIM_019.jpg
1904.882	0.433	1	0back	Block3	0back/STIM_019.jpg
1907.759	0.565	0	2back	Block4	2back/STIM_000.jpg
1911.559	0.366	1	2back	Block4	2back/STIM_000.jpg
1914.55	0.368	1	2back	Block4	2back/STIM_000.jpg
1918.529	0.581	1	2back	Block4	2back/STIM_001.jpg
1921.259	0.479	1	2back	Block4	2back/STIM_001.jpg
1923.829	0.57	1	2back	Block4	2back/STIM_001.jpg
1927.017	0.387	1	2back	Block4	2back/STIM_002.jpg
1930.04	0.686	1	2back	Block4	2back/STIM_002.jpg
1934.419	0.32	1	2back	Block4	2back/STIM_002.jpg
1937.392	0.482	1	2back	Block4	2back/STIM_003.jpg
1940.972	0.59	0	2back	Block4	2back/STIM_003.jpg
1945.552	0.682	1	2back	Block4	2back/STIM_003.jpg
1948.604	0.418	1	2back	Block4	2back/STIM_004.jpg
1952.69	0.67	1	2back	Block4	2back/STIM_004.jpg
1956.552	0.628	1	2back	Block4	2back/STIM_004.jpg
1960.081	0.362	1	2back	Block4	2back/STIM_005.jpg
1963.39	0.398	1	2back	Block4	2back/STIM_005.jpg
1966.426	0.454	1	2back	Block4	2back/STIM_005.jpg
1969.544	0.687	1	2back	Block4	2back/STIM_006.jpg
1973.404	0.333	1	2back	Block4	2back/STIM_006.jpg
1976.745	0.554	1	2back	Block4	2back/STIM_006.jpg
1979.751	0.47	1	2back	Block4	2back/STIM_007.jpg
1983.819	0.523	1	2back	Block4	2back/STIM_007.jpg
1987.416	0.384	1	2back	Block4	2back/STIM_007.jpg
1989.867	0.418	0	2back	Block4	2back/STIM_008.jpg
1994.095	0.543	1	2back	Block4	2back/STIM_008.jpg
1997.194	0.628	1	2back	Block4	2back/STIM_008.jpg
2001.279	0.603	0	2back	Block4	2back/STIM_009.jpg
2005.253	0.656	1	2back	Block4	2back/STIM_009.jpg
2008.644	0.37	1	2back	Block4	2back/STIM_009.jpg
2012.382	0.68	0	2back	Block4	2back/STIM_010.jpg
2015.796	0.498	1	2back	Block4	2back/STIM_010.jpg
2019.18	0.342	1	2back	Block4	2back/STIM_010.jpg
2023.47	0.723	1	2back	Block4	2back/STIM_011.jpg
2026.439	0.391	1	2back	Block4	2back/STIM_011.jpg
2030.742	0.344	1	2back	Block4	2back/STIM_011.jpg
2033.68	0.73	0	2back	Block4	2back/STIM_012.jpg
2037.883	0.548	1	2back	Block4	2back/STIM_012.jpg
2042.33	0.341	1	2back	Block4	2back/STIM_012.jpg
2045.8	0.618	1	2back	Block4	2back/STIM_013.jpg
2048.903	0.384	0	2back	Block4	2back/STIM_013.jpg
2051.646	0.587	1	2back	Block4	2back/STIM_013.jpg
2055.1	0.707	0	2back	Block4	2back/STIM_014.jpg
2058.957	0.51	1	2back	Block4	2back/STIM_014.jpg
2061.531	0.58	1	2back	Block4	2back/STIM_014.jpg
2064.992	0.672	1	2back	Block4	2back/STIM_015.jpg
2067.704	0.612	1	2back	Block4	2back/STIM_015.jpg
2070.947	0.576	1	2back	Block4	2back/STIM_015.jpg
2075.005	0.457	1	2back	Block4	2back/STIM_016.jpg
2078.753	0.412	0	2back	Block4	2back/STIM_016.jpg
2081.634	0.398	1	2back	Block4	2back/STIM_016.jpg
2085.02	0.728	1	2back	Block4	2back/STIM_017.jpg
2088.657	0.317	1	2back	Block4	2back/STIM_017.jpg
2091.657	0.669	1	2back	Block4	2back/STIM_017.jpg
2095.245	0.665	0	2back	Block4	2back/STIM_018.jpg
2098.501	0.332	1	2back	Block4	2back/STIM_018.jpg
2101.067	0.352	0	2back	Block4	2back/STIM_018.jpg
2105.058	0.601	1	2back	Block4	2back/STIM_019.jpg
2108.994	0.341	1	2back	Block4	2back/STIM_019.jpg
2111.595	0.58	1	2back	Block4	2back/STIM_019.jpg
2115.445	0.674	0	2back	Block4	2back/STIM_020.jpg
2118.842	0.448	1	2back	Block4	2back/STIM_020.jpg
2122.345	0.533	1	2back	Block4	2back/STIM_020.jpg
2124.99	0.723	1	2back	Block4	2back/STIM_021.jpg
2128.614	0.358	0	2back	Block4	2back/STIM_021.jpg
2131.404	0.699	1	2back	Block4	2back/STIM_021.jpg
2135.173	0.519	1	2back	Block4	2back/STIM_022.jpg
2138.306	0.615	1	2back	Block4	2back/STIM_022.jpg
2141.249	0.55	1	2back	Block4	2back/STIM_022.jpg
2145.241	0.646	1	2back	Block4	2back/STIM_023.jpg
2149.36	0.319	0	2back	Block4	2back/STIM_023.jpg
2152.82	0.678	1	2back	Block4	2back/STIM_023.jpg
2156.785	0.381	1	2back	Block4	2back/STIM_024.jpg
2160.782	0.567	1	2back	Block4	2back/STIM_024.jpg
2164.468	0.418	1	2back	Block4	2back/STIM_024.jpg
2168.849	0.517	0	2back	Block4	2back/STIM_025.jpg
2171.907	0.33	1	2back	Block4	2back/STIM_025.jpg
2175.95	0.479	1	2back	Block4	2back/STIM_025.jpg
2179.333	0.627	0	2back	Block4	2back/STIM_026.jpg
2183.274	0.716	1	2back	Block4	2back/STIM_026.jpg
2186.442	0.553	1	2back	Block4	2back/STIM_026.jpg
2190.969	0.607	1	2back	Block4	2back/STIM_027.jpg
2194.832	0.395	1	2back	Block4	2back/STIM_027.jpg
2198.16	0.602	1	2back	Block4	2back/STIM_027.jpg
2202.246	0.709	0	2back	Block4	2back/STIM_028.jpg
2206.821	0.608	1	2back	Block4	2back/STIM_028.jpg
2211.207	0.484	1	2back	Block4	2back/STIM_028.jpg
2213.737	0.491	1	2back	Block4	2back/STIM_029.jpg
2217.825	0.449	1	2back	Block4	2back/STIM_029.jpg
2220.343	0.356	1	2back	Block4	2back/STIM_029.jpg
2222.902	0.388	1	2back	Block4	2back/STIM_030.jpg
2226.226	0.59	1	2back	Block4	2back/STIM_030.jpg
2229.728	0.534	0	2back	Block4	2back/STIM_030.jpg
2233.226	0.329	1	2back	Block4	2back/STIM_031.jpg
2235.598	0.35	1	2back	Block4	2back/STIM_031.jpg
2238.732	0.344	0	2back	Block4	2back/STIM_031.jpg
2241.197	0.353	1	2back	Block4	2back/STIM_032.jpg
2243.87	0.521	1	2back	Block4	2back/STIM_032.jpg
2246.475	0.552	1	2back	Block4	2back/STIM_032.jpg
2250.215	0.529	1	2back	Block4	2back/STIM_033.jpg
2253.577	0.501	0	2back	Block4	2back/STIM_033.jpg
2256.924	0.363	0	2back	Block4	2back/STIM_033.jpg
2260.062	0.619	1	2back	Block4	2back/STIM_034.jpg
2264.594	0.661	1	2back	Block4	2back/STIM_034.jpg
2268.968	0.643	1	2back	Block4	2back/STIM_034.jpg
2272.123	0.51	1	2back	Block4	2back/STIM_035.jpg
2275.2	0.418	1	2back	Block4	2back/STIM_035.jpg
2277.808	0.576	1	2back	Block4	2back/STIM_035.jpg
2281.027	0.43	1	2back	Block4	2back/STIM_036.jpg
2283.479	0.498	1	2back	Block4	2back/STIM_036.jpg
2287.244	0.685	1	2back	Block4	2back/STIM_036.jpg
2291.357	0.537	0	2back	Block4	2back/STIM_037.jpg
2295.283	0.336	1	2back	Block4	2back/STIM_037.jpg
2298.114	0.34	1	2back	Block4	2back/STIM_037.jpg
2301.471	0.731	0	2back	Block4	2back/STIM_038.jpg
2304.321	0.406	1	2back	Block4	2back/STIM_038.jpg
2308.38	0.682	1	2back	Block4	2back/STIM_038.jpg
2311.81	0.527	1	2back	Block4	2back/STIM_039.jpg
2315.254	0.447	1	2back	Block4	2back/STIM_039.jpg
2318.518	0.551	1	2back	Block4	2back/STIM_039.jpg
2321.492	0.599	1	0back	Block4	0back/STIM_000.jpg
2325.119	0.378	0	0back	Block4	0back/STIM_000.jpg
2328.73	0.558	1	0back	Block4	0back/STIM_000.jpg
2331.63	0.312	0	0back	Block4	0back/STIM_001.jpg
2335.061	0.516	0	0back	Block4	0back/STIM_001.jpg
2338.921	0.564	1	0back	Block4	0back/STIM_001.jpg
2343.037	0.562	1	0back	Block4	0back/STIM_002.jpg
2346.413	0.337	1	0back	Block4	0back/STIM_002.jpg
2350.095	0.526	1	0back	Block4	0back/STIM_002.jpg
2353.977	0.522	1	0back	Block4	0back/STIM_003.jpg
2357.556	0.302	0	0back	Block4	0back/STIM_003.jpg
2361.257	0.431	0	0back	Block4	0back/STIM_003.jpg
2364.065	0.491	1	0back	Block4	0back/STIM_004.jpg
2366.726	0.449	1	0back	Block4	0back/STIM_004.jpg
2370.267	0.488	1	0back	Block4	0back/STIM_004.jpg
2373.956	0.324	0	0back	Block4	0back/STIM_005.jpg
2377.077	0.384	1	0back	Block4	0back/STIM_005.jpg
2379.979	0.331	1	0back	Block4	0back/STIM_005.jpg
2383.234	0.45	0	0back	Block4	0back/STIM_006.jpg
2386.631	0.41	1	0back	Block4	0back/STIM_006.jpg
2389.437	0.571	1	0back	Block4	0back/STIM_006.jpg
2393.693	0.508	0	0back	Block4	0back/STIM_007.jpg
2397.601	0.537	1	0back	Block4	0back/STIM_007.jpg
2401.88	0.463	1	0back	Block4	0back/STIM_007.jpg
2405.528	0.576	1	0back	Block4	0back/STIM_008.jpg
2409.59	0.423	1	0back	Block4	0back/STIM_008.jpg
2412.122	0.555	1	0back	Block4	0back/STIM_008.jpg
2416.174	0.59	1	0back	Block4	0back/STIM_009.jpg
2419.901	0.569	1	0back	Block4	0back/STIM_009.jpg
2422.82	0.332	1	0back	Block4	0back/STIM_009.jpg
2426.686	0.374	0	0back	Block4	0back/STIM_010.jpg
2430.953	0.413	0	0back	Block4	0back/STIM_010.jpg
2435.198	0.368	0	0back	Block4	0back/STIM_010.jpg
2438.227	0.402	0	0back	Block4	0back/STIM_011.jpg
2442.217	0.488	0	0back	Block4	0back/STIM_011.jpg
2446.165	0.506	1	0back	Block4	0back/STIM_011.jpg
2450.291	0.516	0	0back	Block4	0back/STIM_012.jpg
2454.697	0.506	1	0back	Block4	0back/STIM_012.jpg
2458.025	0.44	1	0back	Block4	0back/STIM_012.jpg
2461.433	0.324	1	0back	Block4	0back/STIM_013.jpg
2465.407	0.406	1	0back	Block4	0back/STIM_013.jpg
2469.407	0.303	1	0back	Block4	0back/STIM_013.jpg
2471.993	0.451	0	0back	Block4	0back/STIM_014.jpg
2475.337	0.44	1	0back	Block4	0back/STIM_014.jpg
2479.176	0.417	1	0back	Block4	0back/STIM_014.jpg
2482.211	0.464	1	0back	Block4	0back/STIM_015.jpg
2486.076	0.597	0	0back	Block4	0back/STIM_015.jpg
2489.885	0.588	0	0back	Block4	0back/STIM_015.jpg
2492.86	0.451	1	0back	Block4	0back/STIM_016.jpg
2495.707	0.508	1	0back	Block4	0back/STIM_016.jpg
2499.136	0.3	1	0back	Block4	0back/STIM_016.jpg
2502.071	0.385	0	0back	Block4	0back/STIM_017.jpg
2506.312	0.587	1	0back	Block4	0back/STIM_017.jpg
2509.481	0.536	0	0back	Block4	0back/STIM_017.jpg
2513.211	0.506	1	0back	Block4	0back/STIM_018.jpg
2516.848	0.43	1	0back	Block4	0back/STIM_018.jpg
2521.04	0.4	1	0back	Block4	0back/STIM_018.jpg
2523.673	0.595	0	0back	Block4	0back/STIM_019.jpg
2526.521	0.375	0	0back	Block4	0back/STIM_019.jpg
2529.417	0.502	1	0back	Block4	0back/STIM_019.jpg
