onset	duration	accuracy	trial_type	learning_stage	stimulus
0.0	0.831	incorrect	2back	Block1	2back/STIM_000.jpg
3.329	1.007	correct	2back	Block1	2back/STIM_000.jpg
7.206	1.191	correct	2back	Block1	2back/STIM_000.jpg
12.129	1.134	correct	2back	Block1	2back/STIM_001.jpg
15.633	0.89	correct	2back	Block1	2back/STIM_001.jpg
20.558	0.77	correct	2back	Block1	2back/STIM_001.jpg
25.305	0.778	correct	2back	Block1	2back/STIM_002.jpg
29.786	1.069	correct	2back	Block1	2back/STIM_002.jpg
34.651	0.919	correct	2back	Block1	2back/STIM_002.jpg
38.497	0.598	correct	2back	Block1	2back/STIM_003.jpg
42.119	0.585	correct	2back	Block1	2back/STIM_003.jpg
45.129	0.884	correct	2back	Block1	2back/STIM_003.jpg
48.128	0.837	correct	2back	Block1	2back/STIM_004.jpg
52.766	0.65	correct	2back	Block1	2back/STIM_004.jpg
56.897	1.127	correct	2back	Block1	2back/STIM_004.jpg
61.264	1.071	correct	2back	Block1	2back/STIM_005.jpg
65.087	0.558	incorrect	2back	Block1	2back/STIM_005.jpg
69.273	1.175	correct	2back	Block1	2back/STIM_005.jpg
73.66	1.026	incorrect	2back	Block1	2back/STIM_006.jpg
77.154	1.224	correct	2back	Block1	2back/STIM_006.jpg
81.388	0.538	correct	2back	Block1	2back/STIM_006.jpg
84.648	0.725	correct	2back	Block1	2back/STIM_007.jpg
88.147	0.89	correct	2back	Block1	2back/STIM_007.jpg
91.563	0.791	correct	2back	Block1	2back/STIM_007.jpg
95.383	1.163	correct	2back	Block1	2back/STIM_008.jpg
99.379	1.224	incorrect	2back	Block1	2back/STIM_008.jpg
102.935	0.845	correct	2back	Block1	2back/STIM_008.jpg
106.117	1.074	incorrect	2back	Block1	2back/STIM_009.jpg
110.213	0.705	correct	2back	Block1	2back/STIM_009.jpg
114.468	0.99	correct	2back	Block1	2back/STIM_009.jpg
117.7	1.116	correct	2back	Block1	2back/STIM_010.jpg
121.551	0.858	correct	2back	Block1	2back/STIM_010.jpg
125.944	1.041	correct	2back	Block1	2back/STIM_010.jpg
130.9	0.863	correct	2back	Block1	2back/STIM_011.jpg
134.405	1.005	incorrect	2back	Block1	2back/STIM_011.jpg
138.178	1.094	correct	2back	Block1	2back/STIM_011.jpg
142.184	0.851	correct	2back	Block1	2back/STIM_012.jpg
145.857	0.834	correct	2back	Block1	2back/STIM_012.jpg
148.799	0.833	incorrect	2back	Block1	2back/STIM_012.jpg
151.739	0.917	correct	2back	Block1	2back/STIM_013.jpg
155.337	0.802	correct	2back	Block1	2back/STIM_013.jpg
158.834	0.623	incorrect	2back	Block1	2back/STIM_013.jpg
162.742	1.176	correct	2back	Block1	2back/STIM_014.jpg
167.571	1.107	correct	2back	Block1	2back/STIM_014.jpg
172.117	1.174	correct	2back	Block1	2back/STIM_014.jpg
176.225	1.264	correct	2back	Block1	2back/STIM_015.jpg
180.033	1.23	correct	2back	Block1	2back/STIM_015.jpg
184.874	0.954	incorrect	2back	Block1	2back/STIM_015.jpg
188.357	0.896	incorrect	2back	Block1	2back/STIM_016.jpg
192.556	1.016	correct	2back	Block1	2back/STIM_016.jpg
197.145	0.963	correct	2back	Block1	2back/STIM_016.jpg
200.985	1.039	incorrect	2back	Block1	2back/STIM_017.jpg
204.202	1.184	correct	2back	Block1	2back/STIM_017.jpg
208.998	0.814	incorrect	2back	Block1	2back/STIM_017.jpg
212.757	0.592	correct	2back	Block1	2back/STIM_018.jpg
215.686	0.929	incorrect	2back	Block1	2back/STIM_018.jpg
219.155	1.206	incorrect	2back	Block1	2back/STIM_018.jpg
222.885	1.088	correct	2back	Block1	2back/STIM_019.jpg
226.619	0.629	correct	2back	Block1	2back/STIM_019.jpg
230.804	0.635	correct	2back	Block1	2back/STIM_019.jpg
234.173	1.186	correct	2back	Block1	2back/STIM_020.jpg
238.225	1.009	correct	2back	Block1	2back/STIM_020.jpg
241.872	0.99	correct	2back	Block1	2back/STIM_020.jpg
245.867	0.884	incorrect	2back	Block1	2back/STIM_021.jpg
249.096	1.236	correct	2back	Block1	2back/STIM_021.jpg
253.11	0.844	correct	2back	Block1	2back/STIM_021.jpg
256.425	0.78	correct	2back	Block1	2back/STIM_022.jpg
259.362	1.104	correct	2back	Block1	2back/STIM_022.jpg
262.907	0.932	incorrect	2back	Block1	2back/STIM_022.jpg
267.563	0.904	correct	2back	Block1	2back/STIM_023.jpg
271.227	0.631	correct	2back	Block1	2back/STIM_023.jpg
275.358	0.756	correct	2back	Block1	2back/STIM_023.jpg
278.363	0.956	correct	2back	Block1	2back/STIM_024.jpg
282.973	0.638	incorrect	2back	Block1	2back/STIM_024.jpg
286.649	1.192	correct	2back	Block1	2back/STIM_024.jpg
290.031	1.306	incorrect	2back	Block1	2back/STIM_025.jpg
294.385	0.802	correct	2back	Block1	2back/STIM_025.jpg
297.821	0.712	correct	2back	Block1	2back/STIM_025.jpg
302.055	0.713	correct	2back	Block1	2back/STIM_026.jpg
305.288	0.846	correct	2back	Block1	2back/STIM_026.jpg
308.264	0.959	correct	2back	Block1	2back/STIM_026.jpg
312.349	1.292	correct	2back	Block1	2back/STIM_027.jpg
316.056	1.221	correct	2back	Block1	2back/STIM_027.jpg
321.131	0.69	correct	2back	Block1	2back/STIM_027.jpg
323.982	0.855	incorrect	2back	Block1	2back/STIM_028.jpg
327.728	1.002	correct	2back	Block1	2back/STIM_028.jpg
332.323	0.81	correct	2back	Block1	2back/STIM_028.jpg
337.028	0.672	incorrect	2back	Block1	2back/STIM_029.jpg
340.677	1.11	correct	2back	Block1	2back/STIM_029.jpg
345.3	0.751	correct	2back	Block1	2back/STIM_029.jpg
349.5	1.162	correct	2back	Block1	2back/STIM_030.jpg
353.797	0.892	correct	2back	Block1	2back/STIM_030.jpg
357.004	1.097	correct	2back	Block1	2back/STIM_030.jpg
361.794	0.913	incorrect	2back	Block1	2back/STIM_031.jpg
365.207	1.158	correct	2back	Block1	2back/STIM_031.jpg
368.494	1.116	correct	2back	Block1	2back/STIM_031.jpg
372.836	1.316	incorrect	2back	Block1	2back/STIM_032.jpg
378.122	0.794	correct	2back	Block1	2back/STIM_032.jpg
382.5	0.64	correct	2back	Block1	2back/STIM_032.jpg
387.029	0.622	correct	2back	Block1	2back/STIM_033.jpg
391.464	0.692	correct	2back	Block1	2back/STIM_033.jpg
395.17	1.191	correct	2back	Block1	2back/STIM_033.jpg
398.604	0.831	correct	2back	Block1	2back/STIM_034.jpg
402.944	0.948	correct	2back	Block1	2back/STIM_034.jpg
407.502	0.63	incorrect	2back	Block1	2back/STIM_034.jpg
410.577	0.702	correct	2back	Block1	2back/STIM_035.jpg
414.22	0.973	correct	2back	Block1	2back/STIM_035.jpg
417.487	0.623	correct	2back	Block1	2back/STIM_035.jpg
420.953	0.956	incorrect	2back	Block1	2back/STIM_036.jpg
424.078	0.591	correct	2back	Block1	2back/STIM_036.jpg
428.097	0.721	correct	2back	Block1	2back/STIM_036.jpg
432.639	1.031	correct	2back	Block1	2back/STIM_037.jpg
436.301	0.942	correct	2back	Block1	2back/STIM_037.jpg
439.51	1.082	correct	2back	Block1	2back/STIM_037.jpg
443.878	1.052	incorrect	2back	Block1	2back/STIM_038.jpg
448.746	0.602	correct	2back	Block1	2back/STIM_038.jpg
452.664	0.602	correct	2back	Block1	2back/STIM_038.jpg
455.96	0.734	incorrect	2back	Block1	2back/STIM_039.jpg
460.547	0.548	correct	2back	Block1	2back/STIM_039.jpg
464.772	0.866	correct	2back	Block1	2back/STIM_039.jpg
469.53	0.593	correct	0back	Block1	0back/STIM_000.jpg
472.42	0.543	correct	0back	Block1	0back/STIM_000.jpg
475.344	0.552	correct	0back	Block1	0back/STIM_000.jpg
478.872	0.565	correct	0back	Block1	0back/STIM_001.jpg
481.85	0.459	correct	0back	Block1	0back/STIM_001.jpg
486.27	0.635	correct	0back	Block1	0back/STIM_001.jpg
490.007	0.4	correct	0back	Block1	0back/STIM_002.jpg
493.251	0.452	correct	0back	Block1	0back/STIM_002.jpg
497.546	0.466	correct	0back	Block1	0back/STIM_002.jpg
500.11	0.405	correct	0back	Block1	0back/STIM_003.jpg
503.623	0.636	correct	0back	Block1	0back/STIM_003.jpg
507.953	0.388	correct	0back	Block1	0back/STIM_003.jpg
510.821	0.599	correct	0back	Block1	0back/STIM_004.jpg
514.538	0.711	correct	0back	Block1	0back/STIM_004.jpg
519.029	0.663	correct	0back	Block1	0back/STIM_004.jpg
522.576	0.389	correct	0back	Block1	0back/STIM_005.jpg
526.727	0.711	correct	0back	Block1	0back/STIM_005.jpg
530.258	0.438	correct	0back	Block1	0back/STIM_005.jpg
533.665	0.666	correct	0back	Block1	0back/STIM_006.jpg
536.876	0.732	correct	0back	Block1	0back/STIM_006.jpg
540.896	0.638	incorrect	0back	Block1	0back/STIM_006.jpg
543.785	0.46	correct	0back	Block1	0back/STIM_007.jpg
548.226	0.5	incorrect	0back	Block1	0back/STIM_007.jpg
552.348	0.511	correct	0back	Block1	0back/STIM_007.jpg
555.673	0.521	incorrect	0back	Block1	0back/STIM_008.jpg
558.252	0.61	correct	0back	Block1	0back/STIM_008.jpg
561.822	0.706	correct	0back	Block1	0back/STIM_008.jpg
566.184	0.71	correct	0back	Block1	0back/STIM_009.jpg
570.146	0.401	correct	0back	Block1	0back/STIM_009.jpg
573.998	0.724	correct	0back	Block1	0back/STIM_009.jpg
576.785	0.711	correct	0back	Block1	0back/STIM_010.jpg
579.955	0.431	correct	0back	Block1	0back/STIM_010.jpg
584.229	0.448	correct	0back	Block1	0back/STIM_010.jpg
587.305	0.633	correct	0back	Block1	0back/STIM_011.jpg
590.879	0.626	correct	0back	Block1	0back/STIM_011.jpg
595.048	0.659	correct	0back	Block1	0back/STIM_011.jpg
598.343	0.498	correct	0back	Block1	0back/STIM_012.jpg
601.825	0.76	correct	0back	Block1	0back/STIM_012.jpg
605.72	0.534	correct	0back	Block1	0back/STIM_012.jpg
609.981	0.465	correct	0back	Block1	0back/STIM_013.jpg
613.151	0.479	correct	0back	Block1	0back/STIM_013.jpg
616.647	0.389	correct	0back	Block1	0back/STIM_013.jpg
619.668	0.427	correct	0back	Block1	0back/STIM_014.jpg
623.069	0.711	correct	0back	Block1	0back/STIM_014.jpg
627.109	0.612	correct	0back	Block1	0back/STIM_014.jpg
631.081	0.686	correct	0back	Block1	0back/STIM_015.jpg
634.049	0.406	correct	0back	Block1	0back/STIM_015.jpg
637.807	0.671	correct	0back	Block1	0back/STIM_015.jpg
642.385	0.583	incorrect	0back	Block1	0back/STIM_016.jpg
645.228	0.671	correct	0back	Block1	0back/STIM_016.jpg
648.307	0.438	correct	0back	Block1	0back/STIM_016.jpg
651.746	0.767	correct	0back	Block1	0back/STIM_017.jpg
655.779	0.522	correct	0back	Block1	0back/STIM_017.jpg
658.593	0.439	correct	0back	Block1	0back/STIM_017.jpg
661.178	0.491	correct	0back	Block1	0back/STIM_018.jpg
664.665	0.446	correct	0back	Block1	0back/STIM_018.jpg
668.54	0.58	correct	0back	Block1	0back/STIM_018.jpg
672.709	0.704	correct	0back	Block1	0back/STIM_019.jpg
676.387	0.535	correct	0back	Block1	0back/STIM_019.jpg
679.616	0.659	correct	0back	Block1	0back/STIM_019.jpg
683.77	0.51	correct	2back	Block2	2back/STIM_000.jpg
686.586	0.811	correct	2back	Block2	2back/STIM_000.jpg
689.542	0.762	correct	2back	Block2	2back/STIM_000.jpg
692.595	1.14	correct	2back	Block2	2back/STIM_001.jpg
697.418	1.044	correct	2back	Block2	2back/STIM_001.jpg
701.389	0.997	incorrect	2back	Block2	2back/STIM_001.jpg
704.647	0.704	correct	2back	Block2	2back/STIM_002.jpg
709.356	0.524	correct	2back	Block2	2back/STIM_002.jpg
712.072	0.605	correct	2back	Block2	2back/STIM_002.jpg
716.52	0.76	correct	2back	Block2	2back/STIM_003.jpg
719.768	1.054	correct	2back	Block2	2back/STIM_003.jpg
723.193	0.743	correct	2back	Block2	2back/STIM_003.jpg
727.025	0.582	correct	2back	Block2	2back/STIM_004.jpg
730.726	1.031	correct	2back	Block2	2back/STIM_004.jpg
734.724	0.674	correct	2back	Block2	2back/STIM_004.jpg
739.2	0.816	correct	2back	Block2	2back/STIM_005.jpg
743.01	0.843	correct	2back	Block2	2back/STIM_005.jpg
747.572	0.618	correct	2back	Block2	2back/STIM_005.jpg
750.803	0.88	correct	2back	Block2	2back/STIM_006.jpg
753.75	0.768	correct	2back	Block2	2back/STIM_006.jpg
757.82	0.724	correct	2back	Block2	2back/STIM_006.jpg
761.811	0.635	correct	2back	Block2	2back/STIM_007.jpg
765.067	0.583	correct	2back	Block2	2back/STIM_007.jpg
768.562	0.731	incorrect	2back	Block2	2back/STIM_007.jpg
772.77	1.029	correct	2back	Block2	2back/STIM_008.jpg
776.492	0.853	incorrect	2back	Block2	2back/STIM_008.jpg
780.344	0.858	correct	2back	Block2	2back/STIM_008.jpg
783.524	0.868	correct	2back	Block2	2back/STIM_009.jpg
788.325	0.572	correct	2back	Block2	2back/STIM_009.jpg
791.93	0.642	correct	2back	Block2	2back/STIM_009.jpg
795.39	1.036	correct	2back	Block2	2back/STIM_010.jpg
799.963	0.66	correct	2back	Block2	2back/STIM_010.jpg
804.329	0.492	correct	2back	Block2	2back/STIM_010.jpg
808.502	0.568	correct	2back	Block2	2back/STIM_011.jpg
811.447	1.061	correct	2back	Block2	2back/STIM_011.jpg
814.852	0.725	correct	2back	Block2	2back/STIM_011.jpg
819.164	0.902	correct	2back	Block2	2back/STIM_012.jpg
823.683	0.492	correct	2back	Block2	2back/STIM_012.jpg
826.925	0.828	correct	2back	Block2	2back/STIM_012.jpg
830.586	1.091	correct	2back	Block2	2back/STIM_013.jpg
834.509	1.05	correct	2back	Block2	2back/STIM_013.jpg
838.933	0.654	correct	2back	Block2	2back/STIM_013.jpg
842.978	0.74	correct	2back	Block2	2back/STIM_014.jpg
847.198	0.914	correct	2back	Block2	2back/STIM_014.jpg
850.529	0.711	correct	2back	Block2	2back/STIM_014.jpg
854.491	1.09	correct	2back	Block2	2back/STIM_015.jpg
858.555	0.868	correct	2back	Block2	2back/STIM_015.jpg
862.727	0.854	correct	2back	Block2	2back/STIM_015.jpg
866.38	1.114	correct	2back	Block2	2back/STIM_016.jpg
869.94	0.849	correct	2back	Block2	2back/STIM_016.jpg
874.066	0.456	correct	2back	Block2	2back/STIM_016.jpg
877.887	0.979	correct	2back	Block2	2back/STIM_017.jpg
882.448	0.602	correct	2back	Block2	2back/STIM_017.jpg
885.453	0.865	correct	2back	Block2	2back/STIM_017.jpg
889.213	0.62	correct	2back	Block2	2back/STIM_018.jpg
892.197	0.979	correct	2back	Block2	2back/STIM_018.jpg
896.979	0.467	incorrect	2back	Block2	2back/STIM_018.jpg
899.798	0.704	correct	2back	Block2	2back/STIM_019.jpg
903.883	0.866	correct	2back	Block2	2back/STIM_019.jpg
907.95	0.66	correct	2back	Block2	2back/STIM_019.jpg
911.534	1.125	correct	2back	Block2	2back/STIM_020.jpg
916.086	0.464	correct	2back	Block2	2back/STIM_020.jpg
920.195	0.954	correct	2back	Block2	2back/STIM_020.jpg
923.797	0.968	correct	2back	Block2	2back/STIM_021.jpg
927.168	0.818	correct	2back	Block2	2back/STIM_021.jpg
931.207	0.621	correct	2back	Block2	2back/STIM_021.jpg
935.614	1.03	incorrect	2back	Block2	2back/STIM_022.jpg
940.103	0.754	correct	2back	Block2	2back/STIM_022.jpg
943.518	0.447	correct	2back	Block2	2back/STIM_022.jpg
947.932	0.859	correct	2back	Block2	2back/STIM_023.jpg
952.091	1.057	correct	2back	Block2	2back/STIM_023.jpg
956.262	0.68	correct	2back	Block2	2back/STIM_023.jpg
960.288	0.702	correct	2back	Block2	2back/STIM_024.jpg
963.092	0.633	correct	2back	Block2	2back/STIM_024.jpg
967.36	0.757	correct	2back	Block2	2back/STIM_024.jpg
970.646	0.522	correct	2back	Block2	2back/STIM_025.jpg
973.528	0.607	correct	2back	Block2	2back/STIM_025.jpg
976.632	0.772	correct	2back	Block2	2back/STIM_025.jpg
981.103	0.932	correct	2back	Block2	2back/STIM_026.jpg
984.791	0.983	correct	2back	Block2	2back/STIM_026.jpg
987.986	0.767	correct	2back	Block2	2back/STIM_026.jpg
991.013	1.124	correct	2back	Block2	2back/STIM_027.jpg
994.541	0.627	correct	2back	Block2	2back/STIM_027.jpg
999.14	0.642	correct	2back	Block2	2back/STIM_027.jpg
1002.677	0.516	correct	2back	Block2	2back/STIM_028.jpg
1006.638	0.592	correct	2back	Block2	2back/STIM_028.jpg
1010.525	0.84	correct	2back	Block2	2back/STIM_028.jpg
1013.483	0.537	correct	2back	Block2	2back/STIM_029.jpg
1016.723	0.969	correct	2back	Block2	2back/STIM_029.jpg
1020.916	0.959	correct	2back	Block2	2back/STIM_029.jpg
1024.755	0.823	correct	2back	Block2	2back/STIM_030.jpg
1029.186	0.521	correct	2back	Block2	2back/STIM_030.jpg
1032.167	0.618	correct	2back	Block2	2back/STIM_030.jpg
1036.575	0.55	correct	2back	Block2	2back/STIM_031.jpg
1040.446	1.02	correct	2back	Block2	2back/STIM_031.jpg
1045.432	0.775	correct	2back	Block2	2back/STIM_031.jpg
1048.786	0.698	correct	2back	Block2	2back/STIM_032.jpg
1052.035	0.84	correct	2back	Block2	2back/STIM_032.jpg
1055.101	0.499	correct	2back	Block2	2back/STIM_032.jpg
1058.187	0.494	correct	2back	Block2	2back/STIM_033.jpg
1062.217	0.8	incorrect	2back	Block2	2back/STIM_033.jpg
1066.726	0.767	correct	2back	Block2	2back/STIM_033.jpg
1071.426	1.05	correct	2back	Block2	2back/STIM_034.jpg
1075.943	0.803	correct	2back	Block2	2back/STIM_034.jpg
1079.337	0.611	correct	2back	Block2	2back/STIM_034.jpg
1082.772	0.639	correct	2back	Block2	2back/STIM_035.jpg
1086.401	0.471	correct	2back	Block2	2back/STIM_035.jpg
1089.895	0.872	correct	2back	Block2	2back/STIM_035.jpg
1094.388	1.019	correct	2back	Block2	2back/STIM_036.jpg
1098.653	0.864	correct	2back	Block2	2back/STIM_036.jpg
1102.965	0.476	correct	2back	Block2	2back/STIM_036.jpg
1107.374	0.683	correct	2back	Block2	2back/STIM_037.jpg
1111.126	0.486	correct	2back	Block2	2back/STIM_037.jpg
1113.952	0.772	correct	2back	Block2	2back/STIM_037.jpg
1117.0	0.576	correct	2back	Block2	2back/STIM_038.jpg
1120.907	0.763	correct	2back	Block2	2back/STIM_038.jpg
1124.403	0.837	correct	2back	Block2	2back/STIM_038.jpg
1127.498	1.118	correct	2back	Block2	2back/STIM_039.jpg
1130.952	0.748	correct	2back	Block2	2back/STIM_039.jpg
1135.349	0.549	correct	2back	Block2	2back/STIM_039.jpg
1139.256	0.726	correct	0back	Block2	0back/STIM_000.jpg
1142.135	0.694	incorrect	0back	Block2	0back/STIM_000.jpg
1145.86	0.679	correct	0back	Block2	0back/STIM_000.jpg
1149.958	0.745	incorrect	0back	Block2	0back/STIM_001.jpg
1152.813	0.623	correct	0back	Block2	0back/STIM_001.jpg
1156.204	0.702	correct	0back	Block2	0back/STIM_001.jpg
1159.99	0.751	correct	0back	Block2	0back/STIM_002.jpg
1163.178	0.501	incorrect	0back	Block2	0back/STIM_002.jpg
1166.209	0.526	correct	0back	Block2	0back/STIM_002.jpg
1170.134	0.445	correct	0back	Block2	0back/STIM_003.jpg
1173.252	0.566	incorrect	0back	Block2	0back/STIM_003.jpg
1177.221	0.68	correct	0back	Block2	0back/STIM_003.jpg
1180.949	0.548	correct	0back	Block2	0back/STIM_004.jpg
1184.614	0.678	correct	0back	Block2	0back/STIM_004.jpg
1188.611	0.404	correct	0back	Block2	0back/STIM_004.jpg
1192.952	0.593	correct	0back	Block2	0back/STIM_005.jpg
1196.072	0.501	correct	0back	Block2	0back/STIM_005.jpg
1200.296	0.699	correct	0back	Block2	0back/STIM_005.jpg
1204.678	0.704	correct	0back	Block2	0back/STIM_006.jpg
1207.954	0.514	correct	0back	Block2	0back/STIM_006.jpg
1211.606	0.688	correct	0back	Block2	0back/STIM_006.jpg
1216.028	0.685	correct	0back	Block2	0back/STIM_007.jpg
1219.366	0.481	correct	0back	Block2	0back/STIM_007.jpg
1222.936	0.481	incorrect	0back	Block2	0back/STIM_007.jpg
1226.068	0.507	correct	0back	Block2	0back/STIM_008.jpg
1229.7	0.402	correct	0back	Block2	0back/STIM_008.jpg
1233.77	0.737	correct	0back	Block2	0back/STIM_008.jpg
1236.932	0.538	correct	0back	Block2	0back/STIM_009.jpg
1241.048	0.508	correct	0back	Block2	0back/STIM_009.jpg
1245.423	0.61	correct	0back	Block2	0back/STIM_009.jpg
1248.546	0.738	correct	0back	Block2	0back/STIM_010.jpg
1251.672	0.478	correct	0back	Block2	0back/STIM_010.jpg
1255.534	0.596	correct	0back	Block2	0back/STIM_010.jpg
1259.567	0.491	incorrect	0back	Block2	0back/STIM_011.jpg
1262.405	0.451	correct	0back	Block2	0back/STIM_011.jpg
1265.906	0.555	correct	0back	Block2	0back/STIM_011.jpg
1269.609	0.421	correct	0back	Block2	0back/STIM_012.jpg
1272.367	0.573	correct	0back	Block2	0back/STIM_012.jpg
1276.424	0.568	incorrect	0back	Block2	0back/STIM_012.jpg
1280.877	0.561	correct	0back	Block2	0back/STIM_013.jpg
1283.516	0.631	correct	0back	Block2	0back/STIM_013.jpg
1286.833	0.657	correct	0back	Block2	0back/STIM_013.jpg
1290.339	0.408	correct	0back	Block2	0back/STIM_014.jpg
1293.558	0.751	correct	0back	Block2	0back/STIM_014.jpg
1296.802	0.755	correct	0back	Block2	0back/STIM_014.jpg
1300.617	0.486	correct	0back	Block2	0back/STIM_015.jpg
1304.901	0.545	incorrect	0back	Block2	0back/STIM_015.jpg
1307.685	0.539	correct	0back	Block2	0back/STIM_015.jpg
1311.841	0.396	correct	0back	Block2	0back/STIM_016.jpg
1315.972	0.563	correct	0back	Block2	0back/STIM_016.jpg
1318.813	0.729	correct	0back	Block2	0back/STIM_016.jpg
1322.473	0.683	correct	0back	Block2	0back/STIM_017.jpg
1325.711	0.469	correct	0back	Block2	0back/STIM_017.jpg
1329.373	0.396	correct	0back	Block2	0back/STIM_017.jpg
1333.004	0.532	correct	0back	Block2	0back/STIM_018.jpg
1337.453	0.731	correct	0back	Block2	0back/STIM_018.jpg
1342.164	0.516	correct	0back	Block2	0back/STIM_018.jpg
1345.458	0.586	correct	0back	Block2	0back/STIM_019.jpg
1348.259	0.666	correct	0back	Block2	0back/STIM_019.jpg
1351.37	0.64	correct	0back	Block2	0back/STIM_019.jpg
1354.601	0.854	correct	2back	Block3	2back/STIM_000.jpg
1359.215	0.574	correct	2back	Block3	2back/STIM_000.jpg
1362.886	0.858	correct	2back	Block3	2back/STIM_000.jpg
1366.853	0.549	correct	2back	Block3	2back/STIM_001.jpg
1370.938	0.529	correct	2back	Block3	2back/STIM_001.jpg
1374.852	0.907	correct	2back	Block3	2back/STIM_001.jpg
1379.53	0.529	correct	2back	Block3	2back/STIM_002.jpg
1383.46	0.449	correct	2back	Block3	2back/STIM_002.jpg
1385.97	0.466	correct	2back	Block3	2back/STIM_002.jpg
1389.546	0.648	correct	2back	Block3	2back/STIM_003.jpg
1393.421	0.689	correct	2back	Block3	2back/STIM_003.jpg
1397.244	0.712	correct	2back	Block3	2back/STIM_003.jpg
1400.928	0.667	correct	2back	Block3	2back/STIM_004.jpg
1404.875	0.726	correct	2back	Block3	2back/STIM_004.jpg
1408.194	0.706	correct	2back	Block3	2back/STIM_004.jpg
1411.467	0.631	correct	2back	Block3	2back/STIM_005.jpg
1415.154	0.869	correct	2back	Block3	2back/STIM_005.jpg
1418.556	0.79	correct	2back	Block3	2back/STIM_005.jpg
1422.308	0.484	correct	2back	Block3	2back/STIM_006.jpg
1425.997	0.65	correct	2back	Block3	2back/STIM_006.jpg
1429.721	0.913	correct	2back	Block3	2back/STIM_006.jpg
1433.22	0.926	correct	2back	Block3	2back/STIM_007.jpg
1437.567	0.433	correct	2back	Block3	2back/STIM_007.jpg
1440.77	0.936	correct	2back	Block3	2back/STIM_007.jpg
1444.892	0.836	correct	2back	Block3	2back/STIM_008.jpg
1448.071	0.426	correct	2back	Block3	2back/STIM_008.jpg
1452.48	0.647	correct	2back	Block3	2back/STIM_008.jpg
1456.185	0.84	correct	2back	Block3	2back/STIM_009.jpg
1460.616	0.484	correct	2back	Block3	2back/STIM_009.jpg
1464.851	0.619	correct	2back	Block3	2back/STIM_009.jpg
1468.138	0.769	correct	2back	Block3	2back/STIM_010.jpg
1471.7	0.553	correct	2back	Block3	2back/STIM_010.jpg
1474.841	0.58	correct	2back	Block3	2back/STIM_010.jpg
1477.632	0.682	correct	2back	Block3	2back/STIM_011.jpg
1481.585	0.832	correct	2back	Block3	2back/STIM_011.jpg
1485.46	0.803	correct	2back	Block3	2back/STIM_011.jpg
1489.775	0.455	correct	2back	Block3	2back/STIM_012.jpg
1493.101	0.739	correct	2back	Block3	2back/STIM_012.jpg
1495.962	0.555	correct	2back	Block3	2back/STIM_012.jpg
1499.015	0.662	correct	2back	Block3	2back/STIM_013.jpg
1502.348	0.612	correct	2back	Block3	2back/STIM_013.jpg
1506.184	0.581	correct	2back	Block3	2back/STIM_013.jpg
1509.291	0.933	correct	2back	Block3	2back/STIM_014.jpg
1512.936	0.806	correct	2back	Block3	2back/STIM_014.jpg
1516.366	0.642	correct	2back	Block3	2back/STIM_014.jpg
1520.343	0.463	correct	2back	Block3	2back/STIM_015.jpg
1523.057	0.468	correct	2back	Block3	2back/STIM_015.jpg
1526.405	0.602	correct	2back	Block3	2back/STIM_015.jpg
1529.797	0.897	correct	2back	Block3	2back/STIM_016.jpg
1532.898	0.91	correct	2back	Block3	2back/STIM_016.jpg
1536.918	0.479	correct	2back	Block3	2back/STIM_016.jpg
1540.037	0.714	correct	2back	Block3	2back/STIM_017.jpg
1544.035	0.753	correct	2back	Block3	2back/STIM_017.jpg
1548.421	0.854	correct	2back	Block3	2back/STIM_017.jpg
1552.157	0.856	correct	2back	Block3	2back/STIM_018.jpg
1556.123	0.899	correct	2back	Block3	2back/STIM_018.jpg
1559.55	0.869	correct	2back	Block3	2back/STIM_018.jpg
1562.831	0.553	correct	2back	Block3	2back/STIM_019.jpg
1567.276	0.513	correct	2back	Block3	2back/STIM_019.jpg
1569.818	0.455	correct	2back	Block3	2back/STIM_019.jpg
1573.476	0.716	correct	2back	Block3	2back/STIM_020.jpg
1576.432	0.521	correct	2back	Block3	2back/STIM_020.jpg
1579.568	0.863	correct	2back	Block3	2back/STIM_020.jpg
1583.542	0.595	correct	2back	Block3	2back/STIM_021.jpg
1587.651	0.738	correct	2back	Block3	2back/STIM_021.jpg
1590.97	0.491	correct	2back	Block3	2back/STIM_021.jpg
1593.575	0.832	correct	2back	Block3	2back/STIM_022.jpg
1596.717	0.563	correct	2back	Block3	2back/STIM_022.jpg
1600.344	0.415	correct	2back	Block3	2back/STIM_022.jpg
1603.573	0.842	correct	2back	Block3	2back/STIM_023.jpg
1606.518	0.404	correct	2back	Block3	2back/STIM_023.jpg
1609.834	0.547	correct	2back	Block3	2back/STIM_023.jpg
1614.043	0.838	correct	2back	Block3	2back/STIM_024.jpg
1617.673	0.763	correct	2back	Block3	2back/STIM_024.jpg
1621.655	0.785	correct	2back	Block3	2back/STIM_024.jpg
1626.087	0.773	correct	2back	Block3	2back/STIM_025.jpg
1630.869	0.921	correct	2back	Block3	2back/STIM_025.jpg
1634.412	0.56	correct	2back	Block3	2back/STIM_025.jpg
1638.878	0.729	correct	2back	Block3	2back/STIM_026.jpg
1642.82	0.736	correct	2back	Block3	2back/STIM_026.jpg
1645.678	0.47	correct	2back	Block3	2back/STIM_026.jpg
1648.777	0.875	correct	2back	Block3	2back/STIM_027.jpg
1653.666	0.585	correct	2back	Block3	2back/STIM_027.jpg
1656.487	0.871	correct	2back	Block3	2back/STIM_027.jpg
1660.694	0.621	correct	2back	Block3	2back/STIM_028.jpg
1664.235	0.724	correct	2back	Block3	2back/STIM_028.jpg
1668.44	0.855	correct	2back	Block3	2back/STIM_028.jpg
1672.079	0.413	correct	2back	Block3	2back/STIM_029.jpg
1674.929	0.916	incorrect	2back	Block3	2back/STIM_029.jpg
1678.143	0.425	correct	2back	Block3	2back/STIM_029.jpg
1681.793	0.93	correct	2back	Block3	2back/STIM_030.jpg
1685.844	0.538	correct	2back	Block3	2back/STIM_030.jpg
1690.061	0.623	correct	2back	Block3	2back/STIM_030.jpg
1693.759	0.595	correct	2back	Block3	2back/STIM_031.jpg
1697.295	0.756	correct	2back	Block3	2back/STIM_031.jpg
1700.126	0.747	correct	2back	Block3	2back/STIM_031.jpg
1704.764	0.919	correct	2back	Block3	2back/STIM_032.jpg
1708.172	0.59	correct	2back	Block3	2back/STIM_032.jpg
1711.726	0.914	correct	2back	Block3	2back/STIM_032.jpg
1714.711	0.771	correct	2back	Block3	2back/STIM_033.jpg
1718.719	0.72	correct	2back	Block3	2back/STIM_033.jpg
1723.01	0.808	correct	2back	Block3	2back/STIM_033.jpg
1726.906	0.837	correct	2back	Block3	2back/STIM_034.jpg
1731.482	0.768	correct	2back	Block3	2back/STIM_034.jpg
1735.349	0.425	correct	2back	Block3	2back/STIM_034.jpg
1738.9	0.485	correct	2back	Block3	2back/STIM_035.jpg
1741.422	0.467	correct	2back	Block3	2back/STIM_035.jpg
1744.471	0.541	incorrect	2back	Block3	2back/STIM_035.jpg
1748.345	0.52	correct	2back	Block3	2back/STIM_036.jpg
1751.166	0.633	correct	2back	Block3	2back/STIM_036.jpg
1755.224	0.448	correct	2back	Block3	2back/STIM_036.jpg
1758.674	0.597	correct	2back	Block3	2back/STIM_037.jpg
1761.489	0.805	correct	2back	Block3	2back/STIM_037.jpg
1765.725	0.618	correct	2back	Block3	2back/STIM_037.jpg
1770.244	0.689	incorrect	2back	Block3	2back/STIM_038.jpg
1773.911	0.738	correct	2back	Block3	2back/STIM_038.jpg
1778.536	0.763	correct	2back	Block3	2back/STIM_038.jpg
1782.813	0.82	correct	2back	Block3	2back/STIM_039.jpg
1786.551	0.569	correct	2back	Block3	2back/STIM_039.jpg
1790.957	0.599	correct	2back	Block3	2back/STIM_039.jpg
1794.739	0.428	correct	0back	Block3	0back/STIM_000.jpg
1798.13	0.703	correct	0back	Block3	0back/STIM_000.jpg
1801.921	0.446	correct	0back	Block3	0back/STIM_000.jpg
1804.687	0.503	correct	0back	Block3	0back/STIM_001.jpg
1808.024	0.397	correct	0back	Block3	0back/STIM_001.jpg
1811.893	0.628	correct	0back	Block3	0back/STIM_001.jpg
1816.006	0.602	correct	0back	Block3	0back/STIM_002.jpg
1818.777	0.664	correct	0back	Block3	0back/STIM_002.jpg
1822.239	0.671	correct	0back	Block3	0back/STIM_002.jpg
1825.875	0.502	correct	0back	Block3	0back/STIM_003.jpg
1829.149	0.715	correct	0back	Block3	0back/STIM_003.jpg
1832.278	0.433	correct	0back	Block3	0back/STIM_003.jpg
1835.025	0.654	correct	0back	Block3	0back/STIM_004.jpg
1838.408	0.746	correct	0back	Block3	0back/STIM_004.jpg
1842.022	0.757	correct	0back	Block3	0back/STIM_004.jpg
1845.876	0.698	correct	0back	Block3	0back/STIM_005.jpg
1849.707	0.748	correct	0back	Block3	0back/STIM_005.jpg
1854.39	0.605	correct	0back	Block3	0back/STIM_005.jpg
1857.81	0.76	correct	0back	Block3	0back/STIM_006.jpg
1860.819	0.559	correct	0back	Block3	0back/STIM_006.jpg
1864.656	0.7	correct	0back	Block3	0back/STIM_006.jpg
1868.07	0.734	correct	0back	Block3	0back/STIM_007.jpg
1871.339	0.629	correct	0back	Block3	0back/STIM_007.jpg
1875.794	0.488	correct	0back	Block3	0back/STIM_007.jpg
1879.66	0.423	correct	0back	Block3	0back/STIM_008.jpg
1883.772	0.662	correct	0back	Block3	0back/STIM_008.jpg
1887.243	0.408	correct	0back	Block3	0back/STIM_008.jpg
1890.673	0.676	correct	0back	Block3	0back/STIM_009.jpg
1895.295	0.545	correct	0back	Block3	0back/STIM_009.jpg
1898.344	0.466	correct	0back	Block3	0back/STIM_009.jpg
1902.028	0.582	correct	0back	Block3	0back/STIM_010.jpg
1906.616	0.744	correct	0back	Block3	0back/STIM_010.jpg
1909.643	0.718	correct	0back	Block3	0back/STIM_010.jpg
1913.766	0.438	correct	0back	Block3	0back/STIM_011.jpg
1916.252	0.586	correct	0back	Block3	0back/STIM_011.jpg
1919.131	0.42	correct	0back	Block3	0back/STIM_011.jpg
1921.686	0.53	correct	0back	Block3	0back/STIM_012.jpg
1924.685	0.473	correct	0back	Block3	0back/STIM_012.jpg
1927.699	0.706	correct	0back	Block3	0back/STIM_012.jpg
1932.37	0.642	correct	0back	Block3	0back/STIM_013.jpg
1936.987	0.681	correct	0back	Block3	0back/STIM_013.jpg
1940.755	0.568	correct	0back	Block3	0back/STIM_013.jpg
1944.363	0.411	correct	0back	Block3	0back/STIM_014.jpg
1947.959	0.401	incorrect	0back	Block3	0back/STIM_014.jpg
1952.174	0.699	correct	0back	Block3	0back/STIM_014.jpg
1956.219	0.625	correct	0back	Block3	0back/STIM_015.jpg
1960.614	0.61	correct	0back	Block3	0back/STIM_015.jpg
1965.104	0.592	correct	0back	Block3	0back/STIM_015.jpg
1969.191	0.438	correct	0back	Block3	0back/STIM_016.jpg
1973.373	0.405	correct	0back	Block3	0back/STIM_016.jpg
1977.592	0.627	correct	0back	Block3	0back/STIM_016.jpg
1982.114	0.419	correct	0back	Block3	0back/STIM_017.jpg
1985.782	0.746	correct	0back	Block3	0back/STIM_017.jpg
1989.985	0.473	correct	0back	Block3	0back/STIM_017.jpg
1994.219	0.488	correct	0back	Block3	0back/STIM_018.jpg
1996.755	0.47	correct	0back	Block3	0back/STIM_018.jpg
1999.367	0.636	correct	0back	Block3	0back/STIM_018.jpg
2003.522	0.387	correct	0back	Block3	0back/STIM_019.jpg
2006.558	0.482	correct	0back	Block3	0back/STIM_019.jpg
2009.377	0.511	correct	0back	Block3	0back/STIM_019.jpg
2012.318	0.872	correct	2back	Block4	2back/STIM_000.jpg
2016.565	0.548	correct	2back	Block4	2back/STIM_000.jpg
2020.678	0.422	correct	2back	Block4	2back/STIM_000.jpg
2023.732	0.661	correct	2back	Block4	2back/STIM_001.jpg
2026.432	0.784	correct	2back	Block4	2back/STIM_001.jpg
2030.669	0.488	correct	2back	Block4	2back/STIM_001.jpg
2033.974	0.881	correct	2back	Block4	2back/STIM_002.jpg
2037.117	0.486	correct	2back	Block4	2back/STIM_002.jpg
2041.257	0.718	correct	2back	Block4	2back/STIM_002.jpg
2044.566	0.733	correct	2back	Block4	2back/STIM_003.jpg
2048.696	0.697	correct	2back	Block4	2back/STIM_003.jpg
2052.258	0.619	correct	2back	Block4	2back/STIM_003.jpg
2055.056	0.765	correct	2back	Block4	2back/STIM_004.jpg
2057.958	0.479	correct	2back	Block4	2back/STIM_004.jpg
2060.922	0.732	correct	2back	Block4	2back/STIM_004.jpg
2064.642	0.757	correct	2back	Block4	2back/STIM_005.jpg
2068.581	0.463	correct	2back	Block4	2back/STIM_005.jpg
2071.875	0.698	correct	2back	Block4	2back/STIM_005.jpg
2075.258	0.777	correct	2back	Block4	2back/STIM_006.jpg
2079.655	0.835	correct	2back	Block4	2back/STIM_006.jpg
2084.122	0.47	correct	2back	Block4	2back/STIM_006.jpg
2087.143	0.936	correct	2back	Block4	2back/STIM_007.jpg
2090.774	0.428	correct	2back	Block4	2back/STIM_007.jpg
2094.076	0.808	correct	2back	Block4	2back/STIM_007.jpg
2097.582	0.939	correct	2back	Block4	2back/STIM_008.jpg
2100.841	0.794	correct	2back	Block4	2back/STIM_008.jpg
2103.729	0.935	correct	2back	Block4	2back/STIM_008.jpg
2108.426	0.73	correct	2back	Block4	2back/STIM_009.jpg
2112.936	0.654	correct	2back	Block4	2back/STIM_009.jpg
2116.74	0.93	correct	2back	Block4	2back/STIM_009.jpg
2120.931	0.414	correct	2back	Block4	2back/STIM_010.jpg
2124.63	0.9	correct	2back	Block4	2back/STIM_010.jpg
2128.858	0.752	correct	2back	Block4	2back/STIM_010.jpg
2132.323	0.874	correct	2back	Block4	2back/STIM_011.jpg
2136.828	0.628	correct	2back	Block4	2back/STIM_011.jpg
2140.818	0.779	correct	2back	Block4	2back/STIM_011.jpg
2143.896	0.498	incorrect	2back	Block4	2back/STIM_012.jpg
2147.885	0.912	correct	2back	Block4	2back/STIM_012.jpg
2151.945	0.472	correct	2back	Block4	2back/STIM_012.jpg
2154.708	0.418	correct	2back	Block4	2back/STIM_013.jpg
2158.592	0.887	correct	2back	Block4	2back/STIM_013.jpg
2163.173	0.757	correct	2back	Block4	2back/STIM_013.jpg
2166.408	0.502	incorrect	2back	Block4	2back/STIM_014.jpg
2169.331	0.8	correct	2back	Block4	2back/STIM_014.jpg
2172.634	0.461	correct	2back	Block4	2back/STIM_014.jpg
2176.211	0.512	correct	2back	Block4	2back/STIM_015.jpg
2180.04	0.707	correct	2back	Block4	2back/STIM_015.jpg
2183.347	0.523	correct	2back	Block4	2back/STIM_015.jpg
2187.793	0.874	correct	2back	Block4	2back/STIM_016.jpg
2191.279	0.548	correct	2back	Block4	2back/STIM_016.jpg
2195.1	0.812	correct	2back	Block4	2back/STIM_016.jpg
2198.328	0.852	correct	2back	Block4	2back/STIM_017.jpg
2202.319	0.478	correct	2back	Block4	2back/STIM_017.jpg
2205.852	0.476	correct	2back	Block4	2back/STIM_017.jpg
2208.356	0.939	correct	2back	Block4	2back/STIM_018.jpg
2212.249	0.611	correct	2back	Block4	2back/STIM_018.jpg
2215.857	0.613	correct	2back	Block4	2back/STIM_018.jpg
2220.082	0.925	correct	2back	Block4	2back/STIM_019.jpg
2223.125	0.568	correct	2back	Block4	2back/STIM_019.jpg
2226.588	0.926	correct	2back	Block4	2back/STIM_019.jpg
2229.569	0.432	correct	2back	Block4	2back/STIM_020.jpg
2233.82	0.919	correct	2back	Block4	2back/STIM_020.jpg
2237.933	0.848	correct	2back	Block4	2back/STIM_020.jpg
2242.304	0.446	correct	2back	Block4	2back/STIM_021.jpg
2245.228	0.723	correct	2back	Block4	2back/STIM_021.jpg
2249.527	0.596	correct	2back	Block4	2back/STIM_021.jpg
2252.777	0.914	correct	2back	Block4	2back/STIM_022.jpg
2256.707	0.555	correct	2back	Block4	2back/STIM_022.jpg
2259.751	0.571	correct	2back	Block4	2back/STIM_022.jpg
2262.89	0.627	correct	2back	Block4	2back/STIM_023.jpg
2266.352	0.937	incorrect	2back	Block4	2back/STIM_023.jpg
2269.806	0.602	correct	2back	Block4	2back/STIM_023.jpg
2273.634	0.743	correct	2back	Block4	2back/STIM_024.jpg
2276.607	0.801	correct	2back	Block4	2back/STIM_024.jpg
2281.057	0.418	correct	2back	Block4	2back/STIM_024.jpg
2285.359	0.704	correct	2back	Block4	2back/STIM_025.jpg
2289.588	0.848	correct	2back	Block4	2back/STIM_025.jpg
2294.461	0.57	correct	2back	Block4	2back/STIM_025.jpg
2298.165	0.749	correct	2back	Block4	2back/STIM_026.jpg
2301.267	0.466	correct	2back	Block4	2back/STIM_026.jpg
2305.059	0.578	correct	2back	Block4	2back/STIM_026.jpg
2308.512	0.535	correct	2back	Block4	2back/STIM_027.jpg
2312.145	0.528	correct	2back	Block4	2back/STIM_027.jpg
2316.341	0.79	correct	2back	Block4	2back/STIM_027.jpg
2321.125	0.846	correct	2back	Block4	2back/STIM_028.jpg
2324.753	0.729	correct	2back	Block4	2back/STIM_028.jpg
2327.591	0.817	correct	2back	Block4	2back/STIM_028.jpg
2331.371	0.434	correct	2back	Block4	2back/STIM_029.jpg
2335.229	0.583	correct	2back	Block4	2back/STIM_029.jpg
2339.495	0.658	correct	2back	Block4	2back/STIM_029.jpg
2342.389	0.474	correct	2back	Block4	2back/STIM_030.jpg
2346.603	0.532	correct	2back	Block4	2back/STIM_030.jpg
2349.467	0.672	correct	2back	Block4	2back/STIM_030.jpg
2352.476	0.484	correct	2back	Block4	2back/STIM_031.jpg
2356.73	0.507	correct	2back	Block4	2back/STIM_031.jpg
2360.048	0.87	correct	2back	Block4	2back/STIM_031.jpg
2364.574	0.848	correct	2back	Block4	2back/STIM_032.jpg
2369.448	0.912	correct	2back	Block4	2back/STIM_032.jpg
2372.41	0.537	correct	2back	Block4	2back/STIM_032.jpg
2375.824	0.874	correct	2back	Block4	2back/STIM_033.jpg
2378.895	0.886	correct	2back	Block4	2back/STIM_033.jpg
2382.848	0.661	correct	2back	Block4	2back/STIM_033.jpg
2386.634	0.886	correct	2back	Block4	2back/STIM_034.jpg
2390.907	0.88	correct	2back	Block4	2back/STIM_034.jpg
2394.67	0.849	correct	2back	Block4	2back/STIM_034.jpg
2397.935	0.912	correct	2back	Block4	2back/STIM_035.jpg
2401.964	0.745	correct	2back	Block4	2back/STIM_035.jpg
2404.924	0.446	correct	2back	Block4	2back/STIM_035.jpg
2408.975	0.525	correct	2back	Block4	2back/STIM_036.jpg
2411.724	0.504	correct	2back	Block4	2back/STIM_036.jpg
2415.981	0.713	correct	2back	Block4	2back/STIM_036.jpg
2420.717	0.758	correct	2back	Block4	2back/STIM_037.jpg
2423.669	0.438	correct	2back	Block4	2back/STIM_037.jpg
2427.631	0.407	correct	2back	Block4	2back/STIM_037.jpg
2431.493	0.786	incorrect	2back	Block4	2back/STIM_038.jpg
2435.585	0.507	correct	2back	Block4	2back/STIM_038.jpg
2438.428	0.599	correct	2back	Block4	2back/STIM_038.jpg
2442.814	0.472	correct	2back	Block4	2back/STIM_039.jpg
2446.643	0.776	correct	2back	Block4	2back/STIM_039.jpg
2450.792	0.44	correct	2back	Block4	2back/STIM_039.jpg
2453.265	0.748	correct	0back	Block4	0back/STIM_000.jpg
2457.724	0.578	correct	0back	Block4	0back/STIM_000.jpg
2461.635	0.391	correct	0back	Block4	0back/STIM_000.jpg
2464.544	0.468	correct	0back	Block4	0back/STIM_001.jpg
2468.472	0.474	correct	0back	Block4	0back/STIM_001.jpg
2472.153	0.575	correct	0back	Block4	0back/STIM_001.jpg
2476.34	0.485	correct	0back	Block4	0back/STIM_002.jpg
2479.781	0.384	correct	0back	Block4	0back/STIM_002.jpg
2482.233	0.566	correct	0back	Block4	0back/STIM_002.jpg
2484.884	0.663	correct	0back	Block4	0back/STIM_003.jpg
2488.17	0.68	correct	0back	Block4	0back/STIM_003.jpg
2492.562	0.714	correct	0back	Block4	0back/STIM_003.jpg
2495.393	0.523	correct	0back	Block4	0back/STIM_004.jpg
2498.259	0.399	correct	0back	Block4	0back/STIM_004.jpg
2501.044	0.545	correct	0back	Block4	0back/STIM_004.jpg
2504.829	0.392	correct	0back	Block4	0back/STIM_005.jpg
2508.846	0.521	correct	0back	Block4	0back/STIM_005.jpg
2512.273	0.722	correct	0back	Block4	0back/STIM_005.jpg
2516.5	0.437	correct	0back	Block4	0back/STIM_006.jpg
2519.051	0.531	correct	0back	Block4	0back/STIM_006.jpg
2522.841	0.432	correct	0back	Block4	0back/STIM_006.jpg
2526.663	0.456	correct	0back	Block4	0back/STIM_007.jpg
2529.573	0.712	correct	0back	Block4	0back/STIM_007.jpg
2533.788	0.725	correct	0back	Block4	0back/STIM_007.jpg
2537.483	0.559	correct	0back	Block4	0back/STIM_008.jpg
2540.919	0.675	correct	0back	Block4	0back/STIM_008.jpg
2543.809	0.597	correct	0back	Block4	0back/STIM_008.jpg
2546.78	0.708	correct	0back	Block4	0back/STIM_009.jpg
2550.01	0.591	correct	0back	Block4	0back/STIM_009.jpg
2554.053	0.408	correct	0back	Block4	0back/STIM_009.jpg
2557.455	0.72	correct	0back	Block4	0back/STIM_010.jpg
2561.964	0.487	correct	0back	Block4	0back/STIM_010.jpg
2565.931	0.635	correct	0back	Block4	0back/STIM_010.jpg
2569.525	0.469	correct	0back	Block4	0back/STIM_011.jpg
2573.645	0.686	correct	0back	Block4	0back/STIM_011.jpg
2578.04	0.678	correct	0back	Block4	0back/STIM_011.jpg
2582.236	0.455	correct	0back	Block4	0back/STIM_012.jpg
2585.999	0.6	correct	0back	Block4	0back/STIM_012.jpg
2590.327	0.639	correct	0back	Block4	0back/STIM_012.jpg
2593.123	0.742	correct	0back	Block4	0back/STIM_013.jpg
2597.732	0.423	correct	0back	Block4	0back/STIM_013.jpg
2600.246	0.468	correct	0back	Block4	0back/STIM_013.jpg
2604.63	0.608	correct	0back	Block4	0back/STIM_014.jpg
2607.707	0.485	correct	0back	Block4	0back/STIM_014.jpg
2611.444	0.627	correct	0back	Block4	0back/STIM_014.jpg
2614.278	0.674	correct	0back	Block4	0back/STIM_015.jpg
2618.444	0.466	correct	0back	Block4	0back/STIM_015.jpg
2622.567	0.574	correct	0back	Block4	0back/STIM_015.jpg
2626.778	0.632	correct	0back	Block4	0back/STIM_016.jpg
2630.289	0.63	correct	0back	Block4	0back/STIM_016.jpg
2634.091	0.437	correct	0back	Block4	0back/STIM_016.jpg
2637.017	0.543	correct	0back	Block4	0back/STIM_017.jpg
2640.965	0.595	correct	0back	Block4	0back/STIM_017.jpg
2645.067	0.629	correct	0back	Block4	0back/STIM_017.jpg
2647.992	0.526	correct	0back	Block4	0back/STIM_018.jpg
2651.876	0.55	correct	0back	Block4	0back/STIM_018.jpg
2656.013	0.395	correct	0back	Block4	0back/STIM_018.jpg
2660.073	0.618	correct	0back	Block4	0back/STIM_019.jpg
2664.584	0.737	correct	0back	Block4	0back/STIM_019.jpg
2667.665	0.478	correct	0back	Block4	0back/STIM_019.jpg
