onset	duration	response_time_ms	trial_type	learning_stage	stimulus	response_port
0.0	0.831	830.6	2back	Block1	2back/STIM_000.jpg	99
3.329	1.007	1007.1	2back	Block1	2back/STIM_000.jpg	100
7.206	1.191	1190.7	2back	Block1	2back/STIM_000.jpg	99
12.129	1.134	1133.8	2back	Block1	2back/STIM_001.jpg	100
15.633	0.89	890.4	2back	Block1	2back/STIM_001.jpg	99
20.558	0.77	769.8	2back	Block1	2back/STIM_001.jpg	100
25.305	0.778	777.6	2back	Block1	2back/STIM_002.jpg	99
29.786	1.069	1069.3	2back	Block1	2back/STIM_002.jpg	100
34.651	0.919	919.4	2back	Block1	2back/STIM_002.jpg	100
38.497	0.598	598.2	2back	Block1	2back/STIM_003.jpg	100
42.119	0.585	584.7	2back	Block1	2back/STIM_003.jpg	99
45.129	0.884	883.9	2back	Block1	2back/STIM_003.jpg	100
48.128	0.837	836.8	2back	Block1	2back/STIM_004.jpg	99
52.766	0.65	649.5	2back	Block1	2back/STIM_004.jpg	99
56.897	1.127	1126.9	2back	Block1	2back/STIM_004.jpg	99
61.264	1.071	1070.7	2back	Block1	2back/STIM_005.jpg	99
65.087	0.558	557.8	2back	Block1	2back/STIM_005.jpg	99
69.273	1.175	1175.3	2back	Block1	2back/STIM_005.jpg	100
73.66	1.026	1025.8	2back	Block1	2back/STIM_006.jpg	99
77.154	1.224	1224.5	2back	Block1	2back/STIM_006.jpg	99
81.388	0.538	538.2	2back	Block1	2back/STIM_006.jpg	99
84.648	0.725	725.1	2back	Block1	2back/STIM_007.jpg	100
88.147	0.89	890.3	2back	Block1	2back/STIM_007.jpg	100
91.563	0.791	791.3	2back	Block1	2back/STIM_007.jpg	99
95.383	1.163	1162.8	2back	Block1	2back/STIM_008.jpg	99
99.379	1.224	1224.5	2back	Block1	2back/STIM_008.jpg	100
102.935	0.845	845.2	2back	Block1	2back/STIM_008.jpg	100
106.117	1.074	1074.0	2back	Block1	2back/STIM_009.jpg	99
110.213	0.705	704.6	2back	Block1	2back/STIM_009.jpg	100
114.468	0.99	989.9	2back	Block1	2back/STIM_009.jpg	99
117.7	1.116	1115.6	2back	Block1	2back/STIM_010.jpg	99
121.551	0.858	858.1	2back	Block1	2back/STIM_010.jpg	99
125.944	1.041	1041.3	2back	Block1	2back/STIM_010.jpg	99
130.9	0.863	863.0	2back	Block1	2back/STIM_011.jpg	99
134.405	1.005	1004.7	2back	Block1	2back/STIM_011.jpg	99
138.178	1.094	1094.1	2back	Block1	2back/STIM_011.jpg	100
142.184	0.851	851.0	2back	Block1	2back/STIM_012.jpg	99
145.857	0.834	833.9	2back	Block1	2back/STIM_012.jpg	100
148.799	0.833	832.8	2back	Block1	2back/STIM_012.jpg	100
151.739	0.917	917.2	2back	Block1	2back/STIM_013.jpg	99
155.337	0.802	801.7	2back	Block1	2back/STIM_013.jpg	99
158.834	0.623	622.9	2back	Block1	2back/STIM_013.jpg	100
162.742	1.176	1175.8	2back	Block1	2back/STIM_014.jpg	100
167.571	1.107	1106.7	2back	Block1	2back/STIM_014.jpg	100
172.117	1.174	1174.0	2back	Block1	2back/STIM_014.jpg	99
176.225	1.264	1263.7	2back	Block1	2back/STIM_015.jpg	100
180.033	1.23	1230.1	2back	Block1	2back/STIM_015.jpg	100
184.874	0.954	954.5	2back	Block1	2back/STIM_015.jpg	99
188.357	0.896	896.5	2back	Block1	2back/STIM_016.jpg	99
192.556	1.016	1015.9	2back	Block1	2back/STIM_016.jpg	99
197.145	0.963	962.6	2back	Block1	2back/STIM_016.jpg	100
200.985	1.039	1039.1	2back	Block1	2back/STIM_017.jpg	99
204.202	1.184	1183.6	2back	Block1	2back/STIM_017.jpg	99
208.998	0.814	814.2	2back	Block1	2back/STIM_017.jpg	99
212.757	0.592	592.0	2back	Block1	2back/STIM_018.jpg	99
215.686	0.929	929.2	2back	Block1	2back/STIM_018.jpg	99
219.155	1.206	1205.6	2back	Block1	2back/STIM_018.jpg	99
222.885	1.088	1088.0	2back	Block1	2back/STIM_019.jpg	100
226.619	0.629	629.2	2back	Block1	2back/STIM_019.jpg	100
230.804	0.635	634.6	2back	Block1	2back/STIM_019.jpg	100
234.173	1.186	1186.2	2back	Block1	2back/STIM_020.jpg	99
238.225	1.009	1008.6	2back	Block1	2back/STIM_020.jpg	100
241.872	0.99	989.7	2back	Block1	2back/STIM_020.jpg	99
245.867	0.884	883.5	2back	Block1	2back/STIM_021.jpg	100
249.096	1.236	1235.9	2back	Block1	2back/STIM_021.jpg	100
253.11	0.844	843.8	2back	Block1	2back/STIM_021.jpg	99
256.425	0.78	780.1	2back	Block1	2back/STIM_022.jpg	100
259.362	1.104	1103.9	2back	Block1	2back/STIM_022.jpg	100
262.907	0.932	931.9	2back	Block1	2back/STIM_022.jpg	100
267.563	0.904	904.5	2back	Block1	2back/STIM_023.jpg	99
271.227	0.631	631.1	2back	Block1	2back/STIM_023.jpg	100
275.358	0.756	755.5	2back	Block1	2back/STIM_023.jpg	100
278.363	0.956	955.9	2back	Block1	2back/STIM_024.jpg	99
282.973	0.638	638.0	2back	Block1	2back/STIM_024.jpg	99
286.649	1.192	1192.1	2back	Block1	2back/STIM_024.jpg	100
290.031	1.306	1305.9	2back	Block1	2back/STIM_025.jpg	100
294.385	0.802	801.6	2back	Block1	2back/STIM_025.jpg	100
297.821	0.712	711.6	2back	Block1	2back/STIM_025.jpg	100
302.055	0.713	712.7	2back	Block1	2back/STIM_026.jpg	99
305.288	0.846	846.1	2back	Block1	2back/STIM_026.jpg	100
308.264	0.959	959.0	2back	Block1	2back/STIM_026.jpg	100
312.349	1.292	1292.5	2back	Block1	2back/STIM_027.jpg	99
316.056	1.221	1220.8	2back	Block1	2back/STIM_027.jpg	99
321.131	0.69	690.1	2back	Block1	2back/STIM_027.jpg	100
323.982	0.855	855.1	2back	Block1	2back/STIM_028.jpg	99
327.728	1.002	1001.9	2back	Block1	2back/STIM_028.jpg	100
332.323	0.81	810.2	2back	Block1	2back/STIM_028.jpg	99
337.028	0.672	672.2	2back	Block1	2back/STIM_029.jpg	100
340.677	1.11	1110.2	2back	Block1	2back/STIM_029.jpg	100
345.3	0.751	751.0	2back	Block1	2back/STIM_029.jpg	100
349.5	1.162	1162.0	2back	Block1	2back/STIM_030.jpg	99
353.797	0.892	892.4	2back	Block1	2back/STIM_030.jpg	100
357.004	1.097	1097.0	2back	Block1	2back/STIM_030.jpg	100
361.794	0.913	913.4	2back	Block1	2back/STIM_031.jpg	100
365.207	1.158	1157.7	2back	Block1	2back/STIM_031.jpg	99
368.494	1.116	1115.5	2back	Block1	2back/STIM_031.jpg	99
372.836	1.316	1315.6	2back	Block1	2back/STIM_032.jpg	99
378.122	0.794	794.3	2back	Block1	2back/STIM_032.jpg	100
382.5	0.64	639.8	2back	Block1	2back/STIM_032.jpg	100
387.029	0.622	621.5	2back	Block1	2back/STIM_033.jpg	100
391.464	0.692	692.2	2back	Block1	2back/STIM_033.jpg	99
395.17	1.191	1191.2	2back	Block1	2back/STIM_033.jpg	100
398.604	0.831	831.3	2back	Block1	2back/STIM_034.jpg	100
402.944	0.948	948.3	2back	Block1	2back/STIM_034.jpg	100
407.502	0.63	630.4	2back	Block1	2back/STIM_034.jpg	99
410.577	0.702	702.1	2back	Block1	2back/STIM_035.jpg	100
414.22	0.973	973.1	2back	Block1	2back/STIM_035.jpg	100
417.487	0.623	623.0	2back	Block1	2back/STIM_035.jpg	99
420.953	0.956	956.0	2back	Block1	2back/STIM_036.jpg	100
424.078	0.591	590.8	2back	Block1	2back/STIM_036.jpg	99
428.097	0.721	721.0	2back	Block1	2back/STIM_036.jpg	100
432.639	1.031	1031.2	2back	Block1	2back/STIM_037.jpg	100
436.301	0.942	941.5	2back	Block1	2back/STIM_037.jpg	100
439.51	1.082	1081.7	2back	Block1	2back/STIM_037.jpg	99
443.878	1.052	1052.1	2back	Block1	2back/STIM_038.jpg	100
448.746	0.602	602.2	2back	Block1	2back/STIM_038.jpg	100
452.664	0.602	601.8	2back	Block1	2back/STIM_038.jpg	99
455.96	0.734	733.6	2back	Block1	2back/STIM_039.jpg	100
460.547	0.548	548.1	2back	Block1	2back/STIM_039.jpg	99
464.772	0.866	866.2	2back	Block1	2back/STIM_039.jpg	100
469.53	0.593	593.3	0back	Block1	0back/STIM_000.jpg	99
472.42	0.543	543.4	0back	Block1	0back/STIM_000.jpg	99
475.344	0.552	551.5	0back	Block1	0back/STIM_000.jpg	100
478.872	0.565	564.7	0back	Block1	0back/STIM_001.jpg	99
481.85	0.459	458.6	0back	Block1	0back/STIM_001.jpg	100
486.27	0.635	635.3	0back	Block1	0back/STIM_001.jpg	100
490.007	0.4	399.7	0back	Block1	0back/STIM_002.jpg	99
493.251	0.452	452.5	0back	Block1	0back/STIM_002.jpg	99
497.546	0.466	466.3	0back	Block1	0back/STIM_002.jpg	100
500.11	0.405	404.8	0back	Block1	0back/STIM_003.jpg	100
503.623	0.636	636.0	0back	Block1	0back/STIM_003.jpg	100
507.953	0.388	387.8	0back	Block1	0back/STIM_003.jpg	99
510.821	0.599	599.0	0back	Block1	0back/STIM_004.jpg	100
514.538	0.711	711.0	0back	Block1	0back/STIM_004.jpg	99
519.029	0.663	662.7	0back	Block1	0back/STIM_004.jpg	100
522.576	0.389	389.3	0back	Block1	0back/STIM_005.jpg	100
526.727	0.711	710.6	0back	Block1	0back/STIM_005.jpg	100
530.258	0.438	437.9	0back	Block1	0back/STIM_005.jpg	99
533.665	0.666	666.4	0back	Block1	0back/STIM_006.jpg	100
536.876	0.732	732.5	0back	Block1	0back/STIM_006.jpg	100
540.896	0.638	638.5	0back	Block1	0back/STIM_006.jpg	99
543.785	0.46	459.5	0back	Block1	0back/STIM_007.jpg	99
548.226	0.5	499.8	0back	Block1	0back/STIM_007.jpg	99
552.348	0.511	511.4	0back	Block1	0back/STIM_007.jpg	99
555.673	0.521	521.3	0back	Block1	0back/STIM_008.jpg	100
558.252	0.61	610.3	0back	Block1	0back/STIM_008.jpg	100
561.822	0.706	705.8	0back	Block1	0back/STIM_008.jpg	100
566.184	0.71	709.9	0back	Block1	0back/STIM_009.jpg	100
570.146	0.401	401.4	0back	Block1	0back/STIM_009.jpg	99
573.998	0.724	724.2	0back	Block1	0back/STIM_009.jpg	100
576.785	0.711	711.1	0back	Block1	0back/STIM_010.jpg	100
579.955	0.431	430.8	0back	Block1	0back/STIM_010.jpg	99
584.229	0.448	447.8	0back	Block1	0back/STIM_010.jpg	99
587.305	0.633	633.1	0back	Block1	0back/STIM_011.jpg	99
590.879	0.626	626.4	0back	Block1	0back/STIM_011.jpg	100
595.048	0.659	658.8	0back	Block1	0back/STIM_011.jpg	99
598.343	0.498	497.7	0back	Block1	0back/STIM_012.jpg	99
601.825	0.76	759.9	0back	Block1	0back/STIM_012.jpg	99
605.72	0.534	534.0	0back	Block1	0back/STIM_012.jpg	100
609.981	0.465	465.0	0back	Block1	0back/STIM_013.jpg	100
613.151	0.479	479.1	0back	Block1	0back/STIM_013.jpg	99
616.647	0.389	389.4	0back	Block1	0back/STIM_013.jpg	99
619.668	0.427	427.3	0back	Block1	0back/STIM_014.jpg	100
623.069	0.711	711.1	0back	Block1	0back/STIM_014.jpg	99
627.109	0.612	611.9	0back	Block1	0back/STIM_014.jpg	100
631.081	0.686	685.7	0back	Block1	0back/STIM_015.jpg	100
634.049	0.406	406.4	0back	Block1	0back/STIM_015.jpg	99
637.807	0.671	670.9	0back	Block1	0back/STIM_015.jpg	100
642.385	0.583	582.7	0back	Block1	0back/STIM_016.jpg	100
645.228	0.671	671.4	0back	Block1	0back/STIM_016.jpg	99
648.307	0.438	438.3	0back	Block1	0back/STIM_016.jpg	100
651.746	0.767	766.8	0back	Block1	0back/STIM_017.jpg	100
655.779	0.522	522.3	0back	Block1	0back/STIM_017.jpg	99
658.593	0.439	438.8	0back	Block1	0back/STIM_017.jpg	100
661.178	0.491	491.3	0back	Block1	0back/STIM_018.jpg	100
664.665	0.446	446.5	0back	Block1	0back/STIM_018.jpg	100
668.54	0.58	580.0	0back	Block1	0back/STIM_018.jpg	100
672.709	0.704	703.6	0back	Block1	0back/STIM_019.jpg	100
676.387	0.535	534.6	0back	Block1	0back/STIM_019.jpg	100
679.616	0.659	659.4	0back	Block1	0back/STIM_019.jpg	99
683.77	0.51	509.6	2back	Block2	2back/STIM_000.jpg	100
686.586	0.811	811.3	2back	Block2	2back/STIM_000.jpg	99
689.542	0.762	762.0	2back	Block2	2back/STIM_000.jpg	99
692.595	1.14	1140.1	2back	Block2	2back/STIM_001.jpg	99
697.418	1.044	1043.9	2back	Block2	2back/STIM_001.jpg	100
701.389	0.997	996.8	2back	Block2	2back/STIM_001.jpg	99
704.647	0.704	703.8	2back	Block2	2back/STIM_002.jpg	100
709.356	0.524	523.6	2back	Block2	2back/STIM_002.jpg	100
712.072	0.605	605.0	2back	Block2	2back/STIM_002.jpg	100
716.52	0.76	759.9	2back	Block2	2back/STIM_003.jpg	100
719.768	1.054	1054.0	2back	Block2	2back/STIM_003.jpg	100
723.193	0.743	743.2	2back	Block2	2back/STIM_003.jpg	99
727.025	0.582	581.7	2back	Block2	2back/STIM_004.jpg	99
730.726	1.031	1031.4	2back	Block2	2back/STIM_004.jpg	100
734.724	0.674	674.5	2back	Block2	2back/STIM_004.jpg	99
739.2	0.816	816.1	2back	Block2	2back/STIM_005.jpg	99
743.01	0.843	842.9	2back	Block2	2back/STIM_005.jpg	99
747.572	0.618	618.4	2back	Block2	2back/STIM_005.jpg	100
750.803	0.88	880.0	2back	Block2	2back/STIM_006.jpg	100
753.75	0.768	768.1	2back	Block2	2back/STIM_006.jpg	100
757.82	0.724	723.6	2back	Block2	2back/STIM_006.jpg	99
761.811	0.635	634.9	2back	Block2	2back/STIM_007.jpg	99
765.067	0.583	582.8	2back	Block2	2back/STIM_007.jpg	99
768.562	0.731	731.1	2back	Block2	2back/STIM_007.jpg	100
772.77	1.029	1028.9	2back	Block2	2back/STIM_008.jpg	99
776.492	0.853	852.6	2back	Block2	2back/STIM_008.jpg	99
780.344	0.858	857.9	2back	Block2	2back/STIM_008.jpg	100
783.524	0.868	867.8	2back	Block2	2back/STIM_009.jpg	99
788.325	0.572	571.7	2back	Block2	2back/STIM_009.jpg	100
791.93	0.642	642.3	2back	Block2	2back/STIM_009.jpg	100
795.39	1.036	1036.2	2back	Block2	2back/STIM_010.jpg	99
799.963	0.66	660.0	2back	Block2	2back/STIM_010.jpg	99
804.329	0.492	491.8	2back	Block2	2back/STIM_010.jpg	99
808.502	0.568	567.5	2back	Block2	2back/STIM_011.jpg	100
811.447	1.061	1061.1	2back	Block2	2back/STIM_011.jpg	100
814.852	0.725	725.4	2back	Block2	2back/STIM_011.jpg	100
819.164	0.902	901.7	2back	Block2	2back/STIM_012.jpg	100
823.683	0.492	491.8	2back	Block2	2back/STIM_012.jpg	99
826.925	0.828	828.1	2back	Block2	2back/STIM_012.jpg	99
830.586	1.091	1091.3	2back	Block2	2back/STIM_013.jpg	99
834.509	1.05	1049.9	2back	Block2	2back/STIM_013.jpg	99
838.933	0.654	653.7	2back	Block2	2back/STIM_013.jpg	99
842.978	0.74	740.0	2back	Block2	2back/STIM_014.jpg	100
847.198	0.914	913.8	2back	Block2	2back/STIM_014.jpg	100
850.529	0.711	711.3	2back	Block2	2back/STIM_014.jpg	100
854.491	1.09	1090.4	2back	Block2	2back/STIM_015.jpg	100
858.555	0.868	867.9	2back	Block2	2back/STIM_015.jpg	100
862.727	0.854	854.0	2back	Block2	2back/STIM_015.jpg	99
866.38	1.114	1114.0	2back	Block2	2back/STIM_016.jpg	100
869.94	0.849	849.4	2back	Block2	2back/STIM_016.jpg	100
874.066	0.456	456.4	2back	Block2	2back/STIM_016.jpg	100
877.887	0.979	979.0	2back	Block2	2back/STIM_017.jpg	100
882.448	0.602	602.5	2back	Block2	2back/STIM_017.jpg	99
885.453	0.865	865.1	2back	Block2	2back/STIM_017.jpg	100
889.213	0.62	620.5	2back	Block2	2back/STIM_018.jpg	100
892.197	0.979	978.9	2back	Block2	2back/STIM_018.jpg	100
896.979	0.467	467.2	2back	Block2	2back/STIM_018.jpg	100
899.798	0.704	704.2	2back	Block2	2back/STIM_019.jpg	100
903.883	0.866	866.2	2back	Block2	2back/STIM_019.jpg	99
907.95	0.66	659.8	2back	Block2	2back/STIM_019.jpg	100
911.534	1.125	1125.3	2back	Block2	2back/STIM_020.jpg	99
916.086	0.464	463.9	2back	Block2	2back/STIM_020.jpg	100
920.195	0.954	954.2	2back	Block2	2back/STIM_020.jpg	100
923.797	0.968	967.5	2back	Block2	2back/STIM_021.jpg	100
927.168	0.818	818.3	2back	Block2	2back/STIM_021.jpg	100
931.207	0.621	620.7	2back	Block2	2back/STIM_021.jpg	100
935.614	1.03	1030.1	2back	Block2	2back/STIM_022.jpg	100
940.103	0.754	754.5	2back	Block2	2back/STIM_022.jpg	99
943.518	0.447	447.0	2back	Block2	2back/STIM_022.jpg	99
947.932	0.859	859.3	2back	Block2	2back/STIM_023.jpg	99
952.091	1.057	1057.1	2back	Block2	2back/STIM_023.jpg	99
956.262	0.68	680.3	2back	Block2	2back/STIM_023.jpg	99
960.288	0.702	702.0	2back	Block2	2back/STIM_024.jpg	100
963.092	0.633	633.3	2back	Block2	2back/STIM_024.jpg	100
967.36	0.757	757.2	2back	Block2	2back/STIM_024.jpg	100
970.646	0.522	521.7	2back	Block2	2back/STIM_025.jpg	100
973.528	0.607	607.4	2back	Block2	2back/STIM_025.jpg	100
976.632	0.772	772.2	2back	Block2	2back/STIM_025.jpg	100
981.103	0.932	932.2	2back	Block2	2back/STIM_026.jpg	100
984.791	0.983	982.7	2back	Block2	2back/STIM_026.jpg	99
987.986	0.767	767.3	2back	Block2	2back/STIM_026.jpg	100
991.013	1.124	1124.4	2back	Block2	2back/STIM_027.jpg	100
994.541	0.627	626.7	2back	Block2	2back/STIM_027.jpg	99
999.14	0.642	642.0	2back	Block2	2back/STIM_027.jpg	99
1002.677	0.516	515.9	2back	Block2	2back/STIM_028.jpg	100
1006.638	0.592	591.6	2back	Block2	2back/STIM_028.jpg	99
1010.525	0.84	839.8	2back	Block2	2back/STIM_028.jpg	99
1013.483	0.537	536.6	2back	Block2	2back/STIM_029.jpg	99
1016.723	0.969	969.3	2back	Block2	2back/STIM_029.jpg	99
1020.916	0.959	958.7	2back	Block2	2back/STIM_029.jpg	100
1024.755	0.823	823.3	2back	Block2	2back/STIM_030.jpg	100
1029.186	0.521	520.7	2back	Block2	2back/STIM_030.jpg	99
1032.167	0.618	618.0	2back	Block2	2back/STIM_030.jpg	99
1036.575	0.55	549.7	2back	Block2	2back/STIM_031.jpg	99
1040.446	1.02	1019.5	2back	Block2	2back/STIM_031.jpg	100
1045.432	0.775	775.1	2back	Block2	2back/STIM_031.jpg	100
1048.786	0.698	697.8	2back	Block2	2back/STIM_032.jpg	100
1052.035	0.84	840.1	2back	Block2	2back/STIM_032.jpg	100
1055.101	0.499	498.7	2back	Block2	2back/STIM_032.jpg	99
1058.187	0.494	494.3	2back	Block2	2back/STIM_033.jpg	100
1062.217	0.8	800.5	2back	Block2	2back/STIM_033.jpg	99
1066.726	0.767	767.4	2back	Block2	2back/STIM_033.jpg	100
1071.426	1.05	1050.1	2back	Block2	2back/STIM_034.jpg	100
1075.943	0.803	802.6	2back	Block2	2back/STIM_034.jpg	100
1079.337	0.611	610.9	2back	Block2	2back/STIM_034.jpg	100
1082.772	0.639	638.9	2back	Block2	2back/STIM_035.jpg	100
1086.401	0.471	470.6	2back	Block2	2back/STIM_035.jpg	99
1089.895	0.872	872.1	2back	Block2	2back/STIM_035.jpg	100
1094.388	1.019	1018.9	2back	Block2	2back/STIM_036.jpg	99
1098.653	0.864	864.5	2back	Block2	2back/STIM_036.jpg	99
1102.965	0.476	475.9	2back	Block2	2back/STIM_036.jpg	99
1107.374	0.683	682.7	2back	Block2	2back/STIM_037.jpg	100
1111.126	0.486	486.3	2back	Block2	2back/STIM_037.jpg	99
1113.952	0.772	772.3	2back	Block2	2back/STIM_037.jpg	100
1117.0	0.576	576.4	2back	Block2	2back/STIM_038.jpg	100
1120.907	0.763	763.4	2back	Block2	2back/STIM_038.jpg	100
1124.403	0.837	836.6	2back	Block2	2back/STIM_038.jpg	99
1127.498	1.118	1118.5	2back	Block2	2back/STIM_039.jpg	100
1130.952	0.748	748.5	2back	Block2	2back/STIM_039.jpg	100
1135.349	0.549	549.1	2back	Block2	2back/STIM_039.jpg	100
1139.256	0.726	726.2	0back	Block2	0back/STIM_000.jpg	99
1142.135	0.694	694.0	0back	Block2	0back/STIM_000.jpg	100
1145.86	0.679	678.8	0back	Block2	0back/STIM_000.jpg	99
1149.958	0.745	745.4	0back	Block2	0back/STIM_001.jpg	100
1152.813	0.623	623.1	0back	Block2	0back/STIM_001.jpg	99
1156.204	0.702	702.4	0back	Block2	0back/STIM_001.jpg	100
1159.99	0.751	750.7	0back	Block2	0back/STIM_002.jpg	99
1163.178	0.501	501.0	0back	Block2	0back/STIM_002.jpg	100
1166.209	0.526	526.0	0back	Block2	0back/STIM_002.jpg	100
1170.134	0.445	445.2	0back	Block2	0back/STIM_003.jpg	99
1173.252	0.566	565.9	0back	Block2	0back/STIM_003.jpg	99
1177.221	0.68	679.9	0back	Block2	0back/STIM_003.jpg	99
1180.949	0.548	548.1	0back	Block2	0back/STIM_004.jpg	99
1184.614	0.678	678.5	0back	Block2	0back/STIM_004.jpg	99
1188.611	0.404	404.2	0back	Block2	0back/STIM_004.jpg	99
1192.952	0.593	592.6	0back	Block2	0back/STIM_005.jpg	100
1196.072	0.501	500.9	0back	Block2	0back/STIM_005.jpg	99
1200.296	0.699	698.9	0back	Block2	0back/STIM_005.jpg	99
1204.678	0.704	704.0	0back	Block2	0back/STIM_006.jpg	99
1207.954	0.514	514.1	0back	Block2	0back/STIM_006.jpg	100
1211.606	0.688	688.1	0back	Block2	0back/STIM_006.jpg	100
1216.028	0.685	685.3	0back	Block2	0back/STIM_007.jpg	99
1219.366	0.481	480.9	0back	Block2	0back/STIM_007.jpg	99
1222.936	0.481	481.2	0back	Block2	0back/STIM_007.jpg	99
1226.068	0.507	506.9	0back	Block2	0back/STIM_008.jpg	99
1229.7	0.402	401.8	0back	Block2	0back/STIM_008.jpg	100
1233.77	0.737	737.0	0back	Block2	0back/STIM_008.jpg	99
1236.932	0.538	537.7	0back	Block2	0back/STIM_009.jpg	99
1241.048	0.508	508.5	0back	Block2	0back/STIM_009.jpg	100
1245.423	0.61	610.3	0back	Block2	0back/STIM_009.jpg	99
1248.546	0.738	738.1	0back	Block2	0back/STIM_010.jpg	99
1251.672	0.478	477.5	0back	Block2	0back/STIM_010.jpg	100
1255.534	0.596	595.9	0back	Block2	0back/STIM_010.jpg	99
1259.567	0.491	491.3	0back	Block2	0back/STIM_011.jpg	100
1262.405	0.451	451.4	0back	Block2	0back/STIM_011.jpg	100
1265.906	0.555	554.9	0back	Block2	0back/STIM_011.jpg	100
1269.609	0.421	420.7	0back	Block2	0back/STIM_012.jpg	99
1272.367	0.573	572.9	0back	Block2	0back/STIM_012.jpg	100
1276.424	0.568	567.7	0back	Block2	0back/STIM_012.jpg	99
1280.877	0.561	561.3	0back	Block2	0back/STIM_013.jpg	100
1283.516	0.631	630.7	0back	Block2	0back/STIM_013.jpg	99
1286.833	0.657	657.2	0back	Block2	0back/STIM_013.jpg	100
1290.339	0.408	408.4	0back	Block2	0back/STIM_014.jpg	99
1293.558	0.751	751.1	0back	Block2	0back/STIM_014.jpg	99
1296.802	0.755	755.1	0back	Block2	0back/STIM_014.jpg	100
1300.617	0.486	486.5	0back	Block2	0back/STIM_015.jpg	99
1304.901	0.545	544.9	0back	Block2	0back/STIM_015.jpg	100
1307.685	0.539	538.8	0back	Block2	0back/STIM_015.jpg	99
1311.841	0.396	395.7	0back	Block2	0back/STIM_016.jpg	99
1315.972	0.563	563.3	0back	Block2	0back/STIM_016.jpg	100
1318.813	0.729	729.3	0back	Block2	0back/STIM_016.jpg	100
1322.473	0.683	682.7	0back	Block2	0back/STIM_017.jpg	100
1325.711	0.469	468.6	0back	Block2	0back/STIM_017.jpg	100
1329.373	0.396	396.1	0back	Block2	0back/STIM_017.jpg	99
1333.004	0.532	531.7	0back	Block2	0back/STIM_018.jpg	99
1337.453	0.731	731.4	0back	Block2	0back/STIM_018.jpg	100
1342.164	0.516	516.4	0back	Block2	0back/STIM_018.jpg	100
1345.458	0.586	585.6	0back	Block2	0back/STIM_019.jpg	100
1348.259	0.666	665.9	0back	Block2	0back/STIM_019.jpg	100
1351.37	0.64	640.0	0back	Block2	0back/STIM_019.jpg	100
1354.601	0.854	853.6	2back	Block3	2back/STIM_000.jpg	99
1359.215	0.574	574.0	2back	Block3	2back/STIM_000.jpg	100
1362.886	0.858	857.5	2back	Block3	2back/STIM_000.jpg	100
1366.853	0.549	549.0	2back	Block3	2back/STIM_001.jpg	99
1370.938	0.529	528.8	2back	Block3	2back/STIM_001.jpg	99
1374.852	0.907	906.7	2back	Block3	2back/STIM_001.jpg	99
1379.53	0.529	529.0	2back	Block3	2back/STIM_002.jpg	99
1383.46	0.449	449.4	2back	Block3	2back/STIM_002.jpg	100
1385.97	0.466	466.3	2back	Block3	2back/STIM_002.jpg	99
1389.546	0.648	648.1	2back	Block3	2back/STIM_003.jpg	100
1393.421	0.689	688.9	2back	Block3	2back/STIM_003.jpg	99
1397.244	0.712	712.0	2back	Block3	2back/STIM_003.jpg	99
1400.928	0.667	667.4	2back	Block3	2back/STIM_004.jpg	100
1404.875	0.726	726.1	2back	Block3	2back/STIM_004.jpg	100
1408.194	0.706	705.8	2back	Block3	2back/STIM_004.jpg	99
1411.467	0.631	631.0	2back	Block3	2back/STIM_005.jpg	99
1415.154	0.869	869.3	2back	Block3	2back/STIM_005.jpg	100
1418.556	0.79	790.1	2back	Block3	2back/STIM_005.jpg	100
1422.308	0.484	484.5	2back	Block3	2back/STIM_006.jpg	100
1425.997	0.65	650.1	2back	Block3	2back/STIM_006.jpg	100
1429.721	0.913	913.0	2back	Block3	2back/STIM_006.jpg	100
1433.22	0.926	926.3	2back	Block3	2back/STIM_007.jpg	99
1437.567	0.433	433.0	2back	Block3	2back/STIM_007.jpg	100
1440.77	0.936	936.2	2back	Block3	2back/STIM_007.jpg	99
1444.892	0.836	836.5	2back	Block3	2back/STIM_008.jpg	99
1448.071	0.426	425.7	2back	Block3	2back/STIM_008.jpg	99
1452.48	0.647	646.7	2back	Block3	2back/STIM_008.jpg	100
1456.185	0.84	840.0	2back	Block3	2back/STIM_009.jpg	100
1460.616	0.484	484.3	2back	Block3	2back/STIM_009.jpg	100
1464.851	0.619	619.2	2back	Block3	2back/STIM_009.jpg	99
1468.138	0.769	769.0	2back	Block3	2back/STIM_010.jpg	100
1471.7	0.553	553.3	2back	Block3	2back/STIM_010.jpg	100
1474.841	0.58	579.9	2back	Block3	2back/STIM_010.jpg	100
1477.632	0.682	682.3	2back	Block3	2back/STIM_011.jpg	99
1481.585	0.832	832.4	2back	Block3	2back/STIM_011.jpg	99
1485.46	0.803	803.1	2back	Block3	2back/STIM_011.jpg	100
1489.775	0.455	454.8	2back	Block3	2back/STIM_012.jpg	100
1493.101	0.739	739.3	2back	Block3	2back/STIM_012.jpg	100
1495.962	0.555	555.2	2back	Block3	2back/STIM_012.jpg	99
1499.015	0.662	662.1	2back	Block3	2back/STIM_013.jpg	99
1502.348	0.612	611.6	2back	Block3	2back/STIM_013.jpg	100
1506.184	0.581	580.8	2back	Block3	2back/STIM_013.jpg	99
1509.291	0.933	933.2	2back	Block3	2back/STIM_014.jpg	99
1512.936	0.806	806.2	2back	Block3	2back/STIM_014.jpg	99
1516.366	0.642	642.5	2back	Block3	2back/STIM_014.jpg	99
1520.343	0.463	463.3	2back	Block3	2back/STIM_015.jpg	100
1523.057	0.468	467.9	2back	Block3	2back/STIM_015.jpg	99
1526.405	0.602	602.0	2back	Block3	2back/STIM_015.jpg	99
1529.797	0.897	896.9	2back	Block3	2back/STIM_016.jpg	100
1532.898	0.91	909.5	2back	Block3	2back/STIM_016.jpg	100
1536.918	0.479	479.3	2back	Block3	2back/STIM_016.jpg	100
1540.037	0.714	713.6	2back	Block3	2back/STIM_017.jpg	100
1544.035	0.753	752.6	2back	Block3	2back/STIM_017.jpg	99
1548.421	0.854	854.2	2back	Block3	2back/STIM_017.jpg	99
1552.157	0.856	855.7	2back	Block3	2back/STIM_018.jpg	99
1556.123	0.899	899.1	2back	Block3	2back/STIM_018.jpg	99
1559.55	0.869	869.1	2back	Block3	2back/STIM_018.jpg	99
1562.831	0.553	552.7	2back	Block3	2back/STIM_019.jpg	99
1567.276	0.513	512.9	2back	Block3	2back/STIM_019.jpg	100
1569.818	0.455	454.9	2back	Block3	2back/STIM_019.jpg	99
1573.476	0.716	716.5	2back	Block3	2back/STIM_020.jpg	100
1576.432	0.521	520.9	2back	Block3	2back/STIM_020.jpg	100
1579.568	0.863	862.7	2back	Block3	2back/STIM_020.jpg	99
1583.542	0.595	595.1	2back	Block3	2back/STIM_021.jpg	99
1587.651	0.738	737.9	2back	Block3	2back/STIM_021.jpg	99
1590.97	0.491	491.0	2back	Block3	2back/STIM_021.jpg	100
1593.575	0.832	832.0	2back	Block3	2back/STIM_022.jpg	99
1596.717	0.563	563.1	2back	Block3	2back/STIM_022.jpg	99
1600.344	0.415	414.9	2back	Block3	2back/STIM_022.jpg	99
1603.573	0.842	841.7	2back	Block3	2back/STIM_023.jpg	100
1606.518	0.404	403.9	2back	Block3	2back/STIM_023.jpg	100
1609.834	0.547	546.7	2back	Block3	2back/STIM_023.jpg	100
1614.043	0.838	838.2	2back	Block3	2back/STIM_024.jpg	100
1617.673	0.763	762.9	2back	Block3	2back/STIM_024.jpg	100
1621.655	0.785	785.3	2back	Block3	2back/STIM_024.jpg	99
1626.087	0.773	773.2	2back	Block3	2back/STIM_025.jpg	100
1630.869	0.921	920.9	2back	Block3	2back/STIM_025.jpg	99
1634.412	0.56	560.1	2back	Block3	2back/STIM_025.jpg	100
1638.878	0.729	729.1	2back	Block3	2back/STIM_026.jpg	100
1642.82	0.736	736.5	2back	Block3	2back/STIM_026.jpg	99
1645.678	0.47	470.5	2back	Block3	2back/STIM_026.jpg	99
1648.777	0.875	874.9	2back	Block3	2back/STIM_027.jpg	99
1653.666	0.585	584.9	2back	Block3	2back/STIM_027.jpg	99
1656.487	0.871	870.7	2back	Block3	2back/STIM_027.jpg	99
1660.694	0.621	621.4	2back	Block3	2back/STIM_028.jpg	100
1664.235	0.724	724.0	2back	Block3	2back/STIM_028.jpg	99
1668.44	0.855	854.7	2back	Block3	2back/STIM_028.jpg	100
1672.079	0.413	413.2	2back	Block3	2back/STIM_029.jpg	100
1674.929	0.916	916.0	2back	Block3	2back/STIM_029.jpg	100
1678.143	0.425	424.8	2back	Block3	2back/STIM_029.jpg	100
1681.793	0.93	929.7	2back	Block3	2back/STIM_030.jpg	100
1685.844	0.538	538.3	2back	Block3	2back/STIM_030.jpg	100
1690.061	0.623	623.4	2back	Block3	2back/STIM_030.jpg	99
1693.759	0.595	595.0	2back	Block3	2back/STIM_031.jpg	99
1697.295	0.756	756.2	2back	Block3	2back/STIM_031.jpg	99
1700.126	0.747	746.6	2back	Block3	2back/STIM_031.jpg	99
1704.764	0.919	918.6	2back	Block3	2back/STIM_032.jpg	100
1708.172	0.59	589.9	2back	Block3	2back/STIM_032.jpg	99
1711.726	0.914	913.8	2back	Block3	2back/STIM_032.jpg	100
1714.711	0.771	771.0	2back	Block3	2back/STIM_033.jpg	99
1718.719	0.72	719.6	2back	Block3	2back/STIM_033.jpg	100
1723.01	0.808	807.7	2back	Block3	2back/STIM_033.jpg	100
1726.906	0.837	837.3	2back	Block3	2back/STIM_034.jpg	100
1731.482	0.768	768.1	2back	Block3	2back/STIM_034.jpg	99
1735.349	0.425	425.1	2back	Block3	2back/STIM_034.jpg	100
1738.9	0.485	484.6	2back	Block3	2back/STIM_035.jpg	99
1741.422	0.467	466.9	2back	Block3	2back/STIM_035.jpg	100
1744.471	0.541	541.1	2back	Block3	2back/STIM_035.jpg	99
1748.345	0.52	519.8	2back	Block3	2back/STIM_036.jpg	100
1751.166	0.633	633.3	2back	Block3	2back/STIM_036.jpg	100
1755.224	0.448	448.2	2back	Block3	2back/STIM_036.jpg	100
1758.674	0.597	597.2	2back	Block3	2back/STIM_037.jpg	100
1761.489	0.805	805.0	2back	Block3	2back/STIM_037.jpg	99
1765.725	0.618	617.9	2back	Block3	2back/STIM_037.jpg	99
1770.244	0.689	689.1	2back	Block3	2back/STIM_038.jpg	99
1773.911	0.738	738.3	2back	Block3	2back/STIM_038.jpg	99
1778.536	0.763	763.0	2back	Block3	2back/STIM_038.jpg	99
1782.813	0.82	820.4	2back	Block3	2back/STIM_039.jpg	100
1786.551	0.569	568.8	2back	Block3	2back/STIM_039.jpg	100
1790.957	0.599	598.8	2back	Block3	2back/STIM_039.jpg	99
1794.739	0.428	427.6	0back	Block3	0back/STIM_000.jpg	99
1798.13	0.703	702.9	0back	Block3	0back/STIM_000.jpg	100
1801.921	0.446	445.9	0back	Block3	0back/STIM_000.jpg	99
1804.687	0.503	503.5	0back	Block3	0back/STIM_001.jpg	99
1808.024	0.397	396.8	0back	Block3	0back/STIM_001.jpg	99
1811.893	0.628	627.8	0back	Block3	0back/STIM_001.jpg	99
1816.006	0.602	602.1	0back	Block3	0back/STIM_002.jpg	100
1818.777	0.664	663.6	0back	Block3	0back/STIM_002.jpg	100
1822.239	0.671	670.7	0back	Block3	0back/STIM_002.jpg	99
1825.875	0.502	501.6	0back	Block3	0back/STIM_003.jpg	99
1829.149	0.715	714.6	0back	Block3	0back/STIM_003.jpg	99
1832.278	0.433	432.9	0back	Block3	0back/STIM_003.jpg	100
1835.025	0.654	653.8	0back	Block3	0back/STIM_004.jpg	100
1838.408	0.746	745.9	0back	Block3	0back/STIM_004.jpg	100
1842.022	0.757	757.3	0back	Block3	0back/STIM_004.jpg	100
1845.876	0.698	697.8	0back	Block3	0back/STIM_005.jpg	99
1849.707	0.748	748.0	0back	Block3	0back/STIM_005.jpg	100
1854.39	0.605	605.1	0back	Block3	0back/STIM_005.jpg	99
1857.81	0.76	760.0	0back	Block3	0back/STIM_006.jpg	100
1860.819	0.559	559.3	0back	Block3	0back/STIM_006.jpg	100
1864.656	0.7	700.5	0back	Block3	0back/STIM_006.jpg	100
1868.07	0.734	733.5	0back	Block3	0back/STIM_007.jpg	99
1871.339	0.629	629.4	0back	Block3	0back/STIM_007.jpg	99
1875.794	0.488	488.4	0back	Block3	0back/STIM_007.jpg	100
1879.66	0.423	423.2	0back	Block3	0back/STIM_008.jpg	99
1883.772	0.662	662.0	0back	Block3	0back/STIM_008.jpg	100
1887.243	0.408	407.8	0back	Block3	0back/STIM_008.jpg	99
1890.673	0.676	676.2	0back	Block3	0back/STIM_009.jpg	100
1895.295	0.545	545.2	0back	Block3	0back/STIM_009.jpg	99
1898.344	0.466	465.9	0back	Block3	0back/STIM_009.jpg	100
1902.028	0.582	582.5	0back	Block3	0back/STIM_010.jpg	99
1906.616	0.744	744.4	0back	Block3	0back/STIM_010.jpg	100
1909.643	0.718	718.1	0back	Block3	0back/STIM_010.jpg	100
1913.766	0.438	438.0	0back	Block3	0back/STIM_011.jpg	100
1916.252	0.586	586.5	0back	Block3	0back/STIM_011.jpg	100
1919.131	0.42	419.7	0back	Block3	0back/STIM_011.jpg	99
1921.686	0.53	529.7	0back	Block3	0back/STIM_012.jpg	100
1924.685	0.473	473.4	0back	Block3	0back/STIM_012.jpg	100
1927.699	0.706	706.1	0back	Block3	0back/STIM_012.jpg	99
1932.37	0.642	642.5	0back	Block3	0back/STIM_013.jpg	100
1936.987	0.681	681.0	0back	Block3	0back/STIM_013.jpg	100
1940.755	0.568	567.9	0back	Block3	0back/STIM_013.jpg	100
1944.363	0.411	411.2	0back	Block3	0back/STIM_014.jpg	100
1947.959	0.401	400.8	0back	Block3	0back/STIM_014.jpg	99
1952.174	0.699	699.1	0back	Block3	0back/STIM_014.jpg	99
1956.219	0.625	625.0	0back	Block3	0back/STIM_015.jpg	100
1960.614	0.61	609.5	0back	Block3	0back/STIM_015.jpg	100
1965.104	0.592	592.2	0back	Block3	0back/STIM_015.jpg	99
1969.191	0.438	437.9	0back	Block3	0back/STIM_016.jpg	99
1973.373	0.405	404.6	0back	Block3	0back/STIM_016.jpg	99
1977.592	0.627	627.4	0back	Block3	0back/STIM_016.jpg	99
1982.114	0.419	418.6	0back	Block3	0back/STIM_017.jpg	100
1985.782	0.746	745.8	0back	Block3	0back/STIM_017.jpg	100
1989.985	0.473	473.3	0back	Block3	0back/STIM_017.jpg	99
1994.219	0.488	487.6	0back	Block3	0back/STIM_018.jpg	100
1996.755	0.47	470.1	0back	Block3	0back/STIM_018.jpg	100
1999.367	0.636	635.9	0back	Block3	0back/STIM_018.jpg	100
2003.522	0.387	387.0	0back	Block3	0back/STIM_019.jpg	100
2006.558	0.482	481.5	0back	Block3	0back/STIM_019.jpg	100
2009.377	0.511	511.5	0back	Block3	0back/STIM_019.jpg	100
2012.318	0.872	871.9	2back	Block4	2back/STIM_000.jpg	99
2016.565	0.548	548.1	2back	Block4	2back/STIM_000.jpg	100
2020.678	0.422	422.1	2back	Block4	2back/STIM_000.jpg	99
2023.732	0.661	661.3	2back	Block4	2back/STIM_001.jpg	100
2026.432	0.784	783.6	2back	Block4	2back/STIM_001.jpg	100
2030.669	0.488	488.5	2back	Block4	2back/STIM_001.jpg	99
2033.974	0.881	881.1	2back	Block4	2back/STIM_002.jpg	100
2037.117	0.486	486.0	2back	Block4	2back/STIM_002.jpg	99
2041.257	0.718	718.4	2back	Block4	2back/STIM_002.jpg	100
2044.566	0.733	733.0	2back	Block4	2back/STIM_003.jpg	99
2048.696	0.697	697.4	2back	Block4	2back/STIM_003.jpg	99
2052.258	0.619	619.0	2back	Block4	2back/STIM_003.jpg	99
2055.056	0.765	765.2	2back	Block4	2back/STIM_004.jpg	99
2057.958	0.479	479.0	2back	Block4	2back/STIM_004.jpg	99
2060.922	0.732	732.0	2back	Block4	2back/STIM_004.jpg	100
2064.642	0.757	757.0	2back	Block4	2back/STIM_005.jpg	100
2068.581	0.463	462.6	2back	Block4	2back/STIM_005.jpg	99
2071.875	0.698	698.4	2back	Block4	2back/STIM_005.jpg	100
2075.258	0.777	777.2	2back	Block4	2back/STIM_006.jpg	99
2079.655	0.835	835.2	2back	Block4	2back/STIM_006.jpg	99
2084.122	0.47	470.5	2back	Block4	2back/STIM_006.jpg	99
2087.143	0.936	936.4	2back	Block4	2back/STIM_007.jpg	100
2090.774	0.428	428.1	2back	Block4	2back/STIM_007.jpg	100
2094.076	0.808	808.1	2back	Block4	2back/STIM_007.jpg	100
2097.582	0.939	938.9	2back	Block4	2back/STIM_008.jpg	100
2100.841	0.794	794.2	2back	Block4	2back/STIM_008.jpg	99
2103.729	0.935	935.4	2back	Block4	2back/STIM_008.jpg	100
2108.426	0.73	729.7	2back	Block4	2back/STIM_009.jpg	100
2112.936	0.654	653.9	2back	Block4	2back/STIM_009.jpg	99
2116.74	0.93	930.1	2back	Block4	2back/STIM_009.jpg	99
2120.931	0.414	413.5	2back	Block4	2back/STIM_010.jpg	100
2124.63	0.9	899.7	2back	Block4	2back/STIM_010.jpg	99
2128.858	0.752	752.4	2back	Block4	2back/STIM_010.jpg	99
2132.323	0.874	874.0	2back	Block4	2back/STIM_011.jpg	99
2136.828	0.628	628.0	2back	Block4	2back/STIM_011.jpg	99
2140.818	0.779	778.7	2back	Block4	2back/STIM_011.jpg	99
2143.896	0.498	498.2	2back	Block4	2back/STIM_012.jpg	100
2147.885	0.912	912.1	2back	Block4	2back/STIM_012.jpg	99
2151.945	0.472	472.4	2back	Block4	2back/STIM_012.jpg	99
2154.708	0.418	417.6	2back	Block4	2back/STIM_013.jpg	99
2158.592	0.887	887.3	2back	Block4	2back/STIM_013.jpg	100
2163.173	0.757	757.0	2back	Block4	2back/STIM_013.jpg	100
2166.408	0.502	502.1	2back	Block4	2back/STIM_014.jpg	99
2169.331	0.8	800.5	2back	Block4	2back/STIM_014.jpg	99
2172.634	0.461	461.3	2back	Block4	2back/STIM_014.jpg	99
2176.211	0.512	511.8	2back	Block4	2back/STIM_015.jpg	100
2180.04	0.707	707.2	2back	Block4	2back/STIM_015.jpg	99
2183.347	0.523	523.1	2back	Block4	2back/STIM_015.jpg	100
2187.793	0.874	874.4	2back	Block4	2back/STIM_016.jpg	99
2191.279	0.548	547.9	2back	Block4	2back/STIM_016.jpg	100
2195.1	0.812	812.1	2back	Block4	2back/STIM_016.jpg	100
2198.328	0.852	852.1	2back	Block4	2back/STIM_017.jpg	100
2202.319	0.478	478.5	2back	Block4	2back/STIM_017.jpg	99
2205.852	0.476	475.6	2back	Block4	2back/STIM_017.jpg	99
2208.356	0.939	938.7	2back	Block4	2back/STIM_018.jpg	100
2212.249	0.611	611.0	2back	Block4	2back/STIM_018.jpg	99
2215.857	0.613	613.1	2back	Block4	2back/STIM_018.jpg	100
2220.082	0.925	925.4	2back	Block4	2back/STIM_019.jpg	99
2223.125	0.568	567.7	2back	Block4	2back/STIM_019.jpg	99
2226.588	0.926	925.9	2back	Block4	2back/STIM_019.jpg	99
2229.569	0.432	431.6	2back	Block4	2back/STIM_020.jpg	99
2233.82	0.919	918.9	2back	Block4	2back/STIM_020.jpg	100
2237.933	0.848	848.1	2back	Block4	2back/STIM_020.jpg	99
2242.304	0.446	445.5	2back	Block4	2back/STIM_021.jpg	99
2245.228	0.723	723.1	2back	Block4	2back/STIM_021.jpg	100
2249.527	0.596	595.9	2back	Block4	2back/STIM_021.jpg	99
2252.777	0.914	914.0	2back	Block4	2back/STIM_022.jpg	100
2256.707	0.555	554.7	2back	Block4	2back/STIM_022.jpg	100
2259.751	0.571	571.2	2back	Block4	2back/STIM_022.jpg	99
2262.89	0.627	627.2	2back	Block4	2back/STIM_023.jpg	99
2266.352	0.937	936.7	2back	Block4	2back/STIM_023.jpg	100
2269.806	0.602	601.7	2back	Block4	2back/STIM_023.jpg	100
2273.634	0.743	743.2	2back	Block4	2back/STIM_024.jpg	99
2276.607	0.801	801.4	2back	Block4	2back/STIM_024.jpg	99
2281.057	0.418	417.8	2back	Block4	2back/STIM_024.jpg	100
2285.359	0.704	703.9	2back	Block4	2back/STIM_025.jpg	100
2289.588	0.848	848.0	2back	Block4	2back/STIM_025.jpg	99
2294.461	0.57	570.4	2back	Block4	2back/STIM_025.jpg	100
2298.165	0.749	749.2	2back	Block4	2back/STIM_026.jpg	99
2301.267	0.466	466.5	2back	Block4	2back/STIM_026.jpg	100
2305.059	0.578	577.9	2back	Block4	2back/STIM_026.jpg	100
2308.512	0.535	535.1	2back	Block4	2back/STIM_027.jpg	99
2312.145	0.528	528.5	2back	Block4	2back/STIM_027.jpg	100
2316.341	0.79	790.1	2back	Block4	2back/STIM_027.jpg	100
2321.125	0.846	846.5	2back	Block4	2back/STIM_028.jpg	99
2324.753	0.729	729.0	2back	Block4	2back/STIM_028.jpg	99
2327.591	0.817	816.6	2back	Block4	2back/STIM_028.jpg	100
2331.371	0.434	433.6	2back	Block4	2back/STIM_029.jpg	100
2335.229	0.583	582.7	2back	Block4	2back/STIM_029.jpg	99
2339.495	0.658	658.2	2back	Block4	2back/STIM_029.jpg	100
2342.389	0.474	474.5	2back	Block4	2back/STIM_030.jpg	100
2346.603	0.532	532.5	2back	Block4	2back/STIM_030.jpg	100
2349.467	0.672	672.5	2back	Block4	2back/STIM_030.jpg	100
2352.476	0.484	483.7	2back	Block4	2back/STIM_031.jpg	99
2356.73	0.507	507.4	2back	Block4	2back/STIM_031.jpg	100
2360.048	0.87	870.0	2back	Block4	2back/STIM_031.jpg	99
2364.574	0.848	848.2	2back	Block4	2back/STIM_032.jpg	99
2369.448	0.912	911.9	2back	Block4	2back/STIM_032.jpg	99
2372.41	0.537	536.9	2back	Block4	2back/STIM_032.jpg	99
2375.824	0.874	873.9	2back	Block4	2back/STIM_033.jpg	100
2378.895	0.886	886.2	2back	Block4	2back/STIM_033.jpg	99
2382.848	0.661	661.2	2back	Block4	2back/STIM_033.jpg	100
2386.634	0.886	886.2	2back	Block4	2back/STIM_034.jpg	100
2390.907	0.88	880.3	2back	Block4	2back/STIM_034.jpg	100
2394.67	0.849	849.3	2back	Block4	2back/STIM_034.jpg	99
2397.935	0.912	911.8	2back	Block4	2back/STIM_035.jpg	99
2401.964	0.745	745.4	2back	Block4	2back/STIM_035.jpg	100
2404.924	0.446	446.4	2back	Block4	2back/STIM_035.jpg	99
2408.975	0.525	524.8	2back	Block4	2back/STIM_036.jpg	99
2411.724	0.504	504.1	2back	Block4	2back/STIM_036.jpg	100
2415.981	0.713	712.8	2back	Block4	2back/STIM_036.jpg	100
2420.717	0.758	758.5	2back	Block4	2back/STIM_037.jpg	99
2423.669	0.438	438.5	2back	Block4	2back/STIM_037.jpg	99
2427.631	0.407	406.6	2back	Block4	2back/STIM_037.jpg	100
2431.493	0.786	785.9	2back	Block4	2back/STIM_038.jpg	99
2435.585	0.507	507.5	2back	Block4	2back/STIM_038.jpg	100
2438.428	0.599	598.9	2back	Block4	2back/STIM_038.jpg	100
2442.814	0.472	472.4	2back	Block4	2back/STIM_039.jpg	99
2446.643	0.776	775.5	2back	Block4	2back/STIM_039.jpg	100
2450.792	0.44	440.1	2back	Block4	2back/STIM_039.jpg	99
2453.265	0.748	748.1	0back	Block4	0back/STIM_000.jpg	100
2457.724	0.578	577.9	0back	Block4	0back/STIM_000.jpg	100
2461.635	0.391	390.9	0back	Block4	0back/STIM_000.jpg	99
2464.544	0.468	468.4	0back	Block4	0back/STIM_001.jpg	99
2468.472	0.474	473.5	0back	Block4	0back/STIM_001.jpg	99
2472.153	0.575	575.4	0back	Block4	0back/STIM_001.jpg	99
2476.34	0.485	485.1	0back	Block4	0back/STIM_002.jpg	99
2479.781	0.384	384.5	0back	Block4	0back/STIM_002.jpg	99
2482.233	0.566	565.9	0back	Block4	0back/STIM_002.jpg	99
2484.884	0.663	662.9	0back	Block4	0back/STIM_003.jpg	100
2488.17	0.68	679.8	0back	Block4	0back/STIM_003.jpg	99
2492.562	0.714	714.2	0back	Block4	0back/STIM_003.jpg	99
2495.393	0.523	522.6	0back	Block4	0back/STIM_004.jpg	99
2498.259	0.399	399.3	0back	Block4	0back/STIM_004.jpg	99
2501.044	0.545	545.1	0back	Block4	0back/STIM_004.jpg	99
2504.829	0.392	392.0	0back	Block4	0back/STIM_005.jpg	99
2508.846	0.521	520.8	0back	Block4	0back/STIM_005.jpg	99
2512.273	0.722	721.6	0back	Block4	0back/STIM_005.jpg	99
2516.5	0.437	437.4	0back	Block4	0back/STIM_006.jpg	100
2519.051	0.531	531.1	0back	Block4	0back/STIM_006.jpg	100
2522.841	0.432	431.6	0back	Block4	0back/STIM_006.jpg	100
2526.663	0.456	456.3	0back	Block4	0back/STIM_007.jpg	99
2529.573	0.712	712.0	0back	Block4	0back/STIM_007.jpg	100
2533.788	0.725	725.0	0back	Block4	0back/STIM_007.jpg	100
2537.483	0.559	559.2	0back	Block4	0back/STIM_008.jpg	99
2540.919	0.675	675.3	0back	Block4	0back/STIM_008.jpg	99
2543.809	0.597	596.6	0back	Block4	0back/STIM_008.jpg	100
2546.78	0.708	707.7	0back	Block4	0back/STIM_009.jpg	99
2550.01	0.591	590.8	0back	Block4	0back/STIM_009.jpg	100
2554.053	0.408	408.0	0back	Block4	0back/STIM_009.jpg	99
2557.455	0.72	719.8	0back	Block4	0back/STIM_010.jpg	99
2561.964	0.487	486.7	0back	Block4	0back/STIM_010.jpg	99
2565.931	0.635	634.7	0back	Block4	0back/STIM_010.jpg	99
2569.525	0.469	468.8	0back	Block4	0back/STIM_011.jpg	99
2573.645	0.686	686.2	0back	Block4	0back/STIM_011.jpg	100
2578.04	0.678	677.7	0back	Block4	0back/STIM_011.jpg	100
2582.236	0.455	455.3	0back	Block4	0back/STIM_012.jpg	100
2585.999	0.6	600.1	0back	Block4	0back/STIM_012.jpg	100
2590.327	0.639	638.8	0back	Block4	0back/STIM_012.jpg	100
2593.123	0.742	742.0	0back	Block4	0back/STIM_013.jpg	100
2597.732	0.423	423.1	0back	Block4	0back/STIM_013.jpg	99
2600.246	0.468	468.3	0back	Block4	0back/STIM_013.jpg	100
2604.63	0.608	608.2	0back	Block4	0back/STIM_014.jpg	100
2607.707	0.485	485.0	0back	Block4	0back/STIM_014.jpg	100
2611.444	0.627	626.9	0back	Block4	0back/STIM_014.jpg	100
2614.278	0.674	673.5	0back	Block4	0back/STIM_015.jpg	99
2618.444	0.466	465.7	0back	Block4	0back/STIM_015.jpg	99
2622.567	0.574	574.1	0back	Block4	0back/STIM_015.jpg	100
2626.778	0.632	632.3	0back	Block4	0back/STIM_016.jpg	100
2630.289	0.63	629.6	0back	Block4	0back/STIM_016.jpg	100
2634.091	0.437	437.3	0back	Block4	0back/STIM_016.jpg	100
2637.017	0.543	542.9	0back	Block4	0back/STIM_017.jpg	99
2640.965	0.595	595.3	0back	Block4	0back/STIM_017.jpg	99
2645.067	0.629	628.7	0back	Block4	0back/STIM_017.jpg	100
2647.992	0.526	526.4	0back	Block4	0back/STIM_018.jpg	99
2651.876	0.55	550.2	0back	Block4	0back/STIM_018.jpg	99
2656.013	0.395	395.3	0back	Block4	0back/STIM_018.jpg	99
2660.073	0.618	618.4	0back	Block4	0back/STIM_019.jpg	99
2664.584	0.737	737.4	0back	Block4	0back/STIM_019.jpg	99
2667.665	0.478	478.0	0back	Block4	0back/STIM_019.jpg	100
