onset	duration	response_time_ms	trial_type	learning_stage	stimulus	response_port
0.0	1.892	1892.4	regulate	Run1	regulate/STIM_000.jpg	99
4.044	2.682	2682.1	regulate	Run1	regulate/STIM_000.jpg	100
9.011	1.804	1803.5	regulate	Run1	regulate/STIM_000.jpg	99
14.365	2.548	2548.2	regulate	Run1	regulate/STIM_000.jpg	99
20.065	1.906	1906.2	regulate	Run1	regulate/STIM_001.jpg	99
24.374	1.696	1696.3	regulate	Run1	regulate/STIM_001.jpg	100
29.105	1.646	1645.5	regulate	Run1	regulate/STIM_001.jpg	99
32.854	1.366	1365.9	regulate	Run1	regulate/STIM_001.jpg	100
36.907	1.661	1661.2	regulate	Run1	regulate/STIM_002.jpg	100
41.786	1.926	1926.4	regulate	Run1	regulate/STIM_002.jpg	99
45.908	2.368	2368.0	regulate	Run1	regulate/STIM_002.jpg	100
51.902	1.425	1425.1	regulate	Run1	regulate/STIM_002.jpg	99
56.574	2.735	2734.7	regulate	Run1	regulate/STIM_003.jpg	99
62.849	2.426	2426.5	regulate	Run1	regulate/STIM_003.jpg	99
68.667	2.785	2785.0	regulate	Run1	regulate/STIM_003.jpg	99
75.076	2.873	2873.3	regulate	Run1	regulate/STIM_003.jpg	100
81.75	2.82	2819.7	regulate	Run1	regulate/STIM_004.jpg	100
88.126	2.833	2833.0	regulate	Run1	regulate/STIM_004.jpg	100
94.711	2.092	2091.8	regulate	Run1	regulate/STIM_004.jpg	99
100.029	2.023	2023.3	regulate	Run1	regulate/STIM_004.jpg	99
105.047	3.197	3196.6	regulate	Run1	regulate/STIM_005.jpg	99
111.976	2.331	2331.0	regulate	Run1	regulate/STIM_005.jpg	100
116.523	1.718	1718.4	regulate	Run1	regulate/STIM_005.jpg	100
122.155	2.782	2782.5	regulate	Run1	regulate/STIM_005.jpg	100
128.06	2.859	2858.6	regulate	Run1	regulate/STIM_006.jpg	100
134.003	1.636	1636.4	regulate	Run1	regulate/STIM_006.jpg	99
138.392	2.216	2215.9	regulate	Run1	regulate/STIM_006.jpg	100
144.0	1.523	1523.3	regulate	Run1	regulate/STIM_006.jpg	99
147.828	1.75	1750.3	regulate	Run1	regulate/STIM_007.jpg	100
153.139	2.144	2143.6	regulate	Run1	regulate/STIM_007.jpg	100
159.165	2.715	2715.4	regulate	Run1	regulate/STIM_007.jpg	99
164.284	2.675	2674.9	regulate	Run1	regulate/STIM_007.jpg	100
170.637	2.525	2524.7	regulate	Run1	regulate/STIM_008.jpg	99
175.757	2.021	2020.9	regulate	Run1	regulate/STIM_008.jpg	100
181.797	1.329	1329.3	regulate	Run1	regulate/STIM_008.jpg	99
185.534	1.553	1553.0	regulate	Run1	regulate/STIM_008.jpg	99
189.917	1.886	1885.8	regulate	Run1	regulate/STIM_009.jpg	100
195.796	2.185	2185.4	regulate	Run1	regulate/STIM_009.jpg	99
200.195	1.793	1793.1	regulate	Run1	regulate/STIM_009.jpg	100
205.473	2.073	2073.0	regulate	Run1	regulate/STIM_009.jpg	100
211.343	3.24	3240.0	regulate	Run1	regulate/STIM_010.jpg	99
216.575	1.986	1985.8	regulate	Run1	regulate/STIM_010.jpg	99
221.627	1.459	1458.8	regulate	Run1	regulate/STIM_010.jpg	100
225.284	1.615	1614.8	regulate	Run1	regulate/STIM_010.jpg	100
230.513	2.407	2407.1	regulate	Run1	regulate/STIM_011.jpg	100
236.633	3.078	3077.8	regulate	Run1	regulate/STIM_011.jpg	99
243.277	2.948	2948.1	regulate	Run1	regulate/STIM_011.jpg	99
248.723	1.77	1769.9	regulate	Run1	regulate/STIM_011.jpg	99
253.469	3.133	3133.2	regulate	Run1	regulate/STIM_012.jpg	100
260.578	2.573	2573.2	regulate	Run1	regulate/STIM_012.jpg	99
265.719	1.417	1417.0	regulate	Run1	regulate/STIM_012.jpg	99
269.845	2.904	2904.3	regulate	Run1	regulate/STIM_012.jpg	100
276.625	2.135	2135.3	regulate	Run1	regulate/STIM_013.jpg	99
282.563	1.653	1653.4	regulate	Run1	regulate/STIM_013.jpg	100
286.473	2.165	2164.7	regulate	Run1	regulate/STIM_013.jpg	100
290.977	2.461	2460.7	regulate	Run1	regulate/STIM_013.jpg	99
296.986	2.85	2849.5	regulate	Run1	regulate/STIM_014.jpg	99
303.194	3.224	3224.0	regulate	Run1	regulate/STIM_014.jpg	99
310.017	1.269	1269.0	regulate	Run1	regulate/STIM_014.jpg	99
314.216	1.572	1571.6	regulate	Run1	regulate/STIM_014.jpg	99
318.543	1.796	1795.8	regulate	Run1	regulate/STIM_015.jpg	100
323.751	2.254	2253.7	regulate	Run1	regulate/STIM_015.jpg	99
328.634	1.61	1610.1	regulate	Run1	regulate/STIM_015.jpg	100
332.5	2.049	2049.1	regulate	Run1	regulate/STIM_015.jpg	99
338.067	2.758	2757.8	regulate	Run1	regulate/STIM_016.jpg	100
343.042	3.056	3056.2	regulate	Run1	regulate/STIM_016.jpg	99
349.807	1.644	1644.5	regulate	Run1	regulate/STIM_016.jpg	99
354.213	1.332	1332.0	regulate	Run1	regulate/STIM_016.jpg	100
358.719	3.069	3069.2	regulate	Run1	regulate/STIM_017.jpg	99
365.21	1.587	1587.0	regulate	Run1	regulate/STIM_017.jpg	100
369.237	1.699	1698.8	regulate	Run1	regulate/STIM_017.jpg	99
373.795	1.834	1834.2	regulate	Run1	regulate/STIM_017.jpg	100
378.331	1.862	1861.9	regulate	Run1	regulate/STIM_018.jpg	100
382.568	2.611	2611.3	regulate	Run1	regulate/STIM_018.jpg	99
388.394	1.9	1899.9	regulate	Run1	regulate/STIM_018.jpg	100
394.109	2.523	2523.3	regulate	Run1	regulate/STIM_018.jpg	99
399.879	2.525	2524.7	regulate	Run1	regulate/STIM_019.jpg	100
406.149	2.001	2000.5	regulate	Run1	regulate/STIM_019.jpg	100
411.27	1.692	1692.0	regulate	Run1	regulate/STIM_019.jpg	99
416.777	1.418	1418.0	regulate	Run1	regulate/STIM_019.jpg	99
421.543	3.011	3011.2	regulate	Run1	regulate/STIM_020.jpg	100
427.435	1.475	1475.4	regulate	Run1	regulate/STIM_020.jpg	100
432.121	1.374	1374.5	regulate	Run1	regulate/STIM_020.jpg	100
436.618	1.703	1702.9	regulate	Run1	regulate/STIM_020.jpg	100
441.922	2.561	2560.8	regulate	Run1	regulate/STIM_021.jpg	100
447.553	1.989	1989.4	regulate	Run1	regulate/STIM_021.jpg	100
452.207	2.813	2813.2	regulate	Run1	regulate/STIM_021.jpg	100
457.758	2.683	2682.6	regulate	Run1	regulate/STIM_021.jpg	99
462.82	3.521	3521.4	regulate	Run1	regulate/STIM_022.jpg	100
468.394	1.583	1582.8	regulate	Run1	regulate/STIM_022.jpg	99
472.344	2.981	2981.4	regulate	Run1	regulate/STIM_022.jpg	100
478.504	1.426	1426.5	regulate	Run1	regulate/STIM_022.jpg	100
482.725	2.718	2718.5	regulate	Run1	regulate/STIM_023.jpg	100
489.042	1.51	1510.0	regulate	Run1	regulate/STIM_023.jpg	99
494.495	1.614	1613.8	regulate	Run1	regulate/STIM_023.jpg	99
498.465	2.584	2584.5	regulate	Run1	regulate/STIM_023.jpg	99
504.838	2.115	2115.1	regulate	Run1	regulate/STIM_024.jpg	99
509.719	2.456	2455.6	regulate	Run1	regulate/STIM_024.jpg	100
515.316	2.593	2593.0	regulate	Run1	regulate/STIM_024.jpg	99
521.329	1.267	1267.4	regulate	Run1	regulate/STIM_024.jpg	100
525.973	1.808	1807.7	regulate	Run1	regulate/STIM_025.jpg	100
531.401	1.396	1395.9	regulate	Run1	regulate/STIM_025.jpg	100
535.731	2.243	2242.6	regulate	Run1	regulate/STIM_025.jpg	100
540.486	2.793	2793.0	regulate	Run1	regulate/STIM_025.jpg	99
545.833	1.953	1952.9	regulate	Run1	regulate/STIM_026.jpg	100
550.534	2.604	2603.7	regulate	Run1	regulate/STIM_026.jpg	100
555.702	2.358	2357.7	regulate	Run1	regulate/STIM_026.jpg	99
561.67	2.156	2156.1	regulate	Run1	regulate/STIM_026.jpg	100
566.412	2.861	2860.7	regulate	Run1	regulate/STIM_027.jpg	99
572.073	1.479	1478.8	regulate	Run1	regulate/STIM_027.jpg	100
576.749	2.576	2575.9	regulate	Run1	regulate/STIM_027.jpg	100
582.257	1.893	1892.9	regulate	Run1	regulate/STIM_027.jpg	100
587.761	3.14	3140.1	regulate	Run1	regulate/STIM_028.jpg	100
593.987	2.415	2415.3	regulate	Run1	regulate/STIM_028.jpg	99
599.345	1.591	1591.4	regulate	Run1	regulate/STIM_028.jpg	99
603.452	1.702	1702.3	regulate	Run1	regulate/STIM_028.jpg	100
607.249	2.058	2058.1	regulate	Run1	regulate/STIM_029.jpg	100
611.484	2.03	2030.5	regulate	Run1	regulate/STIM_029.jpg	99
617.249	2.128	2128.0	regulate	Run1	regulate/STIM_029.jpg	99
621.755	1.924	1923.8	regulate	Run1	regulate/STIM_029.jpg	100
625.894	1.158	1158.1	observe	Run1	observe/STIM_000.jpg	100
630.112	1.386	1386.3	observe	Run1	observe/STIM_000.jpg	99
634.169	1.231	1230.6	observe	Run1	observe/STIM_000.jpg	99
637.529	1.62	1620.3	observe	Run1	observe/STIM_000.jpg	100
642.611	1.395	1394.6	observe	Run1	observe/STIM_001.jpg	99
647.341	1.361	1361.3	observe	Run1	observe/STIM_001.jpg	100
651.69	0.811	811.2	observe	Run1	observe/STIM_001.jpg	99
656.292	1.309	1308.7	observe	Run1	observe/STIM_001.jpg	100
660.096	1.169	1169.4	observe	Run1	observe/STIM_002.jpg	100
663.756	1.382	1381.7	observe	Run1	observe/STIM_002.jpg	99
667.275	0.847	847.0	observe	Run1	observe/STIM_002.jpg	99
671.054	0.884	883.8	observe	Run1	observe/STIM_002.jpg	100
674.235	0.87	869.7	observe	Run1	observe/STIM_003.jpg	99
677.333	1.541	1541.4	observe	Run1	observe/STIM_003.jpg	99
681.394	0.815	814.6	observe	Run1	observe/STIM_003.jpg	100
685.131	1.258	1257.6	observe	Run1	observe/STIM_003.jpg	100
690.135	0.902	902.0	observe	Run1	observe/STIM_004.jpg	99
694.23	0.973	973.0	observe	Run1	observe/STIM_004.jpg	100
697.458	1.161	1161.3	observe	Run1	observe/STIM_004.jpg	100
702.496	1.155	1155.3	observe	Run1	observe/STIM_004.jpg	99
705.975	1.578	1578.0	observe	Run1	observe/STIM_005.jpg	99
711.348	1.476	1476.1	observe	Run1	observe/STIM_005.jpg	99
715.918	1.416	1415.8	observe	Run1	observe/STIM_005.jpg	100
720.438	0.937	937.3	observe	Run1	observe/STIM_005.jpg	99
724.893	1.244	1244.0	observe	Run1	observe/STIM_006.jpg	99
729.065	1.089	1089.1	observe	Run1	observe/STIM_006.jpg	99
733.09	1.239	1239.2	observe	Run1	observe/STIM_006.jpg	100
736.725	1.459	1459.4	observe	Run1	observe/STIM_006.jpg	100
741.995	0.785	784.9	observe	Run1	observe/STIM_007.jpg	100
745.164	1.19	1189.7	observe	Run1	observe/STIM_007.jpg	100
748.574	1.302	1302.0	observe	Run1	observe/STIM_007.jpg	99
752.588	0.998	997.6	observe	Run1	observe/STIM_007.jpg	99
755.81	1.019	1018.9	observe	Run1	observe/STIM_008.jpg	100
758.983	1.198	1197.8	observe	Run1	observe/STIM_008.jpg	99
763.187	0.886	885.7	observe	Run1	observe/STIM_008.jpg	99
767.838	0.947	947.4	observe	Run1	observe/STIM_008.jpg	100
772.084	1.109	1109.3	observe	Run1	observe/STIM_009.jpg	99
776.816	1.229	1228.9	observe	Run1	observe/STIM_009.jpg	99
781.001	1.355	1355.4	observe	Run1	observe/STIM_009.jpg	100
785.471	0.92	919.6	observe	Run1	observe/STIM_009.jpg	100
789.606	1.488	1488.3	observe	Run1	observe/STIM_010.jpg	100
793.378	1.186	1185.5	observe	Run1	observe/STIM_010.jpg	100
796.622	1.454	1453.5	observe	Run1	observe/STIM_010.jpg	100
801.602	1.12	1119.5	observe	Run1	observe/STIM_010.jpg	100
805.23	1.281	1281.2	observe	Run1	observe/STIM_011.jpg	99
809.68	1.049	1049.3	observe	Run1	observe/STIM_011.jpg	99
814.454	1.159	1159.2	observe	Run1	observe/STIM_011.jpg	100
818.136	0.994	994.4	observe	Run1	observe/STIM_011.jpg	100
822.928	1.035	1035.0	observe	Run1	observe/STIM_012.jpg	99
826.98	1.34	1340.1	observe	Run1	observe/STIM_012.jpg	100
831.827	1.479	1479.1	observe	Run1	observe/STIM_012.jpg	99
836.196	0.787	787.1	observe	Run1	observe/STIM_012.jpg	99
839.275	1.116	1116.1	observe	Run1	observe/STIM_013.jpg	99
844.406	1.016	1015.7	observe	Run1	observe/STIM_013.jpg	100
848.531	1.364	1363.5	observe	Run1	observe/STIM_013.jpg	99
852.505	1.134	1134.2	observe	Run1	observe/STIM_013.jpg	99
857.23	1.658	1657.6	observe	Run1	observe/STIM_014.jpg	99
861.671	0.826	826.5	observe	Run1	observe/STIM_014.jpg	99
866.495	1.58	1580.4	observe	Run1	observe/STIM_014.jpg	99
871.543	0.928	927.5	observe	Run1	observe/STIM_014.jpg	99
874.767	1.425	1425.0	observe	Run1	observe/STIM_015.jpg	99
878.931	1.233	1233.3	observe	Run1	observe/STIM_015.jpg	100
882.251	0.855	855.4	observe	Run1	observe/STIM_015.jpg	100
886.044	0.986	985.5	observe	Run1	observe/STIM_015.jpg	99
890.12	1.248	1248.1	observe	Run1	observe/STIM_016.jpg	100
895.079	1.487	1487.2	observe	Run1	observe/STIM_016.jpg	100
898.846	0.888	887.7	observe	Run1	observe/STIM_016.jpg	100
903.07	0.974	973.5	observe	Run1	observe/STIM_016.jpg	99
906.985	1.329	1329.0	observe	Run1	observe/STIM_017.jpg	99
911.768	1.345	1344.6	observe	Run1	observe/STIM_017.jpg	100
916.26	1.565	1565.2	observe	Run1	observe/STIM_017.jpg	99
920.071	1.216	1215.6	observe	Run1	observe/STIM_017.jpg	99
924.976	1.346	1345.5	observe	Run1	observe/STIM_018.jpg	99
929.207	1.037	1037.2	observe	Run1	observe/STIM_018.jpg	99
933.2	1.505	1504.9	observe	Run1	observe/STIM_018.jpg	100
938.051	0.824	823.5	observe	Run1	observe/STIM_018.jpg	99
942.111	1.146	1145.7	observe	Run1	observe/STIM_019.jpg	100
946.587	1.202	1202.5	observe	Run1	observe/STIM_019.jpg	99
950.651	0.957	957.3	observe	Run1	observe/STIM_019.jpg	99
954.743	1.339	1339.3	observe	Run1	observe/STIM_019.jpg	99
958.572	2.022	2022.5	regulate	Run2	regulate/STIM_000.jpg	100
963.746	2.332	2331.8	regulate	Run2	regulate/STIM_000.jpg	99
969.334	1.737	1736.9	regulate	Run2	regulate/STIM_000.jpg	99
975.044	1.534	1533.6	regulate	Run2	regulate/STIM_000.jpg	99
979.596	1.653	1652.8	regulate	Run2	regulate/STIM_001.jpg	100
983.311	2.051	2051.0	regulate	Run2	regulate/STIM_001.jpg	99
988.104	1.323	1323.3	regulate	Run2	regulate/STIM_001.jpg	99
991.684	1.139	1138.8	regulate	Run2	regulate/STIM_001.jpg	100
995.361	1.808	1808.5	regulate	Run2	regulate/STIM_002.jpg	99
999.404	2.142	2142.3	regulate	Run2	regulate/STIM_002.jpg	100
1003.945	2.381	2381.0	regulate	Run2	regulate/STIM_002.jpg	100
1010.1	1.062	1062.5	regulate	Run2	regulate/STIM_002.jpg	100
1014.161	1.52	1519.8	regulate	Run2	regulate/STIM_003.jpg	100
1018.355	1.242	1242.1	regulate	Run2	regulate/STIM_003.jpg	100
1021.803	2.538	2538.0	regulate	Run2	regulate/STIM_003.jpg	100
1027.44	2.148	2148.4	regulate	Run2	regulate/STIM_003.jpg	100
1033.183	1.711	1711.4	regulate	Run2	regulate/STIM_004.jpg	100
1037.85	1.952	1952.0	regulate	Run2	regulate/STIM_004.jpg	100
1043.141	1.697	1697.4	regulate	Run2	regulate/STIM_004.jpg	99
1048.366	2.139	2138.9	regulate	Run2	regulate/STIM_004.jpg	99
1053.638	1.762	1761.9	regulate	Run2	regulate/STIM_005.jpg	99
1058.975	2.597	2596.7	regulate	Run2	regulate/STIM_005.jpg	100
1063.709	1.867	1867.4	regulate	Run2	regulate/STIM_005.jpg	100
1067.886	1.676	1676.3	regulate	Run2	regulate/STIM_005.jpg	99
1072.841	1.797	1797.1	regulate	Run2	regulate/STIM_006.jpg	100
1077.864	1.539	1538.6	regulate	Run2	regulate/STIM_006.jpg	99
1082.995	1.255	1255.1	regulate	Run2	regulate/STIM_006.jpg	99
1086.601	2.226	2226.0	regulate	Run2	regulate/STIM_006.jpg	100
1092.039	2.177	2176.8	regulate	Run2	regulate/STIM_007.jpg	100
1097.675	1.839	1839.0	regulate	Run2	regulate/STIM_007.jpg	100
1101.604	1.823	1822.6	regulate	Run2	regulate/STIM_007.jpg	100
1107.353	2.039	2039.2	regulate	Run2	regulate/STIM_007.jpg	99
1112.378	1.968	1968.4	regulate	Run2	regulate/STIM_008.jpg	99
1116.646	1.954	1953.7	regulate	Run2	regulate/STIM_008.jpg	100
1122.141	1.912	1911.5	regulate	Run2	regulate/STIM_008.jpg	100
1128.026	1.22	1220.3	regulate	Run2	regulate/STIM_008.jpg	100
1132.182	1.588	1587.8	regulate	Run2	regulate/STIM_009.jpg	99
1137.553	1.568	1567.9	regulate	Run2	regulate/STIM_009.jpg	100
1142.273	2.544	2544.4	regulate	Run2	regulate/STIM_009.jpg	100
1147.233	1.496	1496.3	regulate	Run2	regulate/STIM_009.jpg	100
1152.241	2.214	2214.4	regulate	Run2	regulate/STIM_010.jpg	100
1156.709	2.801	2801.2	regulate	Run2	regulate/STIM_010.jpg	100
1162.211	2.281	2280.6	regulate	Run2	regulate/STIM_010.jpg	100
1166.924	1.058	1058.1	regulate	Run2	regulate/STIM_010.jpg	100
1170.913	1.462	1462.3	regulate	Run2	regulate/STIM_011.jpg	100
1175.43	1.701	1700.9	regulate	Run2	regulate/STIM_011.jpg	100
1180.255	1.478	1477.9	regulate	Run2	regulate/STIM_011.jpg	100
1184.731	1.539	1539.4	regulate	Run2	regulate/STIM_011.jpg	100
1188.957	1.662	1661.8	regulate	Run2	regulate/STIM_012.jpg	99
1193.624	2.173	2173.4	regulate	Run2	regulate/STIM_012.jpg	100
1199.256	2.471	2470.7	regulate	Run2	regulate/STIM_012.jpg	100
1204.491	2.158	2158.2	regulate	Run2	regulate/STIM_012.jpg	99
1209.518	1.524	1523.6	regulate	Run2	regulate/STIM_013.jpg	99
1213.693	2.554	2553.9	regulate	Run2	regulate/STIM_013.jpg	99
1219.984	2.149	2148.7	regulate	Run2	regulate/STIM_013.jpg	99
1224.212	1.702	1702.1	regulate	Run2	regulate/STIM_013.jpg	99
1229.631	1.975	1974.8	regulate	Run2	regulate/STIM_014.jpg	100
1235.617	1.896	1895.9	regulate	Run2	regulate/STIM_014.jpg	99
1240.293	1.906	1905.7	regulate	Run2	regulate/STIM_014.jpg	99
1244.857	1.147	1147.0	regulate	Run2	regulate/STIM_014.jpg	100
1248.659	1.5	1499.6	regulate	Run2	regulate/STIM_015.jpg	100
1254.126	2.232	2232.5	regulate	Run2	regulate/STIM_015.jpg	99
1258.396	1.448	1447.7	regulate	Run2	regulate/STIM_015.jpg	100
1262.549	1.899	1899.0	regulate	Run2	regulate/STIM_015.jpg	99
1266.5	2.301	2301.3	regulate	Run2	regulate/STIM_016.jpg	100
1271.784	2.327	2326.7	regulate	Run2	regulate/STIM_016.jpg	99
1277.013	2.361	2360.9	regulate	Run2	regulate/STIM_016.jpg	99
1282.111	2.306	2306.0	regulate	Run2	regulate/STIM_016.jpg	99
1288.424	1.386	1385.8	regulate	Run2	regulate/STIM_017.jpg	100
1292.049	2.368	2368.4	regulate	Run2	regulate/STIM_017.jpg	99
1297.852	2.48	2479.8	regulate	Run2	regulate/STIM_017.jpg	99
1304.048	2.138	2138.0	regulate	Run2	regulate/STIM_017.jpg	99
1310.127	2.17	2169.9	regulate	Run2	regulate/STIM_018.jpg	100
1314.482	2.23	2229.5	regulate	Run2	regulate/STIM_018.jpg	99
1318.84	1.284	1283.7	regulate	Run2	regulate/STIM_018.jpg	100
1323.44	2.308	2308.4	regulate	Run2	regulate/STIM_018.jpg	99
1328.595	2.684	2683.6	regulate	Run2	regulate/STIM_019.jpg	100
1333.367	2.701	2701.2	regulate	Run2	regulate/STIM_019.jpg	99
1338.898	1.921	1921.2	regulate	Run2	regulate/STIM_019.jpg	99
1343.046	1.498	1497.9	regulate	Run2	regulate/STIM_019.jpg	100
1347.935	1.393	1392.9	regulate	Run2	regulate/STIM_020.jpg	100
1351.525	1.486	1486.4	regulate	Run2	regulate/STIM_020.jpg	99
1355.675	2.472	2471.5	regulate	Run2	regulate/STIM_020.jpg	100
1361.847	2.001	2000.9	regulate	Run2	regulate/STIM_020.jpg	100
1366.845	2.156	2156.2	regulate	Run2	regulate/STIM_021.jpg	99
1372.603	1.73	1729.7	regulate	Run2	regulate/STIM_021.jpg	100
1378.342	1.978	1978.1	regulate	Run2	regulate/STIM_021.jpg	99
1383.625	2.151	2151.2	regulate	Run2	regulate/STIM_021.jpg	99
1389.408	2.875	2874.8	regulate	Run2	regulate/STIM_022.jpg	100
1394.402	1.477	1476.8	regulate	Run2	regulate/STIM_022.jpg	100
1399.806	1.754	1753.9	regulate	Run2	regulate/STIM_022.jpg	99
1405.334	1.608	1608.5	regulate	Run2	regulate/STIM_022.jpg	99
1410.052	1.601	1600.9	regulate	Run2	regulate/STIM_023.jpg	100
1414.464	1.489	1488.6	regulate	Run2	regulate/STIM_023.jpg	99
1418.289	1.532	1532.0	regulate	Run2	regulate/STIM_023.jpg	100
1422.941	1.024	1024.1	regulate	Run2	regulate/STIM_023.jpg	100
1426.829	2.41	2410.0	regulate	Run2	regulate/STIM_024.jpg	100
1431.916	1.252	1252.1	regulate	Run2	regulate/STIM_024.jpg	100
1435.432	2.428	2427.7	regulate	Run2	regulate/STIM_024.jpg	99
1440.566	1.197	1197.2	regulate	Run2	regulate/STIM_024.jpg	100
1445.09	1.753	1753.4	regulate	Run2	regulate/STIM_025.jpg	99
1450.809	1.498	1498.4	regulate	Run2	regulate/STIM_025.jpg	100
1455.169	1.249	1248.9	regulate	Run2	regulate/STIM_025.jpg	99
1459.505	1.328	1327.5	regulate	Run2	regulate/STIM_025.jpg	99
1464.755	1.738	1738.4	regulate	Run2	regulate/STIM_026.jpg	99
1470.41	1.489	1488.8	regulate	Run2	regulate/STIM_026.jpg	100
1474.762	2.504	2504.1	regulate	Run2	regulate/STIM_026.jpg	100
1480.606	2.404	2404.2	regulate	Run2	regulate/STIM_026.jpg	100
1485.98	1.284	1284.3	regulate	Run2	regulate/STIM_027.jpg	99
1490.397	2.072	2072.3	regulate	Run2	regulate/STIM_027.jpg	100
1496.053	2.358	2357.9	regulate	Run2	regulate/STIM_027.jpg	99
1502.043	1.325	1325.1	regulate	Run2	regulate/STIM_027.jpg	99
1505.717	2.647	2646.8	regulate	Run2	regulate/STIM_028.jpg	99
1511.586	2.541	2541.3	regulate	Run2	regulate/STIM_028.jpg	99
1517.775	1.242	1242.5	regulate	Run2	regulate/STIM_028.jpg	100
1521.525	1.226	1226.1	regulate	Run2	regulate/STIM_028.jpg	99
1526.68	1.763	1763.0	regulate	Run2	regulate/STIM_029.jpg	99
1530.715	1.878	1877.6	regulate	Run2	regulate/STIM_029.jpg	99
1535.888	1.821	1821.0	regulate	Run2	regulate/STIM_029.jpg	100
1541.274	1.838	1838.2	regulate	Run2	regulate/STIM_029.jpg	100
1546.135	1.359	1358.8	observe	Run2	observe/STIM_000.jpg	99
1550.413	0.909	909.3	observe	Run2	observe/STIM_000.jpg	99
1555.121	1.442	1442.1	observe	Run2	observe/STIM_000.jpg	100
1558.742	1.071	1071.3	observe	Run2	observe/STIM_000.jpg	100
1563.306	1.132	1131.6	observe	Run2	observe/STIM_001.jpg	100
1567.859	1.05	1049.8	observe	Run2	observe/STIM_001.jpg	100
1571.27	1.29	1290.5	observe	Run2	observe/STIM_001.jpg	100
1576.43	0.882	881.6	observe	Run2	observe/STIM_001.jpg	99
1579.543	1.059	1058.6	observe	Run2	observe/STIM_002.jpg	100
1584.115	1.277	1276.9	observe	Run2	observe/STIM_002.jpg	99
1587.55	0.794	794.2	observe	Run2	observe/STIM_002.jpg	100
1592.033	1.362	1361.6	observe	Run2	observe/STIM_002.jpg	99
1596.978	0.81	809.6	observe	Run2	observe/STIM_003.jpg	100
1601.213	1.273	1272.7	observe	Run2	observe/STIM_003.jpg	99
1605.308	1.046	1045.7	observe	Run2	observe/STIM_003.jpg	99
1609.407	1.111	1110.9	observe	Run2	observe/STIM_003.jpg	100
1614.099	1.168	1168.5	observe	Run2	observe/STIM_004.jpg	99
1618.474	1.473	1472.6	observe	Run2	observe/STIM_004.jpg	99
1623.505	1.622	1621.8	observe	Run2	observe/STIM_004.jpg	100
1627.279	1.26	1260.5	observe	Run2	observe/STIM_004.jpg	99
1630.543	1.054	1053.6	observe	Run2	observe/STIM_005.jpg	99
1634.495	0.879	879.4	observe	Run2	observe/STIM_005.jpg	99
1638.855	1.028	1028.0	observe	Run2	observe/STIM_005.jpg	99
1642.785	1.471	1470.7	observe	Run2	observe/STIM_005.jpg	100
1647.889	1.101	1100.8	observe	Run2	observe/STIM_006.jpg	99
1651.808	1.548	1547.8	observe	Run2	observe/STIM_006.jpg	100
1656.33	1.527	1527.2	observe	Run2	observe/STIM_006.jpg	99
1660.07	1.196	1195.8	observe	Run2	observe/STIM_006.jpg	99
1664.971	1.446	1445.6	observe	Run2	observe/STIM_007.jpg	99
1668.462	1.123	1123.1	observe	Run2	observe/STIM_007.jpg	100
1673.172	1.422	1421.5	observe	Run2	observe/STIM_007.jpg	99
1677.264	0.831	831.3	observe	Run2	observe/STIM_007.jpg	99
1681.363	1.047	1047.3	observe	Run2	observe/STIM_008.jpg	99
1684.749	1.303	1302.7	observe	Run2	observe/STIM_008.jpg	100
1689.98	1.155	1154.9	observe	Run2	observe/STIM_008.jpg	100
1693.806	0.932	932.3	observe	Run2	observe/STIM_008.jpg	99
1698.352	1.027	1027.0	observe	Run2	observe/STIM_009.jpg	99
1701.887	1.535	1534.9	observe	Run2	observe/STIM_009.jpg	100
1706.914	1.237	1236.7	observe	Run2	observe/STIM_009.jpg	99
1711.951	1.549	1549.1	observe	Run2	observe/STIM_009.jpg	99
1716.404	1.347	1347.3	observe	Run2	observe/STIM_010.jpg	100
1720.719	1.255	1254.6	observe	Run2	observe/STIM_010.jpg	100
1725.657	1.172	1171.7	observe	Run2	observe/STIM_010.jpg	100
1730.333	0.82	819.8	observe	Run2	observe/STIM_010.jpg	100
1735.042	1.115	1115.4	observe	Run2	observe/STIM_011.jpg	99
1739.814	0.869	868.6	observe	Run2	observe/STIM_011.jpg	100
1743.984	1.301	1301.0	observe	Run2	observe/STIM_011.jpg	99
1749.112	1.057	1057.2	observe	Run2	observe/STIM_011.jpg	99
1753.964	1.235	1235.4	observe	Run2	observe/STIM_012.jpg	100
1758.691	1.404	1403.8	observe	Run2	observe/STIM_012.jpg	100
1762.66	1.475	1475.3	observe	Run2	observe/STIM_012.jpg	100
1766.791	1.183	1182.6	observe	Run2	observe/STIM_012.jpg	100
1771.86	1.445	1445.2	observe	Run2	observe/STIM_013.jpg	99
1775.386	0.85	850.0	observe	Run2	observe/STIM_013.jpg	100
1779.55	0.813	813.1	observe	Run2	observe/STIM_013.jpg	100
1783.263	0.77	769.5	observe	Run2	observe/STIM_013.jpg	99
1788.035	1.319	1318.9	observe	Run2	observe/STIM_014.jpg	99
1791.756	1.1	1099.9	observe	Run2	observe/STIM_014.jpg	100
1795.452	1.197	1197.0	observe	Run2	observe/STIM_014.jpg	99
1799.723	1.282	1281.7	observe	Run2	observe/STIM_014.jpg	99
1803.163	1.566	1565.7	observe	Run2	observe/STIM_015.jpg	100
1807.382	0.822	821.5	observe	Run2	observe/STIM_015.jpg	99
1810.589	1.151	1151.0	observe	Run2	observe/STIM_015.jpg	100
1815.318	1.556	1555.9	observe	Run2	observe/STIM_015.jpg	99
1819.565	1.16	1160.5	observe	Run2	observe/STIM_016.jpg	99
1824.094	1.586	1585.7	observe	Run2	observe/STIM_016.jpg	99
1829.333	1.412	1412.2	observe	Run2	observe/STIM_016.jpg	100
1833.207	1.334	1334.1	observe	Run2	observe/STIM_016.jpg	100
1837.687	1.194	1194.5	observe	Run2	observe/STIM_017.jpg	99
1842.084	1.107	1107.1	observe	Run2	observe/STIM_017.jpg	99
1845.933	1.01	1009.6	observe	Run2	observe/STIM_017.jpg	99
1849.931	1.221	1221.2	observe	Run2	observe/STIM_017.jpg	100
1853.271	1.545	1544.6	observe	Run2	observe/STIM_018.jpg	99
1857.095	1.551	1551.1	observe	Run2	observe/STIM_018.jpg	99
1862.499	1.362	1362.5	observe	Run2	observe/STIM_018.jpg	100
1866.369	1.226	1226.1	observe	Run2	observe/STIM_018.jpg	100
1869.758	1.446	1446.2	observe	Run2	observe/STIM_019.jpg	99
1874.512	0.942	941.5	observe	Run2	observe/STIM_019.jpg	99
1877.669	0.96	960.2	observe	Run2	observe/STIM_019.jpg	100
1880.751	1.377	1377.1	observe	Run2	observe/STIM_019.jpg	100
1886.084	1.642	1641.8	regulate	Run3	regulate/STIM_000.jpg	99
1890.366	2.483	2483.1	regulate	Run3	regulate/STIM_000.jpg	99
1894.824	2.389	2389.2	regulate	Run3	regulate/STIM_000.jpg	99
1899.898	2.135	2134.7	regulate	Run3	regulate/STIM_000.jpg	100
1904.612	1.21	1210.0	regulate	Run3	regulate/STIM_001.jpg	100
1908.072	1.228	1228.1	regulate	Run3	regulate/STIM_001.jpg	99
1911.588	1.721	1721.1	regulate	Run3	regulate/STIM_001.jpg	100
1915.618	1.718	1718.4	regulate	Run3	regulate/STIM_001.jpg	99
1920.178	2.081	2081.4	regulate	Run3	regulate/STIM_002.jpg	100
1925.121	1.072	1072.0	regulate	Run3	regulate/STIM_002.jpg	100
1928.87	1.268	1268.4	regulate	Run3	regulate/STIM_002.jpg	100
1933.608	1.401	1401.2	regulate	Run3	regulate/STIM_002.jpg	99
1938.463	2.105	2105.1	regulate	Run3	regulate/STIM_003.jpg	100
1943.019	1.472	1471.5	regulate	Run3	regulate/STIM_003.jpg	99
1947.006	2.204	2204.4	regulate	Run3	regulate/STIM_003.jpg	99
1952.728	1.975	1974.9	regulate	Run3	regulate/STIM_003.jpg	99
1958.658	1.918	1917.7	regulate	Run3	regulate/STIM_004.jpg	99
1963.261	1.322	1322.2	regulate	Run3	regulate/STIM_004.jpg	100
1968.366	1.291	1291.0	regulate	Run3	regulate/STIM_004.jpg	99
1973.37	2.205	2205.1	regulate	Run3	regulate/STIM_004.jpg	99
1978.165	1.13	1129.9	regulate	Run3	regulate/STIM_005.jpg	99
1981.809	2.368	2367.5	regulate	Run3	regulate/STIM_005.jpg	100
1987.752	1.826	1825.8	regulate	Run3	regulate/STIM_005.jpg	100
1993.553	1.999	1999.0	regulate	Run3	regulate/STIM_005.jpg	99
1999.121	1.474	1474.5	regulate	Run3	regulate/STIM_006.jpg	100
2002.881	1.178	1178.4	regulate	Run3	regulate/STIM_006.jpg	100
2007.951	2.055	2055.4	regulate	Run3	regulate/STIM_006.jpg	100
2013.849	1.933	1933.3	regulate	Run3	regulate/STIM_006.jpg	100
2018.687	1.431	1430.7	regulate	Run3	regulate/STIM_007.jpg	99
2022.446	1.486	1486.4	regulate	Run3	regulate/STIM_007.jpg	99
2027.275	1.695	1694.8	regulate	Run3	regulate/STIM_007.jpg	99
2031.52	1.468	1467.8	regulate	Run3	regulate/STIM_007.jpg	100
2036.077	2.119	2119.1	regulate	Run3	regulate/STIM_008.jpg	99
2040.927	1.16	1159.5	regulate	Run3	regulate/STIM_008.jpg	99
2044.704	2.381	2381.3	regulate	Run3	regulate/STIM_008.jpg	100
2050.75	1.662	1662.1	regulate	Run3	regulate/STIM_008.jpg	100
2054.529	1.637	1637.3	regulate	Run3	regulate/STIM_009.jpg	100
2058.962	1.706	1705.6	regulate	Run3	regulate/STIM_009.jpg	99
2063.308	1.944	1943.6	regulate	Run3	regulate/STIM_009.jpg	100
2069.231	1.977	1977.3	regulate	Run3	regulate/STIM_009.jpg	99
2074.365	1.315	1315.3	regulate	Run3	regulate/STIM_010.jpg	100
2078.964	2.191	2191.3	regulate	Run3	regulate/STIM_010.jpg	100
2084.962	1.11	1109.5	regulate	Run3	regulate/STIM_010.jpg	100
2089.548	2.12	2119.5	regulate	Run3	regulate/STIM_010.jpg	99
2094.957	1.317	1317.2	regulate	Run3	regulate/STIM_011.jpg	99
2098.704	2.212	2212.5	regulate	Run3	regulate/STIM_011.jpg	100
2103.881	1.363	1363.1	regulate	Run3	regulate/STIM_011.jpg	99
2108.273	1.485	1485.4	regulate	Run3	regulate/STIM_011.jpg	99
2112.443	1.897	1897.4	regulate	Run3	regulate/STIM_012.jpg	99
2116.465	1.801	1801.4	regulate	Run3	regulate/STIM_012.jpg	100
2121.856	1.682	1682.4	regulate	Run3	regulate/STIM_012.jpg	99
2127.434	1.122	1122.2	regulate	Run3	regulate/STIM_012.jpg	99
2130.57	1.357	1356.6	regulate	Run3	regulate/STIM_013.jpg	100
2134.111	1.75	1750.1	regulate	Run3	regulate/STIM_013.jpg	99
2138.195	2.242	2241.7	regulate	Run3	regulate/STIM_013.jpg	100
2143.772	1.755	1754.9	regulate	Run3	regulate/STIM_013.jpg	100
2148.62	1.096	1096.1	regulate	Run3	regulate/STIM_014.jpg	99
2152.656	1.104	1103.6	regulate	Run3	regulate/STIM_014.jpg	100
2156.244	2.264	2264.1	regulate	Run3	regulate/STIM_014.jpg	100
2162.155	1.314	1313.7	regulate	Run3	regulate/STIM_014.jpg	100
2167.259	2.181	2181.0	regulate	Run3	regulate/STIM_015.jpg	100
2172.134	1.47	1469.6	regulate	Run3	regulate/STIM_015.jpg	100
2176.594	1.605	1605.4	regulate	Run3	regulate/STIM_015.jpg	99
2181.53	1.463	1462.9	regulate	Run3	regulate/STIM_015.jpg	99
2186.278	1.057	1057.3	regulate	Run3	regulate/STIM_016.jpg	100
2190.026	1.065	1065.4	regulate	Run3	regulate/STIM_016.jpg	100
2193.617	2.099	2098.6	regulate	Run3	regulate/STIM_016.jpg	99
2199.5	2.237	2236.8	regulate	Run3	regulate/STIM_016.jpg	100
2205.347	1.125	1125.4	regulate	Run3	regulate/STIM_017.jpg	100
2209.473	2.312	2312.4	regulate	Run3	regulate/STIM_017.jpg	99
2215.321	2.151	2150.7	regulate	Run3	regulate/STIM_017.jpg	99
2219.593	1.848	1848.3	regulate	Run3	regulate/STIM_017.jpg	99
2225.097	1.656	1655.7	regulate	Run3	regulate/STIM_018.jpg	100
2228.987	2.443	2442.9	regulate	Run3	regulate/STIM_018.jpg	99
2234.478	1.632	1632.5	regulate	Run3	regulate/STIM_018.jpg	100
2238.512	2.426	2425.5	regulate	Run3	regulate/STIM_018.jpg	99
2243.665	1.649	1648.7	regulate	Run3	regulate/STIM_019.jpg	99
2248.055	1.569	1569.3	regulate	Run3	regulate/STIM_019.jpg	99
2253.021	2.026	2025.9	regulate	Run3	regulate/STIM_019.jpg	100
2258.995	1.191	1190.7	regulate	Run3	regulate/STIM_019.jpg	99
2262.363	1.869	1869.2	regulate	Run3	regulate/STIM_020.jpg	99
2267.62	1.679	1678.9	regulate	Run3	regulate/STIM_020.jpg	99
2272.096	1.696	1695.9	regulate	Run3	regulate/STIM_020.jpg	99
2276.596	1.446	1445.8	regulate	Run3	regulate/STIM_020.jpg	99
2281.633	2.078	2078.2	regulate	Run3	regulate/STIM_021.jpg	99
2286.766	2.092	2092.4	regulate	Run3	regulate/STIM_021.jpg	100
2292.046	1.112	1112.2	regulate	Run3	regulate/STIM_021.jpg	99
2295.219	1.399	1398.7	regulate	Run3	regulate/STIM_021.jpg	100
2299.833	1.025	1025.4	regulate	Run3	regulate/STIM_022.jpg	100
2303.732	1.731	1731.4	regulate	Run3	regulate/STIM_022.jpg	99
2309.172	1.274	1274.1	regulate	Run3	regulate/STIM_022.jpg	100
2314.496	2.396	2396.4	regulate	Run3	regulate/STIM_022.jpg	100
2319.292	1.125	1125.4	regulate	Run3	regulate/STIM_023.jpg	99
2324.007	2.155	2155.0	regulate	Run3	regulate/STIM_023.jpg	100
2330.142	1.581	1581.2	regulate	Run3	regulate/STIM_023.jpg	100
2335.148	2.003	2002.8	regulate	Run3	regulate/STIM_023.jpg	100
2340.104	2.349	2349.0	regulate	Run3	regulate/STIM_024.jpg	100
2346.14	1.96	1960.2	regulate	Run3	regulate/STIM_024.jpg	100
2351.213	1.278	1277.8	regulate	Run3	regulate/STIM_024.jpg	99
2355.913	1.958	1957.8	regulate	Run3	regulate/STIM_024.jpg	99
2360.129	2.063	2062.6	regulate	Run3	regulate/STIM_025.jpg	100
2366.02	2.08	2079.7	regulate	Run3	regulate/STIM_025.jpg	100
2370.623	1.479	1478.8	regulate	Run3	regulate/STIM_025.jpg	99
2374.042	1.775	1774.7	regulate	Run3	regulate/STIM_025.jpg	100
2379.135	2.294	2293.5	regulate	Run3	regulate/STIM_026.jpg	100
2384.732	1.798	1798.1	regulate	Run3	regulate/STIM_026.jpg	99
2389.383	2.381	2381.0	regulate	Run3	regulate/STIM_026.jpg	99
2395.324	1.538	1537.5	regulate	Run3	regulate/STIM_026.jpg	99
2400.049	1.429	1428.6	regulate	Run3	regulate/STIM_027.jpg	100
2405.489	2.13	2129.8	regulate	Run3	regulate/STIM_027.jpg	99
2409.997	1.234	1233.5	regulate	Run3	regulate/STIM_027.jpg	99
2414.21	1.387	1387.0	regulate	Run3	regulate/STIM_027.jpg	100
2419.554	1.705	1705.0	regulate	Run3	regulate/STIM_028.jpg	100
2424.403	2.42	2419.6	regulate	Run3	regulate/STIM_028.jpg	100
2429.146	2.105	2104.6	regulate	Run3	regulate/STIM_028.jpg	99
2434.706	1.054	1054.0	regulate	Run3	regulate/STIM_028.jpg	99
2439.71	1.057	1057.3	regulate	Run3	regulate/STIM_029.jpg	99
2443.484	1.188	1187.8	regulate	Run3	regulate/STIM_029.jpg	99
2446.948	2.129	2129.4	regulate	Run3	regulate/STIM_029.jpg	99
2451.736	1.918	1918.1	regulate	Run3	regulate/STIM_029.jpg	99
2457.297	0.911	911.0	observe	Run3	observe/STIM_000.jpg	100
2460.703	0.926	925.8	observe	Run3	observe/STIM_000.jpg	99
2464.615	0.904	903.5	observe	Run3	observe/STIM_000.jpg	99
2468.957	1.473	1473.0	observe	Run3	observe/STIM_000.jpg	100
2474.3	1.184	1183.8	observe	Run3	observe/STIM_001.jpg	100
2478.002	0.996	996.0	observe	Run3	observe/STIM_001.jpg	100
2482.761	1.184	1183.9	observe	Run3	observe/STIM_001.jpg	100
2486.834	1.289	1289.2	observe	Run3	observe/STIM_001.jpg	99
2491.531	1.589	1589.0	observe	Run3	observe/STIM_002.jpg	100
2496.654	1.555	1555.1	observe	Run3	observe/STIM_002.jpg	100
2501.612	1.125	1125.3	observe	Run3	observe/STIM_002.jpg	100
2506.707	0.742	742.3	observe	Run3	observe/STIM_002.jpg	100
2510.215	1.032	1031.5	observe	Run3	observe/STIM_003.jpg	100
2514.418	1.527	1527.3	observe	Run3	observe/STIM_003.jpg	100
2519.914	1.1	1100.0	observe	Run3	observe/STIM_003.jpg	99
2524.778	1.219	1219.3	observe	Run3	observe/STIM_003.jpg	100
2528.637	1.333	1333.0	observe	Run3	observe/STIM_004.jpg	99
2533.316	1.552	1552.2	observe	Run3	observe/STIM_004.jpg	100
2538.336	1.314	1314.5	observe	Run3	observe/STIM_004.jpg	100
2542.111	0.889	888.6	observe	Run3	observe/STIM_004.jpg	99
2546.887	1.295	1295.0	observe	Run3	observe/STIM_005.jpg	100
2552.003	1.029	1028.9	observe	Run3	observe/STIM_005.jpg	100
2556.869	1.07	1069.8	observe	Run3	observe/STIM_005.jpg	100
2560.051	1.118	1117.9	observe	Run3	observe/STIM_005.jpg	100
2563.423	1.46	1459.8	observe	Run3	observe/STIM_006.jpg	100
2567.162	1.442	1441.8	observe	Run3	observe/STIM_006.jpg	100
2572.508	1.326	1326.0	observe	Run3	observe/STIM_006.jpg	100
2576.914	0.8	800.1	observe	Run3	observe/STIM_006.jpg	99
2581.463	1.498	1498.0	observe	Run3	observe/STIM_007.jpg	100
2585.723	1.432	1431.9	observe	Run3	observe/STIM_007.jpg	99
2590.147	1.48	1480.2	observe	Run3	observe/STIM_007.jpg	100
2594.794	0.907	907.3	observe	Run3	observe/STIM_007.jpg	100
2599.101	1.366	1366.5	observe	Run3	observe/STIM_008.jpg	100
2603.802	1.568	1568.1	observe	Run3	observe/STIM_008.jpg	100
2609.264	1.289	1289.1	observe	Run3	observe/STIM_008.jpg	99
2613.771	1.437	1436.7	observe	Run3	observe/STIM_008.jpg	99
2617.797	1.449	1448.8	observe	Run3	observe/STIM_009.jpg	100
2622.279	1.138	1138.0	observe	Run3	observe/STIM_009.jpg	99
2625.379	1.386	1385.8	observe	Run3	observe/STIM_009.jpg	100
2628.881	1.193	1193.4	observe	Run3	observe/STIM_009.jpg	99
2634.144	1.101	1100.8	observe	Run3	observe/STIM_010.jpg	99
2637.651	1.085	1085.1	observe	Run3	observe/STIM_010.jpg	99
2641.291	1.348	1347.7	observe	Run3	observe/STIM_010.jpg	99
2644.783	1.515	1514.7	observe	Run3	observe/STIM_010.jpg	100
2649.376	1.0	999.8	observe	Run3	observe/STIM_011.jpg	99
2652.778	1.022	1022.4	observe	Run3	observe/STIM_011.jpg	100
2657.305	0.8	800.5	observe	Run3	observe/STIM_011.jpg	99
2661.662	1.368	1367.6	observe	Run3	observe/STIM_011.jpg	99
2666.427	1.319	1319.0	observe	Run3	observe/STIM_012.jpg	100
2670.423	1.573	1572.8	observe	Run3	observe/STIM_012.jpg	99
2674.054	1.451	1451.1	observe	Run3	observe/STIM_012.jpg	100
2677.961	0.919	918.9	observe	Run3	observe/STIM_012.jpg	99
2682.729	1.309	1309.0	observe	Run3	observe/STIM_013.jpg	100
2687.761	0.982	981.7	observe	Run3	observe/STIM_013.jpg	100
2692.019	1.496	1496.0	observe	Run3	observe/STIM_013.jpg	100
2696.451	0.998	998.4	observe	Run3	observe/STIM_013.jpg	100
2701.319	1.501	1501.1	observe	Run3	observe/STIM_014.jpg	100
2706.189	1.338	1337.9	observe	Run3	observe/STIM_014.jpg	99
2711.428	1.465	1465.0	observe	Run3	observe/STIM_014.jpg	100
2715.114	0.837	837.2	observe	Run3	observe/STIM_014.jpg	100
2719.052	1.562	1562.3	observe	Run3	observe/STIM_015.jpg	100
2723.204	1.567	1567.2	observe	Run3	observe/STIM_015.jpg	100
2727.305	1.08	1080.4	observe	Run3	observe/STIM_015.jpg	99
2730.87	0.888	887.5	observe	Run3	observe/STIM_015.jpg	100
2735.47	1.172	1171.5	observe	Run3	observe/STIM_016.jpg	100
2740.45	1.026	1025.7	observe	Run3	observe/STIM_016.jpg	99
2743.896	1.613	1612.8	observe	Run3	observe/STIM_016.jpg	99
2749.333	1.141	1140.8	observe	Run3	observe/STIM_016.jpg	100
2754.425	1.105	1105.1	observe	Run3	observe/STIM_017.jpg	100
2759.479	0.759	759.0	observe	Run3	observe/STIM_017.jpg	100
2762.891	1.076	1076.2	observe	Run3	observe/STIM_017.jpg	99
2767.051	1.051	1051.3	observe	Run3	observe/STIM_017.jpg	99
2771.453	0.832	832.4	observe	Run3	observe/STIM_018.jpg	100
2775.322	1.17	1170.1	observe	Run3	observe/STIM_018.jpg	100
2778.507	1.117	1117.2	observe	Run3	observe/STIM_018.jpg	100
2782.494	1.23	1229.7	observe	Run3	observe/STIM_018.jpg	99
2785.933	1.449	1449.1	observe	Run3	observe/STIM_019.jpg	100
2790.368	1.088	1087.6	observe	Run3	observe/STIM_019.jpg	99
2794.634	1.443	1442.6	observe	Run3	observe/STIM_019.jpg	99
2799.17	0.856	856.5	observe	Run3	observe/STIM_019.jpg	100
