onset	duration	response_time_ms	trial_type	learning_stage	stimulus	response_port
0.0	2.876	2876.3	regulate	Run1	regulate/STIM_000.jpg	99
6.23	1.713	1712.7	regulate	Run1	regulate/STIM_000.jpg	100
11.05	1.999	1999.2	regulate	Run1	regulate/STIM_000.jpg	99
17.008	2.894	2893.5	regulate	Run1	regulate/STIM_000.jpg	99
22.059	2.529	2529.4	regulate	Run1	regulate/STIM_001.jpg	99
27.108	3.33	3330.5	regulate	Run1	regulate/STIM_001.jpg	100
33.619	2.25	2250.3	regulate	Run1	regulate/STIM_001.jpg	99
38.471	1.7	1699.7	regulate	Run1	regulate/STIM_001.jpg	100
42.41	2.861	2861.4	regulate	Run1	regulate/STIM_002.jpg	100
48.257	1.581	1581.3	regulate	Run1	regulate/STIM_002.jpg	99
53.444	2.228	2228.0	regulate	Run1	regulate/STIM_002.jpg	100
59.484	1.785	1785.2	regulate	Run1	regulate/STIM_002.jpg	99
63.622	2.466	2466.3	regulate	Run1	regulate/STIM_003.jpg	99
70.0	2.44	2440.2	regulate	Run1	regulate/STIM_003.jpg	99
76.414	1.744	1744.1	regulate	Run1	regulate/STIM_003.jpg	99
80.3	2.186	2186.2	regulate	Run1	regulate/STIM_003.jpg	100
86.097	2.046	2046.0	regulate	Run1	regulate/STIM_004.jpg	100
90.348	3.097	3097.1	regulate	Run1	regulate/STIM_004.jpg	100
96.633	2.125	2125.3	regulate	Run1	regulate/STIM_004.jpg	99
101.986	2.533	2532.8	regulate	Run1	regulate/STIM_004.jpg	99
107.241	1.654	1653.5	regulate	Run1	regulate/STIM_005.jpg	99
111.832	2.001	2000.7	regulate	Run1	regulate/STIM_005.jpg	100
117.019	1.959	1958.7	regulate	Run1	regulate/STIM_005.jpg	100
122.124	2.127	2126.6	regulate	Run1	regulate/STIM_005.jpg	100
127.47	2.279	2279.2	regulate	Run1	regulate/STIM_006.jpg	100
132.495	2.877	2877.3	regulate	Run1	regulate/STIM_006.jpg	99
138.844	2.75	2749.8	regulate	Run1	regulate/STIM_006.jpg	100
145.539	2.869	2869.1	regulate	Run1	regulate/STIM_006.jpg	99
150.499	2.091	2091.3	regulate	Run1	regulate/STIM_007.jpg	100
156.103	1.621	1620.9	regulate	Run1	regulate/STIM_007.jpg	100
160.464	2.115	2114.9	regulate	Run1	regulate/STIM_007.jpg	99
165.89	2.385	2385.2	regulate	Run1	regulate/STIM_007.jpg	100
171.39	2.349	2348.8	regulate	Run1	regulate/STIM_008.jpg	99
176.191	2.213	2212.9	regulate	Run1	regulate/STIM_008.jpg	100
180.67	2.26	2259.6	regulate	Run1	regulate/STIM_008.jpg	99
186.853	1.608	1607.9	regulate	Run1	regulate/STIM_008.jpg	99
191.438	2.883	2883.1	regulate	Run1	regulate/STIM_009.jpg	100
197.099	3.327	3327.3	regulate	Run1	regulate/STIM_009.jpg	99
203.351	2.045	2045.0	regulate	Run1	regulate/STIM_009.jpg	100
209.293	2.365	2364.7	regulate	Run1	regulate/STIM_009.jpg	100
215.104	2.92	2919.8	regulate	Run1	regulate/STIM_010.jpg	99
220.088	2.33	2330.4	regulate	Run1	regulate/STIM_010.jpg	99
224.669	3.145	3145.1	regulate	Run1	regulate/STIM_010.jpg	100
230.743	1.866	1866.2	regulate	Run1	regulate/STIM_010.jpg	100
235.975	1.748	1747.7	regulate	Run1	regulate/STIM_011.jpg	100
240.263	2.519	2518.7	regulate	Run1	regulate/STIM_011.jpg	99
246.079	1.571	1570.6	regulate	Run1	regulate/STIM_011.jpg	99
250.528	2.419	2419.3	regulate	Run1	regulate/STIM_011.jpg	99
256.346	1.641	1641.1	regulate	Run1	regulate/STIM_012.jpg	100
261.52	1.943	1943.1	regulate	Run1	regulate/STIM_012.jpg	99
266.303	1.589	1588.8	regulate	Run1	regulate/STIM_012.jpg	99
271.28	2.404	2403.7	regulate	Run1	regulate/STIM_012.jpg	100
275.887	2.663	2662.7	regulate	Run1	regulate/STIM_013.jpg	99
281.275	2.35	2350.5	regulate	Run1	regulate/STIM_013.jpg	100
286.087	2.499	2499.3	regulate	Run1	regulate/STIM_013.jpg	100
292.556	1.461	1460.7	regulate	Run1	regulate/STIM_013.jpg	99
297.258	2.73	2730.1	regulate	Run1	regulate/STIM_014.jpg	99
303.959	3.083	3083.4	regulate	Run1	regulate/STIM_014.jpg	99
310.43	2.098	2098.5	regulate	Run1	regulate/STIM_014.jpg	99
316.104	2.179	2179.1	regulate	Run1	regulate/STIM_014.jpg	99
320.297	1.667	1667.0	regulate	Run1	regulate/STIM_015.jpg	100
324.885	2.417	2417.1	regulate	Run1	regulate/STIM_015.jpg	99
329.383	1.952	1951.7	regulate	Run1	regulate/STIM_015.jpg	100
334.949	1.967	1967.3	regulate	Run1	regulate/STIM_015.jpg	99
339.781	2.989	2988.8	regulate	Run1	regulate/STIM_016.jpg	100
346.218	3.231	3230.6	regulate	Run1	regulate/STIM_016.jpg	99
352.932	1.613	1613.4	regulate	Run1	regulate/STIM_016.jpg	99
356.982	2.385	2384.9	regulate	Run1	regulate/STIM_016.jpg	100
363.135	2.751	2750.9	regulate	Run1	regulate/STIM_017.jpg	99
369.878	2.701	2701.3	regulate	Run1	regulate/STIM_017.jpg	100
375.879	2.713	2713.2	regulate	Run1	regulate/STIM_017.jpg	99
380.715	1.894	1893.9	regulate	Run1	regulate/STIM_017.jpg	100
385.628	2.246	2245.9	regulate	Run1	regulate/STIM_018.jpg	100
390.896	1.754	1754.1	regulate	Run1	regulate/STIM_018.jpg	99
395.77	2.922	2922.0	regulate	Run1	regulate/STIM_018.jpg	100
400.743	1.886	1886.2	regulate	Run1	regulate/STIM_018.jpg	99
405.049	2.471	2470.6	regulate	Run1	regulate/STIM_019.jpg	100
411.476	2.466	2465.8	regulate	Run1	regulate/STIM_019.jpg	100
417.668	1.956	1956.1	regulate	Run1	regulate/STIM_019.jpg	99
423.213	2.454	2454.5	regulate	Run1	regulate/STIM_019.jpg	99
429.474	2.744	2744.5	regulate	Run1	regulate/STIM_020.jpg	100
436.085	2.134	2133.6	regulate	Run1	regulate/STIM_020.jpg	100
442.156	2.298	2297.8	regulate	Run1	regulate/STIM_020.jpg	100
447.448	1.762	1762.2	regulate	Run1	regulate/STIM_020.jpg	100
451.821	1.764	1763.7	regulate	Run1	regulate/STIM_021.jpg	100
455.931	2.218	2217.8	regulate	Run1	regulate/STIM_021.jpg	100
462.091	1.951	1951.3	regulate	Run1	regulate/STIM_021.jpg	100
467.644	2.783	2783.0	regulate	Run1	regulate/STIM_021.jpg	99
472.769	1.588	1587.7	regulate	Run1	regulate/STIM_022.jpg	100
477.343	3.054	3054.3	regulate	Run1	regulate/STIM_022.jpg	99
483.115	1.917	1917.4	regulate	Run1	regulate/STIM_022.jpg	100
488.376	1.367	1367.3	regulate	Run1	regulate/STIM_022.jpg	100
492.371	3.464	3464.3	regulate	Run1	regulate/STIM_023.jpg	100
498.326	2.657	2656.6	regulate	Run1	regulate/STIM_023.jpg	99
504.5	2.778	2778.1	regulate	Run1	regulate/STIM_023.jpg	99
509.799	2.264	2264.3	regulate	Run1	regulate/STIM_023.jpg	99
514.414	2.269	2268.8	regulate	Run1	regulate/STIM_024.jpg	99
520.493	3.308	3307.6	regulate	Run1	regulate/STIM_024.jpg	100
526.479	1.748	1748.4	regulate	Run1	regulate/STIM_024.jpg	99
530.266	2.574	2574.0	regulate	Run1	regulate/STIM_024.jpg	100
534.861	3.504	3504.3	regulate	Run1	regulate/STIM_025.jpg	100
541.667	1.513	1512.6	regulate	Run1	regulate/STIM_025.jpg	100
546.928	1.598	1598.0	regulate	Run1	regulate/STIM_025.jpg	100
551.801	2.025	2025.4	regulate	Run1	regulate/STIM_025.jpg	99
557.519	2.819	2818.8	regulate	Run1	regulate/STIM_026.jpg	100
563.514	1.793	1792.6	regulate	Run1	regulate/STIM_026.jpg	100
568.658	2.377	2376.8	regulate	Run1	regulate/STIM_026.jpg	99
573.234	2.24	2239.7	regulate	Run1	regulate/STIM_026.jpg	100
579.367	2.11	2110.5	regulate	Run1	regulate/STIM_027.jpg	99
584.038	3.251	3251.4	regulate	Run1	regulate/STIM_027.jpg	100
589.351	1.646	1645.6	regulate	Run1	regulate/STIM_027.jpg	100
594.071	1.522	1521.9	regulate	Run1	regulate/STIM_027.jpg	100
599.072	3.492	3492.1	regulate	Run1	regulate/STIM_028.jpg	100
605.221	1.605	1604.8	regulate	Run1	regulate/STIM_028.jpg	99
609.053	2.856	2856.1	regulate	Run1	regulate/STIM_028.jpg	99
615.816	2.767	2767.2	regulate	Run1	regulate/STIM_028.jpg	100
622.39	3.538	3537.8	regulate	Run1	regulate/STIM_029.jpg	100
628.343	1.809	1808.7	regulate	Run1	regulate/STIM_029.jpg	99
633.881	2.258	2257.7	regulate	Run1	regulate/STIM_029.jpg	99
639.524	1.362	1362.4	regulate	Run1	regulate/STIM_029.jpg	100
644.069	1.002	1001.8	observe	Run1	observe/STIM_000.jpg	100
648.895	0.885	885.3	observe	Run1	observe/STIM_000.jpg	99
652.431	1.308	1308.5	observe	Run1	observe/STIM_000.jpg	99
656.857	1.146	1146.2	observe	Run1	observe/STIM_000.jpg	100
661.913	1.467	1466.9	observe	Run1	observe/STIM_001.jpg	99
666.319	1.377	1377.3	observe	Run1	observe/STIM_001.jpg	100
670.499	1.549	1549.1	observe	Run1	observe/STIM_001.jpg	99
675.078	1.044	1044.3	observe	Run1	observe/STIM_001.jpg	100
678.653	0.922	921.9	observe	Run1	observe/STIM_002.jpg	100
682.019	0.86	859.6	observe	Run1	observe/STIM_002.jpg	99
685.757	1.365	1365.1	observe	Run1	observe/STIM_002.jpg	99
689.683	0.841	840.6	observe	Run1	observe/STIM_002.jpg	100
693.502	1.399	1398.7	observe	Run1	observe/STIM_003.jpg	99
698.745	1.067	1067.1	observe	Run1	observe/STIM_003.jpg	99
703.682	1.247	1246.7	observe	Run1	observe/STIM_003.jpg	100
708.411	1.568	1567.8	observe	Run1	observe/STIM_003.jpg	100
712.095	1.563	1563.1	observe	Run1	observe/STIM_004.jpg	99
716.737	1.578	1578.0	observe	Run1	observe/STIM_004.jpg	100
720.784	0.921	921.2	observe	Run1	observe/STIM_004.jpg	100
725.464	0.829	828.7	observe	Run1	observe/STIM_004.jpg	99
728.79	1.266	1265.6	observe	Run1	observe/STIM_005.jpg	99
733.865	1.514	1513.6	observe	Run1	observe/STIM_005.jpg	99
739.082	0.829	829.0	observe	Run1	observe/STIM_005.jpg	100
742.924	1.358	1358.4	observe	Run1	observe/STIM_005.jpg	99
747.458	0.996	995.9	observe	Run1	observe/STIM_006.jpg	99
750.836	1.29	1289.8	observe	Run1	observe/STIM_006.jpg	99
755.631	1.31	1310.3	observe	Run1	observe/STIM_006.jpg	100
760.938	1.294	1293.7	observe	Run1	observe/STIM_006.jpg	100
764.85	1.509	1509.4	observe	Run1	observe/STIM_007.jpg	100
768.883	1.265	1265.1	observe	Run1	observe/STIM_007.jpg	100
773.51	1.34	1339.6	observe	Run1	observe/STIM_007.jpg	99
777.358	1.375	1375.0	observe	Run1	observe/STIM_007.jpg	99
780.898	1.198	1198.0	observe	Run1	observe/STIM_008.jpg	100
785.673	1.556	1555.6	observe	Run1	observe/STIM_008.jpg	99
789.252	1.355	1354.7	observe	Run1	observe/STIM_008.jpg	99
793.037	1.308	1308.1	observe	Run1	observe/STIM_008.jpg	100
798.273	1.299	1299.0	observe	Run1	observe/STIM_009.jpg	99
801.929	0.951	950.9	observe	Run1	observe/STIM_009.jpg	99
806.107	0.914	914.5	observe	Run1	observe/STIM_009.jpg	100
810.969	1.352	1352.3	observe	Run1	observe/STIM_009.jpg	100
815.95	1.137	1136.9	observe	Run1	observe/STIM_010.jpg	100
820.807	1.28	1279.5	observe	Run1	observe/STIM_010.jpg	100
825.893	1.26	1260.0	observe	Run1	observe/STIM_010.jpg	100
830.052	1.357	1356.9	observe	Run1	observe/STIM_010.jpg	100
833.752	0.84	840.4	observe	Run1	observe/STIM_011.jpg	99
837.456	1.257	1256.9	observe	Run1	observe/STIM_011.jpg	99
840.744	1.433	1433.3	observe	Run1	observe/STIM_011.jpg	100
844.926	1.333	1332.7	observe	Run1	observe/STIM_011.jpg	100
849.936	0.939	939.4	observe	Run1	observe/STIM_012.jpg	99
853.684	1.597	1597.2	observe	Run1	observe/STIM_012.jpg	100
859.15	0.896	895.6	observe	Run1	observe/STIM_012.jpg	99
862.104	1.1	1099.8	observe	Run1	observe/STIM_012.jpg	99
866.195	1.346	1345.9	observe	Run1	observe/STIM_013.jpg	99
870.345	0.834	833.9	observe	Run1	observe/STIM_013.jpg	100
874.753	0.957	957.4	observe	Run1	observe/STIM_013.jpg	99
879.407	1.143	1143.2	observe	Run1	observe/STIM_013.jpg	99
883.422	0.826	825.5	observe	Run1	observe/STIM_014.jpg	99
887.758	1.365	1364.7	observe	Run1	observe/STIM_014.jpg	99
891.968	1.009	1008.8	observe	Run1	observe/STIM_014.jpg	99
896.364	1.166	1166.1	observe	Run1	observe/STIM_014.jpg	99
900.614	0.91	910.1	observe	Run1	observe/STIM_015.jpg	99
903.972	1.08	1079.7	observe	Run1	observe/STIM_015.jpg	100
908.765	1.151	1151.1	observe	Run1	observe/STIM_015.jpg	100
913.846	1.342	1342.3	observe	Run1	observe/STIM_015.jpg	99
917.71	1.141	1140.9	observe	Run1	observe/STIM_016.jpg	100
922.206	0.817	816.8	observe	Run1	observe/STIM_016.jpg	100
925.714	1.291	1291.2	observe	Run1	observe/STIM_016.jpg	100
929.233	1.054	1053.6	observe	Run1	observe/STIM_016.jpg	99
934.176	0.939	939.3	observe	Run1	observe/STIM_017.jpg	99
937.946	1.313	1312.7	observe	Run1	observe/STIM_017.jpg	100
941.732	0.842	841.5	observe	Run1	observe/STIM_017.jpg	99
946.4	0.936	935.9	observe	Run1	observe/STIM_017.jpg	99
950.047	1.359	1358.9	observe	Run1	observe/STIM_018.jpg	99
955.354	1.031	1031.0	observe	Run1	observe/STIM_018.jpg	99
960.2	0.961	961.2	observe	Run1	observe/STIM_018.jpg	100
963.537	1.183	1183.1	observe	Run1	observe/STIM_018.jpg	99
967.57	1.617	1617.2	observe	Run1	observe/STIM_019.jpg	100
971.9	0.83	830.1	observe	Run1	observe/STIM_019.jpg	99
975.66	0.965	964.8	observe	Run1	observe/STIM_019.jpg	99
979.328	1.008	1007.7	observe	Run1	observe/STIM_019.jpg	99
983.847	2.78	2780.4	regulate	Run2	regulate/STIM_000.jpg	100
988.659	2.692	2691.5	regulate	Run2	regulate/STIM_000.jpg	99
994.992	1.836	1835.6	regulate	Run2	regulate/STIM_000.jpg	99
999.911	1.42	1420.4	regulate	Run2	regulate/STIM_000.jpg	99
1003.637	1.666	1666.1	regulate	Run2	regulate/STIM_001.jpg	100
1008.916	1.909	1909.1	regulate	Run2	regulate/STIM_001.jpg	99
1013.789	1.922	1921.6	regulate	Run2	regulate/STIM_001.jpg	99
1018.039	1.969	1968.7	regulate	Run2	regulate/STIM_001.jpg	100
1022.491	2.94	2939.7	regulate	Run2	regulate/STIM_002.jpg	99
1028.54	2.627	2627.1	regulate	Run2	regulate/STIM_002.jpg	100
1033.915	2.615	2615.4	regulate	Run2	regulate/STIM_002.jpg	100
1038.829	1.258	1257.8	regulate	Run2	regulate/STIM_002.jpg	100
1042.649	2.328	2327.7	regulate	Run2	regulate/STIM_003.jpg	100
1047.469	2.321	2321.0	regulate	Run2	regulate/STIM_003.jpg	100
1052.809	1.48	1479.5	regulate	Run2	regulate/STIM_003.jpg	100
1056.812	2.312	2311.9	regulate	Run2	regulate/STIM_003.jpg	100
1062.004	2.549	2549.2	regulate	Run2	regulate/STIM_004.jpg	100
1066.932	1.488	1487.7	regulate	Run2	regulate/STIM_004.jpg	100
1070.539	1.279	1279.4	regulate	Run2	regulate/STIM_004.jpg	99
1074.052	1.136	1135.7	regulate	Run2	regulate/STIM_004.jpg	99
1078.132	2.848	2848.3	regulate	Run2	regulate/STIM_005.jpg	99
1084.095	1.899	1898.6	regulate	Run2	regulate/STIM_005.jpg	100
1089.817	2.468	2468.1	regulate	Run2	regulate/STIM_005.jpg	100
1094.997	1.098	1098.1	regulate	Run2	regulate/STIM_005.jpg	99
1098.927	1.817	1816.7	regulate	Run2	regulate/STIM_006.jpg	100
1103.088	1.891	1891.3	regulate	Run2	regulate/STIM_006.jpg	99
1108.62	1.645	1645.4	regulate	Run2	regulate/STIM_006.jpg	99
1112.971	1.928	1928.4	regulate	Run2	regulate/STIM_006.jpg	100
1118.575	2.39	2390.2	regulate	Run2	regulate/STIM_007.jpg	100
1123.788	1.88	1879.6	regulate	Run2	regulate/STIM_007.jpg	100
1128.743	2.412	2412.4	regulate	Run2	regulate/STIM_007.jpg	100
1134.959	1.976	1975.9	regulate	Run2	regulate/STIM_007.jpg	99
1139.228	2.974	2974.2	regulate	Run2	regulate/STIM_008.jpg	99
1145.61	2.441	2440.7	regulate	Run2	regulate/STIM_008.jpg	100
1151.571	1.431	1430.9	regulate	Run2	regulate/STIM_008.jpg	100
1156.218	1.091	1091.1	regulate	Run2	regulate/STIM_008.jpg	100
1161.091	1.781	1781.3	regulate	Run2	regulate/STIM_009.jpg	99
1166.081	1.57	1569.6	regulate	Run2	regulate/STIM_009.jpg	100
1170.707	1.554	1554.5	regulate	Run2	regulate/STIM_009.jpg	100
1176.11	2.454	2454.3	regulate	Run2	regulate/STIM_009.jpg	100
1181.72	2.844	2843.9	regulate	Run2	regulate/STIM_010.jpg	100
1188.523	1.896	1895.5	regulate	Run2	regulate/STIM_010.jpg	100
1193.899	2.482	2482.2	regulate	Run2	regulate/STIM_010.jpg	100
1198.599	1.385	1385.1	regulate	Run2	regulate/STIM_010.jpg	100
1202.228	2.172	2171.5	regulate	Run2	regulate/STIM_011.jpg	100
1206.533	1.326	1326.2	regulate	Run2	regulate/STIM_011.jpg	100
1211.802	2.65	2650.4	regulate	Run2	regulate/STIM_011.jpg	100
1217.425	1.967	1967.2	regulate	Run2	regulate/STIM_011.jpg	100
1223.305	1.576	1575.9	regulate	Run2	regulate/STIM_012.jpg	99
1228.251	1.282	1282.3	regulate	Run2	regulate/STIM_012.jpg	100
1231.91	1.714	1713.7	regulate	Run2	regulate/STIM_012.jpg	100
1235.787	2.358	2357.9	regulate	Run2	regulate/STIM_012.jpg	99
1241.853	1.65	1649.6	regulate	Run2	regulate/STIM_013.jpg	99
1246.444	1.634	1634.4	regulate	Run2	regulate/STIM_013.jpg	99
1250.767	1.686	1685.7	regulate	Run2	regulate/STIM_013.jpg	99
1256.126	1.962	1961.6	regulate	Run2	regulate/STIM_013.jpg	99
1261.367	2.884	2884.0	regulate	Run2	regulate/STIM_014.jpg	100
1266.345	2.232	2231.9	regulate	Run2	regulate/STIM_014.jpg	99
1271.992	1.858	1857.6	regulate	Run2	regulate/STIM_014.jpg	99
1277.651	1.86	1860.5	regulate	Run2	regulate/STIM_014.jpg	100
1282.394	2.347	2346.6	regulate	Run2	regulate/STIM_015.jpg	100
1286.851	2.014	2014.1	regulate	Run2	regulate/STIM_015.jpg	99
1291.067	1.418	1417.7	regulate	Run2	regulate/STIM_015.jpg	100
1294.645	1.726	1726.0	regulate	Run2	regulate/STIM_015.jpg	99
1299.75	2.252	2251.7	regulate	Run2	regulate/STIM_016.jpg	100
1304.061	2.748	2748.2	regulate	Run2	regulate/STIM_016.jpg	99
1310.573	1.478	1478.0	regulate	Run2	regulate/STIM_016.jpg	99
1315.746	1.292	1292.0	regulate	Run2	regulate/STIM_016.jpg	99
1320.64	2.334	2334.3	regulate	Run2	regulate/STIM_017.jpg	100
1326.138	1.749	1749.3	regulate	Run2	regulate/STIM_017.jpg	99
1331.322	1.556	1555.9	regulate	Run2	regulate/STIM_017.jpg	99
1335.371	1.344	1344.1	regulate	Run2	regulate/STIM_017.jpg	99
1340.107	2.948	2947.7	regulate	Run2	regulate/STIM_018.jpg	100
1345.056	2.817	2816.6	regulate	Run2	regulate/STIM_018.jpg	99
1351.595	1.446	1445.9	regulate	Run2	regulate/STIM_018.jpg	100
1355.575	1.539	1539.0	regulate	Run2	regulate/STIM_018.jpg	99
1360.205	2.896	2896.3	regulate	Run2	regulate/STIM_019.jpg	100
1365.745	2.626	2625.9	regulate	Run2	regulate/STIM_019.jpg	99
1372.0	2.186	2185.8	regulate	Run2	regulate/STIM_019.jpg	99
1377.717	1.426	1425.8	regulate	Run2	regulate/STIM_019.jpg	100
1381.599	1.392	1391.5	regulate	Run2	regulate/STIM_020.jpg	100
1385.964	1.517	1517.4	regulate	Run2	regulate/STIM_020.jpg	99
1391.238	2.257	2256.8	regulate	Run2	regulate/STIM_020.jpg	100
1395.833	1.341	1341.3	regulate	Run2	regulate/STIM_020.jpg	100
1401.013	2.531	2531.2	regulate	Run2	regulate/STIM_021.jpg	99
1406.091	1.52	1520.3	regulate	Run2	regulate/STIM_021.jpg	100
1410.328	2.034	2033.6	regulate	Run2	regulate/STIM_021.jpg	99
1415.367	1.91	1910.3	regulate	Run2	regulate/STIM_021.jpg	99
1419.581	1.768	1768.4	regulate	Run2	regulate/STIM_022.jpg	100
1424.16	1.908	1907.6	regulate	Run2	regulate/STIM_022.jpg	100
1429.56	1.949	1948.8	regulate	Run2	regulate/STIM_022.jpg	99
1434.728	2.342	2342.4	regulate	Run2	regulate/STIM_022.jpg	99
1439.391	2.356	2355.5	regulate	Run2	regulate/STIM_023.jpg	100
1445.26	1.789	1789.4	regulate	Run2	regulate/STIM_023.jpg	99
1449.92	1.359	1359.2	regulate	Run2	regulate/STIM_023.jpg	100
1454.739	1.904	1903.8	regulate	Run2	regulate/STIM_023.jpg	100
1459.451	1.601	1600.6	regulate	Run2	regulate/STIM_024.jpg	100
1464.427	1.462	1461.5	regulate	Run2	regulate/STIM_024.jpg	100
1468.529	2.09	2089.8	regulate	Run2	regulate/STIM_024.jpg	99
1473.077	1.591	1591.4	regulate	Run2	regulate/STIM_024.jpg	100
1477.975	2.535	2535.0	regulate	Run2	regulate/STIM_025.jpg	99
1483.77	2.515	2515.0	regulate	Run2	regulate/STIM_025.jpg	100
1489.127	1.349	1348.8	regulate	Run2	regulate/STIM_025.jpg	99
1493.191	1.971	1970.7	regulate	Run2	regulate/STIM_025.jpg	99
1499.072	2.692	2691.8	regulate	Run2	regulate/STIM_026.jpg	99
1504.179	2.491	2491.1	regulate	Run2	regulate/STIM_026.jpg	100
1509.249	2.402	2402.4	regulate	Run2	regulate/STIM_026.jpg	100
1515.415	1.628	1627.8	regulate	Run2	regulate/STIM_026.jpg	100
1519.967	1.38	1380.5	regulate	Run2	regulate/STIM_027.jpg	99
1524.857	2.6	2599.6	regulate	Run2	regulate/STIM_027.jpg	100
1530.832	2.044	2044.0	regulate	Run2	regulate/STIM_027.jpg	99
1536.243	2.045	2044.9	regulate	Run2	regulate/STIM_027.jpg	99
1541.98	1.5	1499.7	regulate	Run2	regulate/STIM_028.jpg	99
1545.806	2.146	2146.4	regulate	Run2	regulate/STIM_028.jpg	99
1550.354	1.7	1699.6	regulate	Run2	regulate/STIM_028.jpg	100
1554.862	2.328	2328.5	regulate	Run2	regulate/STIM_028.jpg	99
1560.232	2.743	2743.1	regulate	Run2	regulate/STIM_029.jpg	99
1565.491	2.23	2229.5	regulate	Run2	regulate/STIM_029.jpg	99
1571.416	2.107	2107.0	regulate	Run2	regulate/STIM_029.jpg	100
1575.921	2.32	2319.8	regulate	Run2	regulate/STIM_029.jpg	100
1581.028	0.834	834.5	observe	Run2	observe/STIM_000.jpg	99
1583.909	1.101	1101.1	observe	Run2	observe/STIM_000.jpg	99
1588.66	0.965	965.3	observe	Run2	observe/STIM_000.jpg	100
1592.456	0.892	891.7	observe	Run2	observe/STIM_000.jpg	100
1596.553	1.425	1425.2	observe	Run2	observe/STIM_001.jpg	100
1601.732	1.213	1213.2	observe	Run2	observe/STIM_001.jpg	100
1606.016	1.01	1010.1	observe	Run2	observe/STIM_001.jpg	100
1609.294	1.322	1322.5	observe	Run2	observe/STIM_001.jpg	99
1612.695	1.104	1104.5	observe	Run2	observe/STIM_002.jpg	100
1616.48	1.333	1333.4	observe	Run2	observe/STIM_002.jpg	99
1621.092	1.143	1143.0	observe	Run2	observe/STIM_002.jpg	100
1625.794	1.547	1547.4	observe	Run2	observe/STIM_002.jpg	99
1631.206	0.814	814.2	observe	Run2	observe/STIM_003.jpg	100
1634.249	1.597	1596.7	observe	Run2	observe/STIM_003.jpg	99
1639.716	1.119	1118.6	observe	Run2	observe/STIM_003.jpg	99
1644.693	1.495	1495.4	observe	Run2	observe/STIM_003.jpg	100
1649.369	1.489	1488.8	observe	Run2	observe/STIM_004.jpg	99
1653.069	1.072	1071.8	observe	Run2	observe/STIM_004.jpg	99
1658.094	0.978	978.1	observe	Run2	observe/STIM_004.jpg	100
1662.222	1.53	1529.7	observe	Run2	observe/STIM_004.jpg	99
1667.037	1.581	1580.7	observe	Run2	observe/STIM_005.jpg	99
1671.764	1.106	1105.8	observe	Run2	observe/STIM_005.jpg	99
1675.986	1.052	1052.2	observe	Run2	observe/STIM_005.jpg	99
1680.658	1.178	1177.6	observe	Run2	observe/STIM_005.jpg	100
1683.858	1.293	1292.6	observe	Run2	observe/STIM_006.jpg	99
1688.622	0.899	899.4	observe	Run2	observe/STIM_006.jpg	100
1692.907	1.024	1024.1	observe	Run2	observe/STIM_006.jpg	99
1697.346	1.598	1598.2	observe	Run2	observe/STIM_006.jpg	99
1702.028	1.142	1142.1	observe	Run2	observe/STIM_007.jpg	99
1705.968	1.499	1499.4	observe	Run2	observe/STIM_007.jpg	100
1710.711	1.096	1096.1	observe	Run2	observe/STIM_007.jpg	99
1715.79	0.988	987.8	observe	Run2	observe/STIM_007.jpg	99
1720.758	1.128	1128.1	observe	Run2	observe/STIM_008.jpg	99
1724.308	1.257	1256.9	observe	Run2	observe/STIM_008.jpg	100
1727.729	1.502	1502.5	observe	Run2	observe/STIM_008.jpg	100
1733.146	1.274	1274.0	observe	Run2	observe/STIM_008.jpg	99
1737.89	0.852	851.8	observe	Run2	observe/STIM_009.jpg	99
1741.981	1.328	1327.9	observe	Run2	observe/STIM_009.jpg	100
1745.765	1.538	1538.3	observe	Run2	observe/STIM_009.jpg	99
1750.363	0.881	881.1	observe	Run2	observe/STIM_009.jpg	99
1753.925	1.551	1551.3	observe	Run2	observe/STIM_010.jpg	100
1759.444	1.478	1478.4	observe	Run2	observe/STIM_010.jpg	100
1763.894	1.496	1496.1	observe	Run2	observe/STIM_010.jpg	100
1767.648	1.27	1270.4	observe	Run2	observe/STIM_010.jpg	100
1771.851	0.92	920.4	observe	Run2	observe/STIM_011.jpg	99
1775.811	1.352	1351.5	observe	Run2	observe/STIM_011.jpg	100
1780.782	0.982	982.0	observe	Run2	observe/STIM_011.jpg	99
1784.354	1.084	1084.1	observe	Run2	observe/STIM_011.jpg	99
1788.334	1.251	1250.6	observe	Run2	observe/STIM_012.jpg	100
1792.246	1.61	1609.7	observe	Run2	observe/STIM_012.jpg	100
1797.157	0.846	846.1	observe	Run2	observe/STIM_012.jpg	100
1800.181	0.854	853.6	observe	Run2	observe/STIM_012.jpg	100
1803.654	1.412	1412.5	observe	Run2	observe/STIM_013.jpg	99
1808.813	1.573	1572.7	observe	Run2	observe/STIM_013.jpg	100
1814.31	1.546	1546.0	observe	Run2	observe/STIM_013.jpg	100
1819.799	1.344	1344.2	observe	Run2	observe/STIM_013.jpg	99
1823.63	1.482	1482.2	observe	Run2	observe/STIM_014.jpg	99
1827.775	0.849	849.0	observe	Run2	observe/STIM_014.jpg	100
1830.936	1.558	1558.0	observe	Run2	observe/STIM_014.jpg	99
1835.691	0.847	847.3	observe	Run2	observe/STIM_014.jpg	99
1840.062	0.973	972.7	observe	Run2	observe/STIM_015.jpg	100
1843.176	0.981	980.8	observe	Run2	observe/STIM_015.jpg	99
1847.158	0.973	972.8	observe	Run2	observe/STIM_015.jpg	100
1850.853	1.174	1174.1	observe	Run2	observe/STIM_015.jpg	99
1855.714	1.554	1554.5	observe	Run2	observe/STIM_016.jpg	99
1861.254	0.849	849.2	observe	Run2	observe/STIM_016.jpg	99
1864.243	1.256	1256.2	observe	Run2	observe/STIM_016.jpg	100
1868.621	0.84	840.3	observe	Run2	observe/STIM_016.jpg	100
1871.884	1.296	1296.2	observe	Run2	observe/STIM_017.jpg	99
1876.447	1.189	1189.1	observe	Run2	observe/STIM_017.jpg	99
1880.527	1.499	1498.6	observe	Run2	observe/STIM_017.jpg	99
1884.308	1.019	1018.7	observe	Run2	observe/STIM_017.jpg	100
1888.024	1.044	1044.3	observe	Run2	observe/STIM_018.jpg	99
1892.812	1.366	1366.2	observe	Run2	observe/STIM_018.jpg	99
1898.021	1.219	1219.0	observe	Run2	observe/STIM_018.jpg	100
1902.736	0.894	893.8	observe	Run2	observe/STIM_018.jpg	100
1906.417	1.481	1481.3	observe	Run2	observe/STIM_019.jpg	99
1910.329	1.488	1488.0	observe	Run2	observe/STIM_019.jpg	99
1915.063	1.072	1072.4	observe	Run2	observe/STIM_019.jpg	100
1918.695	1.244	1244.1	observe	Run2	observe/STIM_019.jpg	100
1922.597	1.574	1574.1	regulate	Run3	regulate/STIM_000.jpg	99
1926.517	1.536	1535.8	regulate	Run3	regulate/STIM_000.jpg	99
1931.435	2.047	2046.7	regulate	Run3	regulate/STIM_000.jpg	99
1936.0	1.175	1174.9	regulate	Run3	regulate/STIM_000.jpg	100
1939.978	2.285	2285.1	regulate	Run3	regulate/STIM_001.jpg	100
1946.207	1.118	1117.8	regulate	Run3	regulate/STIM_001.jpg	99
1950.655	2.079	2079.2	regulate	Run3	regulate/STIM_001.jpg	100
1956.12	1.542	1542.4	regulate	Run3	regulate/STIM_001.jpg	99
1959.942	2.033	2032.5	regulate	Run3	regulate/STIM_002.jpg	100
1964.437	1.376	1375.5	regulate	Run3	regulate/STIM_002.jpg	100
1969.293	1.559	1558.7	regulate	Run3	regulate/STIM_002.jpg	100
1974.56	1.249	1249.3	regulate	Run3	regulate/STIM_002.jpg	99
1979.145	2.165	2165.0	regulate	Run3	regulate/STIM_003.jpg	100
1985.222	2.107	2106.6	regulate	Run3	regulate/STIM_003.jpg	99
1991.121	1.765	1764.9	regulate	Run3	regulate/STIM_003.jpg	99
1996.821	1.948	1947.8	regulate	Run3	regulate/STIM_003.jpg	99
2002.25	2.41	2409.8	regulate	Run3	regulate/STIM_004.jpg	99
2007.566	1.392	1392.1	regulate	Run3	regulate/STIM_004.jpg	100
2012.373	1.442	1441.7	regulate	Run3	regulate/STIM_004.jpg	99
2016.76	2.467	2467.1	regulate	Run3	regulate/STIM_004.jpg	99
2023.018	2.126	2126.0	regulate	Run3	regulate/STIM_005.jpg	99
2028.779	1.958	1958.4	regulate	Run3	regulate/STIM_005.jpg	100
2034.281	1.523	1522.7	regulate	Run3	regulate/STIM_005.jpg	100
2039.339	1.13	1130.4	regulate	Run3	regulate/STIM_005.jpg	99
2043.073	1.711	1710.8	regulate	Run3	regulate/STIM_006.jpg	100
2047.499	2.196	2195.5	regulate	Run3	regulate/STIM_006.jpg	100
2053.161	1.491	1491.3	regulate	Run3	regulate/STIM_006.jpg	100
2057.613	1.878	1878.3	regulate	Run3	regulate/STIM_006.jpg	100
2061.93	1.69	1689.8	regulate	Run3	regulate/STIM_007.jpg	99
2066.441	2.073	2073.0	regulate	Run3	regulate/STIM_007.jpg	99
2070.888	1.631	1630.9	regulate	Run3	regulate/STIM_007.jpg	99
2075.285	1.412	1411.6	regulate	Run3	regulate/STIM_007.jpg	100
2080.39	1.942	1941.6	regulate	Run3	regulate/STIM_008.jpg	99
2085.897	1.432	1432.5	regulate	Run3	regulate/STIM_008.jpg	99
2091.116	2.388	2388.2	regulate	Run3	regulate/STIM_008.jpg	100
2095.856	1.531	1531.4	regulate	Run3	regulate/STIM_008.jpg	100
2099.691	1.752	1752.3	regulate	Run3	regulate/STIM_009.jpg	100
2105.32	2.272	2271.7	regulate	Run3	regulate/STIM_009.jpg	99
2109.992	1.448	1448.3	regulate	Run3	regulate/STIM_009.jpg	100
2114.405	2.276	2275.6	regulate	Run3	regulate/STIM_009.jpg	99
2119.318	1.314	1314.3	regulate	Run3	regulate/STIM_010.jpg	100
2123.434	2.392	2391.5	regulate	Run3	regulate/STIM_010.jpg	100
2128.214	1.221	1220.9	regulate	Run3	regulate/STIM_010.jpg	100
2131.651	2.139	2138.7	regulate	Run3	regulate/STIM_010.jpg	99
2137.512	1.688	1688.5	regulate	Run3	regulate/STIM_011.jpg	99
2142.691	1.959	1959.1	regulate	Run3	regulate/STIM_011.jpg	100
2147.132	2.329	2328.9	regulate	Run3	regulate/STIM_011.jpg	99
2152.151	1.985	1984.8	regulate	Run3	regulate/STIM_011.jpg	99
2157.702	1.172	1171.8	regulate	Run3	regulate/STIM_012.jpg	99
2161.554	1.249	1248.6	regulate	Run3	regulate/STIM_012.jpg	100
2165.959	1.128	1127.9	regulate	Run3	regulate/STIM_012.jpg	99
2170.507	1.373	1373.4	regulate	Run3	regulate/STIM_012.jpg	99
2174.172	1.633	1633.1	regulate	Run3	regulate/STIM_013.jpg	100
2179.136	1.835	1834.9	regulate	Run3	regulate/STIM_013.jpg	99
2184.125	1.078	1078.5	regulate	Run3	regulate/STIM_013.jpg	100
2187.732	2.257	2256.7	regulate	Run3	regulate/STIM_013.jpg	100
2192.671	1.291	1291.0	regulate	Run3	regulate/STIM_014.jpg	99
2197.773	2.197	2197.2	regulate	Run3	regulate/STIM_014.jpg	100
2202.473	2.292	2291.6	regulate	Run3	regulate/STIM_014.jpg	100
2207.316	1.583	1582.8	regulate	Run3	regulate/STIM_014.jpg	100
2211.79	2.476	2475.5	regulate	Run3	regulate/STIM_015.jpg	100
2216.812	1.77	1770.2	regulate	Run3	regulate/STIM_015.jpg	100
2222.464	2.227	2226.9	regulate	Run3	regulate/STIM_015.jpg	99
2228.065	1.282	1282.5	regulate	Run3	regulate/STIM_015.jpg	99
2231.737	1.116	1116.4	regulate	Run3	regulate/STIM_016.jpg	100
2235.616	1.908	1907.7	regulate	Run3	regulate/STIM_016.jpg	100
2239.813	1.9	1900.3	regulate	Run3	regulate/STIM_016.jpg	99
2245.578	1.924	1923.6	regulate	Run3	regulate/STIM_016.jpg	100
2249.856	2.083	2082.7	regulate	Run3	regulate/STIM_017.jpg	100
2255.89	2.036	2036.4	regulate	Run3	regulate/STIM_017.jpg	99
2261.303	1.461	1461.1	regulate	Run3	regulate/STIM_017.jpg	99
2266.191	1.462	1461.9	regulate	Run3	regulate/STIM_017.jpg	99
2270.193	1.638	1637.7	regulate	Run3	regulate/STIM_018.jpg	100
2274.795	1.199	1198.8	regulate	Run3	regulate/STIM_018.jpg	99
2279.689	1.734	1733.9	regulate	Run3	regulate/STIM_018.jpg	100
2283.548	2.254	2254.2	regulate	Run3	regulate/STIM_018.jpg	99
2288.244	1.918	1918.4	regulate	Run3	regulate/STIM_019.jpg	99
2293.19	1.94	1939.8	regulate	Run3	regulate/STIM_019.jpg	99
2297.825	2.206	2206.2	regulate	Run3	regulate/STIM_019.jpg	100
2302.931	1.529	1529.2	regulate	Run3	regulate/STIM_019.jpg	99
2307.109	1.633	1632.7	regulate	Run3	regulate/STIM_020.jpg	99
2311.671	1.775	1774.9	regulate	Run3	regulate/STIM_020.jpg	99
2317.259	1.412	1412.1	regulate	Run3	regulate/STIM_020.jpg	99
2322.015	2.375	2375.2	regulate	Run3	regulate/STIM_020.jpg	99
2328.376	1.868	1868.0	regulate	Run3	regulate/STIM_021.jpg	99
2333.292	2.066	2065.7	regulate	Run3	regulate/STIM_021.jpg	100
2338.386	1.389	1388.9	regulate	Run3	regulate/STIM_021.jpg	99
2343.198	1.627	1627.3	regulate	Run3	regulate/STIM_021.jpg	100
2347.63	1.426	1426.5	regulate	Run3	regulate/STIM_022.jpg	100
2351.789	1.704	1703.7	regulate	Run3	regulate/STIM_022.jpg	99
2356.204	1.414	1414.1	regulate	Run3	regulate/STIM_022.jpg	100
2359.902	2.366	2366.2	regulate	Run3	regulate/STIM_022.jpg	100
2364.89	2.267	2266.9	regulate	Run3	regulate/STIM_023.jpg	99
2369.367	2.095	2094.7	regulate	Run3	regulate/STIM_023.jpg	100
2375.279	1.559	1559.0	regulate	Run3	regulate/STIM_023.jpg	100
2379.807	2.109	2109.4	regulate	Run3	regulate/STIM_023.jpg	100
2384.66	1.215	1214.8	regulate	Run3	regulate/STIM_024.jpg	100
2388.378	1.419	1419.4	regulate	Run3	regulate/STIM_024.jpg	100
2393.567	2.258	2257.7	regulate	Run3	regulate/STIM_024.jpg	99
2398.388	1.973	1973.3	regulate	Run3	regulate/STIM_024.jpg	99
2402.902	1.918	1918.1	regulate	Run3	regulate/STIM_025.jpg	100
2408.462	1.159	1158.7	regulate	Run3	regulate/STIM_025.jpg	100
2412.941	1.079	1078.9	regulate	Run3	regulate/STIM_025.jpg	99
2416.416	1.337	1337.3	regulate	Run3	regulate/STIM_025.jpg	100
2419.974	1.964	1964.5	regulate	Run3	regulate/STIM_026.jpg	100
2423.94	1.136	1135.9	regulate	Run3	regulate/STIM_026.jpg	99
2428.914	1.313	1313.2	regulate	Run3	regulate/STIM_026.jpg	99
2433.768	1.351	1351.0	regulate	Run3	regulate/STIM_026.jpg	99
2438.349	2.218	2217.6	regulate	Run3	regulate/STIM_027.jpg	100
2442.762	2.29	2289.7	regulate	Run3	regulate/STIM_027.jpg	99
2448.564	2.458	2457.9	regulate	Run3	regulate/STIM_027.jpg	99
2453.527	1.784	1784.3	regulate	Run3	regulate/STIM_027.jpg	100
2458.648	1.956	1956.1	regulate	Run3	regulate/STIM_028.jpg	100
2463.281	1.089	1088.6	regulate	Run3	regulate/STIM_028.jpg	100
2466.638	2.443	2442.6	regulate	Run3	regulate/STIM_028.jpg	99
2471.654	1.424	1424.1	regulate	Run3	regulate/STIM_028.jpg	99
2475.812	1.168	1168.2	regulate	Run3	regulate/STIM_029.jpg	99
2479.295	2.178	2178.2	regulate	Run3	regulate/STIM_029.jpg	99
2484.086	1.985	1985.4	regulate	Run3	regulate/STIM_029.jpg	99
2489.839	2.326	2325.7	regulate	Run3	regulate/STIM_029.jpg	99
2495.998	1.508	1508.2	observe	Run3	observe/STIM_000.jpg	100
2501.362	1.495	1494.7	observe	Run3	observe/STIM_000.jpg	99
2505.17	1.124	1124.2	observe	Run3	observe/STIM_000.jpg	99
2509.062	1.341	1341.0	observe	Run3	observe/STIM_000.jpg	100
2513.127	1.169	1168.9	observe	Run3	observe/STIM_001.jpg	100
2517.732	1.425	1424.8	observe	Run3	observe/STIM_001.jpg	100
2522.621	1.292	1291.9	observe	Run3	observe/STIM_001.jpg	100
2527.835	1.204	1203.6	observe	Run3	observe/STIM_001.jpg	99
2532.706	1.334	1334.2	observe	Run3	observe/STIM_002.jpg	100
2537.856	0.966	966.0	observe	Run3	observe/STIM_002.jpg	100
2541.402	1.599	1599.1	observe	Run3	observe/STIM_002.jpg	100
2546.592	0.831	831.3	observe	Run3	observe/STIM_002.jpg	100
2549.486	1.403	1403.1	observe	Run3	observe/STIM_003.jpg	100
2554.229	1.097	1096.9	observe	Run3	observe/STIM_003.jpg	100
2557.974	1.048	1048.5	observe	Run3	observe/STIM_003.jpg	99
2561.04	1.285	1284.8	observe	Run3	observe/STIM_003.jpg	100
2564.397	1.102	1102.2	observe	Run3	observe/STIM_004.jpg	99
2567.825	0.82	820.5	observe	Run3	observe/STIM_004.jpg	100
2571.118	1.522	1521.6	observe	Run3	observe/STIM_004.jpg	100
2575.311	1.301	1301.3	observe	Run3	observe/STIM_004.jpg	99
2578.753	0.978	977.6	observe	Run3	observe/STIM_005.jpg	100
2583.256	0.972	971.8	observe	Run3	observe/STIM_005.jpg	100
2587.64	1.094	1093.6	observe	Run3	observe/STIM_005.jpg	100
2592.708	1.474	1473.5	observe	Run3	observe/STIM_005.jpg	100
2597.934	1.042	1041.6	observe	Run3	observe/STIM_006.jpg	100
2601.382	1.146	1146.1	observe	Run3	observe/STIM_006.jpg	100
2604.845	0.872	871.5	observe	Run3	observe/STIM_006.jpg	100
2608.031	1.192	1191.8	observe	Run3	observe/STIM_006.jpg	99
2611.574	0.834	834.3	observe	Run3	observe/STIM_007.jpg	100
2615.506	1.603	1603.4	observe	Run3	observe/STIM_007.jpg	99
2619.19	0.962	962.5	observe	Run3	observe/STIM_007.jpg	100
2622.344	1.393	1393.4	observe	Run3	observe/STIM_007.jpg	100
2626.53	1.316	1316.5	observe	Run3	observe/STIM_008.jpg	100
2630.375	1.507	1507.4	observe	Run3	observe/STIM_008.jpg	100
2634.431	0.987	986.7	observe	Run3	observe/STIM_008.jpg	99
2637.925	1.229	1229.1	observe	Run3	observe/STIM_008.jpg	99
2642.004	0.97	969.6	observe	Run3	observe/STIM_009.jpg	100
2646.218	1.029	1028.8	observe	Run3	observe/STIM_009.jpg	99
2650.355	0.963	963.2	observe	Run3	observe/STIM_009.jpg	100
2654.094	1.314	1314.5	observe	Run3	observe/STIM_009.jpg	99
2657.523	1.512	1512.4	observe	Run3	observe/STIM_010.jpg	99
2662.24	1.203	1203.4	observe	Run3	observe/STIM_010.jpg	99
2666.818	1.39	1389.7	observe	Run3	observe/STIM_010.jpg	99
2671.65	1.046	1046.5	observe	Run3	observe/STIM_010.jpg	100
2676.176	1.096	1096.3	observe	Run3	observe/STIM_011.jpg	99
2680.048	1.464	1463.9	observe	Run3	observe/STIM_011.jpg	100
2685.361	1.244	1243.8	observe	Run3	observe/STIM_011.jpg	99
2688.681	1.378	1378.2	observe	Run3	observe/STIM_011.jpg	99
2693.406	0.966	966.4	observe	Run3	observe/STIM_012.jpg	100
2697.718	1.315	1314.8	observe	Run3	observe/STIM_012.jpg	99
2702.318	1.58	1579.8	observe	Run3	observe/STIM_012.jpg	100
2706.941	1.068	1068.1	observe	Run3	observe/STIM_012.jpg	99
2710.796	1.186	1185.5	observe	Run3	observe/STIM_013.jpg	100
2715.48	1.289	1289.2	observe	Run3	observe/STIM_013.jpg	100
2720.098	1.617	1617.1	observe	Run3	observe/STIM_013.jpg	100
2724.55	1.367	1367.2	observe	Run3	observe/STIM_013.jpg	100
2729.404	1.128	1128.4	observe	Run3	observe/STIM_014.jpg	100
2733.351	1.243	1242.6	observe	Run3	observe/STIM_014.jpg	99
2738.092	1.577	1577.4	observe	Run3	observe/STIM_014.jpg	100
2742.786	1.136	1136.2	observe	Run3	observe/STIM_014.jpg	100
2746.777	1.002	1002.5	observe	Run3	observe/STIM_015.jpg	100
2750.844	0.872	872.4	observe	Run3	observe/STIM_015.jpg	100
2754.674	1.156	1156.2	observe	Run3	observe/STIM_015.jpg	99
2758.555	1.153	1152.6	observe	Run3	observe/STIM_015.jpg	100
2762.091	0.838	837.8	observe	Run3	observe/STIM_016.jpg	100
2765.981	0.823	823.2	observe	Run3	observe/STIM_016.jpg	99
2770.749	1.264	1263.9	observe	Run3	observe/STIM_016.jpg	99
2775.112	1.548	1548.5	observe	Run3	observe/STIM_016.jpg	100
2780.529	1.049	1049.0	observe	Run3	observe/STIM_017.jpg	100
2784.1	1.152	1151.8	observe	Run3	observe/STIM_017.jpg	100
2787.909	1.558	1558.0	observe	Run3	observe/STIM_017.jpg	99
2792.464	1.316	1315.5	observe	Run3	observe/STIM_017.jpg	99
2797.241	1.375	1375.2	observe	Run3	observe/STIM_018.jpg	100
2802.163	1.5	1500.0	observe	Run3	observe/STIM_018.jpg	100
2806.705	0.961	960.7	observe	Run3	observe/STIM_018.jpg	100
2811.572	1.264	1263.7	observe	Run3	observe/STIM_018.jpg	99
2814.955	0.85	849.9	observe	Run3	observe/STIM_019.jpg	100
2818.597	1.452	1451.9	observe	Run3	observe/STIM_019.jpg	99
2823.148	1.46	1460.1	observe	Run3	observe/STIM_019.jpg	99
2828.318	1.083	1082.6	observe	Run3	observe/STIM_019.jpg	100
