onset	duration	response_time_ms	trial_type	learning_stage	stimulus	response_port
0.0	0.959	959.1	incongruent	Block1	incongruent/STIM_000.jpg	99
4.112	1.031	1030.9	incongruent	Block1	incongruent/STIM_000.jpg	99
8.41	0.816	816.4	incongruent	Block1	incongruent/STIM_000.jpg	99
11.643	0.837	836.7	incongruent	Block1	incongruent/STIM_000.jpg	99
14.807	0.895	895.4	incongruent	Block1	incongruent/STIM_000.jpg	99
18.667	0.895	895.4	incongruent	Block1	incongruent/STIM_001.jpg	99
23.053	1.188	1187.8	incongruent	Block1	incongruent/STIM_001.jpg	99
26.909	1.45	1450.2	incongruent	Block1	incongruent/STIM_001.jpg	99
30.4	1.018	1017.9	incongruent	Block1	incongruent/STIM_001.jpg	99
34.192	0.832	832.3	incongruent	Block1	incongruent/STIM_001.jpg	100
37.376	1.386	1385.6	incongruent	Block1	incongruent/STIM_002.jpg	99
41.09	1.051	1050.6	incongruent	Block1	incongruent/STIM_002.jpg	100
45.931	1.481	1480.9	incongruent	Block1	incongruent/STIM_002.jpg	99
50.371	1.244	1243.7	incongruent	Block1	incongruent/STIM_002.jpg	99
53.923	0.975	975.2	incongruent	Block1	incongruent/STIM_002.jpg	99
58.272	1.184	1183.7	incongruent	Block1	incongruent/STIM_003.jpg	99
61.575	1.39	1390.1	incongruent	Block1	incongruent/STIM_003.jpg	99
65.401	1.134	1134.3	incongruent	Block1	incongruent/STIM_003.jpg	100
68.919	0.771	770.7	incongruent	Block1	incongruent/STIM_003.jpg	100
72.702	1.296	1295.9	incongruent	Block1	incongruent/STIM_003.jpg	99
76.684	1.714	1714.2	incongruent	Block1	incongruent/STIM_004.jpg	99
80.939	1.066	1065.5	incongruent	Block1	incongruent/STIM_004.jpg	99
85.526	0.86	860.0	incongruent	Block1	incongruent/STIM_004.jpg	100
89.178	1.351	1351.0	incongruent	Block1	incongruent/STIM_004.jpg	99
92.411	1.356	1355.7	incongruent	Block1	incongruent/STIM_004.jpg	100
96.693	1.419	1419.0	incongruent	Block1	incongruent/STIM_005.jpg	99
100.58	0.905	904.8	incongruent	Block1	incongruent/STIM_005.jpg	100
105.319	0.788	788.4	incongruent	Block1	incongruent/STIM_005.jpg	99
108.323	1.266	1265.5	incongruent	Block1	incongruent/STIM_005.jpg	100
112.315	0.643	642.8	incongruent	Block1	incongruent/STIM_005.jpg	100
115.591	1.36	1360.2	incongruent	Block1	incongruent/STIM_006.jpg	99
119.379	1.16	1160.4	incongruent	Block1	incongruent/STIM_006.jpg	99
123.049	0.887	886.6	incongruent	Block1	incongruent/STIM_006.jpg	100
127.762	1.182	1182.2	incongruent	Block1	incongruent/STIM_006.jpg	99
132.197	0.649	648.8	incongruent	Block1	incongruent/STIM_006.jpg	99
135.727	1.707	1707.4	incongruent	Block1	incongruent/STIM_007.jpg	100
139.439	0.792	791.8	incongruent	Block1	incongruent/STIM_007.jpg	100
143.75	1.54	1540.4	incongruent	Block1	incongruent/STIM_007.jpg	99
148.193	1.016	1016.4	incongruent	Block1	incongruent/STIM_007.jpg	100
152.496	0.825	824.8	incongruent	Block1	incongruent/STIM_007.jpg	100
155.769	1.46	1459.9	incongruent	Block1	incongruent/STIM_008.jpg	100
159.609	0.797	797.4	incongruent	Block1	incongruent/STIM_008.jpg	100
163.861	1.164	1164.4	incongruent	Block1	incongruent/STIM_008.jpg	99
168.115	1.099	1099.3	incongruent	Block1	incongruent/STIM_008.jpg	100
172.44	0.807	807.0	incongruent	Block1	incongruent/STIM_008.jpg	100
176.551	1.257	1256.8	incongruent	Block1	incongruent/STIM_009.jpg	99
181.29	1.24	1239.9	incongruent	Block1	incongruent/STIM_009.jpg	99
184.956	0.89	889.7	incongruent	Block1	incongruent/STIM_009.jpg	99
187.742	0.797	797.2	incongruent	Block1	incongruent/STIM_009.jpg	99
190.888	1.319	1318.9	incongruent	Block1	incongruent/STIM_009.jpg	99
195.599	0.917	917.0	incongruent	Block1	incongruent/STIM_010.jpg	99
199.408	1.535	1534.7	incongruent	Block1	incongruent/STIM_010.jpg	99
203.259	1.35	1349.5	incongruent	Block1	incongruent/STIM_010.jpg	99
206.447	0.779	779.3	incongruent	Block1	incongruent/STIM_010.jpg	99
209.721	1.205	1204.7	incongruent	Block1	incongruent/STIM_010.jpg	99
214.011	1.204	1204.4	incongruent	Block1	incongruent/STIM_011.jpg	99
218.001	1.611	1611.4	incongruent	Block1	incongruent/STIM_011.jpg	99
222.709	1.148	1147.5	incongruent	Block1	incongruent/STIM_011.jpg	100
226.016	0.709	709.0	incongruent	Block1	incongruent/STIM_011.jpg	100
230.393	1.168	1167.9	incongruent	Block1	incongruent/STIM_011.jpg	100
233.635	1.244	1243.6	incongruent	Block1	incongruent/STIM_012.jpg	100
238.351	1.0	999.8	incongruent	Block1	incongruent/STIM_012.jpg	99
241.693	1.205	1205.0	incongruent	Block1	incongruent/STIM_012.jpg	100
245.814	1.365	1365.3	incongruent	Block1	incongruent/STIM_012.jpg	100
249.324	0.889	888.7	incongruent	Block1	incongruent/STIM_012.jpg	100
253.371	1.434	1434.2	incongruent	Block1	incongruent/STIM_013.jpg	99
257.522	1.133	1133.3	incongruent	Block1	incongruent/STIM_013.jpg	99
261.196	0.823	822.8	incongruent	Block1	incongruent/STIM_013.jpg	100
265.619	1.028	1027.9	incongruent	Block1	incongruent/STIM_013.jpg	100
270.027	0.978	977.8	incongruent	Block1	incongruent/STIM_013.jpg	99
273.723	1.605	1604.7	incongruent	Block1	incongruent/STIM_014.jpg	100
277.79	1.545	1545.0	incongruent	Block1	incongruent/STIM_014.jpg	100
281.218	1.142	1142.1	incongruent	Block1	incongruent/STIM_014.jpg	99
286.003	0.874	874.3	incongruent	Block1	incongruent/STIM_014.jpg	100
289.576	0.891	891.3	incongruent	Block1	incongruent/STIM_014.jpg	99
292.367	0.979	979.2	incongruent	Block1	incongruent/STIM_015.jpg	99
295.493	0.943	943.2	incongruent	Block1	incongruent/STIM_015.jpg	99
300.04	1.379	1379.3	incongruent	Block1	incongruent/STIM_015.jpg	99
303.548	1.27	1270.0	incongruent	Block1	incongruent/STIM_015.jpg	99
307.008	1.034	1033.7	incongruent	Block1	incongruent/STIM_015.jpg	99
311.9	1.535	1535.2	incongruent	Block1	incongruent/STIM_016.jpg	99
316.915	0.834	834.5	incongruent	Block1	incongruent/STIM_016.jpg	99
319.673	1.27	1269.9	incongruent	Block1	incongruent/STIM_016.jpg	100
324.068	1.397	1397.2	incongruent	Block1	incongruent/STIM_016.jpg	100
328.305	0.658	657.8	incongruent	Block1	incongruent/STIM_016.jpg	99
330.883	1.034	1034.5	incongruent	Block1	incongruent/STIM_017.jpg	100
334.557	1.279	1279.0	incongruent	Block1	incongruent/STIM_017.jpg	100
337.901	0.89	890.1	incongruent	Block1	incongruent/STIM_017.jpg	99
342.3	1.23	1230.0	incongruent	Block1	incongruent/STIM_017.jpg	99
345.789	1.141	1140.6	incongruent	Block1	incongruent/STIM_017.jpg	100
350.484	1.268	1268.2	incongruent	Block1	incongruent/STIM_018.jpg	100
354.133	1.016	1015.7	incongruent	Block1	incongruent/STIM_018.jpg	99
357.746	1.217	1217.3	incongruent	Block1	incongruent/STIM_018.jpg	99
361.536	1.076	1075.9	incongruent	Block1	incongruent/STIM_018.jpg	100
364.788	1.208	1207.6	incongruent	Block1	incongruent/STIM_018.jpg	100
368.263	1.687	1687.4	incongruent	Block1	incongruent/STIM_019.jpg	99
373.168	1.504	1504.1	incongruent	Block1	incongruent/STIM_019.jpg	99
377.948	1.378	1377.9	incongruent	Block1	incongruent/STIM_019.jpg	99
382.943	1.386	1385.8	incongruent	Block1	incongruent/STIM_019.jpg	99
386.824	0.731	731.3	incongruent	Block1	incongruent/STIM_019.jpg	100
390.505	1.556	1556.2	incongruent	Block1	incongruent/STIM_020.jpg	100
395.268	1.427	1426.9	incongruent	Block1	incongruent/STIM_020.jpg	99
400.018	1.118	1117.6	incongruent	Block1	incongruent/STIM_020.jpg	99
404.083	0.859	859.4	incongruent	Block1	incongruent/STIM_020.jpg	100
407.663	0.764	763.6	incongruent	Block1	incongruent/STIM_020.jpg	100
411.697	1.706	1706.2	incongruent	Block1	incongruent/STIM_021.jpg	100
415.339	1.158	1157.6	incongruent	Block1	incongruent/STIM_021.jpg	99
419.738	1.095	1094.7	incongruent	Block1	incongruent/STIM_021.jpg	99
423.291	1.016	1015.6	incongruent	Block1	incongruent/STIM_021.jpg	100
426.31	0.741	740.9	incongruent	Block1	incongruent/STIM_021.jpg	100
429.891	1.058	1057.9	incongruent	Block1	incongruent/STIM_022.jpg	100
434.424	1.26	1260.0	incongruent	Block1	incongruent/STIM_022.jpg	99
437.798	0.87	869.7	incongruent	Block1	incongruent/STIM_022.jpg	99
441.455	1.388	1387.5	incongruent	Block1	incongruent/STIM_022.jpg	99
445.602	0.796	795.9	incongruent	Block1	incongruent/STIM_022.jpg	99
449.394	1.424	1424.0	incongruent	Block1	incongruent/STIM_023.jpg	99
453.076	1.595	1595.4	incongruent	Block1	incongruent/STIM_023.jpg	99
458.41	1.14	1140.5	incongruent	Block1	incongruent/STIM_023.jpg	99
462.014	0.835	834.8	incongruent	Block1	incongruent/STIM_023.jpg	100
466.091	1.372	1371.6	incongruent	Block1	incongruent/STIM_023.jpg	100
469.423	1.489	1488.8	incongruent	Block1	incongruent/STIM_024.jpg	99
474.637	0.81	809.7	incongruent	Block1	incongruent/STIM_024.jpg	99
477.687	0.725	725.0	incongruent	Block1	incongruent/STIM_024.jpg	100
480.862	1.0	999.8	incongruent	Block1	incongruent/STIM_024.jpg	100
485.535	1.333	1333.0	incongruent	Block1	incongruent/STIM_024.jpg	100
489.607	0.854	854.4	incongruent	Block1	incongruent/STIM_025.jpg	99
493.164	1.458	1458.2	incongruent	Block1	incongruent/STIM_025.jpg	99
497.767	1.308	1307.8	incongruent	Block1	incongruent/STIM_025.jpg	100
501.25	0.767	767.0	incongruent	Block1	incongruent/STIM_025.jpg	100
504.687	0.814	813.7	incongruent	Block1	incongruent/STIM_025.jpg	99
507.463	1.709	1709.3	incongruent	Block1	incongruent/STIM_026.jpg	100
511.476	1.374	1374.4	incongruent	Block1	incongruent/STIM_026.jpg	100
514.793	0.725	725.2	incongruent	Block1	incongruent/STIM_026.jpg	100
518.13	1.337	1336.9	incongruent	Block1	incongruent/STIM_026.jpg	99
523.136	0.91	909.7	incongruent	Block1	incongruent/STIM_026.jpg	99
527.183	0.943	942.7	incongruent	Block1	incongruent/STIM_027.jpg	100
531.457	0.887	887.2	incongruent	Block1	incongruent/STIM_027.jpg	100
534.975	0.95	950.5	incongruent	Block1	incongruent/STIM_027.jpg	100
539.466	0.869	868.9	incongruent	Block1	incongruent/STIM_027.jpg	100
543.727	1.018	1018.5	incongruent	Block1	incongruent/STIM_027.jpg	99
548.499	0.819	818.9	incongruent	Block1	incongruent/STIM_028.jpg	99
551.515	1.58	1579.9	incongruent	Block1	incongruent/STIM_028.jpg	99
555.374	1.265	1264.9	incongruent	Block1	incongruent/STIM_028.jpg	99
559.837	0.743	742.8	incongruent	Block1	incongruent/STIM_028.jpg	100
564.081	1.28	1280.0	incongruent	Block1	incongruent/STIM_028.jpg	100
569.183	1.355	1355.1	incongruent	Block1	incongruent/STIM_029.jpg	99
574.09	0.903	903.0	incongruent	Block1	incongruent/STIM_029.jpg	99
578.118	1.104	1103.7	incongruent	Block1	incongruent/STIM_029.jpg	100
581.446	1.171	1171.0	incongruent	Block1	incongruent/STIM_029.jpg	100
586.026	1.345	1345.2	incongruent	Block1	incongruent/STIM_029.jpg	99
589.835	0.943	943.1	congruent	Block1	congruent/STIM_000.jpg	99
593.082	0.605	605.3	congruent	Block1	congruent/STIM_000.jpg	100
596.362	0.759	759.1	congruent	Block1	congruent/STIM_000.jpg	100
599.28	0.833	832.9	congruent	Block1	congruent/STIM_000.jpg	100
602.991	0.937	936.9	congruent	Block1	congruent/STIM_000.jpg	99
606.474	0.836	836.0	congruent	Block1	congruent/STIM_001.jpg	99
609.759	0.855	855.2	congruent	Block1	congruent/STIM_001.jpg	100
613.172	0.793	793.2	congruent	Block1	congruent/STIM_001.jpg	100
617.151	0.869	868.7	congruent	Block1	congruent/STIM_001.jpg	100
620.222	0.812	812.3	congruent	Block1	congruent/STIM_001.jpg	100
624.327	0.735	735.2	congruent	Block1	congruent/STIM_002.jpg	100
628.265	0.767	766.6	congruent	Block1	congruent/STIM_002.jpg	100
631.902	0.747	747.2	congruent	Block1	congruent/STIM_002.jpg	100
635.895	0.875	875.3	congruent	Block1	congruent/STIM_002.jpg	99
639.617	0.961	961.3	congruent	Block1	congruent/STIM_002.jpg	100
643.18	0.645	645.4	congruent	Block1	congruent/STIM_003.jpg	99
647.738	0.835	834.7	congruent	Block1	congruent/STIM_003.jpg	99
650.739	0.788	787.6	congruent	Block1	congruent/STIM_003.jpg	100
654.684	0.961	960.7	congruent	Block1	congruent/STIM_003.jpg	99
659.387	0.758	758.4	congruent	Block1	congruent/STIM_003.jpg	100
663.498	0.841	841.0	congruent	Block1	congruent/STIM_004.jpg	100
667.411	0.785	785.2	congruent	Block1	congruent/STIM_004.jpg	99
671.097	0.778	778.4	congruent	Block1	congruent/STIM_004.jpg	100
675.56	0.932	932.2	congruent	Block1	congruent/STIM_004.jpg	100
679.775	0.623	623.4	congruent	Block1	congruent/STIM_004.jpg	100
683.148	0.931	931.1	congruent	Block1	congruent/STIM_005.jpg	99
686.794	0.806	805.7	congruent	Block1	congruent/STIM_005.jpg	99
689.849	0.84	839.6	congruent	Block1	congruent/STIM_005.jpg	100
693.424	0.926	925.8	congruent	Block1	congruent/STIM_005.jpg	100
698.073	0.708	708.5	congruent	Block1	congruent/STIM_005.jpg	99
701.69	0.73	730.3	congruent	Block1	congruent/STIM_006.jpg	99
704.802	0.669	668.9	congruent	Block1	congruent/STIM_006.jpg	99
708.166	0.834	833.8	congruent	Block1	congruent/STIM_006.jpg	99
711.971	0.997	996.6	congruent	Block1	congruent/STIM_006.jpg	100
715.464	0.871	870.7	congruent	Block1	congruent/STIM_006.jpg	100
719.659	0.575	574.9	congruent	Block1	congruent/STIM_007.jpg	100
722.896	0.694	694.2	congruent	Block1	congruent/STIM_007.jpg	99
726.083	0.693	693.0	congruent	Block1	congruent/STIM_007.jpg	100
730.227	0.887	886.7	congruent	Block1	congruent/STIM_007.jpg	100
734.382	0.936	936.1	congruent	Block1	congruent/STIM_007.jpg	99
739.03	0.65	649.7	congruent	Block1	congruent/STIM_008.jpg	99
742.093	0.606	606.5	congruent	Block1	congruent/STIM_008.jpg	99
744.729	0.932	932.0	congruent	Block1	congruent/STIM_008.jpg	99
747.817	0.648	648.3	congruent	Block1	congruent/STIM_008.jpg	99
750.997	0.9	900.4	congruent	Block1	congruent/STIM_008.jpg	99
754.295	0.589	589.1	congruent	Block1	congruent/STIM_009.jpg	100
758.336	0.852	852.5	congruent	Block1	congruent/STIM_009.jpg	99
761.911	0.953	953.0	congruent	Block1	congruent/STIM_009.jpg	99
765.25	0.924	924.2	congruent	Block1	congruent/STIM_009.jpg	100
768.328	0.897	897.4	congruent	Block1	congruent/STIM_009.jpg	100
772.898	0.731	730.6	congruent	Block1	congruent/STIM_010.jpg	99
777.279	0.706	705.7	congruent	Block1	congruent/STIM_010.jpg	100
780.843	0.76	759.9	congruent	Block1	congruent/STIM_010.jpg	100
783.54	0.86	859.8	congruent	Block1	congruent/STIM_010.jpg	99
786.624	0.746	746.2	congruent	Block1	congruent/STIM_010.jpg	99
790.583	0.615	615.4	congruent	Block1	congruent/STIM_011.jpg	99
794.701	0.698	698.0	congruent	Block1	congruent/STIM_011.jpg	100
798.819	0.993	992.6	congruent	Block1	congruent/STIM_011.jpg	99
802.056	0.763	762.9	congruent	Block1	congruent/STIM_011.jpg	99
806.531	0.633	632.7	congruent	Block1	congruent/STIM_011.jpg	99
810.207	0.783	782.7	congruent	Block1	congruent/STIM_012.jpg	100
813.285	0.582	582.2	congruent	Block1	congruent/STIM_012.jpg	99
816.438	0.791	791.2	congruent	Block1	congruent/STIM_012.jpg	99
820.357	1.025	1025.2	congruent	Block1	congruent/STIM_012.jpg	99
823.969	0.763	763.1	congruent	Block1	congruent/STIM_012.jpg	99
826.739	0.715	715.4	congruent	Block1	congruent/STIM_013.jpg	99
830.785	0.859	859.2	congruent	Block1	congruent/STIM_013.jpg	99
835.25	0.979	978.7	congruent	Block1	congruent/STIM_013.jpg	100
839.004	0.926	926.0	congruent	Block1	congruent/STIM_013.jpg	99
843.127	0.8	800.3	congruent	Block1	congruent/STIM_013.jpg	99
847.131	0.586	585.9	congruent	Block1	congruent/STIM_014.jpg	100
850.932	0.697	696.6	congruent	Block1	congruent/STIM_014.jpg	99
854.098	0.724	723.9	congruent	Block1	congruent/STIM_014.jpg	100
857.529	0.694	694.1	congruent	Block1	congruent/STIM_014.jpg	99
860.174	0.654	654.1	congruent	Block1	congruent/STIM_014.jpg	100
864.379	0.586	585.7	congruent	Block1	congruent/STIM_015.jpg	99
868.237	0.936	936.3	congruent	Block1	congruent/STIM_015.jpg	100
872.448	0.747	747.0	congruent	Block1	congruent/STIM_015.jpg	100
875.183	0.75	750.5	congruent	Block1	congruent/STIM_015.jpg	99
879.294	0.621	621.1	congruent	Block1	congruent/STIM_015.jpg	99
882.264	0.904	904.2	congruent	Block1	congruent/STIM_016.jpg	100
886.208	0.844	843.5	congruent	Block1	congruent/STIM_016.jpg	100
889.844	0.585	585.2	congruent	Block1	congruent/STIM_016.jpg	99
892.675	0.827	827.2	congruent	Block1	congruent/STIM_016.jpg	100
896.903	0.636	636.2	congruent	Block1	congruent/STIM_016.jpg	100
899.51	0.683	683.0	congruent	Block1	congruent/STIM_017.jpg	100
902.893	0.67	670.4	congruent	Block1	congruent/STIM_017.jpg	99
907.473	0.721	720.9	congruent	Block1	congruent/STIM_017.jpg	99
911.41	0.861	861.4	congruent	Block1	congruent/STIM_017.jpg	99
914.321	0.617	617.2	congruent	Block1	congruent/STIM_017.jpg	100
918.076	0.688	688.4	congruent	Block1	congruent/STIM_018.jpg	100
921.873	1.023	1022.7	congruent	Block1	congruent/STIM_018.jpg	100
925.233	1.007	1007.1	congruent	Block1	congruent/STIM_018.jpg	100
928.621	0.617	617.3	congruent	Block1	congruent/STIM_018.jpg	100
932.474	0.614	613.5	congruent	Block1	congruent/STIM_018.jpg	99
935.386	0.681	681.3	congruent	Block1	congruent/STIM_019.jpg	99
939.356	0.793	793.4	congruent	Block1	congruent/STIM_019.jpg	100
942.798	0.63	630.0	congruent	Block1	congruent/STIM_019.jpg	99
945.561	0.808	808.3	congruent	Block1	congruent/STIM_019.jpg	100
950.182	0.976	975.8	congruent	Block1	congruent/STIM_019.jpg	99
954.345	0.813	813.3	congruent	Block1	congruent/STIM_020.jpg	99
958.346	0.903	903.4	congruent	Block1	congruent/STIM_020.jpg	100
962.472	0.629	628.9	congruent	Block1	congruent/STIM_020.jpg	99
966.009	1.005	1005.1	congruent	Block1	congruent/STIM_020.jpg	99
970.281	0.802	801.8	congruent	Block1	congruent/STIM_020.jpg	100
973.608	0.807	806.8	congruent	Block1	congruent/STIM_021.jpg	100
978.221	0.959	959.0	congruent	Block1	congruent/STIM_021.jpg	100
982.818	0.723	722.7	congruent	Block1	congruent/STIM_021.jpg	100
987.174	0.906	906.2	congruent	Block1	congruent/STIM_021.jpg	100
991.309	0.91	910.2	congruent	Block1	congruent/STIM_021.jpg	99
995.468	0.873	872.8	congruent	Block1	congruent/STIM_022.jpg	100
999.402	0.77	769.5	congruent	Block1	congruent/STIM_022.jpg	99
1002.834	0.894	893.8	congruent	Block1	congruent/STIM_022.jpg	100
1006.412	0.766	766.5	congruent	Block1	congruent/STIM_022.jpg	99
1009.266	0.772	771.7	congruent	Block1	congruent/STIM_022.jpg	100
1013.572	0.974	973.6	congruent	Block1	congruent/STIM_023.jpg	100
1016.981	0.664	663.7	congruent	Block1	congruent/STIM_023.jpg	100
1019.774	0.624	623.7	congruent	Block1	congruent/STIM_023.jpg	99
1023.37	0.634	634.1	congruent	Block1	congruent/STIM_023.jpg	99
1027.37	0.582	581.6	congruent	Block1	congruent/STIM_023.jpg	100
1031.272	0.847	846.7	congruent	Block1	congruent/STIM_024.jpg	100
1034.843	0.942	942.5	congruent	Block1	congruent/STIM_024.jpg	100
1037.8	0.889	889.4	congruent	Block1	congruent/STIM_024.jpg	99
1042.331	0.804	804.1	congruent	Block1	congruent/STIM_024.jpg	100
1046.107	0.77	770.0	congruent	Block1	congruent/STIM_024.jpg	100
1049.65	0.652	651.6	congruent	Block1	congruent/STIM_025.jpg	100
1053.23	1.019	1019.1	congruent	Block1	congruent/STIM_025.jpg	99
1056.129	0.592	592.5	congruent	Block1	congruent/STIM_025.jpg	100
1059.476	0.786	785.8	congruent	Block1	congruent/STIM_025.jpg	99
1062.963	0.73	729.7	congruent	Block1	congruent/STIM_025.jpg	100
1065.977	0.925	925.2	congruent	Block1	congruent/STIM_026.jpg	99
1068.786	0.601	601.4	congruent	Block1	congruent/STIM_026.jpg	99
1072.92	0.746	745.8	congruent	Block1	congruent/STIM_026.jpg	99
1076.347	0.759	759.1	congruent	Block1	congruent/STIM_026.jpg	99
1079.183	0.984	983.5	congruent	Block1	congruent/STIM_026.jpg	99
1082.517	0.877	877.2	congruent	Block1	congruent/STIM_027.jpg	100
1087.021	0.935	935.1	congruent	Block1	congruent/STIM_027.jpg	100
1090.263	0.773	773.1	congruent	Block1	congruent/STIM_027.jpg	99
1093.635	1.015	1014.6	congruent	Block1	congruent/STIM_027.jpg	100
1097.837	0.924	923.9	congruent	Block1	congruent/STIM_027.jpg	99
1102.472	0.983	983.1	congruent	Block1	congruent/STIM_028.jpg	100
1106.888	1.028	1027.8	congruent	Block1	congruent/STIM_028.jpg	99
1110.029	0.801	801.1	congruent	Block1	congruent/STIM_028.jpg	99
1112.891	0.914	913.7	congruent	Block1	congruent/STIM_028.jpg	99
1115.714	0.724	724.2	congruent	Block1	congruent/STIM_028.jpg	99
1118.395	0.691	690.9	congruent	Block1	congruent/STIM_029.jpg	100
1122.594	0.771	771.3	congruent	Block1	congruent/STIM_029.jpg	100
1126.306	0.685	685.4	congruent	Block1	congruent/STIM_029.jpg	99
1129.066	0.597	597.2	congruent	Block1	congruent/STIM_029.jpg	99
1131.944	0.726	726.4	congruent	Block1	congruent/STIM_029.jpg	100
1135.38	1.095	1094.6	incongruent	Block2	incongruent/STIM_000.jpg	99
1139.191	1.032	1031.7	incongruent	Block2	incongruent/STIM_000.jpg	99
1143.165	0.961	961.1	incongruent	Block2	incongruent/STIM_000.jpg	100
1147.281	0.757	756.6	incongruent	Block2	incongruent/STIM_000.jpg	99
1151.479	0.96	960.5	incongruent	Block2	incongruent/STIM_000.jpg	100
1155.482	0.751	751.2	incongruent	Block2	incongruent/STIM_001.jpg	100
1159.605	0.852	851.8	incongruent	Block2	incongruent/STIM_001.jpg	99
1164.131	1.211	1211.4	incongruent	Block2	incongruent/STIM_001.jpg	100
1168.746	0.82	819.6	incongruent	Block2	incongruent/STIM_001.jpg	99
1171.604	0.908	907.5	incongruent	Block2	incongruent/STIM_001.jpg	100
1174.474	1.394	1394.3	incongruent	Block2	incongruent/STIM_002.jpg	100
1177.978	0.745	745.4	incongruent	Block2	incongruent/STIM_002.jpg	100
1181.159	0.639	639.1	incongruent	Block2	incongruent/STIM_002.jpg	99
1184.515	0.712	712.3	incongruent	Block2	incongruent/STIM_002.jpg	100
1188.885	0.95	950.5	incongruent	Block2	incongruent/STIM_002.jpg	100
1193.547	0.953	952.7	incongruent	Block2	incongruent/STIM_003.jpg	100
1197.888	0.77	769.8	incongruent	Block2	incongruent/STIM_003.jpg	99
1201.656	0.866	865.9	incongruent	Block2	incongruent/STIM_003.jpg	99
1206.035	1.126	1126.2	incongruent	Block2	incongruent/STIM_003.jpg	100
1210.921	0.903	902.9	incongruent	Block2	incongruent/STIM_003.jpg	100
1214.743	1.184	1184.0	incongruent	Block2	incongruent/STIM_004.jpg	100
1219.011	1.058	1058.0	incongruent	Block2	incongruent/STIM_004.jpg	100
1222.991	0.72	720.1	incongruent	Block2	incongruent/STIM_004.jpg	99
1227.214	0.978	978.4	incongruent	Block2	incongruent/STIM_004.jpg	100
1231.286	0.809	809.1	incongruent	Block2	incongruent/STIM_004.jpg	100
1234.319	0.956	955.8	incongruent	Block2	incongruent/STIM_005.jpg	99
1237.531	0.906	906.5	incongruent	Block2	incongruent/STIM_005.jpg	100
1241.929	0.968	967.7	incongruent	Block2	incongruent/STIM_005.jpg	99
1245.079	1.163	1163.1	incongruent	Block2	incongruent/STIM_005.jpg	100
1248.865	0.977	977.2	incongruent	Block2	incongruent/STIM_005.jpg	100
1252.208	0.774	773.5	incongruent	Block2	incongruent/STIM_006.jpg	100
1255.639	0.881	881.2	incongruent	Block2	incongruent/STIM_006.jpg	99
1259.547	0.827	826.9	incongruent	Block2	incongruent/STIM_006.jpg	100
1263.278	0.82	820.4	incongruent	Block2	incongruent/STIM_006.jpg	100
1266.244	1.119	1119.4	incongruent	Block2	incongruent/STIM_006.jpg	100
1269.949	0.834	834.4	incongruent	Block2	incongruent/STIM_007.jpg	99
1274.604	1.175	1175.3	incongruent	Block2	incongruent/STIM_007.jpg	100
1278.282	0.796	796.3	incongruent	Block2	incongruent/STIM_007.jpg	99
1281.591	0.61	609.9	incongruent	Block2	incongruent/STIM_007.jpg	100
1285.122	1.069	1069.0	incongruent	Block2	incongruent/STIM_007.jpg	100
1289.858	1.337	1337.2	incongruent	Block2	incongruent/STIM_008.jpg	99
1293.349	1.09	1089.6	incongruent	Block2	incongruent/STIM_008.jpg	99
1296.355	1.052	1051.9	incongruent	Block2	incongruent/STIM_008.jpg	99
1300.445	0.874	874.0	incongruent	Block2	incongruent/STIM_008.jpg	99
1305.115	1.007	1007.2	incongruent	Block2	incongruent/STIM_008.jpg	99
1309.903	1.233	1233.0	incongruent	Block2	incongruent/STIM_009.jpg	99
1313.374	1.247	1247.2	incongruent	Block2	incongruent/STIM_009.jpg	99
1317.018	0.666	666.2	incongruent	Block2	incongruent/STIM_009.jpg	99
1320.346	0.922	921.8	incongruent	Block2	incongruent/STIM_009.jpg	99
1325.005	0.9	900.0	incongruent	Block2	incongruent/STIM_009.jpg	99
1328.645	1.052	1051.8	incongruent	Block2	incongruent/STIM_010.jpg	99
1331.573	0.725	724.8	incongruent	Block2	incongruent/STIM_010.jpg	100
1334.324	0.79	790.3	incongruent	Block2	incongruent/STIM_010.jpg	100
1338.123	0.984	983.5	incongruent	Block2	incongruent/STIM_010.jpg	99
1342.706	1.001	1001.2	incongruent	Block2	incongruent/STIM_010.jpg	99
1347.106	1.037	1037.1	incongruent	Block2	incongruent/STIM_011.jpg	100
1351.705	1.212	1211.5	incongruent	Block2	incongruent/STIM_011.jpg	99
1356.653	0.827	827.1	incongruent	Block2	incongruent/STIM_011.jpg	99
1360.007	0.758	757.7	incongruent	Block2	incongruent/STIM_011.jpg	100
1364.109	0.685	685.3	incongruent	Block2	incongruent/STIM_011.jpg	99
1368.226	1.07	1070.4	incongruent	Block2	incongruent/STIM_012.jpg	99
1373.081	0.844	844.3	incongruent	Block2	incongruent/STIM_012.jpg	99
1376.519	1.234	1233.8	incongruent	Block2	incongruent/STIM_012.jpg	100
1380.655	1.151	1151.3	incongruent	Block2	incongruent/STIM_012.jpg	99
1384.145	1.139	1139.4	incongruent	Block2	incongruent/STIM_012.jpg	100
1387.979	0.917	917.3	incongruent	Block2	incongruent/STIM_013.jpg	99
1391.013	1.126	1126.5	incongruent	Block2	incongruent/STIM_013.jpg	99
1394.432	0.902	901.8	incongruent	Block2	incongruent/STIM_013.jpg	100
1398.753	1.15	1150.0	incongruent	Block2	incongruent/STIM_013.jpg	99
1402.346	1.09	1090.0	incongruent	Block2	incongruent/STIM_013.jpg	99
1406.712	0.685	684.6	incongruent	Block2	incongruent/STIM_014.jpg	100
1410.779	0.697	696.6	incongruent	Block2	incongruent/STIM_014.jpg	99
1414.764	0.83	830.2	incongruent	Block2	incongruent/STIM_014.jpg	99
1418.474	1.126	1125.6	incongruent	Block2	incongruent/STIM_014.jpg	100
1423.153	0.691	691.0	incongruent	Block2	incongruent/STIM_014.jpg	99
1426.168	1.273	1273.3	incongruent	Block2	incongruent/STIM_015.jpg	100
1429.406	1.116	1115.6	incongruent	Block2	incongruent/STIM_015.jpg	99
1433.472	1.248	1248.4	incongruent	Block2	incongruent/STIM_015.jpg	100
1436.741	0.83	830.2	incongruent	Block2	incongruent/STIM_015.jpg	100
1439.615	0.904	903.8	incongruent	Block2	incongruent/STIM_015.jpg	100
1443.852	0.904	904.4	incongruent	Block2	incongruent/STIM_016.jpg	100
1448.29	0.72	720.4	incongruent	Block2	incongruent/STIM_016.jpg	100
1451.338	1.063	1062.8	incongruent	Block2	incongruent/STIM_016.jpg	99
1455.791	0.594	593.8	incongruent	Block2	incongruent/STIM_016.jpg	100
1460.186	0.859	858.8	incongruent	Block2	incongruent/STIM_016.jpg	100
1464.118	0.858	857.5	incongruent	Block2	incongruent/STIM_017.jpg	100
1467.701	1.328	1327.8	incongruent	Block2	incongruent/STIM_017.jpg	100
1470.926	0.879	878.6	incongruent	Block2	incongruent/STIM_017.jpg	99
1475.451	0.632	631.9	incongruent	Block2	incongruent/STIM_017.jpg	100
1478.832	0.821	821.2	incongruent	Block2	incongruent/STIM_017.jpg	99
1481.83	0.834	833.8	incongruent	Block2	incongruent/STIM_018.jpg	100
1485.159	0.916	916.4	incongruent	Block2	incongruent/STIM_018.jpg	99
1488.179	1.285	1285.4	incongruent	Block2	incongruent/STIM_018.jpg	100
1491.344	0.848	847.8	incongruent	Block2	incongruent/STIM_018.jpg	99
1495.297	0.689	689.1	incongruent	Block2	incongruent/STIM_018.jpg	99
1498.752	1.041	1040.7	incongruent	Block2	incongruent/STIM_019.jpg	100
1501.838	0.922	921.6	incongruent	Block2	incongruent/STIM_019.jpg	99
1506.559	0.982	982.1	incongruent	Block2	incongruent/STIM_019.jpg	99
1511.3	0.904	904.2	incongruent	Block2	incongruent/STIM_019.jpg	100
1515.091	0.845	844.6	incongruent	Block2	incongruent/STIM_019.jpg	99
1519.286	1.263	1263.2	incongruent	Block2	incongruent/STIM_020.jpg	100
1522.507	1.186	1186.5	incongruent	Block2	incongruent/STIM_020.jpg	100
1525.641	1.231	1231.0	incongruent	Block2	incongruent/STIM_020.jpg	99
1529.985	0.72	719.8	incongruent	Block2	incongruent/STIM_020.jpg	100
1534.267	1.088	1088.3	incongruent	Block2	incongruent/STIM_020.jpg	100
1538.253	0.758	757.9	incongruent	Block2	incongruent/STIM_021.jpg	100
1542.035	1.133	1132.9	incongruent	Block2	incongruent/STIM_021.jpg	99
1545.437	0.807	807.3	incongruent	Block2	incongruent/STIM_021.jpg	100
1549.794	0.87	870.1	incongruent	Block2	incongruent/STIM_021.jpg	100
1554.087	1.102	1102.3	incongruent	Block2	incongruent/STIM_021.jpg	100
1558.974	1.401	1401.2	incongruent	Block2	incongruent/STIM_022.jpg	100
1562.797	1.333	1332.7	incongruent	Block2	incongruent/STIM_022.jpg	100
1567.653	1.196	1196.0	incongruent	Block2	incongruent/STIM_022.jpg	99
1572.274	0.894	894.0	incongruent	Block2	incongruent/STIM_022.jpg	99
1575.611	1.049	1049.0	incongruent	Block2	incongruent/STIM_022.jpg	99
1579.915	1.311	1311.0	incongruent	Block2	incongruent/STIM_023.jpg	99
1584.401	0.705	705.1	incongruent	Block2	incongruent/STIM_023.jpg	100
1588.385	1.218	1218.1	incongruent	Block2	incongruent/STIM_023.jpg	99
1592.291	0.989	989.1	incongruent	Block2	incongruent/STIM_023.jpg	99
1595.6	1.143	1143.4	incongruent	Block2	incongruent/STIM_023.jpg	99
1600.324	1.452	1452.4	incongruent	Block2	incongruent/STIM_024.jpg	99
1604.0	0.881	880.7	incongruent	Block2	incongruent/STIM_024.jpg	100
1606.959	0.671	671.4	incongruent	Block2	incongruent/STIM_024.jpg	100
1610.447	0.825	825.0	incongruent	Block2	incongruent/STIM_024.jpg	99
1613.644	0.695	694.9	incongruent	Block2	incongruent/STIM_024.jpg	99
1616.546	0.932	931.5	incongruent	Block2	incongruent/STIM_025.jpg	99
1620.243	1.06	1059.5	incongruent	Block2	incongruent/STIM_025.jpg	99
1623.824	1.212	1211.6	incongruent	Block2	incongruent/STIM_025.jpg	99
1627.082	1.04	1039.5	incongruent	Block2	incongruent/STIM_025.jpg	100
1629.998	0.607	606.9	incongruent	Block2	incongruent/STIM_025.jpg	99
1633.022	1.21	1210.3	incongruent	Block2	incongruent/STIM_026.jpg	99
1638.065	1.098	1097.7	incongruent	Block2	incongruent/STIM_026.jpg	99
1642.94	0.803	802.9	incongruent	Block2	incongruent/STIM_026.jpg	100
1646.38	0.842	841.7	incongruent	Block2	incongruent/STIM_026.jpg	100
1651.03	0.65	649.9	incongruent	Block2	incongruent/STIM_026.jpg	99
1654.834	1.381	1381.0	incongruent	Block2	incongruent/STIM_027.jpg	100
1658.042	0.894	894.0	incongruent	Block2	incongruent/STIM_027.jpg	100
1662.648	1.111	1111.0	incongruent	Block2	incongruent/STIM_027.jpg	99
1666.378	1.16	1160.5	incongruent	Block2	incongruent/STIM_027.jpg	99
1670.244	0.61	609.7	incongruent	Block2	incongruent/STIM_027.jpg	99
1673.681	1.149	1149.3	incongruent	Block2	incongruent/STIM_028.jpg	99
1677.719	0.701	701.0	incongruent	Block2	incongruent/STIM_028.jpg	100
1680.672	0.963	963.1	incongruent	Block2	incongruent/STIM_028.jpg	99
1684.836	1.01	1009.6	incongruent	Block2	incongruent/STIM_028.jpg	100
1689.397	1.098	1097.7	incongruent	Block2	incongruent/STIM_028.jpg	99
1693.096	1.161	1160.8	incongruent	Block2	incongruent/STIM_029.jpg	100
1697.902	0.67	670.5	incongruent	Block2	incongruent/STIM_029.jpg	100
1701.054	1.03	1029.6	incongruent	Block2	incongruent/STIM_029.jpg	100
1704.397	0.825	825.3	incongruent	Block2	incongruent/STIM_029.jpg	100
1707.346	0.624	624.3	incongruent	Block2	incongruent/STIM_029.jpg	100
1711.615	0.731	730.6	congruent	Block2	congruent/STIM_000.jpg	100
1714.95	0.959	959.0	congruent	Block2	congruent/STIM_000.jpg	100
1717.923	0.59	590.0	congruent	Block2	congruent/STIM_000.jpg	99
1721.514	1.004	1003.5	congruent	Block2	congruent/STIM_000.jpg	100
1725.23	0.983	983.4	congruent	Block2	congruent/STIM_000.jpg	99
1729.134	0.898	897.8	congruent	Block2	congruent/STIM_001.jpg	100
1731.939	0.664	663.8	congruent	Block2	congruent/STIM_001.jpg	99
1735.31	0.708	707.5	congruent	Block2	congruent/STIM_001.jpg	100
1738.58	0.827	826.8	congruent	Block2	congruent/STIM_001.jpg	100
1742.73	0.954	953.6	congruent	Block2	congruent/STIM_001.jpg	100
1747.351	0.918	918.1	congruent	Block2	congruent/STIM_002.jpg	100
1750.191	0.88	879.7	congruent	Block2	congruent/STIM_002.jpg	99
1753.468	0.71	709.9	congruent	Block2	congruent/STIM_002.jpg	99
1756.428	0.762	761.8	congruent	Block2	congruent/STIM_002.jpg	99
1759.759	0.968	967.5	congruent	Block2	congruent/STIM_002.jpg	100
1763.95	0.716	716.1	congruent	Block2	congruent/STIM_003.jpg	100
1767.965	0.897	897.2	congruent	Block2	congruent/STIM_003.jpg	100
1771.551	0.65	650.0	congruent	Block2	congruent/STIM_003.jpg	99
1774.242	0.812	812.5	congruent	Block2	congruent/STIM_003.jpg	100
1777.841	0.974	974.2	congruent	Block2	congruent/STIM_003.jpg	99
1780.878	0.805	804.7	congruent	Block2	congruent/STIM_004.jpg	99
1784.23	0.822	821.8	congruent	Block2	congruent/STIM_004.jpg	99
1787.26	0.603	602.7	congruent	Block2	congruent/STIM_004.jpg	99
1790.358	0.674	673.7	congruent	Block2	congruent/STIM_004.jpg	100
1794.141	0.736	735.9	congruent	Block2	congruent/STIM_004.jpg	99
1797.306	0.688	687.9	congruent	Block2	congruent/STIM_005.jpg	100
1801.474	0.703	702.7	congruent	Block2	congruent/STIM_005.jpg	100
1805.28	0.598	598.4	congruent	Block2	congruent/STIM_005.jpg	99
1809.033	0.821	821.0	congruent	Block2	congruent/STIM_005.jpg	99
1811.918	0.942	941.9	congruent	Block2	congruent/STIM_005.jpg	100
1816.154	0.984	983.7	congruent	Block2	congruent/STIM_006.jpg	99
1819.709	0.877	877.0	congruent	Block2	congruent/STIM_006.jpg	100
1824.35	0.835	835.3	congruent	Block2	congruent/STIM_006.jpg	99
1827.337	0.588	587.6	congruent	Block2	congruent/STIM_006.jpg	99
1830.387	0.714	714.0	congruent	Block2	congruent/STIM_006.jpg	99
1834.145	0.994	994.1	congruent	Block2	congruent/STIM_007.jpg	100
1838.776	0.866	866.3	congruent	Block2	congruent/STIM_007.jpg	100
1843.447	0.662	661.5	congruent	Block2	congruent/STIM_007.jpg	99
1846.249	0.732	732.2	congruent	Block2	congruent/STIM_007.jpg	99
1850.172	0.993	993.2	congruent	Block2	congruent/STIM_007.jpg	99
1854.461	0.838	838.2	congruent	Block2	congruent/STIM_008.jpg	99
1858.727	0.948	948.5	congruent	Block2	congruent/STIM_008.jpg	100
1863.434	0.647	647.3	congruent	Block2	congruent/STIM_008.jpg	99
1867.273	0.715	714.6	congruent	Block2	congruent/STIM_008.jpg	99
1871.393	0.76	759.8	congruent	Block2	congruent/STIM_008.jpg	100
1875.769	0.999	998.7	congruent	Block2	congruent/STIM_009.jpg	99
1879.509	0.908	908.1	congruent	Block2	congruent/STIM_009.jpg	99
1883.335	0.879	878.9	congruent	Block2	congruent/STIM_009.jpg	100
1887.95	0.722	721.7	congruent	Block2	congruent/STIM_009.jpg	99
1891.563	0.722	721.6	congruent	Block2	congruent/STIM_009.jpg	99
1894.888	0.801	800.9	congruent	Block2	congruent/STIM_010.jpg	100
1898.671	0.803	802.9	congruent	Block2	congruent/STIM_010.jpg	99
1901.681	0.846	845.5	congruent	Block2	congruent/STIM_010.jpg	99
1905.02	0.887	887.2	congruent	Block2	congruent/STIM_010.jpg	99
1909.195	0.82	819.5	congruent	Block2	congruent/STIM_010.jpg	100
1913.015	0.652	652.2	congruent	Block2	congruent/STIM_011.jpg	100
1917.152	0.987	986.6	congruent	Block2	congruent/STIM_011.jpg	100
1921.125	0.833	833.1	congruent	Block2	congruent/STIM_011.jpg	100
1925.223	1.004	1003.7	congruent	Block2	congruent/STIM_011.jpg	100
1929.149	0.701	701.2	congruent	Block2	congruent/STIM_011.jpg	100
1933.221	0.702	701.9	congruent	Block2	congruent/STIM_012.jpg	100
1937.165	0.903	903.4	congruent	Block2	congruent/STIM_012.jpg	100
1941.533	0.598	597.9	congruent	Block2	congruent/STIM_012.jpg	99
1944.888	0.99	990.2	congruent	Block2	congruent/STIM_012.jpg	100
1949.73	0.605	605.1	congruent	Block2	congruent/STIM_012.jpg	99
1952.351	0.65	649.6	congruent	Block2	congruent/STIM_013.jpg	99
1956.541	0.842	842.1	congruent	Block2	congruent/STIM_013.jpg	100
1959.477	0.819	818.6	congruent	Block2	congruent/STIM_013.jpg	99
1963.474	0.972	971.6	congruent	Block2	congruent/STIM_013.jpg	99
1966.604	0.944	944.0	congruent	Block2	congruent/STIM_013.jpg	99
1970.448	0.927	926.6	congruent	Block2	congruent/STIM_014.jpg	100
1973.285	0.624	624.4	congruent	Block2	congruent/STIM_014.jpg	99
1976.919	0.75	750.2	congruent	Block2	congruent/STIM_014.jpg	100
1981.419	0.802	802.2	congruent	Block2	congruent/STIM_014.jpg	100
1985.608	0.896	896.2	congruent	Block2	congruent/STIM_014.jpg	100
1990.191	0.953	952.6	congruent	Block2	congruent/STIM_015.jpg	100
1994.004	0.924	923.5	congruent	Block2	congruent/STIM_015.jpg	99
1996.892	0.763	763.3	congruent	Block2	congruent/STIM_015.jpg	99
2001.015	0.892	891.5	congruent	Block2	congruent/STIM_015.jpg	99
2004.901	0.609	609.1	congruent	Block2	congruent/STIM_015.jpg	99
2008.25	0.654	653.8	congruent	Block2	congruent/STIM_016.jpg	99
2011.248	1.005	1005.2	congruent	Block2	congruent/STIM_016.jpg	99
2015.454	0.864	863.6	congruent	Block2	congruent/STIM_016.jpg	99
2020.118	0.683	683.3	congruent	Block2	congruent/STIM_016.jpg	100
2023.652	0.829	829.1	congruent	Block2	congruent/STIM_016.jpg	100
2027.322	0.717	716.8	congruent	Block2	congruent/STIM_017.jpg	100
2031.257	0.985	984.6	congruent	Block2	congruent/STIM_017.jpg	100
2036.054	0.926	926.5	congruent	Block2	congruent/STIM_017.jpg	100
2039.023	0.807	807.2	congruent	Block2	congruent/STIM_017.jpg	99
2043.282	0.735	735.4	congruent	Block2	congruent/STIM_017.jpg	100
2046.826	0.769	768.8	congruent	Block2	congruent/STIM_018.jpg	99
2050.926	0.716	716.0	congruent	Block2	congruent/STIM_018.jpg	99
2055.478	0.692	692.0	congruent	Block2	congruent/STIM_018.jpg	99
2058.774	0.825	824.9	congruent	Block2	congruent/STIM_018.jpg	99
2062.737	0.634	634.0	congruent	Block2	congruent/STIM_018.jpg	99
2065.311	0.728	728.2	congruent	Block2	congruent/STIM_019.jpg	99
2068.999	0.673	672.8	congruent	Block2	congruent/STIM_019.jpg	100
2072.759	1.024	1024.0	congruent	Block2	congruent/STIM_019.jpg	99
2076.738	0.989	988.7	congruent	Block2	congruent/STIM_019.jpg	99
2080.972	0.986	986.0	congruent	Block2	congruent/STIM_019.jpg	100
2083.879	0.663	663.3	congruent	Block2	congruent/STIM_020.jpg	99
2086.54	0.667	667.4	congruent	Block2	congruent/STIM_020.jpg	99
2090.146	0.996	995.8	congruent	Block2	congruent/STIM_020.jpg	99
2094.13	0.973	972.6	congruent	Block2	congruent/STIM_020.jpg	99
2098.714	0.736	736.3	congruent	Block2	congruent/STIM_020.jpg	99
2103.076	0.667	667.1	congruent	Block2	congruent/STIM_021.jpg	100
2106.072	0.904	903.7	congruent	Block2	congruent/STIM_021.jpg	100
2110.257	0.776	775.8	congruent	Block2	congruent/STIM_021.jpg	100
2114.905	0.827	827.4	congruent	Block2	congruent/STIM_021.jpg	99
2119.201	0.674	674.2	congruent	Block2	congruent/STIM_021.jpg	99
2123.277	0.933	932.6	congruent	Block2	congruent/STIM_022.jpg	100
2127.725	0.828	827.9	congruent	Block2	congruent/STIM_022.jpg	100
2131.157	0.621	621.4	congruent	Block2	congruent/STIM_022.jpg	100
2133.951	0.704	704.2	congruent	Block2	congruent/STIM_022.jpg	100
2137.284	0.892	891.5	congruent	Block2	congruent/STIM_022.jpg	99
2141.797	0.908	907.5	congruent	Block2	congruent/STIM_023.jpg	99
2144.733	0.58	579.6	congruent	Block2	congruent/STIM_023.jpg	100
2148.843	0.956	955.6	congruent	Block2	congruent/STIM_023.jpg	100
2152.209	0.765	765.3	congruent	Block2	congruent/STIM_023.jpg	99
2155.698	0.647	646.6	congruent	Block2	congruent/STIM_023.jpg	100
2159.559	0.962	961.7	congruent	Block2	congruent/STIM_024.jpg	99
2163.639	0.952	951.6	congruent	Block2	congruent/STIM_024.jpg	99
2166.651	0.771	770.8	congruent	Block2	congruent/STIM_024.jpg	100
2170.305	0.717	717.3	congruent	Block2	congruent/STIM_024.jpg	99
2172.971	0.822	821.8	congruent	Block2	congruent/STIM_024.jpg	99
2175.817	0.616	616.5	congruent	Block2	congruent/STIM_025.jpg	100
2178.448	0.894	894.1	congruent	Block2	congruent/STIM_025.jpg	100
2182.039	0.651	651.0	congruent	Block2	congruent/STIM_025.jpg	99
2186.225	0.868	867.9	congruent	Block2	congruent/STIM_025.jpg	99
2189.085	0.954	953.7	congruent	Block2	congruent/STIM_025.jpg	100
2191.958	0.696	696.2	congruent	Block2	congruent/STIM_026.jpg	100
2194.874	0.653	653.0	congruent	Block2	congruent/STIM_026.jpg	99
2199.423	0.814	814.5	congruent	Block2	congruent/STIM_026.jpg	100
2202.447	0.816	816.0	congruent	Block2	congruent/STIM_026.jpg	100
2206.865	0.89	889.5	congruent	Block2	congruent/STIM_026.jpg	100
2210.832	0.583	583.0	congruent	Block2	congruent/STIM_027.jpg	99
2213.885	0.711	711.0	congruent	Block2	congruent/STIM_027.jpg	99
2216.689	0.684	683.9	congruent	Block2	congruent/STIM_027.jpg	99
2219.297	0.72	720.3	congruent	Block2	congruent/STIM_027.jpg	100
2223.889	0.81	809.8	congruent	Block2	congruent/STIM_027.jpg	99
2227.478	1.009	1008.7	congruent	Block2	congruent/STIM_028.jpg	100
2230.646	1.028	1027.9	congruent	Block2	congruent/STIM_028.jpg	99
2234.254	0.932	932.0	congruent	Block2	congruent/STIM_028.jpg	100
2238.939	0.719	719.2	congruent	Block2	congruent/STIM_028.jpg	100
2243.436	0.675	675.3	congruent	Block2	congruent/STIM_028.jpg	99
2247.025	0.952	951.9	congruent	Block2	congruent/STIM_029.jpg	100
2251.734	0.934	934.0	congruent	Block2	congruent/STIM_029.jpg	100
2255.941	0.673	673.2	congruent	Block2	congruent/STIM_029.jpg	100
2260.002	0.596	596.3	congruent	Block2	congruent/STIM_029.jpg	99
2263.457	0.652	652.0	congruent	Block2	congruent/STIM_029.jpg	100
2267.304	0.927	927.1	incongruent	Block3	incongruent/STIM_000.jpg	99
2271.042	0.641	641.0	incongruent	Block3	incongruent/STIM_000.jpg	100
2274.518	0.691	691.1	incongruent	Block3	incongruent/STIM_000.jpg	100
2278.453	1.158	1158.4	incongruent	Block3	incongruent/STIM_000.jpg	99
2282.812	1.145	1145.3	incongruent	Block3	incongruent/STIM_000.jpg	99
2286.005	0.606	605.5	incongruent	Block3	incongruent/STIM_001.jpg	100
2289.454	1.192	1192.5	incongruent	Block3	incongruent/STIM_001.jpg	100
2293.318	0.842	841.7	incongruent	Block3	incongruent/STIM_001.jpg	100
2297.049	1.099	1099.0	incongruent	Block3	incongruent/STIM_001.jpg	99
2301.721	0.65	649.9	incongruent	Block3	incongruent/STIM_001.jpg	100
2305.029	0.792	792.5	incongruent	Block3	incongruent/STIM_002.jpg	100
2308.483	0.923	922.8	incongruent	Block3	incongruent/STIM_002.jpg	99
2311.526	1.084	1083.9	incongruent	Block3	incongruent/STIM_002.jpg	100
2316.37	0.685	685.3	incongruent	Block3	incongruent/STIM_002.jpg	100
2318.999	0.992	992.3	incongruent	Block3	incongruent/STIM_002.jpg	99
2322.821	1.024	1023.9	incongruent	Block3	incongruent/STIM_003.jpg	99
2326.526	1.059	1058.9	incongruent	Block3	incongruent/STIM_003.jpg	99
2329.637	1.042	1042.1	incongruent	Block3	incongruent/STIM_003.jpg	99
2334.236	0.756	756.0	incongruent	Block3	incongruent/STIM_003.jpg	99
2337.182	0.727	726.7	incongruent	Block3	incongruent/STIM_003.jpg	100
2340.823	1.053	1053.4	incongruent	Block3	incongruent/STIM_004.jpg	100
2345.651	0.673	672.7	incongruent	Block3	incongruent/STIM_004.jpg	100
2348.952	1.133	1132.9	incongruent	Block3	incongruent/STIM_004.jpg	100
2353.077	0.804	804.5	incongruent	Block3	incongruent/STIM_004.jpg	99
2357.614	0.721	721.1	incongruent	Block3	incongruent/STIM_004.jpg	99
2361.052	0.897	897.0	incongruent	Block3	incongruent/STIM_005.jpg	99
2365.812	0.845	844.9	incongruent	Block3	incongruent/STIM_005.jpg	100
2369.942	0.952	951.9	incongruent	Block3	incongruent/STIM_005.jpg	100
2374.555	1.04	1040.2	incongruent	Block3	incongruent/STIM_005.jpg	99
2378.834	1.02	1020.2	incongruent	Block3	incongruent/STIM_005.jpg	99
2383.093	0.831	831.2	incongruent	Block3	incongruent/STIM_006.jpg	100
2387.151	0.918	917.8	incongruent	Block3	incongruent/STIM_006.jpg	99
2391.913	0.873	873.1	incongruent	Block3	incongruent/STIM_006.jpg	99
2396.288	0.977	977.4	incongruent	Block3	incongruent/STIM_006.jpg	100
2399.826	0.659	659.4	incongruent	Block3	incongruent/STIM_006.jpg	99
2403.014	1.167	1166.8	incongruent	Block3	incongruent/STIM_007.jpg	99
2407.705	0.97	969.5	incongruent	Block3	incongruent/STIM_007.jpg	100
2412.275	0.881	881.1	incongruent	Block3	incongruent/STIM_007.jpg	100
2416.659	0.694	693.8	incongruent	Block3	incongruent/STIM_007.jpg	99
2420.454	1.066	1065.9	incongruent	Block3	incongruent/STIM_007.jpg	99
2423.572	0.68	679.7	incongruent	Block3	incongruent/STIM_008.jpg	100
2427.074	1.101	1100.7	incongruent	Block3	incongruent/STIM_008.jpg	100
2430.478	0.804	804.2	incongruent	Block3	incongruent/STIM_008.jpg	100
2433.19	0.708	707.7	incongruent	Block3	incongruent/STIM_008.jpg	100
2437.532	0.938	938.4	incongruent	Block3	incongruent/STIM_008.jpg	99
2440.58	0.718	718.1	incongruent	Block3	incongruent/STIM_009.jpg	100
2443.298	0.583	583.1	incongruent	Block3	incongruent/STIM_009.jpg	100
2446.381	0.751	750.7	incongruent	Block3	incongruent/STIM_009.jpg	100
2451.036	0.713	713.2	incongruent	Block3	incongruent/STIM_009.jpg	100
2455.159	0.822	821.6	incongruent	Block3	incongruent/STIM_009.jpg	100
2458.401	1.19	1190.5	incongruent	Block3	incongruent/STIM_010.jpg	99
2461.548	1.11	1109.7	incongruent	Block3	incongruent/STIM_010.jpg	99
2466.123	0.993	993.3	incongruent	Block3	incongruent/STIM_010.jpg	99
2470.823	0.97	970.1	incongruent	Block3	incongruent/STIM_010.jpg	99
2474.767	1.105	1105.0	incongruent	Block3	incongruent/STIM_010.jpg	100
2478.885	1.019	1018.7	incongruent	Block3	incongruent/STIM_011.jpg	99
2481.86	0.81	809.6	incongruent	Block3	incongruent/STIM_011.jpg	99
2484.905	0.615	615.1	incongruent	Block3	incongruent/STIM_011.jpg	100
2488.131	1.064	1064.2	incongruent	Block3	incongruent/STIM_011.jpg	99
2491.121	0.872	872.4	incongruent	Block3	incongruent/STIM_011.jpg	99
2494.431	0.905	904.6	incongruent	Block3	incongruent/STIM_012.jpg	100
2497.829	0.6	600.4	incongruent	Block3	incongruent/STIM_012.jpg	100
2502.015	0.804	803.5	incongruent	Block3	incongruent/STIM_012.jpg	99
2506.04	0.761	761.3	incongruent	Block3	incongruent/STIM_012.jpg	99
2510.525	0.711	711.3	incongruent	Block3	incongruent/STIM_012.jpg	100
2514.453	0.635	634.8	incongruent	Block3	incongruent/STIM_013.jpg	100
2518.543	0.646	645.7	incongruent	Block3	incongruent/STIM_013.jpg	99
2522.62	0.962	961.6	incongruent	Block3	incongruent/STIM_013.jpg	99
2526.042	0.605	604.6	incongruent	Block3	incongruent/STIM_013.jpg	99
2529.734	1.022	1021.6	incongruent	Block3	incongruent/STIM_013.jpg	99
2533.686	0.891	890.7	incongruent	Block3	incongruent/STIM_014.jpg	99
2537.084	0.983	982.8	incongruent	Block3	incongruent/STIM_014.jpg	99
2539.986	1.179	1179.1	incongruent	Block3	incongruent/STIM_014.jpg	100
2544.99	0.879	879.1	incongruent	Block3	incongruent/STIM_014.jpg	100
2548.443	0.862	862.5	incongruent	Block3	incongruent/STIM_014.jpg	99
2551.434	0.948	947.9	incongruent	Block3	incongruent/STIM_015.jpg	100
2554.392	1.131	1130.9	incongruent	Block3	incongruent/STIM_015.jpg	100
2557.649	0.882	882.1	incongruent	Block3	incongruent/STIM_015.jpg	100
2562.165	1.13	1130.4	incongruent	Block3	incongruent/STIM_015.jpg	99
2566.057	1.017	1016.7	incongruent	Block3	incongruent/STIM_015.jpg	99
2570.114	0.808	808.2	incongruent	Block3	incongruent/STIM_016.jpg	100
2574.209	0.847	847.3	incongruent	Block3	incongruent/STIM_016.jpg	100
2578.314	1.163	1162.8	incongruent	Block3	incongruent/STIM_016.jpg	100
2582.598	0.681	681.2	incongruent	Block3	incongruent/STIM_016.jpg	99
2585.57	0.786	786.3	incongruent	Block3	incongruent/STIM_016.jpg	99
2589.351	0.594	593.9	incongruent	Block3	incongruent/STIM_017.jpg	100
2592.583	1.041	1041.0	incongruent	Block3	incongruent/STIM_017.jpg	99
2596.748	0.94	939.5	incongruent	Block3	incongruent/STIM_017.jpg	100
2599.884	1.113	1113.4	incongruent	Block3	incongruent/STIM_017.jpg	100
2604.303	0.877	876.6	incongruent	Block3	incongruent/STIM_017.jpg	100
2607.586	1.034	1033.5	incongruent	Block3	incongruent/STIM_018.jpg	100
2611.621	0.564	564.0	incongruent	Block3	incongruent/STIM_018.jpg	100
2614.836	0.697	697.1	incongruent	Block3	incongruent/STIM_018.jpg	99
2618.579	0.962	961.9	incongruent	Block3	incongruent/STIM_018.jpg	99
2622.478	0.618	618.5	incongruent	Block3	incongruent/STIM_018.jpg	99
2626.881	0.752	752.2	incongruent	Block3	incongruent/STIM_019.jpg	100
2630.948	0.768	767.7	incongruent	Block3	incongruent/STIM_019.jpg	99
2634.367	1.085	1085.4	incongruent	Block3	incongruent/STIM_019.jpg	100
2638.092	0.82	819.6	incongruent	Block3	incongruent/STIM_019.jpg	100
2641.554	0.903	902.7	incongruent	Block3	incongruent/STIM_019.jpg	100
2644.397	0.638	637.7	incongruent	Block3	incongruent/STIM_020.jpg	100
2648.4	1.181	1181.3	incongruent	Block3	incongruent/STIM_020.jpg	99
2651.596	1.069	1069.2	incongruent	Block3	incongruent/STIM_020.jpg	99
2655.704	1.141	1140.8	incongruent	Block3	incongruent/STIM_020.jpg	100
2659.736	0.776	775.9	incongruent	Block3	incongruent/STIM_020.jpg	100
2663.402	1.152	1152.1	incongruent	Block3	incongruent/STIM_021.jpg	100
2666.523	0.899	898.6	incongruent	Block3	incongruent/STIM_021.jpg	100
2670.204	0.678	678.3	incongruent	Block3	incongruent/STIM_021.jpg	100
2673.689	1.165	1165.3	incongruent	Block3	incongruent/STIM_021.jpg	100
2676.782	0.663	662.9	incongruent	Block3	incongruent/STIM_021.jpg	99
2680.521	0.672	671.9	incongruent	Block3	incongruent/STIM_022.jpg	99
2684.596	0.696	695.7	incongruent	Block3	incongruent/STIM_022.jpg	100
2688.974	0.574	573.5	incongruent	Block3	incongruent/STIM_022.jpg	100
2692.654	1.054	1054.0	incongruent	Block3	incongruent/STIM_022.jpg	100
2695.908	0.631	631.4	incongruent	Block3	incongruent/STIM_022.jpg	100
2698.597	0.689	689.0	incongruent	Block3	incongruent/STIM_023.jpg	99
2701.771	0.858	857.6	incongruent	Block3	incongruent/STIM_023.jpg	100
2704.894	0.914	914.3	incongruent	Block3	incongruent/STIM_023.jpg	100
2708.092	1.12	1120.3	incongruent	Block3	incongruent/STIM_023.jpg	99
2712.879	0.848	848.5	incongruent	Block3	incongruent/STIM_023.jpg	100
2717.283	0.658	657.7	incongruent	Block3	incongruent/STIM_024.jpg	99
2720.61	0.938	937.5	incongruent	Block3	incongruent/STIM_024.jpg	99
2724.306	1.004	1004.4	incongruent	Block3	incongruent/STIM_024.jpg	99
2727.543	0.893	893.3	incongruent	Block3	incongruent/STIM_024.jpg	100
2730.673	1.117	1117.2	incongruent	Block3	incongruent/STIM_024.jpg	100
2735.616	0.763	762.6	incongruent	Block3	incongruent/STIM_025.jpg	100
2739.587	1.138	1138.3	incongruent	Block3	incongruent/STIM_025.jpg	100
2744.384	0.61	610.0	incongruent	Block3	incongruent/STIM_025.jpg	99
2748.07	1.192	1192.3	incongruent	Block3	incongruent/STIM_025.jpg	100
2753.032	0.78	779.6	incongruent	Block3	incongruent/STIM_025.jpg	99
2757.493	0.83	829.6	incongruent	Block3	incongruent/STIM_026.jpg	99
2761.846	0.677	677.3	incongruent	Block3	incongruent/STIM_026.jpg	100
2766.384	0.726	726.1	incongruent	Block3	incongruent/STIM_026.jpg	99
2770.673	1.13	1130.1	incongruent	Block3	incongruent/STIM_026.jpg	99
2775.248	1.06	1060.4	incongruent	Block3	incongruent/STIM_026.jpg	100
2779.623	1.198	1198.5	incongruent	Block3	incongruent/STIM_027.jpg	100
2784.616	0.789	789.1	incongruent	Block3	incongruent/STIM_027.jpg	100
2789.274	0.743	743.4	incongruent	Block3	incongruent/STIM_027.jpg	100
2792.812	1.175	1174.7	incongruent	Block3	incongruent/STIM_027.jpg	99
2797.642	1.06	1059.7	incongruent	Block3	incongruent/STIM_027.jpg	99
2802.562	0.796	795.5	incongruent	Block3	incongruent/STIM_028.jpg	100
2806.752	0.683	683.0	incongruent	Block3	incongruent/STIM_028.jpg	99
2810.922	0.67	669.8	incongruent	Block3	incongruent/STIM_028.jpg	99
2814.815	1.159	1159.1	incongruent	Block3	incongruent/STIM_028.jpg	100
2819.155	0.953	952.7	incongruent	Block3	incongruent/STIM_028.jpg	99
2822.625	0.973	973.0	incongruent	Block3	incongruent/STIM_029.jpg	100
2826.544	0.843	843.0	incongruent	Block3	incongruent/STIM_029.jpg	99
2829.38	1.034	1034.3	incongruent	Block3	incongruent/STIM_029.jpg	99
2834.042	1.189	1189.3	incongruent	Block3	incongruent/STIM_029.jpg	99
2838.502	0.896	895.5	incongruent	Block3	incongruent/STIM_029.jpg	99
2841.854	0.928	928.2	congruent	Block3	congruent/STIM_000.jpg	100
2846.594	0.963	963.3	congruent	Block3	congruent/STIM_000.jpg	99
2851.294	0.889	888.6	congruent	Block3	congruent/STIM_000.jpg	100
2854.329	0.681	681.1	congruent	Block3	congruent/STIM_000.jpg	100
2858.534	0.643	643.2	congruent	Block3	congruent/STIM_000.jpg	99
2861.322	0.727	727.1	congruent	Block3	congruent/STIM_001.jpg	100
2864.968	0.882	882.0	congruent	Block3	congruent/STIM_001.jpg	100
2868.724	0.958	957.6	congruent	Block3	congruent/STIM_001.jpg	100
2873.257	0.601	600.6	congruent	Block3	congruent/STIM_001.jpg	99
2877.723	0.576	575.6	congruent	Block3	congruent/STIM_001.jpg	99
2881.776	0.643	643.2	congruent	Block3	congruent/STIM_002.jpg	100
2884.75	0.936	936.1	congruent	Block3	congruent/STIM_002.jpg	99
2887.83	0.665	664.6	congruent	Block3	congruent/STIM_002.jpg	100
2890.831	0.701	700.6	congruent	Block3	congruent/STIM_002.jpg	99
2894.739	0.956	955.7	congruent	Block3	congruent/STIM_002.jpg	100
2899.198	0.704	703.7	congruent	Block3	congruent/STIM_003.jpg	100
2903.687	1.011	1010.6	congruent	Block3	congruent/STIM_003.jpg	99
2908.174	0.984	984.5	congruent	Block3	congruent/STIM_003.jpg	100
2912.008	0.899	898.8	congruent	Block3	congruent/STIM_003.jpg	100
2916.779	0.71	710.0	congruent	Block3	congruent/STIM_003.jpg	100
2920.802	0.62	619.5	congruent	Block3	congruent/STIM_004.jpg	100
2924.673	0.958	957.8	congruent	Block3	congruent/STIM_004.jpg	99
2928.475	0.658	657.9	congruent	Block3	congruent/STIM_004.jpg	100
2931.4	0.784	783.9	congruent	Block3	congruent/STIM_004.jpg	99
2934.297	0.991	990.9	congruent	Block3	congruent/STIM_004.jpg	100
2937.333	0.703	702.6	congruent	Block3	congruent/STIM_005.jpg	99
2941.812	0.816	816.5	congruent	Block3	congruent/STIM_005.jpg	99
2946.428	0.887	886.8	congruent	Block3	congruent/STIM_005.jpg	99
2950.162	0.597	597.0	congruent	Block3	congruent/STIM_005.jpg	99
2954.042	0.706	706.0	congruent	Block3	congruent/STIM_005.jpg	99
2957.389	0.581	581.0	congruent	Block3	congruent/STIM_006.jpg	100
2960.106	0.68	679.9	congruent	Block3	congruent/STIM_006.jpg	99
2963.279	0.795	795.0	congruent	Block3	congruent/STIM_006.jpg	100
2966.684	0.827	827.3	congruent	Block3	congruent/STIM_006.jpg	100
2971.166	0.992	992.4	congruent	Block3	congruent/STIM_006.jpg	99
2975.251	0.925	925.1	congruent	Block3	congruent/STIM_007.jpg	100
2980.036	0.646	646.5	congruent	Block3	congruent/STIM_007.jpg	99
2982.663	0.924	923.9	congruent	Block3	congruent/STIM_007.jpg	99
2985.646	0.688	687.5	congruent	Block3	congruent/STIM_007.jpg	99
2989.329	0.653	652.7	congruent	Block3	congruent/STIM_007.jpg	99
2992.106	0.598	598.4	congruent	Block3	congruent/STIM_008.jpg	100
2996.502	0.76	760.1	congruent	Block3	congruent/STIM_008.jpg	99
3000.477	1.004	1003.8	congruent	Block3	congruent/STIM_008.jpg	100
3003.747	0.888	887.6	congruent	Block3	congruent/STIM_008.jpg	99
3007.438	0.785	785.3	congruent	Block3	congruent/STIM_008.jpg	100
3010.55	0.574	574.5	congruent	Block3	congruent/STIM_009.jpg	100
3014.994	1.025	1025.1	congruent	Block3	congruent/STIM_009.jpg	99
3019.403	0.754	754.2	congruent	Block3	congruent/STIM_009.jpg	99
3023.318	0.841	841.4	congruent	Block3	congruent/STIM_009.jpg	100
3027.336	0.746	745.9	congruent	Block3	congruent/STIM_009.jpg	100
3030.501	0.622	622.4	congruent	Block3	congruent/STIM_010.jpg	100
3033.867	0.843	843.3	congruent	Block3	congruent/STIM_010.jpg	99
3038.509	0.868	867.8	congruent	Block3	congruent/STIM_010.jpg	100
3042.832	0.851	851.2	congruent	Block3	congruent/STIM_010.jpg	99
3046.875	0.927	927.1	congruent	Block3	congruent/STIM_010.jpg	100
3049.97	0.934	933.8	congruent	Block3	congruent/STIM_011.jpg	99
3053.302	0.648	647.9	congruent	Block3	congruent/STIM_011.jpg	99
3057.119	0.848	847.5	congruent	Block3	congruent/STIM_011.jpg	99
3060.806	0.973	973.3	congruent	Block3	congruent/STIM_011.jpg	100
3063.752	0.94	939.7	congruent	Block3	congruent/STIM_011.jpg	100
3067.574	0.774	773.5	congruent	Block3	congruent/STIM_012.jpg	100
3070.462	0.645	645.4	congruent	Block3	congruent/STIM_012.jpg	99
3073.49	0.707	707.1	congruent	Block3	congruent/STIM_012.jpg	100
3077.552	1.03	1029.5	congruent	Block3	congruent/STIM_012.jpg	100
3081.179	0.605	605.4	congruent	Block3	congruent/STIM_012.jpg	100
3085.578	0.901	901.3	congruent	Block3	congruent/STIM_013.jpg	100
3089.311	0.825	825.0	congruent	Block3	congruent/STIM_013.jpg	100
3092.741	0.966	966.3	congruent	Block3	congruent/STIM_013.jpg	100
3095.713	0.727	727.3	congruent	Block3	congruent/STIM_013.jpg	99
3098.567	0.836	835.5	congruent	Block3	congruent/STIM_013.jpg	100
3102.343	0.986	986.2	congruent	Block3	congruent/STIM_014.jpg	100
3106.311	0.865	864.7	congruent	Block3	congruent/STIM_014.jpg	100
3110.601	0.787	786.7	congruent	Block3	congruent/STIM_014.jpg	100
3114.008	0.652	652.2	congruent	Block3	congruent/STIM_014.jpg	100
3118.57	0.751	751.1	congruent	Block3	congruent/STIM_014.jpg	99
3123.081	0.743	743.2	congruent	Block3	congruent/STIM_015.jpg	99
3126.871	0.805	804.6	congruent	Block3	congruent/STIM_015.jpg	99
3130.357	0.621	621.4	congruent	Block3	congruent/STIM_015.jpg	99
3132.999	0.81	809.6	congruent	Block3	congruent/STIM_015.jpg	100
3135.878	0.684	684.0	congruent	Block3	congruent/STIM_015.jpg	100
3139.038	0.828	828.0	congruent	Block3	congruent/STIM_016.jpg	99
3143.341	0.842	841.9	congruent	Block3	congruent/STIM_016.jpg	100
3147.416	0.735	735.1	congruent	Block3	congruent/STIM_016.jpg	99
3150.954	0.838	837.7	congruent	Block3	congruent/STIM_016.jpg	100
3153.972	0.842	842.5	congruent	Block3	congruent/STIM_016.jpg	99
3157.275	0.765	765.4	congruent	Block3	congruent/STIM_017.jpg	100
3161.331	0.877	876.8	congruent	Block3	congruent/STIM_017.jpg	100
3164.204	0.846	845.5	congruent	Block3	congruent/STIM_017.jpg	99
3167.325	0.607	607.0	congruent	Block3	congruent/STIM_017.jpg	100
3171.146	0.675	675.2	congruent	Block3	congruent/STIM_017.jpg	100
3173.968	0.816	816.3	congruent	Block3	congruent/STIM_018.jpg	99
3177.324	1.002	1002.1	congruent	Block3	congruent/STIM_018.jpg	99
3181.847	0.841	840.8	congruent	Block3	congruent/STIM_018.jpg	100
3185.225	0.82	820.3	congruent	Block3	congruent/STIM_018.jpg	100
3189.731	0.847	846.9	congruent	Block3	congruent/STIM_018.jpg	99
3193.443	0.948	948.1	congruent	Block3	congruent/STIM_019.jpg	100
3196.486	0.587	586.7	congruent	Block3	congruent/STIM_019.jpg	100
3199.807	0.887	886.6	congruent	Block3	congruent/STIM_019.jpg	100
3203.769	0.597	597.2	congruent	Block3	congruent/STIM_019.jpg	100
3207.838	0.799	798.9	congruent	Block3	congruent/STIM_019.jpg	99
3212.239	0.994	994.5	congruent	Block3	congruent/STIM_020.jpg	100
3215.188	0.874	873.9	congruent	Block3	congruent/STIM_020.jpg	100
3219.504	0.819	819.4	congruent	Block3	congruent/STIM_020.jpg	99
3223.487	0.806	806.5	congruent	Block3	congruent/STIM_020.jpg	100
3227.596	0.766	766.0	congruent	Block3	congruent/STIM_020.jpg	100
3230.534	0.608	608.2	congruent	Block3	congruent/STIM_021.jpg	100
3233.405	0.739	739.3	congruent	Block3	congruent/STIM_021.jpg	100
3237.872	0.732	732.1	congruent	Block3	congruent/STIM_021.jpg	99
3241.808	0.646	646.2	congruent	Block3	congruent/STIM_021.jpg	99
3245.252	0.667	667.0	congruent	Block3	congruent/STIM_021.jpg	100
3249.232	0.738	737.9	congruent	Block3	congruent/STIM_022.jpg	100
3253.346	0.598	597.8	congruent	Block3	congruent/STIM_022.jpg	100
3257.138	0.723	723.2	congruent	Block3	congruent/STIM_022.jpg	99
3261.391	0.8	800.5	congruent	Block3	congruent/STIM_022.jpg	100
3264.98	1.003	1002.8	congruent	Block3	congruent/STIM_022.jpg	100
3268.229	0.679	678.7	congruent	Block3	congruent/STIM_023.jpg	100
3271.841	0.659	658.7	congruent	Block3	congruent/STIM_023.jpg	100
3275.88	0.79	789.9	congruent	Block3	congruent/STIM_023.jpg	99
3278.706	1.01	1010.3	congruent	Block3	congruent/STIM_023.jpg	100
3282.642	0.921	920.7	congruent	Block3	congruent/STIM_023.jpg	99
3286.966	0.828	828.1	congruent	Block3	congruent/STIM_024.jpg	99
3290.659	0.966	966.0	congruent	Block3	congruent/STIM_024.jpg	99
3295.262	0.74	740.1	congruent	Block3	congruent/STIM_024.jpg	100
3297.911	0.741	740.9	congruent	Block3	congruent/STIM_024.jpg	99
3302.194	0.698	698.3	congruent	Block3	congruent/STIM_024.jpg	100
3306.159	0.621	621.1	congruent	Block3	congruent/STIM_025.jpg	100
3308.859	0.674	674.5	congruent	Block3	congruent/STIM_025.jpg	99
3311.518	0.757	756.6	congruent	Block3	congruent/STIM_025.jpg	99
3314.882	0.582	581.7	congruent	Block3	congruent/STIM_025.jpg	100
3317.77	1.006	1005.8	congruent	Block3	congruent/STIM_025.jpg	100
3320.676	0.604	603.8	congruent	Block3	congruent/STIM_026.jpg	100
3324.826	0.664	664.5	congruent	Block3	congruent/STIM_026.jpg	99
3328.692	0.63	629.6	congruent	Block3	congruent/STIM_026.jpg	100
3331.25	0.775	774.9	congruent	Block3	congruent/STIM_026.jpg	100
3334.971	0.763	763.4	congruent	Block3	congruent/STIM_026.jpg	100
3338.703	0.869	868.6	congruent	Block3	congruent/STIM_027.jpg	99
3342.002	0.971	971.2	congruent	Block3	congruent/STIM_027.jpg	100
3345.984	0.809	808.8	congruent	Block3	congruent/STIM_027.jpg	99
3349.065	0.842	842.2	congruent	Block3	congruent/STIM_027.jpg	99
3352.056	0.977	977.0	congruent	Block3	congruent/STIM_027.jpg	99
3356.75	0.781	781.1	congruent	Block3	congruent/STIM_028.jpg	100
3361.204	1.015	1015.4	congruent	Block3	congruent/STIM_028.jpg	100
3365.964	0.74	740.4	congruent	Block3	congruent/STIM_028.jpg	99
3369.231	0.998	998.5	congruent	Block3	congruent/STIM_028.jpg	99
3372.894	1.024	1023.9	congruent	Block3	congruent/STIM_028.jpg	99
3376.516	0.62	619.7	congruent	Block3	congruent/STIM_029.jpg	100
3380.935	0.718	718.0	congruent	Block3	congruent/STIM_029.jpg	99
3384.096	0.907	906.6	congruent	Block3	congruent/STIM_029.jpg	99
3387.437	0.762	762.0	congruent	Block3	congruent/STIM_029.jpg	99
3391.175	0.725	725.3	congruent	Block3	congruent/STIM_029.jpg	99
