onset	duration	accuracy_binary	trial_type	learning_stage	stimulus
0.0	1.26	1	incongruent	Block1	incongruent/STIM_000.jpg
4.174	1.221	0	incongruent	Block1	incongruent/STIM_000.jpg
9.235	1.147	1	incongruent	Block1	incongruent/STIM_000.jpg
12.995	1.301	1	incongruent	Block1	incongruent/STIM_000.jpg
17.022	1.007	0	incongruent	Block1	incongruent/STIM_000.jpg
20.808	1.089	0	incongruent	Block1	incongruent/STIM_001.jpg
25.497	1.432	1	incongruent	Block1	incongruent/STIM_001.jpg
30.718	0.705	0	incongruent	Block1	incongruent/STIM_001.jpg
33.915	1.132	0	incongruent	Block1	incongruent/STIM_001.jpg
38.019	1.21	1	incongruent	Block1	incongruent/STIM_001.jpg
41.667	1.259	0	incongruent	Block1	incongruent/STIM_002.jpg
45.239	1.273	1	incongruent	Block1	incongruent/STIM_002.jpg
50.121	0.799	1	incongruent	Block1	incongruent/STIM_002.jpg
54.039	1.1	1	incongruent	Block1	incongruent/STIM_002.jpg
58.338	0.647	1	incongruent	Block1	incongruent/STIM_002.jpg
61.722	0.933	1	incongruent	Block1	incongruent/STIM_003.jpg
65.75	0.702	1	incongruent	Block1	incongruent/STIM_003.jpg
69.215	0.975	1	incongruent	Block1	incongruent/STIM_003.jpg
73.495	1.236	1	incongruent	Block1	incongruent/STIM_003.jpg
78.014	0.93	1	incongruent	Block1	incongruent/STIM_003.jpg
81.57	0.885	1	incongruent	Block1	incongruent/STIM_004.jpg
84.928	1.099	1	incongruent	Block1	incongruent/STIM_004.jpg
89.514	0.836	1	incongruent	Block1	incongruent/STIM_004.jpg
94.044	0.834	1	incongruent	Block1	incongruent/STIM_004.jpg
98.025	0.656	0	incongruent	Block1	incongruent/STIM_004.jpg
100.873	1.011	1	incongruent	Block1	incongruent/STIM_005.jpg
105.039	1.147	0	incongruent	Block1	incongruent/STIM_005.jpg
109.075	0.98	0	incongruent	Block1	incongruent/STIM_005.jpg
112.078	0.737	1	incongruent	Block1	incongruent/STIM_005.jpg
116.157	0.708	1	incongruent	Block1	incongruent/STIM_005.jpg
119.773	1.151	1	incongruent	Block1	incongruent/STIM_006.jpg
124.204	0.945	0	incongruent	Block1	incongruent/STIM_006.jpg
127.683	0.864	1	incongruent	Block1	incongruent/STIM_006.jpg
130.665	0.711	1	incongruent	Block1	incongruent/STIM_006.jpg
134.35	0.814	1	incongruent	Block1	incongruent/STIM_006.jpg
138.269	0.836	0	incongruent	Block1	incongruent/STIM_007.jpg
141.199	1.1	1	incongruent	Block1	incongruent/STIM_007.jpg
146.193	0.972	0	incongruent	Block1	incongruent/STIM_007.jpg
150.4	1.182	1	incongruent	Block1	incongruent/STIM_007.jpg
155.14	0.762	1	incongruent	Block1	incongruent/STIM_007.jpg
157.97	0.75	1	incongruent	Block1	incongruent/STIM_008.jpg
161.908	1.119	1	incongruent	Block1	incongruent/STIM_008.jpg
166.13	1.294	1	incongruent	Block1	incongruent/STIM_008.jpg
171.055	0.996	1	incongruent	Block1	incongruent/STIM_008.jpg
175.897	0.751	1	incongruent	Block1	incongruent/STIM_008.jpg
180.629	1.555	1	incongruent	Block1	incongruent/STIM_009.jpg
185.371	1.108	0	incongruent	Block1	incongruent/STIM_009.jpg
189.273	0.805	1	incongruent	Block1	incongruent/STIM_009.jpg
194.049	1.083	1	incongruent	Block1	incongruent/STIM_009.jpg
198.588	0.909	1	incongruent	Block1	incongruent/STIM_009.jpg
202.731	1.2	1	incongruent	Block1	incongruent/STIM_010.jpg
206.142	1.344	1	incongruent	Block1	incongruent/STIM_010.jpg
210.135	1.342	0	incongruent	Block1	incongruent/STIM_010.jpg
214.131	1.227	1	incongruent	Block1	incongruent/STIM_010.jpg
218.023	0.722	1	incongruent	Block1	incongruent/STIM_010.jpg
221.574	0.851	1	incongruent	Block1	incongruent/STIM_011.jpg
226.368	1.372	1	incongruent	Block1	incongruent/STIM_011.jpg
229.891	1.276	1	incongruent	Block1	incongruent/STIM_011.jpg
233.86	0.804	1	incongruent	Block1	incongruent/STIM_011.jpg
238.165	0.874	1	incongruent	Block1	incongruent/STIM_011.jpg
242.981	1.021	1	incongruent	Block1	incongruent/STIM_012.jpg
246.188	0.912	1	incongruent	Block1	incongruent/STIM_012.jpg
249.621	0.843	1	incongruent	Block1	incongruent/STIM_012.jpg
252.687	1.184	1	incongruent	Block1	incongruent/STIM_012.jpg
256.242	0.902	1	incongruent	Block1	incongruent/STIM_012.jpg
259.711	1.098	0	incongruent	Block1	incongruent/STIM_013.jpg
263.557	1.175	1	incongruent	Block1	incongruent/STIM_013.jpg
267.3	1.089	1	incongruent	Block1	incongruent/STIM_013.jpg
272.004	0.737	1	incongruent	Block1	incongruent/STIM_013.jpg
276.592	1.148	1	incongruent	Block1	incongruent/STIM_013.jpg
281.312	1.561	1	incongruent	Block1	incongruent/STIM_014.jpg
285.866	1.192	1	incongruent	Block1	incongruent/STIM_014.jpg
290.656	0.951	1	incongruent	Block1	incongruent/STIM_014.jpg
294.742	0.857	0	incongruent	Block1	incongruent/STIM_014.jpg
298.927	0.796	1	incongruent	Block1	incongruent/STIM_014.jpg
303.086	0.89	0	incongruent	Block1	incongruent/STIM_015.jpg
307.685	1.0	1	incongruent	Block1	incongruent/STIM_015.jpg
311.096	0.781	1	incongruent	Block1	incongruent/STIM_015.jpg
315.056	0.82	1	incongruent	Block1	incongruent/STIM_015.jpg
318.2	1.05	1	incongruent	Block1	incongruent/STIM_015.jpg
321.6	1.537	1	incongruent	Block1	incongruent/STIM_016.jpg
325.54	1.39	1	incongruent	Block1	incongruent/STIM_016.jpg
330.41	0.769	1	incongruent	Block1	incongruent/STIM_016.jpg
334.803	1.015	0	incongruent	Block1	incongruent/STIM_016.jpg
338.145	0.616	1	incongruent	Block1	incongruent/STIM_016.jpg
342.621	1.14	1	incongruent	Block1	incongruent/STIM_017.jpg
346.504	1.164	1	incongruent	Block1	incongruent/STIM_017.jpg
350.953	0.738	0	incongruent	Block1	incongruent/STIM_017.jpg
354.192	1.027	1	incongruent	Block1	incongruent/STIM_017.jpg
357.927	0.751	1	incongruent	Block1	incongruent/STIM_017.jpg
362.363	1.558	1	incongruent	Block1	incongruent/STIM_018.jpg
367.86	1.16	1	incongruent	Block1	incongruent/STIM_018.jpg
371.546	0.902	1	incongruent	Block1	incongruent/STIM_018.jpg
375.343	1.093	0	incongruent	Block1	incongruent/STIM_018.jpg
379.3	1.02	0	incongruent	Block1	incongruent/STIM_018.jpg
382.786	0.842	1	incongruent	Block1	incongruent/STIM_019.jpg
386.338	1.473	0	incongruent	Block1	incongruent/STIM_019.jpg
391.808	1.167	1	incongruent	Block1	incongruent/STIM_019.jpg
396.17	0.786	1	incongruent	Block1	incongruent/STIM_019.jpg
400.457	1.061	1	incongruent	Block1	incongruent/STIM_019.jpg
404.602	1.379	0	incongruent	Block1	incongruent/STIM_020.jpg
408.91	0.894	1	incongruent	Block1	incongruent/STIM_020.jpg
412.814	0.993	1	incongruent	Block1	incongruent/STIM_020.jpg
416.346	1.109	1	incongruent	Block1	incongruent/STIM_020.jpg
420.63	1.032	1	incongruent	Block1	incongruent/STIM_020.jpg
425.451	1.206	1	incongruent	Block1	incongruent/STIM_021.jpg
430.026	0.998	1	incongruent	Block1	incongruent/STIM_021.jpg
433.715	0.95	1	incongruent	Block1	incongruent/STIM_021.jpg
438.327	1.073	1	incongruent	Block1	incongruent/STIM_021.jpg
442.56	0.709	1	incongruent	Block1	incongruent/STIM_021.jpg
446.848	1.244	1	incongruent	Block1	incongruent/STIM_022.jpg
450.686	0.811	1	incongruent	Block1	incongruent/STIM_022.jpg
454.804	1.133	1	incongruent	Block1	incongruent/STIM_022.jpg
458.759	1.034	1	incongruent	Block1	incongruent/STIM_022.jpg
463.216	0.645	1	incongruent	Block1	incongruent/STIM_022.jpg
467.771	1.303	1	incongruent	Block1	incongruent/STIM_023.jpg
471.755	1.267	1	incongruent	Block1	incongruent/STIM_023.jpg
476.409	0.86	1	incongruent	Block1	incongruent/STIM_023.jpg
479.554	0.73	1	incongruent	Block1	incongruent/STIM_023.jpg
484.199	0.757	1	incongruent	Block1	incongruent/STIM_023.jpg
487.312	1.325	1	incongruent	Block1	incongruent/STIM_024.jpg
490.684	1.24	0	incongruent	Block1	incongruent/STIM_024.jpg
495.22	0.799	1	incongruent	Block1	incongruent/STIM_024.jpg
499.137	1.331	1	incongruent	Block1	incongruent/STIM_024.jpg
504.046	1.24	1	incongruent	Block1	incongruent/STIM_024.jpg
507.709	1.196	1	incongruent	Block1	incongruent/STIM_025.jpg
512.328	1.191	1	incongruent	Block1	incongruent/STIM_025.jpg
516.951	0.734	0	incongruent	Block1	incongruent/STIM_025.jpg
520.851	0.897	1	incongruent	Block1	incongruent/STIM_025.jpg
524.853	0.988	1	incongruent	Block1	incongruent/STIM_025.jpg
529.283	0.871	1	incongruent	Block1	incongruent/STIM_026.jpg
532.662	1.462	1	incongruent	Block1	incongruent/STIM_026.jpg
536.935	0.825	1	incongruent	Block1	incongruent/STIM_026.jpg
540.318	0.939	1	incongruent	Block1	incongruent/STIM_026.jpg
544.758	0.998	0	incongruent	Block1	incongruent/STIM_026.jpg
547.76	1.298	1	incongruent	Block1	incongruent/STIM_027.jpg
551.707	1.242	1	incongruent	Block1	incongruent/STIM_027.jpg
556.397	0.944	1	incongruent	Block1	incongruent/STIM_027.jpg
559.373	0.682	1	incongruent	Block1	incongruent/STIM_027.jpg
562.217	0.744	1	incongruent	Block1	incongruent/STIM_027.jpg
566.06	0.883	1	incongruent	Block1	incongruent/STIM_028.jpg
569.502	0.88	1	incongruent	Block1	incongruent/STIM_028.jpg
573.45	1.135	1	incongruent	Block1	incongruent/STIM_028.jpg
577.508	0.822	1	incongruent	Block1	incongruent/STIM_028.jpg
580.849	1.195	1	incongruent	Block1	incongruent/STIM_028.jpg
585.031	0.818	1	incongruent	Block1	incongruent/STIM_029.jpg
588.141	1.085	1	incongruent	Block1	incongruent/STIM_029.jpg
592.182	0.757	1	incongruent	Block1	incongruent/STIM_029.jpg
595.731	0.841	1	incongruent	Block1	incongruent/STIM_029.jpg
599.151	0.649	0	incongruent	Block1	incongruent/STIM_029.jpg
603.596	0.922	1	congruent	Block1	congruent/STIM_000.jpg
607.283	0.636	1	congruent	Block1	congruent/STIM_000.jpg
611.286	0.669	1	congruent	Block1	congruent/STIM_000.jpg
614.749	0.58	0	congruent	Block1	congruent/STIM_000.jpg
617.545	0.929	1	congruent	Block1	congruent/STIM_000.jpg
621.103	0.551	1	congruent	Block1	congruent/STIM_001.jpg
625.428	0.914	1	congruent	Block1	congruent/STIM_001.jpg
628.954	0.67	0	congruent	Block1	congruent/STIM_001.jpg
632.233	0.817	1	congruent	Block1	congruent/STIM_001.jpg
636.282	0.758	1	congruent	Block1	congruent/STIM_001.jpg
639.055	0.816	1	congruent	Block1	congruent/STIM_002.jpg
642.721	0.546	1	congruent	Block1	congruent/STIM_002.jpg
646.105	0.831	1	congruent	Block1	congruent/STIM_002.jpg
650.249	0.634	1	congruent	Block1	congruent/STIM_002.jpg
654.121	0.861	0	congruent	Block1	congruent/STIM_002.jpg
658.921	0.534	1	congruent	Block1	congruent/STIM_003.jpg
662.227	0.541	1	congruent	Block1	congruent/STIM_003.jpg
664.774	0.708	1	congruent	Block1	congruent/STIM_003.jpg
669.104	0.673	1	congruent	Block1	congruent/STIM_003.jpg
672.45	0.636	1	congruent	Block1	congruent/STIM_003.jpg
675.263	0.67	1	congruent	Block1	congruent/STIM_004.jpg
679.661	0.894	1	congruent	Block1	congruent/STIM_004.jpg
683.768	0.581	1	congruent	Block1	congruent/STIM_004.jpg
686.55	0.84	1	congruent	Block1	congruent/STIM_004.jpg
689.757	0.834	1	congruent	Block1	congruent/STIM_004.jpg
693.582	0.726	1	congruent	Block1	congruent/STIM_005.jpg
696.372	0.701	1	congruent	Block1	congruent/STIM_005.jpg
700.51	0.544	0	congruent	Block1	congruent/STIM_005.jpg
704.514	0.713	1	congruent	Block1	congruent/STIM_005.jpg
707.924	0.918	1	congruent	Block1	congruent/STIM_005.jpg
712.272	0.576	1	congruent	Block1	congruent/STIM_006.jpg
715.627	0.656	1	congruent	Block1	congruent/STIM_006.jpg
718.313	0.77	0	congruent	Block1	congruent/STIM_006.jpg
721.676	0.862	1	congruent	Block1	congruent/STIM_006.jpg
724.842	0.615	1	congruent	Block1	congruent/STIM_006.jpg
728.848	0.757	1	congruent	Block1	congruent/STIM_007.jpg
731.936	0.557	1	congruent	Block1	congruent/STIM_007.jpg
735.985	0.569	1	congruent	Block1	congruent/STIM_007.jpg
739.389	0.62	1	congruent	Block1	congruent/STIM_007.jpg
743.547	0.584	1	congruent	Block1	congruent/STIM_007.jpg
747.01	0.795	1	congruent	Block1	congruent/STIM_008.jpg
750.36	0.644	1	congruent	Block1	congruent/STIM_008.jpg
754.855	0.536	1	congruent	Block1	congruent/STIM_008.jpg
758.1	0.85	1	congruent	Block1	congruent/STIM_008.jpg
761.159	0.855	1	congruent	Block1	congruent/STIM_008.jpg
764.103	0.71	0	congruent	Block1	congruent/STIM_009.jpg
767.765	0.553	1	congruent	Block1	congruent/STIM_009.jpg
771.264	0.803	1	congruent	Block1	congruent/STIM_009.jpg
774.781	0.789	1	congruent	Block1	congruent/STIM_009.jpg
778.016	0.897	1	congruent	Block1	congruent/STIM_009.jpg
782.631	0.548	1	congruent	Block1	congruent/STIM_010.jpg
786.631	0.92	1	congruent	Block1	congruent/STIM_010.jpg
790.746	0.602	1	congruent	Block1	congruent/STIM_010.jpg
794.46	0.929	1	congruent	Block1	congruent/STIM_010.jpg
798.593	0.754	1	congruent	Block1	congruent/STIM_010.jpg
803.188	0.62	1	congruent	Block1	congruent/STIM_011.jpg
806.414	0.906	1	congruent	Block1	congruent/STIM_011.jpg
809.636	0.686	1	congruent	Block1	congruent/STIM_011.jpg
812.982	0.63	1	congruent	Block1	congruent/STIM_011.jpg
816.569	0.665	1	congruent	Block1	congruent/STIM_011.jpg
819.345	0.665	1	congruent	Block1	congruent/STIM_012.jpg
822.258	0.769	1	congruent	Block1	congruent/STIM_012.jpg
826.883	0.76	0	congruent	Block1	congruent/STIM_012.jpg
831.303	0.538	1	congruent	Block1	congruent/STIM_012.jpg
834.549	0.865	0	congruent	Block1	congruent/STIM_012.jpg
838.2	0.886	1	congruent	Block1	congruent/STIM_013.jpg
842.583	0.807	1	congruent	Block1	congruent/STIM_013.jpg
847.288	0.742	1	congruent	Block1	congruent/STIM_013.jpg
850.128	0.834	1	congruent	Block1	congruent/STIM_013.jpg
854.805	0.572	1	congruent	Block1	congruent/STIM_013.jpg
859.273	0.672	0	congruent	Block1	congruent/STIM_014.jpg
863.416	0.901	1	congruent	Block1	congruent/STIM_014.jpg
867.585	0.658	0	congruent	Block1	congruent/STIM_014.jpg
870.822	0.569	1	congruent	Block1	congruent/STIM_014.jpg
874.249	0.683	1	congruent	Block1	congruent/STIM_014.jpg
878.895	0.802	1	congruent	Block1	congruent/STIM_015.jpg
882.587	0.688	1	congruent	Block1	congruent/STIM_015.jpg
886.628	0.623	1	congruent	Block1	congruent/STIM_015.jpg
891.116	0.639	1	congruent	Block1	congruent/STIM_015.jpg
895.29	0.559	1	congruent	Block1	congruent/STIM_015.jpg
898.556	0.832	0	congruent	Block1	congruent/STIM_016.jpg
903.204	0.904	1	congruent	Block1	congruent/STIM_016.jpg
906.633	0.793	0	congruent	Block1	congruent/STIM_016.jpg
910.106	0.866	1	congruent	Block1	congruent/STIM_016.jpg
913.382	0.642	1	congruent	Block1	congruent/STIM_016.jpg
917.789	0.655	1	congruent	Block1	congruent/STIM_017.jpg
922.125	0.771	1	congruent	Block1	congruent/STIM_017.jpg
926.661	0.563	1	congruent	Block1	congruent/STIM_017.jpg
930.289	0.925	1	congruent	Block1	congruent/STIM_017.jpg
933.747	0.6	1	congruent	Block1	congruent/STIM_017.jpg
936.852	0.937	1	congruent	Block1	congruent/STIM_018.jpg
939.978	0.914	1	congruent	Block1	congruent/STIM_018.jpg
944.816	0.547	1	congruent	Block1	congruent/STIM_018.jpg
947.94	0.879	1	congruent	Block1	congruent/STIM_018.jpg
951.302	0.887	1	congruent	Block1	congruent/STIM_018.jpg
954.252	0.677	0	congruent	Block1	congruent/STIM_019.jpg
957.393	0.901	1	congruent	Block1	congruent/STIM_019.jpg
960.832	0.751	1	congruent	Block1	congruent/STIM_019.jpg
963.751	0.682	1	congruent	Block1	congruent/STIM_019.jpg
966.693	0.621	1	congruent	Block1	congruent/STIM_019.jpg
969.739	0.774	1	congruent	Block1	congruent/STIM_020.jpg
973.936	0.801	1	congruent	Block1	congruent/STIM_020.jpg
977.418	0.82	1	congruent	Block1	congruent/STIM_020.jpg
980.318	0.525	1	congruent	Block1	congruent/STIM_020.jpg
984.382	0.911	1	congruent	Block1	congruent/STIM_020.jpg
988.269	0.88	1	congruent	Block1	congruent/STIM_021.jpg
992.527	0.665	1	congruent	Block1	congruent/STIM_021.jpg
997.031	0.763	1	congruent	Block1	congruent/STIM_021.jpg
1001.664	0.927	1	congruent	Block1	congruent/STIM_021.jpg
1005.213	0.755	1	congruent	Block1	congruent/STIM_021.jpg
1008.471	0.916	1	congruent	Block1	congruent/STIM_022.jpg
1012.413	0.524	1	congruent	Block1	congruent/STIM_022.jpg
1015.126	0.609	1	congruent	Block1	congruent/STIM_022.jpg
1019.065	0.74	1	congruent	Block1	congruent/STIM_022.jpg
1023.198	0.561	1	congruent	Block1	congruent/STIM_022.jpg
1027.722	0.56	1	congruent	Block1	congruent/STIM_023.jpg
1030.32	0.626	1	congruent	Block1	congruent/STIM_023.jpg
1033.4	0.844	0	congruent	Block1	congruent/STIM_023.jpg
1037.161	0.628	1	congruent	Block1	congruent/STIM_023.jpg
1041.602	0.746	1	congruent	Block1	congruent/STIM_023.jpg
1045.326	0.546	1	congruent	Block1	congruent/STIM_024.jpg
1049.659	0.705	1	congruent	Block1	congruent/STIM_024.jpg
1053.078	0.585	1	congruent	Block1	congruent/STIM_024.jpg
1057.438	0.856	0	congruent	Block1	congruent/STIM_024.jpg
1061.597	0.625	1	congruent	Block1	congruent/STIM_024.jpg
1065.767	0.55	1	congruent	Block1	congruent/STIM_025.jpg
1068.353	0.558	0	congruent	Block1	congruent/STIM_025.jpg
1072.359	0.937	1	congruent	Block1	congruent/STIM_025.jpg
1076.636	0.822	1	congruent	Block1	congruent/STIM_025.jpg
1081.034	0.941	1	congruent	Block1	congruent/STIM_025.jpg
1084.092	0.618	0	congruent	Block1	congruent/STIM_026.jpg
1087.952	0.847	1	congruent	Block1	congruent/STIM_026.jpg
1091.149	0.558	1	congruent	Block1	congruent/STIM_026.jpg
1094.184	0.565	1	congruent	Block1	congruent/STIM_026.jpg
1096.995	0.926	1	congruent	Block1	congruent/STIM_026.jpg
1100.216	0.524	0	congruent	Block1	congruent/STIM_027.jpg
1104.148	0.904	1	congruent	Block1	congruent/STIM_027.jpg
1108.569	0.598	1	congruent	Block1	congruent/STIM_027.jpg
1111.989	0.73	1	congruent	Block1	congruent/STIM_027.jpg
1115.014	0.837	0	congruent	Block1	congruent/STIM_027.jpg
1118.386	0.845	0	congruent	Block1	congruent/STIM_028.jpg
1122.624	0.873	1	congruent	Block1	congruent/STIM_028.jpg
1126.046	0.831	0	congruent	Block1	congruent/STIM_028.jpg
1129.037	0.864	1	congruent	Block1	congruent/STIM_028.jpg
1132.74	0.815	1	congruent	Block1	congruent/STIM_028.jpg
1135.718	0.577	1	congruent	Block1	congruent/STIM_029.jpg
1139.51	0.658	1	congruent	Block1	congruent/STIM_029.jpg
1142.782	0.903	1	congruent	Block1	congruent/STIM_029.jpg
1147.312	0.881	1	congruent	Block1	congruent/STIM_029.jpg
1151.315	0.792	1	congruent	Block1	congruent/STIM_029.jpg
1154.213	1.206	1	incongruent	Block2	incongruent/STIM_000.jpg
1158.88	0.745	1	incongruent	Block2	incongruent/STIM_000.jpg
1163.285	0.603	1	incongruent	Block2	incongruent/STIM_000.jpg
1167.137	0.645	1	incongruent	Block2	incongruent/STIM_000.jpg
1170.816	0.547	1	incongruent	Block2	incongruent/STIM_000.jpg
1173.722	0.625	1	incongruent	Block2	incongruent/STIM_001.jpg
1176.402	0.708	1	incongruent	Block2	incongruent/STIM_001.jpg
1179.645	1.158	1	incongruent	Block2	incongruent/STIM_001.jpg
1183.654	1.084	1	incongruent	Block2	incongruent/STIM_001.jpg
1187.658	1.02	1	incongruent	Block2	incongruent/STIM_001.jpg
1191.219	0.683	1	incongruent	Block2	incongruent/STIM_002.jpg
1195.212	1.244	1	incongruent	Block2	incongruent/STIM_002.jpg
1200.254	0.626	1	incongruent	Block2	incongruent/STIM_002.jpg
1203.693	1.066	0	incongruent	Block2	incongruent/STIM_002.jpg
1207.89	0.609	1	incongruent	Block2	incongruent/STIM_002.jpg
1211.038	0.705	1	incongruent	Block2	incongruent/STIM_003.jpg
1213.82	0.725	1	incongruent	Block2	incongruent/STIM_003.jpg
1217.678	0.901	1	incongruent	Block2	incongruent/STIM_003.jpg
1221.543	0.849	1	incongruent	Block2	incongruent/STIM_003.jpg
1225.837	0.761	1	incongruent	Block2	incongruent/STIM_003.jpg
1230.191	0.892	1	incongruent	Block2	incongruent/STIM_004.jpg
1233.357	1.007	0	incongruent	Block2	incongruent/STIM_004.jpg
1238.347	0.848	1	incongruent	Block2	incongruent/STIM_004.jpg
1241.712	0.569	1	incongruent	Block2	incongruent/STIM_004.jpg
1245.774	0.973	1	incongruent	Block2	incongruent/STIM_004.jpg
1248.78	0.818	1	incongruent	Block2	incongruent/STIM_005.jpg
1253.125	0.905	1	incongruent	Block2	incongruent/STIM_005.jpg
1257.265	0.902	0	incongruent	Block2	incongruent/STIM_005.jpg
1261.414	0.548	0	incongruent	Block2	incongruent/STIM_005.jpg
1264.497	1.039	1	incongruent	Block2	incongruent/STIM_005.jpg
1269.511	0.982	1	incongruent	Block2	incongruent/STIM_006.jpg
1274.206	1.164	1	incongruent	Block2	incongruent/STIM_006.jpg
1279.352	0.764	1	incongruent	Block2	incongruent/STIM_006.jpg
1284.048	0.93	1	incongruent	Block2	incongruent/STIM_006.jpg
1287.016	0.732	0	incongruent	Block2	incongruent/STIM_006.jpg
1291.602	0.902	0	incongruent	Block2	incongruent/STIM_007.jpg
1295.71	0.989	1	incongruent	Block2	incongruent/STIM_007.jpg
1299.112	0.624	1	incongruent	Block2	incongruent/STIM_007.jpg
1302.276	0.733	1	incongruent	Block2	incongruent/STIM_007.jpg
1305.016	1.097	1	incongruent	Block2	incongruent/STIM_007.jpg
1308.928	0.833	1	incongruent	Block2	incongruent/STIM_008.jpg
1313.075	1.132	1	incongruent	Block2	incongruent/STIM_008.jpg
1317.996	1.103	1	incongruent	Block2	incongruent/STIM_008.jpg
1323.025	0.678	1	incongruent	Block2	incongruent/STIM_008.jpg
1325.733	0.714	1	incongruent	Block2	incongruent/STIM_008.jpg
1328.934	1.145	0	incongruent	Block2	incongruent/STIM_009.jpg
1332.417	1.22	0	incongruent	Block2	incongruent/STIM_009.jpg
1336.353	0.975	1	incongruent	Block2	incongruent/STIM_009.jpg
1339.482	0.629	1	incongruent	Block2	incongruent/STIM_009.jpg
1343.517	0.616	1	incongruent	Block2	incongruent/STIM_009.jpg
1346.607	1.078	1	incongruent	Block2	incongruent/STIM_010.jpg
1350.234	0.702	0	incongruent	Block2	incongruent/STIM_010.jpg
1353.407	0.776	1	incongruent	Block2	incongruent/STIM_010.jpg
1356.9	0.742	1	incongruent	Block2	incongruent/STIM_010.jpg
1360.438	0.617	1	incongruent	Block2	incongruent/STIM_010.jpg
1363.824	1.224	1	incongruent	Block2	incongruent/STIM_011.jpg
1368.828	0.848	1	incongruent	Block2	incongruent/STIM_011.jpg
1371.942	0.804	1	incongruent	Block2	incongruent/STIM_011.jpg
1376.375	0.543	1	incongruent	Block2	incongruent/STIM_011.jpg
1379.223	1.053	1	incongruent	Block2	incongruent/STIM_011.jpg
1384.165	0.835	1	incongruent	Block2	incongruent/STIM_012.jpg
1388.183	0.879	1	incongruent	Block2	incongruent/STIM_012.jpg
1392.366	0.818	1	incongruent	Block2	incongruent/STIM_012.jpg
1397.097	0.763	1	incongruent	Block2	incongruent/STIM_012.jpg
1401.613	0.595	1	incongruent	Block2	incongruent/STIM_012.jpg
1405.749	1.143	0	incongruent	Block2	incongruent/STIM_013.jpg
1408.925	1.207	1	incongruent	Block2	incongruent/STIM_013.jpg
1413.216	0.62	0	incongruent	Block2	incongruent/STIM_013.jpg
1416.756	1.0	1	incongruent	Block2	incongruent/STIM_013.jpg
1420.174	1.062	1	incongruent	Block2	incongruent/STIM_013.jpg
1424.192	0.828	1	incongruent	Block2	incongruent/STIM_014.jpg
1427.148	1.083	1	incongruent	Block2	incongruent/STIM_014.jpg
1431.222	1.098	1	incongruent	Block2	incongruent/STIM_014.jpg
1434.398	0.552	0	incongruent	Block2	incongruent/STIM_014.jpg
1437.761	0.796	1	incongruent	Block2	incongruent/STIM_014.jpg
1441.923	0.851	0	incongruent	Block2	incongruent/STIM_015.jpg
1445.164	0.744	1	incongruent	Block2	incongruent/STIM_015.jpg
1448.633	0.748	1	incongruent	Block2	incongruent/STIM_015.jpg
1451.719	1.044	1	incongruent	Block2	incongruent/STIM_015.jpg
1456.438	0.597	1	incongruent	Block2	incongruent/STIM_015.jpg
1459.563	1.249	0	incongruent	Block2	incongruent/STIM_016.jpg
1464.155	0.587	1	incongruent	Block2	incongruent/STIM_016.jpg
1467.893	1.139	1	incongruent	Block2	incongruent/STIM_016.jpg
1473.004	0.889	1	incongruent	Block2	incongruent/STIM_016.jpg
1476.177	1.039	1	incongruent	Block2	incongruent/STIM_016.jpg
1479.674	0.686	0	incongruent	Block2	incongruent/STIM_017.jpg
1484.269	1.071	1	incongruent	Block2	incongruent/STIM_017.jpg
1488.188	0.95	1	incongruent	Block2	incongruent/STIM_017.jpg
1492.197	0.606	1	incongruent	Block2	incongruent/STIM_017.jpg
1496.216	0.844	1	incongruent	Block2	incongruent/STIM_017.jpg
1499.319	1.335	1	incongruent	Block2	incongruent/STIM_018.jpg
1503.312	1.056	1	incongruent	Block2	incongruent/STIM_018.jpg
1508.226	0.655	1	incongruent	Block2	incongruent/STIM_018.jpg
1511.971	0.928	0	incongruent	Block2	incongruent/STIM_018.jpg
1515.27	0.75	1	incongruent	Block2	incongruent/STIM_018.jpg
1519.09	0.948	1	incongruent	Block2	incongruent/STIM_019.jpg
1522.269	0.627	1	incongruent	Block2	incongruent/STIM_019.jpg
1525.741	0.671	1	incongruent	Block2	incongruent/STIM_019.jpg
1529.614	0.938	1	incongruent	Block2	incongruent/STIM_019.jpg
1532.789	0.62	1	incongruent	Block2	incongruent/STIM_019.jpg
1536.063	0.87	1	incongruent	Block2	incongruent/STIM_020.jpg
1540.332	0.835	1	incongruent	Block2	incongruent/STIM_020.jpg
1544.938	1.034	0	incongruent	Block2	incongruent/STIM_020.jpg
1548.581	0.893	1	incongruent	Block2	incongruent/STIM_020.jpg
1553.16	0.586	0	incongruent	Block2	incongruent/STIM_020.jpg
1557.262	1.131	1	incongruent	Block2	incongruent/STIM_021.jpg
1561.284	1.076	1	incongruent	Block2	incongruent/STIM_021.jpg
1566.121	0.64	1	incongruent	Block2	incongruent/STIM_021.jpg
1570.249	1.08	0	incongruent	Block2	incongruent/STIM_021.jpg
1574.889	0.63	1	incongruent	Block2	incongruent/STIM_021.jpg
1579.488	0.837	0	incongruent	Block2	incongruent/STIM_022.jpg
1584.119	0.747	1	incongruent	Block2	incongruent/STIM_022.jpg
1587.041	0.851	1	incongruent	Block2	incongruent/STIM_022.jpg
1591.868	0.532	1	incongruent	Block2	incongruent/STIM_022.jpg
1594.406	0.929	1	incongruent	Block2	incongruent/STIM_022.jpg
1597.544	0.873	1	incongruent	Block2	incongruent/STIM_023.jpg
1600.955	0.679	1	incongruent	Block2	incongruent/STIM_023.jpg
1604.937	1.127	1	incongruent	Block2	incongruent/STIM_023.jpg
1609.743	0.922	1	incongruent	Block2	incongruent/STIM_023.jpg
1614.247	0.855	1	incongruent	Block2	incongruent/STIM_023.jpg
1618.479	1.324	1	incongruent	Block2	incongruent/STIM_024.jpg
1622.384	0.981	1	incongruent	Block2	incongruent/STIM_024.jpg
1625.526	1.154	1	incongruent	Block2	incongruent/STIM_024.jpg
1630.244	0.985	1	incongruent	Block2	incongruent/STIM_024.jpg
1634.42	0.734	1	incongruent	Block2	incongruent/STIM_024.jpg
1638.664	0.67	1	incongruent	Block2	incongruent/STIM_025.jpg
1641.769	0.995	1	incongruent	Block2	incongruent/STIM_025.jpg
1646.716	1.073	0	incongruent	Block2	incongruent/STIM_025.jpg
1651.016	0.911	1	incongruent	Block2	incongruent/STIM_025.jpg
1655.323	0.709	1	incongruent	Block2	incongruent/STIM_025.jpg
1658.92	0.633	1	incongruent	Block2	incongruent/STIM_026.jpg
1662.513	0.69	1	incongruent	Block2	incongruent/STIM_026.jpg
1665.786	0.585	0	incongruent	Block2	incongruent/STIM_026.jpg
1668.709	0.846	1	incongruent	Block2	incongruent/STIM_026.jpg
1673.329	0.916	1	incongruent	Block2	incongruent/STIM_026.jpg
1677.422	1.134	1	incongruent	Block2	incongruent/STIM_027.jpg
1681.232	1.251	0	incongruent	Block2	incongruent/STIM_027.jpg
1685.447	0.715	1	incongruent	Block2	incongruent/STIM_027.jpg
1689.671	0.918	1	incongruent	Block2	incongruent/STIM_027.jpg
1694.153	0.923	1	incongruent	Block2	incongruent/STIM_027.jpg
1697.491	0.713	0	incongruent	Block2	incongruent/STIM_028.jpg
1701.318	0.788	1	incongruent	Block2	incongruent/STIM_028.jpg
1705.465	0.561	0	incongruent	Block2	incongruent/STIM_028.jpg
1708.829	0.987	1	incongruent	Block2	incongruent/STIM_028.jpg
1712.177	1.06	1	incongruent	Block2	incongruent/STIM_028.jpg
1716.745	0.978	0	incongruent	Block2	incongruent/STIM_029.jpg
1719.778	1.044	1	incongruent	Block2	incongruent/STIM_029.jpg
1723.443	1.04	0	incongruent	Block2	incongruent/STIM_029.jpg
1727.438	1.055	1	incongruent	Block2	incongruent/STIM_029.jpg
1730.966	0.83	1	incongruent	Block2	incongruent/STIM_029.jpg
1735.403	0.817	0	congruent	Block2	congruent/STIM_000.jpg
1739.778	0.594	0	congruent	Block2	congruent/STIM_000.jpg
1744.201	0.526	1	congruent	Block2	congruent/STIM_000.jpg
1747.834	0.616	1	congruent	Block2	congruent/STIM_000.jpg
1751.114	0.598	1	congruent	Block2	congruent/STIM_000.jpg
1753.798	0.803	1	congruent	Block2	congruent/STIM_001.jpg
1758.461	0.898	0	congruent	Block2	congruent/STIM_001.jpg
1761.619	0.695	1	congruent	Block2	congruent/STIM_001.jpg
1764.701	0.572	1	congruent	Block2	congruent/STIM_001.jpg
1768.84	0.77	1	congruent	Block2	congruent/STIM_001.jpg
1772.011	0.666	1	congruent	Block2	congruent/STIM_002.jpg
1775.492	0.835	1	congruent	Block2	congruent/STIM_002.jpg
1779.474	0.61	0	congruent	Block2	congruent/STIM_002.jpg
1783.721	0.612	1	congruent	Block2	congruent/STIM_002.jpg
1787.748	0.895	1	congruent	Block2	congruent/STIM_002.jpg
1792.411	0.782	0	congruent	Block2	congruent/STIM_003.jpg
1796.011	0.873	1	congruent	Block2	congruent/STIM_003.jpg
1800.28	0.549	1	congruent	Block2	congruent/STIM_003.jpg
1803.245	0.688	1	congruent	Block2	congruent/STIM_003.jpg
1807.122	0.58	1	congruent	Block2	congruent/STIM_003.jpg
1811.143	0.613	1	congruent	Block2	congruent/STIM_004.jpg
1814.981	0.67	1	congruent	Block2	congruent/STIM_004.jpg
1818.476	0.92	1	congruent	Block2	congruent/STIM_004.jpg
1823.01	0.586	1	congruent	Block2	congruent/STIM_004.jpg
1826.879	0.765	1	congruent	Block2	congruent/STIM_004.jpg
1830.463	0.555	1	congruent	Block2	congruent/STIM_005.jpg
1834.045	0.617	1	congruent	Block2	congruent/STIM_005.jpg
1837.279	0.524	1	congruent	Block2	congruent/STIM_005.jpg
1841.334	0.665	1	congruent	Block2	congruent/STIM_005.jpg
1845.295	0.639	1	congruent	Block2	congruent/STIM_005.jpg
1849.908	0.778	0	congruent	Block2	congruent/STIM_006.jpg
1853.457	0.615	1	congruent	Block2	congruent/STIM_006.jpg
1856.118	0.56	0	congruent	Block2	congruent/STIM_006.jpg
1859.227	0.788	1	congruent	Block2	congruent/STIM_006.jpg
1862.19	0.619	1	congruent	Block2	congruent/STIM_006.jpg
1865.935	0.866	1	congruent	Block2	congruent/STIM_007.jpg
1869.796	0.734	1	congruent	Block2	congruent/STIM_007.jpg
1874.334	0.622	1	congruent	Block2	congruent/STIM_007.jpg
1877.927	0.745	1	congruent	Block2	congruent/STIM_007.jpg
1881.535	0.768	1	congruent	Block2	congruent/STIM_007.jpg
1886.25	0.812	1	congruent	Block2	congruent/STIM_008.jpg
1890.112	0.812	1	congruent	Block2	congruent/STIM_008.jpg
1893.153	0.536	1	congruent	Block2	congruent/STIM_008.jpg
1896.508	0.579	1	congruent	Block2	congruent/STIM_008.jpg
1900.956	0.794	1	congruent	Block2	congruent/STIM_008.jpg
1905.535	0.852	1	congruent	Block2	congruent/STIM_009.jpg
1910.32	0.929	1	congruent	Block2	congruent/STIM_009.jpg
1914.192	0.874	1	congruent	Block2	congruent/STIM_009.jpg
1917.595	0.77	1	congruent	Block2	congruent/STIM_009.jpg
1921.488	0.88	1	congruent	Block2	congruent/STIM_009.jpg
1925.129	0.81	1	congruent	Block2	congruent/STIM_010.jpg
1928.745	0.897	0	congruent	Block2	congruent/STIM_010.jpg
1932.712	0.612	1	congruent	Block2	congruent/STIM_010.jpg
1937.163	0.664	1	congruent	Block2	congruent/STIM_010.jpg
1940.55	0.744	1	congruent	Block2	congruent/STIM_010.jpg
1944.07	0.932	1	congruent	Block2	congruent/STIM_011.jpg
1948.033	0.568	1	congruent	Block2	congruent/STIM_011.jpg
1951.085	0.594	1	congruent	Block2	congruent/STIM_011.jpg
1954.476	0.698	0	congruent	Block2	congruent/STIM_011.jpg
1957.787	0.833	1	congruent	Block2	congruent/STIM_011.jpg
1961.999	0.631	1	congruent	Block2	congruent/STIM_012.jpg
1966.035	0.706	1	congruent	Block2	congruent/STIM_012.jpg
1970.484	0.608	1	congruent	Block2	congruent/STIM_012.jpg
1973.993	0.532	1	congruent	Block2	congruent/STIM_012.jpg
1977.387	0.568	1	congruent	Block2	congruent/STIM_012.jpg
1981.421	0.557	1	congruent	Block2	congruent/STIM_013.jpg
1985.666	0.617	1	congruent	Block2	congruent/STIM_013.jpg
1989.337	0.542	1	congruent	Block2	congruent/STIM_013.jpg
1992.478	0.829	1	congruent	Block2	congruent/STIM_013.jpg
1996.646	0.607	1	congruent	Block2	congruent/STIM_013.jpg
2000.533	0.755	1	congruent	Block2	congruent/STIM_014.jpg
2005.015	0.613	1	congruent	Block2	congruent/STIM_014.jpg
2009.431	0.72	1	congruent	Block2	congruent/STIM_014.jpg
2014.131	0.811	1	congruent	Block2	congruent/STIM_014.jpg
2016.984	0.901	1	congruent	Block2	congruent/STIM_014.jpg
2021.652	0.845	1	congruent	Block2	congruent/STIM_015.jpg
2025.798	0.756	0	congruent	Block2	congruent/STIM_015.jpg
2030.287	0.61	1	congruent	Block2	congruent/STIM_015.jpg
2034.753	0.544	1	congruent	Block2	congruent/STIM_015.jpg
2038.504	0.708	1	congruent	Block2	congruent/STIM_015.jpg
2042.699	0.57	1	congruent	Block2	congruent/STIM_016.jpg
2046.22	0.745	1	congruent	Block2	congruent/STIM_016.jpg
2050.226	0.731	1	congruent	Block2	congruent/STIM_016.jpg
2054.904	0.828	1	congruent	Block2	congruent/STIM_016.jpg
2059.231	0.813	1	congruent	Block2	congruent/STIM_016.jpg
2063.959	0.779	1	congruent	Block2	congruent/STIM_017.jpg
2067.361	0.839	1	congruent	Block2	congruent/STIM_017.jpg
2071.071	0.906	0	congruent	Block2	congruent/STIM_017.jpg
2074.994	0.773	1	congruent	Block2	congruent/STIM_017.jpg
2079.198	0.737	1	congruent	Block2	congruent/STIM_017.jpg
2082.367	0.665	1	congruent	Block2	congruent/STIM_018.jpg
2086.2	0.874	1	congruent	Block2	congruent/STIM_018.jpg
2089.781	0.535	1	congruent	Block2	congruent/STIM_018.jpg
2093.706	0.583	1	congruent	Block2	congruent/STIM_018.jpg
2097.122	0.721	1	congruent	Block2	congruent/STIM_018.jpg
2101.552	0.731	1	congruent	Block2	congruent/STIM_019.jpg
2105.026	0.615	1	congruent	Block2	congruent/STIM_019.jpg
2107.643	0.766	1	congruent	Block2	congruent/STIM_019.jpg
2111.112	0.732	1	congruent	Block2	congruent/STIM_019.jpg
2114.752	0.548	1	congruent	Block2	congruent/STIM_019.jpg
2117.971	0.61	1	congruent	Block2	congruent/STIM_020.jpg
2120.971	0.898	0	congruent	Block2	congruent/STIM_020.jpg
2125.332	0.94	1	congruent	Block2	congruent/STIM_020.jpg
2128.519	0.589	0	congruent	Block2	congruent/STIM_020.jpg
2131.171	0.764	1	congruent	Block2	congruent/STIM_020.jpg
2135.527	0.545	1	congruent	Block2	congruent/STIM_021.jpg
2139.416	0.748	0	congruent	Block2	congruent/STIM_021.jpg
2143.046	0.91	1	congruent	Block2	congruent/STIM_021.jpg
2146.684	0.758	1	congruent	Block2	congruent/STIM_021.jpg
2149.753	0.744	1	congruent	Block2	congruent/STIM_021.jpg
2153.331	0.541	1	congruent	Block2	congruent/STIM_022.jpg
2156.51	0.646	1	congruent	Block2	congruent/STIM_022.jpg
2160.252	0.676	1	congruent	Block2	congruent/STIM_022.jpg
2164.569	0.788	1	congruent	Block2	congruent/STIM_022.jpg
2168.147	0.934	1	congruent	Block2	congruent/STIM_022.jpg
2171.707	0.539	1	congruent	Block2	congruent/STIM_023.jpg
2175.385	0.897	1	congruent	Block2	congruent/STIM_023.jpg
2178.785	0.913	1	congruent	Block2	congruent/STIM_023.jpg
2183.128	0.907	0	congruent	Block2	congruent/STIM_023.jpg
2187.075	0.888	1	congruent	Block2	congruent/STIM_023.jpg
2190.815	0.833	1	congruent	Block2	congruent/STIM_024.jpg
2194.67	0.797	1	congruent	Block2	congruent/STIM_024.jpg
2198.19	0.609	1	congruent	Block2	congruent/STIM_024.jpg
2202.438	0.71	0	congruent	Block2	congruent/STIM_024.jpg
2206.43	0.529	1	congruent	Block2	congruent/STIM_024.jpg
2210.062	0.93	1	congruent	Block2	congruent/STIM_025.jpg
2214.81	0.921	1	congruent	Block2	congruent/STIM_025.jpg
2218.742	0.606	1	congruent	Block2	congruent/STIM_025.jpg
2222.646	0.561	1	congruent	Block2	congruent/STIM_025.jpg
2226.716	0.727	1	congruent	Block2	congruent/STIM_025.jpg
2230.392	0.902	1	congruent	Block2	congruent/STIM_026.jpg
2233.664	0.909	1	congruent	Block2	congruent/STIM_026.jpg
2236.951	0.686	1	congruent	Block2	congruent/STIM_026.jpg
2240.686	0.832	1	congruent	Block2	congruent/STIM_026.jpg
2244.901	0.744	1	congruent	Block2	congruent/STIM_026.jpg
2249.642	0.831	1	congruent	Block2	congruent/STIM_027.jpg
2252.952	0.62	0	congruent	Block2	congruent/STIM_027.jpg
2255.624	0.878	1	congruent	Block2	congruent/STIM_027.jpg
2258.739	0.717	1	congruent	Block2	congruent/STIM_027.jpg
2263.118	0.664	1	congruent	Block2	congruent/STIM_027.jpg
2266.264	0.833	1	congruent	Block2	congruent/STIM_028.jpg
2269.818	0.693	1	congruent	Block2	congruent/STIM_028.jpg
2273.756	0.841	0	congruent	Block2	congruent/STIM_028.jpg
2278.277	0.647	1	congruent	Block2	congruent/STIM_028.jpg
2282.52	0.852	1	congruent	Block2	congruent/STIM_028.jpg
2286.735	0.809	0	congruent	Block2	congruent/STIM_029.jpg
2289.667	0.791	1	congruent	Block2	congruent/STIM_029.jpg
2292.568	0.574	1	congruent	Block2	congruent/STIM_029.jpg
2296.494	0.681	1	congruent	Block2	congruent/STIM_029.jpg
2300.423	0.716	1	congruent	Block2	congruent/STIM_029.jpg
2303.75	0.876	1	incongruent	Block3	incongruent/STIM_000.jpg
2307.101	0.906	0	incongruent	Block3	incongruent/STIM_000.jpg
2311.083	0.739	1	incongruent	Block3	incongruent/STIM_000.jpg
2315.006	0.609	1	incongruent	Block3	incongruent/STIM_000.jpg
2318.497	0.548	1	incongruent	Block3	incongruent/STIM_000.jpg
2322.448	0.798	0	incongruent	Block3	incongruent/STIM_001.jpg
2325.389	1.014	1	incongruent	Block3	incongruent/STIM_001.jpg
2328.929	1.01	1	incongruent	Block3	incongruent/STIM_001.jpg
2333.311	0.937	1	incongruent	Block3	incongruent/STIM_001.jpg
2336.635	0.775	1	incongruent	Block3	incongruent/STIM_001.jpg
2341.21	1.0	1	incongruent	Block3	incongruent/STIM_002.jpg
2345.89	1.07	1	incongruent	Block3	incongruent/STIM_002.jpg
2350.902	0.698	1	incongruent	Block3	incongruent/STIM_002.jpg
2354.291	1.01	1	incongruent	Block3	incongruent/STIM_002.jpg
2357.593	0.664	1	incongruent	Block3	incongruent/STIM_002.jpg
2361.95	0.639	1	incongruent	Block3	incongruent/STIM_003.jpg
2365.55	1.06	1	incongruent	Block3	incongruent/STIM_003.jpg
2370.441	0.828	1	incongruent	Block3	incongruent/STIM_003.jpg
2374.88	1.057	1	incongruent	Block3	incongruent/STIM_003.jpg
2378.63	0.791	1	incongruent	Block3	incongruent/STIM_003.jpg
2383.179	0.831	1	incongruent	Block3	incongruent/STIM_004.jpg
2386.56	0.524	1	incongruent	Block3	incongruent/STIM_004.jpg
2389.903	0.771	1	incongruent	Block3	incongruent/STIM_004.jpg
2392.896	0.971	1	incongruent	Block3	incongruent/STIM_004.jpg
2396.912	0.589	1	incongruent	Block3	incongruent/STIM_004.jpg
2400.548	0.662	1	incongruent	Block3	incongruent/STIM_005.jpg
2405.163	0.681	1	incongruent	Block3	incongruent/STIM_005.jpg
2408.378	0.567	1	incongruent	Block3	incongruent/STIM_005.jpg
2412.482	1.02	1	incongruent	Block3	incongruent/STIM_005.jpg
2416.205	1.041	1	incongruent	Block3	incongruent/STIM_005.jpg
2419.681	0.571	1	incongruent	Block3	incongruent/STIM_006.jpg
2423.713	0.88	1	incongruent	Block3	incongruent/STIM_006.jpg
2427.19	0.871	1	incongruent	Block3	incongruent/STIM_006.jpg
2431.784	0.749	1	incongruent	Block3	incongruent/STIM_006.jpg
2434.828	0.723	1	incongruent	Block3	incongruent/STIM_006.jpg
2437.837	0.696	1	incongruent	Block3	incongruent/STIM_007.jpg
2440.538	0.56	1	incongruent	Block3	incongruent/STIM_007.jpg
2444.716	0.751	0	incongruent	Block3	incongruent/STIM_007.jpg
2448.171	0.83	1	incongruent	Block3	incongruent/STIM_007.jpg
2452.666	0.964	1	incongruent	Block3	incongruent/STIM_007.jpg
2456.104	1.032	1	incongruent	Block3	incongruent/STIM_008.jpg
2459.319	1.024	1	incongruent	Block3	incongruent/STIM_008.jpg
2463.121	0.772	1	incongruent	Block3	incongruent/STIM_008.jpg
2466.465	0.942	1	incongruent	Block3	incongruent/STIM_008.jpg
2471.291	0.94	1	incongruent	Block3	incongruent/STIM_008.jpg
2475.335	0.66	0	incongruent	Block3	incongruent/STIM_009.jpg
2478.216	0.741	1	incongruent	Block3	incongruent/STIM_009.jpg
2482.885	0.691	1	incongruent	Block3	incongruent/STIM_009.jpg
2487.323	0.813	1	incongruent	Block3	incongruent/STIM_009.jpg
2491.271	0.59	1	incongruent	Block3	incongruent/STIM_009.jpg
2495.405	0.669	1	incongruent	Block3	incongruent/STIM_010.jpg
2500.027	0.879	1	incongruent	Block3	incongruent/STIM_010.jpg
2502.931	0.674	1	incongruent	Block3	incongruent/STIM_010.jpg
2506.975	0.961	1	incongruent	Block3	incongruent/STIM_010.jpg
2510.397	0.895	1	incongruent	Block3	incongruent/STIM_010.jpg
2514.275	0.892	1	incongruent	Block3	incongruent/STIM_011.jpg
2517.875	0.837	1	incongruent	Block3	incongruent/STIM_011.jpg
2521.342	0.723	1	incongruent	Block3	incongruent/STIM_011.jpg
2524.205	0.978	1	incongruent	Block3	incongruent/STIM_011.jpg
2529.069	0.955	1	incongruent	Block3	incongruent/STIM_011.jpg
2533.154	1.017	1	incongruent	Block3	incongruent/STIM_012.jpg
2537.991	0.804	1	incongruent	Block3	incongruent/STIM_012.jpg
2540.901	0.73	1	incongruent	Block3	incongruent/STIM_012.jpg
2545.034	0.631	1	incongruent	Block3	incongruent/STIM_012.jpg
2548.494	0.662	1	incongruent	Block3	incongruent/STIM_012.jpg
2551.342	0.959	1	incongruent	Block3	incongruent/STIM_013.jpg
2555.559	0.985	0	incongruent	Block3	incongruent/STIM_013.jpg
2560.301	0.703	1	incongruent	Block3	incongruent/STIM_013.jpg
2563.876	0.662	1	incongruent	Block3	incongruent/STIM_013.jpg
2567.562	0.632	1	incongruent	Block3	incongruent/STIM_013.jpg
2570.905	0.564	1	incongruent	Block3	incongruent/STIM_014.jpg
2574.873	0.663	1	incongruent	Block3	incongruent/STIM_014.jpg
2578.505	0.686	1	incongruent	Block3	incongruent/STIM_014.jpg
2583.054	0.958	1	incongruent	Block3	incongruent/STIM_014.jpg
2588.01	1.057	1	incongruent	Block3	incongruent/STIM_014.jpg
2591.994	0.819	1	incongruent	Block3	incongruent/STIM_015.jpg
2595.545	0.655	0	incongruent	Block3	incongruent/STIM_015.jpg
2599.59	0.78	1	incongruent	Block3	incongruent/STIM_015.jpg
2603.617	0.575	1	incongruent	Block3	incongruent/STIM_015.jpg
2607.179	0.979	1	incongruent	Block3	incongruent/STIM_015.jpg
2610.841	1.017	1	incongruent	Block3	incongruent/STIM_016.jpg
2614.819	0.997	1	incongruent	Block3	incongruent/STIM_016.jpg
2618.351	0.864	0	incongruent	Block3	incongruent/STIM_016.jpg
2622.254	0.518	1	incongruent	Block3	incongruent/STIM_016.jpg
2625.845	0.982	1	incongruent	Block3	incongruent/STIM_016.jpg
2629.476	0.844	1	incongruent	Block3	incongruent/STIM_017.jpg
2633.623	0.899	1	incongruent	Block3	incongruent/STIM_017.jpg
2637.278	0.568	0	incongruent	Block3	incongruent/STIM_017.jpg
2640.682	0.916	1	incongruent	Block3	incongruent/STIM_017.jpg
2644.891	0.692	1	incongruent	Block3	incongruent/STIM_017.jpg
2648.675	0.674	1	incongruent	Block3	incongruent/STIM_018.jpg
2652.678	0.987	1	incongruent	Block3	incongruent/STIM_018.jpg
2655.871	0.698	1	incongruent	Block3	incongruent/STIM_018.jpg
2658.782	0.77	1	incongruent	Block3	incongruent/STIM_018.jpg
2663.068	0.7	1	incongruent	Block3	incongruent/STIM_018.jpg
2666.595	0.559	0	incongruent	Block3	incongruent/STIM_019.jpg
2669.312	0.786	1	incongruent	Block3	incongruent/STIM_019.jpg
2672.496	1.018	1	incongruent	Block3	incongruent/STIM_019.jpg
2676.479	0.787	1	incongruent	Block3	incongruent/STIM_019.jpg
2680.616	0.988	1	incongruent	Block3	incongruent/STIM_019.jpg
2683.892	0.747	1	incongruent	Block3	incongruent/STIM_020.jpg
2687.142	0.543	1	incongruent	Block3	incongruent/STIM_020.jpg
2691.385	0.888	1	incongruent	Block3	incongruent/STIM_020.jpg
2696.087	0.593	1	incongruent	Block3	incongruent/STIM_020.jpg
2698.828	0.665	1	incongruent	Block3	incongruent/STIM_020.jpg
2702.809	0.96	1	incongruent	Block3	incongruent/STIM_021.jpg
2706.496	0.593	1	incongruent	Block3	incongruent/STIM_021.jpg
2709.588	0.684	1	incongruent	Block3	incongruent/STIM_021.jpg
2713.771	0.537	1	incongruent	Block3	incongruent/STIM_021.jpg
2717.054	0.997	1	incongruent	Block3	incongruent/STIM_021.jpg
2721.034	1.025	1	incongruent	Block3	incongruent/STIM_022.jpg
2725.746	0.742	1	incongruent	Block3	incongruent/STIM_022.jpg
2728.618	0.623	0	incongruent	Block3	incongruent/STIM_022.jpg
2732.85	0.827	1	incongruent	Block3	incongruent/STIM_022.jpg
2736.01	0.755	1	incongruent	Block3	incongruent/STIM_022.jpg
2740.033	0.875	0	incongruent	Block3	incongruent/STIM_023.jpg
2743.665	0.862	1	incongruent	Block3	incongruent/STIM_023.jpg
2746.767	0.912	1	incongruent	Block3	incongruent/STIM_023.jpg
2750.915	0.592	1	incongruent	Block3	incongruent/STIM_023.jpg
2754.586	1.096	1	incongruent	Block3	incongruent/STIM_023.jpg
2757.874	0.774	1	incongruent	Block3	incongruent/STIM_024.jpg
2760.818	0.819	1	incongruent	Block3	incongruent/STIM_024.jpg
2763.868	0.526	1	incongruent	Block3	incongruent/STIM_024.jpg
2766.414	1.04	1	incongruent	Block3	incongruent/STIM_024.jpg
2770.636	0.726	1	incongruent	Block3	incongruent/STIM_024.jpg
2774.551	0.988	1	incongruent	Block3	incongruent/STIM_025.jpg
2779.42	0.536	1	incongruent	Block3	incongruent/STIM_025.jpg
2783.199	0.917	1	incongruent	Block3	incongruent/STIM_025.jpg
2787.229	0.999	1	incongruent	Block3	incongruent/STIM_025.jpg
2790.507	0.98	1	incongruent	Block3	incongruent/STIM_025.jpg
2793.705	0.582	1	incongruent	Block3	incongruent/STIM_026.jpg
2796.354	0.878	1	incongruent	Block3	incongruent/STIM_026.jpg
2800.48	1.036	1	incongruent	Block3	incongruent/STIM_026.jpg
2803.846	0.702	1	incongruent	Block3	incongruent/STIM_026.jpg
2807.077	0.532	1	incongruent	Block3	incongruent/STIM_026.jpg
2810.746	0.79	1	incongruent	Block3	incongruent/STIM_027.jpg
2814.498	0.813	1	incongruent	Block3	incongruent/STIM_027.jpg
2817.776	0.795	1	incongruent	Block3	incongruent/STIM_027.jpg
2822.088	0.897	1	incongruent	Block3	incongruent/STIM_027.jpg
2825.762	0.65	1	incongruent	Block3	incongruent/STIM_027.jpg
2829.083	0.921	1	incongruent	Block3	incongruent/STIM_028.jpg
2832.944	0.716	1	incongruent	Block3	incongruent/STIM_028.jpg
2836.736	1.028	1	incongruent	Block3	incongruent/STIM_028.jpg
2841.731	0.911	1	incongruent	Block3	incongruent/STIM_028.jpg
2844.713	0.696	1	incongruent	Block3	incongruent/STIM_028.jpg
2848.74	0.715	1	incongruent	Block3	incongruent/STIM_029.jpg
2852.178	0.744	1	incongruent	Block3	incongruent/STIM_029.jpg
2856.651	0.558	0	incongruent	Block3	incongruent/STIM_029.jpg
2860.826	0.624	1	incongruent	Block3	incongruent/STIM_029.jpg
2864.295	0.912	1	incongruent	Block3	incongruent/STIM_029.jpg
2868.874	0.578	1	congruent	Block3	congruent/STIM_000.jpg
2871.952	0.827	1	congruent	Block3	congruent/STIM_000.jpg
2874.82	0.82	1	congruent	Block3	congruent/STIM_000.jpg
2878.307	0.697	1	congruent	Block3	congruent/STIM_000.jpg
2881.27	0.609	1	congruent	Block3	congruent/STIM_000.jpg
2884.817	0.553	1	congruent	Block3	congruent/STIM_001.jpg
2888.301	0.758	1	congruent	Block3	congruent/STIM_001.jpg
2892.672	0.832	1	congruent	Block3	congruent/STIM_001.jpg
2896.282	0.848	1	congruent	Block3	congruent/STIM_001.jpg
2899.508	0.763	1	congruent	Block3	congruent/STIM_001.jpg
2904.152	0.734	1	congruent	Block3	congruent/STIM_002.jpg
2906.967	0.921	1	congruent	Block3	congruent/STIM_002.jpg
2911.565	0.725	1	congruent	Block3	congruent/STIM_002.jpg
2914.35	0.536	0	congruent	Block3	congruent/STIM_002.jpg
2917.079	0.781	1	congruent	Block3	congruent/STIM_002.jpg
2921.358	0.881	1	congruent	Block3	congruent/STIM_003.jpg
2925.56	0.845	1	congruent	Block3	congruent/STIM_003.jpg
2929.681	0.671	1	congruent	Block3	congruent/STIM_003.jpg
2933.222	0.591	0	congruent	Block3	congruent/STIM_003.jpg
2936.37	0.684	1	congruent	Block3	congruent/STIM_003.jpg
2939.245	0.58	1	congruent	Block3	congruent/STIM_004.jpg
2942.591	0.692	1	congruent	Block3	congruent/STIM_004.jpg
2946.661	0.844	1	congruent	Block3	congruent/STIM_004.jpg
2951.421	0.646	1	congruent	Block3	congruent/STIM_004.jpg
2954.284	0.56	0	congruent	Block3	congruent/STIM_004.jpg
2958.177	0.583	0	congruent	Block3	congruent/STIM_005.jpg
2961.029	0.79	1	congruent	Block3	congruent/STIM_005.jpg
2964.742	0.606	0	congruent	Block3	congruent/STIM_005.jpg
2968.67	0.547	1	congruent	Block3	congruent/STIM_005.jpg
2971.902	0.662	1	congruent	Block3	congruent/STIM_005.jpg
2976.329	0.803	1	congruent	Block3	congruent/STIM_006.jpg
2979.818	0.926	0	congruent	Block3	congruent/STIM_006.jpg
2983.421	0.528	1	congruent	Block3	congruent/STIM_006.jpg
2986.551	0.939	1	congruent	Block3	congruent/STIM_006.jpg
2990.475	0.566	1	congruent	Block3	congruent/STIM_006.jpg
2993.886	0.931	1	congruent	Block3	congruent/STIM_007.jpg
2998.169	0.591	0	congruent	Block3	congruent/STIM_007.jpg
3002.635	0.732	1	congruent	Block3	congruent/STIM_007.jpg
3005.592	0.724	1	congruent	Block3	congruent/STIM_007.jpg
3009.682	0.576	1	congruent	Block3	congruent/STIM_007.jpg
3012.993	0.764	1	congruent	Block3	congruent/STIM_008.jpg
3016.686	0.538	1	congruent	Block3	congruent/STIM_008.jpg
3019.542	0.896	1	congruent	Block3	congruent/STIM_008.jpg
3023.619	0.533	0	congruent	Block3	congruent/STIM_008.jpg
3027.719	0.851	1	congruent	Block3	congruent/STIM_008.jpg
3030.997	0.611	1	congruent	Block3	congruent/STIM_009.jpg
3034.677	0.616	1	congruent	Block3	congruent/STIM_009.jpg
3038.089	0.601	1	congruent	Block3	congruent/STIM_009.jpg
3041.688	0.939	1	congruent	Block3	congruent/STIM_009.jpg
3046.356	0.696	0	congruent	Block3	congruent/STIM_009.jpg
3050.825	0.729	1	congruent	Block3	congruent/STIM_010.jpg
3053.797	0.596	1	congruent	Block3	congruent/STIM_010.jpg
3056.932	0.681	1	congruent	Block3	congruent/STIM_010.jpg
3060.843	0.928	0	congruent	Block3	congruent/STIM_010.jpg
3063.839	0.727	1	congruent	Block3	congruent/STIM_010.jpg
3067.17	0.762	1	congruent	Block3	congruent/STIM_011.jpg
3071.927	0.657	1	congruent	Block3	congruent/STIM_011.jpg
3075.339	0.627	1	congruent	Block3	congruent/STIM_011.jpg
3079.868	0.85	0	congruent	Block3	congruent/STIM_011.jpg
3083.939	0.892	1	congruent	Block3	congruent/STIM_011.jpg
3088.103	0.549	1	congruent	Block3	congruent/STIM_012.jpg
3092.463	0.903	0	congruent	Block3	congruent/STIM_012.jpg
3096.478	0.596	1	congruent	Block3	congruent/STIM_012.jpg
3100.834	0.604	1	congruent	Block3	congruent/STIM_012.jpg
3105.336	0.797	1	congruent	Block3	congruent/STIM_012.jpg
3108.38	0.879	1	congruent	Block3	congruent/STIM_013.jpg
3113.069	0.693	1	congruent	Block3	congruent/STIM_013.jpg
3117.027	0.602	0	congruent	Block3	congruent/STIM_013.jpg
3121.386	0.69	1	congruent	Block3	congruent/STIM_013.jpg
3126.067	0.553	1	congruent	Block3	congruent/STIM_013.jpg
3130.457	0.768	1	congruent	Block3	congruent/STIM_014.jpg
3134.531	0.659	1	congruent	Block3	congruent/STIM_014.jpg
3137.397	0.636	1	congruent	Block3	congruent/STIM_014.jpg
3141.349	0.524	1	congruent	Block3	congruent/STIM_014.jpg
3145.577	0.928	1	congruent	Block3	congruent/STIM_014.jpg
3148.864	0.878	1	congruent	Block3	congruent/STIM_015.jpg
3152.712	0.541	1	congruent	Block3	congruent/STIM_015.jpg
3155.637	0.684	1	congruent	Block3	congruent/STIM_015.jpg
3159.825	0.89	1	congruent	Block3	congruent/STIM_015.jpg
3162.839	0.552	0	congruent	Block3	congruent/STIM_015.jpg
3165.515	0.783	0	congruent	Block3	congruent/STIM_016.jpg
3170.074	0.738	1	congruent	Block3	congruent/STIM_016.jpg
3174.683	0.71	0	congruent	Block3	congruent/STIM_016.jpg
3177.887	0.717	1	congruent	Block3	congruent/STIM_016.jpg
3181.38	0.593	0	congruent	Block3	congruent/STIM_016.jpg
3185.281	0.814	1	congruent	Block3	congruent/STIM_017.jpg
3189.589	0.649	1	congruent	Block3	congruent/STIM_017.jpg
3193.38	0.795	0	congruent	Block3	congruent/STIM_017.jpg
3197.766	0.709	1	congruent	Block3	congruent/STIM_017.jpg
3202.449	0.862	1	congruent	Block3	congruent/STIM_017.jpg
3205.576	0.685	1	congruent	Block3	congruent/STIM_018.jpg
3208.632	0.559	1	congruent	Block3	congruent/STIM_018.jpg
3212.716	0.672	1	congruent	Block3	congruent/STIM_018.jpg
3217.082	0.526	1	congruent	Block3	congruent/STIM_018.jpg
3220.493	0.689	1	congruent	Block3	congruent/STIM_018.jpg
3224.329	0.706	1	congruent	Block3	congruent/STIM_019.jpg
3228.15	0.6	1	congruent	Block3	congruent/STIM_019.jpg
3231.318	0.549	1	congruent	Block3	congruent/STIM_019.jpg
3234.715	0.904	1	congruent	Block3	congruent/STIM_019.jpg
3239.225	0.646	1	congruent	Block3	congruent/STIM_019.jpg
3241.915	0.916	1	congruent	Block3	congruent/STIM_020.jpg
3246.688	0.678	1	congruent	Block3	congruent/STIM_020.jpg
3251.008	0.674	1	congruent	Block3	congruent/STIM_020.jpg
3253.942	0.648	0	congruent	Block3	congruent/STIM_020.jpg
3256.79	0.554	1	congruent	Block3	congruent/STIM_020.jpg
3260.743	0.832	0	congruent	Block3	congruent/STIM_021.jpg
3263.897	0.754	0	congruent	Block3	congruent/STIM_021.jpg
3268.557	0.815	1	congruent	Block3	congruent/STIM_021.jpg
3272.562	0.668	0	congruent	Block3	congruent/STIM_021.jpg
3276.387	0.554	1	congruent	Block3	congruent/STIM_021.jpg
3280.194	0.917	1	congruent	Block3	congruent/STIM_022.jpg
3283.967	0.727	1	congruent	Block3	congruent/STIM_022.jpg
3287.399	0.64	1	congruent	Block3	congruent/STIM_022.jpg
3290.434	0.528	1	congruent	Block3	congruent/STIM_022.jpg
3294.485	0.912	1	congruent	Block3	congruent/STIM_022.jpg
3298.47	0.725	1	congruent	Block3	congruent/STIM_023.jpg
3302.814	0.699	1	congruent	Block3	congruent/STIM_023.jpg
3305.842	0.765	1	congruent	Block3	congruent/STIM_023.jpg
3309.5	0.596	0	congruent	Block3	congruent/STIM_023.jpg
3312.58	0.595	1	congruent	Block3	congruent/STIM_023.jpg
3316.371	0.601	1	congruent	Block3	congruent/STIM_024.jpg
3320.452	0.722	1	congruent	Block3	congruent/STIM_024.jpg
3325.082	0.891	1	congruent	Block3	congruent/STIM_024.jpg
3329.231	0.547	1	congruent	Block3	congruent/STIM_024.jpg
3332.455	0.586	1	congruent	Block3	congruent/STIM_024.jpg
3336.403	0.634	1	congruent	Block3	congruent/STIM_025.jpg
3340.621	0.634	1	congruent	Block3	congruent/STIM_025.jpg
3343.271	0.773	1	congruent	Block3	congruent/STIM_025.jpg
3346.605	0.736	1	congruent	Block3	congruent/STIM_025.jpg
3350.349	0.566	1	congruent	Block3	congruent/STIM_025.jpg
3353.948	0.77	0	congruent	Block3	congruent/STIM_026.jpg
3357.103	0.556	1	congruent	Block3	congruent/STIM_026.jpg
3360.746	0.714	1	congruent	Block3	congruent/STIM_026.jpg
3363.62	0.712	1	congruent	Block3	congruent/STIM_026.jpg
3366.619	0.712	0	congruent	Block3	congruent/STIM_026.jpg
3369.431	0.872	1	congruent	Block3	congruent/STIM_027.jpg
3372.711	0.751	1	congruent	Block3	congruent/STIM_027.jpg
3377.412	0.8	1	congruent	Block3	congruent/STIM_027.jpg
3381.351	0.838	1	congruent	Block3	congruent/STIM_027.jpg
3385.977	0.882	1	congruent	Block3	congruent/STIM_027.jpg
3389.311	0.758	1	congruent	Block3	congruent/STIM_028.jpg
3392.328	0.8	1	congruent	Block3	congruent/STIM_028.jpg
3395.961	0.71	1	congruent	Block3	congruent/STIM_028.jpg
3399.672	0.866	0	congruent	Block3	congruent/STIM_028.jpg
3403.237	0.792	1	congruent	Block3	congruent/STIM_028.jpg
3407.562	0.742	1	congruent	Block3	congruent/STIM_029.jpg
3411.32	0.637	1	congruent	Block3	congruent/STIM_029.jpg
3415.502	0.796	1	congruent	Block3	congruent/STIM_029.jpg
3419.406	0.687	1	congruent	Block3	congruent/STIM_029.jpg
3422.29	0.793	1	congruent	Block3	congruent/STIM_029.jpg
