onset	duration	accuracy	trial_type	learning_stage	stimulus
0.0	0.959	correct	incongruent	Block1	incongruent/STIM_000.jpg
4.112	1.031	incorrect	incongruent	Block1	incongruent/STIM_000.jpg
8.41	0.816	correct	incongruent	Block1	incongruent/STIM_000.jpg
11.643	0.837	correct	incongruent	Block1	incongruent/STIM_000.jpg
14.807	0.895	incorrect	incongruent	Block1	incongruent/STIM_000.jpg
18.667	0.895	incorrect	incongruent	Block1	incongruent/STIM_001.jpg
23.053	1.188	correct	incongruent	Block1	incongruent/STIM_001.jpg
26.909	1.45	incorrect	incongruent	Block1	incongruent/STIM_001.jpg
30.4	1.018	incorrect	incongruent	Block1	incongruent/STIM_001.jpg
34.192	0.832	correct	incongruent	Block1	incongruent/STIM_001.jpg
37.376	1.386	incorrect	incongruent	Block1	incongruent/STIM_002.jpg
41.09	1.051	correct	incongruent	Block1	incongruent/STIM_002.jpg
45.931	1.481	correct	incongruent	Block1	incongruent/STIM_002.jpg
50.371	1.244	correct	incongruent	Block1	incongruent/STIM_002.jpg
53.923	0.975	correct	incongruent	Block1	incongruent/STIM_002.jpg
58.272	1.184	correct	incongruent	Block1	incongruent/STIM_003.jpg
61.575	1.39	correct	incongruent	Block1	incongruent/STIM_003.jpg
65.401	1.134	correct	incongruent	Block1	incongruent/STIM_003.jpg
68.919	0.771	correct	incongruent	Block1	incongruent/STIM_003.jpg
72.702	1.296	correct	incongruent	Block1	incongruent/STIM_003.jpg
76.684	1.714	correct	incongruent	Block1	incongruent/STIM_004.jpg
80.939	1.066	correct	incongruent	Block1	incongruent/STIM_004.jpg
85.526	0.86	correct	incongruent	Block1	incongruent/STIM_004.jpg
89.178	1.351	correct	incongruent	Block1	incongruent/STIM_004.jpg
92.411	1.356	incorrect	incongruent	Block1	incongruent/STIM_004.jpg
96.693	1.419	correct	incongruent	Block1	incongruent/STIM_005.jpg
100.58	0.905	incorrect	incongruent	Block1	incongruent/STIM_005.jpg
105.319	0.788	incorrect	incongruent	Block1	incongruent/STIM_005.jpg
108.323	1.266	correct	incongruent	Block1	incongruent/STIM_005.jpg
112.315	0.643	correct	incongruent	Block1	incongruent/STIM_005.jpg
115.591	1.36	correct	incongruent	Block1	incongruent/STIM_006.jpg
119.379	1.16	correct	incongruent	Block1	incongruent/STIM_006.jpg
123.049	0.887	correct	incongruent	Block1	incongruent/STIM_006.jpg
127.762	1.182	correct	incongruent	Block1	incongruent/STIM_006.jpg
132.197	0.649	correct	incongruent	Block1	incongruent/STIM_006.jpg
135.727	1.707	incorrect	incongruent	Block1	incongruent/STIM_007.jpg
139.439	0.792	correct	incongruent	Block1	incongruent/STIM_007.jpg
143.75	1.54	incorrect	incongruent	Block1	incongruent/STIM_007.jpg
148.193	1.016	correct	incongruent	Block1	incongruent/STIM_007.jpg
152.496	0.825	correct	incongruent	Block1	incongruent/STIM_007.jpg
155.769	1.46	correct	incongruent	Block1	incongruent/STIM_008.jpg
159.609	0.797	correct	incongruent	Block1	incongruent/STIM_008.jpg
163.861	1.164	correct	incongruent	Block1	incongruent/STIM_008.jpg
168.115	1.099	correct	incongruent	Block1	incongruent/STIM_008.jpg
172.44	0.807	correct	incongruent	Block1	incongruent/STIM_008.jpg
176.551	1.257	correct	incongruent	Block1	incongruent/STIM_009.jpg
181.29	1.24	correct	incongruent	Block1	incongruent/STIM_009.jpg
184.956	0.89	correct	incongruent	Block1	incongruent/STIM_009.jpg
187.742	0.797	correct	incongruent	Block1	incongruent/STIM_009.jpg
190.888	1.319	correct	incongruent	Block1	incongruent/STIM_009.jpg
195.599	0.917	correct	incongruent	Block1	incongruent/STIM_010.jpg
199.408	1.535	correct	incongruent	Block1	incongruent/STIM_010.jpg
203.259	1.35	correct	incongruent	Block1	incongruent/STIM_010.jpg
206.447	0.779	correct	incongruent	Block1	incongruent/STIM_010.jpg
209.721	1.205	correct	incongruent	Block1	incongruent/STIM_010.jpg
214.011	1.204	correct	incongruent	Block1	incongruent/STIM_011.jpg
218.001	1.611	correct	incongruent	Block1	incongruent/STIM_011.jpg
222.709	1.148	correct	incongruent	Block1	incongruent/STIM_011.jpg
226.016	0.709	correct	incongruent	Block1	incongruent/STIM_011.jpg
230.393	1.168	correct	incongruent	Block1	incongruent/STIM_011.jpg
233.635	1.244	correct	incongruent	Block1	incongruent/STIM_012.jpg
238.351	1.0	correct	incongruent	Block1	incongruent/STIM_012.jpg
241.693	1.205	correct	incongruent	Block1	incongruent/STIM_012.jpg
245.814	1.365	correct	incongruent	Block1	incongruent/STIM_012.jpg
249.324	0.889	correct	incongruent	Block1	incongruent/STIM_012.jpg
253.371	1.434	incorrect	incongruent	Block1	incongruent/STIM_013.jpg
257.522	1.133	correct	incongruent	Block1	incongruent/STIM_013.jpg
261.196	0.823	correct	incongruent	Block1	incongruent/STIM_013.jpg
265.619	1.028	correct	incongruent	Block1	incongruent/STIM_013.jpg
270.027	0.978	correct	incongruent	Block1	incongruent/STIM_013.jpg
273.723	1.605	correct	incongruent	Block1	incongruent/STIM_014.jpg
277.79	1.545	correct	incongruent	Block1	incongruent/STIM_014.jpg
281.218	1.142	correct	incongruent	Block1	incongruent/STIM_014.jpg
286.003	0.874	correct	incongruent	Block1	incongruent/STIM_014.jpg
289.576	0.891	correct	incongruent	Block1	incongruent/STIM_014.jpg
292.367	0.979	incorrect	incongruent	Block1	incongruent/STIM_015.jpg
295.493	0.943	correct	incongruent	Block1	incongruent/STIM_015.jpg
300.04	1.379	correct	incongruent	Block1	incongruent/STIM_015.jpg
303.548	1.27	correct	incongruent	Block1	incongruent/STIM_015.jpg
307.008	1.034	correct	incongruent	Block1	incongruent/STIM_015.jpg
311.9	1.535	correct	incongruent	Block1	incongruent/STIM_016.jpg
316.915	0.834	correct	incongruent	Block1	incongruent/STIM_016.jpg
319.673	1.27	correct	incongruent	Block1	incongruent/STIM_016.jpg
324.068	1.397	incorrect	incongruent	Block1	incongruent/STIM_016.jpg
328.305	0.658	correct	incongruent	Block1	incongruent/STIM_016.jpg
330.883	1.034	correct	incongruent	Block1	incongruent/STIM_017.jpg
334.557	1.279	correct	incongruent	Block1	incongruent/STIM_017.jpg
337.901	0.89	correct	incongruent	Block1	incongruent/STIM_017.jpg
342.3	1.23	correct	incongruent	Block1	incongruent/STIM_017.jpg
345.789	1.141	correct	incongruent	Block1	incongruent/STIM_017.jpg
350.484	1.268	correct	incongruent	Block1	incongruent/STIM_018.jpg
354.133	1.016	correct	incongruent	Block1	incongruent/STIM_018.jpg
357.746	1.217	correct	incongruent	Block1	incongruent/STIM_018.jpg
361.536	1.076	incorrect	incongruent	Block1	incongruent/STIM_018.jpg
364.788	1.208	correct	incongruent	Block1	incongruent/STIM_018.jpg
368.263	1.687	correct	incongruent	Block1	incongruent/STIM_019.jpg
373.168	1.504	correct	incongruent	Block1	incongruent/STIM_019.jpg
377.948	1.378	correct	incongruent	Block1	incongruent/STIM_019.jpg
382.943	1.386	correct	incongruent	Block1	incongruent/STIM_019.jpg
386.824	0.731	correct	incongruent	Block1	incongruent/STIM_019.jpg
390.505	1.556	correct	incongruent	Block1	incongruent/STIM_020.jpg
395.268	1.427	correct	incongruent	Block1	incongruent/STIM_020.jpg
400.018	1.118	correct	incongruent	Block1	incongruent/STIM_020.jpg
404.083	0.859	correct	incongruent	Block1	incongruent/STIM_020.jpg
407.663	0.764	incorrect	incongruent	Block1	incongruent/STIM_020.jpg
411.697	1.706	correct	incongruent	Block1	incongruent/STIM_021.jpg
415.339	1.158	correct	incongruent	Block1	incongruent/STIM_021.jpg
419.738	1.095	correct	incongruent	Block1	incongruent/STIM_021.jpg
423.291	1.016	correct	incongruent	Block1	incongruent/STIM_021.jpg
426.31	0.741	correct	incongruent	Block1	incongruent/STIM_021.jpg
429.891	1.058	correct	incongruent	Block1	incongruent/STIM_022.jpg
434.424	1.26	correct	incongruent	Block1	incongruent/STIM_022.jpg
437.798	0.87	correct	incongruent	Block1	incongruent/STIM_022.jpg
441.455	1.388	correct	incongruent	Block1	incongruent/STIM_022.jpg
445.602	0.796	correct	incongruent	Block1	incongruent/STIM_022.jpg
449.394	1.424	correct	incongruent	Block1	incongruent/STIM_023.jpg
453.076	1.595	correct	incongruent	Block1	incongruent/STIM_023.jpg
458.41	1.14	correct	incongruent	Block1	incongruent/STIM_023.jpg
462.014	0.835	correct	incongruent	Block1	incongruent/STIM_023.jpg
466.091	1.372	correct	incongruent	Block1	incongruent/STIM_023.jpg
469.423	1.489	correct	incongruent	Block1	incongruent/STIM_024.jpg
474.637	0.81	incorrect	incongruent	Block1	incongruent/STIM_024.jpg
477.687	0.725	correct	incongruent	Block1	incongruent/STIM_024.jpg
480.862	1.0	correct	incongruent	Block1	incongruent/STIM_024.jpg
485.535	1.333	correct	incongruent	Block1	incongruent/STIM_024.jpg
489.607	0.854	correct	incongruent	Block1	incongruent/STIM_025.jpg
493.164	1.458	correct	incongruent	Block1	incongruent/STIM_025.jpg
497.767	1.308	incorrect	incongruent	Block1	incongruent/STIM_025.jpg
501.25	0.767	correct	incongruent	Block1	incongruent/STIM_025.jpg
504.687	0.814	correct	incongruent	Block1	incongruent/STIM_025.jpg
507.463	1.709	correct	incongruent	Block1	incongruent/STIM_026.jpg
511.476	1.374	correct	incongruent	Block1	incongruent/STIM_026.jpg
514.793	0.725	correct	incongruent	Block1	incongruent/STIM_026.jpg
518.13	1.337	correct	incongruent	Block1	incongruent/STIM_026.jpg
523.136	0.91	incorrect	incongruent	Block1	incongruent/STIM_026.jpg
527.183	0.943	correct	incongruent	Block1	incongruent/STIM_027.jpg
531.457	0.887	correct	incongruent	Block1	incongruent/STIM_027.jpg
534.975	0.95	correct	incongruent	Block1	incongruent/STIM_027.jpg
539.466	0.869	correct	incongruent	Block1	incongruent/STIM_027.jpg
543.727	1.018	correct	incongruent	Block1	incongruent/STIM_027.jpg
548.499	0.819	correct	incongruent	Block1	incongruent/STIM_028.jpg
551.515	1.58	correct	incongruent	Block1	incongruent/STIM_028.jpg
555.374	1.265	correct	incongruent	Block1	incongruent/STIM_028.jpg
559.837	0.743	correct	incongruent	Block1	incongruent/STIM_028.jpg
564.081	1.28	correct	incongruent	Block1	incongruent/STIM_028.jpg
569.183	1.355	correct	incongruent	Block1	incongruent/STIM_029.jpg
574.09	0.903	correct	incongruent	Block1	incongruent/STIM_029.jpg
578.118	1.104	correct	incongruent	Block1	incongruent/STIM_029.jpg
581.446	1.171	correct	incongruent	Block1	incongruent/STIM_029.jpg
586.026	1.345	incorrect	incongruent	Block1	incongruent/STIM_029.jpg
589.835	0.943	correct	congruent	Block1	congruent/STIM_000.jpg
593.082	0.605	correct	congruent	Block1	congruent/STIM_000.jpg
596.362	0.759	correct	congruent	Block1	congruent/STIM_000.jpg
599.28	0.833	correct	congruent	Block1	congruent/STIM_000.jpg
602.991	0.937	correct	congruent	Block1	congruent/STIM_000.jpg
606.474	0.836	correct	congruent	Block1	congruent/STIM_001.jpg
609.759	0.855	correct	congruent	Block1	congruent/STIM_001.jpg
613.172	0.793	correct	congruent	Block1	congruent/STIM_001.jpg
617.151	0.869	correct	congruent	Block1	congruent/STIM_001.jpg
620.222	0.812	correct	congruent	Block1	congruent/STIM_001.jpg
624.327	0.735	correct	congruent	Block1	congruent/STIM_002.jpg
628.265	0.767	correct	congruent	Block1	congruent/STIM_002.jpg
631.902	0.747	correct	congruent	Block1	congruent/STIM_002.jpg
635.895	0.875	correct	congruent	Block1	congruent/STIM_002.jpg
639.617	0.961	correct	congruent	Block1	congruent/STIM_002.jpg
643.18	0.645	correct	congruent	Block1	congruent/STIM_003.jpg
647.738	0.835	correct	congruent	Block1	congruent/STIM_003.jpg
650.739	0.788	correct	congruent	Block1	congruent/STIM_003.jpg
654.684	0.961	correct	congruent	Block1	congruent/STIM_003.jpg
659.387	0.758	correct	congruent	Block1	congruent/STIM_003.jpg
663.498	0.841	correct	congruent	Block1	congruent/STIM_004.jpg
667.411	0.785	correct	congruent	Block1	congruent/STIM_004.jpg
671.097	0.778	correct	congruent	Block1	congruent/STIM_004.jpg
675.56	0.932	correct	congruent	Block1	congruent/STIM_004.jpg
679.775	0.623	correct	congruent	Block1	congruent/STIM_004.jpg
683.148	0.931	correct	congruent	Block1	congruent/STIM_005.jpg
686.794	0.806	correct	congruent	Block1	congruent/STIM_005.jpg
689.849	0.84	incorrect	congruent	Block1	congruent/STIM_005.jpg
693.424	0.926	correct	congruent	Block1	congruent/STIM_005.jpg
698.073	0.708	correct	congruent	Block1	congruent/STIM_005.jpg
701.69	0.73	correct	congruent	Block1	congruent/STIM_006.jpg
704.802	0.669	correct	congruent	Block1	congruent/STIM_006.jpg
708.166	0.834	incorrect	congruent	Block1	congruent/STIM_006.jpg
711.971	0.997	correct	congruent	Block1	congruent/STIM_006.jpg
715.464	0.871	correct	congruent	Block1	congruent/STIM_006.jpg
719.659	0.575	correct	congruent	Block1	congruent/STIM_007.jpg
722.896	0.694	correct	congruent	Block1	congruent/STIM_007.jpg
726.083	0.693	correct	congruent	Block1	congruent/STIM_007.jpg
730.227	0.887	correct	congruent	Block1	congruent/STIM_007.jpg
734.382	0.936	correct	congruent	Block1	congruent/STIM_007.jpg
739.03	0.65	correct	congruent	Block1	congruent/STIM_008.jpg
742.093	0.606	correct	congruent	Block1	congruent/STIM_008.jpg
744.729	0.932	correct	congruent	Block1	congruent/STIM_008.jpg
747.817	0.648	correct	congruent	Block1	congruent/STIM_008.jpg
750.997	0.9	correct	congruent	Block1	congruent/STIM_008.jpg
754.295	0.589	correct	congruent	Block1	congruent/STIM_009.jpg
758.336	0.852	correct	congruent	Block1	congruent/STIM_009.jpg
761.911	0.953	correct	congruent	Block1	congruent/STIM_009.jpg
765.25	0.924	correct	congruent	Block1	congruent/STIM_009.jpg
768.328	0.897	correct	congruent	Block1	congruent/STIM_009.jpg
772.898	0.731	correct	congruent	Block1	congruent/STIM_010.jpg
777.279	0.706	correct	congruent	Block1	congruent/STIM_010.jpg
780.843	0.76	correct	congruent	Block1	congruent/STIM_010.jpg
783.54	0.86	correct	congruent	Block1	congruent/STIM_010.jpg
786.624	0.746	correct	congruent	Block1	congruent/STIM_010.jpg
790.583	0.615	correct	congruent	Block1	congruent/STIM_011.jpg
794.701	0.698	correct	congruent	Block1	congruent/STIM_011.jpg
798.819	0.993	correct	congruent	Block1	congruent/STIM_011.jpg
802.056	0.763	correct	congruent	Block1	congruent/STIM_011.jpg
806.531	0.633	correct	congruent	Block1	congruent/STIM_011.jpg
810.207	0.783	correct	congruent	Block1	congruent/STIM_012.jpg
813.285	0.582	correct	congruent	Block1	congruent/STIM_012.jpg
816.438	0.791	incorrect	congruent	Block1	congruent/STIM_012.jpg
820.357	1.025	correct	congruent	Block1	congruent/STIM_012.jpg
823.969	0.763	incorrect	congruent	Block1	congruent/STIM_012.jpg
826.739	0.715	correct	congruent	Block1	congruent/STIM_013.jpg
830.785	0.859	correct	congruent	Block1	congruent/STIM_013.jpg
835.25	0.979	correct	congruent	Block1	congruent/STIM_013.jpg
839.004	0.926	correct	congruent	Block1	congruent/STIM_013.jpg
843.127	0.8	correct	congruent	Block1	congruent/STIM_013.jpg
847.131	0.586	incorrect	congruent	Block1	congruent/STIM_014.jpg
850.932	0.697	correct	congruent	Block1	congruent/STIM_014.jpg
854.098	0.724	correct	congruent	Block1	congruent/STIM_014.jpg
857.529	0.694	correct	congruent	Block1	congruent/STIM_014.jpg
860.174	0.654	correct	congruent	Block1	congruent/STIM_014.jpg
864.379	0.586	correct	congruent	Block1	congruent/STIM_015.jpg
868.237	0.936	correct	congruent	Block1	congruent/STIM_015.jpg
872.448	0.747	correct	congruent	Block1	congruent/STIM_015.jpg
875.183	0.75	correct	congruent	Block1	congruent/STIM_015.jpg
879.294	0.621	correct	congruent	Block1	congruent/STIM_015.jpg
882.264	0.904	correct	congruent	Block1	congruent/STIM_016.jpg
886.208	0.844	correct	congruent	Block1	congruent/STIM_016.jpg
889.844	0.585	incorrect	congruent	Block1	congruent/STIM_016.jpg
892.675	0.827	correct	congruent	Block1	congruent/STIM_016.jpg
896.903	0.636	correct	congruent	Block1	congruent/STIM_016.jpg
899.51	0.683	correct	congruent	Block1	congruent/STIM_017.jpg
902.893	0.67	correct	congruent	Block1	congruent/STIM_017.jpg
907.473	0.721	correct	congruent	Block1	congruent/STIM_017.jpg
911.41	0.861	correct	congruent	Block1	congruent/STIM_017.jpg
914.321	0.617	correct	congruent	Block1	congruent/STIM_017.jpg
918.076	0.688	correct	congruent	Block1	congruent/STIM_018.jpg
921.873	1.023	correct	congruent	Block1	congruent/STIM_018.jpg
925.233	1.007	correct	congruent	Block1	congruent/STIM_018.jpg
928.621	0.617	correct	congruent	Block1	congruent/STIM_018.jpg
932.474	0.614	correct	congruent	Block1	congruent/STIM_018.jpg
935.386	0.681	correct	congruent	Block1	congruent/STIM_019.jpg
939.356	0.793	correct	congruent	Block1	congruent/STIM_019.jpg
942.798	0.63	correct	congruent	Block1	congruent/STIM_019.jpg
945.561	0.808	correct	congruent	Block1	congruent/STIM_019.jpg
950.182	0.976	correct	congruent	Block1	congruent/STIM_019.jpg
954.345	0.813	correct	congruent	Block1	congruent/STIM_020.jpg
958.346	0.903	correct	congruent	Block1	congruent/STIM_020.jpg
962.472	0.629	correct	congruent	Block1	congruent/STIM_020.jpg
966.009	1.005	correct	congruent	Block1	congruent/STIM_020.jpg
970.281	0.802	correct	congruent	Block1	congruent/STIM_020.jpg
973.608	0.807	correct	congruent	Block1	congruent/STIM_021.jpg
978.221	0.959	correct	congruent	Block1	congruent/STIM_021.jpg
982.818	0.723	correct	congruent	Block1	congruent/STIM_021.jpg
987.174	0.906	correct	congruent	Block1	congruent/STIM_021.jpg
991.309	0.91	correct	congruent	Block1	congruent/STIM_021.jpg
995.468	0.873	correct	congruent	Block1	congruent/STIM_022.jpg
999.402	0.77	correct	congruent	Block1	congruent/STIM_022.jpg
1002.834	0.894	correct	congruent	Block1	congruent/STIM_022.jpg
1006.412	0.766	correct	congruent	Block1	congruent/STIM_022.jpg
1009.266	0.772	correct	congruent	Block1	congruent/STIM_022.jpg
1013.572	0.974	correct	congruent	Block1	congruent/STIM_023.jpg
1016.981	0.664	correct	congruent	Block1	congruent/STIM_023.jpg
1019.774	0.624	correct	congruent	Block1	congruent/STIM_023.jpg
1023.37	0.634	correct	congruent	Block1	congruent/STIM_023.jpg
1027.37	0.582	correct	congruent	Block1	congruent/STIM_023.jpg
1031.272	0.847	correct	congruent	Block1	congruent/STIM_024.jpg
1034.843	0.942	correct	congruent	Block1	congruent/STIM_024.jpg
1037.8	0.889	correct	congruent	Block1	congruent/STIM_024.jpg
1042.331	0.804	correct	congruent	Block1	congruent/STIM_024.jpg
1046.107	0.77	correct	congruent	Block1	congruent/STIM_024.jpg
1049.65	0.652	correct	congruent	Block1	congruent/STIM_025.jpg
1053.23	1.019	correct	congruent	Block1	congruent/STIM_025.jpg
1056.129	0.592	correct	congruent	Block1	congruent/STIM_025.jpg
1059.476	0.786	correct	congruent	Block1	congruent/STIM_025.jpg
1062.963	0.73	correct	congruent	Block1	congruent/STIM_025.jpg
1065.977	0.925	incorrect	congruent	Block1	congruent/STIM_026.jpg
1068.786	0.601	correct	congruent	Block1	congruent/STIM_026.jpg
1072.92	0.746	correct	congruent	Block1	congruent/STIM_026.jpg
1076.347	0.759	correct	congruent	Block1	congruent/STIM_026.jpg
1079.183	0.984	correct	congruent	Block1	congruent/STIM_026.jpg
1082.517	0.877	correct	congruent	Block1	congruent/STIM_027.jpg
1087.021	0.935	correct	congruent	Block1	congruent/STIM_027.jpg
1090.263	0.773	correct	congruent	Block1	congruent/STIM_027.jpg
1093.635	1.015	correct	congruent	Block1	congruent/STIM_027.jpg
1097.837	0.924	correct	congruent	Block1	congruent/STIM_027.jpg
1102.472	0.983	correct	congruent	Block1	congruent/STIM_028.jpg
1106.888	1.028	correct	congruent	Block1	congruent/STIM_028.jpg
1110.029	0.801	correct	congruent	Block1	congruent/STIM_028.jpg
1112.891	0.914	correct	congruent	Block1	congruent/STIM_028.jpg
1115.714	0.724	correct	congruent	Block1	congruent/STIM_028.jpg
1118.395	0.691	correct	congruent	Block1	congruent/STIM_029.jpg
1122.594	0.771	correct	congruent	Block1	congruent/STIM_029.jpg
1126.306	0.685	correct	congruent	Block1	congruent/STIM_029.jpg
1129.066	0.597	correct	congruent	Block1	congruent/STIM_029.jpg
1131.944	0.726	correct	congruent	Block1	congruent/STIM_029.jpg
1135.38	1.095	correct	incongruent	Block2	incongruent/STIM_000.jpg
1139.191	1.032	correct	incongruent	Block2	incongruent/STIM_000.jpg
1143.165	0.961	correct	incongruent	Block2	incongruent/STIM_000.jpg
1147.281	0.757	correct	incongruent	Block2	incongruent/STIM_000.jpg
1151.479	0.96	correct	incongruent	Block2	incongruent/STIM_000.jpg
1155.482	0.751	correct	incongruent	Block2	incongruent/STIM_001.jpg
1159.605	0.852	correct	incongruent	Block2	incongruent/STIM_001.jpg
1164.131	1.211	correct	incongruent	Block2	incongruent/STIM_001.jpg
1168.746	0.82	correct	incongruent	Block2	incongruent/STIM_001.jpg
1171.604	0.908	correct	incongruent	Block2	incongruent/STIM_001.jpg
1174.474	1.394	correct	incongruent	Block2	incongruent/STIM_002.jpg
1177.978	0.745	correct	incongruent	Block2	incongruent/STIM_002.jpg
1181.159	0.639	correct	incongruent	Block2	incongruent/STIM_002.jpg
1184.515	0.712	correct	incongruent	Block2	incongruent/STIM_002.jpg
1188.885	0.95	correct	incongruent	Block2	incongruent/STIM_002.jpg
1193.547	0.953	correct	incongruent	Block2	incongruent/STIM_003.jpg
1197.888	0.77	correct	incongruent	Block2	incongruent/STIM_003.jpg
1201.656	0.866	correct	incongruent	Block2	incongruent/STIM_003.jpg
1206.035	1.126	correct	incongruent	Block2	incongruent/STIM_003.jpg
1210.921	0.903	correct	incongruent	Block2	incongruent/STIM_003.jpg
1214.743	1.184	correct	incongruent	Block2	incongruent/STIM_004.jpg
1219.011	1.058	correct	incongruent	Block2	incongruent/STIM_004.jpg
1222.991	0.72	correct	incongruent	Block2	incongruent/STIM_004.jpg
1227.214	0.978	correct	incongruent	Block2	incongruent/STIM_004.jpg
1231.286	0.809	correct	incongruent	Block2	incongruent/STIM_004.jpg
1234.319	0.956	correct	incongruent	Block2	incongruent/STIM_005.jpg
1237.531	0.906	correct	incongruent	Block2	incongruent/STIM_005.jpg
1241.929	0.968	incorrect	incongruent	Block2	incongruent/STIM_005.jpg
1245.079	1.163	incorrect	incongruent	Block2	incongruent/STIM_005.jpg
1248.865	0.977	correct	incongruent	Block2	incongruent/STIM_005.jpg
1252.208	0.774	correct	incongruent	Block2	incongruent/STIM_006.jpg
1255.639	0.881	correct	incongruent	Block2	incongruent/STIM_006.jpg
1259.547	0.827	correct	incongruent	Block2	incongruent/STIM_006.jpg
1263.278	0.82	correct	incongruent	Block2	incongruent/STIM_006.jpg
1266.244	1.119	correct	incongruent	Block2	incongruent/STIM_006.jpg
1269.949	0.834	incorrect	incongruent	Block2	incongruent/STIM_007.jpg
1274.604	1.175	correct	incongruent	Block2	incongruent/STIM_007.jpg
1278.282	0.796	correct	incongruent	Block2	incongruent/STIM_007.jpg
1281.591	0.61	correct	incongruent	Block2	incongruent/STIM_007.jpg
1285.122	1.069	correct	incongruent	Block2	incongruent/STIM_007.jpg
1289.858	1.337	correct	incongruent	Block2	incongruent/STIM_008.jpg
1293.349	1.09	correct	incongruent	Block2	incongruent/STIM_008.jpg
1296.355	1.052	correct	incongruent	Block2	incongruent/STIM_008.jpg
1300.445	0.874	correct	incongruent	Block2	incongruent/STIM_008.jpg
1305.115	1.007	correct	incongruent	Block2	incongruent/STIM_008.jpg
1309.903	1.233	correct	incongruent	Block2	incongruent/STIM_009.jpg
1313.374	1.247	correct	incongruent	Block2	incongruent/STIM_009.jpg
1317.018	0.666	correct	incongruent	Block2	incongruent/STIM_009.jpg
1320.346	0.922	correct	incongruent	Block2	incongruent/STIM_009.jpg
1325.005	0.9	correct	incongruent	Block2	incongruent/STIM_009.jpg
1328.645	1.052	correct	incongruent	Block2	incongruent/STIM_010.jpg
1331.573	0.725	correct	incongruent	Block2	incongruent/STIM_010.jpg
1334.324	0.79	correct	incongruent	Block2	incongruent/STIM_010.jpg
1338.123	0.984	correct	incongruent	Block2	incongruent/STIM_010.jpg
1342.706	1.001	correct	incongruent	Block2	incongruent/STIM_010.jpg
1347.106	1.037	correct	incongruent	Block2	incongruent/STIM_011.jpg
1351.705	1.212	correct	incongruent	Block2	incongruent/STIM_011.jpg
1356.653	0.827	correct	incongruent	Block2	incongruent/STIM_011.jpg
1360.007	0.758	correct	incongruent	Block2	incongruent/STIM_011.jpg
1364.109	0.685	correct	incongruent	Block2	incongruent/STIM_011.jpg
1368.226	1.07	correct	incongruent	Block2	incongruent/STIM_012.jpg
1373.081	0.844	correct	incongruent	Block2	incongruent/STIM_012.jpg
1376.519	1.234	correct	incongruent	Block2	incongruent/STIM_012.jpg
1380.655	1.151	correct	incongruent	Block2	incongruent/STIM_012.jpg
1384.145	1.139	correct	incongruent	Block2	incongruent/STIM_012.jpg
1387.979	0.917	correct	incongruent	Block2	incongruent/STIM_013.jpg
1391.013	1.126	correct	incongruent	Block2	incongruent/STIM_013.jpg
1394.432	0.902	correct	incongruent	Block2	incongruent/STIM_013.jpg
1398.753	1.15	correct	incongruent	Block2	incongruent/STIM_013.jpg
1402.346	1.09	correct	incongruent	Block2	incongruent/STIM_013.jpg
1406.712	0.685	correct	incongruent	Block2	incongruent/STIM_014.jpg
1410.779	0.697	correct	incongruent	Block2	incongruent/STIM_014.jpg
1414.764	0.83	correct	incongruent	Block2	incongruent/STIM_014.jpg
1418.474	1.126	correct	incongruent	Block2	incongruent/STIM_014.jpg
1423.153	0.691	correct	incongruent	Block2	incongruent/STIM_014.jpg
1426.168	1.273	incorrect	incongruent	Block2	incongruent/STIM_015.jpg
1429.406	1.116	correct	incongruent	Block2	incongruent/STIM_015.jpg
1433.472	1.248	correct	incongruent	Block2	incongruent/STIM_015.jpg
1436.741	0.83	correct	incongruent	Block2	incongruent/STIM_015.jpg
1439.615	0.904	correct	incongruent	Block2	incongruent/STIM_015.jpg
1443.852	0.904	incorrect	incongruent	Block2	incongruent/STIM_016.jpg
1448.29	0.72	correct	incongruent	Block2	incongruent/STIM_016.jpg
1451.338	1.063	correct	incongruent	Block2	incongruent/STIM_016.jpg
1455.791	0.594	correct	incongruent	Block2	incongruent/STIM_016.jpg
1460.186	0.859	correct	incongruent	Block2	incongruent/STIM_016.jpg
1464.118	0.858	incorrect	incongruent	Block2	incongruent/STIM_017.jpg
1467.701	1.328	correct	incongruent	Block2	incongruent/STIM_017.jpg
1470.926	0.879	correct	incongruent	Block2	incongruent/STIM_017.jpg
1475.451	0.632	correct	incongruent	Block2	incongruent/STIM_017.jpg
1478.832	0.821	correct	incongruent	Block2	incongruent/STIM_017.jpg
1481.83	0.834	correct	incongruent	Block2	incongruent/STIM_018.jpg
1485.159	0.916	correct	incongruent	Block2	incongruent/STIM_018.jpg
1488.179	1.285	correct	incongruent	Block2	incongruent/STIM_018.jpg
1491.344	0.848	correct	incongruent	Block2	incongruent/STIM_018.jpg
1495.297	0.689	correct	incongruent	Block2	incongruent/STIM_018.jpg
1498.752	1.041	correct	incongruent	Block2	incongruent/STIM_019.jpg
1501.838	0.922	correct	incongruent	Block2	incongruent/STIM_019.jpg
1506.559	0.982	correct	incongruent	Block2	incongruent/STIM_019.jpg
1511.3	0.904	correct	incongruent	Block2	incongruent/STIM_019.jpg
1515.091	0.845	correct	incongruent	Block2	incongruent/STIM_019.jpg
1519.286	1.263	correct	incongruent	Block2	incongruent/STIM_020.jpg
1522.507	1.186	correct	incongruent	Block2	incongruent/STIM_020.jpg
1525.641	1.231	incorrect	incongruent	Block2	incongruent/STIM_020.jpg
1529.985	0.72	correct	incongruent	Block2	incongruent/STIM_020.jpg
1534.267	1.088	correct	incongruent	Block2	incongruent/STIM_020.jpg
1538.253	0.758	correct	incongruent	Block2	incongruent/STIM_021.jpg
1542.035	1.133	correct	incongruent	Block2	incongruent/STIM_021.jpg
1545.437	0.807	correct	incongruent	Block2	incongruent/STIM_021.jpg
1549.794	0.87	incorrect	incongruent	Block2	incongruent/STIM_021.jpg
1554.087	1.102	correct	incongruent	Block2	incongruent/STIM_021.jpg
1558.974	1.401	incorrect	incongruent	Block2	incongruent/STIM_022.jpg
1562.797	1.333	correct	incongruent	Block2	incongruent/STIM_022.jpg
1567.653	1.196	correct	incongruent	Block2	incongruent/STIM_022.jpg
1572.274	0.894	correct	incongruent	Block2	incongruent/STIM_022.jpg
1575.611	1.049	correct	incongruent	Block2	incongruent/STIM_022.jpg
1579.915	1.311	correct	incongruent	Block2	incongruent/STIM_023.jpg
1584.401	0.705	correct	incongruent	Block2	incongruent/STIM_023.jpg
1588.385	1.218	correct	incongruent	Block2	incongruent/STIM_023.jpg
1592.291	0.989	correct	incongruent	Block2	incongruent/STIM_023.jpg
1595.6	1.143	correct	incongruent	Block2	incongruent/STIM_023.jpg
1600.324	1.452	correct	incongruent	Block2	incongruent/STIM_024.jpg
1604.0	0.881	correct	incongruent	Block2	incongruent/STIM_024.jpg
1606.959	0.671	correct	incongruent	Block2	incongruent/STIM_024.jpg
1610.447	0.825	correct	incongruent	Block2	incongruent/STIM_024.jpg
1613.644	0.695	correct	incongruent	Block2	incongruent/STIM_024.jpg
1616.546	0.932	correct	incongruent	Block2	incongruent/STIM_025.jpg
1620.243	1.06	correct	incongruent	Block2	incongruent/STIM_025.jpg
1623.824	1.212	correct	incongruent	Block2	incongruent/STIM_025.jpg
1627.082	1.04	correct	incongruent	Block2	incongruent/STIM_025.jpg
1629.998	0.607	correct	incongruent	Block2	incongruent/STIM_025.jpg
1633.022	1.21	correct	incongruent	Block2	incongruent/STIM_026.jpg
1638.065	1.098	correct	incongruent	Block2	incongruent/STIM_026.jpg
1642.94	0.803	incorrect	incongruent	Block2	incongruent/STIM_026.jpg
1646.38	0.842	correct	incongruent	Block2	incongruent/STIM_026.jpg
1651.03	0.65	correct	incongruent	Block2	incongruent/STIM_026.jpg
1654.834	1.381	correct	incongruent	Block2	incongruent/STIM_027.jpg
1658.042	0.894	correct	incongruent	Block2	incongruent/STIM_027.jpg
1662.648	1.111	correct	incongruent	Block2	incongruent/STIM_027.jpg
1666.378	1.16	correct	incongruent	Block2	incongruent/STIM_027.jpg
1670.244	0.61	correct	incongruent	Block2	incongruent/STIM_027.jpg
1673.681	1.149	incorrect	incongruent	Block2	incongruent/STIM_028.jpg
1677.719	0.701	correct	incongruent	Block2	incongruent/STIM_028.jpg
1680.672	0.963	incorrect	incongruent	Block2	incongruent/STIM_028.jpg
1684.836	1.01	correct	incongruent	Block2	incongruent/STIM_028.jpg
1689.397	1.098	correct	incongruent	Block2	incongruent/STIM_028.jpg
1693.096	1.161	correct	incongruent	Block2	incongruent/STIM_029.jpg
1697.902	0.67	correct	incongruent	Block2	incongruent/STIM_029.jpg
1701.054	1.03	correct	incongruent	Block2	incongruent/STIM_029.jpg
1704.397	0.825	correct	incongruent	Block2	incongruent/STIM_029.jpg
1707.346	0.624	correct	incongruent	Block2	incongruent/STIM_029.jpg
1711.615	0.731	incorrect	congruent	Block2	congruent/STIM_000.jpg
1714.95	0.959	correct	congruent	Block2	congruent/STIM_000.jpg
1717.923	0.59	correct	congruent	Block2	congruent/STIM_000.jpg
1721.514	1.004	correct	congruent	Block2	congruent/STIM_000.jpg
1725.23	0.983	correct	congruent	Block2	congruent/STIM_000.jpg
1729.134	0.898	correct	congruent	Block2	congruent/STIM_001.jpg
1731.939	0.664	incorrect	congruent	Block2	congruent/STIM_001.jpg
1735.31	0.708	correct	congruent	Block2	congruent/STIM_001.jpg
1738.58	0.827	correct	congruent	Block2	congruent/STIM_001.jpg
1742.73	0.954	correct	congruent	Block2	congruent/STIM_001.jpg
1747.351	0.918	correct	congruent	Block2	congruent/STIM_002.jpg
1750.191	0.88	correct	congruent	Block2	congruent/STIM_002.jpg
1753.468	0.71	correct	congruent	Block2	congruent/STIM_002.jpg
1756.428	0.762	correct	congruent	Block2	congruent/STIM_002.jpg
1759.759	0.968	correct	congruent	Block2	congruent/STIM_002.jpg
1763.95	0.716	correct	congruent	Block2	congruent/STIM_003.jpg
1767.965	0.897	correct	congruent	Block2	congruent/STIM_003.jpg
1771.551	0.65	correct	congruent	Block2	congruent/STIM_003.jpg
1774.242	0.812	correct	congruent	Block2	congruent/STIM_003.jpg
1777.841	0.974	correct	congruent	Block2	congruent/STIM_003.jpg
1780.878	0.805	correct	congruent	Block2	congruent/STIM_004.jpg
1784.23	0.822	correct	congruent	Block2	congruent/STIM_004.jpg
1787.26	0.603	correct	congruent	Block2	congruent/STIM_004.jpg
1790.358	0.674	correct	congruent	Block2	congruent/STIM_004.jpg
1794.141	0.736	correct	congruent	Block2	congruent/STIM_004.jpg
1797.306	0.688	correct	congruent	Block2	congruent/STIM_005.jpg
1801.474	0.703	correct	congruent	Block2	congruent/STIM_005.jpg
1805.28	0.598	correct	congruent	Block2	congruent/STIM_005.jpg
1809.033	0.821	correct	congruent	Block2	congruent/STIM_005.jpg
1811.918	0.942	correct	congruent	Block2	congruent/STIM_005.jpg
1816.154	0.984	incorrect	congruent	Block2	congruent/STIM_006.jpg
1819.709	0.877	correct	congruent	Block2	congruent/STIM_006.jpg
1824.35	0.835	incorrect	congruent	Block2	congruent/STIM_006.jpg
1827.337	0.588	correct	congruent	Block2	congruent/STIM_006.jpg
1830.387	0.714	correct	congruent	Block2	congruent/STIM_006.jpg
1834.145	0.994	correct	congruent	Block2	congruent/STIM_007.jpg
1838.776	0.866	correct	congruent	Block2	congruent/STIM_007.jpg
1843.447	0.662	correct	congruent	Block2	congruent/STIM_007.jpg
1846.249	0.732	correct	congruent	Block2	congruent/STIM_007.jpg
1850.172	0.993	correct	congruent	Block2	congruent/STIM_007.jpg
1854.461	0.838	correct	congruent	Block2	congruent/STIM_008.jpg
1858.727	0.948	correct	congruent	Block2	congruent/STIM_008.jpg
1863.434	0.647	correct	congruent	Block2	congruent/STIM_008.jpg
1867.273	0.715	correct	congruent	Block2	congruent/STIM_008.jpg
1871.393	0.76	correct	congruent	Block2	congruent/STIM_008.jpg
1875.769	0.999	correct	congruent	Block2	congruent/STIM_009.jpg
1879.509	0.908	correct	congruent	Block2	congruent/STIM_009.jpg
1883.335	0.879	correct	congruent	Block2	congruent/STIM_009.jpg
1887.95	0.722	correct	congruent	Block2	congruent/STIM_009.jpg
1891.563	0.722	correct	congruent	Block2	congruent/STIM_009.jpg
1894.888	0.801	correct	congruent	Block2	congruent/STIM_010.jpg
1898.671	0.803	incorrect	congruent	Block2	congruent/STIM_010.jpg
1901.681	0.846	correct	congruent	Block2	congruent/STIM_010.jpg
1905.02	0.887	correct	congruent	Block2	congruent/STIM_010.jpg
1909.195	0.82	correct	congruent	Block2	congruent/STIM_010.jpg
1913.015	0.652	correct	congruent	Block2	congruent/STIM_011.jpg
1917.152	0.987	correct	congruent	Block2	congruent/STIM_011.jpg
1921.125	0.833	correct	congruent	Block2	congruent/STIM_011.jpg
1925.223	1.004	correct	congruent	Block2	congruent/STIM_011.jpg
1929.149	0.701	correct	congruent	Block2	congruent/STIM_011.jpg
1933.221	0.702	correct	congruent	Block2	congruent/STIM_012.jpg
1937.165	0.903	correct	congruent	Block2	congruent/STIM_012.jpg
1941.533	0.598	correct	congruent	Block2	congruent/STIM_012.jpg
1944.888	0.99	correct	congruent	Block2	congruent/STIM_012.jpg
1949.73	0.605	correct	congruent	Block2	congruent/STIM_012.jpg
1952.351	0.65	correct	congruent	Block2	congruent/STIM_013.jpg
1956.541	0.842	correct	congruent	Block2	congruent/STIM_013.jpg
1959.477	0.819	correct	congruent	Block2	congruent/STIM_013.jpg
1963.474	0.972	correct	congruent	Block2	congruent/STIM_013.jpg
1966.604	0.944	correct	congruent	Block2	congruent/STIM_013.jpg
1970.448	0.927	correct	congruent	Block2	congruent/STIM_014.jpg
1973.285	0.624	correct	congruent	Block2	congruent/STIM_014.jpg
1976.919	0.75	correct	congruent	Block2	congruent/STIM_014.jpg
1981.419	0.802	correct	congruent	Block2	congruent/STIM_014.jpg
1985.608	0.896	correct	congruent	Block2	congruent/STIM_014.jpg
1990.191	0.953	correct	congruent	Block2	congruent/STIM_015.jpg
1994.004	0.924	correct	congruent	Block2	congruent/STIM_015.jpg
1996.892	0.763	correct	congruent	Block2	congruent/STIM_015.jpg
2001.015	0.892	correct	congruent	Block2	congruent/STIM_015.jpg
2004.901	0.609	correct	congruent	Block2	congruent/STIM_015.jpg
2008.25	0.654	correct	congruent	Block2	congruent/STIM_016.jpg
2011.248	1.005	correct	congruent	Block2	congruent/STIM_016.jpg
2015.454	0.864	correct	congruent	Block2	congruent/STIM_016.jpg
2020.118	0.683	correct	congruent	Block2	congruent/STIM_016.jpg
2023.652	0.829	correct	congruent	Block2	congruent/STIM_016.jpg
2027.322	0.717	correct	congruent	Block2	congruent/STIM_017.jpg
2031.257	0.985	correct	congruent	Block2	congruent/STIM_017.jpg
2036.054	0.926	incorrect	congruent	Block2	congruent/STIM_017.jpg
2039.023	0.807	correct	congruent	Block2	congruent/STIM_017.jpg
2043.282	0.735	correct	congruent	Block2	congruent/STIM_017.jpg
2046.826	0.769	correct	congruent	Block2	congruent/STIM_018.jpg
2050.926	0.716	correct	congruent	Block2	congruent/STIM_018.jpg
2055.478	0.692	correct	congruent	Block2	congruent/STIM_018.jpg
2058.774	0.825	correct	congruent	Block2	congruent/STIM_018.jpg
2062.737	0.634	correct	congruent	Block2	congruent/STIM_018.jpg
2065.311	0.728	correct	congruent	Block2	congruent/STIM_019.jpg
2068.999	0.673	correct	congruent	Block2	congruent/STIM_019.jpg
2072.759	1.024	correct	congruent	Block2	congruent/STIM_019.jpg
2076.738	0.989	correct	congruent	Block2	congruent/STIM_019.jpg
2080.972	0.986	correct	congruent	Block2	congruent/STIM_019.jpg
2083.879	0.663	correct	congruent	Block2	congruent/STIM_020.jpg
2086.54	0.667	incorrect	congruent	Block2	congruent/STIM_020.jpg
2090.146	0.996	correct	congruent	Block2	congruent/STIM_020.jpg
2094.13	0.973	incorrect	congruent	Block2	congruent/STIM_020.jpg
2098.714	0.736	correct	congruent	Block2	congruent/STIM_020.jpg
2103.076	0.667	correct	congruent	Block2	congruent/STIM_021.jpg
2106.072	0.904	correct	congruent	Block2	congruent/STIM_021.jpg
2110.257	0.776	correct	congruent	Block2	congruent/STIM_021.jpg
2114.905	0.827	correct	congruent	Block2	congruent/STIM_021.jpg
2119.201	0.674	correct	congruent	Block2	congruent/STIM_021.jpg
2123.277	0.933	correct	congruent	Block2	congruent/STIM_022.jpg
2127.725	0.828	correct	congruent	Block2	congruent/STIM_022.jpg
2131.157	0.621	correct	congruent	Block2	congruent/STIM_022.jpg
2133.951	0.704	correct	congruent	Block2	congruent/STIM_022.jpg
2137.284	0.892	correct	congruent	Block2	congruent/STIM_022.jpg
2141.797	0.908	correct	congruent	Block2	congruent/STIM_023.jpg
2144.733	0.58	correct	congruent	Block2	congruent/STIM_023.jpg
2148.843	0.956	correct	congruent	Block2	congruent/STIM_023.jpg
2152.209	0.765	correct	congruent	Block2	congruent/STIM_023.jpg
2155.698	0.647	correct	congruent	Block2	congruent/STIM_023.jpg
2159.559	0.962	correct	congruent	Block2	congruent/STIM_024.jpg
2163.639	0.952	correct	congruent	Block2	congruent/STIM_024.jpg
2166.651	0.771	correct	congruent	Block2	congruent/STIM_024.jpg
2170.305	0.717	incorrect	congruent	Block2	congruent/STIM_024.jpg
2172.971	0.822	correct	congruent	Block2	congruent/STIM_024.jpg
2175.817	0.616	correct	congruent	Block2	congruent/STIM_025.jpg
2178.448	0.894	correct	congruent	Block2	congruent/STIM_025.jpg
2182.039	0.651	correct	congruent	Block2	congruent/STIM_025.jpg
2186.225	0.868	correct	congruent	Block2	congruent/STIM_025.jpg
2189.085	0.954	correct	congruent	Block2	congruent/STIM_025.jpg
2191.958	0.696	correct	congruent	Block2	congruent/STIM_026.jpg
2194.874	0.653	correct	congruent	Block2	congruent/STIM_026.jpg
2199.423	0.814	correct	congruent	Block2	congruent/STIM_026.jpg
2202.447	0.816	correct	congruent	Block2	congruent/STIM_026.jpg
2206.865	0.89	correct	congruent	Block2	congruent/STIM_026.jpg
2210.832	0.583	correct	congruent	Block2	congruent/STIM_027.jpg
2213.885	0.711	incorrect	congruent	Block2	congruent/STIM_027.jpg
2216.689	0.684	correct	congruent	Block2	congruent/STIM_027.jpg
2219.297	0.72	correct	congruent	Block2	congruent/STIM_027.jpg
2223.889	0.81	correct	congruent	Block2	congruent/STIM_027.jpg
2227.478	1.009	correct	congruent	Block2	congruent/STIM_028.jpg
2230.646	1.028	correct	congruent	Block2	congruent/STIM_028.jpg
2234.254	0.932	correct	congruent	Block2	congruent/STIM_028.jpg
2238.939	0.719	correct	congruent	Block2	congruent/STIM_028.jpg
2243.436	0.675	correct	congruent	Block2	congruent/STIM_028.jpg
2247.025	0.952	incorrect	congruent	Block2	congruent/STIM_029.jpg
2251.734	0.934	correct	congruent	Block2	congruent/STIM_029.jpg
2255.941	0.673	correct	congruent	Block2	congruent/STIM_029.jpg
2260.002	0.596	correct	congruent	Block2	congruent/STIM_029.jpg
2263.457	0.652	correct	congruent	Block2	congruent/STIM_029.jpg
2267.304	0.927	correct	incongruent	Block3	incongruent/STIM_000.jpg
2271.042	0.641	correct	incongruent	Block3	incongruent/STIM_000.jpg
2274.518	0.691	correct	incongruent	Block3	incongruent/STIM_000.jpg
2278.453	1.158	correct	incongruent	Block3	incongruent/STIM_000.jpg
2282.812	1.145	correct	incongruent	Block3	incongruent/STIM_000.jpg
2286.005	0.606	incorrect	incongruent	Block3	incongruent/STIM_001.jpg
2289.454	1.192	correct	incongruent	Block3	incongruent/STIM_001.jpg
2293.318	0.842	correct	incongruent	Block3	incongruent/STIM_001.jpg
2297.049	1.099	correct	incongruent	Block3	incongruent/STIM_001.jpg
2301.721	0.65	correct	incongruent	Block3	incongruent/STIM_001.jpg
2305.029	0.792	correct	incongruent	Block3	incongruent/STIM_002.jpg
2308.483	0.923	correct	incongruent	Block3	incongruent/STIM_002.jpg
2311.526	1.084	correct	incongruent	Block3	incongruent/STIM_002.jpg
2316.37	0.685	correct	incongruent	Block3	incongruent/STIM_002.jpg
2318.999	0.992	correct	incongruent	Block3	incongruent/STIM_002.jpg
2322.821	1.024	correct	incongruent	Block3	incongruent/STIM_003.jpg
2326.526	1.059	correct	incongruent	Block3	incongruent/STIM_003.jpg
2329.637	1.042	correct	incongruent	Block3	incongruent/STIM_003.jpg
2334.236	0.756	correct	incongruent	Block3	incongruent/STIM_003.jpg
2337.182	0.727	correct	incongruent	Block3	incongruent/STIM_003.jpg
2340.823	1.053	correct	incongruent	Block3	incongruent/STIM_004.jpg
2345.651	0.673	correct	incongruent	Block3	incongruent/STIM_004.jpg
2348.952	1.133	correct	incongruent	Block3	incongruent/STIM_004.jpg
2353.077	0.804	correct	incongruent	Block3	incongruent/STIM_004.jpg
2357.614	0.721	correct	incongruent	Block3	incongruent/STIM_004.jpg
2361.052	0.897	correct	incongruent	Block3	incongruent/STIM_005.jpg
2365.812	0.845	correct	incongruent	Block3	incongruent/STIM_005.jpg
2369.942	0.952	correct	incongruent	Block3	incongruent/STIM_005.jpg
2374.555	1.04	correct	incongruent	Block3	incongruent/STIM_005.jpg
2378.834	1.02	correct	incongruent	Block3	incongruent/STIM_005.jpg
2383.093	0.831	correct	incongruent	Block3	incongruent/STIM_006.jpg
2387.151	0.918	correct	incongruent	Block3	incongruent/STIM_006.jpg
2391.913	0.873	correct	incongruent	Block3	incongruent/STIM_006.jpg
2396.288	0.977	correct	incongruent	Block3	incongruent/STIM_006.jpg
2399.826	0.659	correct	incongruent	Block3	incongruent/STIM_006.jpg
2403.014	1.167	correct	incongruent	Block3	incongruent/STIM_007.jpg
2407.705	0.97	correct	incongruent	Block3	incongruent/STIM_007.jpg
2412.275	0.881	correct	incongruent	Block3	incongruent/STIM_007.jpg
2416.659	0.694	correct	incongruent	Block3	incongruent/STIM_007.jpg
2420.454	1.066	correct	incongruent	Block3	incongruent/STIM_007.jpg
2423.572	0.68	correct	incongruent	Block3	incongruent/STIM_008.jpg
2427.074	1.101	correct	incongruent	Block3	incongruent/STIM_008.jpg
2430.478	0.804	correct	incongruent	Block3	incongruent/STIM_008.jpg
2433.19	0.708	correct	incongruent	Block3	incongruent/STIM_008.jpg
2437.532	0.938	correct	incongruent	Block3	incongruent/STIM_008.jpg
2440.58	0.718	correct	incongruent	Block3	incongruent/STIM_009.jpg
2443.298	0.583	correct	incongruent	Block3	incongruent/STIM_009.jpg
2446.381	0.751	correct	incongruent	Block3	incongruent/STIM_009.jpg
2451.036	0.713	correct	incongruent	Block3	incongruent/STIM_009.jpg
2455.159	0.822	correct	incongruent	Block3	incongruent/STIM_009.jpg
2458.401	1.19	correct	incongruent	Block3	incongruent/STIM_010.jpg
2461.548	1.11	correct	incongruent	Block3	incongruent/STIM_010.jpg
2466.123	0.993	correct	incongruent	Block3	incongruent/STIM_010.jpg
2470.823	0.97	correct	incongruent	Block3	incongruent/STIM_010.jpg
2474.767	1.105	correct	incongruent	Block3	incongruent/STIM_010.jpg
2478.885	1.019	correct	incongruent	Block3	incongruent/STIM_011.jpg
2481.86	0.81	correct	incongruent	Block3	incongruent/STIM_011.jpg
2484.905	0.615	correct	incongruent	Block3	incongruent/STIM_011.jpg
2488.131	1.064	correct	incongruent	Block3	incongruent/STIM_011.jpg
2491.121	0.872	correct	incongruent	Block3	incongruent/STIM_011.jpg
2494.431	0.905	correct	incongruent	Block3	incongruent/STIM_012.jpg
2497.829	0.6	correct	incongruent	Block3	incongruent/STIM_012.jpg
2502.015	0.804	correct	incongruent	Block3	incongruent/STIM_012.jpg
2506.04	0.761	correct	incongruent	Block3	incongruent/STIM_012.jpg
2510.525	0.711	correct	incongruent	Block3	incongruent/STIM_012.jpg
2514.453	0.635	correct	incongruent	Block3	incongruent/STIM_013.jpg
2518.543	0.646	incorrect	incongruent	Block3	incongruent/STIM_013.jpg
2522.62	0.962	correct	incongruent	Block3	incongruent/STIM_013.jpg
2526.042	0.605	correct	incongruent	Block3	incongruent/STIM_013.jpg
2529.734	1.022	correct	incongruent	Block3	incongruent/STIM_013.jpg
2533.686	0.891	correct	incongruent	Block3	incongruent/STIM_014.jpg
2537.084	0.983	correct	incongruent	Block3	incongruent/STIM_014.jpg
2539.986	1.179	correct	incongruent	Block3	incongruent/STIM_014.jpg
2544.99	0.879	correct	incongruent	Block3	incongruent/STIM_014.jpg
2548.443	0.862	correct	incongruent	Block3	incongruent/STIM_014.jpg
2551.434	0.948	correct	incongruent	Block3	incongruent/STIM_015.jpg
2554.392	1.131	correct	incongruent	Block3	incongruent/STIM_015.jpg
2557.649	0.882	correct	incongruent	Block3	incongruent/STIM_015.jpg
2562.165	1.13	correct	incongruent	Block3	incongruent/STIM_015.jpg
2566.057	1.017	correct	incongruent	Block3	incongruent/STIM_015.jpg
2570.114	0.808	correct	incongruent	Block3	incongruent/STIM_016.jpg
2574.209	0.847	correct	incongruent	Block3	incongruent/STIM_016.jpg
2578.314	1.163	correct	incongruent	Block3	incongruent/STIM_016.jpg
2582.598	0.681	correct	incongruent	Block3	incongruent/STIM_016.jpg
2585.57	0.786	correct	incongruent	Block3	incongruent/STIM_016.jpg
2589.351	0.594	correct	incongruent	Block3	incongruent/STIM_017.jpg
2592.583	1.041	correct	incongruent	Block3	incongruent/STIM_017.jpg
2596.748	0.94	correct	incongruent	Block3	incongruent/STIM_017.jpg
2599.884	1.113	correct	incongruent	Block3	incongruent/STIM_017.jpg
2604.303	0.877	correct	incongruent	Block3	incongruent/STIM_017.jpg
2607.586	1.034	correct	incongruent	Block3	incongruent/STIM_018.jpg
2611.621	0.564	correct	incongruent	Block3	incongruent/STIM_018.jpg
2614.836	0.697	correct	incongruent	Block3	incongruent/STIM_018.jpg
2618.579	0.962	correct	incongruent	Block3	incongruent/STIM_018.jpg
2622.478	0.618	correct	incongruent	Block3	incongruent/STIM_018.jpg
2626.881	0.752	correct	incongruent	Block3	incongruent/STIM_019.jpg
2630.948	0.768	correct	incongruent	Block3	incongruent/STIM_019.jpg
2634.367	1.085	correct	incongruent	Block3	incongruent/STIM_019.jpg
2638.092	0.82	correct	incongruent	Block3	incongruent/STIM_019.jpg
2641.554	0.903	correct	incongruent	Block3	incongruent/STIM_019.jpg
2644.397	0.638	correct	incongruent	Block3	incongruent/STIM_020.jpg
2648.4	1.181	correct	incongruent	Block3	incongruent/STIM_020.jpg
2651.596	1.069	correct	incongruent	Block3	incongruent/STIM_020.jpg
2655.704	1.141	correct	incongruent	Block3	incongruent/STIM_020.jpg
2659.736	0.776	correct	incongruent	Block3	incongruent/STIM_020.jpg
2663.402	1.152	correct	incongruent	Block3	incongruent/STIM_021.jpg
2666.523	0.899	correct	incongruent	Block3	incongruent/STIM_021.jpg
2670.204	0.678	correct	incongruent	Block3	incongruent/STIM_021.jpg
2673.689	1.165	correct	incongruent	Block3	incongruent/STIM_021.jpg
2676.782	0.663	correct	incongruent	Block3	incongruent/STIM_021.jpg
2680.521	0.672	correct	incongruent	Block3	incongruent/STIM_022.jpg
2684.596	0.696	correct	incongruent	Block3	incongruent/STIM_022.jpg
2688.974	0.574	incorrect	incongruent	Block3	incongruent/STIM_022.jpg
2692.654	1.054	correct	incongruent	Block3	incongruent/STIM_022.jpg
2695.908	0.631	correct	incongruent	Block3	incongruent/STIM_022.jpg
2698.597	0.689	correct	incongruent	Block3	incongruent/STIM_023.jpg
2701.771	0.858	correct	incongruent	Block3	incongruent/STIM_023.jpg
2704.894	0.914	correct	incongruent	Block3	incongruent/STIM_023.jpg
2708.092	1.12	correct	incongruent	Block3	incongruent/STIM_023.jpg
2712.879	0.848	correct	incongruent	Block3	incongruent/STIM_023.jpg
2717.283	0.658	correct	incongruent	Block3	incongruent/STIM_024.jpg
2720.61	0.938	correct	incongruent	Block3	incongruent/STIM_024.jpg
2724.306	1.004	correct	incongruent	Block3	incongruent/STIM_024.jpg
2727.543	0.893	correct	incongruent	Block3	incongruent/STIM_024.jpg
2730.673	1.117	correct	incongruent	Block3	incongruent/STIM_024.jpg
2735.616	0.763	correct	incongruent	Block3	incongruent/STIM_025.jpg
2739.587	1.138	correct	incongruent	Block3	incongruent/STIM_025.jpg
2744.384	0.61	correct	incongruent	Block3	incongruent/STIM_025.jpg
2748.07	1.192	correct	incongruent	Block3	incongruent/STIM_025.jpg
2753.032	0.78	correct	incongruent	Block3	incongruent/STIM_025.jpg
2757.493	0.83	correct	incongruent	Block3	incongruent/STIM_026.jpg
2761.846	0.677	correct	incongruent	Block3	incongruent/STIM_026.jpg
2766.384	0.726	correct	incongruent	Block3	incongruent/STIM_026.jpg
2770.673	1.13	correct	incongruent	Block3	incongruent/STIM_026.jpg
2775.248	1.06	correct	incongruent	Block3	incongruent/STIM_026.jpg
2779.623	1.198	correct	incongruent	Block3	incongruent/STIM_027.jpg
2784.616	0.789	correct	incongruent	Block3	incongruent/STIM_027.jpg
2789.274	0.743	correct	incongruent	Block3	incongruent/STIM_027.jpg
2792.812	1.175	correct	incongruent	Block3	incongruent/STIM_027.jpg
2797.642	1.06	correct	incongruent	Block3	incongruent/STIM_027.jpg
2802.562	0.796	correct	incongruent	Block3	incongruent/STIM_028.jpg
2806.752	0.683	correct	incongruent	Block3	incongruent/STIM_028.jpg
2810.922	0.67	correct	incongruent	Block3	incongruent/STIM_028.jpg
2814.815	1.159	correct	incongruent	Block3	incongruent/STIM_028.jpg
2819.155	0.953	correct	incongruent	Block3	incongruent/STIM_028.jpg
2822.625	0.973	correct	incongruent	Block3	incongruent/STIM_029.jpg
2826.544	0.843	correct	incongruent	Block3	incongruent/STIM_029.jpg
2829.38	1.034	correct	incongruent	Block3	incongruent/STIM_029.jpg
2834.042	1.189	correct	incongruent	Block3	incongruent/STIM_029.jpg
2838.502	0.896	correct	incongruent	Block3	incongruent/STIM_029.jpg
2841.854	0.928	correct	congruent	Block3	congruent/STIM_000.jpg
2846.594	0.963	correct	congruent	Block3	congruent/STIM_000.jpg
2851.294	0.889	correct	congruent	Block3	congruent/STIM_000.jpg
2854.329	0.681	correct	congruent	Block3	congruent/STIM_000.jpg
2858.534	0.643	correct	congruent	Block3	congruent/STIM_000.jpg
2861.322	0.727	correct	congruent	Block3	congruent/STIM_001.jpg
2864.968	0.882	correct	congruent	Block3	congruent/STIM_001.jpg
2868.724	0.958	correct	congruent	Block3	congruent/STIM_001.jpg
2873.257	0.601	correct	congruent	Block3	congruent/STIM_001.jpg
2877.723	0.576	correct	congruent	Block3	congruent/STIM_001.jpg
2881.776	0.643	correct	congruent	Block3	congruent/STIM_002.jpg
2884.75	0.936	correct	congruent	Block3	congruent/STIM_002.jpg
2887.83	0.665	correct	congruent	Block3	congruent/STIM_002.jpg
2890.831	0.701	correct	congruent	Block3	congruent/STIM_002.jpg
2894.739	0.956	correct	congruent	Block3	congruent/STIM_002.jpg
2899.198	0.704	correct	congruent	Block3	congruent/STIM_003.jpg
2903.687	1.011	correct	congruent	Block3	congruent/STIM_003.jpg
2908.174	0.984	correct	congruent	Block3	congruent/STIM_003.jpg
2912.008	0.899	incorrect	congruent	Block3	congruent/STIM_003.jpg
2916.779	0.71	correct	congruent	Block3	congruent/STIM_003.jpg
2920.802	0.62	correct	congruent	Block3	congruent/STIM_004.jpg
2924.673	0.958	correct	congruent	Block3	congruent/STIM_004.jpg
2928.475	0.658	correct	congruent	Block3	congruent/STIM_004.jpg
2931.4	0.784	correct	congruent	Block3	congruent/STIM_004.jpg
2934.297	0.991	incorrect	congruent	Block3	congruent/STIM_004.jpg
2937.333	0.703	correct	congruent	Block3	congruent/STIM_005.jpg
2941.812	0.816	correct	congruent	Block3	congruent/STIM_005.jpg
2946.428	0.887	correct	congruent	Block3	congruent/STIM_005.jpg
2950.162	0.597	correct	congruent	Block3	congruent/STIM_005.jpg
2954.042	0.706	correct	congruent	Block3	congruent/STIM_005.jpg
2957.389	0.581	correct	congruent	Block3	congruent/STIM_006.jpg
2960.106	0.68	correct	congruent	Block3	congruent/STIM_006.jpg
2963.279	0.795	correct	congruent	Block3	congruent/STIM_006.jpg
2966.684	0.827	correct	congruent	Block3	congruent/STIM_006.jpg
2971.166	0.992	correct	congruent	Block3	congruent/STIM_006.jpg
2975.251	0.925	correct	congruent	Block3	congruent/STIM_007.jpg
2980.036	0.646	correct	congruent	Block3	congruent/STIM_007.jpg
2982.663	0.924	correct	congruent	Block3	congruent/STIM_007.jpg
2985.646	0.688	correct	congruent	Block3	congruent/STIM_007.jpg
2989.329	0.653	correct	congruent	Block3	congruent/STIM_007.jpg
2992.106	0.598	correct	congruent	Block3	congruent/STIM_008.jpg
2996.502	0.76	correct	congruent	Block3	congruent/STIM_008.jpg
3000.477	1.004	correct	congruent	Block3	congruent/STIM_008.jpg
3003.747	0.888	incorrect	congruent	Block3	congruent/STIM_008.jpg
3007.438	0.785	correct	congruent	Block3	congruent/STIM_008.jpg
3010.55	0.574	correct	congruent	Block3	congruent/STIM_009.jpg
3014.994	1.025	correct	congruent	Block3	congruent/STIM_009.jpg
3019.403	0.754	correct	congruent	Block3	congruent/STIM_009.jpg
3023.318	0.841	correct	congruent	Block3	congruent/STIM_009.jpg
3027.336	0.746	correct	congruent	Block3	congruent/STIM_009.jpg
3030.501	0.622	correct	congruent	Block3	congruent/STIM_010.jpg
3033.867	0.843	correct	congruent	Block3	congruent/STIM_010.jpg
3038.509	0.868	correct	congruent	Block3	congruent/STIM_010.jpg
3042.832	0.851	correct	congruent	Block3	congruent/STIM_010.jpg
3046.875	0.927	correct	congruent	Block3	congruent/STIM_010.jpg
3049.97	0.934	correct	congruent	Block3	congruent/STIM_011.jpg
3053.302	0.648	correct	congruent	Block3	congruent/STIM_011.jpg
3057.119	0.848	correct	congruent	Block3	congruent/STIM_011.jpg
3060.806	0.973	incorrect	congruent	Block3	congruent/STIM_011.jpg
3063.752	0.94	correct	congruent	Block3	congruent/STIM_011.jpg
3067.574	0.774	correct	congruent	Block3	congruent/STIM_012.jpg
3070.462	0.645	incorrect	congruent	Block3	congruent/STIM_012.jpg
3073.49	0.707	correct	congruent	Block3	congruent/STIM_012.jpg
3077.552	1.03	correct	congruent	Block3	congruent/STIM_012.jpg
3081.179	0.605	correct	congruent	Block3	congruent/STIM_012.jpg
3085.578	0.901	correct	congruent	Block3	congruent/STIM_013.jpg
3089.311	0.825	correct	congruent	Block3	congruent/STIM_013.jpg
3092.741	0.966	correct	congruent	Block3	congruent/STIM_013.jpg
3095.713	0.727	correct	congruent	Block3	congruent/STIM_013.jpg
3098.567	0.836	correct	congruent	Block3	congruent/STIM_013.jpg
3102.343	0.986	correct	congruent	Block3	congruent/STIM_014.jpg
3106.311	0.865	correct	congruent	Block3	congruent/STIM_014.jpg
3110.601	0.787	correct	congruent	Block3	congruent/STIM_014.jpg
3114.008	0.652	correct	congruent	Block3	congruent/STIM_014.jpg
3118.57	0.751	correct	congruent	Block3	congruent/STIM_014.jpg
3123.081	0.743	correct	congruent	Block3	congruent/STIM_015.jpg
3126.871	0.805	correct	congruent	Block3	congruent/STIM_015.jpg
3130.357	0.621	correct	congruent	Block3	congruent/STIM_015.jpg
3132.999	0.81	correct	congruent	Block3	congruent/STIM_015.jpg
3135.878	0.684	incorrect	congruent	Block3	congruent/STIM_015.jpg
3139.038	0.828	incorrect	congruent	Block3	congruent/STIM_016.jpg
3143.341	0.842	correct	congruent	Block3	congruent/STIM_016.jpg
3147.416	0.735	incorrect	congruent	Block3	congruent/STIM_016.jpg
3150.954	0.838	correct	congruent	Block3	congruent/STIM_016.jpg
3153.972	0.842	correct	congruent	Block3	congruent/STIM_016.jpg
3157.275	0.765	correct	congruent	Block3	congruent/STIM_017.jpg
3161.331	0.877	correct	congruent	Block3	congruent/STIM_017.jpg
3164.204	0.846	correct	congruent	Block3	congruent/STIM_017.jpg
3167.325	0.607	correct	congruent	Block3	congruent/STIM_017.jpg
3171.146	0.675	correct	congruent	Block3	congruent/STIM_017.jpg
3173.968	0.816	correct	congruent	Block3	congruent/STIM_018.jpg
3177.324	1.002	correct	congruent	Block3	congruent/STIM_018.jpg
3181.847	0.841	correct	congruent	Block3	congruent/STIM_018.jpg
3185.225	0.82	correct	congruent	Block3	congruent/STIM_018.jpg
3189.731	0.847	correct	congruent	Block3	congruent/STIM_018.jpg
3193.443	0.948	correct	congruent	Block3	congruent/STIM_019.jpg
3196.486	0.587	correct	congruent	Block3	congruent/STIM_019.jpg
3199.807	0.887	correct	congruent	Block3	congruent/STIM_019.jpg
3203.769	0.597	correct	congruent	Block3	congruent/STIM_019.jpg
3207.838	0.799	correct	congruent	Block3	congruent/STIM_019.jpg
3212.239	0.994	correct	congruent	Block3	congruent/STIM_020.jpg
3215.188	0.874	correct	congruent	Block3	congruent/STIM_020.jpg
3219.504	0.819	correct	congruent	Block3	congruent/STIM_020.jpg
3223.487	0.806	correct	congruent	Block3	congruent/STIM_020.jpg
3227.596	0.766	correct	congruent	Block3	congruent/STIM_020.jpg
3230.534	0.608	correct	congruent	Block3	congruent/STIM_021.jpg
3233.405	0.739	incorrect	congruent	Block3	congruent/STIM_021.jpg
3237.872	0.732	correct	congruent	Block3	congruent/STIM_021.jpg
3241.808	0.646	incorrect	congruent	Block3	congruent/STIM_021.jpg
3245.252	0.667	correct	congruent	Block3	congruent/STIM_021.jpg
3249.232	0.738	correct	congruent	Block3	congruent/STIM_022.jpg
3253.346	0.598	correct	congruent	Block3	congruent/STIM_022.jpg
3257.138	0.723	correct	congruent	Block3	congruent/STIM_022.jpg
3261.391	0.8	correct	congruent	Block3	congruent/STIM_022.jpg
3264.98	1.003	correct	congruent	Block3	congruent/STIM_022.jpg
3268.229	0.679	correct	congruent	Block3	congruent/STIM_023.jpg
3271.841	0.659	correct	congruent	Block3	congruent/STIM_023.jpg
3275.88	0.79	correct	congruent	Block3	congruent/STIM_023.jpg
3278.706	1.01	incorrect	congruent	Block3	congruent/STIM_023.jpg
3282.642	0.921	correct	congruent	Block3	congruent/STIM_023.jpg
3286.966	0.828	correct	congruent	Block3	congruent/STIM_024.jpg
3290.659	0.966	correct	congruent	Block3	congruent/STIM_024.jpg
3295.262	0.74	correct	congruent	Block3	congruent/STIM_024.jpg
3297.911	0.741	correct	congruent	Block3	congruent/STIM_024.jpg
3302.194	0.698	correct	congruent	Block3	congruent/STIM_024.jpg
3306.159	0.621	correct	congruent	Block3	congruent/STIM_025.jpg
3308.859	0.674	correct	congruent	Block3	congruent/STIM_025.jpg
3311.518	0.757	correct	congruent	Block3	congruent/STIM_025.jpg
3314.882	0.582	correct	congruent	Block3	congruent/STIM_025.jpg
3317.77	1.006	correct	congruent	Block3	congruent/STIM_025.jpg
3320.676	0.604	correct	congruent	Block3	congruent/STIM_026.jpg
3324.826	0.664	correct	congruent	Block3	congruent/STIM_026.jpg
3328.692	0.63	correct	congruent	Block3	congruent/STIM_026.jpg
3331.25	0.775	correct	congruent	Block3	congruent/STIM_026.jpg
3334.971	0.763	correct	congruent	Block3	congruent/STIM_026.jpg
3338.703	0.869	correct	congruent	Block3	congruent/STIM_027.jpg
3342.002	0.971	correct	congruent	Block3	congruent/STIM_027.jpg
3345.984	0.809	correct	congruent	Block3	congruent/STIM_027.jpg
3349.065	0.842	correct	congruent	Block3	congruent/STIM_027.jpg
3352.056	0.977	correct	congruent	Block3	congruent/STIM_027.jpg
3356.75	0.781	correct	congruent	Block3	congruent/STIM_028.jpg
3361.204	1.015	correct	congruent	Block3	congruent/STIM_028.jpg
3365.964	0.74	correct	congruent	Block3	congruent/STIM_028.jpg
3369.231	0.998	correct	congruent	Block3	congruent/STIM_028.jpg
3372.894	1.024	correct	congruent	Block3	congruent/STIM_028.jpg
3376.516	0.62	correct	congruent	Block3	congruent/STIM_029.jpg
3380.935	0.718	correct	congruent	Block3	congruent/STIM_029.jpg
3384.096	0.907	correct	congruent	Block3	congruent/STIM_029.jpg
3387.437	0.762	correct	congruent	Block3	congruent/STIM_029.jpg
3391.175	0.725	correct	congruent	Block3	congruent/STIM_029.jpg
