onset	duration	accuracy_binary	trial_type	learning_stage	stimulus
0.0	1.296	1	study	Phase1	study/STIM_000.jpg
5.015	1.772	1	study	Phase1	study/STIM_000.jpg
9.335	1.583	1	study	Phase1	study/STIM_000.jpg
13.897	1.699	1	study	Phase1	study/STIM_001.jpg
19.296	1.86	1	study	Phase1	study/STIM_001.jpg
24.874	1.586	1	study	Phase1	study/STIM_001.jpg
30.145	1.106	0	study	Phase1	study/STIM_002.jpg
33.667	0.938	1	study	Phase1	study/STIM_002.jpg
37.242	1.137	1	study	Phase1	study/STIM_002.jpg
40.396	1.089	1	study	Phase1	study/STIM_003.jpg
45.16	1.812	1	study	Phase1	study/STIM_003.jpg
50.188	1.641	1	study	Phase1	study/STIM_003.jpg
55.185	1.962	1	study	Phase1	study/STIM_004.jpg
59.102	1.511	1	study	Phase1	study/STIM_004.jpg
63.063	1.706	1	study	Phase1	study/STIM_004.jpg
67.137	1.739	1	study	Phase1	study/STIM_005.jpg
71.361	0.944	1	study	Phase1	study/STIM_005.jpg
74.409	1.271	0	study	Phase1	study/STIM_005.jpg
79.415	1.002	0	study	Phase1	study/STIM_006.jpg
83.725	1.055	1	study	Phase1	study/STIM_006.jpg
87.017	1.388	0	study	Phase1	study/STIM_006.jpg
91.028	1.822	1	study	Phase1	study/STIM_007.jpg
96.33	1.653	1	study	Phase1	study/STIM_007.jpg
100.521	1.265	1	study	Phase1	study/STIM_007.jpg
103.741	1.617	1	study	Phase1	study/STIM_008.jpg
107.781	1.689	1	study	Phase1	study/STIM_008.jpg
112.554	1.021	1	study	Phase1	study/STIM_008.jpg
115.741	1.949	1	study	Phase1	study/STIM_009.jpg
121.16	1.805	0	study	Phase1	study/STIM_009.jpg
124.813	1.664	1	study	Phase1	study/STIM_009.jpg
128.629	1.801	1	study	Phase1	study/STIM_010.jpg
133.182	1.833	1	study	Phase1	study/STIM_010.jpg
137.727	0.808	1	study	Phase1	study/STIM_010.jpg
140.716	1.211	1	study	Phase1	study/STIM_011.jpg
143.822	1.409	1	study	Phase1	study/STIM_011.jpg
147.143	1.433	1	study	Phase1	study/STIM_011.jpg
151.909	1.566	1	study	Phase1	study/STIM_012.jpg
156.285	1.07	0	study	Phase1	study/STIM_012.jpg
160.975	1.482	1	study	Phase1	study/STIM_012.jpg
164.846	1.837	1	study	Phase1	study/STIM_013.jpg
170.092	1.438	1	study	Phase1	study/STIM_013.jpg
174.647	1.491	1	study	Phase1	study/STIM_013.jpg
178.704	1.75	1	study	Phase1	study/STIM_014.jpg
182.677	1.691	1	study	Phase1	study/STIM_014.jpg
187.036	1.316	1	study	Phase1	study/STIM_014.jpg
192.015	1.444	1	study	Phase1	study/STIM_015.jpg
196.551	1.669	1	study	Phase1	study/STIM_015.jpg
200.355	1.42	1	study	Phase1	study/STIM_015.jpg
204.884	1.073	1	study	Phase1	study/STIM_016.jpg
209.178	1.748	1	study	Phase1	study/STIM_016.jpg
214.628	0.94	1	study	Phase1	study/STIM_016.jpg
218.445	1.755	1	study	Phase1	study/STIM_017.jpg
223.885	1.267	1	study	Phase1	study/STIM_017.jpg
228.993	1.673	1	study	Phase1	study/STIM_017.jpg
233.476	1.734	1	study	Phase1	study/STIM_018.jpg
238.456	0.851	1	study	Phase1	study/STIM_018.jpg
241.669	1.044	1	study	Phase1	study/STIM_018.jpg
246.228	1.261	1	study	Phase1	study/STIM_019.jpg
251.233	1.168	1	study	Phase1	study/STIM_019.jpg
254.465	1.088	1	study	Phase1	study/STIM_019.jpg
257.811	1.477	1	study	Phase1	study/STIM_020.jpg
263.128	1.234	1	study	Phase1	study/STIM_020.jpg
267.191	1.127	1	study	Phase1	study/STIM_020.jpg
270.952	1.857	1	study	Phase1	study/STIM_021.jpg
275.139	1.671	1	study	Phase1	study/STIM_021.jpg
278.943	1.788	1	study	Phase1	study/STIM_021.jpg
283.98	1.82	1	study	Phase1	study/STIM_022.jpg
287.942	1.298	1	study	Phase1	study/STIM_022.jpg
293.116	0.815	1	study	Phase1	study/STIM_022.jpg
297.463	1.566	1	study	Phase1	study/STIM_023.jpg
302.631	1.432	1	study	Phase1	study/STIM_023.jpg
306.348	1.308	1	study	Phase1	study/STIM_023.jpg
311.14	1.742	1	study	Phase1	study/STIM_024.jpg
315.509	1.228	1	study	Phase1	study/STIM_024.jpg
319.476	1.097	1	study	Phase1	study/STIM_024.jpg
324.043	1.65	1	study	Phase1	study/STIM_025.jpg
329.434	1.046	1	study	Phase1	study/STIM_025.jpg
332.558	1.464	1	study	Phase1	study/STIM_025.jpg
337.449	1.617	1	study	Phase1	study/STIM_026.jpg
341.001	1.589	0	study	Phase1	study/STIM_026.jpg
344.505	0.944	1	study	Phase1	study/STIM_026.jpg
349.295	1.458	1	study	Phase1	study/STIM_027.jpg
353.258	1.659	1	study	Phase1	study/STIM_027.jpg
356.876	1.102	1	study	Phase1	study/STIM_027.jpg
360.525	1.361	1	study	Phase1	study/STIM_028.jpg
365.727	1.634	0	study	Phase1	study/STIM_028.jpg
369.693	1.098	1	study	Phase1	study/STIM_028.jpg
373.044	1.166	1	study	Phase1	study/STIM_029.jpg
377.325	1.197	1	study	Phase1	study/STIM_029.jpg
381.657	0.925	1	study	Phase1	study/STIM_029.jpg
385.262	1.101	1	test	Phase1	test/STIM_000.jpg
389.633	0.955	1	test	Phase1	test/STIM_000.jpg
392.92	1.044	1	test	Phase1	test/STIM_000.jpg
397.355	0.724	1	test	Phase1	test/STIM_001.jpg
400.158	1.085	1	test	Phase1	test/STIM_001.jpg
403.163	1.17	1	test	Phase1	test/STIM_001.jpg
406.456	0.924	1	test	Phase1	test/STIM_002.jpg
410.666	0.898	0	test	Phase1	test/STIM_002.jpg
415.254	0.902	1	test	Phase1	test/STIM_002.jpg
418.257	0.708	1	test	Phase1	test/STIM_003.jpg
421.883	1.289	1	test	Phase1	test/STIM_003.jpg
425.624	1.059	1	test	Phase1	test/STIM_003.jpg
429.124	0.943	1	test	Phase1	test/STIM_004.jpg
432.238	1.135	1	test	Phase1	test/STIM_004.jpg
435.603	0.668	0	test	Phase1	test/STIM_004.jpg
439.707	0.735	1	test	Phase1	test/STIM_005.jpg
442.85	1.088	1	test	Phase1	test/STIM_005.jpg
447.801	1.26	1	test	Phase1	test/STIM_005.jpg
452.098	1.233	1	test	Phase1	test/STIM_006.jpg
455.296	1.37	1	test	Phase1	test/STIM_006.jpg
459.947	1.261	1	test	Phase1	test/STIM_006.jpg
464.995	1.379	1	test	Phase1	test/STIM_007.jpg
468.554	1.1	1	test	Phase1	test/STIM_007.jpg
473.412	0.977	1	test	Phase1	test/STIM_007.jpg
477.57	0.872	1	test	Phase1	test/STIM_008.jpg
481.18	0.952	1	test	Phase1	test/STIM_008.jpg
484.322	0.98	1	test	Phase1	test/STIM_008.jpg
487.733	1.143	1	test	Phase1	test/STIM_009.jpg
491.311	1.343	1	test	Phase1	test/STIM_009.jpg
494.667	1.43	1	test	Phase1	test/STIM_009.jpg
498.245	1.376	1	test	Phase1	test/STIM_010.jpg
503.349	1.411	1	test	Phase1	test/STIM_010.jpg
507.21	1.378	1	test	Phase1	test/STIM_010.jpg
511.14	1.018	1	test	Phase1	test/STIM_011.jpg
515.933	1.297	1	test	Phase1	test/STIM_011.jpg
519.126	0.716	1	test	Phase1	test/STIM_011.jpg
523.404	1.061	1	test	Phase1	test/STIM_012.jpg
526.845	1.018	1	test	Phase1	test/STIM_012.jpg
530.315	0.965	1	test	Phase1	test/STIM_012.jpg
535.098	1.37	1	test	Phase1	test/STIM_013.jpg
539.475	1.291	1	test	Phase1	test/STIM_013.jpg
543.212	0.944	1	test	Phase1	test/STIM_013.jpg
547.352	1.3	1	test	Phase1	test/STIM_014.jpg
551.151	1.115	1	test	Phase1	test/STIM_014.jpg
554.24	0.852	1	test	Phase1	test/STIM_014.jpg
557.024	1.264	1	test	Phase1	test/STIM_015.jpg
561.506	0.789	1	test	Phase1	test/STIM_015.jpg
564.341	1.434	0	test	Phase1	test/STIM_015.jpg
567.82	1.138	1	test	Phase1	test/STIM_016.jpg
572.625	1.306	0	test	Phase1	test/STIM_016.jpg
577.277	0.765	0	test	Phase1	test/STIM_016.jpg
580.099	1.283	1	test	Phase1	test/STIM_017.jpg
585.222	1.16	1	test	Phase1	test/STIM_017.jpg
588.451	0.945	1	test	Phase1	test/STIM_017.jpg
592.564	0.737	1	test	Phase1	test/STIM_018.jpg
596.624	1.232	1	test	Phase1	test/STIM_018.jpg
601.041	1.272	1	test	Phase1	test/STIM_018.jpg
606.079	0.832	1	test	Phase1	test/STIM_019.jpg
610.746	0.801	0	test	Phase1	test/STIM_019.jpg
614.066	0.784	1	test	Phase1	test/STIM_019.jpg
617.332	0.711	1	test	Phase1	test/STIM_020.jpg
620.075	0.872	1	test	Phase1	test/STIM_020.jpg
622.912	0.79	1	test	Phase1	test/STIM_020.jpg
625.703	0.681	1	test	Phase1	test/STIM_021.jpg
628.497	0.95	1	test	Phase1	test/STIM_021.jpg
632.082	0.909	1	test	Phase1	test/STIM_021.jpg
635.903	1.187	1	test	Phase1	test/STIM_022.jpg
640.568	1.384	1	test	Phase1	test/STIM_022.jpg
645.802	0.912	1	test	Phase1	test/STIM_022.jpg
649.434	1.268	1	test	Phase1	test/STIM_023.jpg
653.691	0.782	0	test	Phase1	test/STIM_023.jpg
657.21	0.946	1	test	Phase1	test/STIM_023.jpg
661.767	0.879	1	test	Phase1	test/STIM_024.jpg
665.521	1.377	0	test	Phase1	test/STIM_024.jpg
669.432	1.156	1	test	Phase1	test/STIM_024.jpg
672.661	1.038	1	test	Phase1	test/STIM_025.jpg
677.419	1.083	1	test	Phase1	test/STIM_025.jpg
681.621	1.29	1	test	Phase1	test/STIM_025.jpg
685.591	0.858	1	test	Phase1	test/STIM_026.jpg
690.028	0.766	1	test	Phase1	test/STIM_026.jpg
694.456	1.22	1	test	Phase1	test/STIM_026.jpg
698.181	1.061	1	test	Phase1	test/STIM_027.jpg
702.596	0.846	1	test	Phase1	test/STIM_027.jpg
705.552	1.212	1	test	Phase1	test/STIM_027.jpg
709.561	0.727	0	test	Phase1	test/STIM_028.jpg
713.113	0.725	1	test	Phase1	test/STIM_028.jpg
716.009	0.816	1	test	Phase1	test/STIM_028.jpg
720.593	0.824	1	test	Phase1	test/STIM_029.jpg
724.799	1.186	1	test	Phase1	test/STIM_029.jpg
729.805	1.104	1	test	Phase1	test/STIM_029.jpg
733.577	1.154	1	study	Phase2	study/STIM_000.jpg
737.969	0.946	1	study	Phase2	study/STIM_000.jpg
741.022	1.261	0	study	Phase2	study/STIM_000.jpg
745.703	1.602	1	study	Phase2	study/STIM_001.jpg
750.741	1.086	1	study	Phase2	study/STIM_001.jpg
754.338	1.434	1	study	Phase2	study/STIM_001.jpg
758.408	0.938	1	study	Phase2	study/STIM_002.jpg
762.425	1.583	1	study	Phase2	study/STIM_002.jpg
767.528	1.265	1	study	Phase2	study/STIM_002.jpg
772.545	1.188	1	study	Phase2	study/STIM_003.jpg
776.009	0.976	0	study	Phase2	study/STIM_003.jpg
780.212	1.164	1	study	Phase2	study/STIM_003.jpg
785.2	1.402	1	study	Phase2	study/STIM_004.jpg
789.227	1.163	1	study	Phase2	study/STIM_004.jpg
792.831	0.869	1	study	Phase2	study/STIM_004.jpg
797.544	1.089	1	study	Phase2	study/STIM_005.jpg
801.971	0.851	1	study	Phase2	study/STIM_005.jpg
806.073	0.716	1	study	Phase2	study/STIM_005.jpg
809.654	1.535	1	study	Phase2	study/STIM_006.jpg
814.791	1.459	1	study	Phase2	study/STIM_006.jpg
819.357	1.426	1	study	Phase2	study/STIM_006.jpg
823.363	1.08	1	study	Phase2	study/STIM_007.jpg
827.331	1.027	1	study	Phase2	study/STIM_007.jpg
831.451	1.383	1	study	Phase2	study/STIM_007.jpg
835.141	1.514	1	study	Phase2	study/STIM_008.jpg
839.913	1.303	1	study	Phase2	study/STIM_008.jpg
844.753	1.407	1	study	Phase2	study/STIM_008.jpg
848.814	0.836	1	study	Phase2	study/STIM_009.jpg
851.853	1.474	1	study	Phase2	study/STIM_009.jpg
856.94	1.092	1	study	Phase2	study/STIM_009.jpg
860.656	0.809	1	study	Phase2	study/STIM_010.jpg
864.405	1.503	1	study	Phase2	study/STIM_010.jpg
869.491	1.491	1	study	Phase2	study/STIM_010.jpg
874.16	1.142	0	study	Phase2	study/STIM_011.jpg
877.676	0.923	1	study	Phase2	study/STIM_011.jpg
881.222	0.875	1	study	Phase2	study/STIM_011.jpg
884.082	1.442	1	study	Phase2	study/STIM_012.jpg
888.639	1.191	1	study	Phase2	study/STIM_012.jpg
892.723	0.962	1	study	Phase2	study/STIM_012.jpg
897.218	0.908	1	study	Phase2	study/STIM_013.jpg
901.76	1.259	1	study	Phase2	study/STIM_013.jpg
906.696	1.463	1	study	Phase2	study/STIM_013.jpg
910.387	1.563	0	study	Phase2	study/STIM_014.jpg
915.497	0.973	1	study	Phase2	study/STIM_014.jpg
919.222	0.696	1	study	Phase2	study/STIM_014.jpg
922.811	0.787	1	study	Phase2	study/STIM_015.jpg
925.834	1.116	1	study	Phase2	study/STIM_015.jpg
929.031	1.178	1	study	Phase2	study/STIM_015.jpg
932.218	0.783	1	study	Phase2	study/STIM_016.jpg
936.297	1.557	1	study	Phase2	study/STIM_016.jpg
939.798	0.876	1	study	Phase2	study/STIM_016.jpg
942.617	1.316	1	study	Phase2	study/STIM_017.jpg
945.941	0.932	1	study	Phase2	study/STIM_017.jpg
950.308	0.804	1	study	Phase2	study/STIM_017.jpg
954.023	0.801	0	study	Phase2	study/STIM_018.jpg
958.348	1.149	1	study	Phase2	study/STIM_018.jpg
962.971	1.123	1	study	Phase2	study/STIM_018.jpg
966.177	0.94	1	study	Phase2	study/STIM_019.jpg
969.04	0.711	0	study	Phase2	study/STIM_019.jpg
973.418	1.475	1	study	Phase2	study/STIM_019.jpg
978.654	1.547	1	study	Phase2	study/STIM_020.jpg
982.862	1.258	1	study	Phase2	study/STIM_020.jpg
986.628	1.289	1	study	Phase2	study/STIM_020.jpg
991.647	1.133	1	study	Phase2	study/STIM_021.jpg
995.093	1.314	1	study	Phase2	study/STIM_021.jpg
998.757	1.238	1	study	Phase2	study/STIM_021.jpg
1003.569	1.266	1	study	Phase2	study/STIM_022.jpg
1007.465	0.956	1	study	Phase2	study/STIM_022.jpg
1011.747	0.677	1	study	Phase2	study/STIM_022.jpg
1014.722	1.651	1	study	Phase2	study/STIM_023.jpg
1018.47	0.754	1	study	Phase2	study/STIM_023.jpg
1022.854	1.022	1	study	Phase2	study/STIM_023.jpg
1026.559	1.465	1	study	Phase2	study/STIM_024.jpg
1031.616	1.371	1	study	Phase2	study/STIM_024.jpg
1035.539	1.199	1	study	Phase2	study/STIM_024.jpg
1040.36	1.059	1	study	Phase2	study/STIM_025.jpg
1043.405	0.811	1	study	Phase2	study/STIM_025.jpg
1046.828	0.759	1	study	Phase2	study/STIM_025.jpg
1050.054	1.007	1	study	Phase2	study/STIM_026.jpg
1054.673	1.38	1	study	Phase2	study/STIM_026.jpg
1059.903	0.672	0	study	Phase2	study/STIM_026.jpg
1062.751	1.631	1	study	Phase2	study/STIM_027.jpg
1066.927	1.572	1	study	Phase2	study/STIM_027.jpg
1070.445	0.702	1	study	Phase2	study/STIM_027.jpg
1073.221	1.551	1	study	Phase2	study/STIM_028.jpg
1076.672	0.901	0	study	Phase2	study/STIM_028.jpg
1079.634	1.105	1	study	Phase2	study/STIM_028.jpg
1083.594	1.114	1	study	Phase2	study/STIM_029.jpg
1087.075	1.222	1	study	Phase2	study/STIM_029.jpg
1090.99	1.441	1	study	Phase2	study/STIM_029.jpg
1095.953	0.925	1	test	Phase2	test/STIM_000.jpg
1100.629	1.204	1	test	Phase2	test/STIM_000.jpg
1104.633	1.089	1	test	Phase2	test/STIM_000.jpg
1109.202	1.259	1	test	Phase2	test/STIM_001.jpg
1112.645	0.944	1	test	Phase2	test/STIM_001.jpg
1115.959	0.912	1	test	Phase2	test/STIM_001.jpg
1119.964	1.36	1	test	Phase2	test/STIM_002.jpg
1123.914	1.256	1	test	Phase2	test/STIM_002.jpg
1128.096	0.892	1	test	Phase2	test/STIM_002.jpg
1132.828	0.836	1	test	Phase2	test/STIM_003.jpg
1135.668	0.665	1	test	Phase2	test/STIM_003.jpg
1139.195	1.085	1	test	Phase2	test/STIM_003.jpg
1142.435	0.929	1	test	Phase2	test/STIM_004.jpg
1145.948	1.121	1	test	Phase2	test/STIM_004.jpg
1150.427	1.04	0	test	Phase2	test/STIM_004.jpg
1155.17	0.864	1	test	Phase2	test/STIM_005.jpg
1159.5	1.253	1	test	Phase2	test/STIM_005.jpg
1162.702	1.339	1	test	Phase2	test/STIM_005.jpg
1166.964	0.786	1	test	Phase2	test/STIM_006.jpg
1170.064	1.409	1	test	Phase2	test/STIM_006.jpg
1174.532	1.292	1	test	Phase2	test/STIM_006.jpg
1177.821	0.863	1	test	Phase2	test/STIM_007.jpg
1182.304	1.38	0	test	Phase2	test/STIM_007.jpg
1186.05	0.712	1	test	Phase2	test/STIM_007.jpg
1189.042	0.98	0	test	Phase2	test/STIM_008.jpg
1193.789	1.133	1	test	Phase2	test/STIM_008.jpg
1198.02	1.136	1	test	Phase2	test/STIM_008.jpg
1201.526	0.932	0	test	Phase2	test/STIM_009.jpg
1205.753	0.989	1	test	Phase2	test/STIM_009.jpg
1210.19	0.869	1	test	Phase2	test/STIM_009.jpg
1214.016	0.704	0	test	Phase2	test/STIM_010.jpg
1216.781	1.244	1	test	Phase2	test/STIM_010.jpg
1220.752	1.182	1	test	Phase2	test/STIM_010.jpg
1225.445	0.707	1	test	Phase2	test/STIM_011.jpg
1228.184	0.71	1	test	Phase2	test/STIM_011.jpg
1231.469	0.842	1	test	Phase2	test/STIM_011.jpg
1235.875	1.28	1	test	Phase2	test/STIM_012.jpg
1240.353	0.951	1	test	Phase2	test/STIM_012.jpg
1244.565	0.96	1	test	Phase2	test/STIM_012.jpg
1247.665	1.079	1	test	Phase2	test/STIM_013.jpg
1252.419	0.777	1	test	Phase2	test/STIM_013.jpg
1256.094	1.362	1	test	Phase2	test/STIM_013.jpg
1259.659	0.772	0	test	Phase2	test/STIM_014.jpg
1264.097	1.142	1	test	Phase2	test/STIM_014.jpg
1268.864	0.893	1	test	Phase2	test/STIM_014.jpg
1273.191	0.679	1	test	Phase2	test/STIM_015.jpg
1277.49	0.969	1	test	Phase2	test/STIM_015.jpg
1282.061	1.245	0	test	Phase2	test/STIM_015.jpg
1285.403	1.158	1	test	Phase2	test/STIM_016.jpg
1288.747	1.323	1	test	Phase2	test/STIM_016.jpg
1292.778	1.133	1	test	Phase2	test/STIM_016.jpg
1295.875	0.733	1	test	Phase2	test/STIM_017.jpg
1299.515	1.135	1	test	Phase2	test/STIM_017.jpg
1303.302	0.686	1	test	Phase2	test/STIM_017.jpg
1306.859	0.77	1	test	Phase2	test/STIM_018.jpg
1309.591	0.688	1	test	Phase2	test/STIM_018.jpg
1312.678	0.854	1	test	Phase2	test/STIM_018.jpg
1315.934	1.184	1	test	Phase2	test/STIM_019.jpg
1319.775	1.218	1	test	Phase2	test/STIM_019.jpg
1323.534	1.19	1	test	Phase2	test/STIM_019.jpg
1327.843	0.944	1	test	Phase2	test/STIM_020.jpg
1331.481	1.168	1	test	Phase2	test/STIM_020.jpg
1335.478	1.25	1	test	Phase2	test/STIM_020.jpg
1340.042	1.251	1	test	Phase2	test/STIM_021.jpg
1343.223	0.751	1	test	Phase2	test/STIM_021.jpg
1346.154	1.04	1	test	Phase2	test/STIM_021.jpg
1350.719	0.737	1	test	Phase2	test/STIM_022.jpg
1354.396	0.847	0	test	Phase2	test/STIM_022.jpg
1358.533	1.116	1	test	Phase2	test/STIM_022.jpg
1362.937	0.808	1	test	Phase2	test/STIM_023.jpg
1367.164	1.235	1	test	Phase2	test/STIM_023.jpg
1370.687	0.835	1	test	Phase2	test/STIM_023.jpg
1373.754	0.892	1	test	Phase2	test/STIM_024.jpg
1377.23	0.671	0	test	Phase2	test/STIM_024.jpg
1380.199	0.814	1	test	Phase2	test/STIM_024.jpg
1384.093	1.097	1	test	Phase2	test/STIM_025.jpg
1387.187	1.042	1	test	Phase2	test/STIM_025.jpg
1392.038	0.721	1	test	Phase2	test/STIM_025.jpg
1395.073	0.689	1	test	Phase2	test/STIM_026.jpg
1398.845	1.128	1	test	Phase2	test/STIM_026.jpg
1403.721	0.705	1	test	Phase2	test/STIM_026.jpg
1407.225	1.394	1	test	Phase2	test/STIM_027.jpg
1410.487	0.836	1	test	Phase2	test/STIM_027.jpg
1414.633	1.17	1	test	Phase2	test/STIM_027.jpg
1418.088	0.674	1	test	Phase2	test/STIM_028.jpg
1421.456	1.331	1	test	Phase2	test/STIM_028.jpg
1426.173	0.717	0	test	Phase2	test/STIM_028.jpg
1430.603	0.868	1	test	Phase2	test/STIM_029.jpg
1433.781	1.334	0	test	Phase2	test/STIM_029.jpg
1437.451	1.42	1	test	Phase2	test/STIM_029.jpg
1442.401	1.196	1	study	Phase3	study/STIM_000.jpg
1447.209	1.073	1	study	Phase3	study/STIM_000.jpg
1450.833	1.377	1	study	Phase3	study/STIM_000.jpg
1454.376	0.776	1	study	Phase3	study/STIM_001.jpg
1457.131	0.878	1	study	Phase3	study/STIM_001.jpg
1460.335	1.294	1	study	Phase3	study/STIM_001.jpg
1465.42	0.732	1	study	Phase3	study/STIM_002.jpg
1469.195	1.231	1	study	Phase3	study/STIM_002.jpg
1472.791	1.019	1	study	Phase3	study/STIM_002.jpg
1476.673	0.932	1	study	Phase3	study/STIM_003.jpg
1480.746	0.996	1	study	Phase3	study/STIM_003.jpg
1484.171	1.308	1	study	Phase3	study/STIM_003.jpg
1488.01	1.038	1	study	Phase3	study/STIM_004.jpg
1491.487	0.679	1	study	Phase3	study/STIM_004.jpg
1495.927	1.148	1	study	Phase3	study/STIM_004.jpg
1500.391	1.366	1	study	Phase3	study/STIM_005.jpg
1504.488	0.84	1	study	Phase3	study/STIM_005.jpg
1507.944	0.674	1	study	Phase3	study/STIM_005.jpg
1511.985	0.854	1	study	Phase3	study/STIM_006.jpg
1515.897	1.236	1	study	Phase3	study/STIM_006.jpg
1519.073	1.226	1	study	Phase3	study/STIM_006.jpg
1522.363	1.214	1	study	Phase3	study/STIM_007.jpg
1525.809	1.039	1	study	Phase3	study/STIM_007.jpg
1529.692	1.316	1	study	Phase3	study/STIM_007.jpg
1534.088	0.935	1	study	Phase3	study/STIM_008.jpg
1537.201	0.683	1	study	Phase3	study/STIM_008.jpg
1540.973	1.324	1	study	Phase3	study/STIM_008.jpg
1545.38	1.155	1	study	Phase3	study/STIM_009.jpg
1548.651	0.715	1	study	Phase3	study/STIM_009.jpg
1551.41	1.181	1	study	Phase3	study/STIM_009.jpg
1556.102	0.824	1	study	Phase3	study/STIM_010.jpg
1560.104	0.711	1	study	Phase3	study/STIM_010.jpg
1564.541	0.843	1	study	Phase3	study/STIM_010.jpg
1567.387	1.264	1	study	Phase3	study/STIM_011.jpg
1571.749	1.024	1	study	Phase3	study/STIM_011.jpg
1575.183	1.051	1	study	Phase3	study/STIM_011.jpg
1578.985	1.108	1	study	Phase3	study/STIM_012.jpg
1583.014	1.173	1	study	Phase3	study/STIM_012.jpg
1586.898	0.745	1	study	Phase3	study/STIM_012.jpg
1589.82	1.006	1	study	Phase3	study/STIM_013.jpg
1593.119	0.693	1	study	Phase3	study/STIM_013.jpg
1597.481	1.086	1	study	Phase3	study/STIM_013.jpg
1600.693	0.861	1	study	Phase3	study/STIM_014.jpg
1605.192	1.132	1	study	Phase3	study/STIM_014.jpg
1608.819	1.206	1	study	Phase3	study/STIM_014.jpg
1612.984	0.652	1	study	Phase3	study/STIM_015.jpg
1617.066	0.918	1	study	Phase3	study/STIM_015.jpg
1620.946	1.32	1	study	Phase3	study/STIM_015.jpg
1625.034	0.669	1	study	Phase3	study/STIM_016.jpg
1628.291	1.177	1	study	Phase3	study/STIM_016.jpg
1633.091	1.37	1	study	Phase3	study/STIM_016.jpg
1637.297	1.095	1	study	Phase3	study/STIM_017.jpg
1641.405	0.676	1	study	Phase3	study/STIM_017.jpg
1644.855	1.207	1	study	Phase3	study/STIM_017.jpg
1649.797	1.237	1	study	Phase3	study/STIM_018.jpg
1653.621	1.019	1	study	Phase3	study/STIM_018.jpg
1657.923	1.09	1	study	Phase3	study/STIM_018.jpg
1662.186	0.694	1	study	Phase3	study/STIM_019.jpg
1664.949	0.873	1	study	Phase3	study/STIM_019.jpg
1668.536	1.303	1	study	Phase3	study/STIM_019.jpg
1671.849	0.702	1	study	Phase3	study/STIM_020.jpg
1674.662	1.122	1	study	Phase3	study/STIM_020.jpg
1679.4	0.846	1	study	Phase3	study/STIM_020.jpg
1683.663	1.074	1	study	Phase3	study/STIM_021.jpg
1687.281	1.314	1	study	Phase3	study/STIM_021.jpg
1690.754	0.63	1	study	Phase3	study/STIM_021.jpg
1695.039	1.232	1	study	Phase3	study/STIM_022.jpg
1699.714	1.114	1	study	Phase3	study/STIM_022.jpg
1702.891	1.084	1	study	Phase3	study/STIM_022.jpg
1706.714	0.947	1	study	Phase3	study/STIM_023.jpg
1709.992	0.752	1	study	Phase3	study/STIM_023.jpg
1713.986	1.324	1	study	Phase3	study/STIM_023.jpg
1717.589	0.95	1	study	Phase3	study/STIM_024.jpg
1722.325	1.328	1	study	Phase3	study/STIM_024.jpg
1726.352	0.963	1	study	Phase3	study/STIM_024.jpg
1730.324	0.841	0	study	Phase3	study/STIM_025.jpg
1734.893	1.173	1	study	Phase3	study/STIM_025.jpg
1739.539	1.383	1	study	Phase3	study/STIM_025.jpg
1743.279	0.623	1	study	Phase3	study/STIM_026.jpg
1746.783	1.322	1	study	Phase3	study/STIM_026.jpg
1750.543	1.153	1	study	Phase3	study/STIM_026.jpg
1754.014	1.194	1	study	Phase3	study/STIM_027.jpg
1757.158	1.003	1	study	Phase3	study/STIM_027.jpg
1761.644	0.855	1	study	Phase3	study/STIM_027.jpg
1765.531	0.676	1	study	Phase3	study/STIM_028.jpg
1768.882	0.825	1	study	Phase3	study/STIM_028.jpg
1772.93	1.036	1	study	Phase3	study/STIM_028.jpg
1777.121	0.844	1	study	Phase3	study/STIM_029.jpg
1781.164	0.782	1	study	Phase3	study/STIM_029.jpg
1785.463	0.788	1	study	Phase3	study/STIM_029.jpg
1788.367	0.985	1	test	Phase3	test/STIM_000.jpg
1793.167	1.395	1	test	Phase3	test/STIM_000.jpg
1797.019	0.937	0	test	Phase3	test/STIM_000.jpg
1800.063	0.793	1	test	Phase3	test/STIM_001.jpg
1802.835	1.389	1	test	Phase3	test/STIM_001.jpg
1806.44	0.985	1	test	Phase3	test/STIM_001.jpg
1811.002	0.756	1	test	Phase3	test/STIM_002.jpg
1815.109	0.951	0	test	Phase3	test/STIM_002.jpg
1818.651	1.252	1	test	Phase3	test/STIM_002.jpg
1823.498	0.718	1	test	Phase3	test/STIM_003.jpg
1826.925	0.967	1	test	Phase3	test/STIM_003.jpg
1831.007	1.013	1	test	Phase3	test/STIM_003.jpg
1835.155	0.811	1	test	Phase3	test/STIM_004.jpg
1839.549	1.303	1	test	Phase3	test/STIM_004.jpg
1844.369	1.148	1	test	Phase3	test/STIM_004.jpg
1848.913	1.127	1	test	Phase3	test/STIM_005.jpg
1853.927	0.995	1	test	Phase3	test/STIM_005.jpg
1857.64	0.74	1	test	Phase3	test/STIM_005.jpg
1861.675	1.303	1	test	Phase3	test/STIM_006.jpg
1866.438	1.28	1	test	Phase3	test/STIM_006.jpg
1869.605	1.328	1	test	Phase3	test/STIM_006.jpg
1874.544	1.141	1	test	Phase3	test/STIM_007.jpg
1878.071	0.974	1	test	Phase3	test/STIM_007.jpg
1881.334	1.223	1	test	Phase3	test/STIM_007.jpg
1885.465	1.077	1	test	Phase3	test/STIM_008.jpg
1890.179	1.043	1	test	Phase3	test/STIM_008.jpg
1894.704	0.684	1	test	Phase3	test/STIM_008.jpg
1898.7	1.182	1	test	Phase3	test/STIM_009.jpg
1902.219	0.685	1	test	Phase3	test/STIM_009.jpg
1906.429	1.124	1	test	Phase3	test/STIM_009.jpg
1909.93	1.281	1	test	Phase3	test/STIM_010.jpg
1914.314	0.672	1	test	Phase3	test/STIM_010.jpg
1916.953	1.272	0	test	Phase3	test/STIM_010.jpg
1920.439	1.379	1	test	Phase3	test/STIM_011.jpg
1924.083	0.849	1	test	Phase3	test/STIM_011.jpg
1928.271	1.411	1	test	Phase3	test/STIM_011.jpg
1932.021	0.792	1	test	Phase3	test/STIM_012.jpg
1936.54	1.368	1	test	Phase3	test/STIM_012.jpg
1941.367	1.175	1	test	Phase3	test/STIM_012.jpg
1944.662	0.917	1	test	Phase3	test/STIM_013.jpg
1948.821	0.986	0	test	Phase3	test/STIM_013.jpg
1952.841	0.968	0	test	Phase3	test/STIM_013.jpg
1957.656	1.379	1	test	Phase3	test/STIM_014.jpg
1961.963	1.214	1	test	Phase3	test/STIM_014.jpg
1965.768	1.284	1	test	Phase3	test/STIM_014.jpg
1969.409	1.135	1	test	Phase3	test/STIM_015.jpg
1973.628	1.254	1	test	Phase3	test/STIM_015.jpg
1977.328	1.225	1	test	Phase3	test/STIM_015.jpg
1980.714	1.085	1	test	Phase3	test/STIM_016.jpg
1984.679	1.145	0	test	Phase3	test/STIM_016.jpg
1989.472	0.848	1	test	Phase3	test/STIM_016.jpg
1993.787	0.707	1	test	Phase3	test/STIM_017.jpg
1997.685	1.287	1	test	Phase3	test/STIM_017.jpg
2002.423	0.998	1	test	Phase3	test/STIM_017.jpg
2006.651	1.36	1	test	Phase3	test/STIM_018.jpg
2010.1	1.197	1	test	Phase3	test/STIM_018.jpg
2014.539	0.839	1	test	Phase3	test/STIM_018.jpg
2018.255	0.758	1	test	Phase3	test/STIM_019.jpg
2022.525	1.267	1	test	Phase3	test/STIM_019.jpg
2025.715	1.053	1	test	Phase3	test/STIM_019.jpg
2029.101	1.138	1	test	Phase3	test/STIM_020.jpg
2033.638	1.086	1	test	Phase3	test/STIM_020.jpg
2037.894	1.215	1	test	Phase3	test/STIM_020.jpg
2042.505	0.879	1	test	Phase3	test/STIM_021.jpg
2046.398	0.732	1	test	Phase3	test/STIM_021.jpg
2049.674	0.7	0	test	Phase3	test/STIM_021.jpg
2053.352	1.082	1	test	Phase3	test/STIM_022.jpg
2058.224	1.024	1	test	Phase3	test/STIM_022.jpg
2061.212	0.971	1	test	Phase3	test/STIM_022.jpg
2064.716	0.795	0	test	Phase3	test/STIM_023.jpg
2068.369	0.718	1	test	Phase3	test/STIM_023.jpg
2072.458	0.829	1	test	Phase3	test/STIM_023.jpg
2075.376	1.427	1	test	Phase3	test/STIM_024.jpg
2079.535	1.058	1	test	Phase3	test/STIM_024.jpg
2084.275	0.846	1	test	Phase3	test/STIM_024.jpg
2087.917	0.741	0	test	Phase3	test/STIM_025.jpg
2091.995	1.392	1	test	Phase3	test/STIM_025.jpg
2095.985	1.05	1	test	Phase3	test/STIM_025.jpg
2099.861	1.435	1	test	Phase3	test/STIM_026.jpg
2103.285	1.224	1	test	Phase3	test/STIM_026.jpg
2107.174	1.271	1	test	Phase3	test/STIM_026.jpg
2110.91	0.814	1	test	Phase3	test/STIM_027.jpg
2113.943	1.077	1	test	Phase3	test/STIM_027.jpg
2117.932	0.792	1	test	Phase3	test/STIM_027.jpg
2121.936	0.696	1	test	Phase3	test/STIM_028.jpg
2126.352	0.893	1	test	Phase3	test/STIM_028.jpg
2130.159	1.141	1	test	Phase3	test/STIM_028.jpg
2134.783	0.723	1	test	Phase3	test/STIM_029.jpg
2138.549	1.281	1	test	Phase3	test/STIM_029.jpg
2142.198	0.849	1	test	Phase3	test/STIM_029.jpg
