onset	duration	response_time_ms	trial_type	learning_stage	stimulus	response_port
0.0	0.643	643.2	incongruent	Block1	incongruent/STIM_000.jpg	100
3.691	1.198	1198.3	incongruent	Block1	incongruent/STIM_000.jpg	100
8.541	0.809	809.0	incongruent	Block1	incongruent/STIM_000.jpg	99
11.822	0.766	766.2	incongruent	Block1	incongruent/STIM_000.jpg	99
15.095	0.853	853.0	incongruent	Block1	incongruent/STIM_000.jpg	100
19.789	0.811	810.9	incongruent	Block1	incongruent/STIM_001.jpg	99
23.922	1.059	1059.0	incongruent	Block1	incongruent/STIM_001.jpg	99
27.574	0.595	594.6	incongruent	Block1	incongruent/STIM_001.jpg	99
31.774	0.523	523.3	incongruent	Block1	incongruent/STIM_001.jpg	100
35.574	0.532	531.7	incongruent	Block1	incongruent/STIM_001.jpg	100
39.821	0.706	705.6	incongruent	Block1	incongruent/STIM_002.jpg	99
43.968	1.126	1126.0	incongruent	Block1	incongruent/STIM_002.jpg	99
47.252	0.872	871.7	incongruent	Block1	incongruent/STIM_002.jpg	100
51.221	0.688	687.6	incongruent	Block1	incongruent/STIM_002.jpg	99
55.893	0.77	769.8	incongruent	Block1	incongruent/STIM_002.jpg	99
60.743	0.826	826.1	incongruent	Block1	incongruent/STIM_003.jpg	99
65.597	1.022	1021.7	incongruent	Block1	incongruent/STIM_003.jpg	100
69.103	0.606	606.3	incongruent	Block1	incongruent/STIM_003.jpg	100
72.298	1.053	1052.7	incongruent	Block1	incongruent/STIM_003.jpg	99
76.188	0.53	530.5	incongruent	Block1	incongruent/STIM_003.jpg	99
80.555	0.628	627.9	incongruent	Block1	incongruent/STIM_004.jpg	99
83.374	0.887	887.3	incongruent	Block1	incongruent/STIM_004.jpg	100
87.421	1.05	1049.7	incongruent	Block1	incongruent/STIM_004.jpg	99
92.153	0.785	784.9	incongruent	Block1	incongruent/STIM_004.jpg	100
96.092	0.933	933.4	incongruent	Block1	incongruent/STIM_004.jpg	99
99.823	1.254	1254.1	incongruent	Block1	incongruent/STIM_005.jpg	99
103.645	0.832	832.4	incongruent	Block1	incongruent/STIM_005.jpg	100
108.221	0.675	674.7	incongruent	Block1	incongruent/STIM_005.jpg	99
111.537	0.717	717.0	incongruent	Block1	incongruent/STIM_005.jpg	100
115.25	0.784	783.6	incongruent	Block1	incongruent/STIM_005.jpg	99
118.24	0.706	705.5	incongruent	Block1	incongruent/STIM_006.jpg	99
122.24	0.699	699.0	incongruent	Block1	incongruent/STIM_006.jpg	99
126.2	0.677	677.1	incongruent	Block1	incongruent/STIM_006.jpg	99
129.091	0.754	754.3	incongruent	Block1	incongruent/STIM_006.jpg	100
133.236	0.912	912.1	incongruent	Block1	incongruent/STIM_006.jpg	100
136.984	0.92	920.4	incongruent	Block1	incongruent/STIM_007.jpg	100
141.636	1.098	1097.7	incongruent	Block1	incongruent/STIM_007.jpg	99
146.533	0.846	845.9	incongruent	Block1	incongruent/STIM_007.jpg	99
149.556	0.874	874.1	incongruent	Block1	incongruent/STIM_007.jpg	99
154.07	0.615	614.8	incongruent	Block1	incongruent/STIM_007.jpg	99
157.168	0.622	621.6	incongruent	Block1	incongruent/STIM_008.jpg	99
161.179	0.629	629.0	incongruent	Block1	incongruent/STIM_008.jpg	100
165.582	0.881	881.2	incongruent	Block1	incongruent/STIM_008.jpg	100
169.14	0.988	988.1	incongruent	Block1	incongruent/STIM_008.jpg	99
172.463	1.038	1037.7	incongruent	Block1	incongruent/STIM_008.jpg	99
175.745	0.73	729.7	incongruent	Block1	incongruent/STIM_009.jpg	100
179.681	1.205	1205.3	incongruent	Block1	incongruent/STIM_009.jpg	99
183.399	0.848	847.6	incongruent	Block1	incongruent/STIM_009.jpg	99
188.143	0.958	957.5	incongruent	Block1	incongruent/STIM_009.jpg	100
192.721	1.034	1034.5	incongruent	Block1	incongruent/STIM_009.jpg	99
197.616	0.895	894.9	incongruent	Block1	incongruent/STIM_010.jpg	99
202.316	0.892	891.6	incongruent	Block1	incongruent/STIM_010.jpg	100
206.284	1.038	1037.5	incongruent	Block1	incongruent/STIM_010.jpg	99
209.705	0.895	895.1	incongruent	Block1	incongruent/STIM_010.jpg	99
214.177	0.84	840.1	incongruent	Block1	incongruent/STIM_010.jpg	100
217.555	1.032	1031.5	incongruent	Block1	incongruent/STIM_011.jpg	99
222.077	1.112	1112.5	incongruent	Block1	incongruent/STIM_011.jpg	99
225.949	0.6	600.3	incongruent	Block1	incongruent/STIM_011.jpg	100
230.362	0.623	623.0	incongruent	Block1	incongruent/STIM_011.jpg	99
233.92	0.894	894.3	incongruent	Block1	incongruent/STIM_011.jpg	99
237.646	0.793	792.8	incongruent	Block1	incongruent/STIM_012.jpg	99
241.828	1.028	1028.0	incongruent	Block1	incongruent/STIM_012.jpg	99
245.803	0.914	913.9	incongruent	Block1	incongruent/STIM_012.jpg	100
249.515	1.024	1023.8	incongruent	Block1	incongruent/STIM_012.jpg	100
253.525	0.693	692.7	incongruent	Block1	incongruent/STIM_012.jpg	100
257.637	0.777	777.0	incongruent	Block1	incongruent/STIM_013.jpg	100
261.418	0.786	786.3	incongruent	Block1	incongruent/STIM_013.jpg	99
264.782	0.86	859.5	incongruent	Block1	incongruent/STIM_013.jpg	99
267.933	0.993	992.9	incongruent	Block1	incongruent/STIM_013.jpg	99
272.755	0.644	643.7	incongruent	Block1	incongruent/STIM_013.jpg	99
276.135	1.083	1082.9	incongruent	Block1	incongruent/STIM_014.jpg	100
280.317	0.672	672.3	incongruent	Block1	incongruent/STIM_014.jpg	99
283.566	0.769	769.3	incongruent	Block1	incongruent/STIM_014.jpg	99
287.764	1.085	1084.8	incongruent	Block1	incongruent/STIM_014.jpg	100
292.234	0.905	904.7	incongruent	Block1	incongruent/STIM_014.jpg	100
295.557	1.269	1269.2	incongruent	Block1	incongruent/STIM_015.jpg	100
299.766	0.906	906.3	incongruent	Block1	incongruent/STIM_015.jpg	99
304.083	1.115	1114.7	incongruent	Block1	incongruent/STIM_015.jpg	100
309.316	1.107	1106.6	incongruent	Block1	incongruent/STIM_015.jpg	100
312.682	0.776	776.3	incongruent	Block1	incongruent/STIM_015.jpg	100
316.108	1.151	1151.1	incongruent	Block1	incongruent/STIM_016.jpg	99
320.493	0.697	696.8	incongruent	Block1	incongruent/STIM_016.jpg	99
324.861	0.694	693.7	incongruent	Block1	incongruent/STIM_016.jpg	99
327.961	0.958	957.8	incongruent	Block1	incongruent/STIM_016.jpg	99
331.552	0.806	805.9	incongruent	Block1	incongruent/STIM_016.jpg	99
335.367	1.037	1037.2	incongruent	Block1	incongruent/STIM_017.jpg	100
339.556	0.773	772.6	incongruent	Block1	incongruent/STIM_017.jpg	99
342.915	0.665	665.2	incongruent	Block1	incongruent/STIM_017.jpg	99
346.827	0.815	814.6	incongruent	Block1	incongruent/STIM_017.jpg	100
351.066	0.742	742.5	incongruent	Block1	incongruent/STIM_017.jpg	99
354.205	0.707	707.2	incongruent	Block1	incongruent/STIM_018.jpg	100
357.891	0.837	836.8	incongruent	Block1	incongruent/STIM_018.jpg	100
361.761	0.698	698.5	incongruent	Block1	incongruent/STIM_018.jpg	99
364.565	0.973	972.8	incongruent	Block1	incongruent/STIM_018.jpg	99
369.625	0.956	956.5	incongruent	Block1	incongruent/STIM_018.jpg	100
373.979	1.137	1137.4	incongruent	Block1	incongruent/STIM_019.jpg	100
378.9	1.0	1000.0	incongruent	Block1	incongruent/STIM_019.jpg	100
383.13	1.044	1044.4	incongruent	Block1	incongruent/STIM_019.jpg	100
386.858	0.568	567.7	incongruent	Block1	incongruent/STIM_019.jpg	100
391.011	0.59	589.6	incongruent	Block1	incongruent/STIM_019.jpg	100
395.156	1.137	1137.1	incongruent	Block1	incongruent/STIM_020.jpg	100
399.189	1.201	1201.4	incongruent	Block1	incongruent/STIM_020.jpg	99
404.327	1.126	1126.0	incongruent	Block1	incongruent/STIM_020.jpg	100
409.489	0.753	753.3	incongruent	Block1	incongruent/STIM_020.jpg	100
413.842	0.713	713.3	incongruent	Block1	incongruent/STIM_020.jpg	99
417.246	0.795	794.8	incongruent	Block1	incongruent/STIM_021.jpg	99
420.819	1.142	1142.2	incongruent	Block1	incongruent/STIM_021.jpg	99
424.483	1.095	1095.3	incongruent	Block1	incongruent/STIM_021.jpg	99
427.772	0.997	996.7	incongruent	Block1	incongruent/STIM_021.jpg	100
431.98	0.756	756.0	incongruent	Block1	incongruent/STIM_021.jpg	100
435.347	1.01	1009.7	incongruent	Block1	incongruent/STIM_022.jpg	99
439.326	0.625	624.6	incongruent	Block1	incongruent/STIM_022.jpg	99
443.251	0.708	708.4	incongruent	Block1	incongruent/STIM_022.jpg	99
446.352	0.734	734.5	incongruent	Block1	incongruent/STIM_022.jpg	100
450.896	0.57	569.7	incongruent	Block1	incongruent/STIM_022.jpg	99
453.603	1.162	1161.5	incongruent	Block1	incongruent/STIM_023.jpg	99
458.169	1.041	1041.3	incongruent	Block1	incongruent/STIM_023.jpg	99
461.765	0.67	670.1	incongruent	Block1	incongruent/STIM_023.jpg	99
465.024	0.688	687.9	incongruent	Block1	incongruent/STIM_023.jpg	100
467.91	0.921	921.2	incongruent	Block1	incongruent/STIM_023.jpg	99
471.79	0.784	783.6	incongruent	Block1	incongruent/STIM_024.jpg	100
475.64	1.018	1018.4	incongruent	Block1	incongruent/STIM_024.jpg	99
480.015	1.073	1072.8	incongruent	Block1	incongruent/STIM_024.jpg	99
484.15	1.103	1102.9	incongruent	Block1	incongruent/STIM_024.jpg	99
488.465	0.527	526.9	incongruent	Block1	incongruent/STIM_024.jpg	100
492.566	0.78	780.1	incongruent	Block1	incongruent/STIM_025.jpg	99
497.129	0.879	879.1	incongruent	Block1	incongruent/STIM_025.jpg	100
501.328	1.08	1079.8	incongruent	Block1	incongruent/STIM_025.jpg	99
506.293	0.836	835.9	incongruent	Block1	incongruent/STIM_025.jpg	100
509.701	0.677	676.9	incongruent	Block1	incongruent/STIM_025.jpg	100
514.366	0.908	908.2	incongruent	Block1	incongruent/STIM_026.jpg	100
518.365	1.053	1053.3	incongruent	Block1	incongruent/STIM_026.jpg	100
521.751	0.984	983.5	incongruent	Block1	incongruent/STIM_026.jpg	100
525.625	0.619	619.1	incongruent	Block1	incongruent/STIM_026.jpg	99
529.3	0.61	610.2	incongruent	Block1	incongruent/STIM_026.jpg	100
533.257	0.653	652.6	incongruent	Block1	incongruent/STIM_027.jpg	100
536.194	1.179	1179.1	incongruent	Block1	incongruent/STIM_027.jpg	100
541.409	1.153	1153.0	incongruent	Block1	incongruent/STIM_027.jpg	100
546.081	0.91	910.1	incongruent	Block1	incongruent/STIM_027.jpg	99
549.827	0.682	681.8	incongruent	Block1	incongruent/STIM_027.jpg	100
554.412	0.906	906.4	incongruent	Block1	incongruent/STIM_028.jpg	100
557.823	1.116	1116.0	incongruent	Block1	incongruent/STIM_028.jpg	99
561.657	0.71	710.1	incongruent	Block1	incongruent/STIM_028.jpg	99
565.217	0.917	917.4	incongruent	Block1	incongruent/STIM_028.jpg	100
569.97	0.888	887.8	incongruent	Block1	incongruent/STIM_028.jpg	100
573.783	0.738	738.2	incongruent	Block1	incongruent/STIM_029.jpg	100
576.806	0.832	832.3	incongruent	Block1	incongruent/STIM_029.jpg	99
579.807	0.675	674.8	incongruent	Block1	incongruent/STIM_029.jpg	99
583.763	1.109	1108.9	incongruent	Block1	incongruent/STIM_029.jpg	99
587.312	1.02	1020.2	incongruent	Block1	incongruent/STIM_029.jpg	99
592.226	0.587	587.3	congruent	Block1	congruent/STIM_000.jpg	100
596.86	0.577	577.3	congruent	Block1	congruent/STIM_000.jpg	100
600.756	0.747	746.9	congruent	Block1	congruent/STIM_000.jpg	100
604.663	0.572	572.0	congruent	Block1	congruent/STIM_000.jpg	99
609.161	0.483	483.1	congruent	Block1	congruent/STIM_000.jpg	100
612.248	0.734	734.4	congruent	Block1	congruent/STIM_001.jpg	99
616.483	0.716	716.0	congruent	Block1	congruent/STIM_001.jpg	99
621.18	0.457	456.6	congruent	Block1	congruent/STIM_001.jpg	100
624.915	0.751	751.3	congruent	Block1	congruent/STIM_001.jpg	100
629.427	0.779	779.3	congruent	Block1	congruent/STIM_001.jpg	100
632.734	0.603	603.0	congruent	Block1	congruent/STIM_002.jpg	100
635.52	0.704	704.1	congruent	Block1	congruent/STIM_002.jpg	100
639.666	0.474	473.7	congruent	Block1	congruent/STIM_002.jpg	99
642.247	0.462	462.2	congruent	Block1	congruent/STIM_002.jpg	99
645.457	0.738	737.9	congruent	Block1	congruent/STIM_002.jpg	99
650.162	0.672	672.0	congruent	Block1	congruent/STIM_003.jpg	99
653.234	0.642	642.1	congruent	Block1	congruent/STIM_003.jpg	99
656.099	0.604	604.0	congruent	Block1	congruent/STIM_003.jpg	100
659.609	0.686	686.1	congruent	Block1	congruent/STIM_003.jpg	99
663.536	0.541	541.1	congruent	Block1	congruent/STIM_003.jpg	99
666.559	0.629	628.7	congruent	Block1	congruent/STIM_004.jpg	99
669.968	0.692	691.7	congruent	Block1	congruent/STIM_004.jpg	99
672.798	0.526	525.9	congruent	Block1	congruent/STIM_004.jpg	100
676.321	0.631	631.2	congruent	Block1	congruent/STIM_004.jpg	99
680.393	0.753	753.1	congruent	Block1	congruent/STIM_004.jpg	99
684.784	0.497	496.8	congruent	Block1	congruent/STIM_005.jpg	99
688.193	0.453	453.1	congruent	Block1	congruent/STIM_005.jpg	100
692.265	0.656	655.7	congruent	Block1	congruent/STIM_005.jpg	100
696.986	0.528	528.1	congruent	Block1	congruent/STIM_005.jpg	99
699.825	0.609	608.6	congruent	Block1	congruent/STIM_005.jpg	99
703.04	0.63	630.2	congruent	Block1	congruent/STIM_006.jpg	100
707.468	0.45	450.1	congruent	Block1	congruent/STIM_006.jpg	100
710.56	0.492	491.5	congruent	Block1	congruent/STIM_006.jpg	100
714.063	0.702	702.4	congruent	Block1	congruent/STIM_006.jpg	100
717.273	0.765	764.7	congruent	Block1	congruent/STIM_006.jpg	99
720.921	0.524	524.0	congruent	Block1	congruent/STIM_007.jpg	99
724.841	0.627	627.1	congruent	Block1	congruent/STIM_007.jpg	99
728.536	0.442	441.6	congruent	Block1	congruent/STIM_007.jpg	99
731.701	0.6	599.7	congruent	Block1	congruent/STIM_007.jpg	100
736.237	0.627	627.0	congruent	Block1	congruent/STIM_007.jpg	99
740.76	0.713	713.3	congruent	Block1	congruent/STIM_008.jpg	100
744.349	0.511	510.6	congruent	Block1	congruent/STIM_008.jpg	99
748.87	0.53	529.6	congruent	Block1	congruent/STIM_008.jpg	99
753.241	0.45	450.1	congruent	Block1	congruent/STIM_008.jpg	100
756.123	0.759	759.0	congruent	Block1	congruent/STIM_008.jpg	100
759.017	0.777	776.9	congruent	Block1	congruent/STIM_009.jpg	100
762.822	0.736	735.5	congruent	Block1	congruent/STIM_009.jpg	100
765.771	0.719	718.7	congruent	Block1	congruent/STIM_009.jpg	99
769.044	0.657	656.7	congruent	Block1	congruent/STIM_009.jpg	100
773.107	0.761	761.1	congruent	Block1	congruent/STIM_009.jpg	99
776.519	0.517	517.0	congruent	Block1	congruent/STIM_010.jpg	100
779.98	0.588	588.4	congruent	Block1	congruent/STIM_010.jpg	99
783.303	0.644	644.1	congruent	Block1	congruent/STIM_010.jpg	100
787.46	0.576	575.7	congruent	Block1	congruent/STIM_010.jpg	100
791.818	0.546	546.3	congruent	Block1	congruent/STIM_010.jpg	99
796.336	0.774	773.5	congruent	Block1	congruent/STIM_011.jpg	100
800.124	0.471	471.0	congruent	Block1	congruent/STIM_011.jpg	99
802.776	0.676	676.5	congruent	Block1	congruent/STIM_011.jpg	100
806.197	0.5	500.4	congruent	Block1	congruent/STIM_011.jpg	100
808.996	0.499	498.9	congruent	Block1	congruent/STIM_011.jpg	100
812.291	0.568	567.5	congruent	Block1	congruent/STIM_012.jpg	100
816.399	0.565	564.7	congruent	Block1	congruent/STIM_012.jpg	99
819.12	0.626	625.9	congruent	Block1	congruent/STIM_012.jpg	99
822.948	0.528	527.7	congruent	Block1	congruent/STIM_012.jpg	100
826.608	0.573	573.0	congruent	Block1	congruent/STIM_012.jpg	99
831.225	0.481	480.9	congruent	Block1	congruent/STIM_013.jpg	99
835.176	0.779	779.3	congruent	Block1	congruent/STIM_013.jpg	99
839.104	0.458	457.5	congruent	Block1	congruent/STIM_013.jpg	99
841.77	0.459	458.7	congruent	Block1	congruent/STIM_013.jpg	99
846.195	0.68	679.5	congruent	Block1	congruent/STIM_013.jpg	100
850.043	0.476	476.2	congruent	Block1	congruent/STIM_014.jpg	100
853.777	0.525	524.8	congruent	Block1	congruent/STIM_014.jpg	100
857.383	0.528	527.9	congruent	Block1	congruent/STIM_014.jpg	99
861.087	0.686	686.4	congruent	Block1	congruent/STIM_014.jpg	99
864.826	0.588	588.0	congruent	Block1	congruent/STIM_014.jpg	100
867.795	0.593	592.6	congruent	Block1	congruent/STIM_015.jpg	99
870.781	0.52	520.5	congruent	Block1	congruent/STIM_015.jpg	100
874.045	0.579	579.2	congruent	Block1	congruent/STIM_015.jpg	99
877.23	0.488	487.9	congruent	Block1	congruent/STIM_015.jpg	100
881.27	0.773	772.7	congruent	Block1	congruent/STIM_015.jpg	100
884.975	0.575	574.6	congruent	Block1	congruent/STIM_016.jpg	99
889.054	0.489	488.8	congruent	Block1	congruent/STIM_016.jpg	99
893.286	0.6	600.3	congruent	Block1	congruent/STIM_016.jpg	100
896.683	0.729	729.3	congruent	Block1	congruent/STIM_016.jpg	99
899.667	0.627	627.3	congruent	Block1	congruent/STIM_016.jpg	100
902.537	0.593	593.2	congruent	Block1	congruent/STIM_017.jpg	99
906.902	0.772	772.5	congruent	Block1	congruent/STIM_017.jpg	99
911.634	0.455	455.2	congruent	Block1	congruent/STIM_017.jpg	99
916.1	0.72	719.6	congruent	Block1	congruent/STIM_017.jpg	99
920.793	0.605	605.2	congruent	Block1	congruent/STIM_017.jpg	100
924.102	0.734	733.7	congruent	Block1	congruent/STIM_018.jpg	100
928.317	0.652	652.0	congruent	Block1	congruent/STIM_018.jpg	99
932.768	0.634	634.1	congruent	Block1	congruent/STIM_018.jpg	100
935.851	0.552	552.0	congruent	Block1	congruent/STIM_018.jpg	100
939.458	0.691	690.6	congruent	Block1	congruent/STIM_018.jpg	100
943.278	0.525	525.3	congruent	Block1	congruent/STIM_019.jpg	100
946.424	0.689	688.9	congruent	Block1	congruent/STIM_019.jpg	99
949.586	0.733	733.4	congruent	Block1	congruent/STIM_019.jpg	100
954.224	0.734	733.7	congruent	Block1	congruent/STIM_019.jpg	99
957.787	0.777	777.1	congruent	Block1	congruent/STIM_019.jpg	100
961.855	0.707	707.0	congruent	Block1	congruent/STIM_020.jpg	100
965.983	0.735	734.7	congruent	Block1	congruent/STIM_020.jpg	100
969.227	0.745	744.6	congruent	Block1	congruent/STIM_020.jpg	100
973.847	0.782	781.9	congruent	Block1	congruent/STIM_020.jpg	99
978.347	0.616	616.5	congruent	Block1	congruent/STIM_020.jpg	99
981.967	0.643	643.2	congruent	Block1	congruent/STIM_021.jpg	100
986.061	0.743	743.1	congruent	Block1	congruent/STIM_021.jpg	99
990.444	0.529	529.1	congruent	Block1	congruent/STIM_021.jpg	100
994.922	0.739	739.1	congruent	Block1	congruent/STIM_021.jpg	99
998.453	0.711	711.4	congruent	Block1	congruent/STIM_021.jpg	100
1002.301	0.774	774.4	congruent	Block1	congruent/STIM_022.jpg	99
1006.533	0.56	560.4	congruent	Block1	congruent/STIM_022.jpg	100
1010.39	0.557	556.9	congruent	Block1	congruent/STIM_022.jpg	100
1013.617	0.546	545.5	congruent	Block1	congruent/STIM_022.jpg	100
1017.016	0.566	566.4	congruent	Block1	congruent/STIM_022.jpg	99
1020.314	0.509	508.6	congruent	Block1	congruent/STIM_023.jpg	100
1024.596	0.454	454.0	congruent	Block1	congruent/STIM_023.jpg	100
1028.163	0.504	503.8	congruent	Block1	congruent/STIM_023.jpg	100
1030.74	0.507	506.9	congruent	Block1	congruent/STIM_023.jpg	100
1034.886	0.656	656.2	congruent	Block1	congruent/STIM_023.jpg	100
1038.37	0.698	698.3	congruent	Block1	congruent/STIM_024.jpg	100
1043.059	0.706	706.2	congruent	Block1	congruent/STIM_024.jpg	99
1047.669	0.44	439.5	congruent	Block1	congruent/STIM_024.jpg	100
1051.4	0.54	539.8	congruent	Block1	congruent/STIM_024.jpg	100
1054.852	0.644	643.7	congruent	Block1	congruent/STIM_024.jpg	100
1058.679	0.474	473.9	congruent	Block1	congruent/STIM_025.jpg	100
1061.299	0.77	770.1	congruent	Block1	congruent/STIM_025.jpg	99
1065.639	0.483	482.8	congruent	Block1	congruent/STIM_025.jpg	100
1069.413	0.736	736.2	congruent	Block1	congruent/STIM_025.jpg	100
1073.92	0.7	700.5	congruent	Block1	congruent/STIM_025.jpg	99
1078.558	0.757	756.8	congruent	Block1	congruent/STIM_026.jpg	99
1082.824	0.508	508.5	congruent	Block1	congruent/STIM_026.jpg	99
1086.27	0.501	501.3	congruent	Block1	congruent/STIM_026.jpg	99
1089.386	0.603	602.8	congruent	Block1	congruent/STIM_026.jpg	99
1093.21	0.707	707.3	congruent	Block1	congruent/STIM_026.jpg	100
1096.061	0.507	507.4	congruent	Block1	congruent/STIM_027.jpg	99
1100.006	0.621	620.8	congruent	Block1	congruent/STIM_027.jpg	99
1103.807	0.464	464.3	congruent	Block1	congruent/STIM_027.jpg	100
1106.509	0.591	591.2	congruent	Block1	congruent/STIM_027.jpg	100
1111.138	0.575	574.7	congruent	Block1	congruent/STIM_027.jpg	99
1114.003	0.705	704.6	congruent	Block1	congruent/STIM_028.jpg	100
1116.817	0.443	443.0	congruent	Block1	congruent/STIM_028.jpg	100
1120.137	0.577	577.4	congruent	Block1	congruent/STIM_028.jpg	99
1124.664	0.674	673.6	congruent	Block1	congruent/STIM_028.jpg	99
1127.862	0.483	482.8	congruent	Block1	congruent/STIM_028.jpg	100
1131.908	0.52	519.9	congruent	Block1	congruent/STIM_029.jpg	99
1135.14	0.664	663.9	congruent	Block1	congruent/STIM_029.jpg	99
1139.708	0.786	786.0	congruent	Block1	congruent/STIM_029.jpg	99
1143.602	0.553	553.1	congruent	Block1	congruent/STIM_029.jpg	100
1146.547	0.697	697.0	congruent	Block1	congruent/STIM_029.jpg	100
1149.948	0.59	589.7	incongruent	Block2	incongruent/STIM_000.jpg	100
1154.111	0.586	586.5	incongruent	Block2	incongruent/STIM_000.jpg	99
1158.361	0.746	745.5	incongruent	Block2	incongruent/STIM_000.jpg	100
1161.542	0.533	532.6	incongruent	Block2	incongruent/STIM_000.jpg	99
1165.646	0.652	651.5	incongruent	Block2	incongruent/STIM_000.jpg	100
1168.974	0.932	931.7	incongruent	Block2	incongruent/STIM_001.jpg	99
1172.564	1.034	1033.7	incongruent	Block2	incongruent/STIM_001.jpg	99
1177.373	0.824	824.1	incongruent	Block2	incongruent/STIM_001.jpg	100
1182.184	0.551	551.0	incongruent	Block2	incongruent/STIM_001.jpg	100
1186.279	0.538	537.7	incongruent	Block2	incongruent/STIM_001.jpg	99
1190.002	0.766	765.5	incongruent	Block2	incongruent/STIM_002.jpg	100
1193.525	0.69	689.7	incongruent	Block2	incongruent/STIM_002.jpg	100
1196.44	0.838	837.5	incongruent	Block2	incongruent/STIM_002.jpg	99
1200.933	0.464	464.4	incongruent	Block2	incongruent/STIM_002.jpg	99
1203.782	0.719	719.2	incongruent	Block2	incongruent/STIM_002.jpg	100
1206.619	0.583	582.8	incongruent	Block2	incongruent/STIM_003.jpg	100
1210.153	0.542	541.5	incongruent	Block2	incongruent/STIM_003.jpg	100
1213.407	0.892	892.1	incongruent	Block2	incongruent/STIM_003.jpg	100
1217.736	0.54	540.2	incongruent	Block2	incongruent/STIM_003.jpg	99
1221.311	0.889	889.0	incongruent	Block2	incongruent/STIM_003.jpg	99
1226.278	0.68	680.0	incongruent	Block2	incongruent/STIM_004.jpg	100
1230.322	0.779	779.4	incongruent	Block2	incongruent/STIM_004.jpg	100
1234.58	0.781	780.9	incongruent	Block2	incongruent/STIM_004.jpg	100
1238.981	0.844	843.5	incongruent	Block2	incongruent/STIM_004.jpg	99
1242.468	0.491	490.9	incongruent	Block2	incongruent/STIM_004.jpg	99
1245.763	1.116	1115.9	incongruent	Block2	incongruent/STIM_005.jpg	100
1250.728	0.998	998.1	incongruent	Block2	incongruent/STIM_005.jpg	100
1255.03	0.51	509.6	incongruent	Block2	incongruent/STIM_005.jpg	100
1258.831	0.704	704.2	incongruent	Block2	incongruent/STIM_005.jpg	100
1263.184	0.454	454.1	incongruent	Block2	incongruent/STIM_005.jpg	100
1266.129	1.016	1015.7	incongruent	Block2	incongruent/STIM_006.jpg	99
1271.23	0.601	601.0	incongruent	Block2	incongruent/STIM_006.jpg	100
1275.285	0.86	860.0	incongruent	Block2	incongruent/STIM_006.jpg	100
1278.952	0.53	529.6	incongruent	Block2	incongruent/STIM_006.jpg	100
1281.789	0.454	453.7	incongruent	Block2	incongruent/STIM_006.jpg	100
1285.901	0.834	834.1	incongruent	Block2	incongruent/STIM_007.jpg	100
1289.212	0.966	965.6	incongruent	Block2	incongruent/STIM_007.jpg	100
1294.121	0.598	597.9	incongruent	Block2	incongruent/STIM_007.jpg	100
1298.633	0.682	682.4	incongruent	Block2	incongruent/STIM_007.jpg	99
1303.281	0.452	451.9	incongruent	Block2	incongruent/STIM_007.jpg	100
1307.276	0.771	770.8	incongruent	Block2	incongruent/STIM_008.jpg	100
1310.813	0.532	531.6	incongruent	Block2	incongruent/STIM_008.jpg	99
1314.652	0.723	723.1	incongruent	Block2	incongruent/STIM_008.jpg	100
1317.799	0.442	442.2	incongruent	Block2	incongruent/STIM_008.jpg	99
1322.165	0.544	544.1	incongruent	Block2	incongruent/STIM_008.jpg	99
1325.745	0.701	700.8	incongruent	Block2	incongruent/STIM_009.jpg	100
1330.009	0.838	838.4	incongruent	Block2	incongruent/STIM_009.jpg	99
1333.265	0.525	524.8	incongruent	Block2	incongruent/STIM_009.jpg	100
1336.399	0.474	473.6	incongruent	Block2	incongruent/STIM_009.jpg	99
1340.8	0.805	805.4	incongruent	Block2	incongruent/STIM_009.jpg	100
1345.109	0.643	642.9	incongruent	Block2	incongruent/STIM_010.jpg	99
1349.745	0.512	512.0	incongruent	Block2	incongruent/STIM_010.jpg	100
1354.315	0.834	834.0	incongruent	Block2	incongruent/STIM_010.jpg	99
1358.744	0.867	867.2	incongruent	Block2	incongruent/STIM_010.jpg	100
1362.691	0.78	780.0	incongruent	Block2	incongruent/STIM_010.jpg	99
1366.982	1.01	1010.3	incongruent	Block2	incongruent/STIM_011.jpg	99
1371.03	0.865	864.9	incongruent	Block2	incongruent/STIM_011.jpg	99
1375.273	0.95	949.7	incongruent	Block2	incongruent/STIM_011.jpg	99
1380.0	0.753	753.0	incongruent	Block2	incongruent/STIM_011.jpg	99
1383.291	0.852	852.2	incongruent	Block2	incongruent/STIM_011.jpg	99
1386.445	0.886	885.8	incongruent	Block2	incongruent/STIM_012.jpg	99
1390.477	0.872	872.1	incongruent	Block2	incongruent/STIM_012.jpg	99
1394.957	0.521	521.2	incongruent	Block2	incongruent/STIM_012.jpg	100
1398.384	0.491	491.3	incongruent	Block2	incongruent/STIM_012.jpg	99
1401.925	0.673	673.1	incongruent	Block2	incongruent/STIM_012.jpg	100
1404.828	0.994	993.6	incongruent	Block2	incongruent/STIM_013.jpg	100
1409.018	0.823	823.3	incongruent	Block2	incongruent/STIM_013.jpg	100
1413.632	0.714	713.7	incongruent	Block2	incongruent/STIM_013.jpg	100
1416.829	0.747	747.1	incongruent	Block2	incongruent/STIM_013.jpg	99
1420.103	0.874	873.8	incongruent	Block2	incongruent/STIM_013.jpg	99
1424.016	0.936	936.2	incongruent	Block2	incongruent/STIM_014.jpg	99
1427.433	0.725	725.0	incongruent	Block2	incongruent/STIM_014.jpg	100
1430.647	0.853	852.9	incongruent	Block2	incongruent/STIM_014.jpg	99
1435.213	0.81	810.5	incongruent	Block2	incongruent/STIM_014.jpg	99
1439.333	0.574	574.0	incongruent	Block2	incongruent/STIM_014.jpg	99
1443.882	0.786	785.6	incongruent	Block2	incongruent/STIM_015.jpg	99
1448.58	0.707	706.6	incongruent	Block2	incongruent/STIM_015.jpg	99
1452.155	0.974	974.1	incongruent	Block2	incongruent/STIM_015.jpg	99
1456.438	0.456	456.5	incongruent	Block2	incongruent/STIM_015.jpg	99
1460.536	0.519	519.1	incongruent	Block2	incongruent/STIM_015.jpg	100
1463.347	0.738	737.9	incongruent	Block2	incongruent/STIM_016.jpg	100
1467.613	0.779	779.1	incongruent	Block2	incongruent/STIM_016.jpg	99
1471.001	0.953	952.6	incongruent	Block2	incongruent/STIM_016.jpg	99
1474.527	0.88	880.5	incongruent	Block2	incongruent/STIM_016.jpg	99
1479.317	0.568	567.5	incongruent	Block2	incongruent/STIM_016.jpg	100
1483.016	0.836	836.4	incongruent	Block2	incongruent/STIM_017.jpg	100
1486.555	0.565	564.6	incongruent	Block2	incongruent/STIM_017.jpg	100
1489.315	0.589	588.8	incongruent	Block2	incongruent/STIM_017.jpg	99
1492.852	0.658	658.2	incongruent	Block2	incongruent/STIM_017.jpg	99
1496.147	0.826	826.2	incongruent	Block2	incongruent/STIM_017.jpg	99
1500.759	0.556	556.0	incongruent	Block2	incongruent/STIM_018.jpg	100
1503.804	0.583	583.4	incongruent	Block2	incongruent/STIM_018.jpg	100
1507.153	0.494	494.3	incongruent	Block2	incongruent/STIM_018.jpg	99
1509.9	0.89	889.6	incongruent	Block2	incongruent/STIM_018.jpg	99
1513.422	0.556	555.6	incongruent	Block2	incongruent/STIM_018.jpg	99
1517.284	1.114	1114.1	incongruent	Block2	incongruent/STIM_019.jpg	100
1520.741	0.913	913.1	incongruent	Block2	incongruent/STIM_019.jpg	100
1524.442	0.551	551.1	incongruent	Block2	incongruent/STIM_019.jpg	99
1528.243	0.56	559.6	incongruent	Block2	incongruent/STIM_019.jpg	100
1532.492	0.677	677.4	incongruent	Block2	incongruent/STIM_019.jpg	99
1536.13	0.632	631.6	incongruent	Block2	incongruent/STIM_020.jpg	100
1539.718	0.908	908.4	incongruent	Block2	incongruent/STIM_020.jpg	99
1543.432	0.879	879.1	incongruent	Block2	incongruent/STIM_020.jpg	99
1547.1	0.459	459.3	incongruent	Block2	incongruent/STIM_020.jpg	99
1549.895	0.811	810.6	incongruent	Block2	incongruent/STIM_020.jpg	99
1554.52	0.631	631.0	incongruent	Block2	incongruent/STIM_021.jpg	99
1558.184	0.784	783.9	incongruent	Block2	incongruent/STIM_021.jpg	100
1562.617	0.584	584.5	incongruent	Block2	incongruent/STIM_021.jpg	100
1566.329	0.78	779.6	incongruent	Block2	incongruent/STIM_021.jpg	100
1569.331	0.455	455.4	incongruent	Block2	incongruent/STIM_021.jpg	99
1572.027	0.941	941.2	incongruent	Block2	incongruent/STIM_022.jpg	100
1577.015	0.82	820.5	incongruent	Block2	incongruent/STIM_022.jpg	99
1581.064	0.677	677.1	incongruent	Block2	incongruent/STIM_022.jpg	99
1584.317	0.707	707.1	incongruent	Block2	incongruent/STIM_022.jpg	100
1588.127	0.48	480.5	incongruent	Block2	incongruent/STIM_022.jpg	99
1592.057	0.895	895.3	incongruent	Block2	incongruent/STIM_023.jpg	100
1595.714	0.518	517.6	incongruent	Block2	incongruent/STIM_023.jpg	99
1599.923	0.894	893.9	incongruent	Block2	incongruent/STIM_023.jpg	99
1604.096	0.632	631.6	incongruent	Block2	incongruent/STIM_023.jpg	99
1607.204	0.837	837.1	incongruent	Block2	incongruent/STIM_023.jpg	100
1612.102	0.657	656.8	incongruent	Block2	incongruent/STIM_024.jpg	99
1615.8	0.57	569.9	incongruent	Block2	incongruent/STIM_024.jpg	100
1618.529	0.883	882.8	incongruent	Block2	incongruent/STIM_024.jpg	100
1623.234	0.731	731.1	incongruent	Block2	incongruent/STIM_024.jpg	100
1627.734	0.52	520.3	incongruent	Block2	incongruent/STIM_024.jpg	100
1632.296	1.014	1013.7	incongruent	Block2	incongruent/STIM_025.jpg	100
1637.012	0.601	601.4	incongruent	Block2	incongruent/STIM_025.jpg	99
1639.917	0.872	872.1	incongruent	Block2	incongruent/STIM_025.jpg	99
1643.322	0.705	705.1	incongruent	Block2	incongruent/STIM_025.jpg	100
1647.32	0.607	607.0	incongruent	Block2	incongruent/STIM_025.jpg	100
1650.582	0.908	907.7	incongruent	Block2	incongruent/STIM_026.jpg	100
1654.823	0.631	630.6	incongruent	Block2	incongruent/STIM_026.jpg	99
1658.454	0.575	574.8	incongruent	Block2	incongruent/STIM_026.jpg	100
1663.063	0.437	436.7	incongruent	Block2	incongruent/STIM_026.jpg	100
1666.575	0.674	673.5	incongruent	Block2	incongruent/STIM_026.jpg	100
1670.178	0.557	557.1	incongruent	Block2	incongruent/STIM_027.jpg	100
1673.846	0.577	576.9	incongruent	Block2	incongruent/STIM_027.jpg	99
1677.329	0.472	472.2	incongruent	Block2	incongruent/STIM_027.jpg	100
1680.863	0.92	919.9	incongruent	Block2	incongruent/STIM_027.jpg	99
1684.43	0.514	514.2	incongruent	Block2	incongruent/STIM_027.jpg	100
1687.826	0.591	591.0	incongruent	Block2	incongruent/STIM_028.jpg	99
1692.238	0.634	634.5	incongruent	Block2	incongruent/STIM_028.jpg	99
1696.097	0.699	699.4	incongruent	Block2	incongruent/STIM_028.jpg	100
1699.088	0.861	860.8	incongruent	Block2	incongruent/STIM_028.jpg	100
1702.584	0.7	700.4	incongruent	Block2	incongruent/STIM_028.jpg	100
1706.024	0.991	991.0	incongruent	Block2	incongruent/STIM_029.jpg	99
1709.599	0.506	506.2	incongruent	Block2	incongruent/STIM_029.jpg	100
1713.384	0.818	817.6	incongruent	Block2	incongruent/STIM_029.jpg	99
1717.301	0.877	876.9	incongruent	Block2	incongruent/STIM_029.jpg	99
1721.124	0.455	454.8	incongruent	Block2	incongruent/STIM_029.jpg	99
1724.38	0.66	660.0	congruent	Block2	congruent/STIM_000.jpg	99
1728.221	0.652	651.6	congruent	Block2	congruent/STIM_000.jpg	100
1732.218	0.788	788.2	congruent	Block2	congruent/STIM_000.jpg	100
1735.338	0.701	701.4	congruent	Block2	congruent/STIM_000.jpg	99
1738.766	0.662	662.3	congruent	Block2	congruent/STIM_000.jpg	99
1742.996	0.549	548.8	congruent	Block2	congruent/STIM_001.jpg	100
1746.636	0.575	575.0	congruent	Block2	congruent/STIM_001.jpg	99
1750.941	0.519	519.1	congruent	Block2	congruent/STIM_001.jpg	100
1755.501	0.458	457.9	congruent	Block2	congruent/STIM_001.jpg	99
1758.623	0.771	771.4	congruent	Block2	congruent/STIM_001.jpg	100
1762.26	0.742	741.9	congruent	Block2	congruent/STIM_002.jpg	100
1766.857	0.605	605.3	congruent	Block2	congruent/STIM_002.jpg	100
1769.939	0.71	709.5	congruent	Block2	congruent/STIM_002.jpg	100
1774.46	0.464	464.0	congruent	Block2	congruent/STIM_002.jpg	99
1777.962	0.613	613.3	congruent	Block2	congruent/STIM_002.jpg	100
1781.297	0.776	776.2	congruent	Block2	congruent/STIM_003.jpg	99
1785.965	0.685	684.6	congruent	Block2	congruent/STIM_003.jpg	99
1790.633	0.571	571.0	congruent	Block2	congruent/STIM_003.jpg	100
1794.888	0.461	461.1	congruent	Block2	congruent/STIM_003.jpg	99
1798.423	0.541	541.2	congruent	Block2	congruent/STIM_003.jpg	99
1802.478	0.597	596.7	congruent	Block2	congruent/STIM_004.jpg	100
1806.809	0.582	582.2	congruent	Block2	congruent/STIM_004.jpg	99
1811.104	0.559	558.8	congruent	Block2	congruent/STIM_004.jpg	100
1814.728	0.483	482.7	congruent	Block2	congruent/STIM_004.jpg	99
1817.612	0.747	746.7	congruent	Block2	congruent/STIM_004.jpg	100
1822.259	0.564	563.9	congruent	Block2	congruent/STIM_005.jpg	100
1825.094	0.526	525.6	congruent	Block2	congruent/STIM_005.jpg	100
1828.763	0.482	481.7	congruent	Block2	congruent/STIM_005.jpg	100
1831.95	0.696	696.4	congruent	Block2	congruent/STIM_005.jpg	100
1835.911	0.55	549.9	congruent	Block2	congruent/STIM_005.jpg	99
1839.306	0.7	700.1	congruent	Block2	congruent/STIM_006.jpg	100
1843.306	0.46	459.7	congruent	Block2	congruent/STIM_006.jpg	100
1847.304	0.508	508.3	congruent	Block2	congruent/STIM_006.jpg	100
1850.324	0.568	567.9	congruent	Block2	congruent/STIM_006.jpg	100
1854.362	0.782	782.3	congruent	Block2	congruent/STIM_006.jpg	100
1857.418	0.451	451.3	congruent	Block2	congruent/STIM_007.jpg	100
1860.246	0.478	477.5	congruent	Block2	congruent/STIM_007.jpg	99
1864.077	0.658	658.5	congruent	Block2	congruent/STIM_007.jpg	100
1867.764	0.733	733.2	congruent	Block2	congruent/STIM_007.jpg	99
1872.128	0.704	704.0	congruent	Block2	congruent/STIM_007.jpg	100
1876.296	0.697	697.1	congruent	Block2	congruent/STIM_008.jpg	100
1881.06	0.453	453.3	congruent	Block2	congruent/STIM_008.jpg	99
1885.554	0.689	689.1	congruent	Block2	congruent/STIM_008.jpg	99
1888.573	0.594	594.3	congruent	Block2	congruent/STIM_008.jpg	99
1892.874	0.449	449.3	congruent	Block2	congruent/STIM_008.jpg	100
1896.649	0.555	555.1	congruent	Block2	congruent/STIM_009.jpg	99
1899.87	0.603	603.3	congruent	Block2	congruent/STIM_009.jpg	100
1904.532	0.5	499.8	congruent	Block2	congruent/STIM_009.jpg	99
1908.191	0.616	615.9	congruent	Block2	congruent/STIM_009.jpg	99
1911.219	0.579	579.3	congruent	Block2	congruent/STIM_009.jpg	100
1914.815	0.761	760.9	congruent	Block2	congruent/STIM_010.jpg	100
1918.317	0.785	784.6	congruent	Block2	congruent/STIM_010.jpg	100
1922.353	0.468	467.5	congruent	Block2	congruent/STIM_010.jpg	100
1925.019	0.783	783.2	congruent	Block2	congruent/STIM_010.jpg	100
1928.342	0.717	716.7	congruent	Block2	congruent/STIM_010.jpg	100
1931.404	0.624	624.0	congruent	Block2	congruent/STIM_011.jpg	100
1935.706	0.443	443.3	congruent	Block2	congruent/STIM_011.jpg	100
1939.168	0.663	663.1	congruent	Block2	congruent/STIM_011.jpg	100
1942.786	0.787	786.7	congruent	Block2	congruent/STIM_011.jpg	100
1945.992	0.444	444.3	congruent	Block2	congruent/STIM_011.jpg	99
1948.728	0.57	570.1	congruent	Block2	congruent/STIM_012.jpg	100
1952.625	0.541	541.4	congruent	Block2	congruent/STIM_012.jpg	100
1957.079	0.446	445.5	congruent	Block2	congruent/STIM_012.jpg	100
1960.622	0.623	623.2	congruent	Block2	congruent/STIM_012.jpg	100
1964.403	0.526	525.8	congruent	Block2	congruent/STIM_012.jpg	100
1968.505	0.579	579.4	congruent	Block2	congruent/STIM_013.jpg	100
1973.032	0.476	476.5	congruent	Block2	congruent/STIM_013.jpg	99
1976.491	0.627	627.0	congruent	Block2	congruent/STIM_013.jpg	99
1980.815	0.494	494.2	congruent	Block2	congruent/STIM_013.jpg	99
1985.186	0.668	667.7	congruent	Block2	congruent/STIM_013.jpg	99
1988.254	0.629	628.6	congruent	Block2	congruent/STIM_014.jpg	99
1992.658	0.711	710.6	congruent	Block2	congruent/STIM_014.jpg	100
1996.337	0.746	745.9	congruent	Block2	congruent/STIM_014.jpg	100
1999.487	0.56	559.7	congruent	Block2	congruent/STIM_014.jpg	100
2002.484	0.568	567.6	congruent	Block2	congruent/STIM_014.jpg	99
2005.634	0.507	507.1	congruent	Block2	congruent/STIM_015.jpg	99
2009.599	0.49	490.0	congruent	Block2	congruent/STIM_015.jpg	100
2012.808	0.528	528.4	congruent	Block2	congruent/STIM_015.jpg	99
2017.069	0.685	685.1	congruent	Block2	congruent/STIM_015.jpg	100
2021.601	0.761	760.9	congruent	Block2	congruent/STIM_015.jpg	99
2025.319	0.618	617.5	congruent	Block2	congruent/STIM_016.jpg	99
2029.887	0.585	584.8	congruent	Block2	congruent/STIM_016.jpg	99
2033.826	0.766	765.7	congruent	Block2	congruent/STIM_016.jpg	99
2037.925	0.67	670.0	congruent	Block2	congruent/STIM_016.jpg	99
2041.908	0.734	734.4	congruent	Block2	congruent/STIM_016.jpg	100
2046.177	0.568	568.3	congruent	Block2	congruent/STIM_017.jpg	99
2049.004	0.764	764.0	congruent	Block2	congruent/STIM_017.jpg	99
2052.018	0.74	740.3	congruent	Block2	congruent/STIM_017.jpg	99
2055.282	0.786	786.0	congruent	Block2	congruent/STIM_017.jpg	100
2059.484	0.593	592.7	congruent	Block2	congruent/STIM_017.jpg	100
2062.877	0.498	497.5	congruent	Block2	congruent/STIM_018.jpg	100
2066.405	0.516	516.3	congruent	Block2	congruent/STIM_018.jpg	99
2069.459	0.551	551.1	congruent	Block2	congruent/STIM_018.jpg	99
2073.4	0.743	742.9	congruent	Block2	congruent/STIM_018.jpg	100
2076.263	0.695	695.2	congruent	Block2	congruent/STIM_018.jpg	99
2080.745	0.681	680.9	congruent	Block2	congruent/STIM_019.jpg	99
2083.623	0.72	720.1	congruent	Block2	congruent/STIM_019.jpg	99
2086.76	0.696	695.5	congruent	Block2	congruent/STIM_019.jpg	99
2091.341	0.686	686.4	congruent	Block2	congruent/STIM_019.jpg	100
2094.984	0.639	639.4	congruent	Block2	congruent/STIM_019.jpg	99
2097.872	0.596	595.7	congruent	Block2	congruent/STIM_020.jpg	100
2101.758	0.517	516.9	congruent	Block2	congruent/STIM_020.jpg	99
2105.827	0.689	689.0	congruent	Block2	congruent/STIM_020.jpg	100
2109.165	0.689	688.8	congruent	Block2	congruent/STIM_020.jpg	100
2113.75	0.779	779.3	congruent	Block2	congruent/STIM_020.jpg	99
2117.185	0.56	560.4	congruent	Block2	congruent/STIM_021.jpg	99
2121.725	0.744	743.6	congruent	Block2	congruent/STIM_021.jpg	99
2124.754	0.602	602.1	congruent	Block2	congruent/STIM_021.jpg	100
2129.227	0.788	787.5	congruent	Block2	congruent/STIM_021.jpg	99
2132.423	0.534	534.4	congruent	Block2	congruent/STIM_021.jpg	100
2136.53	0.721	721.3	congruent	Block2	congruent/STIM_022.jpg	99
2139.502	0.634	634.3	congruent	Block2	congruent/STIM_022.jpg	100
2142.629	0.748	748.1	congruent	Block2	congruent/STIM_022.jpg	99
2145.939	0.481	480.6	congruent	Block2	congruent/STIM_022.jpg	99
2149.159	0.659	659.4	congruent	Block2	congruent/STIM_022.jpg	100
2153.54	0.727	726.8	congruent	Block2	congruent/STIM_023.jpg	99
2157.642	0.711	711.0	congruent	Block2	congruent/STIM_023.jpg	99
2160.463	0.596	596.0	congruent	Block2	congruent/STIM_023.jpg	100
2164.405	0.6	600.2	congruent	Block2	congruent/STIM_023.jpg	100
2168.67	0.454	453.7	congruent	Block2	congruent/STIM_023.jpg	100
2171.426	0.545	544.8	congruent	Block2	congruent/STIM_024.jpg	99
2174.572	0.664	663.8	congruent	Block2	congruent/STIM_024.jpg	100
2178.884	0.688	688.5	congruent	Block2	congruent/STIM_024.jpg	99
2182.762	0.563	563.4	congruent	Block2	congruent/STIM_024.jpg	100
2186.697	0.452	452.2	congruent	Block2	congruent/STIM_024.jpg	99
2190.831	0.49	490.0	congruent	Block2	congruent/STIM_025.jpg	99
2193.943	0.644	643.9	congruent	Block2	congruent/STIM_025.jpg	100
2197.357	0.538	538.0	congruent	Block2	congruent/STIM_025.jpg	100
2200.254	0.568	568.3	congruent	Block2	congruent/STIM_025.jpg	100
2203.625	0.476	476.3	congruent	Block2	congruent/STIM_025.jpg	100
2206.461	0.751	750.6	congruent	Block2	congruent/STIM_026.jpg	99
2209.487	0.728	728.3	congruent	Block2	congruent/STIM_026.jpg	100
2212.383	0.725	725.2	congruent	Block2	congruent/STIM_026.jpg	100
2216.265	0.736	735.9	congruent	Block2	congruent/STIM_026.jpg	99
2220.836	0.512	512.2	congruent	Block2	congruent/STIM_026.jpg	99
2224.03	0.655	655.1	congruent	Block2	congruent/STIM_027.jpg	100
2228.016	0.777	777.0	congruent	Block2	congruent/STIM_027.jpg	100
2231.209	0.773	773.2	congruent	Block2	congruent/STIM_027.jpg	99
2235.091	0.45	450.2	congruent	Block2	congruent/STIM_027.jpg	99
2237.881	0.693	693.0	congruent	Block2	congruent/STIM_027.jpg	99
2240.929	0.504	504.2	congruent	Block2	congruent/STIM_028.jpg	100
2244.442	0.658	658.4	congruent	Block2	congruent/STIM_028.jpg	100
2247.575	0.554	554.5	congruent	Block2	congruent/STIM_028.jpg	100
2251.772	0.582	581.8	congruent	Block2	congruent/STIM_028.jpg	99
2254.934	0.63	630.1	congruent	Block2	congruent/STIM_028.jpg	100
2259.327	0.643	643.3	congruent	Block2	congruent/STIM_029.jpg	100
2262.893	0.632	632.2	congruent	Block2	congruent/STIM_029.jpg	100
2266.434	0.629	629.1	congruent	Block2	congruent/STIM_029.jpg	100
2269.423	0.618	618.2	congruent	Block2	congruent/STIM_029.jpg	99
2273.952	0.64	639.5	congruent	Block2	congruent/STIM_029.jpg	100
2277.869	0.759	759.0	incongruent	Block3	incongruent/STIM_000.jpg	99
2280.907	0.692	691.8	incongruent	Block3	incongruent/STIM_000.jpg	100
2284.123	0.716	715.6	incongruent	Block3	incongruent/STIM_000.jpg	99
2288.027	0.536	535.6	incongruent	Block3	incongruent/STIM_000.jpg	100
2290.668	0.715	714.6	incongruent	Block3	incongruent/STIM_000.jpg	100
2294.617	0.714	713.5	incongruent	Block3	incongruent/STIM_001.jpg	100
2299.394	0.674	674.2	incongruent	Block3	incongruent/STIM_001.jpg	99
2303.819	0.697	697.4	incongruent	Block3	incongruent/STIM_001.jpg	99
2308.537	0.672	671.8	incongruent	Block3	incongruent/STIM_001.jpg	100
2311.518	0.709	708.6	incongruent	Block3	incongruent/STIM_001.jpg	100
2315.452	0.57	570.4	incongruent	Block3	incongruent/STIM_002.jpg	99
2318.945	0.523	523.0	incongruent	Block3	incongruent/STIM_002.jpg	99
2322.839	0.772	772.0	incongruent	Block3	incongruent/STIM_002.jpg	99
2327.341	0.816	816.3	incongruent	Block3	incongruent/STIM_002.jpg	100
2330.697	0.539	539.3	incongruent	Block3	incongruent/STIM_002.jpg	99
2333.312	0.621	620.8	incongruent	Block3	incongruent/STIM_003.jpg	100
2337.73	0.505	504.9	incongruent	Block3	incongruent/STIM_003.jpg	99
2341.701	0.765	765.4	incongruent	Block3	incongruent/STIM_003.jpg	99
2345.966	0.863	862.9	incongruent	Block3	incongruent/STIM_003.jpg	100
2350.501	0.708	708.2	incongruent	Block3	incongruent/STIM_003.jpg	99
2354.856	0.502	501.7	incongruent	Block3	incongruent/STIM_004.jpg	99
2358.91	0.814	813.8	incongruent	Block3	incongruent/STIM_004.jpg	100
2362.57	0.458	458.0	incongruent	Block3	incongruent/STIM_004.jpg	100
2366.016	0.524	524.3	incongruent	Block3	incongruent/STIM_004.jpg	99
2369.707	0.671	670.6	incongruent	Block3	incongruent/STIM_004.jpg	100
2373.146	0.634	633.5	incongruent	Block3	incongruent/STIM_005.jpg	99
2376.475	0.82	820.4	incongruent	Block3	incongruent/STIM_005.jpg	100
2381.409	0.724	724.3	incongruent	Block3	incongruent/STIM_005.jpg	100
2386.078	0.909	909.4	incongruent	Block3	incongruent/STIM_005.jpg	99
2389.959	0.5	500.4	incongruent	Block3	incongruent/STIM_005.jpg	100
2392.978	0.472	472.5	incongruent	Block3	incongruent/STIM_006.jpg	100
2397.28	0.466	465.7	incongruent	Block3	incongruent/STIM_006.jpg	99
2401.073	0.731	731.4	incongruent	Block3	incongruent/STIM_006.jpg	100
2404.159	0.866	866.4	incongruent	Block3	incongruent/STIM_006.jpg	100
2408.868	0.636	635.5	incongruent	Block3	incongruent/STIM_006.jpg	100
2413.526	0.734	734.1	incongruent	Block3	incongruent/STIM_007.jpg	99
2417.172	0.9	900.3	incongruent	Block3	incongruent/STIM_007.jpg	100
2421.874	0.594	594.0	incongruent	Block3	incongruent/STIM_007.jpg	99
2426.025	0.893	893.2	incongruent	Block3	incongruent/STIM_007.jpg	99
2429.172	0.687	687.3	incongruent	Block3	incongruent/STIM_007.jpg	100
2432.652	0.777	777.4	incongruent	Block3	incongruent/STIM_008.jpg	99
2436.945	0.746	746.0	incongruent	Block3	incongruent/STIM_008.jpg	99
2441.717	0.44	439.7	incongruent	Block3	incongruent/STIM_008.jpg	99
2445.519	0.797	797.2	incongruent	Block3	incongruent/STIM_008.jpg	100
2450.017	0.878	878.5	incongruent	Block3	incongruent/STIM_008.jpg	99
2454.611	0.783	783.0	incongruent	Block3	incongruent/STIM_009.jpg	99
2459.14	0.5	500.2	incongruent	Block3	incongruent/STIM_009.jpg	100
2462.383	0.804	804.5	incongruent	Block3	incongruent/STIM_009.jpg	99
2467.054	0.572	572.0	incongruent	Block3	incongruent/STIM_009.jpg	99
2471.652	0.43	429.9	incongruent	Block3	incongruent/STIM_009.jpg	100
2474.235	0.432	432.4	incongruent	Block3	incongruent/STIM_010.jpg	99
2478.301	0.84	840.3	incongruent	Block3	incongruent/STIM_010.jpg	99
2481.422	0.572	571.9	incongruent	Block3	incongruent/STIM_010.jpg	99
2485.099	0.492	491.9	incongruent	Block3	incongruent/STIM_010.jpg	100
2489.267	0.628	628.4	incongruent	Block3	incongruent/STIM_010.jpg	99
2493.258	0.901	900.8	incongruent	Block3	incongruent/STIM_011.jpg	100
2497.224	0.789	788.6	incongruent	Block3	incongruent/STIM_011.jpg	99
2500.252	0.581	581.2	incongruent	Block3	incongruent/STIM_011.jpg	100
2503.374	0.442	441.8	incongruent	Block3	incongruent/STIM_011.jpg	100
2507.048	0.511	510.7	incongruent	Block3	incongruent/STIM_011.jpg	99
2509.987	0.875	874.9	incongruent	Block3	incongruent/STIM_012.jpg	99
2514.12	0.52	519.6	incongruent	Block3	incongruent/STIM_012.jpg	100
2517.73	0.474	473.6	incongruent	Block3	incongruent/STIM_012.jpg	99
2520.992	0.463	463.3	incongruent	Block3	incongruent/STIM_012.jpg	100
2523.837	0.551	551.1	incongruent	Block3	incongruent/STIM_012.jpg	100
2528.187	0.546	545.5	incongruent	Block3	incongruent/STIM_013.jpg	100
2530.936	0.655	654.9	incongruent	Block3	incongruent/STIM_013.jpg	100
2535.659	0.755	755.2	incongruent	Block3	incongruent/STIM_013.jpg	100
2539.288	0.714	714.5	incongruent	Block3	incongruent/STIM_013.jpg	100
2542.44	0.685	685.0	incongruent	Block3	incongruent/STIM_013.jpg	99
2546.249	0.622	622.1	incongruent	Block3	incongruent/STIM_014.jpg	100
2550.833	0.534	533.6	incongruent	Block3	incongruent/STIM_014.jpg	100
2553.921	0.53	529.8	incongruent	Block3	incongruent/STIM_014.jpg	99
2557.281	0.8	799.9	incongruent	Block3	incongruent/STIM_014.jpg	99
2560.433	0.745	744.8	incongruent	Block3	incongruent/STIM_014.jpg	99
2564.684	0.594	593.6	incongruent	Block3	incongruent/STIM_015.jpg	100
2568.721	0.702	702.3	incongruent	Block3	incongruent/STIM_015.jpg	100
2572.17	0.819	819.0	incongruent	Block3	incongruent/STIM_015.jpg	99
2575.175	0.436	436.2	incongruent	Block3	incongruent/STIM_015.jpg	100
2579.435	0.896	895.9	incongruent	Block3	incongruent/STIM_015.jpg	100
2584.017	0.64	639.5	incongruent	Block3	incongruent/STIM_016.jpg	100
2588.166	0.916	915.5	incongruent	Block3	incongruent/STIM_016.jpg	99
2592.842	0.438	438.1	incongruent	Block3	incongruent/STIM_016.jpg	100
2595.776	0.544	544.5	incongruent	Block3	incongruent/STIM_016.jpg	100
2599.13	0.753	752.6	incongruent	Block3	incongruent/STIM_016.jpg	100
2603.227	0.686	685.8	incongruent	Block3	incongruent/STIM_017.jpg	100
2607.768	0.474	474.4	incongruent	Block3	incongruent/STIM_017.jpg	99
2612.27	0.821	820.6	incongruent	Block3	incongruent/STIM_017.jpg	100
2616.353	0.73	729.8	incongruent	Block3	incongruent/STIM_017.jpg	99
2620.172	0.855	855.4	incongruent	Block3	incongruent/STIM_017.jpg	100
2623.45	0.537	536.9	incongruent	Block3	incongruent/STIM_018.jpg	99
2627.549	0.575	575.0	incongruent	Block3	incongruent/STIM_018.jpg	99
2631.645	0.638	638.4	incongruent	Block3	incongruent/STIM_018.jpg	100
2636.301	0.724	724.3	incongruent	Block3	incongruent/STIM_018.jpg	99
2640.92	0.677	676.7	incongruent	Block3	incongruent/STIM_018.jpg	99
2644.36	0.526	526.1	incongruent	Block3	incongruent/STIM_019.jpg	99
2648.901	0.52	520.1	incongruent	Block3	incongruent/STIM_019.jpg	100
2652.449	0.753	753.0	incongruent	Block3	incongruent/STIM_019.jpg	99
2656.204	0.771	771.4	incongruent	Block3	incongruent/STIM_019.jpg	99
2659.714	0.444	443.6	incongruent	Block3	incongruent/STIM_019.jpg	99
2662.235	0.53	529.9	incongruent	Block3	incongruent/STIM_020.jpg	100
2665.385	0.485	485.3	incongruent	Block3	incongruent/STIM_020.jpg	100
2669.021	0.598	597.7	incongruent	Block3	incongruent/STIM_020.jpg	99
2672.749	0.514	514.2	incongruent	Block3	incongruent/STIM_020.jpg	99
2675.364	0.657	657.2	incongruent	Block3	incongruent/STIM_020.jpg	100
2679.23	0.885	884.6	incongruent	Block3	incongruent/STIM_021.jpg	99
2682.813	0.648	648.3	incongruent	Block3	incongruent/STIM_021.jpg	99
2685.823	0.807	807.3	incongruent	Block3	incongruent/STIM_021.jpg	99
2689.773	0.861	860.7	incongruent	Block3	incongruent/STIM_021.jpg	100
2694.173	0.517	517.2	incongruent	Block3	incongruent/STIM_021.jpg	99
2698.186	0.664	663.5	incongruent	Block3	incongruent/STIM_022.jpg	100
2702.471	0.715	714.8	incongruent	Block3	incongruent/STIM_022.jpg	100
2707.283	0.512	512.1	incongruent	Block3	incongruent/STIM_022.jpg	99
2711.67	0.663	663.0	incongruent	Block3	incongruent/STIM_022.jpg	99
2715.217	0.693	692.8	incongruent	Block3	incongruent/STIM_022.jpg	100
2718.807	0.892	891.7	incongruent	Block3	incongruent/STIM_023.jpg	99
2723.032	0.51	509.9	incongruent	Block3	incongruent/STIM_023.jpg	100
2726.765	0.75	749.8	incongruent	Block3	incongruent/STIM_023.jpg	99
2731.057	0.779	778.9	incongruent	Block3	incongruent/STIM_023.jpg	100
2735.042	0.771	770.7	incongruent	Block3	incongruent/STIM_023.jpg	100
2738.785	0.791	790.6	incongruent	Block3	incongruent/STIM_024.jpg	100
2741.739	0.755	755.2	incongruent	Block3	incongruent/STIM_024.jpg	100
2745.855	0.561	561.2	incongruent	Block3	incongruent/STIM_024.jpg	100
2749.538	0.539	538.7	incongruent	Block3	incongruent/STIM_024.jpg	99
2752.879	0.735	735.0	incongruent	Block3	incongruent/STIM_024.jpg	100
2756.213	0.876	876.5	incongruent	Block3	incongruent/STIM_025.jpg	99
2759.663	0.85	850.1	incongruent	Block3	incongruent/STIM_025.jpg	100
2762.823	0.914	913.6	incongruent	Block3	incongruent/STIM_025.jpg	100
2766.775	0.714	713.6	incongruent	Block3	incongruent/STIM_025.jpg	99
2770.222	0.566	565.8	incongruent	Block3	incongruent/STIM_025.jpg	100
2773.723	0.725	724.8	incongruent	Block3	incongruent/STIM_026.jpg	99
2776.883	0.804	804.5	incongruent	Block3	incongruent/STIM_026.jpg	99
2781.432	0.728	728.4	incongruent	Block3	incongruent/STIM_026.jpg	99
2785.866	0.683	683.3	incongruent	Block3	incongruent/STIM_026.jpg	99
2790.134	0.542	542.0	incongruent	Block3	incongruent/STIM_026.jpg	100
2792.8	0.708	708.4	incongruent	Block3	incongruent/STIM_027.jpg	99
2797.305	0.541	541.1	incongruent	Block3	incongruent/STIM_027.jpg	100
2801.251	0.913	913.0	incongruent	Block3	incongruent/STIM_027.jpg	100
2806.157	0.572	572.2	incongruent	Block3	incongruent/STIM_027.jpg	100
2810.506	0.804	803.7	incongruent	Block3	incongruent/STIM_027.jpg	99
2814.126	0.732	731.8	incongruent	Block3	incongruent/STIM_028.jpg	100
2817.921	0.584	583.9	incongruent	Block3	incongruent/STIM_028.jpg	100
2822.078	0.595	595.3	incongruent	Block3	incongruent/STIM_028.jpg	99
2825.237	0.674	674.4	incongruent	Block3	incongruent/STIM_028.jpg	99
2828.524	0.669	669.3	incongruent	Block3	incongruent/STIM_028.jpg	100
2831.774	0.497	497.2	incongruent	Block3	incongruent/STIM_029.jpg	100
2835.4	0.674	673.8	incongruent	Block3	incongruent/STIM_029.jpg	99
2839.157	0.748	747.6	incongruent	Block3	incongruent/STIM_029.jpg	100
2842.386	0.464	464.1	incongruent	Block3	incongruent/STIM_029.jpg	100
2845.061	0.796	795.6	incongruent	Block3	incongruent/STIM_029.jpg	100
2848.362	0.59	589.7	congruent	Block3	congruent/STIM_000.jpg	100
2852.295	0.652	651.5	congruent	Block3	congruent/STIM_000.jpg	99
2855.088	0.55	550.3	congruent	Block3	congruent/STIM_000.jpg	100
2859.589	0.479	478.9	congruent	Block3	congruent/STIM_000.jpg	100
2863.931	0.494	494.0	congruent	Block3	congruent/STIM_000.jpg	99
2867.691	0.56	559.8	congruent	Block3	congruent/STIM_001.jpg	100
2871.71	0.577	576.9	congruent	Block3	congruent/STIM_001.jpg	99
2875.202	0.677	676.7	congruent	Block3	congruent/STIM_001.jpg	99
2879.862	0.481	481.2	congruent	Block3	congruent/STIM_001.jpg	100
2884.389	0.612	612.1	congruent	Block3	congruent/STIM_001.jpg	99
2887.225	0.669	668.6	congruent	Block3	congruent/STIM_002.jpg	100
2890.572	0.487	486.8	congruent	Block3	congruent/STIM_002.jpg	99
2894.735	0.644	643.5	congruent	Block3	congruent/STIM_002.jpg	100
2898.416	0.488	488.0	congruent	Block3	congruent/STIM_002.jpg	100
2901.996	0.542	541.6	congruent	Block3	congruent/STIM_002.jpg	99
2906.058	0.675	675.1	congruent	Block3	congruent/STIM_003.jpg	100
2910.437	0.575	574.7	congruent	Block3	congruent/STIM_003.jpg	99
2913.499	0.64	639.6	congruent	Block3	congruent/STIM_003.jpg	99
2918.225	0.6	599.9	congruent	Block3	congruent/STIM_003.jpg	99
2921.193	0.751	750.8	congruent	Block3	congruent/STIM_003.jpg	99
2924.784	0.772	772.1	congruent	Block3	congruent/STIM_004.jpg	99
2928.544	0.698	698.4	congruent	Block3	congruent/STIM_004.jpg	100
2932.086	0.455	454.8	congruent	Block3	congruent/STIM_004.jpg	100
2935.633	0.773	773.0	congruent	Block3	congruent/STIM_004.jpg	99
2940.506	0.646	646.5	congruent	Block3	congruent/STIM_004.jpg	100
2944.361	0.704	704.0	congruent	Block3	congruent/STIM_005.jpg	99
2947.193	0.45	449.9	congruent	Block3	congruent/STIM_005.jpg	100
2951.147	0.753	753.3	congruent	Block3	congruent/STIM_005.jpg	99
2955.817	0.501	501.4	congruent	Block3	congruent/STIM_005.jpg	99
2959.671	0.655	655.4	congruent	Block3	congruent/STIM_005.jpg	100
2964.407	0.449	449.0	congruent	Block3	congruent/STIM_006.jpg	99
2968.057	0.726	726.2	congruent	Block3	congruent/STIM_006.jpg	99
2972.457	0.5	499.8	congruent	Block3	congruent/STIM_006.jpg	99
2976.474	0.775	775.2	congruent	Block3	congruent/STIM_006.jpg	99
2981.333	0.704	704.4	congruent	Block3	congruent/STIM_006.jpg	100
2985.315	0.53	530.3	congruent	Block3	congruent/STIM_007.jpg	100
2988.139	0.551	550.7	congruent	Block3	congruent/STIM_007.jpg	100
2991.639	0.477	476.6	congruent	Block3	congruent/STIM_007.jpg	100
2994.264	0.778	777.9	congruent	Block3	congruent/STIM_007.jpg	100
2997.35	0.465	465.4	congruent	Block3	congruent/STIM_007.jpg	100
3000.779	0.472	472.1	congruent	Block3	congruent/STIM_008.jpg	99
3005.087	0.471	471.1	congruent	Block3	congruent/STIM_008.jpg	99
3008.06	0.589	589.1	congruent	Block3	congruent/STIM_008.jpg	99
3012.386	0.747	746.8	congruent	Block3	congruent/STIM_008.jpg	100
3016.064	0.51	509.9	congruent	Block3	congruent/STIM_008.jpg	99
3018.646	0.78	780.0	congruent	Block3	congruent/STIM_009.jpg	99
3021.604	0.573	573.1	congruent	Block3	congruent/STIM_009.jpg	99
3025.502	0.674	674.2	congruent	Block3	congruent/STIM_009.jpg	100
3030.189	0.483	483.4	congruent	Block3	congruent/STIM_009.jpg	99
3034.311	0.636	635.8	congruent	Block3	congruent/STIM_009.jpg	100
3037.711	0.552	552.3	congruent	Block3	congruent/STIM_010.jpg	100
3041.115	0.577	576.8	congruent	Block3	congruent/STIM_010.jpg	99
3045.771	0.658	657.5	congruent	Block3	congruent/STIM_010.jpg	100
3049.183	0.536	536.3	congruent	Block3	congruent/STIM_010.jpg	99
3053.559	0.459	459.2	congruent	Block3	congruent/STIM_010.jpg	100
3057.136	0.784	784.3	congruent	Block3	congruent/STIM_011.jpg	100
3060.998	0.667	667.3	congruent	Block3	congruent/STIM_011.jpg	99
3065.049	0.559	559.4	congruent	Block3	congruent/STIM_011.jpg	100
3069.373	0.523	523.4	congruent	Block3	congruent/STIM_011.jpg	100
3073.536	0.768	768.0	congruent	Block3	congruent/STIM_011.jpg	100
3077.7	0.723	723.0	congruent	Block3	congruent/STIM_012.jpg	99
3081.118	0.461	460.8	congruent	Block3	congruent/STIM_012.jpg	99
3084.909	0.439	439.1	congruent	Block3	congruent/STIM_012.jpg	100
3089.393	0.551	551.3	congruent	Block3	congruent/STIM_012.jpg	100
3092.588	0.691	690.9	congruent	Block3	congruent/STIM_012.jpg	100
3095.634	0.752	752.2	congruent	Block3	congruent/STIM_013.jpg	99
3099.371	0.714	714.3	congruent	Block3	congruent/STIM_013.jpg	100
3103.838	0.77	770.1	congruent	Block3	congruent/STIM_013.jpg	100
3108.188	0.458	458.5	congruent	Block3	congruent/STIM_013.jpg	99
3111.303	0.789	789.0	congruent	Block3	congruent/STIM_013.jpg	100
3115.262	0.582	582.4	congruent	Block3	congruent/STIM_014.jpg	99
3118.93	0.462	462.2	congruent	Block3	congruent/STIM_014.jpg	100
3121.919	0.483	483.1	congruent	Block3	congruent/STIM_014.jpg	99
3125.737	0.748	747.5	congruent	Block3	congruent/STIM_014.jpg	100
3128.852	0.61	609.9	congruent	Block3	congruent/STIM_014.jpg	99
3131.76	0.539	539.3	congruent	Block3	congruent/STIM_015.jpg	99
3134.475	0.446	445.6	congruent	Block3	congruent/STIM_015.jpg	100
3137.874	0.514	514.2	congruent	Block3	congruent/STIM_015.jpg	99
3141.251	0.646	645.6	congruent	Block3	congruent/STIM_015.jpg	99
3144.391	0.635	635.3	congruent	Block3	congruent/STIM_015.jpg	100
3148.833	0.551	551.0	congruent	Block3	congruent/STIM_016.jpg	99
3151.72	0.677	676.9	congruent	Block3	congruent/STIM_016.jpg	99
3156.202	0.711	711.2	congruent	Block3	congruent/STIM_016.jpg	99
3160.465	0.658	657.9	congruent	Block3	congruent/STIM_016.jpg	100
3163.465	0.688	688.5	congruent	Block3	congruent/STIM_016.jpg	100
3167.131	0.589	588.6	congruent	Block3	congruent/STIM_017.jpg	100
3170.876	0.773	772.6	congruent	Block3	congruent/STIM_017.jpg	100
3174.326	0.775	774.9	congruent	Block3	congruent/STIM_017.jpg	99
3178.006	0.453	452.7	congruent	Block3	congruent/STIM_017.jpg	99
3181.12	0.729	729.0	congruent	Block3	congruent/STIM_017.jpg	100
3184.199	0.638	637.5	congruent	Block3	congruent/STIM_018.jpg	100
3188.455	0.706	706.0	congruent	Block3	congruent/STIM_018.jpg	99
3191.616	0.669	668.8	congruent	Block3	congruent/STIM_018.jpg	99
3195.26	0.505	505.5	congruent	Block3	congruent/STIM_018.jpg	100
3199.777	0.585	585.1	congruent	Block3	congruent/STIM_018.jpg	100
3202.776	0.735	734.9	congruent	Block3	congruent/STIM_019.jpg	99
3207.459	0.625	625.4	congruent	Block3	congruent/STIM_019.jpg	100
3210.455	0.749	749.1	congruent	Block3	congruent/STIM_019.jpg	99
3213.71	0.536	535.6	congruent	Block3	congruent/STIM_019.jpg	100
3216.947	0.645	645.1	congruent	Block3	congruent/STIM_019.jpg	100
3220.472	0.717	716.8	congruent	Block3	congruent/STIM_020.jpg	100
3223.757	0.491	490.8	congruent	Block3	congruent/STIM_020.jpg	100
3228.287	0.699	698.6	congruent	Block3	congruent/STIM_020.jpg	100
3231.544	0.465	465.1	congruent	Block3	congruent/STIM_020.jpg	99
3234.508	0.744	744.0	congruent	Block3	congruent/STIM_020.jpg	99
3239.268	0.659	658.6	congruent	Block3	congruent/STIM_021.jpg	99
3243.478	0.649	648.9	congruent	Block3	congruent/STIM_021.jpg	100
3246.77	0.723	723.4	congruent	Block3	congruent/STIM_021.jpg	100
3250.607	0.712	712.3	congruent	Block3	congruent/STIM_021.jpg	99
3255.313	0.684	684.1	congruent	Block3	congruent/STIM_021.jpg	100
3259.396	0.752	751.9	congruent	Block3	congruent/STIM_022.jpg	100
3263.987	0.668	667.6	congruent	Block3	congruent/STIM_022.jpg	100
3268.221	0.557	557.0	congruent	Block3	congruent/STIM_022.jpg	99
3272.543	0.479	478.7	congruent	Block3	congruent/STIM_022.jpg	100
3275.433	0.621	620.9	congruent	Block3	congruent/STIM_022.jpg	100
3278.296	0.649	649.4	congruent	Block3	congruent/STIM_023.jpg	100
3282.94	0.756	755.8	congruent	Block3	congruent/STIM_023.jpg	100
3286.07	0.514	514.2	congruent	Block3	congruent/STIM_023.jpg	100
3290.227	0.656	656.5	congruent	Block3	congruent/STIM_023.jpg	99
3293.733	0.551	550.6	congruent	Block3	congruent/STIM_023.jpg	100
3297.506	0.554	554.1	congruent	Block3	congruent/STIM_024.jpg	100
3302.004	0.656	655.7	congruent	Block3	congruent/STIM_024.jpg	100
3305.218	0.563	563.0	congruent	Block3	congruent/STIM_024.jpg	99
3308.062	0.665	665.3	congruent	Block3	congruent/STIM_024.jpg	99
3311.792	0.644	644.2	congruent	Block3	congruent/STIM_024.jpg	99
3315.575	0.588	588.2	congruent	Block3	congruent/STIM_025.jpg	100
3320.218	0.541	541.2	congruent	Block3	congruent/STIM_025.jpg	100
3324.235	0.614	614.1	congruent	Block3	congruent/STIM_025.jpg	100
3327.734	0.786	786.3	congruent	Block3	congruent/STIM_025.jpg	100
3331.24	0.537	537.0	congruent	Block3	congruent/STIM_025.jpg	99
3333.985	0.541	540.6	congruent	Block3	congruent/STIM_026.jpg	99
3337.231	0.612	611.6	congruent	Block3	congruent/STIM_026.jpg	99
3341.129	0.694	694.2	congruent	Block3	congruent/STIM_026.jpg	100
3344.338	0.558	558.1	congruent	Block3	congruent/STIM_026.jpg	100
3347.685	0.559	559.0	congruent	Block3	congruent/STIM_026.jpg	99
3351.928	0.773	773.2	congruent	Block3	congruent/STIM_027.jpg	99
3356.451	0.753	753.3	congruent	Block3	congruent/STIM_027.jpg	100
3360.513	0.457	456.8	congruent	Block3	congruent/STIM_027.jpg	100
3364.959	0.521	520.7	congruent	Block3	congruent/STIM_027.jpg	100
3368.513	0.512	512.4	congruent	Block3	congruent/STIM_027.jpg	100
3372.484	0.779	778.9	congruent	Block3	congruent/STIM_028.jpg	99
3376.597	0.725	724.7	congruent	Block3	congruent/STIM_028.jpg	100
3380.455	0.496	496.4	congruent	Block3	congruent/STIM_028.jpg	100
3384.372	0.551	551.2	congruent	Block3	congruent/STIM_028.jpg	100
3388.788	0.666	665.6	congruent	Block3	congruent/STIM_028.jpg	99
3393.477	0.531	531.2	congruent	Block3	congruent/STIM_029.jpg	99
3397.664	0.659	659.2	congruent	Block3	congruent/STIM_029.jpg	100
3402.103	0.768	768.1	congruent	Block3	congruent/STIM_029.jpg	99
3405.849	0.758	758.4	congruent	Block3	congruent/STIM_029.jpg	99
3409.287	0.483	483.3	congruent	Block3	congruent/STIM_029.jpg	99
