onset	duration	accuracy_binary	trial_type	learning_stage	stimulus
0.0	1.236	1	incongruent	Block1	incongruent/STIM_000.jpg
4.274	0.657	1	incongruent	Block1	incongruent/STIM_000.jpg
7.826	0.661	1	incongruent	Block1	incongruent/STIM_000.jpg
12.434	0.932	1	incongruent	Block1	incongruent/STIM_000.jpg
17.358	0.882	1	incongruent	Block1	incongruent/STIM_000.jpg
20.692	0.828	1	incongruent	Block1	incongruent/STIM_001.jpg
23.743	1.079	0	incongruent	Block1	incongruent/STIM_001.jpg
27.637	1.107	1	incongruent	Block1	incongruent/STIM_001.jpg
30.894	0.726	1	incongruent	Block1	incongruent/STIM_001.jpg
35.355	0.79	1	incongruent	Block1	incongruent/STIM_001.jpg
38.958	1.209	1	incongruent	Block1	incongruent/STIM_002.jpg
44.152	0.966	1	incongruent	Block1	incongruent/STIM_002.jpg
47.231	1.1	1	incongruent	Block1	incongruent/STIM_002.jpg
51.175	0.629	1	incongruent	Block1	incongruent/STIM_002.jpg
55.586	0.57	1	incongruent	Block1	incongruent/STIM_002.jpg
58.736	0.719	1	incongruent	Block1	incongruent/STIM_003.jpg
63.384	1.025	1	incongruent	Block1	incongruent/STIM_003.jpg
67.304	0.721	1	incongruent	Block1	incongruent/STIM_003.jpg
71.492	0.643	1	incongruent	Block1	incongruent/STIM_003.jpg
74.51	0.808	1	incongruent	Block1	incongruent/STIM_003.jpg
78.471	1.102	1	incongruent	Block1	incongruent/STIM_004.jpg
81.609	0.692	1	incongruent	Block1	incongruent/STIM_004.jpg
84.676	1.204	1	incongruent	Block1	incongruent/STIM_004.jpg
89.784	0.858	1	incongruent	Block1	incongruent/STIM_004.jpg
93.133	1.099	1	incongruent	Block1	incongruent/STIM_004.jpg
96.39	0.92	1	incongruent	Block1	incongruent/STIM_005.jpg
101.308	1.139	1	incongruent	Block1	incongruent/STIM_005.jpg
106.235	0.657	1	incongruent	Block1	incongruent/STIM_005.jpg
109.622	0.995	1	incongruent	Block1	incongruent/STIM_005.jpg
113.853	0.606	1	incongruent	Block1	incongruent/STIM_005.jpg
117.75	1.058	1	incongruent	Block1	incongruent/STIM_006.jpg
120.86	1.236	1	incongruent	Block1	incongruent/STIM_006.jpg
125.418	0.874	1	incongruent	Block1	incongruent/STIM_006.jpg
130.159	0.563	1	incongruent	Block1	incongruent/STIM_006.jpg
132.906	0.851	1	incongruent	Block1	incongruent/STIM_006.jpg
136.642	0.696	1	incongruent	Block1	incongruent/STIM_007.jpg
141.267	0.743	1	incongruent	Block1	incongruent/STIM_007.jpg
144.589	1.134	1	incongruent	Block1	incongruent/STIM_007.jpg
147.887	0.676	1	incongruent	Block1	incongruent/STIM_007.jpg
151.895	0.61	1	incongruent	Block1	incongruent/STIM_007.jpg
156.341	0.996	1	incongruent	Block1	incongruent/STIM_008.jpg
161.08	1.303	1	incongruent	Block1	incongruent/STIM_008.jpg
165.749	0.838	1	incongruent	Block1	incongruent/STIM_008.jpg
169.925	1.052	1	incongruent	Block1	incongruent/STIM_008.jpg
174.441	1.064	1	incongruent	Block1	incongruent/STIM_008.jpg
178.86	1.3	1	incongruent	Block1	incongruent/STIM_009.jpg
182.938	0.736	1	incongruent	Block1	incongruent/STIM_009.jpg
186.967	1.048	1	incongruent	Block1	incongruent/STIM_009.jpg
191.251	0.769	1	incongruent	Block1	incongruent/STIM_009.jpg
194.316	0.907	1	incongruent	Block1	incongruent/STIM_009.jpg
198.123	0.984	1	incongruent	Block1	incongruent/STIM_010.jpg
201.636	1.221	1	incongruent	Block1	incongruent/STIM_010.jpg
205.683	0.814	1	incongruent	Block1	incongruent/STIM_010.jpg
208.833	0.83	1	incongruent	Block1	incongruent/STIM_010.jpg
213.22	0.858	1	incongruent	Block1	incongruent/STIM_010.jpg
216.944	0.965	1	incongruent	Block1	incongruent/STIM_011.jpg
220.316	0.994	1	incongruent	Block1	incongruent/STIM_011.jpg
224.173	0.916	1	incongruent	Block1	incongruent/STIM_011.jpg
227.523	1.143	1	incongruent	Block1	incongruent/STIM_011.jpg
231.106	1.045	1	incongruent	Block1	incongruent/STIM_011.jpg
235.861	0.975	1	incongruent	Block1	incongruent/STIM_012.jpg
238.962	0.763	1	incongruent	Block1	incongruent/STIM_012.jpg
241.884	1.015	1	incongruent	Block1	incongruent/STIM_012.jpg
246.422	0.925	1	incongruent	Block1	incongruent/STIM_012.jpg
250.178	0.542	1	incongruent	Block1	incongruent/STIM_012.jpg
253.376	0.719	1	incongruent	Block1	incongruent/STIM_013.jpg
256.917	1.312	1	incongruent	Block1	incongruent/STIM_013.jpg
261.012	1.063	1	incongruent	Block1	incongruent/STIM_013.jpg
265.898	1.078	0	incongruent	Block1	incongruent/STIM_013.jpg
269.414	0.79	1	incongruent	Block1	incongruent/STIM_013.jpg
273.013	0.955	1	incongruent	Block1	incongruent/STIM_014.jpg
277.107	0.851	1	incongruent	Block1	incongruent/STIM_014.jpg
280.834	0.668	0	incongruent	Block1	incongruent/STIM_014.jpg
285.229	0.954	1	incongruent	Block1	incongruent/STIM_014.jpg
289.061	0.872	1	incongruent	Block1	incongruent/STIM_014.jpg
292.193	0.859	1	incongruent	Block1	incongruent/STIM_015.jpg
296.214	1.301	1	incongruent	Block1	incongruent/STIM_015.jpg
299.754	0.716	1	incongruent	Block1	incongruent/STIM_015.jpg
304.095	1.01	1	incongruent	Block1	incongruent/STIM_015.jpg
308.24	0.646	1	incongruent	Block1	incongruent/STIM_015.jpg
312.603	1.245	1	incongruent	Block1	incongruent/STIM_016.jpg
316.862	1.003	1	incongruent	Block1	incongruent/STIM_016.jpg
321.508	1.011	1	incongruent	Block1	incongruent/STIM_016.jpg
325.984	0.744	1	incongruent	Block1	incongruent/STIM_016.jpg
330.412	1.069	1	incongruent	Block1	incongruent/STIM_016.jpg
333.771	0.926	1	incongruent	Block1	incongruent/STIM_017.jpg
337.923	0.771	1	incongruent	Block1	incongruent/STIM_017.jpg
342.642	0.92	1	incongruent	Block1	incongruent/STIM_017.jpg
346.194	1.013	1	incongruent	Block1	incongruent/STIM_017.jpg
350.389	0.753	1	incongruent	Block1	incongruent/STIM_017.jpg
353.318	1.205	0	incongruent	Block1	incongruent/STIM_018.jpg
357.304	0.662	1	incongruent	Block1	incongruent/STIM_018.jpg
360.747	0.869	1	incongruent	Block1	incongruent/STIM_018.jpg
365.406	1.111	1	incongruent	Block1	incongruent/STIM_018.jpg
368.629	0.52	1	incongruent	Block1	incongruent/STIM_018.jpg
371.951	1.197	1	incongruent	Block1	incongruent/STIM_019.jpg
376.236	0.662	1	incongruent	Block1	incongruent/STIM_019.jpg
379.64	1.224	1	incongruent	Block1	incongruent/STIM_019.jpg
383.851	0.733	1	incongruent	Block1	incongruent/STIM_019.jpg
388.244	0.849	0	incongruent	Block1	incongruent/STIM_019.jpg
392.571	0.86	0	incongruent	Block1	incongruent/STIM_020.jpg
396.323	0.683	1	incongruent	Block1	incongruent/STIM_020.jpg
400.385	0.904	1	incongruent	Block1	incongruent/STIM_020.jpg
403.656	0.94	1	incongruent	Block1	incongruent/STIM_020.jpg
407.296	1.05	1	incongruent	Block1	incongruent/STIM_020.jpg
410.992	0.964	1	incongruent	Block1	incongruent/STIM_021.jpg
415.254	0.947	1	incongruent	Block1	incongruent/STIM_021.jpg
418.75	1.164	1	incongruent	Block1	incongruent/STIM_021.jpg
422.231	0.887	1	incongruent	Block1	incongruent/STIM_021.jpg
426.087	0.781	1	incongruent	Block1	incongruent/STIM_021.jpg
430.291	1.097	1	incongruent	Block1	incongruent/STIM_022.jpg
434.894	0.999	0	incongruent	Block1	incongruent/STIM_022.jpg
437.929	1.152	1	incongruent	Block1	incongruent/STIM_022.jpg
442.855	0.818	1	incongruent	Block1	incongruent/STIM_022.jpg
447.597	0.948	1	incongruent	Block1	incongruent/STIM_022.jpg
451.707	1.286	1	incongruent	Block1	incongruent/STIM_023.jpg
455.12	1.124	1	incongruent	Block1	incongruent/STIM_023.jpg
459.967	1.188	1	incongruent	Block1	incongruent/STIM_023.jpg
463.21	0.927	1	incongruent	Block1	incongruent/STIM_023.jpg
468.062	0.807	1	incongruent	Block1	incongruent/STIM_023.jpg
472.69	0.676	1	incongruent	Block1	incongruent/STIM_024.jpg
477.271	0.932	1	incongruent	Block1	incongruent/STIM_024.jpg
480.321	0.626	1	incongruent	Block1	incongruent/STIM_024.jpg
484.889	0.609	1	incongruent	Block1	incongruent/STIM_024.jpg
488.836	0.654	1	incongruent	Block1	incongruent/STIM_024.jpg
493.425	0.777	1	incongruent	Block1	incongruent/STIM_025.jpg
497.14	0.826	1	incongruent	Block1	incongruent/STIM_025.jpg
500.209	0.906	1	incongruent	Block1	incongruent/STIM_025.jpg
503.423	0.596	1	incongruent	Block1	incongruent/STIM_025.jpg
507.84	0.843	1	incongruent	Block1	incongruent/STIM_025.jpg
512.347	1.155	1	incongruent	Block1	incongruent/STIM_026.jpg
516.219	1.272	0	incongruent	Block1	incongruent/STIM_026.jpg
519.75	0.998	0	incongruent	Block1	incongruent/STIM_026.jpg
523.702	0.655	1	incongruent	Block1	incongruent/STIM_026.jpg
528.224	0.898	1	incongruent	Block1	incongruent/STIM_026.jpg
531.335	0.948	1	incongruent	Block1	incongruent/STIM_027.jpg
536.101	1.003	1	incongruent	Block1	incongruent/STIM_027.jpg
541.078	0.968	1	incongruent	Block1	incongruent/STIM_027.jpg
544.088	0.715	1	incongruent	Block1	incongruent/STIM_027.jpg
547.338	0.782	1	incongruent	Block1	incongruent/STIM_027.jpg
550.545	0.798	1	incongruent	Block1	incongruent/STIM_028.jpg
555.131	0.96	1	incongruent	Block1	incongruent/STIM_028.jpg
559.381	0.828	1	incongruent	Block1	incongruent/STIM_028.jpg
562.764	0.763	1	incongruent	Block1	incongruent/STIM_028.jpg
566.863	0.693	1	incongruent	Block1	incongruent/STIM_028.jpg
569.769	0.65	1	incongruent	Block1	incongruent/STIM_029.jpg
572.47	1.145	0	incongruent	Block1	incongruent/STIM_029.jpg
575.722	0.919	1	incongruent	Block1	incongruent/STIM_029.jpg
579.182	0.698	1	incongruent	Block1	incongruent/STIM_029.jpg
581.957	1.032	1	incongruent	Block1	incongruent/STIM_029.jpg
586.293	0.731	1	congruent	Block1	congruent/STIM_000.jpg
589.142	0.684	1	congruent	Block1	congruent/STIM_000.jpg
592.905	0.536	1	congruent	Block1	congruent/STIM_000.jpg
596.603	0.552	1	congruent	Block1	congruent/STIM_000.jpg
599.673	0.475	1	congruent	Block1	congruent/STIM_000.jpg
603.094	0.47	1	congruent	Block1	congruent/STIM_001.jpg
607.432	0.581	1	congruent	Block1	congruent/STIM_001.jpg
611.249	0.684	1	congruent	Block1	congruent/STIM_001.jpg
615.648	0.524	1	congruent	Block1	congruent/STIM_001.jpg
618.44	0.532	1	congruent	Block1	congruent/STIM_001.jpg
622.304	0.737	1	congruent	Block1	congruent/STIM_002.jpg
625.947	0.804	1	congruent	Block1	congruent/STIM_002.jpg
629.109	0.526	1	congruent	Block1	congruent/STIM_002.jpg
631.841	0.488	1	congruent	Block1	congruent/STIM_002.jpg
634.794	0.611	1	congruent	Block1	congruent/STIM_002.jpg
639.195	0.653	1	congruent	Block1	congruent/STIM_003.jpg
642.863	0.502	1	congruent	Block1	congruent/STIM_003.jpg
645.433	0.824	1	congruent	Block1	congruent/STIM_003.jpg
648.661	0.492	1	congruent	Block1	congruent/STIM_003.jpg
651.364	0.803	1	congruent	Block1	congruent/STIM_003.jpg
654.768	0.767	1	congruent	Block1	congruent/STIM_004.jpg
657.578	0.694	1	congruent	Block1	congruent/STIM_004.jpg
661.901	0.812	1	congruent	Block1	congruent/STIM_004.jpg
665.589	0.596	1	congruent	Block1	congruent/STIM_004.jpg
668.827	0.694	1	congruent	Block1	congruent/STIM_004.jpg
671.819	0.777	1	congruent	Block1	congruent/STIM_005.jpg
675.995	0.59	1	congruent	Block1	congruent/STIM_005.jpg
680.099	0.78	1	congruent	Block1	congruent/STIM_005.jpg
683.825	0.635	1	congruent	Block1	congruent/STIM_005.jpg
687.271	0.483	1	congruent	Block1	congruent/STIM_005.jpg
690.469	0.614	1	congruent	Block1	congruent/STIM_006.jpg
693.769	0.588	1	congruent	Block1	congruent/STIM_006.jpg
698.254	0.565	1	congruent	Block1	congruent/STIM_006.jpg
701.354	0.734	1	congruent	Block1	congruent/STIM_006.jpg
704.973	0.74	1	congruent	Block1	congruent/STIM_006.jpg
708.511	0.492	1	congruent	Block1	congruent/STIM_007.jpg
711.817	0.804	1	congruent	Block1	congruent/STIM_007.jpg
716.494	0.698	1	congruent	Block1	congruent/STIM_007.jpg
719.776	0.63	1	congruent	Block1	congruent/STIM_007.jpg
724.208	0.522	1	congruent	Block1	congruent/STIM_007.jpg
728.566	0.631	1	congruent	Block1	congruent/STIM_008.jpg
732.318	0.517	1	congruent	Block1	congruent/STIM_008.jpg
736.741	0.634	1	congruent	Block1	congruent/STIM_008.jpg
740.403	0.707	1	congruent	Block1	congruent/STIM_008.jpg
744.787	0.672	1	congruent	Block1	congruent/STIM_008.jpg
749.285	0.534	1	congruent	Block1	congruent/STIM_009.jpg
751.839	0.644	1	congruent	Block1	congruent/STIM_009.jpg
754.584	0.731	1	congruent	Block1	congruent/STIM_009.jpg
758.849	0.713	1	congruent	Block1	congruent/STIM_009.jpg
761.823	0.575	1	congruent	Block1	congruent/STIM_009.jpg
765.868	0.62	1	congruent	Block1	congruent/STIM_010.jpg
768.575	0.478	1	congruent	Block1	congruent/STIM_010.jpg
772.652	0.561	1	congruent	Block1	congruent/STIM_010.jpg
776.841	0.626	1	congruent	Block1	congruent/STIM_010.jpg
779.782	0.532	1	congruent	Block1	congruent/STIM_010.jpg
783.638	0.462	1	congruent	Block1	congruent/STIM_011.jpg
786.535	0.769	1	congruent	Block1	congruent/STIM_011.jpg
789.611	0.66	1	congruent	Block1	congruent/STIM_011.jpg
792.723	0.486	1	congruent	Block1	congruent/STIM_011.jpg
796.421	0.662	1	congruent	Block1	congruent/STIM_011.jpg
800.44	0.596	1	congruent	Block1	congruent/STIM_012.jpg
803.92	0.573	0	congruent	Block1	congruent/STIM_012.jpg
807.798	0.576	1	congruent	Block1	congruent/STIM_012.jpg
810.517	0.576	1	congruent	Block1	congruent/STIM_012.jpg
813.337	0.764	1	congruent	Block1	congruent/STIM_012.jpg
817.983	0.519	1	congruent	Block1	congruent/STIM_013.jpg
820.58	0.606	1	congruent	Block1	congruent/STIM_013.jpg
824.351	0.53	1	congruent	Block1	congruent/STIM_013.jpg
828.352	0.653	1	congruent	Block1	congruent/STIM_013.jpg
832.975	0.632	1	congruent	Block1	congruent/STIM_013.jpg
835.985	0.727	1	congruent	Block1	congruent/STIM_014.jpg
840.303	0.629	1	congruent	Block1	congruent/STIM_014.jpg
843.892	0.785	1	congruent	Block1	congruent/STIM_014.jpg
848.076	0.794	1	congruent	Block1	congruent/STIM_014.jpg
851.745	0.492	1	congruent	Block1	congruent/STIM_014.jpg
855.396	0.654	1	congruent	Block1	congruent/STIM_015.jpg
859.683	0.597	0	congruent	Block1	congruent/STIM_015.jpg
863.762	0.485	1	congruent	Block1	congruent/STIM_015.jpg
868.133	0.548	1	congruent	Block1	congruent/STIM_015.jpg
872.623	0.706	1	congruent	Block1	congruent/STIM_015.jpg
876.277	0.712	1	congruent	Block1	congruent/STIM_016.jpg
880.658	0.495	1	congruent	Block1	congruent/STIM_016.jpg
883.864	0.68	1	congruent	Block1	congruent/STIM_016.jpg
888.198	0.696	1	congruent	Block1	congruent/STIM_016.jpg
891.534	0.548	1	congruent	Block1	congruent/STIM_016.jpg
894.533	0.826	1	congruent	Block1	congruent/STIM_017.jpg
898.691	0.595	1	congruent	Block1	congruent/STIM_017.jpg
901.505	0.689	1	congruent	Block1	congruent/STIM_017.jpg
904.975	0.74	1	congruent	Block1	congruent/STIM_017.jpg
908.148	0.668	1	congruent	Block1	congruent/STIM_017.jpg
911.829	0.756	1	congruent	Block1	congruent/STIM_018.jpg
915.124	0.518	1	congruent	Block1	congruent/STIM_018.jpg
918.249	0.628	1	congruent	Block1	congruent/STIM_018.jpg
921.234	0.574	1	congruent	Block1	congruent/STIM_018.jpg
925.414	0.619	1	congruent	Block1	congruent/STIM_018.jpg
928.09	0.667	1	congruent	Block1	congruent/STIM_019.jpg
931.195	0.463	1	congruent	Block1	congruent/STIM_019.jpg
934.109	0.707	1	congruent	Block1	congruent/STIM_019.jpg
937.569	0.464	1	congruent	Block1	congruent/STIM_019.jpg
941.243	0.797	1	congruent	Block1	congruent/STIM_019.jpg
944.077	0.708	1	congruent	Block1	congruent/STIM_020.jpg
946.818	0.728	1	congruent	Block1	congruent/STIM_020.jpg
950.095	0.52	1	congruent	Block1	congruent/STIM_020.jpg
954.158	0.494	1	congruent	Block1	congruent/STIM_020.jpg
958.45	0.638	1	congruent	Block1	congruent/STIM_020.jpg
963.024	0.609	1	congruent	Block1	congruent/STIM_021.jpg
967.133	0.462	1	congruent	Block1	congruent/STIM_021.jpg
970.412	0.536	1	congruent	Block1	congruent/STIM_021.jpg
974.908	0.773	1	congruent	Block1	congruent/STIM_021.jpg
978.564	0.498	1	congruent	Block1	congruent/STIM_021.jpg
982.25	0.798	1	congruent	Block1	congruent/STIM_022.jpg
986.448	0.578	1	congruent	Block1	congruent/STIM_022.jpg
989.875	0.594	0	congruent	Block1	congruent/STIM_022.jpg
992.494	0.475	1	congruent	Block1	congruent/STIM_022.jpg
996.194	0.774	1	congruent	Block1	congruent/STIM_022.jpg
1000.454	0.777	1	congruent	Block1	congruent/STIM_023.jpg
1004.629	0.671	1	congruent	Block1	congruent/STIM_023.jpg
1007.814	0.734	1	congruent	Block1	congruent/STIM_023.jpg
1011.172	0.471	1	congruent	Block1	congruent/STIM_023.jpg
1015.228	0.781	1	congruent	Block1	congruent/STIM_023.jpg
1019.193	0.771	1	congruent	Block1	congruent/STIM_024.jpg
1023.831	0.725	1	congruent	Block1	congruent/STIM_024.jpg
1027.944	0.672	1	congruent	Block1	congruent/STIM_024.jpg
1030.695	0.686	1	congruent	Block1	congruent/STIM_024.jpg
1035.126	0.759	1	congruent	Block1	congruent/STIM_024.jpg
1039.507	0.698	0	congruent	Block1	congruent/STIM_025.jpg
1042.814	0.687	1	congruent	Block1	congruent/STIM_025.jpg
1045.937	0.829	1	congruent	Block1	congruent/STIM_025.jpg
1050.553	0.716	1	congruent	Block1	congruent/STIM_025.jpg
1053.666	0.653	1	congruent	Block1	congruent/STIM_025.jpg
1056.833	0.528	1	congruent	Block1	congruent/STIM_026.jpg
1060.474	0.787	1	congruent	Block1	congruent/STIM_026.jpg
1064.397	0.808	1	congruent	Block1	congruent/STIM_026.jpg
1067.8	0.814	1	congruent	Block1	congruent/STIM_026.jpg
1070.834	0.679	1	congruent	Block1	congruent/STIM_026.jpg
1075.072	0.614	1	congruent	Block1	congruent/STIM_027.jpg
1077.746	0.652	1	congruent	Block1	congruent/STIM_027.jpg
1081.942	0.616	1	congruent	Block1	congruent/STIM_027.jpg
1086.375	0.736	1	congruent	Block1	congruent/STIM_027.jpg
1089.385	0.54	1	congruent	Block1	congruent/STIM_027.jpg
1091.958	0.488	1	congruent	Block1	congruent/STIM_028.jpg
1095.157	0.649	1	congruent	Block1	congruent/STIM_028.jpg
1098.31	0.649	0	congruent	Block1	congruent/STIM_028.jpg
1101.249	0.75	0	congruent	Block1	congruent/STIM_028.jpg
1105.558	0.68	1	congruent	Block1	congruent/STIM_028.jpg
1108.547	0.516	1	congruent	Block1	congruent/STIM_029.jpg
1112.157	0.654	1	congruent	Block1	congruent/STIM_029.jpg
1116.758	0.537	1	congruent	Block1	congruent/STIM_029.jpg
1120.473	0.81	1	congruent	Block1	congruent/STIM_029.jpg
1124.294	0.632	1	congruent	Block1	congruent/STIM_029.jpg
1127.171	0.946	1	incongruent	Block2	incongruent/STIM_000.jpg
1131.917	0.94	1	incongruent	Block2	incongruent/STIM_000.jpg
1134.924	0.657	1	incongruent	Block2	incongruent/STIM_000.jpg
1138.98	0.843	1	incongruent	Block2	incongruent/STIM_000.jpg
1142.569	0.625	1	incongruent	Block2	incongruent/STIM_000.jpg
1145.774	0.652	1	incongruent	Block2	incongruent/STIM_001.jpg
1148.538	0.809	1	incongruent	Block2	incongruent/STIM_001.jpg
1152.515	0.702	1	incongruent	Block2	incongruent/STIM_001.jpg
1156.904	0.467	1	incongruent	Block2	incongruent/STIM_001.jpg
1160.751	0.801	1	incongruent	Block2	incongruent/STIM_001.jpg
1164.141	1.138	1	incongruent	Block2	incongruent/STIM_002.jpg
1167.952	1.042	1	incongruent	Block2	incongruent/STIM_002.jpg
1171.995	0.933	1	incongruent	Block2	incongruent/STIM_002.jpg
1176.235	0.891	1	incongruent	Block2	incongruent/STIM_002.jpg
1179.588	0.851	1	incongruent	Block2	incongruent/STIM_002.jpg
1182.904	0.752	1	incongruent	Block2	incongruent/STIM_003.jpg
1186.755	0.907	1	incongruent	Block2	incongruent/STIM_003.jpg
1190.344	1.016	1	incongruent	Block2	incongruent/STIM_003.jpg
1194.315	0.668	1	incongruent	Block2	incongruent/STIM_003.jpg
1198.179	0.779	1	incongruent	Block2	incongruent/STIM_003.jpg
1202.586	0.792	1	incongruent	Block2	incongruent/STIM_004.jpg
1205.787	0.863	1	incongruent	Block2	incongruent/STIM_004.jpg
1208.88	0.67	1	incongruent	Block2	incongruent/STIM_004.jpg
1213.325	0.798	0	incongruent	Block2	incongruent/STIM_004.jpg
1216.774	0.564	1	incongruent	Block2	incongruent/STIM_004.jpg
1220.473	0.816	0	incongruent	Block2	incongruent/STIM_005.jpg
1224.974	0.755	1	incongruent	Block2	incongruent/STIM_005.jpg
1228.505	1.017	1	incongruent	Block2	incongruent/STIM_005.jpg
1233.428	0.76	1	incongruent	Block2	incongruent/STIM_005.jpg
1236.865	0.762	1	incongruent	Block2	incongruent/STIM_005.jpg
1240.171	1.006	1	incongruent	Block2	incongruent/STIM_006.jpg
1244.92	1.032	1	incongruent	Block2	incongruent/STIM_006.jpg
1248.775	0.675	1	incongruent	Block2	incongruent/STIM_006.jpg
1251.791	0.562	1	incongruent	Block2	incongruent/STIM_006.jpg
1255.676	0.801	1	incongruent	Block2	incongruent/STIM_006.jpg
1259.328	0.893	1	incongruent	Block2	incongruent/STIM_007.jpg
1264.102	0.547	1	incongruent	Block2	incongruent/STIM_007.jpg
1266.953	0.873	1	incongruent	Block2	incongruent/STIM_007.jpg
1271.765	0.958	1	incongruent	Block2	incongruent/STIM_007.jpg
1275.235	0.678	1	incongruent	Block2	incongruent/STIM_007.jpg
1279.224	0.794	1	incongruent	Block2	incongruent/STIM_008.jpg
1283.423	0.844	1	incongruent	Block2	incongruent/STIM_008.jpg
1286.652	0.525	0	incongruent	Block2	incongruent/STIM_008.jpg
1289.99	0.658	1	incongruent	Block2	incongruent/STIM_008.jpg
1294.091	0.684	1	incongruent	Block2	incongruent/STIM_008.jpg
1297.07	1.057	1	incongruent	Block2	incongruent/STIM_009.jpg
1301.478	0.769	1	incongruent	Block2	incongruent/STIM_009.jpg
1306.179	0.635	1	incongruent	Block2	incongruent/STIM_009.jpg
1309.69	0.694	1	incongruent	Block2	incongruent/STIM_009.jpg
1312.535	0.642	1	incongruent	Block2	incongruent/STIM_009.jpg
1316.226	0.825	1	incongruent	Block2	incongruent/STIM_010.jpg
1320.493	0.71	1	incongruent	Block2	incongruent/STIM_010.jpg
1323.413	1.007	1	incongruent	Block2	incongruent/STIM_010.jpg
1328.29	0.707	1	incongruent	Block2	incongruent/STIM_010.jpg
1332.105	0.719	1	incongruent	Block2	incongruent/STIM_010.jpg
1336.335	0.7	1	incongruent	Block2	incongruent/STIM_011.jpg
1339.559	0.613	1	incongruent	Block2	incongruent/STIM_011.jpg
1343.875	0.98	1	incongruent	Block2	incongruent/STIM_011.jpg
1347.624	0.879	1	incongruent	Block2	incongruent/STIM_011.jpg
1352.18	0.696	1	incongruent	Block2	incongruent/STIM_011.jpg
1356.458	0.916	1	incongruent	Block2	incongruent/STIM_012.jpg
1359.688	0.569	1	incongruent	Block2	incongruent/STIM_012.jpg
1363.187	0.915	1	incongruent	Block2	incongruent/STIM_012.jpg
1367.103	0.734	1	incongruent	Block2	incongruent/STIM_012.jpg
1371.347	0.574	1	incongruent	Block2	incongruent/STIM_012.jpg
1375.558	1.163	1	incongruent	Block2	incongruent/STIM_013.jpg
1379.002	0.568	1	incongruent	Block2	incongruent/STIM_013.jpg
1382.249	0.986	1	incongruent	Block2	incongruent/STIM_013.jpg
1386.617	0.531	1	incongruent	Block2	incongruent/STIM_013.jpg
1389.526	0.834	1	incongruent	Block2	incongruent/STIM_013.jpg
1392.405	0.941	1	incongruent	Block2	incongruent/STIM_014.jpg
1396.014	0.99	1	incongruent	Block2	incongruent/STIM_014.jpg
1400.963	0.806	1	incongruent	Block2	incongruent/STIM_014.jpg
1404.745	0.822	1	incongruent	Block2	incongruent/STIM_014.jpg
1409.267	0.854	1	incongruent	Block2	incongruent/STIM_014.jpg
1412.826	0.843	1	incongruent	Block2	incongruent/STIM_015.jpg
1416.851	1.03	1	incongruent	Block2	incongruent/STIM_015.jpg
1421.337	0.724	1	incongruent	Block2	incongruent/STIM_015.jpg
1425.672	0.496	1	incongruent	Block2	incongruent/STIM_015.jpg
1429.388	0.489	1	incongruent	Block2	incongruent/STIM_015.jpg
1432.924	0.589	1	incongruent	Block2	incongruent/STIM_016.jpg
1436.54	0.841	1	incongruent	Block2	incongruent/STIM_016.jpg
1440.434	0.941	1	incongruent	Block2	incongruent/STIM_016.jpg
1444.655	0.912	1	incongruent	Block2	incongruent/STIM_016.jpg
1448.821	0.629	1	incongruent	Block2	incongruent/STIM_016.jpg
1453.386	1.054	1	incongruent	Block2	incongruent/STIM_017.jpg
1457.685	0.782	1	incongruent	Block2	incongruent/STIM_017.jpg
1462.435	0.76	1	incongruent	Block2	incongruent/STIM_017.jpg
1466.085	0.516	1	incongruent	Block2	incongruent/STIM_017.jpg
1468.884	0.695	1	incongruent	Block2	incongruent/STIM_017.jpg
1471.903	1.005	1	incongruent	Block2	incongruent/STIM_018.jpg
1475.133	0.886	1	incongruent	Block2	incongruent/STIM_018.jpg
1479.903	0.596	1	incongruent	Block2	incongruent/STIM_018.jpg
1483.823	0.767	1	incongruent	Block2	incongruent/STIM_018.jpg
1487.515	0.628	1	incongruent	Block2	incongruent/STIM_018.jpg
1490.82	1.152	1	incongruent	Block2	incongruent/STIM_019.jpg
1494.897	0.852	1	incongruent	Block2	incongruent/STIM_019.jpg
1499.01	1.002	1	incongruent	Block2	incongruent/STIM_019.jpg
1502.569	0.475	1	incongruent	Block2	incongruent/STIM_019.jpg
1506.272	0.777	1	incongruent	Block2	incongruent/STIM_019.jpg
1510.024	0.78	1	incongruent	Block2	incongruent/STIM_020.jpg
1513.954	1.102	1	incongruent	Block2	incongruent/STIM_020.jpg
1517.064	1.02	1	incongruent	Block2	incongruent/STIM_020.jpg
1520.611	0.606	1	incongruent	Block2	incongruent/STIM_020.jpg
1524.563	0.719	1	incongruent	Block2	incongruent/STIM_020.jpg
1527.896	0.909	1	incongruent	Block2	incongruent/STIM_021.jpg
1531.583	1.011	0	incongruent	Block2	incongruent/STIM_021.jpg
1535.652	0.773	1	incongruent	Block2	incongruent/STIM_021.jpg
1539.526	0.842	1	incongruent	Block2	incongruent/STIM_021.jpg
1542.776	0.679	1	incongruent	Block2	incongruent/STIM_021.jpg
1546.018	0.862	1	incongruent	Block2	incongruent/STIM_022.jpg
1549.449	0.905	1	incongruent	Block2	incongruent/STIM_022.jpg
1554.314	0.771	1	incongruent	Block2	incongruent/STIM_022.jpg
1558.52	0.7	1	incongruent	Block2	incongruent/STIM_022.jpg
1563.107	0.814	1	incongruent	Block2	incongruent/STIM_022.jpg
1567.906	0.633	1	incongruent	Block2	incongruent/STIM_023.jpg
1571.246	0.614	1	incongruent	Block2	incongruent/STIM_023.jpg
1574.969	0.622	1	incongruent	Block2	incongruent/STIM_023.jpg
1579.538	0.672	1	incongruent	Block2	incongruent/STIM_023.jpg
1583.426	0.747	1	incongruent	Block2	incongruent/STIM_023.jpg
1587.95	0.649	1	incongruent	Block2	incongruent/STIM_024.jpg
1591.835	1.041	1	incongruent	Block2	incongruent/STIM_024.jpg
1596.468	0.587	1	incongruent	Block2	incongruent/STIM_024.jpg
1600.69	0.882	1	incongruent	Block2	incongruent/STIM_024.jpg
1605.016	0.488	1	incongruent	Block2	incongruent/STIM_024.jpg
1608.225	0.783	1	incongruent	Block2	incongruent/STIM_025.jpg
1611.489	0.858	1	incongruent	Block2	incongruent/STIM_025.jpg
1614.494	0.546	1	incongruent	Block2	incongruent/STIM_025.jpg
1618.679	0.679	1	incongruent	Block2	incongruent/STIM_025.jpg
1621.466	0.563	1	incongruent	Block2	incongruent/STIM_025.jpg
1624.524	1.072	1	incongruent	Block2	incongruent/STIM_026.jpg
1629.43	1.073	1	incongruent	Block2	incongruent/STIM_026.jpg
1633.21	0.766	1	incongruent	Block2	incongruent/STIM_026.jpg
1637.864	0.83	1	incongruent	Block2	incongruent/STIM_026.jpg
1640.765	0.576	1	incongruent	Block2	incongruent/STIM_026.jpg
1644.85	0.611	1	incongruent	Block2	incongruent/STIM_027.jpg
1648.301	0.994	1	incongruent	Block2	incongruent/STIM_027.jpg
1651.948	0.591	1	incongruent	Block2	incongruent/STIM_027.jpg
1655.068	0.493	1	incongruent	Block2	incongruent/STIM_027.jpg
1658.617	0.846	1	incongruent	Block2	incongruent/STIM_027.jpg
1661.535	1.172	1	incongruent	Block2	incongruent/STIM_028.jpg
1666.685	0.87	1	incongruent	Block2	incongruent/STIM_028.jpg
1671.049	0.646	1	incongruent	Block2	incongruent/STIM_028.jpg
1675.4	0.616	1	incongruent	Block2	incongruent/STIM_028.jpg
1678.453	0.877	1	incongruent	Block2	incongruent/STIM_028.jpg
1681.949	0.701	1	incongruent	Block2	incongruent/STIM_029.jpg
1685.108	0.759	1	incongruent	Block2	incongruent/STIM_029.jpg
1689.249	0.912	1	incongruent	Block2	incongruent/STIM_029.jpg
1693.353	0.739	1	incongruent	Block2	incongruent/STIM_029.jpg
1697.627	0.539	1	incongruent	Block2	incongruent/STIM_029.jpg
1700.308	0.683	1	congruent	Block2	congruent/STIM_000.jpg
1704.292	0.49	1	congruent	Block2	congruent/STIM_000.jpg
1706.81	0.592	1	congruent	Block2	congruent/STIM_000.jpg
1710.076	0.731	1	congruent	Block2	congruent/STIM_000.jpg
1713.012	0.712	1	congruent	Block2	congruent/STIM_000.jpg
1716.48	0.604	1	congruent	Block2	congruent/STIM_001.jpg
1720.456	0.477	1	congruent	Block2	congruent/STIM_001.jpg
1723.337	0.787	1	congruent	Block2	congruent/STIM_001.jpg
1726.365	0.556	1	congruent	Block2	congruent/STIM_001.jpg
1729.76	0.604	1	congruent	Block2	congruent/STIM_001.jpg
1732.969	0.514	1	congruent	Block2	congruent/STIM_002.jpg
1735.923	0.626	1	congruent	Block2	congruent/STIM_002.jpg
1738.74	0.473	1	congruent	Block2	congruent/STIM_002.jpg
1741.795	0.498	1	congruent	Block2	congruent/STIM_002.jpg
1745.674	0.642	1	congruent	Block2	congruent/STIM_002.jpg
1749.595	0.531	1	congruent	Block2	congruent/STIM_003.jpg
1752.978	0.54	1	congruent	Block2	congruent/STIM_003.jpg
1756.468	0.709	1	congruent	Block2	congruent/STIM_003.jpg
1760.668	0.509	1	congruent	Block2	congruent/STIM_003.jpg
1764.691	0.465	1	congruent	Block2	congruent/STIM_003.jpg
1768.145	0.689	1	congruent	Block2	congruent/STIM_004.jpg
1772.496	0.731	1	congruent	Block2	congruent/STIM_004.jpg
1776.322	0.613	1	congruent	Block2	congruent/STIM_004.jpg
1779.966	0.654	1	congruent	Block2	congruent/STIM_004.jpg
1784.15	0.746	1	congruent	Block2	congruent/STIM_004.jpg
1788.163	0.748	1	congruent	Block2	congruent/STIM_005.jpg
1792.678	0.824	1	congruent	Block2	congruent/STIM_005.jpg
1796.676	0.68	0	congruent	Block2	congruent/STIM_005.jpg
1799.431	0.646	1	congruent	Block2	congruent/STIM_005.jpg
1802.127	0.476	1	congruent	Block2	congruent/STIM_005.jpg
1805.873	0.802	1	congruent	Block2	congruent/STIM_006.jpg
1809.089	0.49	1	congruent	Block2	congruent/STIM_006.jpg
1813.281	0.776	1	congruent	Block2	congruent/STIM_006.jpg
1816.886	0.478	1	congruent	Block2	congruent/STIM_006.jpg
1820.741	0.467	1	congruent	Block2	congruent/STIM_006.jpg
1824.217	0.574	1	congruent	Block2	congruent/STIM_007.jpg
1828.295	0.532	1	congruent	Block2	congruent/STIM_007.jpg
1832.723	0.799	1	congruent	Block2	congruent/STIM_007.jpg
1837.014	0.495	1	congruent	Block2	congruent/STIM_007.jpg
1839.69	0.74	1	congruent	Block2	congruent/STIM_007.jpg
1842.682	0.566	1	congruent	Block2	congruent/STIM_008.jpg
1846.797	0.665	1	congruent	Block2	congruent/STIM_008.jpg
1851.396	0.598	1	congruent	Block2	congruent/STIM_008.jpg
1854.626	0.786	1	congruent	Block2	congruent/STIM_008.jpg
1858.036	0.615	1	congruent	Block2	congruent/STIM_008.jpg
1862.523	0.517	1	congruent	Block2	congruent/STIM_009.jpg
1865.561	0.509	1	congruent	Block2	congruent/STIM_009.jpg
1868.841	0.589	1	congruent	Block2	congruent/STIM_009.jpg
1871.674	0.643	1	congruent	Block2	congruent/STIM_009.jpg
1875.019	0.678	1	congruent	Block2	congruent/STIM_009.jpg
1879.535	0.806	1	congruent	Block2	congruent/STIM_010.jpg
1883.604	0.567	1	congruent	Block2	congruent/STIM_010.jpg
1886.688	0.62	1	congruent	Block2	congruent/STIM_010.jpg
1889.342	0.62	1	congruent	Block2	congruent/STIM_010.jpg
1893.652	0.524	1	congruent	Block2	congruent/STIM_010.jpg
1896.178	0.746	1	congruent	Block2	congruent/STIM_011.jpg
1900.173	0.769	1	congruent	Block2	congruent/STIM_011.jpg
1904.336	0.551	1	congruent	Block2	congruent/STIM_011.jpg
1907.088	0.622	1	congruent	Block2	congruent/STIM_011.jpg
1909.829	0.461	1	congruent	Block2	congruent/STIM_011.jpg
1913.627	0.734	1	congruent	Block2	congruent/STIM_012.jpg
1917.707	0.579	1	congruent	Block2	congruent/STIM_012.jpg
1920.378	0.628	1	congruent	Block2	congruent/STIM_012.jpg
1923.549	0.667	1	congruent	Block2	congruent/STIM_012.jpg
1926.602	0.525	1	congruent	Block2	congruent/STIM_012.jpg
1929.592	0.655	1	congruent	Block2	congruent/STIM_013.jpg
1932.744	0.747	1	congruent	Block2	congruent/STIM_013.jpg
1935.786	0.686	1	congruent	Block2	congruent/STIM_013.jpg
1938.939	0.745	1	congruent	Block2	congruent/STIM_013.jpg
1941.804	0.542	1	congruent	Block2	congruent/STIM_013.jpg
1944.592	0.502	1	congruent	Block2	congruent/STIM_014.jpg
1948.705	0.508	1	congruent	Block2	congruent/STIM_014.jpg
1953.207	0.519	1	congruent	Block2	congruent/STIM_014.jpg
1956.218	0.564	1	congruent	Block2	congruent/STIM_014.jpg
1959.516	0.772	1	congruent	Block2	congruent/STIM_014.jpg
1962.662	0.605	1	congruent	Block2	congruent/STIM_015.jpg
1965.485	0.588	1	congruent	Block2	congruent/STIM_015.jpg
1969.258	0.729	1	congruent	Block2	congruent/STIM_015.jpg
1973.09	0.744	1	congruent	Block2	congruent/STIM_015.jpg
1976.396	0.61	1	congruent	Block2	congruent/STIM_015.jpg
1980.598	0.821	1	congruent	Block2	congruent/STIM_016.jpg
1984.287	0.541	1	congruent	Block2	congruent/STIM_016.jpg
1987.271	0.675	1	congruent	Block2	congruent/STIM_016.jpg
1990.988	0.752	1	congruent	Block2	congruent/STIM_016.jpg
1995.686	0.541	1	congruent	Block2	congruent/STIM_016.jpg
1998.612	0.733	1	congruent	Block2	congruent/STIM_017.jpg
2001.459	0.702	1	congruent	Block2	congruent/STIM_017.jpg
2004.568	0.747	1	congruent	Block2	congruent/STIM_017.jpg
2007.321	0.795	1	congruent	Block2	congruent/STIM_017.jpg
2010.357	0.488	1	congruent	Block2	congruent/STIM_017.jpg
2014.402	0.822	1	congruent	Block2	congruent/STIM_018.jpg
2018.79	0.759	1	congruent	Block2	congruent/STIM_018.jpg
2022.194	0.616	1	congruent	Block2	congruent/STIM_018.jpg
2026.592	0.559	1	congruent	Block2	congruent/STIM_018.jpg
2029.898	0.5	1	congruent	Block2	congruent/STIM_018.jpg
2033.086	0.735	1	congruent	Block2	congruent/STIM_019.jpg
2036.366	0.758	1	congruent	Block2	congruent/STIM_019.jpg
2040.473	0.581	1	congruent	Block2	congruent/STIM_019.jpg
2043.171	0.575	1	congruent	Block2	congruent/STIM_019.jpg
2047.039	0.513	1	congruent	Block2	congruent/STIM_019.jpg
2050.807	0.635	1	congruent	Block2	congruent/STIM_020.jpg
2055.307	0.626	1	congruent	Block2	congruent/STIM_020.jpg
2059.538	0.824	1	congruent	Block2	congruent/STIM_020.jpg
2063.624	0.583	1	congruent	Block2	congruent/STIM_020.jpg
2067.996	0.653	1	congruent	Block2	congruent/STIM_020.jpg
2072.05	0.809	1	congruent	Block2	congruent/STIM_021.jpg
2075.319	0.59	1	congruent	Block2	congruent/STIM_021.jpg
2077.959	0.82	1	congruent	Block2	congruent/STIM_021.jpg
2081.701	0.755	1	congruent	Block2	congruent/STIM_021.jpg
2085.655	0.508	1	congruent	Block2	congruent/STIM_021.jpg
2089.927	0.499	1	congruent	Block2	congruent/STIM_022.jpg
2094.162	0.536	1	congruent	Block2	congruent/STIM_022.jpg
2098.244	0.65	1	congruent	Block2	congruent/STIM_022.jpg
2102.582	0.572	1	congruent	Block2	congruent/STIM_022.jpg
2106.027	0.707	1	congruent	Block2	congruent/STIM_022.jpg
2110.636	0.536	1	congruent	Block2	congruent/STIM_023.jpg
2113.562	0.748	1	congruent	Block2	congruent/STIM_023.jpg
2117.27	0.713	1	congruent	Block2	congruent/STIM_023.jpg
2121.576	0.472	1	congruent	Block2	congruent/STIM_023.jpg
2125.514	0.59	1	congruent	Block2	congruent/STIM_023.jpg
2129.251	0.671	1	congruent	Block2	congruent/STIM_024.jpg
2133.126	0.58	1	congruent	Block2	congruent/STIM_024.jpg
2136.123	0.549	1	congruent	Block2	congruent/STIM_024.jpg
2139.517	0.748	1	congruent	Block2	congruent/STIM_024.jpg
2143.222	0.731	1	congruent	Block2	congruent/STIM_024.jpg
2147.651	0.61	1	congruent	Block2	congruent/STIM_025.jpg
2151.622	0.698	1	congruent	Block2	congruent/STIM_025.jpg
2155.68	0.546	1	congruent	Block2	congruent/STIM_025.jpg
2158.444	0.744	1	congruent	Block2	congruent/STIM_025.jpg
2161.621	0.535	1	congruent	Block2	congruent/STIM_025.jpg
2165.261	0.742	1	congruent	Block2	congruent/STIM_026.jpg
2168.331	0.538	1	congruent	Block2	congruent/STIM_026.jpg
2172.255	0.633	1	congruent	Block2	congruent/STIM_026.jpg
2176.38	0.76	1	congruent	Block2	congruent/STIM_026.jpg
2179.224	0.475	1	congruent	Block2	congruent/STIM_026.jpg
2181.721	0.653	1	congruent	Block2	congruent/STIM_027.jpg
2184.942	0.759	1	congruent	Block2	congruent/STIM_027.jpg
2188.913	0.782	1	congruent	Block2	congruent/STIM_027.jpg
2191.86	0.585	1	congruent	Block2	congruent/STIM_027.jpg
2195.849	0.803	1	congruent	Block2	congruent/STIM_027.jpg
2200.31	0.609	1	congruent	Block2	congruent/STIM_028.jpg
2204.075	0.785	1	congruent	Block2	congruent/STIM_028.jpg
2207.305	0.704	1	congruent	Block2	congruent/STIM_028.jpg
2210.552	0.51	1	congruent	Block2	congruent/STIM_028.jpg
2214.945	0.562	1	congruent	Block2	congruent/STIM_028.jpg
2217.685	0.609	1	congruent	Block2	congruent/STIM_029.jpg
2221.193	0.626	1	congruent	Block2	congruent/STIM_029.jpg
2223.822	0.494	1	congruent	Block2	congruent/STIM_029.jpg
2226.628	0.632	1	congruent	Block2	congruent/STIM_029.jpg
2229.604	0.551	1	congruent	Block2	congruent/STIM_029.jpg
2233.681	0.567	1	incongruent	Block3	incongruent/STIM_000.jpg
2237.217	0.463	1	incongruent	Block3	incongruent/STIM_000.jpg
2241.641	0.626	1	incongruent	Block3	incongruent/STIM_000.jpg
2244.831	0.705	1	incongruent	Block3	incongruent/STIM_000.jpg
2247.95	0.966	1	incongruent	Block3	incongruent/STIM_000.jpg
2251.603	0.783	1	incongruent	Block3	incongruent/STIM_001.jpg
2255.309	0.723	1	incongruent	Block3	incongruent/STIM_001.jpg
2259.051	0.84	1	incongruent	Block3	incongruent/STIM_001.jpg
2262.947	0.792	1	incongruent	Block3	incongruent/STIM_001.jpg
2267.637	0.796	1	incongruent	Block3	incongruent/STIM_001.jpg
2270.511	0.454	1	incongruent	Block3	incongruent/STIM_002.jpg
2274.096	0.921	1	incongruent	Block3	incongruent/STIM_002.jpg
2278.153	0.824	0	incongruent	Block3	incongruent/STIM_002.jpg
2282.902	0.809	1	incongruent	Block3	incongruent/STIM_002.jpg
2287.601	0.916	1	incongruent	Block3	incongruent/STIM_002.jpg
2290.931	0.704	1	incongruent	Block3	incongruent/STIM_003.jpg
2295.165	0.776	1	incongruent	Block3	incongruent/STIM_003.jpg
2299.215	0.936	1	incongruent	Block3	incongruent/STIM_003.jpg
2302.485	0.862	1	incongruent	Block3	incongruent/STIM_003.jpg
2306.55	0.881	1	incongruent	Block3	incongruent/STIM_003.jpg
2310.447	0.758	1	incongruent	Block3	incongruent/STIM_004.jpg
2313.341	0.907	1	incongruent	Block3	incongruent/STIM_004.jpg
2317.386	0.7	1	incongruent	Block3	incongruent/STIM_004.jpg
2320.205	0.889	1	incongruent	Block3	incongruent/STIM_004.jpg
2323.391	0.644	1	incongruent	Block3	incongruent/STIM_004.jpg
2326.747	0.595	1	incongruent	Block3	incongruent/STIM_005.jpg
2331.055	0.89	1	incongruent	Block3	incongruent/STIM_005.jpg
2334.188	0.744	1	incongruent	Block3	incongruent/STIM_005.jpg
2337.652	0.576	1	incongruent	Block3	incongruent/STIM_005.jpg
2340.81	0.897	1	incongruent	Block3	incongruent/STIM_005.jpg
2344.731	0.838	1	incongruent	Block3	incongruent/STIM_006.jpg
2349.014	0.703	1	incongruent	Block3	incongruent/STIM_006.jpg
2352.102	0.542	1	incongruent	Block3	incongruent/STIM_006.jpg
2356.257	0.749	1	incongruent	Block3	incongruent/STIM_006.jpg
2359.26	0.797	1	incongruent	Block3	incongruent/STIM_006.jpg
2363.366	0.903	1	incongruent	Block3	incongruent/STIM_007.jpg
2367.662	0.746	1	incongruent	Block3	incongruent/STIM_007.jpg
2370.41	0.56	1	incongruent	Block3	incongruent/STIM_007.jpg
2374.677	0.701	1	incongruent	Block3	incongruent/STIM_007.jpg
2377.423	0.569	1	incongruent	Block3	incongruent/STIM_007.jpg
2380.33	0.497	1	incongruent	Block3	incongruent/STIM_008.jpg
2383.297	0.665	1	incongruent	Block3	incongruent/STIM_008.jpg
2387.542	0.821	1	incongruent	Block3	incongruent/STIM_008.jpg
2391.055	0.876	1	incongruent	Block3	incongruent/STIM_008.jpg
2395.091	0.493	0	incongruent	Block3	incongruent/STIM_008.jpg
2398.613	0.919	1	incongruent	Block3	incongruent/STIM_009.jpg
2401.601	0.476	1	incongruent	Block3	incongruent/STIM_009.jpg
2405.173	0.536	1	incongruent	Block3	incongruent/STIM_009.jpg
2407.881	0.613	1	incongruent	Block3	incongruent/STIM_009.jpg
2411.9	0.456	1	incongruent	Block3	incongruent/STIM_009.jpg
2416.057	0.868	1	incongruent	Block3	incongruent/STIM_010.jpg
2419.484	0.725	1	incongruent	Block3	incongruent/STIM_010.jpg
2422.464	0.967	1	incongruent	Block3	incongruent/STIM_010.jpg
2425.958	0.716	1	incongruent	Block3	incongruent/STIM_010.jpg
2429.726	0.659	1	incongruent	Block3	incongruent/STIM_010.jpg
2432.684	0.964	1	incongruent	Block3	incongruent/STIM_011.jpg
2436.035	0.762	1	incongruent	Block3	incongruent/STIM_011.jpg
2440.572	0.659	1	incongruent	Block3	incongruent/STIM_011.jpg
2444.217	0.529	1	incongruent	Block3	incongruent/STIM_011.jpg
2447.957	0.812	1	incongruent	Block3	incongruent/STIM_011.jpg
2451.121	0.727	1	incongruent	Block3	incongruent/STIM_012.jpg
2454.144	0.855	1	incongruent	Block3	incongruent/STIM_012.jpg
2458.532	0.677	1	incongruent	Block3	incongruent/STIM_012.jpg
2462.138	0.459	1	incongruent	Block3	incongruent/STIM_012.jpg
2465.979	0.65	1	incongruent	Block3	incongruent/STIM_012.jpg
2470.181	0.527	1	incongruent	Block3	incongruent/STIM_013.jpg
2473.582	0.939	1	incongruent	Block3	incongruent/STIM_013.jpg
2476.928	0.471	1	incongruent	Block3	incongruent/STIM_013.jpg
2479.763	0.739	1	incongruent	Block3	incongruent/STIM_013.jpg
2484.162	0.635	1	incongruent	Block3	incongruent/STIM_013.jpg
2488.569	0.456	1	incongruent	Block3	incongruent/STIM_014.jpg
2492.756	0.587	1	incongruent	Block3	incongruent/STIM_014.jpg
2497.012	0.513	1	incongruent	Block3	incongruent/STIM_014.jpg
2500.149	0.542	1	incongruent	Block3	incongruent/STIM_014.jpg
2503.285	0.503	1	incongruent	Block3	incongruent/STIM_014.jpg
2507.487	0.591	1	incongruent	Block3	incongruent/STIM_015.jpg
2510.716	0.711	1	incongruent	Block3	incongruent/STIM_015.jpg
2514.67	0.611	1	incongruent	Block3	incongruent/STIM_015.jpg
2518.593	0.67	1	incongruent	Block3	incongruent/STIM_015.jpg
2521.511	0.841	1	incongruent	Block3	incongruent/STIM_015.jpg
2524.376	0.95	1	incongruent	Block3	incongruent/STIM_016.jpg
2528.473	0.818	1	incongruent	Block3	incongruent/STIM_016.jpg
2531.498	0.725	1	incongruent	Block3	incongruent/STIM_016.jpg
2534.574	0.87	1	incongruent	Block3	incongruent/STIM_016.jpg
2538.584	0.501	1	incongruent	Block3	incongruent/STIM_016.jpg
2542.89	0.86	1	incongruent	Block3	incongruent/STIM_017.jpg
2546.622	0.765	1	incongruent	Block3	incongruent/STIM_017.jpg
2549.701	0.866	1	incongruent	Block3	incongruent/STIM_017.jpg
2552.909	0.644	1	incongruent	Block3	incongruent/STIM_017.jpg
2557.204	0.66	1	incongruent	Block3	incongruent/STIM_017.jpg
2560.252	0.585	1	incongruent	Block3	incongruent/STIM_018.jpg
2564.565	0.672	1	incongruent	Block3	incongruent/STIM_018.jpg
2567.958	0.713	1	incongruent	Block3	incongruent/STIM_018.jpg
2572.498	0.607	1	incongruent	Block3	incongruent/STIM_018.jpg
2577.039	0.704	1	incongruent	Block3	incongruent/STIM_018.jpg
2580.98	0.946	1	incongruent	Block3	incongruent/STIM_019.jpg
2585.329	0.716	1	incongruent	Block3	incongruent/STIM_019.jpg
2588.738	0.655	1	incongruent	Block3	incongruent/STIM_019.jpg
2591.833	0.849	0	incongruent	Block3	incongruent/STIM_019.jpg
2596.054	0.527	1	incongruent	Block3	incongruent/STIM_019.jpg
2598.995	0.547	1	incongruent	Block3	incongruent/STIM_020.jpg
2602.12	0.94	1	incongruent	Block3	incongruent/STIM_020.jpg
2605.334	0.8	1	incongruent	Block3	incongruent/STIM_020.jpg
2608.556	0.555	1	incongruent	Block3	incongruent/STIM_020.jpg
2611.85	0.918	1	incongruent	Block3	incongruent/STIM_020.jpg
2616.561	0.834	1	incongruent	Block3	incongruent/STIM_021.jpg
2621.36	0.485	1	incongruent	Block3	incongruent/STIM_021.jpg
2624.209	0.751	1	incongruent	Block3	incongruent/STIM_021.jpg
2627.0	0.812	1	incongruent	Block3	incongruent/STIM_021.jpg
2631.679	0.559	1	incongruent	Block3	incongruent/STIM_021.jpg
2636.114	0.486	1	incongruent	Block3	incongruent/STIM_022.jpg
2639.357	0.521	1	incongruent	Block3	incongruent/STIM_022.jpg
2642.37	0.542	1	incongruent	Block3	incongruent/STIM_022.jpg
2645.248	0.746	1	incongruent	Block3	incongruent/STIM_022.jpg
2648.005	0.86	1	incongruent	Block3	incongruent/STIM_022.jpg
2652.407	0.484	1	incongruent	Block3	incongruent/STIM_023.jpg
2656.606	0.583	1	incongruent	Block3	incongruent/STIM_023.jpg
2660.029	0.94	1	incongruent	Block3	incongruent/STIM_023.jpg
2663.355	0.915	1	incongruent	Block3	incongruent/STIM_023.jpg
2667.272	0.516	1	incongruent	Block3	incongruent/STIM_023.jpg
2669.978	0.642	1	incongruent	Block3	incongruent/STIM_024.jpg
2673.569	0.802	1	incongruent	Block3	incongruent/STIM_024.jpg
2676.46	0.62	1	incongruent	Block3	incongruent/STIM_024.jpg
2679.45	0.66	1	incongruent	Block3	incongruent/STIM_024.jpg
2682.202	0.845	1	incongruent	Block3	incongruent/STIM_024.jpg
2685.526	0.624	1	incongruent	Block3	incongruent/STIM_025.jpg
2689.477	0.496	1	incongruent	Block3	incongruent/STIM_025.jpg
2693.708	0.472	1	incongruent	Block3	incongruent/STIM_025.jpg
2697.239	0.647	1	incongruent	Block3	incongruent/STIM_025.jpg
2700.86	0.757	1	incongruent	Block3	incongruent/STIM_025.jpg
2704.075	0.925	1	incongruent	Block3	incongruent/STIM_026.jpg
2707.293	0.495	1	incongruent	Block3	incongruent/STIM_026.jpg
2710.989	0.803	1	incongruent	Block3	incongruent/STIM_026.jpg
2714.557	0.952	1	incongruent	Block3	incongruent/STIM_026.jpg
2718.216	0.61	1	incongruent	Block3	incongruent/STIM_026.jpg
2721.811	0.866	1	incongruent	Block3	incongruent/STIM_027.jpg
2725.96	0.88	1	incongruent	Block3	incongruent/STIM_027.jpg
2729.826	0.716	1	incongruent	Block3	incongruent/STIM_027.jpg
2732.671	0.967	1	incongruent	Block3	incongruent/STIM_027.jpg
2736.32	0.727	1	incongruent	Block3	incongruent/STIM_027.jpg
2739.075	0.697	1	incongruent	Block3	incongruent/STIM_028.jpg
2742.5	0.882	1	incongruent	Block3	incongruent/STIM_028.jpg
2745.847	0.911	1	incongruent	Block3	incongruent/STIM_028.jpg
2749.043	0.523	1	incongruent	Block3	incongruent/STIM_028.jpg
2752.067	0.776	1	incongruent	Block3	incongruent/STIM_028.jpg
2755.796	0.581	1	incongruent	Block3	incongruent/STIM_029.jpg
2758.766	0.658	1	incongruent	Block3	incongruent/STIM_029.jpg
2762.862	0.79	1	incongruent	Block3	incongruent/STIM_029.jpg
2766.177	0.85	1	incongruent	Block3	incongruent/STIM_029.jpg
2769.242	0.756	1	incongruent	Block3	incongruent/STIM_029.jpg
2772.276	0.81	1	congruent	Block3	congruent/STIM_000.jpg
2775.861	0.724	1	congruent	Block3	congruent/STIM_000.jpg
2779.514	0.756	1	congruent	Block3	congruent/STIM_000.jpg
2782.518	0.591	1	congruent	Block3	congruent/STIM_000.jpg
2786.418	0.691	1	congruent	Block3	congruent/STIM_000.jpg
2790.332	0.55	1	congruent	Block3	congruent/STIM_001.jpg
2793.541	0.622	1	congruent	Block3	congruent/STIM_001.jpg
2796.786	0.57	1	congruent	Block3	congruent/STIM_001.jpg
2801.245	0.538	1	congruent	Block3	congruent/STIM_001.jpg
2804.177	0.712	1	congruent	Block3	congruent/STIM_001.jpg
2808.048	0.776	1	congruent	Block3	congruent/STIM_002.jpg
2812.531	0.494	1	congruent	Block3	congruent/STIM_002.jpg
2816.224	0.614	1	congruent	Block3	congruent/STIM_002.jpg
2819.291	0.726	1	congruent	Block3	congruent/STIM_002.jpg
2822.336	0.626	1	congruent	Block3	congruent/STIM_002.jpg
2826.88	0.616	1	congruent	Block3	congruent/STIM_003.jpg
2830.786	0.82	1	congruent	Block3	congruent/STIM_003.jpg
2834.028	0.62	1	congruent	Block3	congruent/STIM_003.jpg
2838.372	0.655	1	congruent	Block3	congruent/STIM_003.jpg
2841.262	0.741	1	congruent	Block3	congruent/STIM_003.jpg
2844.577	0.699	1	congruent	Block3	congruent/STIM_004.jpg
2847.845	0.708	1	congruent	Block3	congruent/STIM_004.jpg
2851.015	0.543	1	congruent	Block3	congruent/STIM_004.jpg
2853.861	0.581	1	congruent	Block3	congruent/STIM_004.jpg
2858.232	0.802	1	congruent	Block3	congruent/STIM_004.jpg
2861.286	0.789	1	congruent	Block3	congruent/STIM_005.jpg
2865.423	0.548	1	congruent	Block3	congruent/STIM_005.jpg
2868.709	0.663	1	congruent	Block3	congruent/STIM_005.jpg
2871.897	0.696	1	congruent	Block3	congruent/STIM_005.jpg
2875.841	0.759	1	congruent	Block3	congruent/STIM_005.jpg
2879.23	0.699	1	congruent	Block3	congruent/STIM_006.jpg
2883.778	0.5	1	congruent	Block3	congruent/STIM_006.jpg
2886.799	0.784	1	congruent	Block3	congruent/STIM_006.jpg
2889.723	0.615	1	congruent	Block3	congruent/STIM_006.jpg
2893.928	0.462	1	congruent	Block3	congruent/STIM_006.jpg
2898.226	0.466	1	congruent	Block3	congruent/STIM_007.jpg
2901.464	0.586	1	congruent	Block3	congruent/STIM_007.jpg
2905.366	0.469	1	congruent	Block3	congruent/STIM_007.jpg
2908.488	0.734	1	congruent	Block3	congruent/STIM_007.jpg
2911.415	0.579	1	congruent	Block3	congruent/STIM_007.jpg
2914.965	0.618	1	congruent	Block3	congruent/STIM_008.jpg
2917.614	0.532	1	congruent	Block3	congruent/STIM_008.jpg
2921.884	0.752	1	congruent	Block3	congruent/STIM_008.jpg
2924.745	0.787	1	congruent	Block3	congruent/STIM_008.jpg
2928.344	0.76	1	congruent	Block3	congruent/STIM_008.jpg
2933.08	0.621	1	congruent	Block3	congruent/STIM_009.jpg
2937.193	0.465	1	congruent	Block3	congruent/STIM_009.jpg
2941.407	0.772	1	congruent	Block3	congruent/STIM_009.jpg
2944.695	0.597	1	congruent	Block3	congruent/STIM_009.jpg
2948.081	0.76	1	congruent	Block3	congruent/STIM_009.jpg
2952.423	0.714	1	congruent	Block3	congruent/STIM_010.jpg
2955.306	0.583	1	congruent	Block3	congruent/STIM_010.jpg
2958.808	0.695	1	congruent	Block3	congruent/STIM_010.jpg
2961.567	0.655	1	congruent	Block3	congruent/STIM_010.jpg
2965.768	0.572	1	congruent	Block3	congruent/STIM_010.jpg
2970.111	0.542	1	congruent	Block3	congruent/STIM_011.jpg
2973.071	0.804	1	congruent	Block3	congruent/STIM_011.jpg
2977.309	0.495	1	congruent	Block3	congruent/STIM_011.jpg
2980.684	0.815	1	congruent	Block3	congruent/STIM_011.jpg
2984.019	0.664	1	congruent	Block3	congruent/STIM_011.jpg
2987.378	0.62	1	congruent	Block3	congruent/STIM_012.jpg
2991.526	0.511	1	congruent	Block3	congruent/STIM_012.jpg
2994.758	0.803	1	congruent	Block3	congruent/STIM_012.jpg
2998.494	0.73	1	congruent	Block3	congruent/STIM_012.jpg
3001.617	0.615	1	congruent	Block3	congruent/STIM_012.jpg
3004.541	0.742	1	congruent	Block3	congruent/STIM_013.jpg
3008.268	0.534	1	congruent	Block3	congruent/STIM_013.jpg
3012.761	0.679	1	congruent	Block3	congruent/STIM_013.jpg
3016.927	0.654	1	congruent	Block3	congruent/STIM_013.jpg
3021.304	0.761	1	congruent	Block3	congruent/STIM_013.jpg
3024.46	0.795	1	congruent	Block3	congruent/STIM_014.jpg
3028.725	0.676	1	congruent	Block3	congruent/STIM_014.jpg
3033.183	0.491	1	congruent	Block3	congruent/STIM_014.jpg
3036.012	0.641	1	congruent	Block3	congruent/STIM_014.jpg
3040.352	0.754	1	congruent	Block3	congruent/STIM_014.jpg
3043.916	0.77	1	congruent	Block3	congruent/STIM_015.jpg
3047.769	0.745	1	congruent	Block3	congruent/STIM_015.jpg
3052.138	0.791	1	congruent	Block3	congruent/STIM_015.jpg
3056.336	0.542	1	congruent	Block3	congruent/STIM_015.jpg
3059.364	0.754	1	congruent	Block3	congruent/STIM_015.jpg
3063.901	0.714	1	congruent	Block3	congruent/STIM_016.jpg
3068.08	0.525	1	congruent	Block3	congruent/STIM_016.jpg
3072.173	0.807	1	congruent	Block3	congruent/STIM_016.jpg
3076.371	0.51	1	congruent	Block3	congruent/STIM_016.jpg
3080.379	0.562	1	congruent	Block3	congruent/STIM_016.jpg
3083.825	0.742	1	congruent	Block3	congruent/STIM_017.jpg
3087.291	0.699	1	congruent	Block3	congruent/STIM_017.jpg
3090.035	0.648	1	congruent	Block3	congruent/STIM_017.jpg
3093.091	0.503	1	congruent	Block3	congruent/STIM_017.jpg
3097.496	0.551	1	congruent	Block3	congruent/STIM_017.jpg
3101.702	0.524	1	congruent	Block3	congruent/STIM_018.jpg
3105.132	0.793	1	congruent	Block3	congruent/STIM_018.jpg
3109.432	0.494	1	congruent	Block3	congruent/STIM_018.jpg
3112.827	0.526	1	congruent	Block3	congruent/STIM_018.jpg
3116.071	0.742	1	congruent	Block3	congruent/STIM_018.jpg
3120.608	0.689	1	congruent	Block3	congruent/STIM_019.jpg
3124.864	0.462	1	congruent	Block3	congruent/STIM_019.jpg
3128.375	0.76	1	congruent	Block3	congruent/STIM_019.jpg
3132.897	0.59	1	congruent	Block3	congruent/STIM_019.jpg
3136.075	0.747	1	congruent	Block3	congruent/STIM_019.jpg
3140.454	0.542	1	congruent	Block3	congruent/STIM_020.jpg
3143.146	0.578	1	congruent	Block3	congruent/STIM_020.jpg
3147.277	0.78	1	congruent	Block3	congruent/STIM_020.jpg
3150.125	0.767	1	congruent	Block3	congruent/STIM_020.jpg
3153.79	0.745	1	congruent	Block3	congruent/STIM_020.jpg
3158.059	0.546	1	congruent	Block3	congruent/STIM_021.jpg
3162.016	0.712	1	congruent	Block3	congruent/STIM_021.jpg
3166.343	0.707	1	congruent	Block3	congruent/STIM_021.jpg
3170.167	0.566	1	congruent	Block3	congruent/STIM_021.jpg
3172.855	0.509	1	congruent	Block3	congruent/STIM_021.jpg
3175.69	0.647	1	congruent	Block3	congruent/STIM_022.jpg
3179.611	0.579	1	congruent	Block3	congruent/STIM_022.jpg
3183.654	0.492	1	congruent	Block3	congruent/STIM_022.jpg
3186.504	0.643	1	congruent	Block3	congruent/STIM_022.jpg
3190.942	0.58	1	congruent	Block3	congruent/STIM_022.jpg
3194.632	0.644	1	congruent	Block3	congruent/STIM_023.jpg
3197.941	0.599	1	congruent	Block3	congruent/STIM_023.jpg
3202.32	0.519	1	congruent	Block3	congruent/STIM_023.jpg
3205.754	0.529	1	congruent	Block3	congruent/STIM_023.jpg
3208.478	0.797	1	congruent	Block3	congruent/STIM_023.jpg
3212.029	0.615	1	congruent	Block3	congruent/STIM_024.jpg
3215.387	0.517	1	congruent	Block3	congruent/STIM_024.jpg
3219.771	0.751	1	congruent	Block3	congruent/STIM_024.jpg
3222.843	0.509	1	congruent	Block3	congruent/STIM_024.jpg
3227.323	0.594	1	congruent	Block3	congruent/STIM_024.jpg
3231.192	0.483	0	congruent	Block3	congruent/STIM_025.jpg
3234.783	0.483	1	congruent	Block3	congruent/STIM_025.jpg
3239.215	0.545	1	congruent	Block3	congruent/STIM_025.jpg
3241.778	0.508	1	congruent	Block3	congruent/STIM_025.jpg
3246.018	0.543	1	congruent	Block3	congruent/STIM_025.jpg
3249.095	0.654	1	congruent	Block3	congruent/STIM_026.jpg
3251.815	0.507	1	congruent	Block3	congruent/STIM_026.jpg
3256.255	0.637	1	congruent	Block3	congruent/STIM_026.jpg
3259.511	0.8	1	congruent	Block3	congruent/STIM_026.jpg
3264.245	0.568	1	congruent	Block3	congruent/STIM_026.jpg
3268.139	0.544	1	congruent	Block3	congruent/STIM_027.jpg
3271.399	0.685	1	congruent	Block3	congruent/STIM_027.jpg
3275.078	0.646	1	congruent	Block3	congruent/STIM_027.jpg
3278.517	0.576	0	congruent	Block3	congruent/STIM_027.jpg
3282.966	0.535	1	congruent	Block3	congruent/STIM_027.jpg
3286.585	0.492	1	congruent	Block3	congruent/STIM_028.jpg
3289.525	0.755	1	congruent	Block3	congruent/STIM_028.jpg
3292.951	0.525	1	congruent	Block3	congruent/STIM_028.jpg
3295.582	0.774	1	congruent	Block3	congruent/STIM_028.jpg
3298.618	0.686	1	congruent	Block3	congruent/STIM_028.jpg
3303.264	0.556	1	congruent	Block3	congruent/STIM_029.jpg
3305.866	0.53	1	congruent	Block3	congruent/STIM_029.jpg
3309.476	0.652	1	congruent	Block3	congruent/STIM_029.jpg
3312.842	0.768	1	congruent	Block3	congruent/STIM_029.jpg
3317.142	0.703	1	congruent	Block3	congruent/STIM_029.jpg
