onset	duration	accuracy	trial_type	learning_stage	stimulus
0.0	0.643	incorrect	incongruent	Block1	incongruent/STIM_000.jpg
3.691	1.198	correct	incongruent	Block1	incongruent/STIM_000.jpg
8.541	0.809	correct	incongruent	Block1	incongruent/STIM_000.jpg
11.822	0.766	correct	incongruent	Block1	incongruent/STIM_000.jpg
15.095	0.853	correct	incongruent	Block1	incongruent/STIM_000.jpg
19.789	0.811	correct	incongruent	Block1	incongruent/STIM_001.jpg
23.922	1.059	incorrect	incongruent	Block1	incongruent/STIM_001.jpg
27.574	0.595	correct	incongruent	Block1	incongruent/STIM_001.jpg
31.774	0.523	correct	incongruent	Block1	incongruent/STIM_001.jpg
35.574	0.532	correct	incongruent	Block1	incongruent/STIM_001.jpg
39.821	0.706	correct	incongruent	Block1	incongruent/STIM_002.jpg
43.968	1.126	correct	incongruent	Block1	incongruent/STIM_002.jpg
47.252	0.872	correct	incongruent	Block1	incongruent/STIM_002.jpg
51.221	0.688	correct	incongruent	Block1	incongruent/STIM_002.jpg
55.893	0.77	correct	incongruent	Block1	incongruent/STIM_002.jpg
60.743	0.826	correct	incongruent	Block1	incongruent/STIM_003.jpg
65.597	1.022	correct	incongruent	Block1	incongruent/STIM_003.jpg
69.103	0.606	correct	incongruent	Block1	incongruent/STIM_003.jpg
72.298	1.053	correct	incongruent	Block1	incongruent/STIM_003.jpg
76.188	0.53	incorrect	incongruent	Block1	incongruent/STIM_003.jpg
80.555	0.628	correct	incongruent	Block1	incongruent/STIM_004.jpg
83.374	0.887	correct	incongruent	Block1	incongruent/STIM_004.jpg
87.421	1.05	correct	incongruent	Block1	incongruent/STIM_004.jpg
92.153	0.785	correct	incongruent	Block1	incongruent/STIM_004.jpg
96.092	0.933	correct	incongruent	Block1	incongruent/STIM_004.jpg
99.823	1.254	correct	incongruent	Block1	incongruent/STIM_005.jpg
103.645	0.832	correct	incongruent	Block1	incongruent/STIM_005.jpg
108.221	0.675	correct	incongruent	Block1	incongruent/STIM_005.jpg
111.537	0.717	correct	incongruent	Block1	incongruent/STIM_005.jpg
115.25	0.784	correct	incongruent	Block1	incongruent/STIM_005.jpg
118.24	0.706	correct	incongruent	Block1	incongruent/STIM_006.jpg
122.24	0.699	correct	incongruent	Block1	incongruent/STIM_006.jpg
126.2	0.677	correct	incongruent	Block1	incongruent/STIM_006.jpg
129.091	0.754	correct	incongruent	Block1	incongruent/STIM_006.jpg
133.236	0.912	correct	incongruent	Block1	incongruent/STIM_006.jpg
136.984	0.92	correct	incongruent	Block1	incongruent/STIM_007.jpg
141.636	1.098	incorrect	incongruent	Block1	incongruent/STIM_007.jpg
146.533	0.846	correct	incongruent	Block1	incongruent/STIM_007.jpg
149.556	0.874	correct	incongruent	Block1	incongruent/STIM_007.jpg
154.07	0.615	correct	incongruent	Block1	incongruent/STIM_007.jpg
157.168	0.622	correct	incongruent	Block1	incongruent/STIM_008.jpg
161.179	0.629	correct	incongruent	Block1	incongruent/STIM_008.jpg
165.582	0.881	correct	incongruent	Block1	incongruent/STIM_008.jpg
169.14	0.988	correct	incongruent	Block1	incongruent/STIM_008.jpg
172.463	1.038	correct	incongruent	Block1	incongruent/STIM_008.jpg
175.745	0.73	correct	incongruent	Block1	incongruent/STIM_009.jpg
179.681	1.205	correct	incongruent	Block1	incongruent/STIM_009.jpg
183.399	0.848	correct	incongruent	Block1	incongruent/STIM_009.jpg
188.143	0.958	correct	incongruent	Block1	incongruent/STIM_009.jpg
192.721	1.034	incorrect	incongruent	Block1	incongruent/STIM_009.jpg
197.616	0.895	correct	incongruent	Block1	incongruent/STIM_010.jpg
202.316	0.892	correct	incongruent	Block1	incongruent/STIM_010.jpg
206.284	1.038	incorrect	incongruent	Block1	incongruent/STIM_010.jpg
209.705	0.895	correct	incongruent	Block1	incongruent/STIM_010.jpg
214.177	0.84	correct	incongruent	Block1	incongruent/STIM_010.jpg
217.555	1.032	correct	incongruent	Block1	incongruent/STIM_011.jpg
222.077	1.112	correct	incongruent	Block1	incongruent/STIM_011.jpg
225.949	0.6	correct	incongruent	Block1	incongruent/STIM_011.jpg
230.362	0.623	correct	incongruent	Block1	incongruent/STIM_011.jpg
233.92	0.894	correct	incongruent	Block1	incongruent/STIM_011.jpg
237.646	0.793	correct	incongruent	Block1	incongruent/STIM_012.jpg
241.828	1.028	correct	incongruent	Block1	incongruent/STIM_012.jpg
245.803	0.914	correct	incongruent	Block1	incongruent/STIM_012.jpg
249.515	1.024	correct	incongruent	Block1	incongruent/STIM_012.jpg
253.525	0.693	correct	incongruent	Block1	incongruent/STIM_012.jpg
257.637	0.777	correct	incongruent	Block1	incongruent/STIM_013.jpg
261.418	0.786	correct	incongruent	Block1	incongruent/STIM_013.jpg
264.782	0.86	correct	incongruent	Block1	incongruent/STIM_013.jpg
267.933	0.993	incorrect	incongruent	Block1	incongruent/STIM_013.jpg
272.755	0.644	correct	incongruent	Block1	incongruent/STIM_013.jpg
276.135	1.083	correct	incongruent	Block1	incongruent/STIM_014.jpg
280.317	0.672	correct	incongruent	Block1	incongruent/STIM_014.jpg
283.566	0.769	incorrect	incongruent	Block1	incongruent/STIM_014.jpg
287.764	1.085	correct	incongruent	Block1	incongruent/STIM_014.jpg
292.234	0.905	correct	incongruent	Block1	incongruent/STIM_014.jpg
295.557	1.269	correct	incongruent	Block1	incongruent/STIM_015.jpg
299.766	0.906	correct	incongruent	Block1	incongruent/STIM_015.jpg
304.083	1.115	correct	incongruent	Block1	incongruent/STIM_015.jpg
309.316	1.107	correct	incongruent	Block1	incongruent/STIM_015.jpg
312.682	0.776	correct	incongruent	Block1	incongruent/STIM_015.jpg
316.108	1.151	correct	incongruent	Block1	incongruent/STIM_016.jpg
320.493	0.697	correct	incongruent	Block1	incongruent/STIM_016.jpg
324.861	0.694	correct	incongruent	Block1	incongruent/STIM_016.jpg
327.961	0.958	correct	incongruent	Block1	incongruent/STIM_016.jpg
331.552	0.806	correct	incongruent	Block1	incongruent/STIM_016.jpg
335.367	1.037	correct	incongruent	Block1	incongruent/STIM_017.jpg
339.556	0.773	correct	incongruent	Block1	incongruent/STIM_017.jpg
342.915	0.665	correct	incongruent	Block1	incongruent/STIM_017.jpg
346.827	0.815	correct	incongruent	Block1	incongruent/STIM_017.jpg
351.066	0.742	correct	incongruent	Block1	incongruent/STIM_017.jpg
354.205	0.707	incorrect	incongruent	Block1	incongruent/STIM_018.jpg
357.891	0.837	correct	incongruent	Block1	incongruent/STIM_018.jpg
361.761	0.698	correct	incongruent	Block1	incongruent/STIM_018.jpg
364.565	0.973	correct	incongruent	Block1	incongruent/STIM_018.jpg
369.625	0.956	correct	incongruent	Block1	incongruent/STIM_018.jpg
373.979	1.137	correct	incongruent	Block1	incongruent/STIM_019.jpg
378.9	1.0	correct	incongruent	Block1	incongruent/STIM_019.jpg
383.13	1.044	incorrect	incongruent	Block1	incongruent/STIM_019.jpg
386.858	0.568	correct	incongruent	Block1	incongruent/STIM_019.jpg
391.011	0.59	correct	incongruent	Block1	incongruent/STIM_019.jpg
395.156	1.137	correct	incongruent	Block1	incongruent/STIM_020.jpg
399.189	1.201	correct	incongruent	Block1	incongruent/STIM_020.jpg
404.327	1.126	correct	incongruent	Block1	incongruent/STIM_020.jpg
409.489	0.753	correct	incongruent	Block1	incongruent/STIM_020.jpg
413.842	0.713	correct	incongruent	Block1	incongruent/STIM_020.jpg
417.246	0.795	correct	incongruent	Block1	incongruent/STIM_021.jpg
420.819	1.142	correct	incongruent	Block1	incongruent/STIM_021.jpg
424.483	1.095	correct	incongruent	Block1	incongruent/STIM_021.jpg
427.772	0.997	correct	incongruent	Block1	incongruent/STIM_021.jpg
431.98	0.756	correct	incongruent	Block1	incongruent/STIM_021.jpg
435.347	1.01	correct	incongruent	Block1	incongruent/STIM_022.jpg
439.326	0.625	incorrect	incongruent	Block1	incongruent/STIM_022.jpg
443.251	0.708	correct	incongruent	Block1	incongruent/STIM_022.jpg
446.352	0.734	correct	incongruent	Block1	incongruent/STIM_022.jpg
450.896	0.57	correct	incongruent	Block1	incongruent/STIM_022.jpg
453.603	1.162	correct	incongruent	Block1	incongruent/STIM_023.jpg
458.169	1.041	correct	incongruent	Block1	incongruent/STIM_023.jpg
461.765	0.67	correct	incongruent	Block1	incongruent/STIM_023.jpg
465.024	0.688	correct	incongruent	Block1	incongruent/STIM_023.jpg
467.91	0.921	correct	incongruent	Block1	incongruent/STIM_023.jpg
471.79	0.784	correct	incongruent	Block1	incongruent/STIM_024.jpg
475.64	1.018	correct	incongruent	Block1	incongruent/STIM_024.jpg
480.015	1.073	correct	incongruent	Block1	incongruent/STIM_024.jpg
484.15	1.103	correct	incongruent	Block1	incongruent/STIM_024.jpg
488.465	0.527	correct	incongruent	Block1	incongruent/STIM_024.jpg
492.566	0.78	correct	incongruent	Block1	incongruent/STIM_025.jpg
497.129	0.879	correct	incongruent	Block1	incongruent/STIM_025.jpg
501.328	1.08	correct	incongruent	Block1	incongruent/STIM_025.jpg
506.293	0.836	correct	incongruent	Block1	incongruent/STIM_025.jpg
509.701	0.677	correct	incongruent	Block1	incongruent/STIM_025.jpg
514.366	0.908	correct	incongruent	Block1	incongruent/STIM_026.jpg
518.365	1.053	incorrect	incongruent	Block1	incongruent/STIM_026.jpg
521.751	0.984	correct	incongruent	Block1	incongruent/STIM_026.jpg
525.625	0.619	correct	incongruent	Block1	incongruent/STIM_026.jpg
529.3	0.61	correct	incongruent	Block1	incongruent/STIM_026.jpg
533.257	0.653	correct	incongruent	Block1	incongruent/STIM_027.jpg
536.194	1.179	incorrect	incongruent	Block1	incongruent/STIM_027.jpg
541.409	1.153	correct	incongruent	Block1	incongruent/STIM_027.jpg
546.081	0.91	correct	incongruent	Block1	incongruent/STIM_027.jpg
549.827	0.682	correct	incongruent	Block1	incongruent/STIM_027.jpg
554.412	0.906	correct	incongruent	Block1	incongruent/STIM_028.jpg
557.823	1.116	correct	incongruent	Block1	incongruent/STIM_028.jpg
561.657	0.71	correct	incongruent	Block1	incongruent/STIM_028.jpg
565.217	0.917	correct	incongruent	Block1	incongruent/STIM_028.jpg
569.97	0.888	correct	incongruent	Block1	incongruent/STIM_028.jpg
573.783	0.738	correct	incongruent	Block1	incongruent/STIM_029.jpg
576.806	0.832	incorrect	incongruent	Block1	incongruent/STIM_029.jpg
579.807	0.675	correct	incongruent	Block1	incongruent/STIM_029.jpg
583.763	1.109	correct	incongruent	Block1	incongruent/STIM_029.jpg
587.312	1.02	correct	incongruent	Block1	incongruent/STIM_029.jpg
592.226	0.587	correct	congruent	Block1	congruent/STIM_000.jpg
596.86	0.577	correct	congruent	Block1	congruent/STIM_000.jpg
600.756	0.747	correct	congruent	Block1	congruent/STIM_000.jpg
604.663	0.572	correct	congruent	Block1	congruent/STIM_000.jpg
609.161	0.483	correct	congruent	Block1	congruent/STIM_000.jpg
612.248	0.734	correct	congruent	Block1	congruent/STIM_001.jpg
616.483	0.716	incorrect	congruent	Block1	congruent/STIM_001.jpg
621.18	0.457	correct	congruent	Block1	congruent/STIM_001.jpg
624.915	0.751	correct	congruent	Block1	congruent/STIM_001.jpg
629.427	0.779	correct	congruent	Block1	congruent/STIM_001.jpg
632.734	0.603	correct	congruent	Block1	congruent/STIM_002.jpg
635.52	0.704	correct	congruent	Block1	congruent/STIM_002.jpg
639.666	0.474	correct	congruent	Block1	congruent/STIM_002.jpg
642.247	0.462	correct	congruent	Block1	congruent/STIM_002.jpg
645.457	0.738	correct	congruent	Block1	congruent/STIM_002.jpg
650.162	0.672	correct	congruent	Block1	congruent/STIM_003.jpg
653.234	0.642	correct	congruent	Block1	congruent/STIM_003.jpg
656.099	0.604	correct	congruent	Block1	congruent/STIM_003.jpg
659.609	0.686	incorrect	congruent	Block1	congruent/STIM_003.jpg
663.536	0.541	correct	congruent	Block1	congruent/STIM_003.jpg
666.559	0.629	correct	congruent	Block1	congruent/STIM_004.jpg
669.968	0.692	correct	congruent	Block1	congruent/STIM_004.jpg
672.798	0.526	correct	congruent	Block1	congruent/STIM_004.jpg
676.321	0.631	correct	congruent	Block1	congruent/STIM_004.jpg
680.393	0.753	correct	congruent	Block1	congruent/STIM_004.jpg
684.784	0.497	correct	congruent	Block1	congruent/STIM_005.jpg
688.193	0.453	correct	congruent	Block1	congruent/STIM_005.jpg
692.265	0.656	correct	congruent	Block1	congruent/STIM_005.jpg
696.986	0.528	correct	congruent	Block1	congruent/STIM_005.jpg
699.825	0.609	correct	congruent	Block1	congruent/STIM_005.jpg
703.04	0.63	correct	congruent	Block1	congruent/STIM_006.jpg
707.468	0.45	correct	congruent	Block1	congruent/STIM_006.jpg
710.56	0.492	correct	congruent	Block1	congruent/STIM_006.jpg
714.063	0.702	correct	congruent	Block1	congruent/STIM_006.jpg
717.273	0.765	correct	congruent	Block1	congruent/STIM_006.jpg
720.921	0.524	correct	congruent	Block1	congruent/STIM_007.jpg
724.841	0.627	correct	congruent	Block1	congruent/STIM_007.jpg
728.536	0.442	correct	congruent	Block1	congruent/STIM_007.jpg
731.701	0.6	correct	congruent	Block1	congruent/STIM_007.jpg
736.237	0.627	correct	congruent	Block1	congruent/STIM_007.jpg
740.76	0.713	correct	congruent	Block1	congruent/STIM_008.jpg
744.349	0.511	correct	congruent	Block1	congruent/STIM_008.jpg
748.87	0.53	correct	congruent	Block1	congruent/STIM_008.jpg
753.241	0.45	correct	congruent	Block1	congruent/STIM_008.jpg
756.123	0.759	correct	congruent	Block1	congruent/STIM_008.jpg
759.017	0.777	correct	congruent	Block1	congruent/STIM_009.jpg
762.822	0.736	correct	congruent	Block1	congruent/STIM_009.jpg
765.771	0.719	correct	congruent	Block1	congruent/STIM_009.jpg
769.044	0.657	correct	congruent	Block1	congruent/STIM_009.jpg
773.107	0.761	correct	congruent	Block1	congruent/STIM_009.jpg
776.519	0.517	correct	congruent	Block1	congruent/STIM_010.jpg
779.98	0.588	incorrect	congruent	Block1	congruent/STIM_010.jpg
783.303	0.644	correct	congruent	Block1	congruent/STIM_010.jpg
787.46	0.576	correct	congruent	Block1	congruent/STIM_010.jpg
791.818	0.546	correct	congruent	Block1	congruent/STIM_010.jpg
796.336	0.774	correct	congruent	Block1	congruent/STIM_011.jpg
800.124	0.471	correct	congruent	Block1	congruent/STIM_011.jpg
802.776	0.676	correct	congruent	Block1	congruent/STIM_011.jpg
806.197	0.5	correct	congruent	Block1	congruent/STIM_011.jpg
808.996	0.499	correct	congruent	Block1	congruent/STIM_011.jpg
812.291	0.568	correct	congruent	Block1	congruent/STIM_012.jpg
816.399	0.565	incorrect	congruent	Block1	congruent/STIM_012.jpg
819.12	0.626	correct	congruent	Block1	congruent/STIM_012.jpg
822.948	0.528	correct	congruent	Block1	congruent/STIM_012.jpg
826.608	0.573	correct	congruent	Block1	congruent/STIM_012.jpg
831.225	0.481	correct	congruent	Block1	congruent/STIM_013.jpg
835.176	0.779	correct	congruent	Block1	congruent/STIM_013.jpg
839.104	0.458	correct	congruent	Block1	congruent/STIM_013.jpg
841.77	0.459	correct	congruent	Block1	congruent/STIM_013.jpg
846.195	0.68	correct	congruent	Block1	congruent/STIM_013.jpg
850.043	0.476	correct	congruent	Block1	congruent/STIM_014.jpg
853.777	0.525	correct	congruent	Block1	congruent/STIM_014.jpg
857.383	0.528	correct	congruent	Block1	congruent/STIM_014.jpg
861.087	0.686	correct	congruent	Block1	congruent/STIM_014.jpg
864.826	0.588	correct	congruent	Block1	congruent/STIM_014.jpg
867.795	0.593	correct	congruent	Block1	congruent/STIM_015.jpg
870.781	0.52	incorrect	congruent	Block1	congruent/STIM_015.jpg
874.045	0.579	correct	congruent	Block1	congruent/STIM_015.jpg
877.23	0.488	correct	congruent	Block1	congruent/STIM_015.jpg
881.27	0.773	correct	congruent	Block1	congruent/STIM_015.jpg
884.975	0.575	correct	congruent	Block1	congruent/STIM_016.jpg
889.054	0.489	correct	congruent	Block1	congruent/STIM_016.jpg
893.286	0.6	correct	congruent	Block1	congruent/STIM_016.jpg
896.683	0.729	correct	congruent	Block1	congruent/STIM_016.jpg
899.667	0.627	correct	congruent	Block1	congruent/STIM_016.jpg
902.537	0.593	correct	congruent	Block1	congruent/STIM_017.jpg
906.902	0.772	correct	congruent	Block1	congruent/STIM_017.jpg
911.634	0.455	correct	congruent	Block1	congruent/STIM_017.jpg
916.1	0.72	correct	congruent	Block1	congruent/STIM_017.jpg
920.793	0.605	correct	congruent	Block1	congruent/STIM_017.jpg
924.102	0.734	correct	congruent	Block1	congruent/STIM_018.jpg
928.317	0.652	incorrect	congruent	Block1	congruent/STIM_018.jpg
932.768	0.634	correct	congruent	Block1	congruent/STIM_018.jpg
935.851	0.552	correct	congruent	Block1	congruent/STIM_018.jpg
939.458	0.691	correct	congruent	Block1	congruent/STIM_018.jpg
943.278	0.525	correct	congruent	Block1	congruent/STIM_019.jpg
946.424	0.689	correct	congruent	Block1	congruent/STIM_019.jpg
949.586	0.733	correct	congruent	Block1	congruent/STIM_019.jpg
954.224	0.734	correct	congruent	Block1	congruent/STIM_019.jpg
957.787	0.777	correct	congruent	Block1	congruent/STIM_019.jpg
961.855	0.707	correct	congruent	Block1	congruent/STIM_020.jpg
965.983	0.735	correct	congruent	Block1	congruent/STIM_020.jpg
969.227	0.745	correct	congruent	Block1	congruent/STIM_020.jpg
973.847	0.782	correct	congruent	Block1	congruent/STIM_020.jpg
978.347	0.616	correct	congruent	Block1	congruent/STIM_020.jpg
981.967	0.643	correct	congruent	Block1	congruent/STIM_021.jpg
986.061	0.743	correct	congruent	Block1	congruent/STIM_021.jpg
990.444	0.529	correct	congruent	Block1	congruent/STIM_021.jpg
994.922	0.739	correct	congruent	Block1	congruent/STIM_021.jpg
998.453	0.711	correct	congruent	Block1	congruent/STIM_021.jpg
1002.301	0.774	correct	congruent	Block1	congruent/STIM_022.jpg
1006.533	0.56	correct	congruent	Block1	congruent/STIM_022.jpg
1010.39	0.557	incorrect	congruent	Block1	congruent/STIM_022.jpg
1013.617	0.546	correct	congruent	Block1	congruent/STIM_022.jpg
1017.016	0.566	correct	congruent	Block1	congruent/STIM_022.jpg
1020.314	0.509	correct	congruent	Block1	congruent/STIM_023.jpg
1024.596	0.454	correct	congruent	Block1	congruent/STIM_023.jpg
1028.163	0.504	correct	congruent	Block1	congruent/STIM_023.jpg
1030.74	0.507	correct	congruent	Block1	congruent/STIM_023.jpg
1034.886	0.656	correct	congruent	Block1	congruent/STIM_023.jpg
1038.37	0.698	correct	congruent	Block1	congruent/STIM_024.jpg
1043.059	0.706	correct	congruent	Block1	congruent/STIM_024.jpg
1047.669	0.44	correct	congruent	Block1	congruent/STIM_024.jpg
1051.4	0.54	correct	congruent	Block1	congruent/STIM_024.jpg
1054.852	0.644	correct	congruent	Block1	congruent/STIM_024.jpg
1058.679	0.474	incorrect	congruent	Block1	congruent/STIM_025.jpg
1061.299	0.77	correct	congruent	Block1	congruent/STIM_025.jpg
1065.639	0.483	correct	congruent	Block1	congruent/STIM_025.jpg
1069.413	0.736	correct	congruent	Block1	congruent/STIM_025.jpg
1073.92	0.7	correct	congruent	Block1	congruent/STIM_025.jpg
1078.558	0.757	correct	congruent	Block1	congruent/STIM_026.jpg
1082.824	0.508	correct	congruent	Block1	congruent/STIM_026.jpg
1086.27	0.501	correct	congruent	Block1	congruent/STIM_026.jpg
1089.386	0.603	correct	congruent	Block1	congruent/STIM_026.jpg
1093.21	0.707	correct	congruent	Block1	congruent/STIM_026.jpg
1096.061	0.507	correct	congruent	Block1	congruent/STIM_027.jpg
1100.006	0.621	correct	congruent	Block1	congruent/STIM_027.jpg
1103.807	0.464	correct	congruent	Block1	congruent/STIM_027.jpg
1106.509	0.591	correct	congruent	Block1	congruent/STIM_027.jpg
1111.138	0.575	correct	congruent	Block1	congruent/STIM_027.jpg
1114.003	0.705	correct	congruent	Block1	congruent/STIM_028.jpg
1116.817	0.443	correct	congruent	Block1	congruent/STIM_028.jpg
1120.137	0.577	incorrect	congruent	Block1	congruent/STIM_028.jpg
1124.664	0.674	incorrect	congruent	Block1	congruent/STIM_028.jpg
1127.862	0.483	correct	congruent	Block1	congruent/STIM_028.jpg
1131.908	0.52	correct	congruent	Block1	congruent/STIM_029.jpg
1135.14	0.664	correct	congruent	Block1	congruent/STIM_029.jpg
1139.708	0.786	correct	congruent	Block1	congruent/STIM_029.jpg
1143.602	0.553	correct	congruent	Block1	congruent/STIM_029.jpg
1146.547	0.697	correct	congruent	Block1	congruent/STIM_029.jpg
1149.948	0.59	correct	incongruent	Block2	incongruent/STIM_000.jpg
1154.111	0.586	correct	incongruent	Block2	incongruent/STIM_000.jpg
1158.361	0.746	correct	incongruent	Block2	incongruent/STIM_000.jpg
1161.542	0.533	correct	incongruent	Block2	incongruent/STIM_000.jpg
1165.646	0.652	correct	incongruent	Block2	incongruent/STIM_000.jpg
1168.974	0.932	correct	incongruent	Block2	incongruent/STIM_001.jpg
1172.564	1.034	correct	incongruent	Block2	incongruent/STIM_001.jpg
1177.373	0.824	correct	incongruent	Block2	incongruent/STIM_001.jpg
1182.184	0.551	correct	incongruent	Block2	incongruent/STIM_001.jpg
1186.279	0.538	correct	incongruent	Block2	incongruent/STIM_001.jpg
1190.002	0.766	correct	incongruent	Block2	incongruent/STIM_002.jpg
1193.525	0.69	correct	incongruent	Block2	incongruent/STIM_002.jpg
1196.44	0.838	correct	incongruent	Block2	incongruent/STIM_002.jpg
1200.933	0.464	correct	incongruent	Block2	incongruent/STIM_002.jpg
1203.782	0.719	correct	incongruent	Block2	incongruent/STIM_002.jpg
1206.619	0.583	correct	incongruent	Block2	incongruent/STIM_003.jpg
1210.153	0.542	correct	incongruent	Block2	incongruent/STIM_003.jpg
1213.407	0.892	correct	incongruent	Block2	incongruent/STIM_003.jpg
1217.736	0.54	correct	incongruent	Block2	incongruent/STIM_003.jpg
1221.311	0.889	correct	incongruent	Block2	incongruent/STIM_003.jpg
1226.278	0.68	correct	incongruent	Block2	incongruent/STIM_004.jpg
1230.322	0.779	correct	incongruent	Block2	incongruent/STIM_004.jpg
1234.58	0.781	correct	incongruent	Block2	incongruent/STIM_004.jpg
1238.981	0.844	incorrect	incongruent	Block2	incongruent/STIM_004.jpg
1242.468	0.491	correct	incongruent	Block2	incongruent/STIM_004.jpg
1245.763	1.116	incorrect	incongruent	Block2	incongruent/STIM_005.jpg
1250.728	0.998	correct	incongruent	Block2	incongruent/STIM_005.jpg
1255.03	0.51	correct	incongruent	Block2	incongruent/STIM_005.jpg
1258.831	0.704	correct	incongruent	Block2	incongruent/STIM_005.jpg
1263.184	0.454	correct	incongruent	Block2	incongruent/STIM_005.jpg
1266.129	1.016	correct	incongruent	Block2	incongruent/STIM_006.jpg
1271.23	0.601	correct	incongruent	Block2	incongruent/STIM_006.jpg
1275.285	0.86	correct	incongruent	Block2	incongruent/STIM_006.jpg
1278.952	0.53	correct	incongruent	Block2	incongruent/STIM_006.jpg
1281.789	0.454	correct	incongruent	Block2	incongruent/STIM_006.jpg
1285.901	0.834	correct	incongruent	Block2	incongruent/STIM_007.jpg
1289.212	0.966	correct	incongruent	Block2	incongruent/STIM_007.jpg
1294.121	0.598	correct	incongruent	Block2	incongruent/STIM_007.jpg
1298.633	0.682	incorrect	incongruent	Block2	incongruent/STIM_007.jpg
1303.281	0.452	correct	incongruent	Block2	incongruent/STIM_007.jpg
1307.276	0.771	correct	incongruent	Block2	incongruent/STIM_008.jpg
1310.813	0.532	correct	incongruent	Block2	incongruent/STIM_008.jpg
1314.652	0.723	incorrect	incongruent	Block2	incongruent/STIM_008.jpg
1317.799	0.442	correct	incongruent	Block2	incongruent/STIM_008.jpg
1322.165	0.544	correct	incongruent	Block2	incongruent/STIM_008.jpg
1325.745	0.701	correct	incongruent	Block2	incongruent/STIM_009.jpg
1330.009	0.838	correct	incongruent	Block2	incongruent/STIM_009.jpg
1333.265	0.525	correct	incongruent	Block2	incongruent/STIM_009.jpg
1336.399	0.474	correct	incongruent	Block2	incongruent/STIM_009.jpg
1340.8	0.805	correct	incongruent	Block2	incongruent/STIM_009.jpg
1345.109	0.643	correct	incongruent	Block2	incongruent/STIM_010.jpg
1349.745	0.512	correct	incongruent	Block2	incongruent/STIM_010.jpg
1354.315	0.834	correct	incongruent	Block2	incongruent/STIM_010.jpg
1358.744	0.867	correct	incongruent	Block2	incongruent/STIM_010.jpg
1362.691	0.78	correct	incongruent	Block2	incongruent/STIM_010.jpg
1366.982	1.01	correct	incongruent	Block2	incongruent/STIM_011.jpg
1371.03	0.865	correct	incongruent	Block2	incongruent/STIM_011.jpg
1375.273	0.95	correct	incongruent	Block2	incongruent/STIM_011.jpg
1380.0	0.753	correct	incongruent	Block2	incongruent/STIM_011.jpg
1383.291	0.852	correct	incongruent	Block2	incongruent/STIM_011.jpg
1386.445	0.886	correct	incongruent	Block2	incongruent/STIM_012.jpg
1390.477	0.872	correct	incongruent	Block2	incongruent/STIM_012.jpg
1394.957	0.521	correct	incongruent	Block2	incongruent/STIM_012.jpg
1398.384	0.491	correct	incongruent	Block2	incongruent/STIM_012.jpg
1401.925	0.673	correct	incongruent	Block2	incongruent/STIM_012.jpg
1404.828	0.994	correct	incongruent	Block2	incongruent/STIM_013.jpg
1409.018	0.823	correct	incongruent	Block2	incongruent/STIM_013.jpg
1413.632	0.714	correct	incongruent	Block2	incongruent/STIM_013.jpg
1416.829	0.747	correct	incongruent	Block2	incongruent/STIM_013.jpg
1420.103	0.874	correct	incongruent	Block2	incongruent/STIM_013.jpg
1424.016	0.936	correct	incongruent	Block2	incongruent/STIM_014.jpg
1427.433	0.725	correct	incongruent	Block2	incongruent/STIM_014.jpg
1430.647	0.853	correct	incongruent	Block2	incongruent/STIM_014.jpg
1435.213	0.81	correct	incongruent	Block2	incongruent/STIM_014.jpg
1439.333	0.574	correct	incongruent	Block2	incongruent/STIM_014.jpg
1443.882	0.786	correct	incongruent	Block2	incongruent/STIM_015.jpg
1448.58	0.707	correct	incongruent	Block2	incongruent/STIM_015.jpg
1452.155	0.974	correct	incongruent	Block2	incongruent/STIM_015.jpg
1456.438	0.456	correct	incongruent	Block2	incongruent/STIM_015.jpg
1460.536	0.519	correct	incongruent	Block2	incongruent/STIM_015.jpg
1463.347	0.738	correct	incongruent	Block2	incongruent/STIM_016.jpg
1467.613	0.779	correct	incongruent	Block2	incongruent/STIM_016.jpg
1471.001	0.953	correct	incongruent	Block2	incongruent/STIM_016.jpg
1474.527	0.88	correct	incongruent	Block2	incongruent/STIM_016.jpg
1479.317	0.568	correct	incongruent	Block2	incongruent/STIM_016.jpg
1483.016	0.836	correct	incongruent	Block2	incongruent/STIM_017.jpg
1486.555	0.565	correct	incongruent	Block2	incongruent/STIM_017.jpg
1489.315	0.589	correct	incongruent	Block2	incongruent/STIM_017.jpg
1492.852	0.658	correct	incongruent	Block2	incongruent/STIM_017.jpg
1496.147	0.826	correct	incongruent	Block2	incongruent/STIM_017.jpg
1500.759	0.556	correct	incongruent	Block2	incongruent/STIM_018.jpg
1503.804	0.583	correct	incongruent	Block2	incongruent/STIM_018.jpg
1507.153	0.494	correct	incongruent	Block2	incongruent/STIM_018.jpg
1509.9	0.89	correct	incongruent	Block2	incongruent/STIM_018.jpg
1513.422	0.556	correct	incongruent	Block2	incongruent/STIM_018.jpg
1517.284	1.114	correct	incongruent	Block2	incongruent/STIM_019.jpg
1520.741	0.913	incorrect	incongruent	Block2	incongruent/STIM_019.jpg
1524.442	0.551	correct	incongruent	Block2	incongruent/STIM_019.jpg
1528.243	0.56	correct	incongruent	Block2	incongruent/STIM_019.jpg
1532.492	0.677	correct	incongruent	Block2	incongruent/STIM_019.jpg
1536.13	0.632	correct	incongruent	Block2	incongruent/STIM_020.jpg
1539.718	0.908	correct	incongruent	Block2	incongruent/STIM_020.jpg
1543.432	0.879	correct	incongruent	Block2	incongruent/STIM_020.jpg
1547.1	0.459	correct	incongruent	Block2	incongruent/STIM_020.jpg
1549.895	0.811	correct	incongruent	Block2	incongruent/STIM_020.jpg
1554.52	0.631	correct	incongruent	Block2	incongruent/STIM_021.jpg
1558.184	0.784	incorrect	incongruent	Block2	incongruent/STIM_021.jpg
1562.617	0.584	correct	incongruent	Block2	incongruent/STIM_021.jpg
1566.329	0.78	correct	incongruent	Block2	incongruent/STIM_021.jpg
1569.331	0.455	correct	incongruent	Block2	incongruent/STIM_021.jpg
1572.027	0.941	correct	incongruent	Block2	incongruent/STIM_022.jpg
1577.015	0.82	correct	incongruent	Block2	incongruent/STIM_022.jpg
1581.064	0.677	correct	incongruent	Block2	incongruent/STIM_022.jpg
1584.317	0.707	correct	incongruent	Block2	incongruent/STIM_022.jpg
1588.127	0.48	correct	incongruent	Block2	incongruent/STIM_022.jpg
1592.057	0.895	correct	incongruent	Block2	incongruent/STIM_023.jpg
1595.714	0.518	correct	incongruent	Block2	incongruent/STIM_023.jpg
1599.923	0.894	correct	incongruent	Block2	incongruent/STIM_023.jpg
1604.096	0.632	correct	incongruent	Block2	incongruent/STIM_023.jpg
1607.204	0.837	correct	incongruent	Block2	incongruent/STIM_023.jpg
1612.102	0.657	correct	incongruent	Block2	incongruent/STIM_024.jpg
1615.8	0.57	correct	incongruent	Block2	incongruent/STIM_024.jpg
1618.529	0.883	correct	incongruent	Block2	incongruent/STIM_024.jpg
1623.234	0.731	correct	incongruent	Block2	incongruent/STIM_024.jpg
1627.734	0.52	correct	incongruent	Block2	incongruent/STIM_024.jpg
1632.296	1.014	correct	incongruent	Block2	incongruent/STIM_025.jpg
1637.012	0.601	correct	incongruent	Block2	incongruent/STIM_025.jpg
1639.917	0.872	correct	incongruent	Block2	incongruent/STIM_025.jpg
1643.322	0.705	correct	incongruent	Block2	incongruent/STIM_025.jpg
1647.32	0.607	correct	incongruent	Block2	incongruent/STIM_025.jpg
1650.582	0.908	correct	incongruent	Block2	incongruent/STIM_026.jpg
1654.823	0.631	correct	incongruent	Block2	incongruent/STIM_026.jpg
1658.454	0.575	correct	incongruent	Block2	incongruent/STIM_026.jpg
1663.063	0.437	correct	incongruent	Block2	incongruent/STIM_026.jpg
1666.575	0.674	correct	incongruent	Block2	incongruent/STIM_026.jpg
1670.178	0.557	correct	incongruent	Block2	incongruent/STIM_027.jpg
1673.846	0.577	incorrect	incongruent	Block2	incongruent/STIM_027.jpg
1677.329	0.472	correct	incongruent	Block2	incongruent/STIM_027.jpg
1680.863	0.92	correct	incongruent	Block2	incongruent/STIM_027.jpg
1684.43	0.514	correct	incongruent	Block2	incongruent/STIM_027.jpg
1687.826	0.591	correct	incongruent	Block2	incongruent/STIM_028.jpg
1692.238	0.634	correct	incongruent	Block2	incongruent/STIM_028.jpg
1696.097	0.699	correct	incongruent	Block2	incongruent/STIM_028.jpg
1699.088	0.861	correct	incongruent	Block2	incongruent/STIM_028.jpg
1702.584	0.7	correct	incongruent	Block2	incongruent/STIM_028.jpg
1706.024	0.991	correct	incongruent	Block2	incongruent/STIM_029.jpg
1709.599	0.506	correct	incongruent	Block2	incongruent/STIM_029.jpg
1713.384	0.818	correct	incongruent	Block2	incongruent/STIM_029.jpg
1717.301	0.877	correct	incongruent	Block2	incongruent/STIM_029.jpg
1721.124	0.455	correct	incongruent	Block2	incongruent/STIM_029.jpg
1724.38	0.66	correct	congruent	Block2	congruent/STIM_000.jpg
1728.221	0.652	correct	congruent	Block2	congruent/STIM_000.jpg
1732.218	0.788	correct	congruent	Block2	congruent/STIM_000.jpg
1735.338	0.701	correct	congruent	Block2	congruent/STIM_000.jpg
1738.766	0.662	correct	congruent	Block2	congruent/STIM_000.jpg
1742.996	0.549	correct	congruent	Block2	congruent/STIM_001.jpg
1746.636	0.575	correct	congruent	Block2	congruent/STIM_001.jpg
1750.941	0.519	correct	congruent	Block2	congruent/STIM_001.jpg
1755.501	0.458	correct	congruent	Block2	congruent/STIM_001.jpg
1758.623	0.771	correct	congruent	Block2	congruent/STIM_001.jpg
1762.26	0.742	correct	congruent	Block2	congruent/STIM_002.jpg
1766.857	0.605	correct	congruent	Block2	congruent/STIM_002.jpg
1769.939	0.71	correct	congruent	Block2	congruent/STIM_002.jpg
1774.46	0.464	correct	congruent	Block2	congruent/STIM_002.jpg
1777.962	0.613	correct	congruent	Block2	congruent/STIM_002.jpg
1781.297	0.776	correct	congruent	Block2	congruent/STIM_003.jpg
1785.965	0.685	correct	congruent	Block2	congruent/STIM_003.jpg
1790.633	0.571	correct	congruent	Block2	congruent/STIM_003.jpg
1794.888	0.461	incorrect	congruent	Block2	congruent/STIM_003.jpg
1798.423	0.541	correct	congruent	Block2	congruent/STIM_003.jpg
1802.478	0.597	correct	congruent	Block2	congruent/STIM_004.jpg
1806.809	0.582	correct	congruent	Block2	congruent/STIM_004.jpg
1811.104	0.559	correct	congruent	Block2	congruent/STIM_004.jpg
1814.728	0.483	correct	congruent	Block2	congruent/STIM_004.jpg
1817.612	0.747	correct	congruent	Block2	congruent/STIM_004.jpg
1822.259	0.564	correct	congruent	Block2	congruent/STIM_005.jpg
1825.094	0.526	correct	congruent	Block2	congruent/STIM_005.jpg
1828.763	0.482	correct	congruent	Block2	congruent/STIM_005.jpg
1831.95	0.696	correct	congruent	Block2	congruent/STIM_005.jpg
1835.911	0.55	correct	congruent	Block2	congruent/STIM_005.jpg
1839.306	0.7	correct	congruent	Block2	congruent/STIM_006.jpg
1843.306	0.46	correct	congruent	Block2	congruent/STIM_006.jpg
1847.304	0.508	correct	congruent	Block2	congruent/STIM_006.jpg
1850.324	0.568	correct	congruent	Block2	congruent/STIM_006.jpg
1854.362	0.782	correct	congruent	Block2	congruent/STIM_006.jpg
1857.418	0.451	correct	congruent	Block2	congruent/STIM_007.jpg
1860.246	0.478	correct	congruent	Block2	congruent/STIM_007.jpg
1864.077	0.658	correct	congruent	Block2	congruent/STIM_007.jpg
1867.764	0.733	correct	congruent	Block2	congruent/STIM_007.jpg
1872.128	0.704	correct	congruent	Block2	congruent/STIM_007.jpg
1876.296	0.697	correct	congruent	Block2	congruent/STIM_008.jpg
1881.06	0.453	correct	congruent	Block2	congruent/STIM_008.jpg
1885.554	0.689	correct	congruent	Block2	congruent/STIM_008.jpg
1888.573	0.594	correct	congruent	Block2	congruent/STIM_008.jpg
1892.874	0.449	correct	congruent	Block2	congruent/STIM_008.jpg
1896.649	0.555	correct	congruent	Block2	congruent/STIM_009.jpg
1899.87	0.603	correct	congruent	Block2	congruent/STIM_009.jpg
1904.532	0.5	correct	congruent	Block2	congruent/STIM_009.jpg
1908.191	0.616	correct	congruent	Block2	congruent/STIM_009.jpg
1911.219	0.579	correct	congruent	Block2	congruent/STIM_009.jpg
1914.815	0.761	correct	congruent	Block2	congruent/STIM_010.jpg
1918.317	0.785	correct	congruent	Block2	congruent/STIM_010.jpg
1922.353	0.468	correct	congruent	Block2	congruent/STIM_010.jpg
1925.019	0.783	correct	congruent	Block2	congruent/STIM_010.jpg
1928.342	0.717	correct	congruent	Block2	congruent/STIM_010.jpg
1931.404	0.624	correct	congruent	Block2	congruent/STIM_011.jpg
1935.706	0.443	correct	congruent	Block2	congruent/STIM_011.jpg
1939.168	0.663	correct	congruent	Block2	congruent/STIM_011.jpg
1942.786	0.787	correct	congruent	Block2	congruent/STIM_011.jpg
1945.992	0.444	correct	congruent	Block2	congruent/STIM_011.jpg
1948.728	0.57	correct	congruent	Block2	congruent/STIM_012.jpg
1952.625	0.541	correct	congruent	Block2	congruent/STIM_012.jpg
1957.079	0.446	correct	congruent	Block2	congruent/STIM_012.jpg
1960.622	0.623	correct	congruent	Block2	congruent/STIM_012.jpg
1964.403	0.526	correct	congruent	Block2	congruent/STIM_012.jpg
1968.505	0.579	correct	congruent	Block2	congruent/STIM_013.jpg
1973.032	0.476	correct	congruent	Block2	congruent/STIM_013.jpg
1976.491	0.627	correct	congruent	Block2	congruent/STIM_013.jpg
1980.815	0.494	correct	congruent	Block2	congruent/STIM_013.jpg
1985.186	0.668	correct	congruent	Block2	congruent/STIM_013.jpg
1988.254	0.629	correct	congruent	Block2	congruent/STIM_014.jpg
1992.658	0.711	correct	congruent	Block2	congruent/STIM_014.jpg
1996.337	0.746	correct	congruent	Block2	congruent/STIM_014.jpg
1999.487	0.56	correct	congruent	Block2	congruent/STIM_014.jpg
2002.484	0.568	correct	congruent	Block2	congruent/STIM_014.jpg
2005.634	0.507	correct	congruent	Block2	congruent/STIM_015.jpg
2009.599	0.49	correct	congruent	Block2	congruent/STIM_015.jpg
2012.808	0.528	correct	congruent	Block2	congruent/STIM_015.jpg
2017.069	0.685	correct	congruent	Block2	congruent/STIM_015.jpg
2021.601	0.761	correct	congruent	Block2	congruent/STIM_015.jpg
2025.319	0.618	correct	congruent	Block2	congruent/STIM_016.jpg
2029.887	0.585	correct	congruent	Block2	congruent/STIM_016.jpg
2033.826	0.766	correct	congruent	Block2	congruent/STIM_016.jpg
2037.925	0.67	correct	congruent	Block2	congruent/STIM_016.jpg
2041.908	0.734	correct	congruent	Block2	congruent/STIM_016.jpg
2046.177	0.568	correct	congruent	Block2	congruent/STIM_017.jpg
2049.004	0.764	correct	congruent	Block2	congruent/STIM_017.jpg
2052.018	0.74	correct	congruent	Block2	congruent/STIM_017.jpg
2055.282	0.786	incorrect	congruent	Block2	congruent/STIM_017.jpg
2059.484	0.593	correct	congruent	Block2	congruent/STIM_017.jpg
2062.877	0.498	correct	congruent	Block2	congruent/STIM_018.jpg
2066.405	0.516	correct	congruent	Block2	congruent/STIM_018.jpg
2069.459	0.551	correct	congruent	Block2	congruent/STIM_018.jpg
2073.4	0.743	correct	congruent	Block2	congruent/STIM_018.jpg
2076.263	0.695	correct	congruent	Block2	congruent/STIM_018.jpg
2080.745	0.681	correct	congruent	Block2	congruent/STIM_019.jpg
2083.623	0.72	correct	congruent	Block2	congruent/STIM_019.jpg
2086.76	0.696	correct	congruent	Block2	congruent/STIM_019.jpg
2091.341	0.686	incorrect	congruent	Block2	congruent/STIM_019.jpg
2094.984	0.639	correct	congruent	Block2	congruent/STIM_019.jpg
2097.872	0.596	correct	congruent	Block2	congruent/STIM_020.jpg
2101.758	0.517	correct	congruent	Block2	congruent/STIM_020.jpg
2105.827	0.689	correct	congruent	Block2	congruent/STIM_020.jpg
2109.165	0.689	correct	congruent	Block2	congruent/STIM_020.jpg
2113.75	0.779	incorrect	congruent	Block2	congruent/STIM_020.jpg
2117.185	0.56	correct	congruent	Block2	congruent/STIM_021.jpg
2121.725	0.744	correct	congruent	Block2	congruent/STIM_021.jpg
2124.754	0.602	correct	congruent	Block2	congruent/STIM_021.jpg
2129.227	0.788	correct	congruent	Block2	congruent/STIM_021.jpg
2132.423	0.534	correct	congruent	Block2	congruent/STIM_021.jpg
2136.53	0.721	correct	congruent	Block2	congruent/STIM_022.jpg
2139.502	0.634	correct	congruent	Block2	congruent/STIM_022.jpg
2142.629	0.748	correct	congruent	Block2	congruent/STIM_022.jpg
2145.939	0.481	correct	congruent	Block2	congruent/STIM_022.jpg
2149.159	0.659	correct	congruent	Block2	congruent/STIM_022.jpg
2153.54	0.727	correct	congruent	Block2	congruent/STIM_023.jpg
2157.642	0.711	correct	congruent	Block2	congruent/STIM_023.jpg
2160.463	0.596	correct	congruent	Block2	congruent/STIM_023.jpg
2164.405	0.6	correct	congruent	Block2	congruent/STIM_023.jpg
2168.67	0.454	correct	congruent	Block2	congruent/STIM_023.jpg
2171.426	0.545	correct	congruent	Block2	congruent/STIM_024.jpg
2174.572	0.664	correct	congruent	Block2	congruent/STIM_024.jpg
2178.884	0.688	correct	congruent	Block2	congruent/STIM_024.jpg
2182.762	0.563	correct	congruent	Block2	congruent/STIM_024.jpg
2186.697	0.452	correct	congruent	Block2	congruent/STIM_024.jpg
2190.831	0.49	correct	congruent	Block2	congruent/STIM_025.jpg
2193.943	0.644	correct	congruent	Block2	congruent/STIM_025.jpg
2197.357	0.538	correct	congruent	Block2	congruent/STIM_025.jpg
2200.254	0.568	correct	congruent	Block2	congruent/STIM_025.jpg
2203.625	0.476	correct	congruent	Block2	congruent/STIM_025.jpg
2206.461	0.751	correct	congruent	Block2	congruent/STIM_026.jpg
2209.487	0.728	correct	congruent	Block2	congruent/STIM_026.jpg
2212.383	0.725	correct	congruent	Block2	congruent/STIM_026.jpg
2216.265	0.736	correct	congruent	Block2	congruent/STIM_026.jpg
2220.836	0.512	correct	congruent	Block2	congruent/STIM_026.jpg
2224.03	0.655	correct	congruent	Block2	congruent/STIM_027.jpg
2228.016	0.777	correct	congruent	Block2	congruent/STIM_027.jpg
2231.209	0.773	correct	congruent	Block2	congruent/STIM_027.jpg
2235.091	0.45	correct	congruent	Block2	congruent/STIM_027.jpg
2237.881	0.693	correct	congruent	Block2	congruent/STIM_027.jpg
2240.929	0.504	correct	congruent	Block2	congruent/STIM_028.jpg
2244.442	0.658	correct	congruent	Block2	congruent/STIM_028.jpg
2247.575	0.554	correct	congruent	Block2	congruent/STIM_028.jpg
2251.772	0.582	correct	congruent	Block2	congruent/STIM_028.jpg
2254.934	0.63	correct	congruent	Block2	congruent/STIM_028.jpg
2259.327	0.643	correct	congruent	Block2	congruent/STIM_029.jpg
2262.893	0.632	correct	congruent	Block2	congruent/STIM_029.jpg
2266.434	0.629	correct	congruent	Block2	congruent/STIM_029.jpg
2269.423	0.618	correct	congruent	Block2	congruent/STIM_029.jpg
2273.952	0.64	incorrect	congruent	Block2	congruent/STIM_029.jpg
2277.869	0.759	correct	incongruent	Block3	incongruent/STIM_000.jpg
2280.907	0.692	correct	incongruent	Block3	incongruent/STIM_000.jpg
2284.123	0.716	correct	incongruent	Block3	incongruent/STIM_000.jpg
2288.027	0.536	correct	incongruent	Block3	incongruent/STIM_000.jpg
2290.668	0.715	correct	incongruent	Block3	incongruent/STIM_000.jpg
2294.617	0.714	correct	incongruent	Block3	incongruent/STIM_001.jpg
2299.394	0.674	correct	incongruent	Block3	incongruent/STIM_001.jpg
2303.819	0.697	correct	incongruent	Block3	incongruent/STIM_001.jpg
2308.537	0.672	correct	incongruent	Block3	incongruent/STIM_001.jpg
2311.518	0.709	correct	incongruent	Block3	incongruent/STIM_001.jpg
2315.452	0.57	correct	incongruent	Block3	incongruent/STIM_002.jpg
2318.945	0.523	correct	incongruent	Block3	incongruent/STIM_002.jpg
2322.839	0.772	incorrect	incongruent	Block3	incongruent/STIM_002.jpg
2327.341	0.816	correct	incongruent	Block3	incongruent/STIM_002.jpg
2330.697	0.539	correct	incongruent	Block3	incongruent/STIM_002.jpg
2333.312	0.621	correct	incongruent	Block3	incongruent/STIM_003.jpg
2337.73	0.505	correct	incongruent	Block3	incongruent/STIM_003.jpg
2341.701	0.765	correct	incongruent	Block3	incongruent/STIM_003.jpg
2345.966	0.863	correct	incongruent	Block3	incongruent/STIM_003.jpg
2350.501	0.708	correct	incongruent	Block3	incongruent/STIM_003.jpg
2354.856	0.502	correct	incongruent	Block3	incongruent/STIM_004.jpg
2358.91	0.814	correct	incongruent	Block3	incongruent/STIM_004.jpg
2362.57	0.458	correct	incongruent	Block3	incongruent/STIM_004.jpg
2366.016	0.524	correct	incongruent	Block3	incongruent/STIM_004.jpg
2369.707	0.671	correct	incongruent	Block3	incongruent/STIM_004.jpg
2373.146	0.634	correct	incongruent	Block3	incongruent/STIM_005.jpg
2376.475	0.82	correct	incongruent	Block3	incongruent/STIM_005.jpg
2381.409	0.724	correct	incongruent	Block3	incongruent/STIM_005.jpg
2386.078	0.909	correct	incongruent	Block3	incongruent/STIM_005.jpg
2389.959	0.5	correct	incongruent	Block3	incongruent/STIM_005.jpg
2392.978	0.472	correct	incongruent	Block3	incongruent/STIM_006.jpg
2397.28	0.466	correct	incongruent	Block3	incongruent/STIM_006.jpg
2401.073	0.731	correct	incongruent	Block3	incongruent/STIM_006.jpg
2404.159	0.866	correct	incongruent	Block3	incongruent/STIM_006.jpg
2408.868	0.636	correct	incongruent	Block3	incongruent/STIM_006.jpg
2413.526	0.734	correct	incongruent	Block3	incongruent/STIM_007.jpg
2417.172	0.9	correct	incongruent	Block3	incongruent/STIM_007.jpg
2421.874	0.594	correct	incongruent	Block3	incongruent/STIM_007.jpg
2426.025	0.893	correct	incongruent	Block3	incongruent/STIM_007.jpg
2429.172	0.687	correct	incongruent	Block3	incongruent/STIM_007.jpg
2432.652	0.777	correct	incongruent	Block3	incongruent/STIM_008.jpg
2436.945	0.746	correct	incongruent	Block3	incongruent/STIM_008.jpg
2441.717	0.44	correct	incongruent	Block3	incongruent/STIM_008.jpg
2445.519	0.797	correct	incongruent	Block3	incongruent/STIM_008.jpg
2450.017	0.878	incorrect	incongruent	Block3	incongruent/STIM_008.jpg
2454.611	0.783	correct	incongruent	Block3	incongruent/STIM_009.jpg
2459.14	0.5	correct	incongruent	Block3	incongruent/STIM_009.jpg
2462.383	0.804	correct	incongruent	Block3	incongruent/STIM_009.jpg
2467.054	0.572	correct	incongruent	Block3	incongruent/STIM_009.jpg
2471.652	0.43	correct	incongruent	Block3	incongruent/STIM_009.jpg
2474.235	0.432	correct	incongruent	Block3	incongruent/STIM_010.jpg
2478.301	0.84	correct	incongruent	Block3	incongruent/STIM_010.jpg
2481.422	0.572	correct	incongruent	Block3	incongruent/STIM_010.jpg
2485.099	0.492	correct	incongruent	Block3	incongruent/STIM_010.jpg
2489.267	0.628	correct	incongruent	Block3	incongruent/STIM_010.jpg
2493.258	0.901	correct	incongruent	Block3	incongruent/STIM_011.jpg
2497.224	0.789	correct	incongruent	Block3	incongruent/STIM_011.jpg
2500.252	0.581	correct	incongruent	Block3	incongruent/STIM_011.jpg
2503.374	0.442	correct	incongruent	Block3	incongruent/STIM_011.jpg
2507.048	0.511	correct	incongruent	Block3	incongruent/STIM_011.jpg
2509.987	0.875	correct	incongruent	Block3	incongruent/STIM_012.jpg
2514.12	0.52	correct	incongruent	Block3	incongruent/STIM_012.jpg
2517.73	0.474	correct	incongruent	Block3	incongruent/STIM_012.jpg
2520.992	0.463	correct	incongruent	Block3	incongruent/STIM_012.jpg
2523.837	0.551	correct	incongruent	Block3	incongruent/STIM_012.jpg
2528.187	0.546	correct	incongruent	Block3	incongruent/STIM_013.jpg
2530.936	0.655	correct	incongruent	Block3	incongruent/STIM_013.jpg
2535.659	0.755	correct	incongruent	Block3	incongruent/STIM_013.jpg
2539.288	0.714	correct	incongruent	Block3	incongruent/STIM_013.jpg
2542.44	0.685	correct	incongruent	Block3	incongruent/STIM_013.jpg
2546.249	0.622	correct	incongruent	Block3	incongruent/STIM_014.jpg
2550.833	0.534	correct	incongruent	Block3	incongruent/STIM_014.jpg
2553.921	0.53	correct	incongruent	Block3	incongruent/STIM_014.jpg
2557.281	0.8	correct	incongruent	Block3	incongruent/STIM_014.jpg
2560.433	0.745	correct	incongruent	Block3	incongruent/STIM_014.jpg
2564.684	0.594	correct	incongruent	Block3	incongruent/STIM_015.jpg
2568.721	0.702	correct	incongruent	Block3	incongruent/STIM_015.jpg
2572.17	0.819	correct	incongruent	Block3	incongruent/STIM_015.jpg
2575.175	0.436	correct	incongruent	Block3	incongruent/STIM_015.jpg
2579.435	0.896	correct	incongruent	Block3	incongruent/STIM_015.jpg
2584.017	0.64	correct	incongruent	Block3	incongruent/STIM_016.jpg
2588.166	0.916	correct	incongruent	Block3	incongruent/STIM_016.jpg
2592.842	0.438	correct	incongruent	Block3	incongruent/STIM_016.jpg
2595.776	0.544	correct	incongruent	Block3	incongruent/STIM_016.jpg
2599.13	0.753	correct	incongruent	Block3	incongruent/STIM_016.jpg
2603.227	0.686	correct	incongruent	Block3	incongruent/STIM_017.jpg
2607.768	0.474	correct	incongruent	Block3	incongruent/STIM_017.jpg
2612.27	0.821	correct	incongruent	Block3	incongruent/STIM_017.jpg
2616.353	0.73	correct	incongruent	Block3	incongruent/STIM_017.jpg
2620.172	0.855	correct	incongruent	Block3	incongruent/STIM_017.jpg
2623.45	0.537	correct	incongruent	Block3	incongruent/STIM_018.jpg
2627.549	0.575	correct	incongruent	Block3	incongruent/STIM_018.jpg
2631.645	0.638	correct	incongruent	Block3	incongruent/STIM_018.jpg
2636.301	0.724	correct	incongruent	Block3	incongruent/STIM_018.jpg
2640.92	0.677	correct	incongruent	Block3	incongruent/STIM_018.jpg
2644.36	0.526	correct	incongruent	Block3	incongruent/STIM_019.jpg
2648.901	0.52	correct	incongruent	Block3	incongruent/STIM_019.jpg
2652.449	0.753	correct	incongruent	Block3	incongruent/STIM_019.jpg
2656.204	0.771	incorrect	incongruent	Block3	incongruent/STIM_019.jpg
2659.714	0.444	correct	incongruent	Block3	incongruent/STIM_019.jpg
2662.235	0.53	correct	incongruent	Block3	incongruent/STIM_020.jpg
2665.385	0.485	correct	incongruent	Block3	incongruent/STIM_020.jpg
2669.021	0.598	correct	incongruent	Block3	incongruent/STIM_020.jpg
2672.749	0.514	correct	incongruent	Block3	incongruent/STIM_020.jpg
2675.364	0.657	correct	incongruent	Block3	incongruent/STIM_020.jpg
2679.23	0.885	correct	incongruent	Block3	incongruent/STIM_021.jpg
2682.813	0.648	correct	incongruent	Block3	incongruent/STIM_021.jpg
2685.823	0.807	correct	incongruent	Block3	incongruent/STIM_021.jpg
2689.773	0.861	correct	incongruent	Block3	incongruent/STIM_021.jpg
2694.173	0.517	correct	incongruent	Block3	incongruent/STIM_021.jpg
2698.186	0.664	correct	incongruent	Block3	incongruent/STIM_022.jpg
2702.471	0.715	correct	incongruent	Block3	incongruent/STIM_022.jpg
2707.283	0.512	correct	incongruent	Block3	incongruent/STIM_022.jpg
2711.67	0.663	correct	incongruent	Block3	incongruent/STIM_022.jpg
2715.217	0.693	correct	incongruent	Block3	incongruent/STIM_022.jpg
2718.807	0.892	correct	incongruent	Block3	incongruent/STIM_023.jpg
2723.032	0.51	correct	incongruent	Block3	incongruent/STIM_023.jpg
2726.765	0.75	correct	incongruent	Block3	incongruent/STIM_023.jpg
2731.057	0.779	correct	incongruent	Block3	incongruent/STIM_023.jpg
2735.042	0.771	correct	incongruent	Block3	incongruent/STIM_023.jpg
2738.785	0.791	correct	incongruent	Block3	incongruent/STIM_024.jpg
2741.739	0.755	correct	incongruent	Block3	incongruent/STIM_024.jpg
2745.855	0.561	correct	incongruent	Block3	incongruent/STIM_024.jpg
2749.538	0.539	correct	incongruent	Block3	incongruent/STIM_024.jpg
2752.879	0.735	correct	incongruent	Block3	incongruent/STIM_024.jpg
2756.213	0.876	correct	incongruent	Block3	incongruent/STIM_025.jpg
2759.663	0.85	correct	incongruent	Block3	incongruent/STIM_025.jpg
2762.823	0.914	correct	incongruent	Block3	incongruent/STIM_025.jpg
2766.775	0.714	correct	incongruent	Block3	incongruent/STIM_025.jpg
2770.222	0.566	correct	incongruent	Block3	incongruent/STIM_025.jpg
2773.723	0.725	correct	incongruent	Block3	incongruent/STIM_026.jpg
2776.883	0.804	correct	incongruent	Block3	incongruent/STIM_026.jpg
2781.432	0.728	correct	incongruent	Block3	incongruent/STIM_026.jpg
2785.866	0.683	correct	incongruent	Block3	incongruent/STIM_026.jpg
2790.134	0.542	correct	incongruent	Block3	incongruent/STIM_026.jpg
2792.8	0.708	correct	incongruent	Block3	incongruent/STIM_027.jpg
2797.305	0.541	correct	incongruent	Block3	incongruent/STIM_027.jpg
2801.251	0.913	correct	incongruent	Block3	incongruent/STIM_027.jpg
2806.157	0.572	correct	incongruent	Block3	incongruent/STIM_027.jpg
2810.506	0.804	correct	incongruent	Block3	incongruent/STIM_027.jpg
2814.126	0.732	correct	incongruent	Block3	incongruent/STIM_028.jpg
2817.921	0.584	correct	incongruent	Block3	incongruent/STIM_028.jpg
2822.078	0.595	correct	incongruent	Block3	incongruent/STIM_028.jpg
2825.237	0.674	correct	incongruent	Block3	incongruent/STIM_028.jpg
2828.524	0.669	correct	incongruent	Block3	incongruent/STIM_028.jpg
2831.774	0.497	correct	incongruent	Block3	incongruent/STIM_029.jpg
2835.4	0.674	correct	incongruent	Block3	incongruent/STIM_029.jpg
2839.157	0.748	correct	incongruent	Block3	incongruent/STIM_029.jpg
2842.386	0.464	correct	incongruent	Block3	incongruent/STIM_029.jpg
2845.061	0.796	correct	incongruent	Block3	incongruent/STIM_029.jpg
2848.362	0.59	correct	congruent	Block3	congruent/STIM_000.jpg
2852.295	0.652	correct	congruent	Block3	congruent/STIM_000.jpg
2855.088	0.55	correct	congruent	Block3	congruent/STIM_000.jpg
2859.589	0.479	correct	congruent	Block3	congruent/STIM_000.jpg
2863.931	0.494	correct	congruent	Block3	congruent/STIM_000.jpg
2867.691	0.56	correct	congruent	Block3	congruent/STIM_001.jpg
2871.71	0.577	correct	congruent	Block3	congruent/STIM_001.jpg
2875.202	0.677	correct	congruent	Block3	congruent/STIM_001.jpg
2879.862	0.481	correct	congruent	Block3	congruent/STIM_001.jpg
2884.389	0.612	correct	congruent	Block3	congruent/STIM_001.jpg
2887.225	0.669	correct	congruent	Block3	congruent/STIM_002.jpg
2890.572	0.487	correct	congruent	Block3	congruent/STIM_002.jpg
2894.735	0.644	correct	congruent	Block3	congruent/STIM_002.jpg
2898.416	0.488	correct	congruent	Block3	congruent/STIM_002.jpg
2901.996	0.542	correct	congruent	Block3	congruent/STIM_002.jpg
2906.058	0.675	correct	congruent	Block3	congruent/STIM_003.jpg
2910.437	0.575	correct	congruent	Block3	congruent/STIM_003.jpg
2913.499	0.64	correct	congruent	Block3	congruent/STIM_003.jpg
2918.225	0.6	correct	congruent	Block3	congruent/STIM_003.jpg
2921.193	0.751	correct	congruent	Block3	congruent/STIM_003.jpg
2924.784	0.772	correct	congruent	Block3	congruent/STIM_004.jpg
2928.544	0.698	correct	congruent	Block3	congruent/STIM_004.jpg
2932.086	0.455	correct	congruent	Block3	congruent/STIM_004.jpg
2935.633	0.773	correct	congruent	Block3	congruent/STIM_004.jpg
2940.506	0.646	correct	congruent	Block3	congruent/STIM_004.jpg
2944.361	0.704	correct	congruent	Block3	congruent/STIM_005.jpg
2947.193	0.45	correct	congruent	Block3	congruent/STIM_005.jpg
2951.147	0.753	correct	congruent	Block3	congruent/STIM_005.jpg
2955.817	0.501	correct	congruent	Block3	congruent/STIM_005.jpg
2959.671	0.655	correct	congruent	Block3	congruent/STIM_005.jpg
2964.407	0.449	correct	congruent	Block3	congruent/STIM_006.jpg
2968.057	0.726	correct	congruent	Block3	congruent/STIM_006.jpg
2972.457	0.5	correct	congruent	Block3	congruent/STIM_006.jpg
2976.474	0.775	correct	congruent	Block3	congruent/STIM_006.jpg
2981.333	0.704	correct	congruent	Block3	congruent/STIM_006.jpg
2985.315	0.53	correct	congruent	Block3	congruent/STIM_007.jpg
2988.139	0.551	correct	congruent	Block3	congruent/STIM_007.jpg
2991.639	0.477	correct	congruent	Block3	congruent/STIM_007.jpg
2994.264	0.778	correct	congruent	Block3	congruent/STIM_007.jpg
2997.35	0.465	correct	congruent	Block3	congruent/STIM_007.jpg
3000.779	0.472	correct	congruent	Block3	congruent/STIM_008.jpg
3005.087	0.471	correct	congruent	Block3	congruent/STIM_008.jpg
3008.06	0.589	incorrect	congruent	Block3	congruent/STIM_008.jpg
3012.386	0.747	correct	congruent	Block3	congruent/STIM_008.jpg
3016.064	0.51	correct	congruent	Block3	congruent/STIM_008.jpg
3018.646	0.78	correct	congruent	Block3	congruent/STIM_009.jpg
3021.604	0.573	correct	congruent	Block3	congruent/STIM_009.jpg
3025.502	0.674	incorrect	congruent	Block3	congruent/STIM_009.jpg
3030.189	0.483	correct	congruent	Block3	congruent/STIM_009.jpg
3034.311	0.636	correct	congruent	Block3	congruent/STIM_009.jpg
3037.711	0.552	correct	congruent	Block3	congruent/STIM_010.jpg
3041.115	0.577	correct	congruent	Block3	congruent/STIM_010.jpg
3045.771	0.658	correct	congruent	Block3	congruent/STIM_010.jpg
3049.183	0.536	correct	congruent	Block3	congruent/STIM_010.jpg
3053.559	0.459	correct	congruent	Block3	congruent/STIM_010.jpg
3057.136	0.784	correct	congruent	Block3	congruent/STIM_011.jpg
3060.998	0.667	correct	congruent	Block3	congruent/STIM_011.jpg
3065.049	0.559	incorrect	congruent	Block3	congruent/STIM_011.jpg
3069.373	0.523	correct	congruent	Block3	congruent/STIM_011.jpg
3073.536	0.768	correct	congruent	Block3	congruent/STIM_011.jpg
3077.7	0.723	correct	congruent	Block3	congruent/STIM_012.jpg
3081.118	0.461	correct	congruent	Block3	congruent/STIM_012.jpg
3084.909	0.439	correct	congruent	Block3	congruent/STIM_012.jpg
3089.393	0.551	correct	congruent	Block3	congruent/STIM_012.jpg
3092.588	0.691	correct	congruent	Block3	congruent/STIM_012.jpg
3095.634	0.752	correct	congruent	Block3	congruent/STIM_013.jpg
3099.371	0.714	correct	congruent	Block3	congruent/STIM_013.jpg
3103.838	0.77	correct	congruent	Block3	congruent/STIM_013.jpg
3108.188	0.458	correct	congruent	Block3	congruent/STIM_013.jpg
3111.303	0.789	correct	congruent	Block3	congruent/STIM_013.jpg
3115.262	0.582	correct	congruent	Block3	congruent/STIM_014.jpg
3118.93	0.462	correct	congruent	Block3	congruent/STIM_014.jpg
3121.919	0.483	correct	congruent	Block3	congruent/STIM_014.jpg
3125.737	0.748	correct	congruent	Block3	congruent/STIM_014.jpg
3128.852	0.61	correct	congruent	Block3	congruent/STIM_014.jpg
3131.76	0.539	correct	congruent	Block3	congruent/STIM_015.jpg
3134.475	0.446	correct	congruent	Block3	congruent/STIM_015.jpg
3137.874	0.514	correct	congruent	Block3	congruent/STIM_015.jpg
3141.251	0.646	correct	congruent	Block3	congruent/STIM_015.jpg
3144.391	0.635	correct	congruent	Block3	congruent/STIM_015.jpg
3148.833	0.551	correct	congruent	Block3	congruent/STIM_016.jpg
3151.72	0.677	correct	congruent	Block3	congruent/STIM_016.jpg
3156.202	0.711	correct	congruent	Block3	congruent/STIM_016.jpg
3160.465	0.658	correct	congruent	Block3	congruent/STIM_016.jpg
3163.465	0.688	correct	congruent	Block3	congruent/STIM_016.jpg
3167.131	0.589	correct	congruent	Block3	congruent/STIM_017.jpg
3170.876	0.773	correct	congruent	Block3	congruent/STIM_017.jpg
3174.326	0.775	correct	congruent	Block3	congruent/STIM_017.jpg
3178.006	0.453	correct	congruent	Block3	congruent/STIM_017.jpg
3181.12	0.729	correct	congruent	Block3	congruent/STIM_017.jpg
3184.199	0.638	correct	congruent	Block3	congruent/STIM_018.jpg
3188.455	0.706	correct	congruent	Block3	congruent/STIM_018.jpg
3191.616	0.669	correct	congruent	Block3	congruent/STIM_018.jpg
3195.26	0.505	correct	congruent	Block3	congruent/STIM_018.jpg
3199.777	0.585	correct	congruent	Block3	congruent/STIM_018.jpg
3202.776	0.735	correct	congruent	Block3	congruent/STIM_019.jpg
3207.459	0.625	correct	congruent	Block3	congruent/STIM_019.jpg
3210.455	0.749	correct	congruent	Block3	congruent/STIM_019.jpg
3213.71	0.536	correct	congruent	Block3	congruent/STIM_019.jpg
3216.947	0.645	correct	congruent	Block3	congruent/STIM_019.jpg
3220.472	0.717	correct	congruent	Block3	congruent/STIM_020.jpg
3223.757	0.491	correct	congruent	Block3	congruent/STIM_020.jpg
3228.287	0.699	correct	congruent	Block3	congruent/STIM_020.jpg
3231.544	0.465	correct	congruent	Block3	congruent/STIM_020.jpg
3234.508	0.744	correct	congruent	Block3	congruent/STIM_020.jpg
3239.268	0.659	correct	congruent	Block3	congruent/STIM_021.jpg
3243.478	0.649	correct	congruent	Block3	congruent/STIM_021.jpg
3246.77	0.723	correct	congruent	Block3	congruent/STIM_021.jpg
3250.607	0.712	correct	congruent	Block3	congruent/STIM_021.jpg
3255.313	0.684	correct	congruent	Block3	congruent/STIM_021.jpg
3259.396	0.752	correct	congruent	Block3	congruent/STIM_022.jpg
3263.987	0.668	correct	congruent	Block3	congruent/STIM_022.jpg
3268.221	0.557	correct	congruent	Block3	congruent/STIM_022.jpg
3272.543	0.479	correct	congruent	Block3	congruent/STIM_022.jpg
3275.433	0.621	correct	congruent	Block3	congruent/STIM_022.jpg
3278.296	0.649	correct	congruent	Block3	congruent/STIM_023.jpg
3282.94	0.756	correct	congruent	Block3	congruent/STIM_023.jpg
3286.07	0.514	correct	congruent	Block3	congruent/STIM_023.jpg
3290.227	0.656	correct	congruent	Block3	congruent/STIM_023.jpg
3293.733	0.551	correct	congruent	Block3	congruent/STIM_023.jpg
3297.506	0.554	correct	congruent	Block3	congruent/STIM_024.jpg
3302.004	0.656	correct	congruent	Block3	congruent/STIM_024.jpg
3305.218	0.563	correct	congruent	Block3	congruent/STIM_024.jpg
3308.062	0.665	correct	congruent	Block3	congruent/STIM_024.jpg
3311.792	0.644	correct	congruent	Block3	congruent/STIM_024.jpg
3315.575	0.588	incorrect	congruent	Block3	congruent/STIM_025.jpg
3320.218	0.541	correct	congruent	Block3	congruent/STIM_025.jpg
3324.235	0.614	correct	congruent	Block3	congruent/STIM_025.jpg
3327.734	0.786	correct	congruent	Block3	congruent/STIM_025.jpg
3331.24	0.537	correct	congruent	Block3	congruent/STIM_025.jpg
3333.985	0.541	correct	congruent	Block3	congruent/STIM_026.jpg
3337.231	0.612	incorrect	congruent	Block3	congruent/STIM_026.jpg
3341.129	0.694	correct	congruent	Block3	congruent/STIM_026.jpg
3344.338	0.558	correct	congruent	Block3	congruent/STIM_026.jpg
3347.685	0.559	correct	congruent	Block3	congruent/STIM_026.jpg
3351.928	0.773	correct	congruent	Block3	congruent/STIM_027.jpg
3356.451	0.753	correct	congruent	Block3	congruent/STIM_027.jpg
3360.513	0.457	correct	congruent	Block3	congruent/STIM_027.jpg
3364.959	0.521	correct	congruent	Block3	congruent/STIM_027.jpg
3368.513	0.512	correct	congruent	Block3	congruent/STIM_027.jpg
3372.484	0.779	correct	congruent	Block3	congruent/STIM_028.jpg
3376.597	0.725	correct	congruent	Block3	congruent/STIM_028.jpg
3380.455	0.496	correct	congruent	Block3	congruent/STIM_028.jpg
3384.372	0.551	correct	congruent	Block3	congruent/STIM_028.jpg
3388.788	0.666	incorrect	congruent	Block3	congruent/STIM_028.jpg
3393.477	0.531	correct	congruent	Block3	congruent/STIM_029.jpg
3397.664	0.659	correct	congruent	Block3	congruent/STIM_029.jpg
3402.103	0.768	correct	congruent	Block3	congruent/STIM_029.jpg
3405.849	0.758	correct	congruent	Block3	congruent/STIM_029.jpg
3409.287	0.483	incorrect	congruent	Block3	congruent/STIM_029.jpg
