onset	duration	response_time_ms	trial_type	learning_stage	stimulus	response_port
0.0	3.124	3124.5	regulate	Run1	regulate/STIM_000.jpg	100
4.839	2.42	2420.3	regulate	Run1	regulate/STIM_000.jpg	100
9.24	2.57	2569.9	regulate	Run1	regulate/STIM_000.jpg	100
14.337	1.526	1525.8	regulate	Run1	regulate/STIM_000.jpg	100
19.282	3.668	3668.2	regulate	Run1	regulate/STIM_001.jpg	99
25.683	2.524	2523.6	regulate	Run1	regulate/STIM_001.jpg	99
30.807	2.566	2565.8	regulate	Run1	regulate/STIM_001.jpg	99
35.992	3.045	3044.9	regulate	Run1	regulate/STIM_001.jpg	100
42.332	3.303	3303.4	regulate	Run1	regulate/STIM_002.jpg	100
47.918	3.255	3255.3	regulate	Run1	regulate/STIM_002.jpg	99
53.579	2.461	2460.8	regulate	Run1	regulate/STIM_002.jpg	99
59.473	2.314	2314.0	regulate	Run1	regulate/STIM_002.jpg	99
64.081	2.962	2962.4	regulate	Run1	regulate/STIM_003.jpg	99
70.532	2.181	2180.9	regulate	Run1	regulate/STIM_003.jpg	100
74.998	2.695	2695.2	regulate	Run1	regulate/STIM_003.jpg	100
80.788	1.853	1853.0	regulate	Run1	regulate/STIM_003.jpg	100
86.301	2.758	2757.9	regulate	Run1	regulate/STIM_004.jpg	100
91.679	3.312	3312.3	regulate	Run1	regulate/STIM_004.jpg	100
98.254	2.242	2242.0	regulate	Run1	regulate/STIM_004.jpg	100
103.109	3.242	3242.0	regulate	Run1	regulate/STIM_004.jpg	99
109.786	3.792	3792.4	regulate	Run1	regulate/STIM_005.jpg	100
116.97	3.364	3363.5	regulate	Run1	regulate/STIM_005.jpg	99
123.794	2.535	2534.8	regulate	Run1	regulate/STIM_005.jpg	100
128.534	3.41	3410.1	regulate	Run1	regulate/STIM_005.jpg	99
133.706	2.674	2673.7	regulate	Run1	regulate/STIM_006.jpg	100
139.619	2.436	2435.8	regulate	Run1	regulate/STIM_006.jpg	99
145.033	2.849	2849.2	regulate	Run1	regulate/STIM_006.jpg	99
150.266	1.512	1511.5	regulate	Run1	regulate/STIM_006.jpg	100
154.762	3.539	3538.8	regulate	Run1	regulate/STIM_007.jpg	99
160.102	2.495	2495.4	regulate	Run1	regulate/STIM_007.jpg	99
165.671	3.339	3339.1	regulate	Run1	regulate/STIM_007.jpg	99
172.347	1.658	1657.7	regulate	Run1	regulate/STIM_007.jpg	99
176.015	2.7	2699.7	regulate	Run1	regulate/STIM_008.jpg	99
181.051	1.839	1839.4	regulate	Run1	regulate/STIM_008.jpg	99
185.51	1.611	1610.7	regulate	Run1	regulate/STIM_008.jpg	99
189.772	3.151	3151.4	regulate	Run1	regulate/STIM_008.jpg	99
195.49	2.16	2159.5	regulate	Run1	regulate/STIM_009.jpg	99
201.329	3.699	3698.9	regulate	Run1	regulate/STIM_009.jpg	100
207.197	2.655	2654.9	regulate	Run1	regulate/STIM_009.jpg	99
211.693	2.347	2347.4	regulate	Run1	regulate/STIM_009.jpg	99
216.462	3.153	3153.0	regulate	Run1	regulate/STIM_010.jpg	99
222.443	2.049	2048.7	regulate	Run1	regulate/STIM_010.jpg	100
227.125	1.649	1648.9	regulate	Run1	regulate/STIM_010.jpg	100
231.604	2.299	2299.3	regulate	Run1	regulate/STIM_010.jpg	99
237.508	3.752	3751.5	regulate	Run1	regulate/STIM_011.jpg	99
243.769	2.801	2801.2	regulate	Run1	regulate/STIM_011.jpg	100
248.939	3.444	3443.8	regulate	Run1	regulate/STIM_011.jpg	100
255.251	1.867	1867.1	regulate	Run1	regulate/STIM_011.jpg	100
259.69	1.737	1736.7	regulate	Run1	regulate/STIM_012.jpg	100
265.094	1.758	1758.3	regulate	Run1	regulate/STIM_012.jpg	100
270.291	2.496	2495.7	regulate	Run1	regulate/STIM_012.jpg	100
275.432	2.301	2301.1	regulate	Run1	regulate/STIM_012.jpg	99
280.709	2.911	2910.6	regulate	Run1	regulate/STIM_013.jpg	100
286.233	2.715	2714.7	regulate	Run1	regulate/STIM_013.jpg	100
290.856	3.298	3298.2	regulate	Run1	regulate/STIM_013.jpg	100
296.862	2.586	2585.8	regulate	Run1	regulate/STIM_013.jpg	99
302.282	3.85	3849.8	regulate	Run1	regulate/STIM_014.jpg	100
307.756	3.108	3107.5	regulate	Run1	regulate/STIM_014.jpg	99
314.132	1.792	1791.7	regulate	Run1	regulate/STIM_014.jpg	99
319.206	1.876	1876.5	regulate	Run1	regulate/STIM_014.jpg	100
323.369	3.791	3791.3	regulate	Run1	regulate/STIM_015.jpg	100
330.731	3.646	3646.1	regulate	Run1	regulate/STIM_015.jpg	100
336.439	2.38	2380.2	regulate	Run1	regulate/STIM_015.jpg	99
342.147	2.8	2799.7	regulate	Run1	regulate/STIM_015.jpg	100
346.996	3.352	3351.5	regulate	Run1	regulate/STIM_016.jpg	99
353.536	2.815	2815.0	regulate	Run1	regulate/STIM_016.jpg	99
358.783	3.482	3481.9	regulate	Run1	regulate/STIM_016.jpg	100
364.834	1.86	1860.0	regulate	Run1	regulate/STIM_016.jpg	99
369.469	2.309	2309.1	regulate	Run1	regulate/STIM_017.jpg	100
374.177	3.286	3286.0	regulate	Run1	regulate/STIM_017.jpg	100
380.073	2.771	2771.3	regulate	Run1	regulate/STIM_017.jpg	99
385.148	2.279	2279.1	regulate	Run1	regulate/STIM_017.jpg	99
389.638	3.592	3591.9	regulate	Run1	regulate/STIM_018.jpg	100
395.072	2.763	2762.6	regulate	Run1	regulate/STIM_018.jpg	100
400.555	1.828	1828.2	regulate	Run1	regulate/STIM_018.jpg	99
405.527	3.007	3007.2	regulate	Run1	regulate/STIM_018.jpg	100
411.465	2.165	2165.4	regulate	Run1	regulate/STIM_019.jpg	100
416.376	1.875	1875.3	regulate	Run1	regulate/STIM_019.jpg	100
421.466	3.485	3485.0	regulate	Run1	regulate/STIM_019.jpg	100
426.834	2.074	2073.5	regulate	Run1	regulate/STIM_019.jpg	99
432.542	3.392	3392.3	regulate	Run1	regulate/STIM_020.jpg	100
438.141	1.912	1912.5	regulate	Run1	regulate/STIM_020.jpg	100
443.6	1.872	1871.6	regulate	Run1	regulate/STIM_020.jpg	100
448.274	2.822	2822.5	regulate	Run1	regulate/STIM_020.jpg	99
454.034	3.622	3622.1	regulate	Run1	regulate/STIM_021.jpg	99
460.42	3.395	3394.6	regulate	Run1	regulate/STIM_021.jpg	99
467.156	2.552	2552.5	regulate	Run1	regulate/STIM_021.jpg	99
471.779	2.014	2013.9	regulate	Run1	regulate/STIM_021.jpg	99
476.227	3.404	3404.2	regulate	Run1	regulate/STIM_022.jpg	99
481.923	2.337	2337.0	regulate	Run1	regulate/STIM_022.jpg	100
487.436	1.68	1680.1	regulate	Run1	regulate/STIM_022.jpg	100
491.553	3.188	3188.3	regulate	Run1	regulate/STIM_022.jpg	100
496.708	3.49	3490.2	regulate	Run1	regulate/STIM_023.jpg	100
503.278	3.356	3356.2	regulate	Run1	regulate/STIM_023.jpg	100
509.187	1.89	1889.9	regulate	Run1	regulate/STIM_023.jpg	100
514.191	2.898	2898.3	regulate	Run1	regulate/STIM_023.jpg	99
520.693	2.395	2395.2	regulate	Run1	regulate/STIM_024.jpg	100
525.679	1.852	1851.8	regulate	Run1	regulate/STIM_024.jpg	100
530.841	1.505	1505.4	regulate	Run1	regulate/STIM_024.jpg	100
535.239	1.97	1969.8	regulate	Run1	regulate/STIM_024.jpg	99
540.49	3.843	3842.9	regulate	Run1	regulate/STIM_025.jpg	99
547.309	1.788	1787.5	regulate	Run1	regulate/STIM_025.jpg	99
551.321	2.818	2817.9	regulate	Run1	regulate/STIM_025.jpg	99
556.14	1.876	1876.4	regulate	Run1	regulate/STIM_025.jpg	99
560.51	3.508	3507.8	regulate	Run1	regulate/STIM_026.jpg	100
567.409	2.859	2859.0	regulate	Run1	regulate/STIM_026.jpg	100
573.257	2.453	2453.3	regulate	Run1	regulate/STIM_026.jpg	99
577.911	1.869	1869.0	regulate	Run1	regulate/STIM_026.jpg	100
582.178	2.041	2040.8	regulate	Run1	regulate/STIM_027.jpg	99
587.756	3.179	3179.2	regulate	Run1	regulate/STIM_027.jpg	99
592.677	3.368	3368.0	regulate	Run1	regulate/STIM_027.jpg	99
599.244	1.764	1764.5	regulate	Run1	regulate/STIM_027.jpg	99
603.498	3.672	3672.2	regulate	Run1	regulate/STIM_028.jpg	99
609.92	2.302	2302.1	regulate	Run1	regulate/STIM_028.jpg	99
615.234	3.404	3404.3	regulate	Run1	regulate/STIM_028.jpg	100
621.505	1.465	1465.0	regulate	Run1	regulate/STIM_028.jpg	100
626.583	3.577	3576.8	regulate	Run1	regulate/STIM_029.jpg	100
633.455	3.548	3548.1	regulate	Run1	regulate/STIM_029.jpg	99
639.586	1.91	1910.2	regulate	Run1	regulate/STIM_029.jpg	99
645.163	2.182	2181.9	regulate	Run1	regulate/STIM_029.jpg	100
649.807	0.957	956.6	observe	Run1	observe/STIM_000.jpg	100
654.572	1.019	1018.6	observe	Run1	observe/STIM_000.jpg	99
658.723	0.933	932.7	observe	Run1	observe/STIM_000.jpg	100
662.97	1.312	1311.5	observe	Run1	observe/STIM_000.jpg	100
666.769	1.609	1609.2	observe	Run1	observe/STIM_001.jpg	99
670.803	1.355	1354.8	observe	Run1	observe/STIM_001.jpg	99
674.702	1.063	1063.3	observe	Run1	observe/STIM_001.jpg	100
677.922	1.602	1602.5	observe	Run1	observe/STIM_001.jpg	100
682.327	1.416	1415.7	observe	Run1	observe/STIM_002.jpg	100
686.677	1.567	1566.9	observe	Run1	observe/STIM_002.jpg	100
691.415	1.1	1099.5	observe	Run1	observe/STIM_002.jpg	100
695.34	1.026	1026.1	observe	Run1	observe/STIM_002.jpg	100
698.837	1.326	1326.4	observe	Run1	observe/STIM_003.jpg	100
702.758	1.368	1368.5	observe	Run1	observe/STIM_003.jpg	100
706.146	1.553	1552.8	observe	Run1	observe/STIM_003.jpg	100
710.273	1.534	1534.2	observe	Run1	observe/STIM_003.jpg	99
714.982	1.108	1107.5	observe	Run1	observe/STIM_004.jpg	100
719.924	1.605	1605.4	observe	Run1	observe/STIM_004.jpg	100
723.682	1.129	1129.0	observe	Run1	observe/STIM_004.jpg	99
727.269	0.991	991.2	observe	Run1	observe/STIM_004.jpg	100
731.516	1.241	1241.4	observe	Run1	observe/STIM_005.jpg	100
736.277	1.592	1591.7	observe	Run1	observe/STIM_005.jpg	99
741.444	1.534	1534.0	observe	Run1	observe/STIM_005.jpg	99
745.63	0.953	952.8	observe	Run1	observe/STIM_005.jpg	100
748.755	1.508	1508.3	observe	Run1	observe/STIM_006.jpg	100
753.738	1.368	1368.1	observe	Run1	observe/STIM_006.jpg	99
756.941	1.175	1174.9	observe	Run1	observe/STIM_006.jpg	99
761.047	1.555	1554.8	observe	Run1	observe/STIM_006.jpg	100
766.404	1.089	1089.4	observe	Run1	observe/STIM_007.jpg	99
770.257	1.385	1385.2	observe	Run1	observe/STIM_007.jpg	99
773.547	1.623	1623.4	observe	Run1	observe/STIM_007.jpg	100
777.303	1.698	1697.5	observe	Run1	observe/STIM_007.jpg	100
782.514	1.106	1106.3	observe	Run1	observe/STIM_008.jpg	100
785.951	1.222	1222.0	observe	Run1	observe/STIM_008.jpg	100
790.083	0.959	958.9	observe	Run1	observe/STIM_008.jpg	100
794.438	1.56	1559.7	observe	Run1	observe/STIM_008.jpg	99
797.868	1.118	1118.2	observe	Run1	observe/STIM_009.jpg	99
801.45	1.425	1424.9	observe	Run1	observe/STIM_009.jpg	100
805.275	1.443	1442.6	observe	Run1	observe/STIM_009.jpg	100
809.656	1.556	1555.5	observe	Run1	observe/STIM_009.jpg	99
814.89	1.571	1570.8	observe	Run1	observe/STIM_010.jpg	100
819.28	1.677	1677.1	observe	Run1	observe/STIM_010.jpg	100
823.436	1.034	1034.5	observe	Run1	observe/STIM_010.jpg	100
826.888	1.402	1401.9	observe	Run1	observe/STIM_010.jpg	99
830.9	1.662	1661.7	observe	Run1	observe/STIM_011.jpg	99
834.437	1.837	1836.7	observe	Run1	observe/STIM_011.jpg	99
838.926	0.9	899.9	observe	Run1	observe/STIM_011.jpg	100
842.609	1.773	1773.1	observe	Run1	observe/STIM_011.jpg	100
848.099	1.668	1667.7	observe	Run1	observe/STIM_012.jpg	99
852.226	1.176	1175.5	observe	Run1	observe/STIM_012.jpg	100
855.969	1.554	1553.8	observe	Run1	observe/STIM_012.jpg	100
860.792	1.534	1533.6	observe	Run1	observe/STIM_012.jpg	100
866.076	1.669	1668.9	observe	Run1	observe/STIM_013.jpg	99
870.599	1.032	1031.5	observe	Run1	observe/STIM_013.jpg	99
874.236	1.42	1420.2	observe	Run1	observe/STIM_013.jpg	99
878.072	1.634	1634.4	observe	Run1	observe/STIM_013.jpg	100
882.175	1.108	1107.9	observe	Run1	observe/STIM_014.jpg	99
885.5	1.334	1334.3	observe	Run1	observe/STIM_014.jpg	99
889.584	1.354	1354.4	observe	Run1	observe/STIM_014.jpg	99
894.149	1.712	1712.3	observe	Run1	observe/STIM_014.jpg	100
898.226	1.772	1772.4	observe	Run1	observe/STIM_015.jpg	99
901.97	1.693	1693.3	observe	Run1	observe/STIM_015.jpg	99
906.697	1.032	1032.0	observe	Run1	observe/STIM_015.jpg	99
910.635	1.059	1058.9	observe	Run1	observe/STIM_015.jpg	99
914.737	1.482	1481.8	observe	Run1	observe/STIM_016.jpg	100
919.708	1.454	1453.7	observe	Run1	observe/STIM_016.jpg	99
924.651	1.686	1686.4	observe	Run1	observe/STIM_016.jpg	100
929.521	1.574	1574.5	observe	Run1	observe/STIM_016.jpg	100
934.221	1.112	1111.9	observe	Run1	observe/STIM_017.jpg	100
937.37	1.525	1524.8	observe	Run1	observe/STIM_017.jpg	99
942.688	1.089	1089.1	observe	Run1	observe/STIM_017.jpg	99
947.456	1.706	1705.6	observe	Run1	observe/STIM_017.jpg	99
951.794	1.655	1654.6	observe	Run1	observe/STIM_018.jpg	99
956.016	1.266	1265.5	observe	Run1	observe/STIM_018.jpg	100
959.587	1.634	1634.3	observe	Run1	observe/STIM_018.jpg	100
964.679	1.593	1593.1	observe	Run1	observe/STIM_018.jpg	99
969.19	1.604	1603.8	observe	Run1	observe/STIM_019.jpg	99
973.628	1.405	1405.2	observe	Run1	observe/STIM_019.jpg	99
977.471	1.143	1143.3	observe	Run1	observe/STIM_019.jpg	100
981.086	1.382	1382.3	observe	Run1	observe/STIM_019.jpg	100
985.088	2.803	2803.1	regulate	Run2	regulate/STIM_000.jpg	99
989.684	1.706	1706.3	regulate	Run2	regulate/STIM_000.jpg	100
993.281	2.718	2717.8	regulate	Run2	regulate/STIM_000.jpg	100
998.357	1.648	1648.2	regulate	Run2	regulate/STIM_000.jpg	99
1002.797	2.185	2184.8	regulate	Run2	regulate/STIM_001.jpg	100
1008.199	2.269	2269.4	regulate	Run2	regulate/STIM_001.jpg	100
1013.648	2.184	2183.7	regulate	Run2	regulate/STIM_001.jpg	100
1019.299	2.195	2195.3	regulate	Run2	regulate/STIM_001.jpg	100
1023.58	2.102	2102.3	regulate	Run2	regulate/STIM_002.jpg	100
1029.026	1.848	1848.2	regulate	Run2	regulate/STIM_002.jpg	99
1033.359	2.648	2648.0	regulate	Run2	regulate/STIM_002.jpg	99
1039.169	1.855	1855.2	regulate	Run2	regulate/STIM_002.jpg	100
1042.973	2.594	2593.5	regulate	Run2	regulate/STIM_003.jpg	100
1048.86	2.881	2880.7	regulate	Run2	regulate/STIM_003.jpg	100
1054.335	1.52	1520.4	regulate	Run2	regulate/STIM_003.jpg	100
1059.06	1.798	1797.9	regulate	Run2	regulate/STIM_003.jpg	100
1064.666	2.894	2893.8	regulate	Run2	regulate/STIM_004.jpg	100
1069.311	1.583	1583.2	regulate	Run2	regulate/STIM_004.jpg	100
1074.225	1.658	1658.1	regulate	Run2	regulate/STIM_004.jpg	99
1077.784	2.307	2307.0	regulate	Run2	regulate/STIM_004.jpg	99
1083.428	2.07	2069.8	regulate	Run2	regulate/STIM_005.jpg	99
1087.886	2.183	2182.8	regulate	Run2	regulate/STIM_005.jpg	100
1092.59	1.238	1238.5	regulate	Run2	regulate/STIM_005.jpg	100
1097.566	1.603	1602.8	regulate	Run2	regulate/STIM_005.jpg	100
1101.438	3.13	3129.8	regulate	Run2	regulate/STIM_006.jpg	99
1108.123	2.849	2848.6	regulate	Run2	regulate/STIM_006.jpg	99
1113.874	1.636	1635.8	regulate	Run2	regulate/STIM_006.jpg	100
1118.174	2.113	2112.9	regulate	Run2	regulate/STIM_006.jpg	100
1122.32	2.331	2330.9	regulate	Run2	regulate/STIM_007.jpg	99
1127.928	1.347	1346.7	regulate	Run2	regulate/STIM_007.jpg	100
1131.997	1.934	1933.7	regulate	Run2	regulate/STIM_007.jpg	100
1135.793	1.508	1507.6	regulate	Run2	regulate/STIM_007.jpg	100
1140.36	2.563	2562.8	regulate	Run2	regulate/STIM_008.jpg	100
1146.005	3.154	3154.5	regulate	Run2	regulate/STIM_008.jpg	100
1152.356	1.894	1894.3	regulate	Run2	regulate/STIM_008.jpg	99
1156.52	2.323	2323.0	regulate	Run2	regulate/STIM_008.jpg	100
1161.124	2.132	2131.8	regulate	Run2	regulate/STIM_009.jpg	99
1166.392	2.449	2449.0	regulate	Run2	regulate/STIM_009.jpg	99
1171.972	2.517	2517.2	regulate	Run2	regulate/STIM_009.jpg	99
1176.579	1.434	1434.5	regulate	Run2	regulate/STIM_009.jpg	99
1180.26	2.334	2334.4	regulate	Run2	regulate/STIM_010.jpg	99
1184.552	1.283	1283.1	regulate	Run2	regulate/STIM_010.jpg	100
1188.786	2.576	2576.1	regulate	Run2	regulate/STIM_010.jpg	99
1194.241	2.142	2142.4	regulate	Run2	regulate/STIM_010.jpg	100
1198.57	1.543	1543.2	regulate	Run2	regulate/STIM_011.jpg	100
1203.182	2.287	2286.7	regulate	Run2	regulate/STIM_011.jpg	100
1208.472	2.001	2000.9	regulate	Run2	regulate/STIM_011.jpg	100
1212.41	1.282	1282.4	regulate	Run2	regulate/STIM_011.jpg	100
1216.466	2.984	2983.8	regulate	Run2	regulate/STIM_012.jpg	100
1222.673	2.743	2742.7	regulate	Run2	regulate/STIM_012.jpg	100
1228.781	2.948	2948.1	regulate	Run2	regulate/STIM_012.jpg	100
1233.771	2.597	2596.6	regulate	Run2	regulate/STIM_012.jpg	100
1238.545	1.5	1499.6	regulate	Run2	regulate/STIM_013.jpg	100
1242.877	1.336	1336.4	regulate	Run2	regulate/STIM_013.jpg	100
1247.162	1.631	1630.6	regulate	Run2	regulate/STIM_013.jpg	99
1250.663	1.986	1985.8	regulate	Run2	regulate/STIM_013.jpg	99
1254.884	1.936	1935.9	regulate	Run2	regulate/STIM_014.jpg	100
1258.641	3.113	3112.7	regulate	Run2	regulate/STIM_014.jpg	100
1265.05	2.801	2800.8	regulate	Run2	regulate/STIM_014.jpg	99
1270.265	1.392	1392.1	regulate	Run2	regulate/STIM_014.jpg	100
1274.779	2.919	2919.3	regulate	Run2	regulate/STIM_015.jpg	99
1281.196	2.535	2535.3	regulate	Run2	regulate/STIM_015.jpg	100
1286.472	2.769	2769.1	regulate	Run2	regulate/STIM_015.jpg	99
1291.939	2.585	2585.3	regulate	Run2	regulate/STIM_015.jpg	100
1296.777	3.257	3256.6	regulate	Run2	regulate/STIM_016.jpg	99
1303.34	1.498	1498.5	regulate	Run2	regulate/STIM_016.jpg	99
1307.617	1.315	1314.9	regulate	Run2	regulate/STIM_016.jpg	99
1312.355	2.186	2186.2	regulate	Run2	regulate/STIM_016.jpg	100
1316.837	1.584	1583.8	regulate	Run2	regulate/STIM_017.jpg	100
1321.304	2.242	2241.6	regulate	Run2	regulate/STIM_017.jpg	99
1325.878	2.306	2306.1	regulate	Run2	regulate/STIM_017.jpg	100
1331.81	1.942	1942.3	regulate	Run2	regulate/STIM_017.jpg	99
1336.988	1.6	1599.7	regulate	Run2	regulate/STIM_018.jpg	100
1341.759	1.545	1545.0	regulate	Run2	regulate/STIM_018.jpg	100
1346.294	2.608	2608.5	regulate	Run2	regulate/STIM_018.jpg	100
1352.261	1.278	1277.7	regulate	Run2	regulate/STIM_018.jpg	100
1355.88	2.746	2745.9	regulate	Run2	regulate/STIM_019.jpg	99
1360.763	1.895	1895.1	regulate	Run2	regulate/STIM_019.jpg	100
1366.475	1.577	1576.8	regulate	Run2	regulate/STIM_019.jpg	100
1371.076	1.665	1665.3	regulate	Run2	regulate/STIM_019.jpg	99
1375.27	2.79	2790.2	regulate	Run2	regulate/STIM_020.jpg	99
1381.841	1.538	1537.5	regulate	Run2	regulate/STIM_020.jpg	99
1387.158	1.475	1475.0	regulate	Run2	regulate/STIM_020.jpg	100
1390.929	1.239	1238.8	regulate	Run2	regulate/STIM_020.jpg	99
1394.887	2.826	2826.1	regulate	Run2	regulate/STIM_021.jpg	99
1400.495	3.077	3077.2	regulate	Run2	regulate/STIM_021.jpg	100
1405.719	1.99	1989.6	regulate	Run2	regulate/STIM_021.jpg	99
1410.286	2.546	2546.0	regulate	Run2	regulate/STIM_021.jpg	100
1415.846	1.581	1581.0	regulate	Run2	regulate/STIM_022.jpg	100
1419.427	2.961	2960.6	regulate	Run2	regulate/STIM_022.jpg	99
1425.043	1.474	1473.7	regulate	Run2	regulate/STIM_022.jpg	100
1428.631	2.233	2232.9	regulate	Run2	regulate/STIM_022.jpg	100
1433.824	2.702	2701.9	regulate	Run2	regulate/STIM_023.jpg	99
1439.449	2.376	2376.5	regulate	Run2	regulate/STIM_023.jpg	100
1445.112	1.913	1913.3	regulate	Run2	regulate/STIM_023.jpg	100
1450.072	1.744	1744.1	regulate	Run2	regulate/STIM_023.jpg	99
1454.438	1.635	1635.1	regulate	Run2	regulate/STIM_024.jpg	99
1459.501	1.481	1480.6	regulate	Run2	regulate/STIM_024.jpg	100
1464.79	2.454	2454.3	regulate	Run2	regulate/STIM_024.jpg	100
1469.491	2.232	2232.2	regulate	Run2	regulate/STIM_024.jpg	100
1474.613	1.851	1850.7	regulate	Run2	regulate/STIM_025.jpg	99
1479.261	2.394	2393.8	regulate	Run2	regulate/STIM_025.jpg	99
1484.717	2.498	2498.2	regulate	Run2	regulate/STIM_025.jpg	100
1489.263	2.009	2008.6	regulate	Run2	regulate/STIM_025.jpg	99
1494.564	3.239	3239.1	regulate	Run2	regulate/STIM_026.jpg	100
1499.631	2.38	2380.4	regulate	Run2	regulate/STIM_026.jpg	99
1505.254	2.458	2458.5	regulate	Run2	regulate/STIM_026.jpg	100
1510.841	2.849	2849.0	regulate	Run2	regulate/STIM_026.jpg	100
1516.717	3.204	3203.6	regulate	Run2	regulate/STIM_027.jpg	99
1521.554	2.028	2028.2	regulate	Run2	regulate/STIM_027.jpg	99
1525.99	2.297	2296.6	regulate	Run2	regulate/STIM_027.jpg	99
1531.588	2.252	2251.8	regulate	Run2	regulate/STIM_027.jpg	99
1537.362	2.648	2648.2	regulate	Run2	regulate/STIM_028.jpg	99
1542.856	2.451	2450.7	regulate	Run2	regulate/STIM_028.jpg	100
1547.56	2.882	2882.5	regulate	Run2	regulate/STIM_028.jpg	100
1553.499	2.473	2473.2	regulate	Run2	regulate/STIM_028.jpg	99
1557.853	2.671	2670.8	regulate	Run2	regulate/STIM_029.jpg	100
1562.542	2.672	2672.3	regulate	Run2	regulate/STIM_029.jpg	99
1567.415	1.918	1917.9	regulate	Run2	regulate/STIM_029.jpg	99
1571.68	1.797	1797.0	regulate	Run2	regulate/STIM_029.jpg	99
1576.128	1.337	1336.7	observe	Run2	observe/STIM_000.jpg	100
1580.89	0.942	942.1	observe	Run2	observe/STIM_000.jpg	99
1584.612	1.571	1571.2	observe	Run2	observe/STIM_000.jpg	99
1588.145	1.202	1201.9	observe	Run2	observe/STIM_000.jpg	99
1593.118	0.927	927.1	observe	Run2	observe/STIM_001.jpg	99
1597.0	1.411	1410.7	observe	Run2	observe/STIM_001.jpg	99
1600.657	1.186	1185.8	observe	Run2	observe/STIM_001.jpg	100
1605.728	1.429	1428.6	observe	Run2	observe/STIM_001.jpg	99
1610.041	0.882	882.0	observe	Run2	observe/STIM_002.jpg	99
1614.565	1.422	1422.2	observe	Run2	observe/STIM_002.jpg	100
1618.597	1.62	1619.8	observe	Run2	observe/STIM_002.jpg	100
1622.457	1.082	1081.9	observe	Run2	observe/STIM_002.jpg	100
1626.87	1.721	1720.9	observe	Run2	observe/STIM_003.jpg	100
1630.587	1.629	1629.0	observe	Run2	observe/STIM_003.jpg	99
1635.888	1.126	1126.3	observe	Run2	observe/STIM_003.jpg	100
1640.843	1.624	1624.0	observe	Run2	observe/STIM_003.jpg	99
1644.745	0.934	934.1	observe	Run2	observe/STIM_004.jpg	99
1647.741	1.607	1606.6	observe	Run2	observe/STIM_004.jpg	100
1652.187	0.966	965.5	observe	Run2	observe/STIM_004.jpg	100
1656.064	1.4	1399.6	observe	Run2	observe/STIM_004.jpg	99
1659.411	1.722	1722.4	observe	Run2	observe/STIM_005.jpg	99
1664.541	0.971	971.3	observe	Run2	observe/STIM_005.jpg	99
1669.371	1.141	1141.1	observe	Run2	observe/STIM_005.jpg	100
1673.58	1.596	1596.2	observe	Run2	observe/STIM_005.jpg	99
1678.126	1.244	1244.2	observe	Run2	observe/STIM_006.jpg	100
1683.143	1.765	1765.2	observe	Run2	observe/STIM_006.jpg	100
1687.237	1.136	1136.1	observe	Run2	observe/STIM_006.jpg	100
1690.871	1.347	1346.6	observe	Run2	observe/STIM_006.jpg	100
1696.042	1.197	1197.4	observe	Run2	observe/STIM_007.jpg	99
1699.084	1.308	1307.9	observe	Run2	observe/STIM_007.jpg	100
1702.506	1.725	1725.4	observe	Run2	observe/STIM_007.jpg	100
1706.624	1.41	1410.5	observe	Run2	observe/STIM_007.jpg	99
1711.558	1.193	1192.6	observe	Run2	observe/STIM_008.jpg	100
1715.328	1.164	1164.1	observe	Run2	observe/STIM_008.jpg	100
1720.079	1.37	1369.7	observe	Run2	observe/STIM_008.jpg	99
1724.29	1.157	1156.7	observe	Run2	observe/STIM_008.jpg	99
1728.78	1.358	1358.3	observe	Run2	observe/STIM_009.jpg	100
1733.343	1.453	1453.4	observe	Run2	observe/STIM_009.jpg	100
1738.487	1.477	1476.9	observe	Run2	observe/STIM_009.jpg	100
1742.969	1.376	1376.5	observe	Run2	observe/STIM_009.jpg	100
1747.75	0.948	948.5	observe	Run2	observe/STIM_010.jpg	100
1752.128	0.97	970.4	observe	Run2	observe/STIM_010.jpg	100
1756.154	1.308	1308.3	observe	Run2	observe/STIM_010.jpg	100
1760.123	1.552	1552.3	observe	Run2	observe/STIM_010.jpg	99
1764.512	1.082	1081.9	observe	Run2	observe/STIM_011.jpg	100
1767.791	1.576	1575.7	observe	Run2	observe/STIM_011.jpg	100
1772.067	0.934	933.6	observe	Run2	observe/STIM_011.jpg	100
1775.389	1.43	1429.6	observe	Run2	observe/STIM_011.jpg	100
1779.563	1.77	1770.2	observe	Run2	observe/STIM_012.jpg	100
1784.233	1.126	1126.4	observe	Run2	observe/STIM_012.jpg	99
1789.092	1.443	1442.9	observe	Run2	observe/STIM_012.jpg	100
1794.135	1.498	1497.9	observe	Run2	observe/STIM_012.jpg	100
1799.337	1.622	1621.8	observe	Run2	observe/STIM_013.jpg	100
1803.063	1.207	1206.6	observe	Run2	observe/STIM_013.jpg	99
1807.539	1.718	1717.5	observe	Run2	observe/STIM_013.jpg	99
1811.905	1.666	1665.6	observe	Run2	observe/STIM_013.jpg	99
1817.033	1.82	1820.2	observe	Run2	observe/STIM_014.jpg	99
1822.2	1.41	1410.2	observe	Run2	observe/STIM_014.jpg	99
1826.166	1.673	1673.1	observe	Run2	observe/STIM_014.jpg	100
1829.729	1.428	1428.1	observe	Run2	observe/STIM_014.jpg	100
1834.783	1.772	1771.9	observe	Run2	observe/STIM_015.jpg	99
1839.715	1.056	1055.5	observe	Run2	observe/STIM_015.jpg	100
1843.303	1.598	1597.5	observe	Run2	observe/STIM_015.jpg	99
1848.317	1.415	1414.9	observe	Run2	observe/STIM_015.jpg	100
1851.82	1.436	1436.0	observe	Run2	observe/STIM_016.jpg	100
1856.863	1.32	1319.7	observe	Run2	observe/STIM_016.jpg	99
1860.981	1.667	1666.6	observe	Run2	observe/STIM_016.jpg	100
1864.75	1.104	1104.2	observe	Run2	observe/STIM_016.jpg	99
1869.089	0.921	921.0	observe	Run2	observe/STIM_017.jpg	100
1873.752	1.039	1039.1	observe	Run2	observe/STIM_017.jpg	99
1877.356	1.238	1238.1	observe	Run2	observe/STIM_017.jpg	99
1881.665	1.076	1076.5	observe	Run2	observe/STIM_017.jpg	100
1886.434	1.314	1313.9	observe	Run2	observe/STIM_018.jpg	100
1890.059	1.102	1102.1	observe	Run2	observe/STIM_018.jpg	99
1894.814	0.929	928.9	observe	Run2	observe/STIM_018.jpg	99
1898.033	1.058	1058.5	observe	Run2	observe/STIM_018.jpg	100
1901.179	1.238	1237.6	observe	Run2	observe/STIM_019.jpg	99
1905.072	1.543	1543.4	observe	Run2	observe/STIM_019.jpg	100
1909.373	1.32	1319.6	observe	Run2	observe/STIM_019.jpg	100
1914.105	0.974	974.1	observe	Run2	observe/STIM_019.jpg	100
1918.621	1.898	1898.1	regulate	Run3	regulate/STIM_000.jpg	100
1922.342	1.518	1517.9	regulate	Run3	regulate/STIM_000.jpg	100
1925.766	1.338	1337.9	regulate	Run3	regulate/STIM_000.jpg	99
1929.26	1.378	1378.0	regulate	Run3	regulate/STIM_000.jpg	100
1933.776	1.225	1225.0	regulate	Run3	regulate/STIM_001.jpg	100
1937.779	2.475	2474.7	regulate	Run3	regulate/STIM_001.jpg	100
1943.112	1.448	1447.9	regulate	Run3	regulate/STIM_001.jpg	100
1946.625	2.646	2646.1	regulate	Run3	regulate/STIM_001.jpg	99
1951.838	1.599	1598.9	regulate	Run3	regulate/STIM_002.jpg	100
1956.027	1.168	1167.6	regulate	Run3	regulate/STIM_002.jpg	99
1959.503	2.387	2386.6	regulate	Run3	regulate/STIM_002.jpg	100
1963.936	2.53	2530.3	regulate	Run3	regulate/STIM_002.jpg	100
1969.73	2.216	2215.9	regulate	Run3	regulate/STIM_003.jpg	100
1974.848	2.126	2126.0	regulate	Run3	regulate/STIM_003.jpg	99
1979.41	1.391	1391.0	regulate	Run3	regulate/STIM_003.jpg	99
1983.836	1.909	1909.3	regulate	Run3	regulate/STIM_003.jpg	99
1989.383	2.584	2584.4	regulate	Run3	regulate/STIM_004.jpg	99
1993.901	2.73	2729.5	regulate	Run3	regulate/STIM_004.jpg	99
1998.61	2.176	2175.7	regulate	Run3	regulate/STIM_004.jpg	99
2003.696	1.174	1174.0	regulate	Run3	regulate/STIM_004.jpg	100
2007.714	1.988	1987.7	regulate	Run3	regulate/STIM_005.jpg	99
2012.522	2.664	2664.5	regulate	Run3	regulate/STIM_005.jpg	100
2017.988	1.59	1590.4	regulate	Run3	regulate/STIM_005.jpg	99
2023.241	2.156	2155.6	regulate	Run3	regulate/STIM_005.jpg	99
2028.057	2.095	2095.2	regulate	Run3	regulate/STIM_006.jpg	99
2032.245	2.328	2327.8	regulate	Run3	regulate/STIM_006.jpg	99
2036.593	1.41	1410.4	regulate	Run3	regulate/STIM_006.jpg	99
2041.3	1.316	1316.3	regulate	Run3	regulate/STIM_006.jpg	99
2045.428	2.248	2247.6	regulate	Run3	regulate/STIM_007.jpg	100
2049.707	2.205	2205.1	regulate	Run3	regulate/STIM_007.jpg	100
2055.035	2.337	2336.9	regulate	Run3	regulate/STIM_007.jpg	100
2059.707	1.874	1873.8	regulate	Run3	regulate/STIM_007.jpg	99
2065.012	1.361	1361.0	regulate	Run3	regulate/STIM_008.jpg	100
2069.314	1.15	1149.5	regulate	Run3	regulate/STIM_008.jpg	100
2072.905	1.582	1582.5	regulate	Run3	regulate/STIM_008.jpg	99
2078.055	2.494	2494.3	regulate	Run3	regulate/STIM_008.jpg	99
2083.7	2.156	2156.5	regulate	Run3	regulate/STIM_009.jpg	100
2087.764	1.805	1805.1	regulate	Run3	regulate/STIM_009.jpg	100
2092.431	1.834	1833.6	regulate	Run3	regulate/STIM_009.jpg	99
2097.104	1.661	1661.2	regulate	Run3	regulate/STIM_009.jpg	99
2102.363	2.516	2516.4	regulate	Run3	regulate/STIM_010.jpg	100
2108.014	1.269	1268.7	regulate	Run3	regulate/STIM_010.jpg	100
2112.046	1.835	1835.4	regulate	Run3	regulate/STIM_010.jpg	99
2117.505	2.563	2562.8	regulate	Run3	regulate/STIM_010.jpg	99
2122.307	1.278	1278.4	regulate	Run3	regulate/STIM_011.jpg	99
2127.33	1.945	1944.9	regulate	Run3	regulate/STIM_011.jpg	100
2131.891	1.384	1383.9	regulate	Run3	regulate/STIM_011.jpg	100
2136.688	1.665	1665.2	regulate	Run3	regulate/STIM_011.jpg	99
2141.95	1.401	1400.7	regulate	Run3	regulate/STIM_012.jpg	99
2145.737	2.526	2526.0	regulate	Run3	regulate/STIM_012.jpg	100
2150.887	2.02	2020.2	regulate	Run3	regulate/STIM_012.jpg	100
2156.405	2.276	2276.0	regulate	Run3	regulate/STIM_012.jpg	100
2162.382	1.295	1295.0	regulate	Run3	regulate/STIM_013.jpg	100
2167.585	1.191	1190.7	regulate	Run3	regulate/STIM_013.jpg	100
2171.138	2.233	2232.7	regulate	Run3	regulate/STIM_013.jpg	100
2175.714	1.921	1921.1	regulate	Run3	regulate/STIM_013.jpg	99
2179.92	2.158	2158.1	regulate	Run3	regulate/STIM_014.jpg	100
2184.424	2.041	2041.3	regulate	Run3	regulate/STIM_014.jpg	99
2189.949	2.102	2102.2	regulate	Run3	regulate/STIM_014.jpg	100
2193.968	1.963	1963.4	regulate	Run3	regulate/STIM_014.jpg	99
2199.044	2.618	2618.3	regulate	Run3	regulate/STIM_015.jpg	99
2205.36	1.519	1518.8	regulate	Run3	regulate/STIM_015.jpg	100
2209.882	1.316	1316.4	regulate	Run3	regulate/STIM_015.jpg	99
2213.071	1.867	1867.4	regulate	Run3	regulate/STIM_015.jpg	100
2218.093	2.18	2179.7	regulate	Run3	regulate/STIM_016.jpg	99
2223.767	1.735	1734.9	regulate	Run3	regulate/STIM_016.jpg	100
2227.761	1.948	1948.2	regulate	Run3	regulate/STIM_016.jpg	100
2232.588	2.0	1999.8	regulate	Run3	regulate/STIM_016.jpg	99
2237.95	2.223	2223.2	regulate	Run3	regulate/STIM_017.jpg	99
2243.276	1.164	1164.5	regulate	Run3	regulate/STIM_017.jpg	99
2246.531	1.241	1241.0	regulate	Run3	regulate/STIM_017.jpg	100
2251.398	2.519	2519.0	regulate	Run3	regulate/STIM_017.jpg	100
2256.162	2.55	2550.5	regulate	Run3	regulate/STIM_018.jpg	100
2261.415	1.376	1375.7	regulate	Run3	regulate/STIM_018.jpg	99
2266.535	2.29	2290.4	regulate	Run3	regulate/STIM_018.jpg	99
2272.259	2.351	2350.8	regulate	Run3	regulate/STIM_018.jpg	100
2276.791	2.413	2412.8	regulate	Run3	regulate/STIM_019.jpg	100
2281.176	1.94	1940.4	regulate	Run3	regulate/STIM_019.jpg	99
2285.97	1.636	1636.1	regulate	Run3	regulate/STIM_019.jpg	99
2290.368	1.655	1655.4	regulate	Run3	regulate/STIM_019.jpg	100
2295.688	1.766	1765.7	regulate	Run3	regulate/STIM_020.jpg	100
2299.675	1.385	1384.6	regulate	Run3	regulate/STIM_020.jpg	99
2304.792	1.511	1510.9	regulate	Run3	regulate/STIM_020.jpg	99
2309.243	2.391	2390.6	regulate	Run3	regulate/STIM_020.jpg	99
2314.875	1.267	1267.4	regulate	Run3	regulate/STIM_021.jpg	99
2319.958	2.446	2445.7	regulate	Run3	regulate/STIM_021.jpg	100
2325.635	1.679	1678.9	regulate	Run3	regulate/STIM_021.jpg	100
2329.832	2.566	2566.4	regulate	Run3	regulate/STIM_021.jpg	100
2335.184	1.83	1829.6	regulate	Run3	regulate/STIM_022.jpg	99
2338.963	1.326	1326.1	regulate	Run3	regulate/STIM_022.jpg	99
2343.37	2.2	2200.5	regulate	Run3	regulate/STIM_022.jpg	99
2348.264	2.015	2015.2	regulate	Run3	regulate/STIM_022.jpg	99
2353.825	1.897	1896.9	regulate	Run3	regulate/STIM_023.jpg	99
2357.497	2.668	2668.1	regulate	Run3	regulate/STIM_023.jpg	100
2362.422	2.576	2575.9	regulate	Run3	regulate/STIM_023.jpg	100
2368.227	2.54	2539.6	regulate	Run3	regulate/STIM_023.jpg	99
2373.572	1.859	1859.1	regulate	Run3	regulate/STIM_024.jpg	100
2378.884	2.519	2519.0	regulate	Run3	regulate/STIM_024.jpg	99
2383.797	2.043	2042.8	regulate	Run3	regulate/STIM_024.jpg	99
2388.273	1.219	1219.3	regulate	Run3	regulate/STIM_024.jpg	99
2392.021	2.716	2715.5	regulate	Run3	regulate/STIM_025.jpg	99
2397.153	1.325	1325.0	regulate	Run3	regulate/STIM_025.jpg	99
2401.483	1.853	1853.1	regulate	Run3	regulate/STIM_025.jpg	99
2405.437	2.557	2556.6	regulate	Run3	regulate/STIM_025.jpg	100
2409.672	1.901	1900.8	regulate	Run3	regulate/STIM_026.jpg	100
2413.798	2.572	2572.0	regulate	Run3	regulate/STIM_026.jpg	100
2420.071	2.636	2635.7	regulate	Run3	regulate/STIM_026.jpg	99
2425.063	1.803	1802.7	regulate	Run3	regulate/STIM_026.jpg	100
2430.471	2.732	2731.5	regulate	Run3	regulate/STIM_027.jpg	100
2435.982	1.178	1177.5	regulate	Run3	regulate/STIM_027.jpg	99
2441.05	2.166	2166.3	regulate	Run3	regulate/STIM_027.jpg	100
2445.578	1.577	1576.8	regulate	Run3	regulate/STIM_027.jpg	99
2450.795	1.51	1510.0	regulate	Run3	regulate/STIM_028.jpg	100
2454.303	2.16	2159.9	regulate	Run3	regulate/STIM_028.jpg	100
2458.739	2.697	2697.2	regulate	Run3	regulate/STIM_028.jpg	99
2463.72	2.274	2274.1	regulate	Run3	regulate/STIM_028.jpg	100
2468.6	2.28	2280.4	regulate	Run3	regulate/STIM_029.jpg	100
2472.794	1.929	1928.7	regulate	Run3	regulate/STIM_029.jpg	100
2478.196	2.394	2394.4	regulate	Run3	regulate/STIM_029.jpg	100
2483.527	1.817	1816.8	regulate	Run3	regulate/STIM_029.jpg	100
2487.966	1.457	1457.0	observe	Run3	observe/STIM_000.jpg	99
2492.631	1.603	1603.3	observe	Run3	observe/STIM_000.jpg	99
2498.122	1.754	1753.9	observe	Run3	observe/STIM_000.jpg	99
2502.987	1.341	1341.3	observe	Run3	observe/STIM_000.jpg	99
2508.038	1.661	1661.2	observe	Run3	observe/STIM_001.jpg	99
2511.691	1.33	1329.7	observe	Run3	observe/STIM_001.jpg	100
2515.642	1.23	1229.6	observe	Run3	observe/STIM_001.jpg	100
2520.761	1.012	1012.5	observe	Run3	observe/STIM_001.jpg	99
2523.76	1.12	1120.0	observe	Run3	observe/STIM_002.jpg	99
2527.22	1.357	1356.6	observe	Run3	observe/STIM_002.jpg	99
2530.875	1.285	1284.8	observe	Run3	observe/STIM_002.jpg	100
2534.013	1.826	1825.9	observe	Run3	observe/STIM_002.jpg	100
2538.6	1.621	1621.4	observe	Run3	observe/STIM_003.jpg	99
2542.088	1.561	1561.0	observe	Run3	observe/STIM_003.jpg	100
2546.026	1.615	1615.4	observe	Run3	observe/STIM_003.jpg	99
2549.877	1.58	1579.9	observe	Run3	observe/STIM_003.jpg	99
2554.86	1.743	1743.2	observe	Run3	observe/STIM_004.jpg	99
2559.718	1.542	1541.6	observe	Run3	observe/STIM_004.jpg	99
2564.864	1.414	1414.0	observe	Run3	observe/STIM_004.jpg	99
2568.597	1.253	1253.4	observe	Run3	observe/STIM_004.jpg	100
2571.717	1.759	1759.0	observe	Run3	observe/STIM_005.jpg	99
2575.44	1.552	1551.5	observe	Run3	observe/STIM_005.jpg	99
2580.408	1.592	1592.5	observe	Run3	observe/STIM_005.jpg	99
2584.972	1.165	1165.1	observe	Run3	observe/STIM_005.jpg	100
2589.838	1.144	1144.4	observe	Run3	observe/STIM_006.jpg	100
2593.397	1.001	1000.8	observe	Run3	observe/STIM_006.jpg	99
2596.321	1.461	1460.8	observe	Run3	observe/STIM_006.jpg	99
2601.474	1.568	1567.8	observe	Run3	observe/STIM_006.jpg	99
2605.539	1.56	1560.2	observe	Run3	observe/STIM_007.jpg	100
2610.25	0.901	901.1	observe	Run3	observe/STIM_007.jpg	100
2613.891	1.385	1385.0	observe	Run3	observe/STIM_007.jpg	100
2617.241	1.71	1709.6	observe	Run3	observe/STIM_007.jpg	99
2621.514	1.18	1179.7	observe	Run3	observe/STIM_008.jpg	99
2625.879	1.452	1451.8	observe	Run3	observe/STIM_008.jpg	99
2630.83	1.777	1777.1	observe	Run3	observe/STIM_008.jpg	100
2634.864	1.266	1266.5	observe	Run3	observe/STIM_008.jpg	100
2638.306	1.415	1414.6	observe	Run3	observe/STIM_009.jpg	99
2642.059	1.027	1026.9	observe	Run3	observe/STIM_009.jpg	100
2645.294	1.708	1708.5	observe	Run3	observe/STIM_009.jpg	100
2649.496	1.064	1063.6	observe	Run3	observe/STIM_009.jpg	99
2652.887	1.351	1350.9	observe	Run3	observe/STIM_010.jpg	99
2657.461	1.727	1727.2	observe	Run3	observe/STIM_010.jpg	100
2662.089	1.436	1436.4	observe	Run3	observe/STIM_010.jpg	100
2666.884	1.8	1799.5	observe	Run3	observe/STIM_010.jpg	99
2670.725	1.491	1490.6	observe	Run3	observe/STIM_011.jpg	99
2675.465	1.264	1264.1	observe	Run3	observe/STIM_011.jpg	99
2680.213	1.311	1311.2	observe	Run3	observe/STIM_011.jpg	99
2684.856	1.657	1657.0	observe	Run3	observe/STIM_011.jpg	99
2689.576	0.994	994.4	observe	Run3	observe/STIM_012.jpg	99
2692.78	1.519	1519.1	observe	Run3	observe/STIM_012.jpg	100
2697.211	1.645	1645.2	observe	Run3	observe/STIM_012.jpg	100
2701.307	1.057	1057.3	observe	Run3	observe/STIM_012.jpg	100
2704.292	1.606	1606.4	observe	Run3	observe/STIM_013.jpg	100
2709.019	1.81	1809.7	observe	Run3	observe/STIM_013.jpg	99
2712.715	1.696	1696.5	observe	Run3	observe/STIM_013.jpg	99
2717.062	0.997	996.9	observe	Run3	observe/STIM_013.jpg	100
2721.191	1.699	1699.0	observe	Run3	observe/STIM_014.jpg	100
2726.208	1.236	1236.1	observe	Run3	observe/STIM_014.jpg	100
2730.021	1.301	1301.0	observe	Run3	observe/STIM_014.jpg	100
2734.997	1.176	1176.3	observe	Run3	observe/STIM_014.jpg	99
2739.45	1.743	1742.7	observe	Run3	observe/STIM_015.jpg	100
2743.794	1.443	1442.8	observe	Run3	observe/STIM_015.jpg	99
2747.159	1.33	1330.4	observe	Run3	observe/STIM_015.jpg	100
2752.285	1.691	1691.2	observe	Run3	observe/STIM_015.jpg	99
2757.607	1.684	1684.0	observe	Run3	observe/STIM_016.jpg	100
2762.729	1.078	1078.4	observe	Run3	observe/STIM_016.jpg	100
2766.991	1.605	1605.3	observe	Run3	observe/STIM_016.jpg	100
2770.799	1.271	1270.7	observe	Run3	observe/STIM_016.jpg	100
2774.77	1.675	1674.8	observe	Run3	observe/STIM_017.jpg	99
2779.088	1.077	1076.6	observe	Run3	observe/STIM_017.jpg	99
2782.569	0.913	912.8	observe	Run3	observe/STIM_017.jpg	100
2786.442	1.175	1175.1	observe	Run3	observe/STIM_017.jpg	99
2789.968	1.09	1090.4	observe	Run3	observe/STIM_018.jpg	100
2794.535	1.117	1117.4	observe	Run3	observe/STIM_018.jpg	99
2799.261	1.114	1113.8	observe	Run3	observe/STIM_018.jpg	100
2802.322	0.925	924.9	observe	Run3	observe/STIM_018.jpg	100
2805.945	1.567	1567.4	observe	Run3	observe/STIM_019.jpg	99
2810.663	1.042	1041.6	observe	Run3	observe/STIM_019.jpg	100
2814.824	1.168	1168.1	observe	Run3	observe/STIM_019.jpg	100
2818.117	1.581	1580.6	observe	Run3	observe/STIM_019.jpg	100
