onset	duration	accuracy_binary	trial_type	learning_stage	stimulus
0.0	2.566	1	regulate	Run1	regulate/STIM_000.jpg
6.057	2.447	1	regulate	Run1	regulate/STIM_000.jpg
12.033	2.097	1	regulate	Run1	regulate/STIM_000.jpg
16.798	2.397	1	regulate	Run1	regulate/STIM_000.jpg
21.352	3.229	0	regulate	Run1	regulate/STIM_001.jpg
27.403	2.719	1	regulate	Run1	regulate/STIM_001.jpg
32.353	1.784	1	regulate	Run1	regulate/STIM_001.jpg
36.648	2.656	1	regulate	Run1	regulate/STIM_001.jpg
41.435	2.74	0	regulate	Run1	regulate/STIM_002.jpg
47.68	2.722	1	regulate	Run1	regulate/STIM_002.jpg
53.402	2.335	1	regulate	Run1	regulate/STIM_002.jpg
59.361	2.617	1	regulate	Run1	regulate/STIM_002.jpg
65.457	1.527	0	regulate	Run1	regulate/STIM_003.jpg
70.256	2.002	1	regulate	Run1	regulate/STIM_003.jpg
75.838	2.782	0	regulate	Run1	regulate/STIM_003.jpg
82.12	2.845	1	regulate	Run1	regulate/STIM_003.jpg
88.023	3.182	1	regulate	Run1	regulate/STIM_004.jpg
94.358	1.839	1	regulate	Run1	regulate/STIM_004.jpg
98.669	2.691	1	regulate	Run1	regulate/STIM_004.jpg
104.83	2.761	1	regulate	Run1	regulate/STIM_004.jpg
110.088	1.82	1	regulate	Run1	regulate/STIM_005.jpg
115.49	1.619	1	regulate	Run1	regulate/STIM_005.jpg
120.089	1.5	1	regulate	Run1	regulate/STIM_005.jpg
123.77	2.148	1	regulate	Run1	regulate/STIM_005.jpg
128.705	2.006	1	regulate	Run1	regulate/STIM_006.jpg
133.232	1.754	1	regulate	Run1	regulate/STIM_006.jpg
138.25	1.554	1	regulate	Run1	regulate/STIM_006.jpg
141.805	2.711	1	regulate	Run1	regulate/STIM_006.jpg
146.658	2.191	0	regulate	Run1	regulate/STIM_007.jpg
151.348	1.985	0	regulate	Run1	regulate/STIM_007.jpg
155.338	1.938	1	regulate	Run1	regulate/STIM_007.jpg
160.959	2.774	1	regulate	Run1	regulate/STIM_007.jpg
166.872	2.447	1	regulate	Run1	regulate/STIM_008.jpg
171.607	2.953	1	regulate	Run1	regulate/STIM_008.jpg
176.923	2.894	1	regulate	Run1	regulate/STIM_008.jpg
182.804	1.574	1	regulate	Run1	regulate/STIM_008.jpg
187.827	2.241	0	regulate	Run1	regulate/STIM_009.jpg
193.282	1.657	1	regulate	Run1	regulate/STIM_009.jpg
198.514	1.482	1	regulate	Run1	regulate/STIM_009.jpg
203.435	2.163	1	regulate	Run1	regulate/STIM_009.jpg
208.935	1.592	1	regulate	Run1	regulate/STIM_010.jpg
212.576	2.404	0	regulate	Run1	regulate/STIM_010.jpg
218.797	2.0	0	regulate	Run1	regulate/STIM_010.jpg
224.751	1.498	0	regulate	Run1	regulate/STIM_010.jpg
228.304	2.317	0	regulate	Run1	regulate/STIM_011.jpg
233.747	1.819	1	regulate	Run1	regulate/STIM_011.jpg
239.26	2.134	0	regulate	Run1	regulate/STIM_011.jpg
243.594	2.744	0	regulate	Run1	regulate/STIM_011.jpg
249.344	2.005	1	regulate	Run1	regulate/STIM_012.jpg
253.805	3.293	1	regulate	Run1	regulate/STIM_012.jpg
259.739	3.049	0	regulate	Run1	regulate/STIM_012.jpg
265.601	1.706	0	regulate	Run1	regulate/STIM_012.jpg
270.593	2.849	1	regulate	Run1	regulate/STIM_013.jpg
277.005	2.431	1	regulate	Run1	regulate/STIM_013.jpg
281.981	2.906	1	regulate	Run1	regulate/STIM_013.jpg
286.946	2.123	1	regulate	Run1	regulate/STIM_013.jpg
291.636	3.344	1	regulate	Run1	regulate/STIM_014.jpg
298.526	3.022	1	regulate	Run1	regulate/STIM_014.jpg
305.113	2.736	0	regulate	Run1	regulate/STIM_014.jpg
310.852	2.944	1	regulate	Run1	regulate/STIM_014.jpg
317.535	2.127	1	regulate	Run1	regulate/STIM_015.jpg
321.949	2.982	1	regulate	Run1	regulate/STIM_015.jpg
328.31	2.124	1	regulate	Run1	regulate/STIM_015.jpg
333.838	1.394	1	regulate	Run1	regulate/STIM_015.jpg
337.715	1.802	0	regulate	Run1	regulate/STIM_016.jpg
343.138	1.577	1	regulate	Run1	regulate/STIM_016.jpg
348.358	1.449	0	regulate	Run1	regulate/STIM_016.jpg
351.946	2.917	1	regulate	Run1	regulate/STIM_016.jpg
357.149	2.524	1	regulate	Run1	regulate/STIM_017.jpg
361.739	1.904	1	regulate	Run1	regulate/STIM_017.jpg
365.815	1.393	1	regulate	Run1	regulate/STIM_017.jpg
370.524	2.59	0	regulate	Run1	regulate/STIM_017.jpg
376.208	2.752	1	regulate	Run1	regulate/STIM_018.jpg
382.116	2.072	1	regulate	Run1	regulate/STIM_018.jpg
386.303	1.531	1	regulate	Run1	regulate/STIM_018.jpg
389.981	2.024	1	regulate	Run1	regulate/STIM_018.jpg
395.437	3.064	1	regulate	Run1	regulate/STIM_019.jpg
402.08	1.77	1	regulate	Run1	regulate/STIM_019.jpg
406.864	2.947	0	regulate	Run1	regulate/STIM_019.jpg
412.622	2.551	1	regulate	Run1	regulate/STIM_019.jpg
418.307	2.808	1	regulate	Run1	regulate/STIM_020.jpg
423.442	1.626	1	regulate	Run1	regulate/STIM_020.jpg
427.567	1.823	1	regulate	Run1	regulate/STIM_020.jpg
431.625	1.277	1	regulate	Run1	regulate/STIM_020.jpg
435.493	1.743	1	regulate	Run1	regulate/STIM_021.jpg
441.234	2.88	1	regulate	Run1	regulate/STIM_021.jpg
447.4	2.859	0	regulate	Run1	regulate/STIM_021.jpg
453.312	1.742	0	regulate	Run1	regulate/STIM_021.jpg
457.061	3.326	1	regulate	Run1	regulate/STIM_022.jpg
463.667	3.14	1	regulate	Run1	regulate/STIM_022.jpg
470.409	2.91	0	regulate	Run1	regulate/STIM_022.jpg
475.394	2.138	1	regulate	Run1	regulate/STIM_022.jpg
479.723	2.668	1	regulate	Run1	regulate/STIM_023.jpg
484.982	2.937	0	regulate	Run1	regulate/STIM_023.jpg
490.439	2.653	1	regulate	Run1	regulate/STIM_023.jpg
496.243	2.462	1	regulate	Run1	regulate/STIM_023.jpg
501.117	2.277	1	regulate	Run1	regulate/STIM_024.jpg
507.164	2.135	1	regulate	Run1	regulate/STIM_024.jpg
512.953	1.404	1	regulate	Run1	regulate/STIM_024.jpg
518.327	2.222	1	regulate	Run1	regulate/STIM_024.jpg
523.448	2.766	1	regulate	Run1	regulate/STIM_025.jpg
529.954	1.489	1	regulate	Run1	regulate/STIM_025.jpg
534.897	2.931	0	regulate	Run1	regulate/STIM_025.jpg
541.464	1.557	1	regulate	Run1	regulate/STIM_025.jpg
545.332	2.185	1	regulate	Run1	regulate/STIM_026.jpg
550.709	1.728	1	regulate	Run1	regulate/STIM_026.jpg
556.181	2.331	1	regulate	Run1	regulate/STIM_026.jpg
561.072	2.326	1	regulate	Run1	regulate/STIM_026.jpg
566.636	3.291	1	regulate	Run1	regulate/STIM_027.jpg
572.879	2.545	0	regulate	Run1	regulate/STIM_027.jpg
577.917	1.598	1	regulate	Run1	regulate/STIM_027.jpg
581.628	2.523	1	regulate	Run1	regulate/STIM_027.jpg
586.779	2.359	1	regulate	Run1	regulate/STIM_028.jpg
591.203	1.73	1	regulate	Run1	regulate/STIM_028.jpg
596.084	1.343	1	regulate	Run1	regulate/STIM_028.jpg
600.596	2.21	1	regulate	Run1	regulate/STIM_028.jpg
606.111	2.853	1	regulate	Run1	regulate/STIM_029.jpg
611.2	2.078	0	regulate	Run1	regulate/STIM_029.jpg
616.515	2.779	0	regulate	Run1	regulate/STIM_029.jpg
623.177	2.132	1	regulate	Run1	regulate/STIM_029.jpg
628.815	1.258	0	observe	Run1	observe/STIM_000.jpg
632.268	1.52	1	observe	Run1	observe/STIM_000.jpg
637.478	1.183	1	observe	Run1	observe/STIM_000.jpg
642.377	1.052	1	observe	Run1	observe/STIM_000.jpg
645.527	1.566	1	observe	Run1	observe/STIM_001.jpg
650.673	1.16	1	observe	Run1	observe/STIM_001.jpg
653.896	1.586	1	observe	Run1	observe/STIM_001.jpg
658.478	1.384	1	observe	Run1	observe/STIM_001.jpg
663.15	1.302	1	observe	Run1	observe/STIM_002.jpg
666.679	0.918	1	observe	Run1	observe/STIM_002.jpg
670.081	1.079	1	observe	Run1	observe/STIM_002.jpg
673.28	1.01	1	observe	Run1	observe/STIM_002.jpg
677.18	1.436	1	observe	Run1	observe/STIM_003.jpg
682.475	1.552	1	observe	Run1	observe/STIM_003.jpg
686.609	1.316	1	observe	Run1	observe/STIM_003.jpg
689.998	1.066	0	observe	Run1	observe/STIM_003.jpg
693.649	1.215	0	observe	Run1	observe/STIM_004.jpg
696.954	0.809	1	observe	Run1	observe/STIM_004.jpg
699.949	1.224	1	observe	Run1	observe/STIM_004.jpg
704.493	1.31	0	observe	Run1	observe/STIM_004.jpg
708.95	0.822	1	observe	Run1	observe/STIM_005.jpg
713.338	1.068	1	observe	Run1	observe/STIM_005.jpg
716.763	0.992	1	observe	Run1	observe/STIM_005.jpg
720.647	0.819	1	observe	Run1	observe/STIM_005.jpg
724.038	1.036	1	observe	Run1	observe/STIM_006.jpg
728.778	0.958	0	observe	Run1	observe/STIM_006.jpg
733.144	1.433	1	observe	Run1	observe/STIM_006.jpg
736.831	1.528	1	observe	Run1	observe/STIM_006.jpg
741.516	1.216	1	observe	Run1	observe/STIM_007.jpg
746.639	1.569	1	observe	Run1	observe/STIM_007.jpg
751.357	0.834	1	observe	Run1	observe/STIM_007.jpg
755.725	1.338	1	observe	Run1	observe/STIM_007.jpg
759.232	1.183	1	observe	Run1	observe/STIM_008.jpg
763.631	0.962	1	observe	Run1	observe/STIM_008.jpg
767.68	1.255	1	observe	Run1	observe/STIM_008.jpg
771.724	1.358	1	observe	Run1	observe/STIM_008.jpg
776.335	1.101	1	observe	Run1	observe/STIM_009.jpg
780.614	1.554	1	observe	Run1	observe/STIM_009.jpg
785.548	1.423	0	observe	Run1	observe/STIM_009.jpg
789.839	1.509	1	observe	Run1	observe/STIM_009.jpg
795.116	1.584	0	observe	Run1	observe/STIM_010.jpg
799.41	1.436	1	observe	Run1	observe/STIM_010.jpg
803.914	0.861	1	observe	Run1	observe/STIM_010.jpg
808.714	1.402	1	observe	Run1	observe/STIM_010.jpg
813.731	0.951	1	observe	Run1	observe/STIM_011.jpg
816.893	0.861	1	observe	Run1	observe/STIM_011.jpg
820.023	0.892	1	observe	Run1	observe/STIM_011.jpg
823.136	1.456	1	observe	Run1	observe/STIM_011.jpg
828.204	1.476	0	observe	Run1	observe/STIM_012.jpg
831.82	1.06	1	observe	Run1	observe/STIM_012.jpg
835.922	1.277	1	observe	Run1	observe/STIM_012.jpg
840.787	1.091	1	observe	Run1	observe/STIM_012.jpg
844.383	1.368	1	observe	Run1	observe/STIM_013.jpg
848.555	1.135	1	observe	Run1	observe/STIM_013.jpg
852.863	1.5	1	observe	Run1	observe/STIM_013.jpg
856.694	1.319	1	observe	Run1	observe/STIM_013.jpg
861.689	1.119	1	observe	Run1	observe/STIM_014.jpg
866.023	1.075	1	observe	Run1	observe/STIM_014.jpg
870.871	1.313	0	observe	Run1	observe/STIM_014.jpg
875.936	1.532	1	observe	Run1	observe/STIM_014.jpg
880.57	1.537	1	observe	Run1	observe/STIM_015.jpg
884.531	1.033	1	observe	Run1	observe/STIM_015.jpg
888.267	0.931	1	observe	Run1	observe/STIM_015.jpg
893.059	1.086	1	observe	Run1	observe/STIM_015.jpg
897.044	1.349	0	observe	Run1	observe/STIM_016.jpg
902.152	1.545	0	observe	Run1	observe/STIM_016.jpg
907.638	1.306	1	observe	Run1	observe/STIM_016.jpg
911.905	1.485	1	observe	Run1	observe/STIM_016.jpg
917.163	0.817	1	observe	Run1	observe/STIM_017.jpg
920.975	1.034	0	observe	Run1	observe/STIM_017.jpg
924.662	0.975	0	observe	Run1	observe/STIM_017.jpg
929.629	0.846	0	observe	Run1	observe/STIM_017.jpg
934.46	1.155	1	observe	Run1	observe/STIM_018.jpg
938.473	0.842	0	observe	Run1	observe/STIM_018.jpg
942.027	1.122	1	observe	Run1	observe/STIM_018.jpg
945.971	1.117	1	observe	Run1	observe/STIM_018.jpg
951.039	0.83	1	observe	Run1	observe/STIM_019.jpg
955.208	1.305	1	observe	Run1	observe/STIM_019.jpg
959.131	1.255	1	observe	Run1	observe/STIM_019.jpg
963.82	1.507	1	observe	Run1	observe/STIM_019.jpg
969.153	2.474	1	regulate	Run2	regulate/STIM_000.jpg
973.7	1.511	1	regulate	Run2	regulate/STIM_000.jpg
977.239	1.88	0	regulate	Run2	regulate/STIM_000.jpg
982.539	2.314	1	regulate	Run2	regulate/STIM_000.jpg
988.128	2.39	1	regulate	Run2	regulate/STIM_001.jpg
993.01	2.513	1	regulate	Run2	regulate/STIM_001.jpg
997.872	1.372	1	regulate	Run2	regulate/STIM_001.jpg
1001.419	1.867	1	regulate	Run2	regulate/STIM_001.jpg
1005.89	2.594	1	regulate	Run2	regulate/STIM_002.jpg
1012.069	2.765	1	regulate	Run2	regulate/STIM_002.jpg
1017.782	2.058	1	regulate	Run2	regulate/STIM_002.jpg
1023.363	1.535	1	regulate	Run2	regulate/STIM_002.jpg
1027.627	1.977	1	regulate	Run2	regulate/STIM_003.jpg
1033.345	1.868	1	regulate	Run2	regulate/STIM_003.jpg
1039.114	1.244	1	regulate	Run2	regulate/STIM_003.jpg
1043.515	1.255	1	regulate	Run2	regulate/STIM_003.jpg
1046.824	1.416	0	regulate	Run2	regulate/STIM_004.jpg
1051.327	1.825	1	regulate	Run2	regulate/STIM_004.jpg
1055.805	2.48	1	regulate	Run2	regulate/STIM_004.jpg
1062.152	1.683	1	regulate	Run2	regulate/STIM_004.jpg
1067.452	2.015	1	regulate	Run2	regulate/STIM_005.jpg
1072.931	2.06	1	regulate	Run2	regulate/STIM_005.jpg
1077.534	2.326	0	regulate	Run2	regulate/STIM_005.jpg
1082.08	1.12	1	regulate	Run2	regulate/STIM_005.jpg
1085.273	1.597	1	regulate	Run2	regulate/STIM_006.jpg
1090.228	2.565	1	regulate	Run2	regulate/STIM_006.jpg
1095.891	1.621	1	regulate	Run2	regulate/STIM_006.jpg
1101.26	1.557	1	regulate	Run2	regulate/STIM_006.jpg
1106.011	1.95	1	regulate	Run2	regulate/STIM_007.jpg
1110.239	2.546	0	regulate	Run2	regulate/STIM_007.jpg
1115.986	1.594	0	regulate	Run2	regulate/STIM_007.jpg
1121.264	1.908	1	regulate	Run2	regulate/STIM_007.jpg
1126.543	1.341	0	regulate	Run2	regulate/STIM_008.jpg
1130.608	1.539	1	regulate	Run2	regulate/STIM_008.jpg
1135.088	1.356	0	regulate	Run2	regulate/STIM_008.jpg
1140.065	2.01	1	regulate	Run2	regulate/STIM_008.jpg
1144.246	1.405	0	regulate	Run2	regulate/STIM_009.jpg
1147.735	1.67	0	regulate	Run2	regulate/STIM_009.jpg
1153.144	1.901	0	regulate	Run2	regulate/STIM_009.jpg
1157.554	1.992	1	regulate	Run2	regulate/STIM_009.jpg
1163.242	2.828	1	regulate	Run2	regulate/STIM_010.jpg
1168.156	2.405	1	regulate	Run2	regulate/STIM_010.jpg
1174.053	1.289	1	regulate	Run2	regulate/STIM_010.jpg
1178.325	1.497	1	regulate	Run2	regulate/STIM_010.jpg
1182.439	2.265	1	regulate	Run2	regulate/STIM_011.jpg
1188.561	2.159	1	regulate	Run2	regulate/STIM_011.jpg
1194.463	2.288	1	regulate	Run2	regulate/STIM_011.jpg
1198.932	2.375	1	regulate	Run2	regulate/STIM_011.jpg
1204.013	2.874	1	regulate	Run2	regulate/STIM_012.jpg
1208.941	1.607	0	regulate	Run2	regulate/STIM_012.jpg
1212.663	1.595	1	regulate	Run2	regulate/STIM_012.jpg
1216.376	2.271	1	regulate	Run2	regulate/STIM_012.jpg
1221.952	1.627	1	regulate	Run2	regulate/STIM_013.jpg
1225.93	2.636	1	regulate	Run2	regulate/STIM_013.jpg
1231.109	1.647	1	regulate	Run2	regulate/STIM_013.jpg
1235.16	1.056	1	regulate	Run2	regulate/STIM_013.jpg
1239.124	1.663	1	regulate	Run2	regulate/STIM_014.jpg
1244.07	2.663	1	regulate	Run2	regulate/STIM_014.jpg
1250.442	2.253	1	regulate	Run2	regulate/STIM_014.jpg
1256.084	1.424	1	regulate	Run2	regulate/STIM_014.jpg
1259.646	1.757	1	regulate	Run2	regulate/STIM_015.jpg
1264.978	1.78	1	regulate	Run2	regulate/STIM_015.jpg
1269.461	2.523	1	regulate	Run2	regulate/STIM_015.jpg
1274.01	2.342	1	regulate	Run2	regulate/STIM_015.jpg
1279.02	1.713	1	regulate	Run2	regulate/STIM_016.jpg
1282.766	1.358	1	regulate	Run2	regulate/STIM_016.jpg
1286.394	2.196	1	regulate	Run2	regulate/STIM_016.jpg
1291.225	2.126	1	regulate	Run2	regulate/STIM_016.jpg
1296.714	1.672	0	regulate	Run2	regulate/STIM_017.jpg
1301.653	1.482	1	regulate	Run2	regulate/STIM_017.jpg
1306.843	2.584	0	regulate	Run2	regulate/STIM_017.jpg
1313.373	1.78	1	regulate	Run2	regulate/STIM_017.jpg
1318.287	1.353	1	regulate	Run2	regulate/STIM_018.jpg
1322.748	2.243	1	regulate	Run2	regulate/STIM_018.jpg
1327.496	2.565	0	regulate	Run2	regulate/STIM_018.jpg
1332.847	2.175	1	regulate	Run2	regulate/STIM_018.jpg
1337.764	2.34	1	regulate	Run2	regulate/STIM_019.jpg
1342.334	1.733	0	regulate	Run2	regulate/STIM_019.jpg
1346.658	1.382	1	regulate	Run2	regulate/STIM_019.jpg
1350.435	1.116	1	regulate	Run2	regulate/STIM_019.jpg
1353.888	2.328	1	regulate	Run2	regulate/STIM_020.jpg
1359.649	2.684	1	regulate	Run2	regulate/STIM_020.jpg
1365.828	1.922	1	regulate	Run2	regulate/STIM_020.jpg
1371.703	1.394	1	regulate	Run2	regulate/STIM_020.jpg
1375.688	1.897	1	regulate	Run2	regulate/STIM_021.jpg
1379.844	2.758	1	regulate	Run2	regulate/STIM_021.jpg
1386.126	2.042	1	regulate	Run2	regulate/STIM_021.jpg
1391.214	2.396	1	regulate	Run2	regulate/STIM_021.jpg
1395.727	1.892	1	regulate	Run2	regulate/STIM_022.jpg
1400.71	1.324	1	regulate	Run2	regulate/STIM_022.jpg
1405.791	1.335	1	regulate	Run2	regulate/STIM_022.jpg
1410.394	2.221	0	regulate	Run2	regulate/STIM_022.jpg
1416.223	2.545	0	regulate	Run2	regulate/STIM_023.jpg
1421.165	1.509	1	regulate	Run2	regulate/STIM_023.jpg
1425.054	2.317	0	regulate	Run2	regulate/STIM_023.jpg
1431.322	1.16	1	regulate	Run2	regulate/STIM_023.jpg
1436.329	2.246	1	regulate	Run2	regulate/STIM_024.jpg
1442.077	2.098	0	regulate	Run2	regulate/STIM_024.jpg
1446.827	2.099	1	regulate	Run2	regulate/STIM_024.jpg
1451.493	2.394	1	regulate	Run2	regulate/STIM_024.jpg
1456.245	2.574	0	regulate	Run2	regulate/STIM_025.jpg
1462.188	2.1	1	regulate	Run2	regulate/STIM_025.jpg
1466.847	1.571	1	regulate	Run2	regulate/STIM_025.jpg
1471.577	1.556	1	regulate	Run2	regulate/STIM_025.jpg
1475.433	1.761	1	regulate	Run2	regulate/STIM_026.jpg
1480.446	1.799	1	regulate	Run2	regulate/STIM_026.jpg
1485.246	1.308	1	regulate	Run2	regulate/STIM_026.jpg
1490.124	1.768	1	regulate	Run2	regulate/STIM_026.jpg
1495.645	1.605	1	regulate	Run2	regulate/STIM_027.jpg
1500.139	1.917	1	regulate	Run2	regulate/STIM_027.jpg
1504.276	2.513	1	regulate	Run2	regulate/STIM_027.jpg
1509.065	1.056	1	regulate	Run2	regulate/STIM_027.jpg
1512.336	2.409	0	regulate	Run2	regulate/STIM_028.jpg
1517.884	2.196	1	regulate	Run2	regulate/STIM_028.jpg
1522.324	1.364	1	regulate	Run2	regulate/STIM_028.jpg
1527.329	1.621	0	regulate	Run2	regulate/STIM_028.jpg
1531.286	1.443	0	regulate	Run2	regulate/STIM_029.jpg
1536.289	2.652	1	regulate	Run2	regulate/STIM_029.jpg
1541.712	2.219	0	regulate	Run2	regulate/STIM_029.jpg
1547.828	2.296	1	regulate	Run2	regulate/STIM_029.jpg
1554.005	0.839	0	observe	Run2	observe/STIM_000.jpg
1558.018	0.919	1	observe	Run2	observe/STIM_000.jpg
1561.316	1.359	1	observe	Run2	observe/STIM_000.jpg
1565.752	1.226	0	observe	Run2	observe/STIM_000.jpg
1569.014	1.334	1	observe	Run2	observe/STIM_001.jpg
1572.536	1.309	1	observe	Run2	observe/STIM_001.jpg
1576.176	1.513	1	observe	Run2	observe/STIM_001.jpg
1580.372	1.256	1	observe	Run2	observe/STIM_001.jpg
1584.9	1.57	0	observe	Run2	observe/STIM_002.jpg
1588.898	1.515	1	observe	Run2	observe/STIM_002.jpg
1593.755	1.046	1	observe	Run2	observe/STIM_002.jpg
1597.201	0.836	1	observe	Run2	observe/STIM_002.jpg
1600.266	1.544	0	observe	Run2	observe/STIM_003.jpg
1605.097	1.292	1	observe	Run2	observe/STIM_003.jpg
1610.291	0.95	1	observe	Run2	observe/STIM_003.jpg
1614.098	1.504	1	observe	Run2	observe/STIM_003.jpg
1617.867	1.208	1	observe	Run2	observe/STIM_004.jpg
1621.841	0.91	1	observe	Run2	observe/STIM_004.jpg
1625.193	1.576	0	observe	Run2	observe/STIM_004.jpg
1630.556	1.452	1	observe	Run2	observe/STIM_004.jpg
1634.579	1.315	1	observe	Run2	observe/STIM_005.jpg
1639.769	1.502	1	observe	Run2	observe/STIM_005.jpg
1643.912	0.992	1	observe	Run2	observe/STIM_005.jpg
1647.53	1.106	1	observe	Run2	observe/STIM_005.jpg
1652.634	1.258	1	observe	Run2	observe/STIM_006.jpg
1656.024	0.86	1	observe	Run2	observe/STIM_006.jpg
1660.187	1.075	1	observe	Run2	observe/STIM_006.jpg
1664.982	0.951	0	observe	Run2	observe/STIM_006.jpg
1669.31	1.219	1	observe	Run2	observe/STIM_007.jpg
1672.669	1.127	1	observe	Run2	observe/STIM_007.jpg
1676.636	0.938	1	observe	Run2	observe/STIM_007.jpg
1681.046	1.203	0	observe	Run2	observe/STIM_007.jpg
1684.477	0.911	1	observe	Run2	observe/STIM_008.jpg
1688.534	1.192	1	observe	Run2	observe/STIM_008.jpg
1693.253	1.106	0	observe	Run2	observe/STIM_008.jpg
1697.825	1.014	1	observe	Run2	observe/STIM_008.jpg
1702.292	1.559	0	observe	Run2	observe/STIM_009.jpg
1706.805	1.389	0	observe	Run2	observe/STIM_009.jpg
1710.742	1.156	1	observe	Run2	observe/STIM_009.jpg
1714.403	0.934	1	observe	Run2	observe/STIM_009.jpg
1718.24	0.979	1	observe	Run2	observe/STIM_010.jpg
1721.791	1.287	0	observe	Run2	observe/STIM_010.jpg
1725.289	0.867	0	observe	Run2	observe/STIM_010.jpg
1729.375	1.222	1	observe	Run2	observe/STIM_010.jpg
1732.835	0.946	0	observe	Run2	observe/STIM_011.jpg
1736.62	1.072	1	observe	Run2	observe/STIM_011.jpg
1740.203	0.904	1	observe	Run2	observe/STIM_011.jpg
1743.222	1.14	1	observe	Run2	observe/STIM_011.jpg
1746.748	1.12	1	observe	Run2	observe/STIM_012.jpg
1749.927	1.465	1	observe	Run2	observe/STIM_012.jpg
1753.486	1.154	1	observe	Run2	observe/STIM_012.jpg
1756.737	1.38	1	observe	Run2	observe/STIM_012.jpg
1761.312	1.441	1	observe	Run2	observe/STIM_013.jpg
1764.883	1.156	1	observe	Run2	observe/STIM_013.jpg
1768.164	0.882	1	observe	Run2	observe/STIM_013.jpg
1772.295	1.204	1	observe	Run2	observe/STIM_013.jpg
1776.204	1.124	1	observe	Run2	observe/STIM_014.jpg
1780.086	1.018	1	observe	Run2	observe/STIM_014.jpg
1784.238	1.084	1	observe	Run2	observe/STIM_014.jpg
1787.466	1.063	1	observe	Run2	observe/STIM_014.jpg
1791.14	0.979	1	observe	Run2	observe/STIM_015.jpg
1795.276	0.824	1	observe	Run2	observe/STIM_015.jpg
1798.59	1.514	1	observe	Run2	observe/STIM_015.jpg
1802.206	0.892	1	observe	Run2	observe/STIM_015.jpg
1805.166	1.524	1	observe	Run2	observe/STIM_016.jpg
1810.171	1.218	1	observe	Run2	observe/STIM_016.jpg
1813.499	1.135	1	observe	Run2	observe/STIM_016.jpg
1817.397	0.861	1	observe	Run2	observe/STIM_016.jpg
1822.234	1.057	1	observe	Run2	observe/STIM_017.jpg
1827.105	1.522	1	observe	Run2	observe/STIM_017.jpg
1831.987	1.344	1	observe	Run2	observe/STIM_017.jpg
1836.726	1.535	1	observe	Run2	observe/STIM_017.jpg
1840.838	1.546	1	observe	Run2	observe/STIM_018.jpg
1845.723	1.392	1	observe	Run2	observe/STIM_018.jpg
1850.617	1.187	0	observe	Run2	observe/STIM_018.jpg
1854.867	1.086	1	observe	Run2	observe/STIM_018.jpg
1858.727	1.582	1	observe	Run2	observe/STIM_019.jpg
1863.903	1.282	1	observe	Run2	observe/STIM_019.jpg
1868.436	1.341	1	observe	Run2	observe/STIM_019.jpg
1872.989	0.813	1	observe	Run2	observe/STIM_019.jpg
1877.211	1.352	1	regulate	Run3	regulate/STIM_000.jpg
1881.409	1.49	1	regulate	Run3	regulate/STIM_000.jpg
1886.066	1.507	1	regulate	Run3	regulate/STIM_000.jpg
1890.555	1.171	1	regulate	Run3	regulate/STIM_000.jpg
1895.143	2.376	0	regulate	Run3	regulate/STIM_001.jpg
1900.074	1.606	1	regulate	Run3	regulate/STIM_001.jpg
1904.928	1.843	1	regulate	Run3	regulate/STIM_001.jpg
1909.251	1.652	1	regulate	Run3	regulate/STIM_001.jpg
1914.496	1.336	1	regulate	Run3	regulate/STIM_002.jpg
1919.67	1.934	1	regulate	Run3	regulate/STIM_002.jpg
1925.38	1.346	0	regulate	Run3	regulate/STIM_002.jpg
1928.864	1.116	1	regulate	Run3	regulate/STIM_002.jpg
1932.625	1.249	1	regulate	Run3	regulate/STIM_003.jpg
1937.703	1.578	1	regulate	Run3	regulate/STIM_003.jpg
1941.388	1.79	1	regulate	Run3	regulate/STIM_003.jpg
1946.976	1.873	1	regulate	Run3	regulate/STIM_003.jpg
1952.504	2.408	0	regulate	Run3	regulate/STIM_004.jpg
1958.308	2.268	1	regulate	Run3	regulate/STIM_004.jpg
1963.089	1.531	1	regulate	Run3	regulate/STIM_004.jpg
1967.814	1.22	1	regulate	Run3	regulate/STIM_004.jpg
1971.389	1.121	1	regulate	Run3	regulate/STIM_005.jpg
1976.346	1.824	1	regulate	Run3	regulate/STIM_005.jpg
1981.852	2.292	1	regulate	Run3	regulate/STIM_005.jpg
1987.609	1.85	1	regulate	Run3	regulate/STIM_005.jpg
1992.831	1.23	1	regulate	Run3	regulate/STIM_006.jpg
1997.364	2.08	0	regulate	Run3	regulate/STIM_006.jpg
2003.104	1.512	0	regulate	Run3	regulate/STIM_006.jpg
2006.822	1.537	1	regulate	Run3	regulate/STIM_006.jpg
2011.604	1.673	1	regulate	Run3	regulate/STIM_007.jpg
2015.939	1.91	1	regulate	Run3	regulate/STIM_007.jpg
2021.653	1.236	1	regulate	Run3	regulate/STIM_007.jpg
2024.919	1.597	1	regulate	Run3	regulate/STIM_007.jpg
2030.357	1.793	1	regulate	Run3	regulate/STIM_008.jpg
2034.354	1.937	1	regulate	Run3	regulate/STIM_008.jpg
2039.445	1.637	1	regulate	Run3	regulate/STIM_008.jpg
2044.485	1.483	1	regulate	Run3	regulate/STIM_008.jpg
2048.763	1.298	1	regulate	Run3	regulate/STIM_009.jpg
2053.253	1.986	1	regulate	Run3	regulate/STIM_009.jpg
2059.221	1.922	1	regulate	Run3	regulate/STIM_009.jpg
2064.413	2.121	0	regulate	Run3	regulate/STIM_009.jpg
2070.322	1.635	1	regulate	Run3	regulate/STIM_010.jpg
2075.131	1.878	1	regulate	Run3	regulate/STIM_010.jpg
2080.027	1.905	1	regulate	Run3	regulate/STIM_010.jpg
2083.997	2.182	1	regulate	Run3	regulate/STIM_010.jpg
2088.687	2.052	0	regulate	Run3	regulate/STIM_011.jpg
2094.661	1.894	1	regulate	Run3	regulate/STIM_011.jpg
2098.787	1.654	1	regulate	Run3	regulate/STIM_011.jpg
2103.703	1.799	1	regulate	Run3	regulate/STIM_011.jpg
2108.067	2.015	1	regulate	Run3	regulate/STIM_012.jpg
2112.255	1.566	1	regulate	Run3	regulate/STIM_012.jpg
2115.989	1.316	0	regulate	Run3	regulate/STIM_012.jpg
2119.79	2.002	1	regulate	Run3	regulate/STIM_012.jpg
2124.502	1.119	1	regulate	Run3	regulate/STIM_013.jpg
2129.428	1.573	1	regulate	Run3	regulate/STIM_013.jpg
2134.391	2.399	1	regulate	Run3	regulate/STIM_013.jpg
2140.446	1.638	1	regulate	Run3	regulate/STIM_013.jpg
2145.414	1.134	1	regulate	Run3	regulate/STIM_014.jpg
2148.723	2.252	1	regulate	Run3	regulate/STIM_014.jpg
2154.656	1.22	1	regulate	Run3	regulate/STIM_014.jpg
2159.779	2.052	1	regulate	Run3	regulate/STIM_014.jpg
2164.157	1.604	1	regulate	Run3	regulate/STIM_015.jpg
2168.464	1.785	1	regulate	Run3	regulate/STIM_015.jpg
2173.082	1.46	1	regulate	Run3	regulate/STIM_015.jpg
2178.091	1.696	1	regulate	Run3	regulate/STIM_015.jpg
2183.579	2.43	1	regulate	Run3	regulate/STIM_016.jpg
2188.08	1.827	1	regulate	Run3	regulate/STIM_016.jpg
2192.001	1.776	1	regulate	Run3	regulate/STIM_016.jpg
2197.68	2.16	1	regulate	Run3	regulate/STIM_016.jpg
2202.532	1.422	1	regulate	Run3	regulate/STIM_017.jpg
2207.217	2.258	1	regulate	Run3	regulate/STIM_017.jpg
2212.718	2.181	1	regulate	Run3	regulate/STIM_017.jpg
2218.429	1.18	1	regulate	Run3	regulate/STIM_017.jpg
2223.417	1.284	0	regulate	Run3	regulate/STIM_018.jpg
2228.476	1.255	1	regulate	Run3	regulate/STIM_018.jpg
2233.274	1.52	1	regulate	Run3	regulate/STIM_018.jpg
2237.326	1.238	1	regulate	Run3	regulate/STIM_018.jpg
2241.317	1.418	1	regulate	Run3	regulate/STIM_019.jpg
2244.906	2.199	1	regulate	Run3	regulate/STIM_019.jpg
2250.324	2.167	1	regulate	Run3	regulate/STIM_019.jpg
2256.282	1.243	1	regulate	Run3	regulate/STIM_019.jpg
2260.339	1.822	1	regulate	Run3	regulate/STIM_020.jpg
2264.488	1.078	1	regulate	Run3	regulate/STIM_020.jpg
2267.847	1.338	1	regulate	Run3	regulate/STIM_020.jpg
2272.091	1.921	1	regulate	Run3	regulate/STIM_020.jpg
2277.161	1.554	1	regulate	Run3	regulate/STIM_021.jpg
2282.288	2.028	1	regulate	Run3	regulate/STIM_021.jpg
2286.999	1.503	1	regulate	Run3	regulate/STIM_021.jpg
2291.965	1.903	1	regulate	Run3	regulate/STIM_021.jpg
2296.477	1.412	0	regulate	Run3	regulate/STIM_022.jpg
2300.735	2.088	0	regulate	Run3	regulate/STIM_022.jpg
2304.92	2.238	1	regulate	Run3	regulate/STIM_022.jpg
2309.491	1.295	1	regulate	Run3	regulate/STIM_022.jpg
2312.953	2.172	1	regulate	Run3	regulate/STIM_023.jpg
2318.14	1.395	1	regulate	Run3	regulate/STIM_023.jpg
2323.518	2.291	1	regulate	Run3	regulate/STIM_023.jpg
2329.521	2.355	1	regulate	Run3	regulate/STIM_023.jpg
2335.428	1.599	1	regulate	Run3	regulate/STIM_024.jpg
2340.639	1.819	1	regulate	Run3	regulate/STIM_024.jpg
2344.828	1.082	1	regulate	Run3	regulate/STIM_024.jpg
2349.514	2.415	1	regulate	Run3	regulate/STIM_024.jpg
2354.176	1.255	1	regulate	Run3	regulate/STIM_025.jpg
2358.613	2.045	1	regulate	Run3	regulate/STIM_025.jpg
2363.836	2.146	1	regulate	Run3	regulate/STIM_025.jpg
2368.273	1.229	1	regulate	Run3	regulate/STIM_025.jpg
2372.754	1.66	1	regulate	Run3	regulate/STIM_026.jpg
2376.757	2.027	1	regulate	Run3	regulate/STIM_026.jpg
2382.319	2.404	1	regulate	Run3	regulate/STIM_026.jpg
2388.465	2.011	1	regulate	Run3	regulate/STIM_026.jpg
2392.522	1.276	1	regulate	Run3	regulate/STIM_027.jpg
2396.956	1.726	1	regulate	Run3	regulate/STIM_027.jpg
2401.83	1.591	1	regulate	Run3	regulate/STIM_027.jpg
2406.546	1.516	1	regulate	Run3	regulate/STIM_027.jpg
2410.075	1.06	1	regulate	Run3	regulate/STIM_028.jpg
2413.286	1.265	1	regulate	Run3	regulate/STIM_028.jpg
2417.746	1.669	1	regulate	Run3	regulate/STIM_028.jpg
2422.502	1.152	1	regulate	Run3	regulate/STIM_028.jpg
2427.492	1.885	1	regulate	Run3	regulate/STIM_029.jpg
2432.519	1.345	1	regulate	Run3	regulate/STIM_029.jpg
2436.2	2.344	1	regulate	Run3	regulate/STIM_029.jpg
2442.332	1.635	1	regulate	Run3	regulate/STIM_029.jpg
2446.546	1.073	1	observe	Run3	observe/STIM_000.jpg
2450.992	1.472	1	observe	Run3	observe/STIM_000.jpg
2456.145	0.852	1	observe	Run3	observe/STIM_000.jpg
2460.989	1.367	1	observe	Run3	observe/STIM_000.jpg
2464.409	1.179	1	observe	Run3	observe/STIM_001.jpg
2469.502	0.806	1	observe	Run3	observe/STIM_001.jpg
2472.609	1.06	1	observe	Run3	observe/STIM_001.jpg
2476.935	1.271	0	observe	Run3	observe/STIM_001.jpg
2482.03	1.393	1	observe	Run3	observe/STIM_002.jpg
2486.382	1.409	1	observe	Run3	observe/STIM_002.jpg
2490.135	0.957	1	observe	Run3	observe/STIM_002.jpg
2494.239	1.113	1	observe	Run3	observe/STIM_002.jpg
2498.591	1.284	1	observe	Run3	observe/STIM_003.jpg
2503.422	1.439	1	observe	Run3	observe/STIM_003.jpg
2507.71	0.839	1	observe	Run3	observe/STIM_003.jpg
2510.624	0.827	1	observe	Run3	observe/STIM_003.jpg
2513.986	1.37	0	observe	Run3	observe/STIM_004.jpg
2519.045	0.862	1	observe	Run3	observe/STIM_004.jpg
2523.616	1.315	1	observe	Run3	observe/STIM_004.jpg
2527.22	1.023	1	observe	Run3	observe/STIM_004.jpg
2531.494	1.171	1	observe	Run3	observe/STIM_005.jpg
2535.879	0.984	1	observe	Run3	observe/STIM_005.jpg
2540.123	1.319	1	observe	Run3	observe/STIM_005.jpg
2545.146	1.45	0	observe	Run3	observe/STIM_005.jpg
2549.723	1.001	1	observe	Run3	observe/STIM_006.jpg
2553.146	0.842	1	observe	Run3	observe/STIM_006.jpg
2556.445	1.403	1	observe	Run3	observe/STIM_006.jpg
2560.439	0.914	1	observe	Run3	observe/STIM_006.jpg
2563.541	1.114	1	observe	Run3	observe/STIM_007.jpg
2567.751	1.128	1	observe	Run3	observe/STIM_007.jpg
2571.78	1.161	1	observe	Run3	observe/STIM_007.jpg
2576.158	0.841	1	observe	Run3	observe/STIM_007.jpg
2580.4	1.526	1	observe	Run3	observe/STIM_008.jpg
2584.007	1.482	1	observe	Run3	observe/STIM_008.jpg
2588.506	0.88	0	observe	Run3	observe/STIM_008.jpg
2593.014	1.57	1	observe	Run3	observe/STIM_008.jpg
2598.322	1.564	1	observe	Run3	observe/STIM_009.jpg
2603.219	0.962	1	observe	Run3	observe/STIM_009.jpg
2606.895	1.551	1	observe	Run3	observe/STIM_009.jpg
2611.398	1.45	1	observe	Run3	observe/STIM_009.jpg
2614.878	1.248	1	observe	Run3	observe/STIM_010.jpg
2619.472	0.854	0	observe	Run3	observe/STIM_010.jpg
2622.682	1.443	0	observe	Run3	observe/STIM_010.jpg
2627.785	1.146	1	observe	Run3	observe/STIM_010.jpg
2631.808	1.547	1	observe	Run3	observe/STIM_011.jpg
2635.512	1.542	1	observe	Run3	observe/STIM_011.jpg
2639.728	1.146	0	observe	Run3	observe/STIM_011.jpg
2643.278	1.373	1	observe	Run3	observe/STIM_011.jpg
2647.234	1.219	1	observe	Run3	observe/STIM_012.jpg
2650.721	1.264	1	observe	Run3	observe/STIM_012.jpg
2655.257	1.324	1	observe	Run3	observe/STIM_012.jpg
2659.817	1.588	0	observe	Run3	observe/STIM_012.jpg
2664.929	0.808	1	observe	Run3	observe/STIM_013.jpg
2669.388	0.923	1	observe	Run3	observe/STIM_013.jpg
2673.985	1.334	1	observe	Run3	observe/STIM_013.jpg
2678.937	1.454	1	observe	Run3	observe/STIM_013.jpg
2683.143	1.153	0	observe	Run3	observe/STIM_014.jpg
2687.01	1.44	1	observe	Run3	observe/STIM_014.jpg
2692.17	1.337	1	observe	Run3	observe/STIM_014.jpg
2696.38	1.382	1	observe	Run3	observe/STIM_014.jpg
2700.302	1.116	1	observe	Run3	observe/STIM_015.jpg
2703.609	1.257	1	observe	Run3	observe/STIM_015.jpg
2708.343	1.1	1	observe	Run3	observe/STIM_015.jpg
2712.596	1.133	1	observe	Run3	observe/STIM_015.jpg
2716.969	1.187	1	observe	Run3	observe/STIM_016.jpg
2720.587	0.857	0	observe	Run3	observe/STIM_016.jpg
2723.828	1.253	1	observe	Run3	observe/STIM_016.jpg
2727.648	1.104	1	observe	Run3	observe/STIM_016.jpg
2731.514	1.478	1	observe	Run3	observe/STIM_017.jpg
2735.467	1.307	1	observe	Run3	observe/STIM_017.jpg
2740.39	1.403	0	observe	Run3	observe/STIM_017.jpg
2744.47	1.194	1	observe	Run3	observe/STIM_017.jpg
2749.285	1.289	0	observe	Run3	observe/STIM_018.jpg
2753.642	1.552	1	observe	Run3	observe/STIM_018.jpg
2757.976	1.351	1	observe	Run3	observe/STIM_018.jpg
2762.514	1.242	1	observe	Run3	observe/STIM_018.jpg
2767.393	1.5	1	observe	Run3	observe/STIM_019.jpg
2772.421	1.096	1	observe	Run3	observe/STIM_019.jpg
2775.824	0.799	1	observe	Run3	observe/STIM_019.jpg
2779.369	1.419	0	observe	Run3	observe/STIM_019.jpg
