onset	duration	accuracy	trial_type	learning_stage	stimulus
0.0	1.088	correct	incongruent	Block1	incongruent/STIM_000.jpg
3.596	1.056	correct	incongruent	Block1	incongruent/STIM_000.jpg
8.329	0.853	correct	incongruent	Block1	incongruent/STIM_000.jpg
12.067	0.737	incorrect	incongruent	Block1	incongruent/STIM_000.jpg
16.364	0.666	correct	incongruent	Block1	incongruent/STIM_000.jpg
20.911	0.85	correct	incongruent	Block1	incongruent/STIM_001.jpg
23.821	0.978	incorrect	incongruent	Block1	incongruent/STIM_001.jpg
28.663	1.267	correct	incongruent	Block1	incongruent/STIM_001.jpg
32.7	1.192	correct	incongruent	Block1	incongruent/STIM_001.jpg
37.389	0.739	correct	incongruent	Block1	incongruent/STIM_001.jpg
40.916	0.882	incorrect	incongruent	Block1	incongruent/STIM_002.jpg
44.925	1.228	correct	incongruent	Block1	incongruent/STIM_002.jpg
49.604	1.158	correct	incongruent	Block1	incongruent/STIM_002.jpg
54.528	0.775	correct	incongruent	Block1	incongruent/STIM_002.jpg
58.448	1.011	correct	incongruent	Block1	incongruent/STIM_002.jpg
62.129	1.435	correct	incongruent	Block1	incongruent/STIM_003.jpg
67.233	0.831	correct	incongruent	Block1	incongruent/STIM_003.jpg
70.599	1.424	correct	incongruent	Block1	incongruent/STIM_003.jpg
74.511	1.084	correct	incongruent	Block1	incongruent/STIM_003.jpg
78.275	1.078	correct	incongruent	Block1	incongruent/STIM_003.jpg
82.368	1.226	correct	incongruent	Block1	incongruent/STIM_004.jpg
86.383	1.366	correct	incongruent	Block1	incongruent/STIM_004.jpg
91.027	1.033	correct	incongruent	Block1	incongruent/STIM_004.jpg
94.831	0.872	correct	incongruent	Block1	incongruent/STIM_004.jpg
97.712	0.661	correct	incongruent	Block1	incongruent/STIM_004.jpg
101.666	1.191	correct	incongruent	Block1	incongruent/STIM_005.jpg
106.711	0.976	correct	incongruent	Block1	incongruent/STIM_005.jpg
110.248	0.719	correct	incongruent	Block1	incongruent/STIM_005.jpg
113.782	1.094	correct	incongruent	Block1	incongruent/STIM_005.jpg
117.428	1.176	correct	incongruent	Block1	incongruent/STIM_005.jpg
121.643	1.302	correct	incongruent	Block1	incongruent/STIM_006.jpg
124.994	1.41	correct	incongruent	Block1	incongruent/STIM_006.jpg
129.128	0.842	correct	incongruent	Block1	incongruent/STIM_006.jpg
133.049	1.262	correct	incongruent	Block1	incongruent/STIM_006.jpg
137.209	1.258	correct	incongruent	Block1	incongruent/STIM_006.jpg
141.61	0.991	correct	incongruent	Block1	incongruent/STIM_007.jpg
144.746	0.741	incorrect	incongruent	Block1	incongruent/STIM_007.jpg
148.594	1.313	correct	incongruent	Block1	incongruent/STIM_007.jpg
152.069	1.054	correct	incongruent	Block1	incongruent/STIM_007.jpg
156.776	1.137	correct	incongruent	Block1	incongruent/STIM_007.jpg
160.512	0.919	incorrect	incongruent	Block1	incongruent/STIM_008.jpg
165.215	1.296	correct	incongruent	Block1	incongruent/STIM_008.jpg
169.918	1.032	correct	incongruent	Block1	incongruent/STIM_008.jpg
172.954	0.658	correct	incongruent	Block1	incongruent/STIM_008.jpg
176.295	1.078	correct	incongruent	Block1	incongruent/STIM_008.jpg
179.489	0.766	correct	incongruent	Block1	incongruent/STIM_009.jpg
183.607	0.873	correct	incongruent	Block1	incongruent/STIM_009.jpg
186.763	1.21	correct	incongruent	Block1	incongruent/STIM_009.jpg
190.341	0.662	correct	incongruent	Block1	incongruent/STIM_009.jpg
193.154	0.857	correct	incongruent	Block1	incongruent/STIM_009.jpg
196.944	1.265	correct	incongruent	Block1	incongruent/STIM_010.jpg
201.108	0.774	correct	incongruent	Block1	incongruent/STIM_010.jpg
205.81	0.915	correct	incongruent	Block1	incongruent/STIM_010.jpg
209.449	1.104	correct	incongruent	Block1	incongruent/STIM_010.jpg
214.248	1.073	correct	incongruent	Block1	incongruent/STIM_010.jpg
217.937	1.21	correct	incongruent	Block1	incongruent/STIM_011.jpg
221.855	1.421	correct	incongruent	Block1	incongruent/STIM_011.jpg
225.932	1.445	incorrect	incongruent	Block1	incongruent/STIM_011.jpg
230.849	1.266	correct	incongruent	Block1	incongruent/STIM_011.jpg
235.838	1.07	correct	incongruent	Block1	incongruent/STIM_011.jpg
239.075	1.574	correct	incongruent	Block1	incongruent/STIM_012.jpg
244.337	1.239	correct	incongruent	Block1	incongruent/STIM_012.jpg
248.583	1.358	correct	incongruent	Block1	incongruent/STIM_012.jpg
252.573	1.325	correct	incongruent	Block1	incongruent/STIM_012.jpg
257.629	0.755	correct	incongruent	Block1	incongruent/STIM_012.jpg
262.153	1.008	correct	incongruent	Block1	incongruent/STIM_013.jpg
265.701	0.714	correct	incongruent	Block1	incongruent/STIM_013.jpg
269.067	1.343	correct	incongruent	Block1	incongruent/STIM_013.jpg
273.321	1.326	correct	incongruent	Block1	incongruent/STIM_013.jpg
278.266	1.038	correct	incongruent	Block1	incongruent/STIM_013.jpg
283.03	1.321	incorrect	incongruent	Block1	incongruent/STIM_014.jpg
287.114	1.462	correct	incongruent	Block1	incongruent/STIM_014.jpg
292.34	0.955	correct	incongruent	Block1	incongruent/STIM_014.jpg
296.32	1.044	correct	incongruent	Block1	incongruent/STIM_014.jpg
300.284	1.205	correct	incongruent	Block1	incongruent/STIM_014.jpg
305.009	1.348	correct	incongruent	Block1	incongruent/STIM_015.jpg
309.039	0.937	correct	incongruent	Block1	incongruent/STIM_015.jpg
313.511	0.958	correct	incongruent	Block1	incongruent/STIM_015.jpg
317.603	0.674	correct	incongruent	Block1	incongruent/STIM_015.jpg
321.509	1.036	correct	incongruent	Block1	incongruent/STIM_015.jpg
326.149	0.788	correct	incongruent	Block1	incongruent/STIM_016.jpg
329.747	1.44	correct	incongruent	Block1	incongruent/STIM_016.jpg
333.437	1.096	correct	incongruent	Block1	incongruent/STIM_016.jpg
338.406	0.763	correct	incongruent	Block1	incongruent/STIM_016.jpg
342.805	1.046	incorrect	incongruent	Block1	incongruent/STIM_016.jpg
347.004	1.047	correct	incongruent	Block1	incongruent/STIM_017.jpg
351.827	0.951	correct	incongruent	Block1	incongruent/STIM_017.jpg
355.187	1.129	correct	incongruent	Block1	incongruent/STIM_017.jpg
358.607	0.697	correct	incongruent	Block1	incongruent/STIM_017.jpg
361.596	0.913	correct	incongruent	Block1	incongruent/STIM_017.jpg
366.135	0.947	correct	incongruent	Block1	incongruent/STIM_018.jpg
369.377	1.466	correct	incongruent	Block1	incongruent/STIM_018.jpg
374.456	1.23	correct	incongruent	Block1	incongruent/STIM_018.jpg
378.579	0.854	incorrect	incongruent	Block1	incongruent/STIM_018.jpg
382.175	1.07	correct	incongruent	Block1	incongruent/STIM_018.jpg
386.728	1.394	correct	incongruent	Block1	incongruent/STIM_019.jpg
391.019	1.188	correct	incongruent	Block1	incongruent/STIM_019.jpg
395.841	0.75	correct	incongruent	Block1	incongruent/STIM_019.jpg
399.913	0.812	correct	incongruent	Block1	incongruent/STIM_019.jpg
403.92	1.151	incorrect	incongruent	Block1	incongruent/STIM_019.jpg
408.558	1.228	correct	incongruent	Block1	incongruent/STIM_020.jpg
412.227	0.845	correct	incongruent	Block1	incongruent/STIM_020.jpg
415.906	1.085	correct	incongruent	Block1	incongruent/STIM_020.jpg
420.581	0.864	correct	incongruent	Block1	incongruent/STIM_020.jpg
424.086	1.167	correct	incongruent	Block1	incongruent/STIM_020.jpg
427.877	1.575	correct	incongruent	Block1	incongruent/STIM_021.jpg
431.414	1.396	correct	incongruent	Block1	incongruent/STIM_021.jpg
435.751	0.805	correct	incongruent	Block1	incongruent/STIM_021.jpg
438.78	0.97	correct	incongruent	Block1	incongruent/STIM_021.jpg
441.81	0.912	correct	incongruent	Block1	incongruent/STIM_021.jpg
444.787	1.11	correct	incongruent	Block1	incongruent/STIM_022.jpg
449.144	1.009	correct	incongruent	Block1	incongruent/STIM_022.jpg
453.054	0.829	correct	incongruent	Block1	incongruent/STIM_022.jpg
457.297	1.288	correct	incongruent	Block1	incongruent/STIM_022.jpg
461.942	1.206	correct	incongruent	Block1	incongruent/STIM_022.jpg
466.76	1.347	correct	incongruent	Block1	incongruent/STIM_023.jpg
470.21	1.295	correct	incongruent	Block1	incongruent/STIM_023.jpg
474.054	0.886	correct	incongruent	Block1	incongruent/STIM_023.jpg
477.979	1.23	correct	incongruent	Block1	incongruent/STIM_023.jpg
481.83	0.63	correct	incongruent	Block1	incongruent/STIM_023.jpg
484.453	1.587	correct	incongruent	Block1	incongruent/STIM_024.jpg
488.643	0.72	incorrect	incongruent	Block1	incongruent/STIM_024.jpg
492.422	0.982	correct	incongruent	Block1	incongruent/STIM_024.jpg
496.578	1.182	correct	incongruent	Block1	incongruent/STIM_024.jpg
500.414	0.862	correct	incongruent	Block1	incongruent/STIM_024.jpg
505.177	1.562	incorrect	incongruent	Block1	incongruent/STIM_025.jpg
509.132	0.929	correct	incongruent	Block1	incongruent/STIM_025.jpg
513.651	1.205	correct	incongruent	Block1	incongruent/STIM_025.jpg
518.068	1.34	correct	incongruent	Block1	incongruent/STIM_025.jpg
523.059	0.759	correct	incongruent	Block1	incongruent/STIM_025.jpg
527.468	1.341	incorrect	incongruent	Block1	incongruent/STIM_026.jpg
531.247	0.828	correct	incongruent	Block1	incongruent/STIM_026.jpg
534.969	0.893	correct	incongruent	Block1	incongruent/STIM_026.jpg
538.658	0.975	correct	incongruent	Block1	incongruent/STIM_026.jpg
542.381	0.789	correct	incongruent	Block1	incongruent/STIM_026.jpg
546.002	1.483	correct	incongruent	Block1	incongruent/STIM_027.jpg
550.742	0.781	correct	incongruent	Block1	incongruent/STIM_027.jpg
554.186	1.108	correct	incongruent	Block1	incongruent/STIM_027.jpg
559.031	1.166	correct	incongruent	Block1	incongruent/STIM_027.jpg
563.892	1.161	correct	incongruent	Block1	incongruent/STIM_027.jpg
567.085	1.492	correct	incongruent	Block1	incongruent/STIM_028.jpg
570.76	0.878	correct	incongruent	Block1	incongruent/STIM_028.jpg
574.117	1.436	correct	incongruent	Block1	incongruent/STIM_028.jpg
578.659	1.197	correct	incongruent	Block1	incongruent/STIM_028.jpg
583.444	0.81	correct	incongruent	Block1	incongruent/STIM_028.jpg
586.997	1.558	correct	incongruent	Block1	incongruent/STIM_029.jpg
591.458	1.462	correct	incongruent	Block1	incongruent/STIM_029.jpg
596.693	1.098	incorrect	incongruent	Block1	incongruent/STIM_029.jpg
601.118	1.025	correct	incongruent	Block1	incongruent/STIM_029.jpg
605.328	0.983	incorrect	incongruent	Block1	incongruent/STIM_029.jpg
609.375	0.96	correct	congruent	Block1	congruent/STIM_000.jpg
613.435	0.724	correct	congruent	Block1	congruent/STIM_000.jpg
616.326	0.685	correct	congruent	Block1	congruent/STIM_000.jpg
619.227	0.573	correct	congruent	Block1	congruent/STIM_000.jpg
623.715	0.851	correct	congruent	Block1	congruent/STIM_000.jpg
628.252	0.783	correct	congruent	Block1	congruent/STIM_001.jpg
631.782	0.787	correct	congruent	Block1	congruent/STIM_001.jpg
635.581	0.906	correct	congruent	Block1	congruent/STIM_001.jpg
640.006	0.664	incorrect	congruent	Block1	congruent/STIM_001.jpg
643.619	0.657	incorrect	congruent	Block1	congruent/STIM_001.jpg
646.262	0.614	correct	congruent	Block1	congruent/STIM_002.jpg
649.509	0.84	correct	congruent	Block1	congruent/STIM_002.jpg
653.915	0.721	correct	congruent	Block1	congruent/STIM_002.jpg
658.551	0.95	correct	congruent	Block1	congruent/STIM_002.jpg
661.822	0.628	correct	congruent	Block1	congruent/STIM_002.jpg
665.781	0.943	correct	congruent	Block1	congruent/STIM_003.jpg
669.898	0.577	correct	congruent	Block1	congruent/STIM_003.jpg
672.452	0.635	correct	congruent	Block1	congruent/STIM_003.jpg
675.311	0.948	correct	congruent	Block1	congruent/STIM_003.jpg
678.587	0.807	correct	congruent	Block1	congruent/STIM_003.jpg
682.04	0.88	correct	congruent	Block1	congruent/STIM_004.jpg
685.3	0.925	correct	congruent	Block1	congruent/STIM_004.jpg
688.366	0.617	correct	congruent	Block1	congruent/STIM_004.jpg
692.809	0.952	correct	congruent	Block1	congruent/STIM_004.jpg
697.577	0.855	correct	congruent	Block1	congruent/STIM_004.jpg
701.733	0.626	correct	congruent	Block1	congruent/STIM_005.jpg
704.745	0.843	correct	congruent	Block1	congruent/STIM_005.jpg
708.883	0.859	correct	congruent	Block1	congruent/STIM_005.jpg
713.563	0.871	correct	congruent	Block1	congruent/STIM_005.jpg
717.677	0.623	correct	congruent	Block1	congruent/STIM_005.jpg
721.197	0.909	correct	congruent	Block1	congruent/STIM_006.jpg
724.344	0.882	correct	congruent	Block1	congruent/STIM_006.jpg
728.253	0.936	correct	congruent	Block1	congruent/STIM_006.jpg
732.883	0.854	correct	congruent	Block1	congruent/STIM_006.jpg
737.565	0.854	correct	congruent	Block1	congruent/STIM_006.jpg
741.629	0.833	correct	congruent	Block1	congruent/STIM_007.jpg
745.263	0.827	incorrect	congruent	Block1	congruent/STIM_007.jpg
748.455	0.62	correct	congruent	Block1	congruent/STIM_007.jpg
751.685	0.872	correct	congruent	Block1	congruent/STIM_007.jpg
756.177	0.898	correct	congruent	Block1	congruent/STIM_007.jpg
760.932	0.61	correct	congruent	Block1	congruent/STIM_008.jpg
764.816	0.629	correct	congruent	Block1	congruent/STIM_008.jpg
767.489	0.588	correct	congruent	Block1	congruent/STIM_008.jpg
771.313	0.845	correct	congruent	Block1	congruent/STIM_008.jpg
775.832	0.64	correct	congruent	Block1	congruent/STIM_008.jpg
778.822	0.64	correct	congruent	Block1	congruent/STIM_009.jpg
783.143	0.583	correct	congruent	Block1	congruent/STIM_009.jpg
787.015	0.758	correct	congruent	Block1	congruent/STIM_009.jpg
790.196	0.711	correct	congruent	Block1	congruent/STIM_009.jpg
793.152	0.692	correct	congruent	Block1	congruent/STIM_009.jpg
796.175	0.543	correct	congruent	Block1	congruent/STIM_010.jpg
799.154	0.798	correct	congruent	Block1	congruent/STIM_010.jpg
803.572	0.816	correct	congruent	Block1	congruent/STIM_010.jpg
807.795	0.83	correct	congruent	Block1	congruent/STIM_010.jpg
811.108	0.878	correct	congruent	Block1	congruent/STIM_010.jpg
815.307	0.625	correct	congruent	Block1	congruent/STIM_011.jpg
818.26	0.918	correct	congruent	Block1	congruent/STIM_011.jpg
822.788	0.783	correct	congruent	Block1	congruent/STIM_011.jpg
826.703	0.693	correct	congruent	Block1	congruent/STIM_011.jpg
829.714	0.687	incorrect	congruent	Block1	congruent/STIM_011.jpg
833.906	0.578	correct	congruent	Block1	congruent/STIM_012.jpg
838.414	0.578	correct	congruent	Block1	congruent/STIM_012.jpg
841.639	0.796	correct	congruent	Block1	congruent/STIM_012.jpg
844.905	0.86	correct	congruent	Block1	congruent/STIM_012.jpg
848.699	0.946	correct	congruent	Block1	congruent/STIM_012.jpg
852.813	0.66	correct	congruent	Block1	congruent/STIM_013.jpg
856.116	0.643	correct	congruent	Block1	congruent/STIM_013.jpg
859.536	0.651	correct	congruent	Block1	congruent/STIM_013.jpg
862.27	0.759	correct	congruent	Block1	congruent/STIM_013.jpg
865.983	0.956	correct	congruent	Block1	congruent/STIM_013.jpg
869.713	0.931	correct	congruent	Block1	congruent/STIM_014.jpg
872.606	0.697	correct	congruent	Block1	congruent/STIM_014.jpg
875.942	0.806	correct	congruent	Block1	congruent/STIM_014.jpg
880.618	0.593	correct	congruent	Block1	congruent/STIM_014.jpg
884.638	0.676	correct	congruent	Block1	congruent/STIM_014.jpg
888.761	0.58	correct	congruent	Block1	congruent/STIM_015.jpg
892.565	0.631	correct	congruent	Block1	congruent/STIM_015.jpg
895.884	0.656	correct	congruent	Block1	congruent/STIM_015.jpg
899.683	0.57	correct	congruent	Block1	congruent/STIM_015.jpg
902.858	0.552	incorrect	congruent	Block1	congruent/STIM_015.jpg
907.116	0.551	correct	congruent	Block1	congruent/STIM_016.jpg
911.442	0.786	correct	congruent	Block1	congruent/STIM_016.jpg
914.603	0.823	correct	congruent	Block1	congruent/STIM_016.jpg
918.648	0.903	correct	congruent	Block1	congruent/STIM_016.jpg
922.255	0.689	correct	congruent	Block1	congruent/STIM_016.jpg
925.186	0.579	correct	congruent	Block1	congruent/STIM_017.jpg
928.628	0.617	correct	congruent	Block1	congruent/STIM_017.jpg
933.176	0.723	correct	congruent	Block1	congruent/STIM_017.jpg
936.917	0.595	correct	congruent	Block1	congruent/STIM_017.jpg
940.604	0.714	correct	congruent	Block1	congruent/STIM_017.jpg
943.857	0.54	correct	congruent	Block1	congruent/STIM_018.jpg
947.109	0.698	correct	congruent	Block1	congruent/STIM_018.jpg
951.728	0.82	correct	congruent	Block1	congruent/STIM_018.jpg
955.151	0.86	correct	congruent	Block1	congruent/STIM_018.jpg
959.0	0.689	correct	congruent	Block1	congruent/STIM_018.jpg
962.071	0.772	correct	congruent	Block1	congruent/STIM_019.jpg
965.688	0.873	correct	congruent	Block1	congruent/STIM_019.jpg
970.309	0.583	correct	congruent	Block1	congruent/STIM_019.jpg
973.659	0.816	correct	congruent	Block1	congruent/STIM_019.jpg
978.053	0.761	correct	congruent	Block1	congruent/STIM_019.jpg
982.201	0.637	correct	congruent	Block1	congruent/STIM_020.jpg
985.37	0.809	incorrect	congruent	Block1	congruent/STIM_020.jpg
988.928	0.824	correct	congruent	Block1	congruent/STIM_020.jpg
991.961	0.836	correct	congruent	Block1	congruent/STIM_020.jpg
996.37	0.883	correct	congruent	Block1	congruent/STIM_020.jpg
1000.623	0.582	correct	congruent	Block1	congruent/STIM_021.jpg
1004.39	0.898	correct	congruent	Block1	congruent/STIM_021.jpg
1008.479	0.757	correct	congruent	Block1	congruent/STIM_021.jpg
1011.957	0.845	correct	congruent	Block1	congruent/STIM_021.jpg
1016.593	0.656	correct	congruent	Block1	congruent/STIM_021.jpg
1020.815	0.76	correct	congruent	Block1	congruent/STIM_022.jpg
1025.377	0.877	correct	congruent	Block1	congruent/STIM_022.jpg
1028.392	0.698	correct	congruent	Block1	congruent/STIM_022.jpg
1031.893	0.538	correct	congruent	Block1	congruent/STIM_022.jpg
1034.782	0.739	correct	congruent	Block1	congruent/STIM_022.jpg
1038.51	0.601	correct	congruent	Block1	congruent/STIM_023.jpg
1042.23	0.914	correct	congruent	Block1	congruent/STIM_023.jpg
1046.813	0.627	correct	congruent	Block1	congruent/STIM_023.jpg
1050.885	0.759	correct	congruent	Block1	congruent/STIM_023.jpg
1055.503	0.656	correct	congruent	Block1	congruent/STIM_023.jpg
1059.295	0.876	correct	congruent	Block1	congruent/STIM_024.jpg
1063.154	0.669	correct	congruent	Block1	congruent/STIM_024.jpg
1066.593	0.589	correct	congruent	Block1	congruent/STIM_024.jpg
1070.607	0.678	correct	congruent	Block1	congruent/STIM_024.jpg
1074.551	0.547	correct	congruent	Block1	congruent/STIM_024.jpg
1078.282	0.879	correct	congruent	Block1	congruent/STIM_025.jpg
1081.8	0.731	correct	congruent	Block1	congruent/STIM_025.jpg
1085.466	0.766	correct	congruent	Block1	congruent/STIM_025.jpg
1088.511	0.633	incorrect	congruent	Block1	congruent/STIM_025.jpg
1091.778	0.793	correct	congruent	Block1	congruent/STIM_025.jpg
1095.112	0.661	correct	congruent	Block1	congruent/STIM_026.jpg
1099.29	0.661	correct	congruent	Block1	congruent/STIM_026.jpg
1102.64	0.732	correct	congruent	Block1	congruent/STIM_026.jpg
1105.745	0.591	correct	congruent	Block1	congruent/STIM_026.jpg
1109.38	0.81	correct	congruent	Block1	congruent/STIM_026.jpg
1112.607	0.632	correct	congruent	Block1	congruent/STIM_027.jpg
1116.378	0.88	correct	congruent	Block1	congruent/STIM_027.jpg
1120.664	0.846	correct	congruent	Block1	congruent/STIM_027.jpg
1124.997	0.712	correct	congruent	Block1	congruent/STIM_027.jpg
1129.369	0.939	correct	congruent	Block1	congruent/STIM_027.jpg
1133.26	0.846	correct	congruent	Block1	congruent/STIM_028.jpg
1136.42	0.745	correct	congruent	Block1	congruent/STIM_028.jpg
1139.481	0.814	correct	congruent	Block1	congruent/STIM_028.jpg
1143.626	0.596	correct	congruent	Block1	congruent/STIM_028.jpg
1147.49	0.875	correct	congruent	Block1	congruent/STIM_028.jpg
1150.453	0.878	correct	congruent	Block1	congruent/STIM_029.jpg
1153.654	0.73	correct	congruent	Block1	congruent/STIM_029.jpg
1156.477	0.707	correct	congruent	Block1	congruent/STIM_029.jpg
1160.809	0.838	correct	congruent	Block1	congruent/STIM_029.jpg
1165.265	0.577	correct	congruent	Block1	congruent/STIM_029.jpg
1168.023	1.014	correct	incongruent	Block2	incongruent/STIM_000.jpg
1171.992	1.261	correct	incongruent	Block2	incongruent/STIM_000.jpg
1175.948	0.576	correct	incongruent	Block2	incongruent/STIM_000.jpg
1180.4	0.609	correct	incongruent	Block2	incongruent/STIM_000.jpg
1183.749	0.566	correct	incongruent	Block2	incongruent/STIM_000.jpg
1188.243	0.814	correct	incongruent	Block2	incongruent/STIM_001.jpg
1192.95	0.789	correct	incongruent	Block2	incongruent/STIM_001.jpg
1197.593	0.648	correct	incongruent	Block2	incongruent/STIM_001.jpg
1202.165	1.012	correct	incongruent	Block2	incongruent/STIM_001.jpg
1206.664	0.774	correct	incongruent	Block2	incongruent/STIM_001.jpg
1210.882	0.926	correct	incongruent	Block2	incongruent/STIM_002.jpg
1214.036	1.185	correct	incongruent	Block2	incongruent/STIM_002.jpg
1217.157	0.65	correct	incongruent	Block2	incongruent/STIM_002.jpg
1220.849	0.574	correct	incongruent	Block2	incongruent/STIM_002.jpg
1223.764	1.014	correct	incongruent	Block2	incongruent/STIM_002.jpg
1227.25	0.987	incorrect	incongruent	Block2	incongruent/STIM_003.jpg
1230.237	1.055	correct	incongruent	Block2	incongruent/STIM_003.jpg
1233.63	0.868	correct	incongruent	Block2	incongruent/STIM_003.jpg
1237.476	0.775	correct	incongruent	Block2	incongruent/STIM_003.jpg
1240.445	1.094	correct	incongruent	Block2	incongruent/STIM_003.jpg
1244.622	0.759	correct	incongruent	Block2	incongruent/STIM_004.jpg
1247.636	1.232	correct	incongruent	Block2	incongruent/STIM_004.jpg
1251.568	0.898	correct	incongruent	Block2	incongruent/STIM_004.jpg
1255.314	1.075	correct	incongruent	Block2	incongruent/STIM_004.jpg
1260.073	0.632	correct	incongruent	Block2	incongruent/STIM_004.jpg
1264.544	0.707	correct	incongruent	Block2	incongruent/STIM_005.jpg
1267.387	1.067	correct	incongruent	Block2	incongruent/STIM_005.jpg
1271.275	0.84	correct	incongruent	Block2	incongruent/STIM_005.jpg
1274.599	0.966	correct	incongruent	Block2	incongruent/STIM_005.jpg
1278.08	0.582	correct	incongruent	Block2	incongruent/STIM_005.jpg
1281.125	0.738	correct	incongruent	Block2	incongruent/STIM_006.jpg
1284.578	0.635	correct	incongruent	Block2	incongruent/STIM_006.jpg
1287.557	0.76	correct	incongruent	Block2	incongruent/STIM_006.jpg
1290.359	0.894	correct	incongruent	Block2	incongruent/STIM_006.jpg
1294.911	0.754	correct	incongruent	Block2	incongruent/STIM_006.jpg
1299.291	0.924	correct	incongruent	Block2	incongruent/STIM_007.jpg
1303.93	0.9	correct	incongruent	Block2	incongruent/STIM_007.jpg
1307.724	0.713	correct	incongruent	Block2	incongruent/STIM_007.jpg
1312.215	1.058	correct	incongruent	Block2	incongruent/STIM_007.jpg
1316.697	0.886	correct	incongruent	Block2	incongruent/STIM_007.jpg
1320.422	1.141	incorrect	incongruent	Block2	incongruent/STIM_008.jpg
1324.966	1.041	correct	incongruent	Block2	incongruent/STIM_008.jpg
1329.57	0.646	correct	incongruent	Block2	incongruent/STIM_008.jpg
1334.13	0.806	correct	incongruent	Block2	incongruent/STIM_008.jpg
1338.634	0.673	correct	incongruent	Block2	incongruent/STIM_008.jpg
1341.929	0.814	correct	incongruent	Block2	incongruent/STIM_009.jpg
1346.264	1.07	correct	incongruent	Block2	incongruent/STIM_009.jpg
1350.368	0.616	correct	incongruent	Block2	incongruent/STIM_009.jpg
1353.248	0.966	correct	incongruent	Block2	incongruent/STIM_009.jpg
1357.527	1.009	correct	incongruent	Block2	incongruent/STIM_009.jpg
1362.284	1.191	correct	incongruent	Block2	incongruent/STIM_010.jpg
1365.897	1.254	correct	incongruent	Block2	incongruent/STIM_010.jpg
1371.048	0.856	correct	incongruent	Block2	incongruent/STIM_010.jpg
1375.562	0.612	correct	incongruent	Block2	incongruent/STIM_010.jpg
1378.599	0.69	correct	incongruent	Block2	incongruent/STIM_010.jpg
1381.732	1.002	correct	incongruent	Block2	incongruent/STIM_011.jpg
1386.057	0.988	correct	incongruent	Block2	incongruent/STIM_011.jpg
1389.558	0.674	correct	incongruent	Block2	incongruent/STIM_011.jpg
1392.24	0.536	correct	incongruent	Block2	incongruent/STIM_011.jpg
1395.094	0.686	correct	incongruent	Block2	incongruent/STIM_011.jpg
1397.83	1.111	correct	incongruent	Block2	incongruent/STIM_012.jpg
1401.543	0.933	correct	incongruent	Block2	incongruent/STIM_012.jpg
1405.656	1.03	correct	incongruent	Block2	incongruent/STIM_012.jpg
1409.951	1.064	correct	incongruent	Block2	incongruent/STIM_012.jpg
1414.044	0.684	correct	incongruent	Block2	incongruent/STIM_012.jpg
1418.155	1.175	correct	incongruent	Block2	incongruent/STIM_013.jpg
1422.351	1.247	correct	incongruent	Block2	incongruent/STIM_013.jpg
1425.787	0.866	incorrect	incongruent	Block2	incongruent/STIM_013.jpg
1429.547	0.666	correct	incongruent	Block2	incongruent/STIM_013.jpg
1433.406	0.602	correct	incongruent	Block2	incongruent/STIM_013.jpg
1436.884	1.093	correct	incongruent	Block2	incongruent/STIM_014.jpg
1440.981	1.262	incorrect	incongruent	Block2	incongruent/STIM_014.jpg
1445.438	1.06	correct	incongruent	Block2	incongruent/STIM_014.jpg
1448.87	0.821	correct	incongruent	Block2	incongruent/STIM_014.jpg
1452.876	1.044	correct	incongruent	Block2	incongruent/STIM_014.jpg
1457.634	0.844	correct	incongruent	Block2	incongruent/STIM_015.jpg
1460.969	0.66	correct	incongruent	Block2	incongruent/STIM_015.jpg
1464.538	0.63	correct	incongruent	Block2	incongruent/STIM_015.jpg
1468.515	0.818	correct	incongruent	Block2	incongruent/STIM_015.jpg
1472.565	0.82	correct	incongruent	Block2	incongruent/STIM_015.jpg
1476.251	1.314	correct	incongruent	Block2	incongruent/STIM_016.jpg
1480.973	0.61	correct	incongruent	Block2	incongruent/STIM_016.jpg
1485.11	0.745	correct	incongruent	Block2	incongruent/STIM_016.jpg
1488.439	0.911	correct	incongruent	Block2	incongruent/STIM_016.jpg
1492.553	0.691	correct	incongruent	Block2	incongruent/STIM_016.jpg
1496.203	0.884	correct	incongruent	Block2	incongruent/STIM_017.jpg
1499.714	0.948	correct	incongruent	Block2	incongruent/STIM_017.jpg
1503.566	1.047	correct	incongruent	Block2	incongruent/STIM_017.jpg
1508.512	0.845	correct	incongruent	Block2	incongruent/STIM_017.jpg
1512.201	0.738	correct	incongruent	Block2	incongruent/STIM_017.jpg
1516.83	0.793	correct	incongruent	Block2	incongruent/STIM_018.jpg
1520.695	1.044	correct	incongruent	Block2	incongruent/STIM_018.jpg
1524.955	0.688	correct	incongruent	Block2	incongruent/STIM_018.jpg
1529.244	0.791	correct	incongruent	Block2	incongruent/STIM_018.jpg
1533.594	0.876	correct	incongruent	Block2	incongruent/STIM_018.jpg
1537.508	0.828	correct	incongruent	Block2	incongruent/STIM_019.jpg
1541.023	1.11	correct	incongruent	Block2	incongruent/STIM_019.jpg
1544.441	0.575	correct	incongruent	Block2	incongruent/STIM_019.jpg
1548.712	0.666	correct	incongruent	Block2	incongruent/STIM_019.jpg
1552.262	0.831	correct	incongruent	Block2	incongruent/STIM_019.jpg
1556.812	1.322	correct	incongruent	Block2	incongruent/STIM_020.jpg
1560.994	0.854	correct	incongruent	Block2	incongruent/STIM_020.jpg
1564.854	0.593	correct	incongruent	Block2	incongruent/STIM_020.jpg
1569.131	0.836	correct	incongruent	Block2	incongruent/STIM_020.jpg
1572.027	1.089	correct	incongruent	Block2	incongruent/STIM_020.jpg
1575.775	0.667	correct	incongruent	Block2	incongruent/STIM_021.jpg
1580.163	0.614	correct	incongruent	Block2	incongruent/STIM_021.jpg
1583.113	0.838	correct	incongruent	Block2	incongruent/STIM_021.jpg
1586.752	0.62	correct	incongruent	Block2	incongruent/STIM_021.jpg
1590.399	0.637	correct	incongruent	Block2	incongruent/STIM_021.jpg
1593.694	0.977	correct	incongruent	Block2	incongruent/STIM_022.jpg
1596.968	1.255	correct	incongruent	Block2	incongruent/STIM_022.jpg
1600.435	1.041	correct	incongruent	Block2	incongruent/STIM_022.jpg
1603.991	0.649	correct	incongruent	Block2	incongruent/STIM_022.jpg
1607.78	1.088	correct	incongruent	Block2	incongruent/STIM_022.jpg
1611.353	1.295	correct	incongruent	Block2	incongruent/STIM_023.jpg
1616.308	0.869	correct	incongruent	Block2	incongruent/STIM_023.jpg
1619.78	0.822	correct	incongruent	Block2	incongruent/STIM_023.jpg
1624.415	0.725	correct	incongruent	Block2	incongruent/STIM_023.jpg
1628.409	0.784	correct	incongruent	Block2	incongruent/STIM_023.jpg
1631.976	0.946	correct	incongruent	Block2	incongruent/STIM_024.jpg
1636.386	1.099	correct	incongruent	Block2	incongruent/STIM_024.jpg
1641.214	0.65	correct	incongruent	Block2	incongruent/STIM_024.jpg
1645.104	0.576	correct	incongruent	Block2	incongruent/STIM_024.jpg
1648.975	0.683	correct	incongruent	Block2	incongruent/STIM_024.jpg
1652.078	1.186	correct	incongruent	Block2	incongruent/STIM_025.jpg
1655.565	1.08	correct	incongruent	Block2	incongruent/STIM_025.jpg
1659.549	1.094	correct	incongruent	Block2	incongruent/STIM_025.jpg
1664.331	0.951	correct	incongruent	Block2	incongruent/STIM_025.jpg
1668.462	0.884	correct	incongruent	Block2	incongruent/STIM_025.jpg
1672.604	1.356	correct	incongruent	Block2	incongruent/STIM_026.jpg
1677.148	1.101	correct	incongruent	Block2	incongruent/STIM_026.jpg
1681.898	0.733	correct	incongruent	Block2	incongruent/STIM_026.jpg
1686.317	1.01	correct	incongruent	Block2	incongruent/STIM_026.jpg
1689.844	0.66	correct	incongruent	Block2	incongruent/STIM_026.jpg
1694.274	0.982	correct	incongruent	Block2	incongruent/STIM_027.jpg
1698.333	0.89	correct	incongruent	Block2	incongruent/STIM_027.jpg
1702.874	0.772	correct	incongruent	Block2	incongruent/STIM_027.jpg
1706.011	0.858	correct	incongruent	Block2	incongruent/STIM_027.jpg
1709.807	0.578	correct	incongruent	Block2	incongruent/STIM_027.jpg
1713.016	0.763	correct	incongruent	Block2	incongruent/STIM_028.jpg
1715.871	0.919	correct	incongruent	Block2	incongruent/STIM_028.jpg
1720.124	1.179	correct	incongruent	Block2	incongruent/STIM_028.jpg
1724.62	0.957	correct	incongruent	Block2	incongruent/STIM_028.jpg
1728.739	1.036	correct	incongruent	Block2	incongruent/STIM_028.jpg
1733.282	1.243	correct	incongruent	Block2	incongruent/STIM_029.jpg
1738.049	1.022	correct	incongruent	Block2	incongruent/STIM_029.jpg
1742.872	0.782	correct	incongruent	Block2	incongruent/STIM_029.jpg
1746.518	1.021	correct	incongruent	Block2	incongruent/STIM_029.jpg
1751.433	0.874	correct	incongruent	Block2	incongruent/STIM_029.jpg
1755.492	0.921	correct	congruent	Block2	congruent/STIM_000.jpg
1758.605	0.664	correct	congruent	Block2	congruent/STIM_000.jpg
1761.944	0.887	correct	congruent	Block2	congruent/STIM_000.jpg
1765.168	0.678	incorrect	congruent	Block2	congruent/STIM_000.jpg
1769.6	0.927	correct	congruent	Block2	congruent/STIM_000.jpg
1772.852	0.687	correct	congruent	Block2	congruent/STIM_001.jpg
1777.152	0.886	correct	congruent	Block2	congruent/STIM_001.jpg
1780.501	0.671	correct	congruent	Block2	congruent/STIM_001.jpg
1783.921	0.944	correct	congruent	Block2	congruent/STIM_001.jpg
1787.584	0.852	correct	congruent	Block2	congruent/STIM_001.jpg
1791.113	0.833	correct	congruent	Block2	congruent/STIM_002.jpg
1794.481	0.594	incorrect	congruent	Block2	congruent/STIM_002.jpg
1798.307	0.878	correct	congruent	Block2	congruent/STIM_002.jpg
1802.692	0.962	correct	congruent	Block2	congruent/STIM_002.jpg
1806.684	0.823	correct	congruent	Block2	congruent/STIM_002.jpg
1811.12	0.891	correct	congruent	Block2	congruent/STIM_003.jpg
1815.556	0.894	correct	congruent	Block2	congruent/STIM_003.jpg
1818.68	0.552	correct	congruent	Block2	congruent/STIM_003.jpg
1823.118	0.841	correct	congruent	Block2	congruent/STIM_003.jpg
1826.449	0.537	correct	congruent	Block2	congruent/STIM_003.jpg
1830.81	0.601	correct	congruent	Block2	congruent/STIM_004.jpg
1833.762	0.874	correct	congruent	Block2	congruent/STIM_004.jpg
1837.338	0.589	correct	congruent	Block2	congruent/STIM_004.jpg
1841.531	0.574	correct	congruent	Block2	congruent/STIM_004.jpg
1845.964	0.901	correct	congruent	Block2	congruent/STIM_004.jpg
1850.056	0.95	correct	congruent	Block2	congruent/STIM_005.jpg
1854.068	0.783	correct	congruent	Block2	congruent/STIM_005.jpg
1858.128	0.574	correct	congruent	Block2	congruent/STIM_005.jpg
1862.211	0.618	correct	congruent	Block2	congruent/STIM_005.jpg
1866.626	0.892	correct	congruent	Block2	congruent/STIM_005.jpg
1871.111	0.948	correct	congruent	Block2	congruent/STIM_006.jpg
1875.21	0.854	correct	congruent	Block2	congruent/STIM_006.jpg
1878.824	0.537	correct	congruent	Block2	congruent/STIM_006.jpg
1881.644	0.708	correct	congruent	Block2	congruent/STIM_006.jpg
1885.621	0.642	correct	congruent	Block2	congruent/STIM_006.jpg
1888.904	0.698	correct	congruent	Block2	congruent/STIM_007.jpg
1892.519	0.538	correct	congruent	Block2	congruent/STIM_007.jpg
1896.389	0.729	correct	congruent	Block2	congruent/STIM_007.jpg
1899.135	0.9	correct	congruent	Block2	congruent/STIM_007.jpg
1903.402	0.59	correct	congruent	Block2	congruent/STIM_007.jpg
1907.395	0.887	correct	congruent	Block2	congruent/STIM_008.jpg
1910.845	0.619	correct	congruent	Block2	congruent/STIM_008.jpg
1914.499	0.727	correct	congruent	Block2	congruent/STIM_008.jpg
1917.963	0.839	correct	congruent	Block2	congruent/STIM_008.jpg
1921.922	0.642	correct	congruent	Block2	congruent/STIM_008.jpg
1924.627	0.742	correct	congruent	Block2	congruent/STIM_009.jpg
1929.116	0.684	correct	congruent	Block2	congruent/STIM_009.jpg
1932.814	0.951	correct	congruent	Block2	congruent/STIM_009.jpg
1936.695	0.75	correct	congruent	Block2	congruent/STIM_009.jpg
1940.883	0.957	correct	congruent	Block2	congruent/STIM_009.jpg
1945.117	0.676	correct	congruent	Block2	congruent/STIM_010.jpg
1949.491	0.671	correct	congruent	Block2	congruent/STIM_010.jpg
1953.138	0.923	correct	congruent	Block2	congruent/STIM_010.jpg
1957.814	0.614	correct	congruent	Block2	congruent/STIM_010.jpg
1960.678	0.641	correct	congruent	Block2	congruent/STIM_010.jpg
1963.509	0.827	correct	congruent	Block2	congruent/STIM_011.jpg
1968.127	0.765	correct	congruent	Block2	congruent/STIM_011.jpg
1972.014	0.613	correct	congruent	Block2	congruent/STIM_011.jpg
1976.565	0.795	correct	congruent	Block2	congruent/STIM_011.jpg
1980.142	0.874	correct	congruent	Block2	congruent/STIM_011.jpg
1984.761	0.698	correct	congruent	Block2	congruent/STIM_012.jpg
1989.158	0.908	correct	congruent	Block2	congruent/STIM_012.jpg
1993.696	0.661	correct	congruent	Block2	congruent/STIM_012.jpg
1998.009	0.592	correct	congruent	Block2	congruent/STIM_012.jpg
2001.545	0.697	correct	congruent	Block2	congruent/STIM_012.jpg
2005.077	0.796	correct	congruent	Block2	congruent/STIM_013.jpg
2008.424	0.823	correct	congruent	Block2	congruent/STIM_013.jpg
2012.236	0.583	correct	congruent	Block2	congruent/STIM_013.jpg
2015.673	0.705	correct	congruent	Block2	congruent/STIM_013.jpg
2018.66	0.738	correct	congruent	Block2	congruent/STIM_013.jpg
2023.257	0.795	correct	congruent	Block2	congruent/STIM_014.jpg
2026.63	0.693	correct	congruent	Block2	congruent/STIM_014.jpg
2030.237	0.936	correct	congruent	Block2	congruent/STIM_014.jpg
2034.95	0.934	correct	congruent	Block2	congruent/STIM_014.jpg
2039.754	0.864	correct	congruent	Block2	congruent/STIM_014.jpg
2042.562	0.561	correct	congruent	Block2	congruent/STIM_015.jpg
2045.52	0.81	correct	congruent	Block2	congruent/STIM_015.jpg
2048.893	0.797	correct	congruent	Block2	congruent/STIM_015.jpg
2051.969	0.884	correct	congruent	Block2	congruent/STIM_015.jpg
2054.866	0.794	incorrect	congruent	Block2	congruent/STIM_015.jpg
2058.583	0.893	incorrect	congruent	Block2	congruent/STIM_016.jpg
2062.956	0.773	correct	congruent	Block2	congruent/STIM_016.jpg
2066.942	0.887	correct	congruent	Block2	congruent/STIM_016.jpg
2071.304	0.701	correct	congruent	Block2	congruent/STIM_016.jpg
2075.458	0.686	correct	congruent	Block2	congruent/STIM_016.jpg
2078.567	0.909	correct	congruent	Block2	congruent/STIM_017.jpg
2082.733	0.61	correct	congruent	Block2	congruent/STIM_017.jpg
2087.128	0.928	correct	congruent	Block2	congruent/STIM_017.jpg
2090.18	0.722	correct	congruent	Block2	congruent/STIM_017.jpg
2093.568	0.835	correct	congruent	Block2	congruent/STIM_017.jpg
2097.988	0.604	correct	congruent	Block2	congruent/STIM_018.jpg
2102.166	0.84	correct	congruent	Block2	congruent/STIM_018.jpg
2106.309	0.596	correct	congruent	Block2	congruent/STIM_018.jpg
2110.332	0.95	correct	congruent	Block2	congruent/STIM_018.jpg
2113.556	0.942	correct	congruent	Block2	congruent/STIM_018.jpg
2117.449	0.595	correct	congruent	Block2	congruent/STIM_019.jpg
2120.337	0.805	correct	congruent	Block2	congruent/STIM_019.jpg
2123.415	0.577	correct	congruent	Block2	congruent/STIM_019.jpg
2127.838	0.739	correct	congruent	Block2	congruent/STIM_019.jpg
2131.882	0.934	correct	congruent	Block2	congruent/STIM_019.jpg
2136.3	0.612	correct	congruent	Block2	congruent/STIM_020.jpg
2139.671	0.865	correct	congruent	Block2	congruent/STIM_020.jpg
2143.753	0.876	correct	congruent	Block2	congruent/STIM_020.jpg
2147.217	0.803	correct	congruent	Block2	congruent/STIM_020.jpg
2151.153	0.722	correct	congruent	Block2	congruent/STIM_020.jpg
2155.036	0.7	correct	congruent	Block2	congruent/STIM_021.jpg
2159.084	0.838	correct	congruent	Block2	congruent/STIM_021.jpg
2163.336	0.659	correct	congruent	Block2	congruent/STIM_021.jpg
2167.687	0.556	correct	congruent	Block2	congruent/STIM_021.jpg
2170.518	0.551	correct	congruent	Block2	congruent/STIM_021.jpg
2174.432	0.821	incorrect	congruent	Block2	congruent/STIM_022.jpg
2178.458	0.641	correct	congruent	Block2	congruent/STIM_022.jpg
2182.298	0.657	correct	congruent	Block2	congruent/STIM_022.jpg
2185.233	0.828	correct	congruent	Block2	congruent/STIM_022.jpg
2188.113	0.842	correct	congruent	Block2	congruent/STIM_022.jpg
2191.861	0.753	correct	congruent	Block2	congruent/STIM_023.jpg
2194.786	0.67	correct	congruent	Block2	congruent/STIM_023.jpg
2198.61	0.881	correct	congruent	Block2	congruent/STIM_023.jpg
2202.174	0.771	correct	congruent	Block2	congruent/STIM_023.jpg
2206.792	0.773	correct	congruent	Block2	congruent/STIM_023.jpg
2211.441	0.792	correct	congruent	Block2	congruent/STIM_024.jpg
2215.346	0.626	correct	congruent	Block2	congruent/STIM_024.jpg
2218.434	0.958	correct	congruent	Block2	congruent/STIM_024.jpg
2223.17	0.701	correct	congruent	Block2	congruent/STIM_024.jpg
2226.534	0.542	correct	congruent	Block2	congruent/STIM_024.jpg
2229.817	0.627	correct	congruent	Block2	congruent/STIM_025.jpg
2234.012	0.851	correct	congruent	Block2	congruent/STIM_025.jpg
2237.053	0.912	correct	congruent	Block2	congruent/STIM_025.jpg
2241.572	0.609	correct	congruent	Block2	congruent/STIM_025.jpg
2245.695	0.819	correct	congruent	Block2	congruent/STIM_025.jpg
2249.149	0.74	correct	congruent	Block2	congruent/STIM_026.jpg
2253.012	0.715	correct	congruent	Block2	congruent/STIM_026.jpg
2255.916	0.956	correct	congruent	Block2	congruent/STIM_026.jpg
2260.142	0.903	correct	congruent	Block2	congruent/STIM_026.jpg
2263.625	0.922	correct	congruent	Block2	congruent/STIM_026.jpg
2268.333	0.55	correct	congruent	Block2	congruent/STIM_027.jpg
2272.769	0.573	correct	congruent	Block2	congruent/STIM_027.jpg
2276.591	0.816	correct	congruent	Block2	congruent/STIM_027.jpg
2280.316	0.904	correct	congruent	Block2	congruent/STIM_027.jpg
2284.142	0.696	correct	congruent	Block2	congruent/STIM_027.jpg
2288.455	0.905	correct	congruent	Block2	congruent/STIM_028.jpg
2292.644	0.83	correct	congruent	Block2	congruent/STIM_028.jpg
2295.758	0.629	correct	congruent	Block2	congruent/STIM_028.jpg
2298.367	0.889	correct	congruent	Block2	congruent/STIM_028.jpg
2302.442	0.634	correct	congruent	Block2	congruent/STIM_028.jpg
2305.832	0.86	correct	congruent	Block2	congruent/STIM_029.jpg
2310.039	0.768	correct	congruent	Block2	congruent/STIM_029.jpg
2313.392	0.715	incorrect	congruent	Block2	congruent/STIM_029.jpg
2317.734	0.834	correct	congruent	Block2	congruent/STIM_029.jpg
2321.366	0.873	correct	congruent	Block2	congruent/STIM_029.jpg
2325.027	0.813	correct	incongruent	Block3	incongruent/STIM_000.jpg
2329.688	0.653	correct	incongruent	Block3	incongruent/STIM_000.jpg
2333.805	0.761	correct	incongruent	Block3	incongruent/STIM_000.jpg
2337.955	1.008	correct	incongruent	Block3	incongruent/STIM_000.jpg
2342.286	0.617	correct	incongruent	Block3	incongruent/STIM_000.jpg
2345.215	0.736	correct	incongruent	Block3	incongruent/STIM_001.jpg
2348.88	0.992	correct	incongruent	Block3	incongruent/STIM_001.jpg
2353.5	0.638	correct	incongruent	Block3	incongruent/STIM_001.jpg
2357.519	0.629	correct	incongruent	Block3	incongruent/STIM_001.jpg
2361.809	1.114	correct	incongruent	Block3	incongruent/STIM_001.jpg
2365.955	0.875	correct	incongruent	Block3	incongruent/STIM_002.jpg
2369.917	0.749	correct	incongruent	Block3	incongruent/STIM_002.jpg
2373.347	0.528	correct	incongruent	Block3	incongruent/STIM_002.jpg
2377.81	0.584	correct	incongruent	Block3	incongruent/STIM_002.jpg
2381.514	0.935	correct	incongruent	Block3	incongruent/STIM_002.jpg
2385.297	0.555	incorrect	incongruent	Block3	incongruent/STIM_003.jpg
2388.808	0.702	correct	incongruent	Block3	incongruent/STIM_003.jpg
2392.405	0.954	correct	incongruent	Block3	incongruent/STIM_003.jpg
2396.644	1.05	correct	incongruent	Block3	incongruent/STIM_003.jpg
2399.901	0.624	correct	incongruent	Block3	incongruent/STIM_003.jpg
2404.303	0.845	correct	incongruent	Block3	incongruent/STIM_004.jpg
2408.274	0.937	correct	incongruent	Block3	incongruent/STIM_004.jpg
2412.851	1.096	correct	incongruent	Block3	incongruent/STIM_004.jpg
2416.267	0.644	correct	incongruent	Block3	incongruent/STIM_004.jpg
2419.34	0.695	correct	incongruent	Block3	incongruent/STIM_004.jpg
2422.707	0.921	correct	incongruent	Block3	incongruent/STIM_005.jpg
2425.992	0.611	correct	incongruent	Block3	incongruent/STIM_005.jpg
2430.113	1.01	correct	incongruent	Block3	incongruent/STIM_005.jpg
2433.055	1.038	correct	incongruent	Block3	incongruent/STIM_005.jpg
2436.575	0.751	correct	incongruent	Block3	incongruent/STIM_005.jpg
2440.343	0.869	correct	incongruent	Block3	incongruent/STIM_006.jpg
2443.277	0.726	correct	incongruent	Block3	incongruent/STIM_006.jpg
2446.295	0.695	correct	incongruent	Block3	incongruent/STIM_006.jpg
2449.817	0.946	correct	incongruent	Block3	incongruent/STIM_006.jpg
2454.414	0.91	correct	incongruent	Block3	incongruent/STIM_006.jpg
2457.282	0.625	correct	incongruent	Block3	incongruent/STIM_007.jpg
2460.522	0.902	correct	incongruent	Block3	incongruent/STIM_007.jpg
2465.36	0.656	correct	incongruent	Block3	incongruent/STIM_007.jpg
2469.124	0.548	correct	incongruent	Block3	incongruent/STIM_007.jpg
2472.509	0.993	correct	incongruent	Block3	incongruent/STIM_007.jpg
2475.549	0.8	correct	incongruent	Block3	incongruent/STIM_008.jpg
2480.276	0.59	correct	incongruent	Block3	incongruent/STIM_008.jpg
2483.514	0.969	correct	incongruent	Block3	incongruent/STIM_008.jpg
2487.423	1.005	correct	incongruent	Block3	incongruent/STIM_008.jpg
2490.369	0.882	correct	incongruent	Block3	incongruent/STIM_008.jpg
2494.253	0.768	correct	incongruent	Block3	incongruent/STIM_009.jpg
2498.532	0.998	correct	incongruent	Block3	incongruent/STIM_009.jpg
2501.487	0.713	correct	incongruent	Block3	incongruent/STIM_009.jpg
2505.011	0.947	incorrect	incongruent	Block3	incongruent/STIM_009.jpg
2508.386	0.97	correct	incongruent	Block3	incongruent/STIM_009.jpg
2512.486	1.015	correct	incongruent	Block3	incongruent/STIM_010.jpg
2515.872	0.776	correct	incongruent	Block3	incongruent/STIM_010.jpg
2520.063	0.738	correct	incongruent	Block3	incongruent/STIM_010.jpg
2523.99	0.882	correct	incongruent	Block3	incongruent/STIM_010.jpg
2527.439	1.007	correct	incongruent	Block3	incongruent/STIM_010.jpg
2532.126	1.09	correct	incongruent	Block3	incongruent/STIM_011.jpg
2536.901	1.066	correct	incongruent	Block3	incongruent/STIM_011.jpg
2541.67	1.068	correct	incongruent	Block3	incongruent/STIM_011.jpg
2546.222	0.931	correct	incongruent	Block3	incongruent/STIM_011.jpg
2549.465	1.124	correct	incongruent	Block3	incongruent/STIM_011.jpg
2553.127	0.862	correct	incongruent	Block3	incongruent/STIM_012.jpg
2557.871	0.557	correct	incongruent	Block3	incongruent/STIM_012.jpg
2562.204	0.65	correct	incongruent	Block3	incongruent/STIM_012.jpg
2564.94	1.039	correct	incongruent	Block3	incongruent/STIM_012.jpg
2569.094	0.618	correct	incongruent	Block3	incongruent/STIM_012.jpg
2572.06	0.936	correct	incongruent	Block3	incongruent/STIM_013.jpg
2575.214	0.604	correct	incongruent	Block3	incongruent/STIM_013.jpg
2578.928	0.811	correct	incongruent	Block3	incongruent/STIM_013.jpg
2582.107	0.965	correct	incongruent	Block3	incongruent/STIM_013.jpg
2585.644	0.993	correct	incongruent	Block3	incongruent/STIM_013.jpg
2589.579	0.718	correct	incongruent	Block3	incongruent/STIM_014.jpg
2593.929	1.049	correct	incongruent	Block3	incongruent/STIM_014.jpg
2598.096	0.892	correct	incongruent	Block3	incongruent/STIM_014.jpg
2601.39	0.775	correct	incongruent	Block3	incongruent/STIM_014.jpg
2605.533	0.665	correct	incongruent	Block3	incongruent/STIM_014.jpg
2609.691	1.061	correct	incongruent	Block3	incongruent/STIM_015.jpg
2612.748	0.95	correct	incongruent	Block3	incongruent/STIM_015.jpg
2616.312	0.676	correct	incongruent	Block3	incongruent/STIM_015.jpg
2620.817	0.835	incorrect	incongruent	Block3	incongruent/STIM_015.jpg
2623.702	0.937	correct	incongruent	Block3	incongruent/STIM_015.jpg
2628.525	0.851	correct	incongruent	Block3	incongruent/STIM_016.jpg
2631.388	0.806	correct	incongruent	Block3	incongruent/STIM_016.jpg
2636.064	1.075	correct	incongruent	Block3	incongruent/STIM_016.jpg
2640.855	0.919	correct	incongruent	Block3	incongruent/STIM_016.jpg
2644.336	0.964	correct	incongruent	Block3	incongruent/STIM_016.jpg
2648.998	0.807	correct	incongruent	Block3	incongruent/STIM_017.jpg
2652.284	1.01	correct	incongruent	Block3	incongruent/STIM_017.jpg
2656.016	0.649	correct	incongruent	Block3	incongruent/STIM_017.jpg
2660.081	0.538	correct	incongruent	Block3	incongruent/STIM_017.jpg
2663.07	0.713	correct	incongruent	Block3	incongruent/STIM_017.jpg
2666.242	0.977	correct	incongruent	Block3	incongruent/STIM_018.jpg
2669.791	1.025	correct	incongruent	Block3	incongruent/STIM_018.jpg
2673.399	0.925	correct	incongruent	Block3	incongruent/STIM_018.jpg
2676.653	1.052	correct	incongruent	Block3	incongruent/STIM_018.jpg
2680.107	0.666	correct	incongruent	Block3	incongruent/STIM_018.jpg
2682.918	0.968	correct	incongruent	Block3	incongruent/STIM_019.jpg
2687.656	0.671	correct	incongruent	Block3	incongruent/STIM_019.jpg
2690.417	0.742	correct	incongruent	Block3	incongruent/STIM_019.jpg
2693.634	1.027	correct	incongruent	Block3	incongruent/STIM_019.jpg
2697.28	0.912	correct	incongruent	Block3	incongruent/STIM_019.jpg
2701.183	0.527	correct	incongruent	Block3	incongruent/STIM_020.jpg
2704.154	0.799	correct	incongruent	Block3	incongruent/STIM_020.jpg
2708.155	0.62	correct	incongruent	Block3	incongruent/STIM_020.jpg
2711.78	1.017	correct	incongruent	Block3	incongruent/STIM_020.jpg
2715.076	0.571	correct	incongruent	Block3	incongruent/STIM_020.jpg
2717.796	1.105	correct	incongruent	Block3	incongruent/STIM_021.jpg
2720.871	1.104	incorrect	incongruent	Block3	incongruent/STIM_021.jpg
2724.279	1.014	correct	incongruent	Block3	incongruent/STIM_021.jpg
2728.191	1.023	correct	incongruent	Block3	incongruent/STIM_021.jpg
2732.447	0.538	correct	incongruent	Block3	incongruent/STIM_021.jpg
2736.757	0.943	correct	incongruent	Block3	incongruent/STIM_022.jpg
2741.277	0.682	correct	incongruent	Block3	incongruent/STIM_022.jpg
2743.95	0.729	correct	incongruent	Block3	incongruent/STIM_022.jpg
2747.881	0.772	correct	incongruent	Block3	incongruent/STIM_022.jpg
2752.42	0.61	correct	incongruent	Block3	incongruent/STIM_022.jpg
2755.797	0.973	correct	incongruent	Block3	incongruent/STIM_023.jpg
2759.365	1.08	correct	incongruent	Block3	incongruent/STIM_023.jpg
2762.982	0.913	correct	incongruent	Block3	incongruent/STIM_023.jpg
2766.971	1.022	correct	incongruent	Block3	incongruent/STIM_023.jpg
2771.794	0.654	correct	incongruent	Block3	incongruent/STIM_023.jpg
2776.182	1.067	correct	incongruent	Block3	incongruent/STIM_024.jpg
2780.181	0.583	correct	incongruent	Block3	incongruent/STIM_024.jpg
2783.186	0.872	correct	incongruent	Block3	incongruent/STIM_024.jpg
2787.596	0.772	correct	incongruent	Block3	incongruent/STIM_024.jpg
2790.552	0.843	correct	incongruent	Block3	incongruent/STIM_024.jpg
2793.449	0.984	correct	incongruent	Block3	incongruent/STIM_025.jpg
2797.216	0.818	correct	incongruent	Block3	incongruent/STIM_025.jpg
2800.069	0.709	correct	incongruent	Block3	incongruent/STIM_025.jpg
2802.917	1.078	correct	incongruent	Block3	incongruent/STIM_025.jpg
2806.605	0.958	correct	incongruent	Block3	incongruent/STIM_025.jpg
2810.22	0.924	correct	incongruent	Block3	incongruent/STIM_026.jpg
2813.096	1.025	correct	incongruent	Block3	incongruent/STIM_026.jpg
2817.936	0.988	correct	incongruent	Block3	incongruent/STIM_026.jpg
2821.687	0.569	correct	incongruent	Block3	incongruent/STIM_026.jpg
2826.009	0.775	correct	incongruent	Block3	incongruent/STIM_026.jpg
2830.107	0.622	correct	incongruent	Block3	incongruent/STIM_027.jpg
2834.594	0.754	correct	incongruent	Block3	incongruent/STIM_027.jpg
2837.33	0.611	correct	incongruent	Block3	incongruent/STIM_027.jpg
2841.807	1.042	correct	incongruent	Block3	incongruent/STIM_027.jpg
2844.865	0.983	correct	incongruent	Block3	incongruent/STIM_027.jpg
2849.65	1.024	correct	incongruent	Block3	incongruent/STIM_028.jpg
2853.626	0.592	correct	incongruent	Block3	incongruent/STIM_028.jpg
2856.539	0.747	correct	incongruent	Block3	incongruent/STIM_028.jpg
2861.047	1.046	correct	incongruent	Block3	incongruent/STIM_028.jpg
2864.268	1.014	correct	incongruent	Block3	incongruent/STIM_028.jpg
2868.224	0.634	correct	incongruent	Block3	incongruent/STIM_029.jpg
2871.416	1.032	correct	incongruent	Block3	incongruent/STIM_029.jpg
2875.822	0.886	correct	incongruent	Block3	incongruent/STIM_029.jpg
2879.786	0.721	correct	incongruent	Block3	incongruent/STIM_029.jpg
2882.53	0.693	correct	incongruent	Block3	incongruent/STIM_029.jpg
2886.199	0.938	correct	congruent	Block3	congruent/STIM_000.jpg
2890.61	0.558	correct	congruent	Block3	congruent/STIM_000.jpg
2895.095	0.946	correct	congruent	Block3	congruent/STIM_000.jpg
2899.1	0.952	correct	congruent	Block3	congruent/STIM_000.jpg
2902.91	0.898	correct	congruent	Block3	congruent/STIM_000.jpg
2907.095	0.68	correct	congruent	Block3	congruent/STIM_001.jpg
2911.042	0.643	correct	congruent	Block3	congruent/STIM_001.jpg
2914.258	0.72	correct	congruent	Block3	congruent/STIM_001.jpg
2917.799	0.693	correct	congruent	Block3	congruent/STIM_001.jpg
2921.472	0.909	correct	congruent	Block3	congruent/STIM_001.jpg
2925.225	0.67	correct	congruent	Block3	congruent/STIM_002.jpg
2929.569	0.595	correct	congruent	Block3	congruent/STIM_002.jpg
2932.864	0.868	correct	congruent	Block3	congruent/STIM_002.jpg
2935.956	0.931	incorrect	congruent	Block3	congruent/STIM_002.jpg
2940.493	0.855	correct	congruent	Block3	congruent/STIM_002.jpg
2944.538	0.942	correct	congruent	Block3	congruent/STIM_003.jpg
2948.108	0.639	correct	congruent	Block3	congruent/STIM_003.jpg
2952.619	0.717	correct	congruent	Block3	congruent/STIM_003.jpg
2956.85	0.835	correct	congruent	Block3	congruent/STIM_003.jpg
2960.125	0.952	correct	congruent	Block3	congruent/STIM_003.jpg
2964.898	0.932	correct	congruent	Block3	congruent/STIM_004.jpg
2968.793	0.962	correct	congruent	Block3	congruent/STIM_004.jpg
2973.517	0.832	correct	congruent	Block3	congruent/STIM_004.jpg
2976.881	0.596	correct	congruent	Block3	congruent/STIM_004.jpg
2980.437	0.642	correct	congruent	Block3	congruent/STIM_004.jpg
2984.805	0.855	correct	congruent	Block3	congruent/STIM_005.jpg
2989.39	0.71	correct	congruent	Block3	congruent/STIM_005.jpg
2993.76	0.64	correct	congruent	Block3	congruent/STIM_005.jpg
2998.094	0.78	correct	congruent	Block3	congruent/STIM_005.jpg
3002.29	0.865	correct	congruent	Block3	congruent/STIM_005.jpg
3005.129	0.602	correct	congruent	Block3	congruent/STIM_006.jpg
3008.424	0.661	correct	congruent	Block3	congruent/STIM_006.jpg
3012.332	0.803	correct	congruent	Block3	congruent/STIM_006.jpg
3016.049	0.704	correct	congruent	Block3	congruent/STIM_006.jpg
3020.586	0.881	correct	congruent	Block3	congruent/STIM_006.jpg
3024.949	0.91	correct	congruent	Block3	congruent/STIM_007.jpg
3028.985	0.587	correct	congruent	Block3	congruent/STIM_007.jpg
3031.609	0.583	correct	congruent	Block3	congruent/STIM_007.jpg
3034.576	0.929	correct	congruent	Block3	congruent/STIM_007.jpg
3039.24	0.639	correct	congruent	Block3	congruent/STIM_007.jpg
3042.376	0.871	correct	congruent	Block3	congruent/STIM_008.jpg
3046.527	0.796	correct	congruent	Block3	congruent/STIM_008.jpg
3050.574	0.654	correct	congruent	Block3	congruent/STIM_008.jpg
3053.945	0.9	correct	congruent	Block3	congruent/STIM_008.jpg
3058.697	0.787	incorrect	congruent	Block3	congruent/STIM_008.jpg
3063.324	0.806	correct	congruent	Block3	congruent/STIM_009.jpg
3066.178	0.573	correct	congruent	Block3	congruent/STIM_009.jpg
3070.599	0.794	correct	congruent	Block3	congruent/STIM_009.jpg
3075.009	0.758	correct	congruent	Block3	congruent/STIM_009.jpg
3079.076	0.66	correct	congruent	Block3	congruent/STIM_009.jpg
3083.639	0.677	correct	congruent	Block3	congruent/STIM_010.jpg
3087.176	0.671	correct	congruent	Block3	congruent/STIM_010.jpg
3090.313	0.914	correct	congruent	Block3	congruent/STIM_010.jpg
3093.167	0.9	correct	congruent	Block3	congruent/STIM_010.jpg
3096.215	0.678	correct	congruent	Block3	congruent/STIM_010.jpg
3100.518	0.579	correct	congruent	Block3	congruent/STIM_011.jpg
3104.532	0.838	correct	congruent	Block3	congruent/STIM_011.jpg
3107.48	0.742	correct	congruent	Block3	congruent/STIM_011.jpg
3111.63	0.964	correct	congruent	Block3	congruent/STIM_011.jpg
3114.555	0.628	correct	congruent	Block3	congruent/STIM_011.jpg
3118.804	0.6	correct	congruent	Block3	congruent/STIM_012.jpg
3121.741	0.605	correct	congruent	Block3	congruent/STIM_012.jpg
3125.65	0.964	correct	congruent	Block3	congruent/STIM_012.jpg
3129.028	0.733	correct	congruent	Block3	congruent/STIM_012.jpg
3131.978	0.874	correct	congruent	Block3	congruent/STIM_012.jpg
3136.382	0.681	correct	congruent	Block3	congruent/STIM_013.jpg
3139.23	0.571	correct	congruent	Block3	congruent/STIM_013.jpg
3143.639	0.869	correct	congruent	Block3	congruent/STIM_013.jpg
3147.625	0.935	incorrect	congruent	Block3	congruent/STIM_013.jpg
3152.153	0.733	correct	congruent	Block3	congruent/STIM_013.jpg
3156.79	0.569	correct	congruent	Block3	congruent/STIM_014.jpg
3160.744	0.597	correct	congruent	Block3	congruent/STIM_014.jpg
3164.839	0.872	correct	congruent	Block3	congruent/STIM_014.jpg
3168.217	0.71	correct	congruent	Block3	congruent/STIM_014.jpg
3171.212	0.628	correct	congruent	Block3	congruent/STIM_014.jpg
3175.647	0.603	correct	congruent	Block3	congruent/STIM_015.jpg
3179.792	0.961	correct	congruent	Block3	congruent/STIM_015.jpg
3183.964	0.799	correct	congruent	Block3	congruent/STIM_015.jpg
3187.673	0.906	correct	congruent	Block3	congruent/STIM_015.jpg
3191.06	0.657	correct	congruent	Block3	congruent/STIM_015.jpg
3195.125	0.545	correct	congruent	Block3	congruent/STIM_016.jpg
3199.616	0.565	correct	congruent	Block3	congruent/STIM_016.jpg
3202.878	0.697	incorrect	congruent	Block3	congruent/STIM_016.jpg
3206.436	0.552	correct	congruent	Block3	congruent/STIM_016.jpg
3209.244	0.938	correct	congruent	Block3	congruent/STIM_016.jpg
3213.338	0.573	correct	congruent	Block3	congruent/STIM_017.jpg
3216.046	0.615	correct	congruent	Block3	congruent/STIM_017.jpg
3219.609	0.575	correct	congruent	Block3	congruent/STIM_017.jpg
3224.046	0.67	correct	congruent	Block3	congruent/STIM_017.jpg
3227.339	0.721	correct	congruent	Block3	congruent/STIM_017.jpg
3231.118	0.859	correct	congruent	Block3	congruent/STIM_018.jpg
3234.881	0.624	correct	congruent	Block3	congruent/STIM_018.jpg
3239.368	0.683	correct	congruent	Block3	congruent/STIM_018.jpg
3243.06	0.684	correct	congruent	Block3	congruent/STIM_018.jpg
3247.552	0.791	correct	congruent	Block3	congruent/STIM_018.jpg
3251.029	0.678	correct	congruent	Block3	congruent/STIM_019.jpg
3253.802	0.74	correct	congruent	Block3	congruent/STIM_019.jpg
3257.881	0.568	correct	congruent	Block3	congruent/STIM_019.jpg
3261.66	0.679	correct	congruent	Block3	congruent/STIM_019.jpg
3265.6	0.81	correct	congruent	Block3	congruent/STIM_019.jpg
3268.643	0.567	correct	congruent	Block3	congruent/STIM_020.jpg
3272.614	0.573	correct	congruent	Block3	congruent/STIM_020.jpg
3276.623	0.63	correct	congruent	Block3	congruent/STIM_020.jpg
3279.873	0.63	correct	congruent	Block3	congruent/STIM_020.jpg
3283.818	0.549	correct	congruent	Block3	congruent/STIM_020.jpg
3287.325	0.585	correct	congruent	Block3	congruent/STIM_021.jpg
3291.126	0.862	correct	congruent	Block3	congruent/STIM_021.jpg
3294.634	0.963	correct	congruent	Block3	congruent/STIM_021.jpg
3298.372	0.787	correct	congruent	Block3	congruent/STIM_021.jpg
3302.144	0.645	correct	congruent	Block3	congruent/STIM_021.jpg
3305.492	0.805	correct	congruent	Block3	congruent/STIM_022.jpg
3308.409	0.748	incorrect	congruent	Block3	congruent/STIM_022.jpg
3311.786	0.962	correct	congruent	Block3	congruent/STIM_022.jpg
3316.495	0.713	correct	congruent	Block3	congruent/STIM_022.jpg
3320.441	0.642	correct	congruent	Block3	congruent/STIM_022.jpg
3323.281	0.654	correct	congruent	Block3	congruent/STIM_023.jpg
3327.626	0.962	correct	congruent	Block3	congruent/STIM_023.jpg
3331.977	0.806	correct	congruent	Block3	congruent/STIM_023.jpg
3334.799	0.594	correct	congruent	Block3	congruent/STIM_023.jpg
3337.522	0.871	correct	congruent	Block3	congruent/STIM_023.jpg
3340.886	0.656	correct	congruent	Block3	congruent/STIM_024.jpg
3344.362	0.798	correct	congruent	Block3	congruent/STIM_024.jpg
3349.027	0.573	correct	congruent	Block3	congruent/STIM_024.jpg
3352.249	0.742	correct	congruent	Block3	congruent/STIM_024.jpg
3356.368	0.767	correct	congruent	Block3	congruent/STIM_024.jpg
3360.726	0.789	correct	congruent	Block3	congruent/STIM_025.jpg
3364.671	0.751	incorrect	congruent	Block3	congruent/STIM_025.jpg
3368.756	0.89	correct	congruent	Block3	congruent/STIM_025.jpg
3372.419	0.893	correct	congruent	Block3	congruent/STIM_025.jpg
3375.759	0.671	correct	congruent	Block3	congruent/STIM_025.jpg
3379.137	0.597	correct	congruent	Block3	congruent/STIM_026.jpg
3383.649	0.736	correct	congruent	Block3	congruent/STIM_026.jpg
3387.226	0.564	correct	congruent	Block3	congruent/STIM_026.jpg
3391.366	0.926	correct	congruent	Block3	congruent/STIM_026.jpg
3395.985	0.868	correct	congruent	Block3	congruent/STIM_026.jpg
3399.569	0.648	correct	congruent	Block3	congruent/STIM_027.jpg
3402.358	0.96	correct	congruent	Block3	congruent/STIM_027.jpg
3406.716	0.561	incorrect	congruent	Block3	congruent/STIM_027.jpg
3409.934	0.617	correct	congruent	Block3	congruent/STIM_027.jpg
3413.241	0.965	correct	congruent	Block3	congruent/STIM_027.jpg
3416.951	0.747	correct	congruent	Block3	congruent/STIM_028.jpg
3420.381	0.861	correct	congruent	Block3	congruent/STIM_028.jpg
3424.871	0.76	correct	congruent	Block3	congruent/STIM_028.jpg
3428.652	0.551	correct	congruent	Block3	congruent/STIM_028.jpg
3432.483	0.838	correct	congruent	Block3	congruent/STIM_028.jpg
3435.417	0.74	correct	congruent	Block3	congruent/STIM_029.jpg
3439.215	0.698	correct	congruent	Block3	congruent/STIM_029.jpg
3443.102	0.571	correct	congruent	Block3	congruent/STIM_029.jpg
3445.666	0.916	correct	congruent	Block3	congruent/STIM_029.jpg
3448.579	0.822	correct	congruent	Block3	congruent/STIM_029.jpg
