onset	duration	response_time_ms	trial_type	learning_stage	stimulus	response_port
0.0	0.839	839.2	incongruent	Block1	incongruent/STIM_000.jpg	100
2.955	0.876	876.1	incongruent	Block1	incongruent/STIM_000.jpg	99
6.142	1.313	1313.1	incongruent	Block1	incongruent/STIM_000.jpg	100
11.293	0.775	774.9	incongruent	Block1	incongruent/STIM_000.jpg	100
16.002	0.595	594.9	incongruent	Block1	incongruent/STIM_000.jpg	100
20.317	0.705	704.9	incongruent	Block1	incongruent/STIM_001.jpg	99
24.818	1.376	1376.0	incongruent	Block1	incongruent/STIM_001.jpg	99
28.653	0.734	733.9	incongruent	Block1	incongruent/STIM_001.jpg	99
32.277	1.103	1103.0	incongruent	Block1	incongruent/STIM_001.jpg	99
35.828	1.182	1182.2	incongruent	Block1	incongruent/STIM_001.jpg	100
39.076	0.861	860.8	incongruent	Block1	incongruent/STIM_002.jpg	99
42.516	1.049	1049.0	incongruent	Block1	incongruent/STIM_002.jpg	99
45.918	0.749	749.1	incongruent	Block1	incongruent/STIM_002.jpg	99
49.343	1.12	1120.0	incongruent	Block1	incongruent/STIM_002.jpg	100
53.132	1.083	1082.7	incongruent	Block1	incongruent/STIM_002.jpg	99
56.713	0.75	749.6	incongruent	Block1	incongruent/STIM_003.jpg	99
60.436	0.73	730.1	incongruent	Block1	incongruent/STIM_003.jpg	100
63.57	1.255	1255.1	incongruent	Block1	incongruent/STIM_003.jpg	100
68.823	0.633	633.4	incongruent	Block1	incongruent/STIM_003.jpg	100
71.463	0.722	721.9	incongruent	Block1	incongruent/STIM_003.jpg	100
74.187	0.938	937.6	incongruent	Block1	incongruent/STIM_004.jpg	100
78.369	0.924	923.7	incongruent	Block1	incongruent/STIM_004.jpg	100
82.841	0.902	902.2	incongruent	Block1	incongruent/STIM_004.jpg	100
86.516	0.648	648.2	incongruent	Block1	incongruent/STIM_004.jpg	99
89.719	1.032	1032.4	incongruent	Block1	incongruent/STIM_004.jpg	99
93.394	1.028	1028.1	incongruent	Block1	incongruent/STIM_005.jpg	100
96.431	1.117	1116.9	incongruent	Block1	incongruent/STIM_005.jpg	99
99.981	1.0	1000.1	incongruent	Block1	incongruent/STIM_005.jpg	99
103.866	1.268	1268.2	incongruent	Block1	incongruent/STIM_005.jpg	100
108.336	1.184	1184.5	incongruent	Block1	incongruent/STIM_005.jpg	100
113.122	0.744	743.8	incongruent	Block1	incongruent/STIM_006.jpg	100
116.329	0.812	811.8	incongruent	Block1	incongruent/STIM_006.jpg	100
121.026	0.822	822.2	incongruent	Block1	incongruent/STIM_006.jpg	99
124.299	0.783	782.8	incongruent	Block1	incongruent/STIM_006.jpg	100
127.16	0.596	596.0	incongruent	Block1	incongruent/STIM_006.jpg	99
130.131	1.447	1447.2	incongruent	Block1	incongruent/STIM_007.jpg	99
134.207	0.819	818.7	incongruent	Block1	incongruent/STIM_007.jpg	99
137.795	0.671	670.8	incongruent	Block1	incongruent/STIM_007.jpg	100
140.87	0.644	643.9	incongruent	Block1	incongruent/STIM_007.jpg	99
144.354	1.164	1164.3	incongruent	Block1	incongruent/STIM_007.jpg	99
148.84	1.115	1115.1	incongruent	Block1	incongruent/STIM_008.jpg	100
152.865	1.18	1179.7	incongruent	Block1	incongruent/STIM_008.jpg	100
156.376	1.16	1159.7	incongruent	Block1	incongruent/STIM_008.jpg	99
160.688	1.208	1207.9	incongruent	Block1	incongruent/STIM_008.jpg	100
165.14	0.746	745.9	incongruent	Block1	incongruent/STIM_008.jpg	99
169.508	0.858	858.5	incongruent	Block1	incongruent/STIM_009.jpg	100
174.173	1.02	1020.0	incongruent	Block1	incongruent/STIM_009.jpg	100
177.66	0.871	871.3	incongruent	Block1	incongruent/STIM_009.jpg	99
181.247	0.706	706.0	incongruent	Block1	incongruent/STIM_009.jpg	99
185.815	0.941	941.2	incongruent	Block1	incongruent/STIM_009.jpg	100
190.732	1.359	1359.1	incongruent	Block1	incongruent/STIM_010.jpg	100
195.481	1.225	1225.4	incongruent	Block1	incongruent/STIM_010.jpg	100
200.301	0.731	730.6	incongruent	Block1	incongruent/STIM_010.jpg	99
204.4	1.059	1058.7	incongruent	Block1	incongruent/STIM_010.jpg	99
208.436	1.01	1009.9	incongruent	Block1	incongruent/STIM_010.jpg	99
212.571	1.208	1208.0	incongruent	Block1	incongruent/STIM_011.jpg	100
217.727	1.112	1112.2	incongruent	Block1	incongruent/STIM_011.jpg	99
221.492	0.831	830.6	incongruent	Block1	incongruent/STIM_011.jpg	100
226.094	0.756	755.9	incongruent	Block1	incongruent/STIM_011.jpg	100
229.85	1.186	1185.7	incongruent	Block1	incongruent/STIM_011.jpg	99
233.089	1.225	1225.4	incongruent	Block1	incongruent/STIM_012.jpg	100
237.045	1.123	1123.0	incongruent	Block1	incongruent/STIM_012.jpg	99
241.112	0.698	697.5	incongruent	Block1	incongruent/STIM_012.jpg	99
244.678	0.603	603.1	incongruent	Block1	incongruent/STIM_012.jpg	100
247.904	0.752	752.1	incongruent	Block1	incongruent/STIM_012.jpg	100
251.512	1.235	1234.8	incongruent	Block1	incongruent/STIM_013.jpg	99
254.985	1.223	1223.2	incongruent	Block1	incongruent/STIM_013.jpg	99
259.514	1.032	1031.5	incongruent	Block1	incongruent/STIM_013.jpg	99
264.263	0.921	920.6	incongruent	Block1	incongruent/STIM_013.jpg	100
268.807	1.134	1134.5	incongruent	Block1	incongruent/STIM_013.jpg	100
273.262	1.468	1468.1	incongruent	Block1	incongruent/STIM_014.jpg	99
276.817	0.75	749.7	incongruent	Block1	incongruent/STIM_014.jpg	100
281.006	0.977	976.7	incongruent	Block1	incongruent/STIM_014.jpg	99
285.78	1.032	1031.5	incongruent	Block1	incongruent/STIM_014.jpg	99
289.541	1.091	1090.6	incongruent	Block1	incongruent/STIM_014.jpg	99
293.902	0.867	867.1	incongruent	Block1	incongruent/STIM_015.jpg	99
297.118	0.927	926.8	incongruent	Block1	incongruent/STIM_015.jpg	99
300.802	0.648	647.6	incongruent	Block1	incongruent/STIM_015.jpg	100
305.216	0.908	908.4	incongruent	Block1	incongruent/STIM_015.jpg	100
308.768	1.047	1046.7	incongruent	Block1	incongruent/STIM_015.jpg	100
312.79	1.361	1360.9	incongruent	Block1	incongruent/STIM_016.jpg	100
317.895	1.122	1121.8	incongruent	Block1	incongruent/STIM_016.jpg	100
321.248	1.213	1213.4	incongruent	Block1	incongruent/STIM_016.jpg	100
325.638	0.838	837.9	incongruent	Block1	incongruent/STIM_016.jpg	99
329.228	1.053	1052.7	incongruent	Block1	incongruent/STIM_016.jpg	99
334.164	1.158	1158.3	incongruent	Block1	incongruent/STIM_017.jpg	99
338.988	0.687	686.7	incongruent	Block1	incongruent/STIM_017.jpg	99
342.196	1.162	1162.1	incongruent	Block1	incongruent/STIM_017.jpg	100
347.145	1.137	1137.0	incongruent	Block1	incongruent/STIM_017.jpg	100
350.387	0.872	872.2	incongruent	Block1	incongruent/STIM_017.jpg	100
354.726	1.058	1058.2	incongruent	Block1	incongruent/STIM_018.jpg	100
358.123	0.835	834.6	incongruent	Block1	incongruent/STIM_018.jpg	100
362.541	0.964	964.0	incongruent	Block1	incongruent/STIM_018.jpg	99
366.756	0.77	769.6	incongruent	Block1	incongruent/STIM_018.jpg	100
370.678	0.902	902.5	incongruent	Block1	incongruent/STIM_018.jpg	99
374.282	0.756	755.9	incongruent	Block1	incongruent/STIM_019.jpg	99
378.277	1.421	1421.1	incongruent	Block1	incongruent/STIM_019.jpg	100
382.508	1.245	1245.3	incongruent	Block1	incongruent/STIM_019.jpg	100
387.296	0.818	818.2	incongruent	Block1	incongruent/STIM_019.jpg	99
390.703	1.15	1149.5	incongruent	Block1	incongruent/STIM_019.jpg	99
394.023	0.723	723.2	incongruent	Block1	incongruent/STIM_020.jpg	100
398.658	1.263	1262.8	incongruent	Block1	incongruent/STIM_020.jpg	99
403.351	0.778	778.1	incongruent	Block1	incongruent/STIM_020.jpg	99
406.81	0.692	691.5	incongruent	Block1	incongruent/STIM_020.jpg	100
410.47	0.679	679.4	incongruent	Block1	incongruent/STIM_020.jpg	100
413.613	0.996	996.0	incongruent	Block1	incongruent/STIM_021.jpg	100
417.571	1.266	1266.5	incongruent	Block1	incongruent/STIM_021.jpg	100
420.856	0.95	949.6	incongruent	Block1	incongruent/STIM_021.jpg	100
423.931	0.706	706.3	incongruent	Block1	incongruent/STIM_021.jpg	100
427.076	0.778	778.5	incongruent	Block1	incongruent/STIM_021.jpg	99
430.42	0.844	844.0	incongruent	Block1	incongruent/STIM_022.jpg	100
434.39	1.127	1127.3	incongruent	Block1	incongruent/STIM_022.jpg	100
438.581	0.873	872.6	incongruent	Block1	incongruent/STIM_022.jpg	100
442.395	0.863	863.1	incongruent	Block1	incongruent/STIM_022.jpg	99
445.746	1.153	1152.9	incongruent	Block1	incongruent/STIM_022.jpg	100
448.95	1.119	1119.1	incongruent	Block1	incongruent/STIM_023.jpg	99
454.032	0.762	762.4	incongruent	Block1	incongruent/STIM_023.jpg	100
457.557	0.71	710.4	incongruent	Block1	incongruent/STIM_023.jpg	100
460.969	1.224	1224.0	incongruent	Block1	incongruent/STIM_023.jpg	99
464.878	0.923	922.8	incongruent	Block1	incongruent/STIM_023.jpg	99
468.012	1.257	1257.0	incongruent	Block1	incongruent/STIM_024.jpg	99
473.162	1.255	1255.0	incongruent	Block1	incongruent/STIM_024.jpg	100
478.191	1.089	1088.8	incongruent	Block1	incongruent/STIM_024.jpg	100
482.599	0.823	822.6	incongruent	Block1	incongruent/STIM_024.jpg	100
485.556	0.766	765.5	incongruent	Block1	incongruent/STIM_024.jpg	100
488.524	0.825	824.7	incongruent	Block1	incongruent/STIM_025.jpg	99
492.518	0.763	762.9	incongruent	Block1	incongruent/STIM_025.jpg	99
497.139	0.654	653.6	incongruent	Block1	incongruent/STIM_025.jpg	100
501.568	1.145	1145.2	incongruent	Block1	incongruent/STIM_025.jpg	100
505.451	0.816	816.2	incongruent	Block1	incongruent/STIM_025.jpg	99
508.763	1.137	1137.4	incongruent	Block1	incongruent/STIM_026.jpg	100
513.738	1.32	1320.1	incongruent	Block1	incongruent/STIM_026.jpg	100
517.185	1.152	1151.9	incongruent	Block1	incongruent/STIM_026.jpg	100
520.648	0.97	970.5	incongruent	Block1	incongruent/STIM_026.jpg	100
524.62	0.838	837.7	incongruent	Block1	incongruent/STIM_026.jpg	100
528.583	0.808	808.3	incongruent	Block1	incongruent/STIM_027.jpg	100
531.442	1.393	1393.1	incongruent	Block1	incongruent/STIM_027.jpg	100
535.102	1.122	1121.5	incongruent	Block1	incongruent/STIM_027.jpg	99
539.911	1.136	1135.6	incongruent	Block1	incongruent/STIM_027.jpg	100
543.771	0.926	926.0	incongruent	Block1	incongruent/STIM_027.jpg	100
547.62	1.478	1477.8	incongruent	Block1	incongruent/STIM_028.jpg	99
552.698	0.721	721.3	incongruent	Block1	incongruent/STIM_028.jpg	99
555.917	1.044	1043.8	incongruent	Block1	incongruent/STIM_028.jpg	99
560.297	1.061	1061.1	incongruent	Block1	incongruent/STIM_028.jpg	99
564.478	1.049	1048.6	incongruent	Block1	incongruent/STIM_028.jpg	100
568.401	0.781	780.9	incongruent	Block1	incongruent/STIM_029.jpg	99
572.615	1.094	1094.3	incongruent	Block1	incongruent/STIM_029.jpg	100
575.765	1.157	1157.2	incongruent	Block1	incongruent/STIM_029.jpg	99
579.181	1.253	1253.4	incongruent	Block1	incongruent/STIM_029.jpg	99
582.525	0.771	771.0	incongruent	Block1	incongruent/STIM_029.jpg	99
586.511	0.712	711.6	congruent	Block1	congruent/STIM_000.jpg	100
590.633	0.595	594.6	congruent	Block1	congruent/STIM_000.jpg	99
593.336	0.704	704.0	congruent	Block1	congruent/STIM_000.jpg	100
596.87	0.508	507.7	congruent	Block1	congruent/STIM_000.jpg	100
601.207	0.652	652.3	congruent	Block1	congruent/STIM_000.jpg	100
605.68	0.577	577.3	congruent	Block1	congruent/STIM_001.jpg	99
609.102	0.531	531.1	congruent	Block1	congruent/STIM_001.jpg	100
613.085	0.84	840.0	congruent	Block1	congruent/STIM_001.jpg	100
616.015	0.697	697.2	congruent	Block1	congruent/STIM_001.jpg	99
619.643	0.603	602.9	congruent	Block1	congruent/STIM_001.jpg	99
623.606	0.613	612.9	congruent	Block1	congruent/STIM_002.jpg	100
627.308	0.829	829.3	congruent	Block1	congruent/STIM_002.jpg	100
631.694	0.55	550.1	congruent	Block1	congruent/STIM_002.jpg	100
635.861	0.828	828.1	congruent	Block1	congruent/STIM_002.jpg	99
639.832	0.576	575.9	congruent	Block1	congruent/STIM_002.jpg	99
642.826	0.614	613.9	congruent	Block1	congruent/STIM_003.jpg	99
646.196	0.629	629.2	congruent	Block1	congruent/STIM_003.jpg	99
650.305	0.847	847.0	congruent	Block1	congruent/STIM_003.jpg	99
654.426	0.534	534.1	congruent	Block1	congruent/STIM_003.jpg	99
658.827	0.514	513.5	congruent	Block1	congruent/STIM_003.jpg	99
661.867	0.799	798.8	congruent	Block1	congruent/STIM_004.jpg	100
664.848	0.617	617.0	congruent	Block1	congruent/STIM_004.jpg	100
668.995	0.631	631.1	congruent	Block1	congruent/STIM_004.jpg	100
671.763	0.623	622.7	congruent	Block1	congruent/STIM_004.jpg	100
674.493	0.505	505.4	congruent	Block1	congruent/STIM_004.jpg	100
677.545	0.623	623.2	congruent	Block1	congruent/STIM_005.jpg	100
680.276	0.605	605.2	congruent	Block1	congruent/STIM_005.jpg	99
683.484	0.73	729.6	congruent	Block1	congruent/STIM_005.jpg	100
686.764	0.836	835.6	congruent	Block1	congruent/STIM_005.jpg	100
690.033	0.765	765.4	congruent	Block1	congruent/STIM_005.jpg	100
694.547	0.572	571.5	congruent	Block1	congruent/STIM_006.jpg	99
697.237	0.85	849.7	congruent	Block1	congruent/STIM_006.jpg	99
701.689	0.685	684.9	congruent	Block1	congruent/STIM_006.jpg	100
705.81	0.546	545.7	congruent	Block1	congruent/STIM_006.jpg	99
709.07	0.772	772.5	congruent	Block1	congruent/STIM_006.jpg	100
712.375	0.838	838.0	congruent	Block1	congruent/STIM_007.jpg	99
716.708	0.729	729.1	congruent	Block1	congruent/STIM_007.jpg	100
721.207	0.512	511.8	congruent	Block1	congruent/STIM_007.jpg	99
724.206	0.701	700.9	congruent	Block1	congruent/STIM_007.jpg	99
727.797	0.832	832.2	congruent	Block1	congruent/STIM_007.jpg	100
730.896	0.692	691.5	congruent	Block1	congruent/STIM_008.jpg	99
734.885	0.556	556.5	congruent	Block1	congruent/STIM_008.jpg	99
738.276	0.815	814.8	congruent	Block1	congruent/STIM_008.jpg	100
741.381	0.573	572.6	congruent	Block1	congruent/STIM_008.jpg	100
745.767	0.568	568.5	congruent	Block1	congruent/STIM_008.jpg	100
749.84	0.786	785.5	congruent	Block1	congruent/STIM_009.jpg	100
753.485	0.512	512.4	congruent	Block1	congruent/STIM_009.jpg	99
757.489	0.529	529.1	congruent	Block1	congruent/STIM_009.jpg	99
761.743	0.552	552.4	congruent	Block1	congruent/STIM_009.jpg	99
765.294	0.778	778.5	congruent	Block1	congruent/STIM_009.jpg	99
769.499	0.871	871.1	congruent	Block1	congruent/STIM_010.jpg	100
773.855	0.878	878.1	congruent	Block1	congruent/STIM_010.jpg	99
777.472	0.744	744.4	congruent	Block1	congruent/STIM_010.jpg	99
780.988	0.658	657.6	congruent	Block1	congruent/STIM_010.jpg	100
785.525	0.884	883.6	congruent	Block1	congruent/STIM_010.jpg	99
788.897	0.663	662.9	congruent	Block1	congruent/STIM_011.jpg	99
793.538	0.677	676.8	congruent	Block1	congruent/STIM_011.jpg	99
797.826	0.594	593.6	congruent	Block1	congruent/STIM_011.jpg	99
801.645	0.88	879.5	congruent	Block1	congruent/STIM_011.jpg	99
805.269	0.873	873.1	congruent	Block1	congruent/STIM_011.jpg	99
809.54	0.606	606.0	congruent	Block1	congruent/STIM_012.jpg	99
813.621	0.812	811.6	congruent	Block1	congruent/STIM_012.jpg	100
816.818	0.795	795.2	congruent	Block1	congruent/STIM_012.jpg	99
820.38	0.704	704.3	congruent	Block1	congruent/STIM_012.jpg	100
823.938	0.638	637.5	congruent	Block1	congruent/STIM_012.jpg	100
826.662	0.758	758.3	congruent	Block1	congruent/STIM_013.jpg	100
831.215	0.667	666.6	congruent	Block1	congruent/STIM_013.jpg	99
834.28	0.568	568.0	congruent	Block1	congruent/STIM_013.jpg	100
838.692	0.832	832.1	congruent	Block1	congruent/STIM_013.jpg	99
842.739	0.819	818.7	congruent	Block1	congruent/STIM_013.jpg	100
845.994	0.742	742.4	congruent	Block1	congruent/STIM_014.jpg	100
850.674	0.614	613.7	congruent	Block1	congruent/STIM_014.jpg	99
855.138	0.679	679.3	congruent	Block1	congruent/STIM_014.jpg	99
858.788	0.827	827.3	congruent	Block1	congruent/STIM_014.jpg	100
862.948	0.654	653.7	congruent	Block1	congruent/STIM_014.jpg	100
866.008	0.835	834.7	congruent	Block1	congruent/STIM_015.jpg	100
870.233	0.863	862.6	congruent	Block1	congruent/STIM_015.jpg	100
873.921	0.615	614.6	congruent	Block1	congruent/STIM_015.jpg	100
877.69	0.807	807.2	congruent	Block1	congruent/STIM_015.jpg	100
880.732	0.802	802.2	congruent	Block1	congruent/STIM_015.jpg	99
885.523	0.616	615.5	congruent	Block1	congruent/STIM_016.jpg	100
888.478	0.836	835.9	congruent	Block1	congruent/STIM_016.jpg	100
892.35	0.76	759.8	congruent	Block1	congruent/STIM_016.jpg	100
896.853	0.591	590.7	congruent	Block1	congruent/STIM_016.jpg	99
901.126	0.702	701.9	congruent	Block1	congruent/STIM_016.jpg	100
905.228	0.889	889.4	congruent	Block1	congruent/STIM_017.jpg	99
908.295	0.606	606.5	congruent	Block1	congruent/STIM_017.jpg	99
911.332	0.787	787.1	congruent	Block1	congruent/STIM_017.jpg	99
914.158	0.716	715.7	congruent	Block1	congruent/STIM_017.jpg	99
917.866	0.613	613.0	congruent	Block1	congruent/STIM_017.jpg	99
920.701	0.767	766.7	congruent	Block1	congruent/STIM_018.jpg	100
923.761	0.877	877.0	congruent	Block1	congruent/STIM_018.jpg	99
928.492	0.64	639.6	congruent	Block1	congruent/STIM_018.jpg	100
933.082	0.66	660.5	congruent	Block1	congruent/STIM_018.jpg	100
936.918	0.797	796.8	congruent	Block1	congruent/STIM_018.jpg	99
940.028	0.896	896.1	congruent	Block1	congruent/STIM_019.jpg	100
944.85	0.674	673.5	congruent	Block1	congruent/STIM_019.jpg	99
948.252	0.724	724.1	congruent	Block1	congruent/STIM_019.jpg	99
951.514	0.663	663.4	congruent	Block1	congruent/STIM_019.jpg	100
954.29	0.542	542.5	congruent	Block1	congruent/STIM_019.jpg	100
958.122	0.659	659.1	congruent	Block1	congruent/STIM_020.jpg	100
961.932	0.873	873.2	congruent	Block1	congruent/STIM_020.jpg	99
965.128	0.503	502.9	congruent	Block1	congruent/STIM_020.jpg	99
969.154	0.613	612.7	congruent	Block1	congruent/STIM_020.jpg	99
972.314	0.514	513.5	congruent	Block1	congruent/STIM_020.jpg	99
976.434	0.794	793.5	congruent	Block1	congruent/STIM_021.jpg	99
980.33	0.551	550.8	congruent	Block1	congruent/STIM_021.jpg	100
984.001	0.625	624.6	congruent	Block1	congruent/STIM_021.jpg	99
988.396	0.792	792.5	congruent	Block1	congruent/STIM_021.jpg	100
991.752	0.634	634.0	congruent	Block1	congruent/STIM_021.jpg	100
994.425	0.733	733.1	congruent	Block1	congruent/STIM_022.jpg	99
997.795	0.586	586.2	congruent	Block1	congruent/STIM_022.jpg	99
1002.126	0.849	849.0	congruent	Block1	congruent/STIM_022.jpg	99
1005.685	0.649	648.7	congruent	Block1	congruent/STIM_022.jpg	99
1008.49	0.846	846.0	congruent	Block1	congruent/STIM_022.jpg	100
1011.572	0.805	805.3	congruent	Block1	congruent/STIM_023.jpg	100
1016.12	0.9	900.2	congruent	Block1	congruent/STIM_023.jpg	99
1020.369	0.889	888.9	congruent	Block1	congruent/STIM_023.jpg	100
1025.128	0.821	820.7	congruent	Block1	congruent/STIM_023.jpg	99
1029.3	0.838	838.1	congruent	Block1	congruent/STIM_023.jpg	100
1033.916	0.882	881.9	congruent	Block1	congruent/STIM_024.jpg	100
1038.492	0.527	526.9	congruent	Block1	congruent/STIM_024.jpg	100
1042.812	0.823	823.2	congruent	Block1	congruent/STIM_024.jpg	100
1047.525	0.757	756.8	congruent	Block1	congruent/STIM_024.jpg	100
1050.702	0.679	679.2	congruent	Block1	congruent/STIM_024.jpg	100
1054.896	0.785	784.8	congruent	Block1	congruent/STIM_025.jpg	100
1058.492	0.58	579.7	congruent	Block1	congruent/STIM_025.jpg	99
1062.253	0.564	564.1	congruent	Block1	congruent/STIM_025.jpg	99
1066.619	0.761	760.7	congruent	Block1	congruent/STIM_025.jpg	100
1070.807	0.674	673.8	congruent	Block1	congruent/STIM_025.jpg	100
1074.066	0.586	586.3	congruent	Block1	congruent/STIM_026.jpg	99
1077.827	0.61	610.3	congruent	Block1	congruent/STIM_026.jpg	100
1082.404	0.752	752.1	congruent	Block1	congruent/STIM_026.jpg	100
1086.5	0.651	650.6	congruent	Block1	congruent/STIM_026.jpg	100
1089.852	0.74	740.1	congruent	Block1	congruent/STIM_026.jpg	100
1093.922	0.536	535.9	congruent	Block1	congruent/STIM_027.jpg	100
1097.993	0.622	622.4	congruent	Block1	congruent/STIM_027.jpg	99
1101.96	0.836	835.8	congruent	Block1	congruent/STIM_027.jpg	99
1106.58	0.884	884.4	congruent	Block1	congruent/STIM_027.jpg	99
1111.316	0.566	566.3	congruent	Block1	congruent/STIM_027.jpg	99
1114.334	0.844	843.7	congruent	Block1	congruent/STIM_028.jpg	99
1117.442	0.552	551.7	congruent	Block1	congruent/STIM_028.jpg	100
1121.962	0.664	663.5	congruent	Block1	congruent/STIM_028.jpg	99
1124.739	0.78	780.5	congruent	Block1	congruent/STIM_028.jpg	99
1129.035	0.758	757.5	congruent	Block1	congruent/STIM_028.jpg	100
1133.676	0.68	679.5	congruent	Block1	congruent/STIM_029.jpg	100
1138.176	0.688	688.0	congruent	Block1	congruent/STIM_029.jpg	100
1141.752	0.707	707.0	congruent	Block1	congruent/STIM_029.jpg	99
1144.82	0.529	528.6	congruent	Block1	congruent/STIM_029.jpg	100
1149.059	0.525	524.8	congruent	Block1	congruent/STIM_029.jpg	100
1152.124	0.79	790.0	incongruent	Block2	incongruent/STIM_000.jpg	99
1156.848	0.64	639.9	incongruent	Block2	incongruent/STIM_000.jpg	100
1160.606	0.636	635.6	incongruent	Block2	incongruent/STIM_000.jpg	99
1164.564	0.697	697.4	incongruent	Block2	incongruent/STIM_000.jpg	100
1168.503	0.507	506.7	incongruent	Block2	incongruent/STIM_000.jpg	99
1171.593	1.023	1023.4	incongruent	Block2	incongruent/STIM_001.jpg	99
1174.869	1.049	1049.4	incongruent	Block2	incongruent/STIM_001.jpg	100
1179.239	0.984	984.5	incongruent	Block2	incongruent/STIM_001.jpg	100
1182.441	0.612	612.0	incongruent	Block2	incongruent/STIM_001.jpg	99
1185.265	0.674	673.8	incongruent	Block2	incongruent/STIM_001.jpg	99
1188.849	1.042	1042.2	incongruent	Block2	incongruent/STIM_002.jpg	100
1192.457	0.587	587.2	incongruent	Block2	incongruent/STIM_002.jpg	100
1196.189	0.973	973.2	incongruent	Block2	incongruent/STIM_002.jpg	99
1200.219	1.021	1020.6	incongruent	Block2	incongruent/STIM_002.jpg	100
1203.555	0.925	925.0	incongruent	Block2	incongruent/STIM_002.jpg	99
1206.482	1.181	1181.1	incongruent	Block2	incongruent/STIM_003.jpg	99
1210.63	0.836	836.5	incongruent	Block2	incongruent/STIM_003.jpg	99
1215.313	0.773	773.1	incongruent	Block2	incongruent/STIM_003.jpg	99
1219.919	0.73	730.3	incongruent	Block2	incongruent/STIM_003.jpg	100
1223.198	0.696	695.7	incongruent	Block2	incongruent/STIM_003.jpg	100
1227.661	0.908	908.5	incongruent	Block2	incongruent/STIM_004.jpg	99
1232.193	0.648	647.5	incongruent	Block2	incongruent/STIM_004.jpg	100
1235.353	0.84	840.2	incongruent	Block2	incongruent/STIM_004.jpg	99
1238.904	0.99	989.9	incongruent	Block2	incongruent/STIM_004.jpg	99
1242.146	0.994	993.7	incongruent	Block2	incongruent/STIM_004.jpg	100
1245.424	1.254	1253.6	incongruent	Block2	incongruent/STIM_005.jpg	100
1248.724	1.138	1137.7	incongruent	Block2	incongruent/STIM_005.jpg	99
1252.122	0.625	625.4	incongruent	Block2	incongruent/STIM_005.jpg	100
1256.482	0.494	494.2	incongruent	Block2	incongruent/STIM_005.jpg	99
1260.715	0.89	890.1	incongruent	Block2	incongruent/STIM_005.jpg	100
1265.131	1.061	1061.3	incongruent	Block2	incongruent/STIM_006.jpg	99
1268.743	0.944	943.8	incongruent	Block2	incongruent/STIM_006.jpg	99
1273.182	0.606	606.0	incongruent	Block2	incongruent/STIM_006.jpg	100
1277.599	0.74	740.0	incongruent	Block2	incongruent/STIM_006.jpg	100
1280.72	0.54	539.9	incongruent	Block2	incongruent/STIM_006.jpg	99
1284.707	0.973	973.1	incongruent	Block2	incongruent/STIM_007.jpg	99
1288.36	0.814	813.5	incongruent	Block2	incongruent/STIM_007.jpg	100
1292.588	0.884	884.4	incongruent	Block2	incongruent/STIM_007.jpg	100
1296.469	0.954	954.3	incongruent	Block2	incongruent/STIM_007.jpg	99
1301.233	0.671	670.7	incongruent	Block2	incongruent/STIM_007.jpg	99
1304.407	1.19	1189.5	incongruent	Block2	incongruent/STIM_008.jpg	99
1309.591	0.97	970.5	incongruent	Block2	incongruent/STIM_008.jpg	100
1312.833	0.809	809.1	incongruent	Block2	incongruent/STIM_008.jpg	100
1315.9	0.518	517.5	incongruent	Block2	incongruent/STIM_008.jpg	99
1319.685	1.036	1036.0	incongruent	Block2	incongruent/STIM_008.jpg	99
1323.624	0.984	984.2	incongruent	Block2	incongruent/STIM_009.jpg	100
1326.853	1.138	1137.9	incongruent	Block2	incongruent/STIM_009.jpg	100
1331.05	0.987	987.0	incongruent	Block2	incongruent/STIM_009.jpg	99
1335.668	0.883	882.6	incongruent	Block2	incongruent/STIM_009.jpg	100
1340.25	1.002	1001.6	incongruent	Block2	incongruent/STIM_009.jpg	99
1344.551	0.994	993.5	incongruent	Block2	incongruent/STIM_010.jpg	100
1348.559	0.797	796.9	incongruent	Block2	incongruent/STIM_010.jpg	100
1352.163	0.958	958.2	incongruent	Block2	incongruent/STIM_010.jpg	100
1356.305	0.734	734.4	incongruent	Block2	incongruent/STIM_010.jpg	100
1359.562	0.85	849.5	incongruent	Block2	incongruent/STIM_010.jpg	100
1362.69	0.696	695.9	incongruent	Block2	incongruent/STIM_011.jpg	100
1365.389	0.941	941.3	incongruent	Block2	incongruent/STIM_011.jpg	99
1368.492	0.98	980.0	incongruent	Block2	incongruent/STIM_011.jpg	100
1371.966	0.973	973.0	incongruent	Block2	incongruent/STIM_011.jpg	100
1375.312	0.783	782.9	incongruent	Block2	incongruent/STIM_011.jpg	99
1379.678	0.756	755.7	incongruent	Block2	incongruent/STIM_012.jpg	99
1383.389	1.175	1175.1	incongruent	Block2	incongruent/STIM_012.jpg	100
1387.285	0.593	593.1	incongruent	Block2	incongruent/STIM_012.jpg	100
1391.124	0.703	703.0	incongruent	Block2	incongruent/STIM_012.jpg	99
1395.677	0.818	817.8	incongruent	Block2	incongruent/STIM_012.jpg	99
1398.987	1.269	1269.1	incongruent	Block2	incongruent/STIM_013.jpg	100
1403.322	0.8	799.9	incongruent	Block2	incongruent/STIM_013.jpg	100
1407.899	0.63	629.9	incongruent	Block2	incongruent/STIM_013.jpg	100
1410.998	0.615	615.2	incongruent	Block2	incongruent/STIM_013.jpg	99
1415.497	1.0	1000.0	incongruent	Block2	incongruent/STIM_013.jpg	99
1419.552	1.144	1144.5	incongruent	Block2	incongruent/STIM_014.jpg	100
1424.292	1.063	1063.3	incongruent	Block2	incongruent/STIM_014.jpg	100
1427.78	0.609	609.4	incongruent	Block2	incongruent/STIM_014.jpg	100
1431.689	0.811	811.4	incongruent	Block2	incongruent/STIM_014.jpg	100
1435.607	0.996	995.5	incongruent	Block2	incongruent/STIM_014.jpg	100
1439.631	0.725	724.7	incongruent	Block2	incongruent/STIM_015.jpg	100
1443.615	0.65	650.2	incongruent	Block2	incongruent/STIM_015.jpg	100
1447.856	0.9	900.5	incongruent	Block2	incongruent/STIM_015.jpg	99
1451.639	0.738	737.9	incongruent	Block2	incongruent/STIM_015.jpg	99
1455.019	0.842	842.1	incongruent	Block2	incongruent/STIM_015.jpg	99
1459.567	0.852	851.5	incongruent	Block2	incongruent/STIM_016.jpg	100
1463.754	0.564	563.5	incongruent	Block2	incongruent/STIM_016.jpg	99
1467.17	0.706	705.5	incongruent	Block2	incongruent/STIM_016.jpg	99
1470.289	0.868	867.8	incongruent	Block2	incongruent/STIM_016.jpg	100
1474.419	0.855	854.8	incongruent	Block2	incongruent/STIM_016.jpg	99
1478.289	0.929	929.1	incongruent	Block2	incongruent/STIM_017.jpg	99
1482.398	0.833	833.4	incongruent	Block2	incongruent/STIM_017.jpg	100
1485.726	0.567	566.8	incongruent	Block2	incongruent/STIM_017.jpg	99
1489.081	0.686	686.1	incongruent	Block2	incongruent/STIM_017.jpg	99
1492.086	0.795	794.8	incongruent	Block2	incongruent/STIM_017.jpg	100
1496.113	0.652	652.0	incongruent	Block2	incongruent/STIM_018.jpg	99
1499.51	1.067	1066.7	incongruent	Block2	incongruent/STIM_018.jpg	100
1504.201	0.644	644.0	incongruent	Block2	incongruent/STIM_018.jpg	99
1507.359	0.731	730.9	incongruent	Block2	incongruent/STIM_018.jpg	100
1511.555	0.762	761.5	incongruent	Block2	incongruent/STIM_018.jpg	99
1514.844	1.126	1126.0	incongruent	Block2	incongruent/STIM_019.jpg	100
1519.5	0.641	640.9	incongruent	Block2	incongruent/STIM_019.jpg	99
1524.074	0.652	652.0	incongruent	Block2	incongruent/STIM_019.jpg	99
1526.825	0.61	609.5	incongruent	Block2	incongruent/STIM_019.jpg	100
1530.338	1.005	1004.7	incongruent	Block2	incongruent/STIM_019.jpg	99
1534.963	0.874	874.5	incongruent	Block2	incongruent/STIM_020.jpg	100
1538.392	0.724	724.4	incongruent	Block2	incongruent/STIM_020.jpg	100
1541.589	0.762	761.9	incongruent	Block2	incongruent/STIM_020.jpg	100
1544.781	0.929	929.3	incongruent	Block2	incongruent/STIM_020.jpg	99
1548.492	0.846	845.5	incongruent	Block2	incongruent/STIM_020.jpg	100
1553.13	0.619	619.3	incongruent	Block2	incongruent/STIM_021.jpg	99
1557.476	0.639	639.2	incongruent	Block2	incongruent/STIM_021.jpg	100
1562.054	0.818	817.5	incongruent	Block2	incongruent/STIM_021.jpg	99
1566.222	0.556	555.6	incongruent	Block2	incongruent/STIM_021.jpg	99
1570.034	0.961	961.0	incongruent	Block2	incongruent/STIM_021.jpg	99
1574.443	0.836	836.5	incongruent	Block2	incongruent/STIM_022.jpg	100
1578.09	1.039	1039.1	incongruent	Block2	incongruent/STIM_022.jpg	100
1581.829	0.974	973.7	incongruent	Block2	incongruent/STIM_022.jpg	100
1584.987	1.042	1041.8	incongruent	Block2	incongruent/STIM_022.jpg	99
1589.076	0.929	928.7	incongruent	Block2	incongruent/STIM_022.jpg	99
1592.304	1.103	1103.4	incongruent	Block2	incongruent/STIM_023.jpg	100
1596.585	0.946	945.5	incongruent	Block2	incongruent/STIM_023.jpg	99
1600.697	0.985	985.0	incongruent	Block2	incongruent/STIM_023.jpg	99
1605.444	0.646	646.5	incongruent	Block2	incongruent/STIM_023.jpg	99
1608.305	0.836	835.7	incongruent	Block2	incongruent/STIM_023.jpg	100
1612.174	1.051	1050.8	incongruent	Block2	incongruent/STIM_024.jpg	99
1616.152	0.874	873.7	incongruent	Block2	incongruent/STIM_024.jpg	99
1620.089	0.641	641.4	incongruent	Block2	incongruent/STIM_024.jpg	100
1623.438	0.76	759.7	incongruent	Block2	incongruent/STIM_024.jpg	99
1626.911	0.792	792.3	incongruent	Block2	incongruent/STIM_024.jpg	99
1630.075	0.946	945.5	incongruent	Block2	incongruent/STIM_025.jpg	100
1634.024	1.058	1057.9	incongruent	Block2	incongruent/STIM_025.jpg	99
1637.598	1.028	1028.5	incongruent	Block2	incongruent/STIM_025.jpg	100
1642.415	0.911	910.9	incongruent	Block2	incongruent/STIM_025.jpg	100
1645.676	0.681	680.9	incongruent	Block2	incongruent/STIM_025.jpg	100
1649.275	0.997	997.1	incongruent	Block2	incongruent/STIM_026.jpg	99
1653.23	1.147	1147.2	incongruent	Block2	incongruent/STIM_026.jpg	100
1656.422	0.581	581.4	incongruent	Block2	incongruent/STIM_026.jpg	100
1660.794	0.803	803.0	incongruent	Block2	incongruent/STIM_026.jpg	99
1665.152	0.798	798.0	incongruent	Block2	incongruent/STIM_026.jpg	99
1669.843	0.616	615.7	incongruent	Block2	incongruent/STIM_027.jpg	99
1673.871	0.819	819.1	incongruent	Block2	incongruent/STIM_027.jpg	99
1678.472	0.775	775.1	incongruent	Block2	incongruent/STIM_027.jpg	99
1682.669	1.04	1040.5	incongruent	Block2	incongruent/STIM_027.jpg	99
1687.379	0.967	967.0	incongruent	Block2	incongruent/STIM_027.jpg	99
1690.975	0.779	778.6	incongruent	Block2	incongruent/STIM_028.jpg	100
1695.085	0.627	626.6	incongruent	Block2	incongruent/STIM_028.jpg	100
1697.742	1.003	1002.7	incongruent	Block2	incongruent/STIM_028.jpg	100
1700.95	0.718	717.5	incongruent	Block2	incongruent/STIM_028.jpg	100
1705.007	0.929	929.0	incongruent	Block2	incongruent/STIM_028.jpg	99
1709.679	1.217	1217.0	incongruent	Block2	incongruent/STIM_029.jpg	99
1714.204	0.952	951.5	incongruent	Block2	incongruent/STIM_029.jpg	100
1718.733	0.985	984.6	incongruent	Block2	incongruent/STIM_029.jpg	99
1723.509	0.701	701.4	incongruent	Block2	incongruent/STIM_029.jpg	99
1727.509	0.588	587.7	incongruent	Block2	incongruent/STIM_029.jpg	99
1732.067	0.544	543.6	congruent	Block2	congruent/STIM_000.jpg	99
1735.071	0.695	695.2	congruent	Block2	congruent/STIM_000.jpg	99
1738.889	0.686	685.6	congruent	Block2	congruent/STIM_000.jpg	99
1741.715	0.685	685.2	congruent	Block2	congruent/STIM_000.jpg	100
1746.2	0.532	531.8	congruent	Block2	congruent/STIM_000.jpg	100
1750.656	0.641	641.0	congruent	Block2	congruent/STIM_001.jpg	100
1754.012	0.806	806.5	congruent	Block2	congruent/STIM_001.jpg	100
1758.507	0.545	544.9	congruent	Block2	congruent/STIM_001.jpg	100
1761.677	0.715	715.3	congruent	Block2	congruent/STIM_001.jpg	100
1764.448	0.789	788.7	congruent	Block2	congruent/STIM_001.jpg	99
1768.524	0.855	854.7	congruent	Block2	congruent/STIM_002.jpg	100
1771.458	0.567	566.7	congruent	Block2	congruent/STIM_002.jpg	100
1775.059	0.687	686.9	congruent	Block2	congruent/STIM_002.jpg	99
1779.686	0.825	825.4	congruent	Block2	congruent/STIM_002.jpg	100
1782.601	0.505	504.7	congruent	Block2	congruent/STIM_002.jpg	100
1785.327	0.763	762.8	congruent	Block2	congruent/STIM_003.jpg	100
1788.349	0.594	593.6	congruent	Block2	congruent/STIM_003.jpg	99
1792.141	0.636	635.9	congruent	Block2	congruent/STIM_003.jpg	99
1794.832	0.785	784.7	congruent	Block2	congruent/STIM_003.jpg	100
1797.894	0.726	725.8	congruent	Block2	congruent/STIM_003.jpg	99
1800.859	0.523	523.3	congruent	Block2	congruent/STIM_004.jpg	100
1804.828	0.864	864.5	congruent	Block2	congruent/STIM_004.jpg	100
1809.382	0.512	512.3	congruent	Block2	congruent/STIM_004.jpg	100
1812.401	0.626	625.6	congruent	Block2	congruent/STIM_004.jpg	100
1816.631	0.521	520.7	congruent	Block2	congruent/STIM_004.jpg	99
1819.874	0.678	677.9	congruent	Block2	congruent/STIM_005.jpg	100
1823.596	0.845	845.1	congruent	Block2	congruent/STIM_005.jpg	100
1827.444	0.817	816.7	congruent	Block2	congruent/STIM_005.jpg	100
1831.365	0.901	900.8	congruent	Block2	congruent/STIM_005.jpg	99
1834.574	0.556	555.5	congruent	Block2	congruent/STIM_005.jpg	99
1837.932	0.59	590.0	congruent	Block2	congruent/STIM_006.jpg	100
1841.567	0.803	802.8	congruent	Block2	congruent/STIM_006.jpg	100
1845.871	0.829	829.1	congruent	Block2	congruent/STIM_006.jpg	100
1850.124	0.686	685.6	congruent	Block2	congruent/STIM_006.jpg	100
1853.638	0.678	678.3	congruent	Block2	congruent/STIM_006.jpg	100
1857.077	0.619	618.9	congruent	Block2	congruent/STIM_007.jpg	99
1861.246	0.895	895.3	congruent	Block2	congruent/STIM_007.jpg	99
1864.995	0.547	546.6	congruent	Block2	congruent/STIM_007.jpg	100
1869.38	0.74	740.0	congruent	Block2	congruent/STIM_007.jpg	100
1872.83	0.721	720.6	congruent	Block2	congruent/STIM_007.jpg	100
1876.668	0.535	535.2	congruent	Block2	congruent/STIM_008.jpg	100
1879.303	0.902	901.5	congruent	Block2	congruent/STIM_008.jpg	99
1883.896	0.891	891.2	congruent	Block2	congruent/STIM_008.jpg	100
1887.258	0.737	736.6	congruent	Block2	congruent/STIM_008.jpg	99
1891.624	0.687	687.4	congruent	Block2	congruent/STIM_008.jpg	99
1895.031	0.518	518.5	congruent	Block2	congruent/STIM_009.jpg	99
1898.905	0.623	623.2	congruent	Block2	congruent/STIM_009.jpg	100
1901.727	0.616	615.7	congruent	Block2	congruent/STIM_009.jpg	100
1904.49	0.741	741.0	congruent	Block2	congruent/STIM_009.jpg	99
1907.819	0.75	749.7	congruent	Block2	congruent/STIM_009.jpg	100
1911.446	0.774	774.1	congruent	Block2	congruent/STIM_010.jpg	99
1915.904	0.691	691.2	congruent	Block2	congruent/STIM_010.jpg	100
1919.839	0.657	656.6	congruent	Block2	congruent/STIM_010.jpg	99
1924.321	0.594	593.7	congruent	Block2	congruent/STIM_010.jpg	99
1928.275	0.887	887.4	congruent	Block2	congruent/STIM_010.jpg	99
1932.146	0.766	765.5	congruent	Block2	congruent/STIM_011.jpg	100
1936.238	0.602	602.3	congruent	Block2	congruent/STIM_011.jpg	99
1940.049	0.599	598.9	congruent	Block2	congruent/STIM_011.jpg	100
1942.773	0.743	743.0	congruent	Block2	congruent/STIM_011.jpg	100
1945.633	0.636	635.8	congruent	Block2	congruent/STIM_011.jpg	100
1948.718	0.82	820.3	congruent	Block2	congruent/STIM_012.jpg	99
1953.156	0.66	659.7	congruent	Block2	congruent/STIM_012.jpg	99
1956.599	0.633	633.0	congruent	Block2	congruent/STIM_012.jpg	99
1959.625	0.722	722.2	congruent	Block2	congruent/STIM_012.jpg	100
1963.808	0.757	756.9	congruent	Block2	congruent/STIM_012.jpg	99
1967.705	0.626	625.6	congruent	Block2	congruent/STIM_013.jpg	100
1971.997	0.52	520.5	congruent	Block2	congruent/STIM_013.jpg	100
1974.643	0.818	817.8	congruent	Block2	congruent/STIM_013.jpg	99
1978.468	0.829	828.7	congruent	Block2	congruent/STIM_013.jpg	100
1982.553	0.569	569.3	congruent	Block2	congruent/STIM_013.jpg	100
1985.204	0.844	844.5	congruent	Block2	congruent/STIM_014.jpg	99
1988.814	0.844	844.4	congruent	Block2	congruent/STIM_014.jpg	99
1991.692	0.821	820.7	congruent	Block2	congruent/STIM_014.jpg	100
1995.469	0.639	639.0	congruent	Block2	congruent/STIM_014.jpg	100
1998.494	0.605	605.3	congruent	Block2	congruent/STIM_014.jpg	99
2002.759	0.606	605.8	congruent	Block2	congruent/STIM_015.jpg	100
2007.015	0.729	728.7	congruent	Block2	congruent/STIM_015.jpg	100
2010.167	0.538	538.0	congruent	Block2	congruent/STIM_015.jpg	100
2014.003	0.759	759.2	congruent	Block2	congruent/STIM_015.jpg	99
2017.848	0.84	840.2	congruent	Block2	congruent/STIM_015.jpg	100
2021.674	0.588	587.7	congruent	Block2	congruent/STIM_016.jpg	99
2024.512	0.83	830.4	congruent	Block2	congruent/STIM_016.jpg	100
2028.308	0.504	504.0	congruent	Block2	congruent/STIM_016.jpg	100
2031.828	0.512	512.5	congruent	Block2	congruent/STIM_016.jpg	99
2034.442	0.861	860.6	congruent	Block2	congruent/STIM_016.jpg	99
2039.142	0.781	781.4	congruent	Block2	congruent/STIM_017.jpg	99
2043.002	0.89	890.3	congruent	Block2	congruent/STIM_017.jpg	99
2045.97	0.535	535.0	congruent	Block2	congruent/STIM_017.jpg	100
2049.9	0.786	786.3	congruent	Block2	congruent/STIM_017.jpg	99
2052.894	0.507	506.6	congruent	Block2	congruent/STIM_017.jpg	100
2057.328	0.664	663.8	congruent	Block2	congruent/STIM_018.jpg	100
2060.599	0.563	562.8	congruent	Block2	congruent/STIM_018.jpg	100
2063.74	0.51	509.7	congruent	Block2	congruent/STIM_018.jpg	99
2067.282	0.816	815.7	congruent	Block2	congruent/STIM_018.jpg	99
2071.28	0.727	727.4	congruent	Block2	congruent/STIM_018.jpg	100
2074.552	0.624	623.8	congruent	Block2	congruent/STIM_019.jpg	100
2078.333	0.61	609.5	congruent	Block2	congruent/STIM_019.jpg	99
2081.832	0.558	558.0	congruent	Block2	congruent/STIM_019.jpg	99
2085.759	0.758	758.5	congruent	Block2	congruent/STIM_019.jpg	99
2090.259	0.57	570.3	congruent	Block2	congruent/STIM_019.jpg	99
2093.943	0.875	875.0	congruent	Block2	congruent/STIM_020.jpg	100
2096.896	0.64	639.5	congruent	Block2	congruent/STIM_020.jpg	100
2100.844	0.841	841.4	congruent	Block2	congruent/STIM_020.jpg	100
2105.606	0.9	900.2	congruent	Block2	congruent/STIM_020.jpg	99
2110.491	0.741	741.4	congruent	Block2	congruent/STIM_020.jpg	99
2114.362	0.74	740.4	congruent	Block2	congruent/STIM_021.jpg	100
2118.526	0.648	648.3	congruent	Block2	congruent/STIM_021.jpg	100
2121.324	0.685	684.6	congruent	Block2	congruent/STIM_021.jpg	100
2124.667	0.731	731.1	congruent	Block2	congruent/STIM_021.jpg	100
2128.806	0.527	527.1	congruent	Block2	congruent/STIM_021.jpg	100
2132.287	0.616	616.1	congruent	Block2	congruent/STIM_022.jpg	100
2136.665	0.776	775.9	congruent	Block2	congruent/STIM_022.jpg	100
2141.286	0.57	570.5	congruent	Block2	congruent/STIM_022.jpg	99
2145.327	0.763	763.3	congruent	Block2	congruent/STIM_022.jpg	99
2149.255	0.548	547.7	congruent	Block2	congruent/STIM_022.jpg	100
2151.975	0.824	823.7	congruent	Block2	congruent/STIM_023.jpg	99
2156.599	0.527	526.6	congruent	Block2	congruent/STIM_023.jpg	99
2159.664	0.901	900.6	congruent	Block2	congruent/STIM_023.jpg	100
2162.68	0.738	738.1	congruent	Block2	congruent/STIM_023.jpg	100
2165.503	0.798	797.6	congruent	Block2	congruent/STIM_023.jpg	99
2168.685	0.514	514.5	congruent	Block2	congruent/STIM_024.jpg	99
2172.705	0.867	867.3	congruent	Block2	congruent/STIM_024.jpg	99
2176.945	0.861	861.2	congruent	Block2	congruent/STIM_024.jpg	100
2180.928	0.535	535.0	congruent	Block2	congruent/STIM_024.jpg	99
2183.915	0.825	825.1	congruent	Block2	congruent/STIM_024.jpg	99
2188.211	0.767	767.1	congruent	Block2	congruent/STIM_025.jpg	100
2192.116	0.829	829.0	congruent	Block2	congruent/STIM_025.jpg	100
2195.495	0.583	582.6	congruent	Block2	congruent/STIM_025.jpg	100
2199.957	0.609	608.6	congruent	Block2	congruent/STIM_025.jpg	100
2204.531	0.806	806.3	congruent	Block2	congruent/STIM_025.jpg	100
2208.182	0.651	650.7	congruent	Block2	congruent/STIM_026.jpg	100
2210.962	0.742	741.9	congruent	Block2	congruent/STIM_026.jpg	100
2215.226	0.656	656.1	congruent	Block2	congruent/STIM_026.jpg	99
2219.831	0.639	638.7	congruent	Block2	congruent/STIM_026.jpg	99
2223.086	0.516	515.9	congruent	Block2	congruent/STIM_026.jpg	99
2227.245	0.7	700.5	congruent	Block2	congruent/STIM_027.jpg	99
2230.473	0.531	531.1	congruent	Block2	congruent/STIM_027.jpg	100
2233.375	0.592	592.1	congruent	Block2	congruent/STIM_027.jpg	99
2237.731	0.885	884.9	congruent	Block2	congruent/STIM_027.jpg	99
2242.004	0.605	605.2	congruent	Block2	congruent/STIM_027.jpg	100
2244.657	0.676	676.1	congruent	Block2	congruent/STIM_028.jpg	99
2249.112	0.8	800.1	congruent	Block2	congruent/STIM_028.jpg	99
2252.73	0.602	601.9	congruent	Block2	congruent/STIM_028.jpg	99
2255.562	0.548	547.7	congruent	Block2	congruent/STIM_028.jpg	99
2259.602	0.516	515.7	congruent	Block2	congruent/STIM_028.jpg	99
2263.55	0.622	622.5	congruent	Block2	congruent/STIM_029.jpg	100
2267.231	0.77	770.1	congruent	Block2	congruent/STIM_029.jpg	99
2270.054	0.698	698.2	congruent	Block2	congruent/STIM_029.jpg	100
2274.134	0.874	873.8	congruent	Block2	congruent/STIM_029.jpg	99
2277.476	0.821	820.7	congruent	Block2	congruent/STIM_029.jpg	99
2282.224	0.99	990.2	incongruent	Block3	incongruent/STIM_000.jpg	100
2286.909	0.555	555.1	incongruent	Block3	incongruent/STIM_000.jpg	99
2290.945	0.987	986.7	incongruent	Block3	incongruent/STIM_000.jpg	99
2294.686	0.953	953.0	incongruent	Block3	incongruent/STIM_000.jpg	100
2299.306	0.939	939.4	incongruent	Block3	incongruent/STIM_000.jpg	100
2304.19	0.638	638.4	incongruent	Block3	incongruent/STIM_001.jpg	99
2307.248	0.909	908.8	incongruent	Block3	incongruent/STIM_001.jpg	100
2310.177	0.656	656.5	incongruent	Block3	incongruent/STIM_001.jpg	100
2313.123	0.547	546.9	incongruent	Block3	incongruent/STIM_001.jpg	99
2316.302	1.027	1027.0	incongruent	Block3	incongruent/STIM_001.jpg	99
2320.224	0.67	670.0	incongruent	Block3	incongruent/STIM_002.jpg	100
2323.933	0.622	622.0	incongruent	Block3	incongruent/STIM_002.jpg	99
2327.32	0.983	982.7	incongruent	Block3	incongruent/STIM_002.jpg	99
2331.818	0.581	580.7	incongruent	Block3	incongruent/STIM_002.jpg	99
2335.238	0.604	603.9	incongruent	Block3	incongruent/STIM_002.jpg	99
2337.844	0.912	911.6	incongruent	Block3	incongruent/STIM_003.jpg	99
2341.326	0.588	588.2	incongruent	Block3	incongruent/STIM_003.jpg	100
2345.126	0.995	995.3	incongruent	Block3	incongruent/STIM_003.jpg	100
2348.701	0.807	807.4	incongruent	Block3	incongruent/STIM_003.jpg	99
2352.244	0.779	778.6	incongruent	Block3	incongruent/STIM_003.jpg	100
2356.339	0.532	532.5	incongruent	Block3	incongruent/STIM_004.jpg	100
2360.561	0.593	593.3	incongruent	Block3	incongruent/STIM_004.jpg	99
2363.658	0.699	698.6	incongruent	Block3	incongruent/STIM_004.jpg	99
2366.594	1.042	1041.9	incongruent	Block3	incongruent/STIM_004.jpg	99
2370.319	0.708	708.4	incongruent	Block3	incongruent/STIM_004.jpg	99
2374.124	0.853	853.0	incongruent	Block3	incongruent/STIM_005.jpg	100
2378.674	0.72	720.1	incongruent	Block3	incongruent/STIM_005.jpg	100
2381.675	0.93	930.0	incongruent	Block3	incongruent/STIM_005.jpg	100
2385.229	0.507	507.0	incongruent	Block3	incongruent/STIM_005.jpg	100
2389.197	0.663	663.0	incongruent	Block3	incongruent/STIM_005.jpg	100
2392.284	0.905	905.0	incongruent	Block3	incongruent/STIM_006.jpg	99
2395.402	0.686	685.7	incongruent	Block3	incongruent/STIM_006.jpg	100
2399.662	0.764	763.8	incongruent	Block3	incongruent/STIM_006.jpg	99
2403.483	0.498	497.9	incongruent	Block3	incongruent/STIM_006.jpg	99
2407.116	0.83	829.5	incongruent	Block3	incongruent/STIM_006.jpg	100
2411.246	0.775	774.8	incongruent	Block3	incongruent/STIM_007.jpg	100
2414.06	0.818	818.5	incongruent	Block3	incongruent/STIM_007.jpg	99
2417.704	0.678	678.3	incongruent	Block3	incongruent/STIM_007.jpg	99
2421.781	0.583	583.4	incongruent	Block3	incongruent/STIM_007.jpg	99
2426.193	0.828	827.8	incongruent	Block3	incongruent/STIM_007.jpg	99
2429.895	0.856	855.7	incongruent	Block3	incongruent/STIM_008.jpg	100
2432.951	0.583	583.4	incongruent	Block3	incongruent/STIM_008.jpg	99
2435.972	0.962	961.7	incongruent	Block3	incongruent/STIM_008.jpg	100
2439.479	1.016	1016.2	incongruent	Block3	incongruent/STIM_008.jpg	99
2443.208	0.884	884.4	incongruent	Block3	incongruent/STIM_008.jpg	100
2446.159	0.554	553.8	incongruent	Block3	incongruent/STIM_009.jpg	99
2448.793	0.755	755.1	incongruent	Block3	incongruent/STIM_009.jpg	100
2451.556	0.525	524.8	incongruent	Block3	incongruent/STIM_009.jpg	99
2455.803	0.936	936.2	incongruent	Block3	incongruent/STIM_009.jpg	100
2459.775	0.565	565.0	incongruent	Block3	incongruent/STIM_009.jpg	99
2462.998	0.942	941.9	incongruent	Block3	incongruent/STIM_010.jpg	100
2467.053	0.848	847.5	incongruent	Block3	incongruent/STIM_010.jpg	100
2471.586	0.884	883.5	incongruent	Block3	incongruent/STIM_010.jpg	100
2475.471	0.809	808.8	incongruent	Block3	incongruent/STIM_010.jpg	100
2479.885	1.043	1043.4	incongruent	Block3	incongruent/STIM_010.jpg	99
2483.77	0.56	560.1	incongruent	Block3	incongruent/STIM_011.jpg	100
2487.886	0.952	952.5	incongruent	Block3	incongruent/STIM_011.jpg	99
2491.012	0.543	543.3	incongruent	Block3	incongruent/STIM_011.jpg	100
2495.395	0.725	724.7	incongruent	Block3	incongruent/STIM_011.jpg	99
2498.479	0.831	831.3	incongruent	Block3	incongruent/STIM_011.jpg	99
2501.995	0.912	912.1	incongruent	Block3	incongruent/STIM_012.jpg	100
2506.022	0.676	675.6	incongruent	Block3	incongruent/STIM_012.jpg	100
2510.512	0.502	501.9	incongruent	Block3	incongruent/STIM_012.jpg	100
2513.612	0.63	629.9	incongruent	Block3	incongruent/STIM_012.jpg	100
2517.353	1.015	1015.4	incongruent	Block3	incongruent/STIM_012.jpg	100
2521.761	0.705	705.0	incongruent	Block3	incongruent/STIM_013.jpg	99
2525.831	0.865	864.9	incongruent	Block3	incongruent/STIM_013.jpg	100
2530.36	0.962	962.2	incongruent	Block3	incongruent/STIM_013.jpg	99
2534.886	0.652	652.4	incongruent	Block3	incongruent/STIM_013.jpg	100
2538.139	0.916	916.4	incongruent	Block3	incongruent/STIM_013.jpg	100
2541.669	0.695	694.6	incongruent	Block3	incongruent/STIM_014.jpg	99
2545.844	0.95	950.3	incongruent	Block3	incongruent/STIM_014.jpg	100
2548.865	0.786	785.5	incongruent	Block3	incongruent/STIM_014.jpg	99
2552.535	0.671	671.1	incongruent	Block3	incongruent/STIM_014.jpg	100
2555.552	0.985	984.6	incongruent	Block3	incongruent/STIM_014.jpg	99
2560.495	0.657	657.1	incongruent	Block3	incongruent/STIM_015.jpg	100
2563.379	0.93	929.7	incongruent	Block3	incongruent/STIM_015.jpg	99
2566.612	1.001	1001.2	incongruent	Block3	incongruent/STIM_015.jpg	99
2571.026	0.737	737.1	incongruent	Block3	incongruent/STIM_015.jpg	99
2574.956	0.895	895.1	incongruent	Block3	incongruent/STIM_015.jpg	99
2578.809	0.722	722.2	incongruent	Block3	incongruent/STIM_016.jpg	99
2581.727	0.544	543.7	incongruent	Block3	incongruent/STIM_016.jpg	99
2586.041	0.714	713.9	incongruent	Block3	incongruent/STIM_016.jpg	99
2588.83	0.692	691.5	incongruent	Block3	incongruent/STIM_016.jpg	99
2591.562	1.045	1044.8	incongruent	Block3	incongruent/STIM_016.jpg	99
2595.906	1.018	1018.2	incongruent	Block3	incongruent/STIM_017.jpg	99
2600.078	0.634	634.5	incongruent	Block3	incongruent/STIM_017.jpg	99
2603.56	0.969	969.3	incongruent	Block3	incongruent/STIM_017.jpg	100
2607.27	0.942	942.4	incongruent	Block3	incongruent/STIM_017.jpg	100
2611.838	0.573	572.7	incongruent	Block3	incongruent/STIM_017.jpg	99
2615.141	1.044	1044.4	incongruent	Block3	incongruent/STIM_018.jpg	99
2618.581	0.72	720.0	incongruent	Block3	incongruent/STIM_018.jpg	100
2622.487	0.641	640.7	incongruent	Block3	incongruent/STIM_018.jpg	99
2625.517	0.972	971.9	incongruent	Block3	incongruent/STIM_018.jpg	100
2629.469	0.991	990.8	incongruent	Block3	incongruent/STIM_018.jpg	99
2634.176	0.782	781.9	incongruent	Block3	incongruent/STIM_019.jpg	100
2638.729	0.915	915.3	incongruent	Block3	incongruent/STIM_019.jpg	100
2642.339	0.688	688.5	incongruent	Block3	incongruent/STIM_019.jpg	99
2645.725	0.634	633.9	incongruent	Block3	incongruent/STIM_019.jpg	100
2648.782	0.645	644.9	incongruent	Block3	incongruent/STIM_019.jpg	99
2652.928	0.875	874.9	incongruent	Block3	incongruent/STIM_020.jpg	100
2657.356	0.694	693.5	incongruent	Block3	incongruent/STIM_020.jpg	99
2660.384	1.007	1007.0	incongruent	Block3	incongruent/STIM_020.jpg	99
2663.615	0.675	674.7	incongruent	Block3	incongruent/STIM_020.jpg	100
2666.943	0.657	657.1	incongruent	Block3	incongruent/STIM_020.jpg	100
2670.798	0.819	818.6	incongruent	Block3	incongruent/STIM_021.jpg	100
2675.102	1.052	1052.1	incongruent	Block3	incongruent/STIM_021.jpg	99
2679.045	0.556	556.5	incongruent	Block3	incongruent/STIM_021.jpg	100
2682.021	1.008	1008.4	incongruent	Block3	incongruent/STIM_021.jpg	99
2686.286	0.831	830.7	incongruent	Block3	incongruent/STIM_021.jpg	99
2690.044	0.885	884.9	incongruent	Block3	incongruent/STIM_022.jpg	99
2694.632	0.731	731.3	incongruent	Block3	incongruent/STIM_022.jpg	99
2699.158	0.569	568.9	incongruent	Block3	incongruent/STIM_022.jpg	99
2702.749	0.603	603.3	incongruent	Block3	incongruent/STIM_022.jpg	100
2706.079	0.663	663.0	incongruent	Block3	incongruent/STIM_022.jpg	100
2710.182	0.744	744.5	incongruent	Block3	incongruent/STIM_023.jpg	100
2713.562	0.594	593.8	incongruent	Block3	incongruent/STIM_023.jpg	100
2717.217	0.791	791.1	incongruent	Block3	incongruent/STIM_023.jpg	99
2720.384	0.918	917.7	incongruent	Block3	incongruent/STIM_023.jpg	99
2724.132	1.009	1009.2	incongruent	Block3	incongruent/STIM_023.jpg	99
2727.852	0.825	824.8	incongruent	Block3	incongruent/STIM_024.jpg	99
2732.304	0.592	591.8	incongruent	Block3	incongruent/STIM_024.jpg	100
2734.932	0.84	839.9	incongruent	Block3	incongruent/STIM_024.jpg	100
2738.086	0.654	653.8	incongruent	Block3	incongruent/STIM_024.jpg	99
2741.154	0.926	926.2	incongruent	Block3	incongruent/STIM_024.jpg	100
2744.564	0.746	745.7	incongruent	Block3	incongruent/STIM_025.jpg	99
2748.173	0.625	624.8	incongruent	Block3	incongruent/STIM_025.jpg	100
2752.298	0.516	516.2	incongruent	Block3	incongruent/STIM_025.jpg	100
2755.573	0.552	552.5	incongruent	Block3	incongruent/STIM_025.jpg	99
2758.934	0.673	673.3	incongruent	Block3	incongruent/STIM_025.jpg	100
2762.654	0.99	990.4	incongruent	Block3	incongruent/STIM_026.jpg	100
2766.705	0.656	655.9	incongruent	Block3	incongruent/STIM_026.jpg	100
2770.868	0.529	528.6	incongruent	Block3	incongruent/STIM_026.jpg	100
2773.65	1.018	1018.0	incongruent	Block3	incongruent/STIM_026.jpg	99
2777.588	0.51	509.9	incongruent	Block3	incongruent/STIM_026.jpg	100
2781.088	0.707	707.4	incongruent	Block3	incongruent/STIM_027.jpg	99
2784.938	0.849	849.3	incongruent	Block3	incongruent/STIM_027.jpg	100
2789.003	0.545	544.7	incongruent	Block3	incongruent/STIM_027.jpg	100
2793.052	0.808	808.2	incongruent	Block3	incongruent/STIM_027.jpg	99
2797.28	0.935	935.3	incongruent	Block3	incongruent/STIM_027.jpg	99
2800.644	0.504	503.9	incongruent	Block3	incongruent/STIM_028.jpg	100
2804.216	0.985	984.7	incongruent	Block3	incongruent/STIM_028.jpg	99
2807.237	1.026	1026.5	incongruent	Block3	incongruent/STIM_028.jpg	99
2811.127	1.012	1011.8	incongruent	Block3	incongruent/STIM_028.jpg	100
2814.909	0.626	626.4	incongruent	Block3	incongruent/STIM_028.jpg	99
2817.654	0.815	814.6	incongruent	Block3	incongruent/STIM_029.jpg	100
2820.488	0.678	677.6	incongruent	Block3	incongruent/STIM_029.jpg	99
2823.892	0.923	923.3	incongruent	Block3	incongruent/STIM_029.jpg	99
2827.391	0.615	614.8	incongruent	Block3	incongruent/STIM_029.jpg	100
2831.736	0.542	541.7	incongruent	Block3	incongruent/STIM_029.jpg	99
2835.254	0.856	856.3	congruent	Block3	congruent/STIM_000.jpg	100
2838.12	0.901	901.3	congruent	Block3	congruent/STIM_000.jpg	100
2841.154	0.662	662.5	congruent	Block3	congruent/STIM_000.jpg	99
2844.888	0.619	619.3	congruent	Block3	congruent/STIM_000.jpg	100
2848.467	0.64	639.6	congruent	Block3	congruent/STIM_000.jpg	99
2852.987	0.743	743.4	congruent	Block3	congruent/STIM_001.jpg	99
2855.975	0.866	866.1	congruent	Block3	congruent/STIM_001.jpg	99
2859.3	0.524	523.8	congruent	Block3	congruent/STIM_001.jpg	99
2862.811	0.87	870.1	congruent	Block3	congruent/STIM_001.jpg	99
2867.109	0.748	747.9	congruent	Block3	congruent/STIM_001.jpg	100
2871.305	0.745	745.1	congruent	Block3	congruent/STIM_002.jpg	100
2874.412	0.704	704.0	congruent	Block3	congruent/STIM_002.jpg	99
2878.789	0.69	689.7	congruent	Block3	congruent/STIM_002.jpg	99
2882.672	0.803	802.6	congruent	Block3	congruent/STIM_002.jpg	99
2886.98	0.654	653.5	congruent	Block3	congruent/STIM_002.jpg	100
2890.073	0.606	605.7	congruent	Block3	congruent/STIM_003.jpg	99
2893.09	0.538	538.4	congruent	Block3	congruent/STIM_003.jpg	100
2896.534	0.751	751.4	congruent	Block3	congruent/STIM_003.jpg	100
2899.791	0.741	740.8	congruent	Block3	congruent/STIM_003.jpg	100
2903.547	0.877	876.8	congruent	Block3	congruent/STIM_003.jpg	100
2906.51	0.505	504.8	congruent	Block3	congruent/STIM_004.jpg	99
2909.752	0.518	518.1	congruent	Block3	congruent/STIM_004.jpg	99
2914.06	0.557	557.2	congruent	Block3	congruent/STIM_004.jpg	100
2917.475	0.724	724.4	congruent	Block3	congruent/STIM_004.jpg	99
2921.578	0.551	550.8	congruent	Block3	congruent/STIM_004.jpg	100
2925.467	0.695	695.1	congruent	Block3	congruent/STIM_005.jpg	100
2929.844	0.689	688.9	congruent	Block3	congruent/STIM_005.jpg	100
2933.645	0.73	729.7	congruent	Block3	congruent/STIM_005.jpg	99
2938.141	0.574	573.8	congruent	Block3	congruent/STIM_005.jpg	100
2941.714	0.873	873.1	congruent	Block3	congruent/STIM_005.jpg	99
2945.699	0.799	798.8	congruent	Block3	congruent/STIM_006.jpg	100
2949.077	0.509	508.9	congruent	Block3	congruent/STIM_006.jpg	99
2952.0	0.835	835.2	congruent	Block3	congruent/STIM_006.jpg	100
2955.59	0.852	852.4	congruent	Block3	congruent/STIM_006.jpg	99
2958.96	0.632	632.1	congruent	Block3	congruent/STIM_006.jpg	99
2963.415	0.791	790.6	congruent	Block3	congruent/STIM_007.jpg	99
2966.78	0.55	549.7	congruent	Block3	congruent/STIM_007.jpg	99
2969.626	0.867	867.3	congruent	Block3	congruent/STIM_007.jpg	100
2974.276	0.507	507.3	congruent	Block3	congruent/STIM_007.jpg	100
2977.67	0.894	894.2	congruent	Block3	congruent/STIM_007.jpg	100
2981.278	0.769	769.0	congruent	Block3	congruent/STIM_008.jpg	99
2984.789	0.616	616.0	congruent	Block3	congruent/STIM_008.jpg	100
2988.121	0.508	507.8	congruent	Block3	congruent/STIM_008.jpg	99
2992.174	0.672	672.5	congruent	Block3	congruent/STIM_008.jpg	100
2996.026	0.844	843.9	congruent	Block3	congruent/STIM_008.jpg	99
3000.365	0.65	650.2	congruent	Block3	congruent/STIM_009.jpg	100
3003.215	0.861	861.2	congruent	Block3	congruent/STIM_009.jpg	100
3007.815	0.902	902.0	congruent	Block3	congruent/STIM_009.jpg	100
3012.143	0.676	676.2	congruent	Block3	congruent/STIM_009.jpg	99
3014.92	0.862	862.0	congruent	Block3	congruent/STIM_009.jpg	100
3018.488	0.813	813.2	congruent	Block3	congruent/STIM_010.jpg	99
3021.643	0.604	604.0	congruent	Block3	congruent/STIM_010.jpg	100
3024.472	0.828	828.2	congruent	Block3	congruent/STIM_010.jpg	99
3027.691	0.72	720.5	congruent	Block3	congruent/STIM_010.jpg	99
3031.95	0.658	658.4	congruent	Block3	congruent/STIM_010.jpg	99
3034.907	0.598	598.4	congruent	Block3	congruent/STIM_011.jpg	100
3037.881	0.645	644.7	congruent	Block3	congruent/STIM_011.jpg	99
3041.397	0.628	627.5	congruent	Block3	congruent/STIM_011.jpg	100
3045.182	0.603	602.7	congruent	Block3	congruent/STIM_011.jpg	99
3048.319	0.791	791.3	congruent	Block3	congruent/STIM_011.jpg	99
3052.296	0.508	507.9	congruent	Block3	congruent/STIM_012.jpg	100
3056.601	0.753	753.1	congruent	Block3	congruent/STIM_012.jpg	99
3060.587	0.798	797.9	congruent	Block3	congruent/STIM_012.jpg	100
3063.814	0.77	769.5	congruent	Block3	congruent/STIM_012.jpg	100
3068.328	0.696	695.5	congruent	Block3	congruent/STIM_012.jpg	100
3072.262	0.9	899.9	congruent	Block3	congruent/STIM_013.jpg	99
3077.127	0.725	725.4	congruent	Block3	congruent/STIM_013.jpg	99
3080.708	0.644	643.8	congruent	Block3	congruent/STIM_013.jpg	99
3084.046	0.641	641.4	congruent	Block3	congruent/STIM_013.jpg	100
3087.785	0.691	691.4	congruent	Block3	congruent/STIM_013.jpg	99
3090.634	0.689	688.9	congruent	Block3	congruent/STIM_014.jpg	99
3094.806	0.873	872.8	congruent	Block3	congruent/STIM_014.jpg	99
3097.957	0.781	780.6	congruent	Block3	congruent/STIM_014.jpg	100
3101.831	0.831	830.6	congruent	Block3	congruent/STIM_014.jpg	99
3104.989	0.869	869.0	congruent	Block3	congruent/STIM_014.jpg	100
3108.714	0.591	591.4	congruent	Block3	congruent/STIM_015.jpg	100
3113.129	0.584	583.9	congruent	Block3	congruent/STIM_015.jpg	99
3116.343	0.524	523.6	congruent	Block3	congruent/STIM_015.jpg	100
3119.135	0.876	875.7	congruent	Block3	congruent/STIM_015.jpg	99
3122.151	0.53	530.3	congruent	Block3	congruent/STIM_015.jpg	99
3126.273	0.528	528.2	congruent	Block3	congruent/STIM_016.jpg	100
3130.281	0.578	577.5	congruent	Block3	congruent/STIM_016.jpg	100
3133.976	0.585	585.1	congruent	Block3	congruent/STIM_016.jpg	99
3137.763	0.793	793.2	congruent	Block3	congruent/STIM_016.jpg	99
3142.409	0.546	546.3	congruent	Block3	congruent/STIM_016.jpg	100
3146.697	0.564	563.6	congruent	Block3	congruent/STIM_017.jpg	100
3149.529	0.788	788.3	congruent	Block3	congruent/STIM_017.jpg	100
3153.849	0.76	760.0	congruent	Block3	congruent/STIM_017.jpg	99
3156.776	0.765	765.0	congruent	Block3	congruent/STIM_017.jpg	99
3159.948	0.864	864.4	congruent	Block3	congruent/STIM_017.jpg	100
3163.949	0.878	878.3	congruent	Block3	congruent/STIM_018.jpg	99
3167.705	0.822	821.8	congruent	Block3	congruent/STIM_018.jpg	100
3170.719	0.513	512.6	congruent	Block3	congruent/STIM_018.jpg	100
3174.589	0.65	650.0	congruent	Block3	congruent/STIM_018.jpg	100
3178.196	0.648	648.5	congruent	Block3	congruent/STIM_018.jpg	100
3182.282	0.735	734.6	congruent	Block3	congruent/STIM_019.jpg	100
3185.841	0.809	809.3	congruent	Block3	congruent/STIM_019.jpg	99
3190.437	0.698	697.6	congruent	Block3	congruent/STIM_019.jpg	99
3193.309	0.774	774.2	congruent	Block3	congruent/STIM_019.jpg	100
3197.47	0.565	565.4	congruent	Block3	congruent/STIM_019.jpg	100
3201.813	0.592	591.9	congruent	Block3	congruent/STIM_020.jpg	100
3205.762	0.568	567.8	congruent	Block3	congruent/STIM_020.jpg	99
3209.075	0.768	767.8	congruent	Block3	congruent/STIM_020.jpg	99
3213.377	0.843	842.8	congruent	Block3	congruent/STIM_020.jpg	100
3218.029	0.777	777.2	congruent	Block3	congruent/STIM_020.jpg	100
3220.863	0.64	639.9	congruent	Block3	congruent/STIM_021.jpg	100
3225.153	0.594	593.8	congruent	Block3	congruent/STIM_021.jpg	100
3228.184	0.648	648.5	congruent	Block3	congruent/STIM_021.jpg	99
3231.513	0.638	638.2	congruent	Block3	congruent/STIM_021.jpg	99
3234.479	0.759	758.6	congruent	Block3	congruent/STIM_021.jpg	99
3238.162	0.647	646.8	congruent	Block3	congruent/STIM_022.jpg	99
3242.364	0.903	902.9	congruent	Block3	congruent/STIM_022.jpg	100
3246.202	0.603	602.9	congruent	Block3	congruent/STIM_022.jpg	100
3249.0	0.746	745.9	congruent	Block3	congruent/STIM_022.jpg	99
3253.548	0.661	660.9	congruent	Block3	congruent/STIM_022.jpg	99
3256.986	0.648	648.3	congruent	Block3	congruent/STIM_023.jpg	100
3260.572	0.676	675.6	congruent	Block3	congruent/STIM_023.jpg	100
3264.107	0.716	716.0	congruent	Block3	congruent/STIM_023.jpg	99
3267.035	0.724	723.7	congruent	Block3	congruent/STIM_023.jpg	100
3270.628	0.509	508.9	congruent	Block3	congruent/STIM_023.jpg	100
3273.404	0.876	876.2	congruent	Block3	congruent/STIM_024.jpg	99
3277.001	0.69	689.7	congruent	Block3	congruent/STIM_024.jpg	100
3281.491	0.85	849.5	congruent	Block3	congruent/STIM_024.jpg	100
3285.8	0.734	734.3	congruent	Block3	congruent/STIM_024.jpg	100
3289.516	0.685	685.4	congruent	Block3	congruent/STIM_024.jpg	100
3292.659	0.512	512.5	congruent	Block3	congruent/STIM_025.jpg	99
3295.256	0.598	598.1	congruent	Block3	congruent/STIM_025.jpg	99
3299.411	0.88	879.9	congruent	Block3	congruent/STIM_025.jpg	100
3302.782	0.763	763.4	congruent	Block3	congruent/STIM_025.jpg	100
3307.336	0.743	742.9	congruent	Block3	congruent/STIM_025.jpg	99
3311.738	0.803	802.8	congruent	Block3	congruent/STIM_026.jpg	100
3314.829	0.851	851.2	congruent	Block3	congruent/STIM_026.jpg	99
3319.61	0.618	617.9	congruent	Block3	congruent/STIM_026.jpg	100
3322.839	0.638	638.3	congruent	Block3	congruent/STIM_026.jpg	99
3326.198	0.814	814.3	congruent	Block3	congruent/STIM_026.jpg	100
3329.744	0.621	621.3	congruent	Block3	congruent/STIM_027.jpg	99
3334.35	0.603	603.4	congruent	Block3	congruent/STIM_027.jpg	99
3337.115	0.666	666.3	congruent	Block3	congruent/STIM_027.jpg	100
3341.389	0.781	781.1	congruent	Block3	congruent/STIM_027.jpg	99
3345.868	0.624	624.3	congruent	Block3	congruent/STIM_027.jpg	99
3349.636	0.636	635.6	congruent	Block3	congruent/STIM_028.jpg	100
3354.258	0.706	706.4	congruent	Block3	congruent/STIM_028.jpg	99
3357.003	0.641	641.2	congruent	Block3	congruent/STIM_028.jpg	100
3360.268	0.881	881.1	congruent	Block3	congruent/STIM_028.jpg	99
3364.075	0.745	745.4	congruent	Block3	congruent/STIM_028.jpg	99
3366.917	0.641	641.3	congruent	Block3	congruent/STIM_029.jpg	100
3371.52	0.639	639.4	congruent	Block3	congruent/STIM_029.jpg	100
3374.211	0.681	681.2	congruent	Block3	congruent/STIM_029.jpg	99
3378.39	0.779	779.3	congruent	Block3	congruent/STIM_029.jpg	99
3382.981	0.671	670.6	congruent	Block3	congruent/STIM_029.jpg	99
