onset	duration	response_time_ms	trial_type	learning_stage	stimulus	response_port
0.0	1.088	1087.7	incongruent	Block1	incongruent/STIM_000.jpg	100
3.596	1.056	1055.5	incongruent	Block1	incongruent/STIM_000.jpg	99
8.329	0.853	852.7	incongruent	Block1	incongruent/STIM_000.jpg	100
12.067	0.737	737.3	incongruent	Block1	incongruent/STIM_000.jpg	100
16.364	0.666	665.7	incongruent	Block1	incongruent/STIM_000.jpg	100
20.911	0.85	850.0	incongruent	Block1	incongruent/STIM_001.jpg	99
23.821	0.978	977.9	incongruent	Block1	incongruent/STIM_001.jpg	99
28.663	1.267	1266.8	incongruent	Block1	incongruent/STIM_001.jpg	99
32.7	1.192	1191.7	incongruent	Block1	incongruent/STIM_001.jpg	99
37.389	0.739	739.4	incongruent	Block1	incongruent/STIM_001.jpg	100
40.916	0.882	881.7	incongruent	Block1	incongruent/STIM_002.jpg	99
44.925	1.228	1228.5	incongruent	Block1	incongruent/STIM_002.jpg	99
49.604	1.158	1158.5	incongruent	Block1	incongruent/STIM_002.jpg	99
54.528	0.775	775.3	incongruent	Block1	incongruent/STIM_002.jpg	100
58.448	1.011	1011.0	incongruent	Block1	incongruent/STIM_002.jpg	99
62.129	1.435	1435.1	incongruent	Block1	incongruent/STIM_003.jpg	99
67.233	0.831	830.6	incongruent	Block1	incongruent/STIM_003.jpg	100
70.599	1.424	1424.5	incongruent	Block1	incongruent/STIM_003.jpg	100
74.511	1.084	1083.5	incongruent	Block1	incongruent/STIM_003.jpg	100
78.275	1.078	1077.6	incongruent	Block1	incongruent/STIM_003.jpg	100
82.368	1.226	1225.9	incongruent	Block1	incongruent/STIM_004.jpg	100
86.383	1.366	1365.7	incongruent	Block1	incongruent/STIM_004.jpg	100
91.027	1.033	1033.0	incongruent	Block1	incongruent/STIM_004.jpg	100
94.831	0.872	872.3	incongruent	Block1	incongruent/STIM_004.jpg	99
97.712	0.661	660.8	incongruent	Block1	incongruent/STIM_004.jpg	99
101.666	1.191	1190.8	incongruent	Block1	incongruent/STIM_005.jpg	100
106.711	0.976	975.9	incongruent	Block1	incongruent/STIM_005.jpg	99
110.248	0.719	719.0	incongruent	Block1	incongruent/STIM_005.jpg	99
113.782	1.094	1094.0	incongruent	Block1	incongruent/STIM_005.jpg	100
117.428	1.176	1176.4	incongruent	Block1	incongruent/STIM_005.jpg	100
121.643	1.302	1302.3	incongruent	Block1	incongruent/STIM_006.jpg	100
124.994	1.41	1410.0	incongruent	Block1	incongruent/STIM_006.jpg	100
129.128	0.842	842.3	incongruent	Block1	incongruent/STIM_006.jpg	99
133.049	1.262	1262.0	incongruent	Block1	incongruent/STIM_006.jpg	100
137.209	1.258	1257.5	incongruent	Block1	incongruent/STIM_006.jpg	99
141.61	0.991	991.1	incongruent	Block1	incongruent/STIM_007.jpg	99
144.746	0.741	740.6	incongruent	Block1	incongruent/STIM_007.jpg	99
148.594	1.313	1313.2	incongruent	Block1	incongruent/STIM_007.jpg	100
152.069	1.054	1053.7	incongruent	Block1	incongruent/STIM_007.jpg	99
156.776	1.137	1136.6	incongruent	Block1	incongruent/STIM_007.jpg	99
160.512	0.919	919.3	incongruent	Block1	incongruent/STIM_008.jpg	100
165.215	1.296	1296.0	incongruent	Block1	incongruent/STIM_008.jpg	100
169.918	1.032	1032.2	incongruent	Block1	incongruent/STIM_008.jpg	99
172.954	0.658	658.5	incongruent	Block1	incongruent/STIM_008.jpg	100
176.295	1.078	1078.2	incongruent	Block1	incongruent/STIM_008.jpg	99
179.489	0.766	766.4	incongruent	Block1	incongruent/STIM_009.jpg	100
183.607	0.873	873.4	incongruent	Block1	incongruent/STIM_009.jpg	100
186.763	1.21	1209.6	incongruent	Block1	incongruent/STIM_009.jpg	99
190.341	0.662	661.5	incongruent	Block1	incongruent/STIM_009.jpg	99
193.154	0.857	857.3	incongruent	Block1	incongruent/STIM_009.jpg	100
196.944	1.265	1265.4	incongruent	Block1	incongruent/STIM_010.jpg	100
201.108	0.774	774.0	incongruent	Block1	incongruent/STIM_010.jpg	100
205.81	0.915	915.3	incongruent	Block1	incongruent/STIM_010.jpg	99
209.449	1.104	1104.1	incongruent	Block1	incongruent/STIM_010.jpg	99
214.248	1.073	1072.9	incongruent	Block1	incongruent/STIM_010.jpg	99
217.937	1.21	1210.1	incongruent	Block1	incongruent/STIM_011.jpg	100
221.855	1.421	1420.6	incongruent	Block1	incongruent/STIM_011.jpg	99
225.932	1.445	1445.3	incongruent	Block1	incongruent/STIM_011.jpg	100
230.849	1.266	1265.7	incongruent	Block1	incongruent/STIM_011.jpg	100
235.838	1.07	1070.2	incongruent	Block1	incongruent/STIM_011.jpg	99
239.075	1.574	1574.2	incongruent	Block1	incongruent/STIM_012.jpg	100
244.337	1.239	1239.0	incongruent	Block1	incongruent/STIM_012.jpg	99
248.583	1.358	1358.5	incongruent	Block1	incongruent/STIM_012.jpg	99
252.573	1.325	1325.0	incongruent	Block1	incongruent/STIM_012.jpg	100
257.629	0.755	755.0	incongruent	Block1	incongruent/STIM_012.jpg	100
262.153	1.008	1007.8	incongruent	Block1	incongruent/STIM_013.jpg	99
265.701	0.714	714.5	incongruent	Block1	incongruent/STIM_013.jpg	99
269.067	1.343	1342.8	incongruent	Block1	incongruent/STIM_013.jpg	99
273.321	1.326	1325.8	incongruent	Block1	incongruent/STIM_013.jpg	100
278.266	1.038	1038.3	incongruent	Block1	incongruent/STIM_013.jpg	100
283.03	1.321	1321.2	incongruent	Block1	incongruent/STIM_014.jpg	99
287.114	1.462	1462.4	incongruent	Block1	incongruent/STIM_014.jpg	100
292.34	0.955	955.2	incongruent	Block1	incongruent/STIM_014.jpg	99
296.32	1.044	1044.1	incongruent	Block1	incongruent/STIM_014.jpg	99
300.284	1.205	1205.2	incongruent	Block1	incongruent/STIM_014.jpg	99
305.009	1.348	1348.0	incongruent	Block1	incongruent/STIM_015.jpg	99
309.039	0.937	936.7	incongruent	Block1	incongruent/STIM_015.jpg	99
313.511	0.958	958.1	incongruent	Block1	incongruent/STIM_015.jpg	100
317.603	0.674	673.9	incongruent	Block1	incongruent/STIM_015.jpg	100
321.509	1.036	1035.7	incongruent	Block1	incongruent/STIM_015.jpg	100
326.149	0.788	787.6	incongruent	Block1	incongruent/STIM_016.jpg	100
329.747	1.44	1440.1	incongruent	Block1	incongruent/STIM_016.jpg	100
333.437	1.096	1095.9	incongruent	Block1	incongruent/STIM_016.jpg	100
338.406	0.763	763.3	incongruent	Block1	incongruent/STIM_016.jpg	99
342.805	1.046	1046.0	incongruent	Block1	incongruent/STIM_016.jpg	99
347.004	1.047	1047.2	incongruent	Block1	incongruent/STIM_017.jpg	99
351.827	0.951	951.4	incongruent	Block1	incongruent/STIM_017.jpg	99
355.187	1.129	1128.9	incongruent	Block1	incongruent/STIM_017.jpg	100
358.607	0.697	696.8	incongruent	Block1	incongruent/STIM_017.jpg	100
361.596	0.913	912.9	incongruent	Block1	incongruent/STIM_017.jpg	100
366.135	0.947	947.1	incongruent	Block1	incongruent/STIM_018.jpg	100
369.377	1.466	1465.8	incongruent	Block1	incongruent/STIM_018.jpg	100
374.456	1.23	1230.0	incongruent	Block1	incongruent/STIM_018.jpg	99
378.579	0.854	853.5	incongruent	Block1	incongruent/STIM_018.jpg	100
382.175	1.07	1070.2	incongruent	Block1	incongruent/STIM_018.jpg	99
386.728	1.394	1393.9	incongruent	Block1	incongruent/STIM_019.jpg	99
391.019	1.188	1187.6	incongruent	Block1	incongruent/STIM_019.jpg	100
395.841	0.75	750.2	incongruent	Block1	incongruent/STIM_019.jpg	100
399.913	0.812	811.6	incongruent	Block1	incongruent/STIM_019.jpg	99
403.92	1.151	1151.4	incongruent	Block1	incongruent/STIM_019.jpg	99
408.558	1.228	1228.0	incongruent	Block1	incongruent/STIM_020.jpg	100
412.227	0.845	844.9	incongruent	Block1	incongruent/STIM_020.jpg	99
415.906	1.085	1084.6	incongruent	Block1	incongruent/STIM_020.jpg	99
420.581	0.864	864.3	incongruent	Block1	incongruent/STIM_020.jpg	100
424.086	1.167	1166.9	incongruent	Block1	incongruent/STIM_020.jpg	100
427.877	1.575	1574.7	incongruent	Block1	incongruent/STIM_021.jpg	100
431.414	1.396	1396.0	incongruent	Block1	incongruent/STIM_021.jpg	100
435.751	0.805	804.7	incongruent	Block1	incongruent/STIM_021.jpg	100
438.78	0.97	970.3	incongruent	Block1	incongruent/STIM_021.jpg	100
441.81	0.912	912.1	incongruent	Block1	incongruent/STIM_021.jpg	99
444.787	1.11	1110.5	incongruent	Block1	incongruent/STIM_022.jpg	100
449.144	1.009	1008.8	incongruent	Block1	incongruent/STIM_022.jpg	100
453.054	0.829	829.3	incongruent	Block1	incongruent/STIM_022.jpg	100
457.297	1.288	1287.8	incongruent	Block1	incongruent/STIM_022.jpg	99
461.942	1.206	1205.8	incongruent	Block1	incongruent/STIM_022.jpg	100
466.76	1.347	1347.0	incongruent	Block1	incongruent/STIM_023.jpg	99
470.21	1.295	1295.2	incongruent	Block1	incongruent/STIM_023.jpg	100
474.054	0.886	886.4	incongruent	Block1	incongruent/STIM_023.jpg	100
477.979	1.23	1230.3	incongruent	Block1	incongruent/STIM_023.jpg	99
481.83	0.63	630.4	incongruent	Block1	incongruent/STIM_023.jpg	99
484.453	1.587	1587.3	incongruent	Block1	incongruent/STIM_024.jpg	99
488.643	0.72	720.0	incongruent	Block1	incongruent/STIM_024.jpg	100
492.422	0.982	981.7	incongruent	Block1	incongruent/STIM_024.jpg	100
496.578	1.182	1181.8	incongruent	Block1	incongruent/STIM_024.jpg	100
500.414	0.862	861.9	incongruent	Block1	incongruent/STIM_024.jpg	100
505.177	1.562	1561.9	incongruent	Block1	incongruent/STIM_025.jpg	99
509.132	0.929	929.4	incongruent	Block1	incongruent/STIM_025.jpg	99
513.651	1.205	1205.1	incongruent	Block1	incongruent/STIM_025.jpg	100
518.068	1.34	1339.5	incongruent	Block1	incongruent/STIM_025.jpg	100
523.059	0.759	758.9	incongruent	Block1	incongruent/STIM_025.jpg	99
527.468	1.341	1340.9	incongruent	Block1	incongruent/STIM_026.jpg	100
531.247	0.828	828.0	incongruent	Block1	incongruent/STIM_026.jpg	100
534.969	0.893	893.2	incongruent	Block1	incongruent/STIM_026.jpg	100
538.658	0.975	974.9	incongruent	Block1	incongruent/STIM_026.jpg	100
542.381	0.789	788.7	incongruent	Block1	incongruent/STIM_026.jpg	100
546.002	1.483	1482.6	incongruent	Block1	incongruent/STIM_027.jpg	100
550.742	0.781	781.2	incongruent	Block1	incongruent/STIM_027.jpg	100
554.186	1.108	1108.0	incongruent	Block1	incongruent/STIM_027.jpg	99
559.031	1.166	1166.1	incongruent	Block1	incongruent/STIM_027.jpg	100
563.892	1.161	1161.0	incongruent	Block1	incongruent/STIM_027.jpg	100
567.085	1.492	1492.3	incongruent	Block1	incongruent/STIM_028.jpg	99
570.76	0.878	878.1	incongruent	Block1	incongruent/STIM_028.jpg	99
574.117	1.436	1435.7	incongruent	Block1	incongruent/STIM_028.jpg	99
578.659	1.197	1196.8	incongruent	Block1	incongruent/STIM_028.jpg	99
583.444	0.81	809.8	incongruent	Block1	incongruent/STIM_028.jpg	100
586.997	1.558	1558.0	incongruent	Block1	incongruent/STIM_029.jpg	99
591.458	1.462	1461.9	incongruent	Block1	incongruent/STIM_029.jpg	100
596.693	1.098	1097.6	incongruent	Block1	incongruent/STIM_029.jpg	99
601.118	1.025	1024.9	incongruent	Block1	incongruent/STIM_029.jpg	99
605.328	0.983	983.1	incongruent	Block1	incongruent/STIM_029.jpg	99
609.375	0.96	959.6	congruent	Block1	congruent/STIM_000.jpg	100
613.435	0.724	724.0	congruent	Block1	congruent/STIM_000.jpg	99
616.326	0.685	685.3	congruent	Block1	congruent/STIM_000.jpg	100
619.227	0.573	573.1	congruent	Block1	congruent/STIM_000.jpg	100
623.715	0.851	851.3	congruent	Block1	congruent/STIM_000.jpg	100
628.252	0.783	783.1	congruent	Block1	congruent/STIM_001.jpg	99
631.782	0.787	786.6	congruent	Block1	congruent/STIM_001.jpg	100
635.581	0.906	906.5	congruent	Block1	congruent/STIM_001.jpg	100
640.006	0.664	664.4	congruent	Block1	congruent/STIM_001.jpg	99
643.619	0.657	656.7	congruent	Block1	congruent/STIM_001.jpg	99
646.262	0.614	614.1	congruent	Block1	congruent/STIM_002.jpg	100
649.509	0.84	839.6	congruent	Block1	congruent/STIM_002.jpg	100
653.915	0.721	721.2	congruent	Block1	congruent/STIM_002.jpg	100
658.551	0.95	949.8	congruent	Block1	congruent/STIM_002.jpg	99
661.822	0.628	628.1	congruent	Block1	congruent/STIM_002.jpg	99
665.781	0.943	943.0	congruent	Block1	congruent/STIM_003.jpg	99
669.898	0.577	577.3	congruent	Block1	congruent/STIM_003.jpg	99
672.452	0.635	635.4	congruent	Block1	congruent/STIM_003.jpg	99
675.311	0.948	948.2	congruent	Block1	congruent/STIM_003.jpg	99
678.587	0.807	807.3	congruent	Block1	congruent/STIM_003.jpg	99
682.04	0.88	879.6	congruent	Block1	congruent/STIM_004.jpg	100
685.3	0.925	925.4	congruent	Block1	congruent/STIM_004.jpg	100
688.366	0.617	616.8	congruent	Block1	congruent/STIM_004.jpg	100
692.809	0.952	951.8	congruent	Block1	congruent/STIM_004.jpg	100
697.577	0.855	855.4	congruent	Block1	congruent/STIM_004.jpg	100
701.733	0.626	626.2	congruent	Block1	congruent/STIM_005.jpg	100
704.745	0.843	842.8	congruent	Block1	congruent/STIM_005.jpg	99
708.883	0.859	859.1	congruent	Block1	congruent/STIM_005.jpg	100
713.563	0.871	870.8	congruent	Block1	congruent/STIM_005.jpg	100
717.677	0.623	622.9	congruent	Block1	congruent/STIM_005.jpg	100
721.197	0.909	909.3	congruent	Block1	congruent/STIM_006.jpg	99
724.344	0.882	881.7	congruent	Block1	congruent/STIM_006.jpg	99
728.253	0.936	936.5	congruent	Block1	congruent/STIM_006.jpg	100
732.883	0.854	854.2	congruent	Block1	congruent/STIM_006.jpg	99
737.565	0.854	854.3	congruent	Block1	congruent/STIM_006.jpg	100
741.629	0.833	832.6	congruent	Block1	congruent/STIM_007.jpg	99
745.263	0.827	826.9	congruent	Block1	congruent/STIM_007.jpg	100
748.455	0.62	619.5	congruent	Block1	congruent/STIM_007.jpg	99
751.685	0.872	871.9	congruent	Block1	congruent/STIM_007.jpg	99
756.177	0.898	898.3	congruent	Block1	congruent/STIM_007.jpg	100
760.932	0.61	610.4	congruent	Block1	congruent/STIM_008.jpg	99
764.816	0.629	629.0	congruent	Block1	congruent/STIM_008.jpg	99
767.489	0.588	587.8	congruent	Block1	congruent/STIM_008.jpg	100
771.313	0.845	845.2	congruent	Block1	congruent/STIM_008.jpg	100
775.832	0.64	640.1	congruent	Block1	congruent/STIM_008.jpg	100
778.822	0.64	640.1	congruent	Block1	congruent/STIM_009.jpg	100
783.143	0.583	582.7	congruent	Block1	congruent/STIM_009.jpg	99
787.015	0.758	757.6	congruent	Block1	congruent/STIM_009.jpg	99
790.196	0.711	710.6	congruent	Block1	congruent/STIM_009.jpg	99
793.152	0.692	691.9	congruent	Block1	congruent/STIM_009.jpg	99
796.175	0.543	543.3	congruent	Block1	congruent/STIM_010.jpg	100
799.154	0.798	798.5	congruent	Block1	congruent/STIM_010.jpg	99
803.572	0.816	816.2	congruent	Block1	congruent/STIM_010.jpg	99
807.795	0.83	830.1	congruent	Block1	congruent/STIM_010.jpg	100
811.108	0.878	878.5	congruent	Block1	congruent/STIM_010.jpg	99
815.307	0.625	625.4	congruent	Block1	congruent/STIM_011.jpg	99
818.26	0.918	918.3	congruent	Block1	congruent/STIM_011.jpg	99
822.788	0.783	783.3	congruent	Block1	congruent/STIM_011.jpg	99
826.703	0.693	693.2	congruent	Block1	congruent/STIM_011.jpg	99
829.714	0.687	686.9	congruent	Block1	congruent/STIM_011.jpg	99
833.906	0.578	577.7	congruent	Block1	congruent/STIM_012.jpg	99
838.414	0.578	578.5	congruent	Block1	congruent/STIM_012.jpg	100
841.639	0.796	795.7	congruent	Block1	congruent/STIM_012.jpg	99
844.905	0.86	860.5	congruent	Block1	congruent/STIM_012.jpg	100
848.699	0.946	946.0	congruent	Block1	congruent/STIM_012.jpg	100
852.813	0.66	660.4	congruent	Block1	congruent/STIM_013.jpg	100
856.116	0.643	643.4	congruent	Block1	congruent/STIM_013.jpg	99
859.536	0.651	650.9	congruent	Block1	congruent/STIM_013.jpg	100
862.27	0.759	758.7	congruent	Block1	congruent/STIM_013.jpg	99
865.983	0.956	956.5	congruent	Block1	congruent/STIM_013.jpg	100
869.713	0.931	931.3	congruent	Block1	congruent/STIM_014.jpg	100
872.606	0.697	696.9	congruent	Block1	congruent/STIM_014.jpg	99
875.942	0.806	806.4	congruent	Block1	congruent/STIM_014.jpg	99
880.618	0.593	593.0	congruent	Block1	congruent/STIM_014.jpg	100
884.638	0.676	676.3	congruent	Block1	congruent/STIM_014.jpg	100
888.761	0.58	579.8	congruent	Block1	congruent/STIM_015.jpg	100
892.565	0.631	631.3	congruent	Block1	congruent/STIM_015.jpg	100
895.884	0.656	655.7	congruent	Block1	congruent/STIM_015.jpg	100
899.683	0.57	570.5	congruent	Block1	congruent/STIM_015.jpg	100
902.858	0.552	552.1	congruent	Block1	congruent/STIM_015.jpg	99
907.116	0.551	551.4	congruent	Block1	congruent/STIM_016.jpg	100
911.442	0.786	786.1	congruent	Block1	congruent/STIM_016.jpg	100
914.603	0.823	822.9	congruent	Block1	congruent/STIM_016.jpg	100
918.648	0.903	902.7	congruent	Block1	congruent/STIM_016.jpg	99
922.255	0.689	689.1	congruent	Block1	congruent/STIM_016.jpg	100
925.186	0.579	578.8	congruent	Block1	congruent/STIM_017.jpg	99
928.628	0.617	617.4	congruent	Block1	congruent/STIM_017.jpg	99
933.176	0.723	723.2	congruent	Block1	congruent/STIM_017.jpg	99
936.917	0.595	595.2	congruent	Block1	congruent/STIM_017.jpg	99
940.604	0.714	713.8	congruent	Block1	congruent/STIM_017.jpg	99
943.857	0.54	539.6	congruent	Block1	congruent/STIM_018.jpg	100
947.109	0.698	698.4	congruent	Block1	congruent/STIM_018.jpg	99
951.728	0.82	819.8	congruent	Block1	congruent/STIM_018.jpg	100
955.151	0.86	860.2	congruent	Block1	congruent/STIM_018.jpg	100
959.0	0.689	688.9	congruent	Block1	congruent/STIM_018.jpg	99
962.071	0.772	771.6	congruent	Block1	congruent/STIM_019.jpg	100
965.688	0.873	873.0	congruent	Block1	congruent/STIM_019.jpg	99
970.309	0.583	582.7	congruent	Block1	congruent/STIM_019.jpg	99
973.659	0.816	815.6	congruent	Block1	congruent/STIM_019.jpg	100
978.053	0.761	761.2	congruent	Block1	congruent/STIM_019.jpg	100
982.201	0.637	637.3	congruent	Block1	congruent/STIM_020.jpg	100
985.37	0.809	808.6	congruent	Block1	congruent/STIM_020.jpg	99
988.928	0.824	823.6	congruent	Block1	congruent/STIM_020.jpg	99
991.961	0.836	835.5	congruent	Block1	congruent/STIM_020.jpg	99
996.37	0.883	882.6	congruent	Block1	congruent/STIM_020.jpg	99
1000.623	0.582	582.5	congruent	Block1	congruent/STIM_021.jpg	99
1004.39	0.898	898.3	congruent	Block1	congruent/STIM_021.jpg	100
1008.479	0.757	757.3	congruent	Block1	congruent/STIM_021.jpg	99
1011.957	0.845	845.2	congruent	Block1	congruent/STIM_021.jpg	100
1016.593	0.656	655.7	congruent	Block1	congruent/STIM_021.jpg	100
1020.815	0.76	759.9	congruent	Block1	congruent/STIM_022.jpg	99
1025.377	0.877	877.1	congruent	Block1	congruent/STIM_022.jpg	99
1028.392	0.698	698.3	congruent	Block1	congruent/STIM_022.jpg	99
1031.893	0.538	537.6	congruent	Block1	congruent/STIM_022.jpg	99
1034.782	0.739	738.7	congruent	Block1	congruent/STIM_022.jpg	100
1038.51	0.601	600.6	congruent	Block1	congruent/STIM_023.jpg	100
1042.23	0.914	914.0	congruent	Block1	congruent/STIM_023.jpg	99
1046.813	0.627	626.8	congruent	Block1	congruent/STIM_023.jpg	100
1050.885	0.759	759.0	congruent	Block1	congruent/STIM_023.jpg	99
1055.503	0.656	656.0	congruent	Block1	congruent/STIM_023.jpg	100
1059.295	0.876	876.0	congruent	Block1	congruent/STIM_024.jpg	100
1063.154	0.669	668.7	congruent	Block1	congruent/STIM_024.jpg	100
1066.593	0.589	589.2	congruent	Block1	congruent/STIM_024.jpg	100
1070.607	0.678	677.6	congruent	Block1	congruent/STIM_024.jpg	100
1074.551	0.547	547.4	congruent	Block1	congruent/STIM_024.jpg	100
1078.282	0.879	879.3	congruent	Block1	congruent/STIM_025.jpg	100
1081.8	0.731	731.0	congruent	Block1	congruent/STIM_025.jpg	99
1085.466	0.766	765.7	congruent	Block1	congruent/STIM_025.jpg	99
1088.511	0.633	632.8	congruent	Block1	congruent/STIM_025.jpg	100
1091.778	0.793	793.2	congruent	Block1	congruent/STIM_025.jpg	100
1095.112	0.661	660.9	congruent	Block1	congruent/STIM_026.jpg	99
1099.29	0.661	661.2	congruent	Block1	congruent/STIM_026.jpg	100
1102.64	0.732	732.2	congruent	Block1	congruent/STIM_026.jpg	100
1105.745	0.591	590.7	congruent	Block1	congruent/STIM_026.jpg	100
1109.38	0.81	810.2	congruent	Block1	congruent/STIM_026.jpg	100
1112.607	0.632	632.4	congruent	Block1	congruent/STIM_027.jpg	100
1116.378	0.88	879.8	congruent	Block1	congruent/STIM_027.jpg	99
1120.664	0.846	845.7	congruent	Block1	congruent/STIM_027.jpg	99
1124.997	0.712	711.8	congruent	Block1	congruent/STIM_027.jpg	99
1129.369	0.939	939.2	congruent	Block1	congruent/STIM_027.jpg	99
1133.26	0.846	846.3	congruent	Block1	congruent/STIM_028.jpg	99
1136.42	0.745	745.3	congruent	Block1	congruent/STIM_028.jpg	100
1139.481	0.814	814.1	congruent	Block1	congruent/STIM_028.jpg	99
1143.626	0.596	596.4	congruent	Block1	congruent/STIM_028.jpg	99
1147.49	0.875	875.3	congruent	Block1	congruent/STIM_028.jpg	100
1150.453	0.878	877.9	congruent	Block1	congruent/STIM_029.jpg	100
1153.654	0.73	730.1	congruent	Block1	congruent/STIM_029.jpg	100
1156.477	0.707	706.9	congruent	Block1	congruent/STIM_029.jpg	99
1160.809	0.838	837.9	congruent	Block1	congruent/STIM_029.jpg	100
1165.265	0.577	576.6	congruent	Block1	congruent/STIM_029.jpg	100
1168.023	1.014	1014.5	incongruent	Block2	incongruent/STIM_000.jpg	99
1171.992	1.261	1261.4	incongruent	Block2	incongruent/STIM_000.jpg	100
1175.948	0.576	575.9	incongruent	Block2	incongruent/STIM_000.jpg	99
1180.4	0.609	608.7	incongruent	Block2	incongruent/STIM_000.jpg	100
1183.749	0.566	565.5	incongruent	Block2	incongruent/STIM_000.jpg	99
1188.243	0.814	813.9	incongruent	Block2	incongruent/STIM_001.jpg	99
1192.95	0.789	789.4	incongruent	Block2	incongruent/STIM_001.jpg	100
1197.593	0.648	647.7	incongruent	Block2	incongruent/STIM_001.jpg	100
1202.165	1.012	1011.8	incongruent	Block2	incongruent/STIM_001.jpg	99
1206.664	0.774	773.7	incongruent	Block2	incongruent/STIM_001.jpg	99
1210.882	0.926	926.0	incongruent	Block2	incongruent/STIM_002.jpg	100
1214.036	1.185	1185.4	incongruent	Block2	incongruent/STIM_002.jpg	100
1217.157	0.65	650.0	incongruent	Block2	incongruent/STIM_002.jpg	99
1220.849	0.574	573.8	incongruent	Block2	incongruent/STIM_002.jpg	100
1223.764	1.014	1013.9	incongruent	Block2	incongruent/STIM_002.jpg	99
1227.25	0.987	987.0	incongruent	Block2	incongruent/STIM_003.jpg	99
1230.237	1.055	1054.9	incongruent	Block2	incongruent/STIM_003.jpg	99
1233.63	0.868	867.6	incongruent	Block2	incongruent/STIM_003.jpg	99
1237.476	0.775	775.1	incongruent	Block2	incongruent/STIM_003.jpg	100
1240.445	1.094	1093.8	incongruent	Block2	incongruent/STIM_003.jpg	100
1244.622	0.759	758.6	incongruent	Block2	incongruent/STIM_004.jpg	99
1247.636	1.232	1232.3	incongruent	Block2	incongruent/STIM_004.jpg	100
1251.568	0.898	898.5	incongruent	Block2	incongruent/STIM_004.jpg	99
1255.314	1.075	1075.0	incongruent	Block2	incongruent/STIM_004.jpg	99
1260.073	0.632	632.5	incongruent	Block2	incongruent/STIM_004.jpg	100
1264.544	0.707	706.9	incongruent	Block2	incongruent/STIM_005.jpg	100
1267.387	1.067	1067.1	incongruent	Block2	incongruent/STIM_005.jpg	99
1271.275	0.84	839.8	incongruent	Block2	incongruent/STIM_005.jpg	100
1274.599	0.966	966.3	incongruent	Block2	incongruent/STIM_005.jpg	99
1278.08	0.582	581.7	incongruent	Block2	incongruent/STIM_005.jpg	100
1281.125	0.738	738.4	incongruent	Block2	incongruent/STIM_006.jpg	99
1284.578	0.635	634.8	incongruent	Block2	incongruent/STIM_006.jpg	99
1287.557	0.76	760.1	incongruent	Block2	incongruent/STIM_006.jpg	100
1290.359	0.894	894.2	incongruent	Block2	incongruent/STIM_006.jpg	100
1294.911	0.754	754.2	incongruent	Block2	incongruent/STIM_006.jpg	99
1299.291	0.924	924.3	incongruent	Block2	incongruent/STIM_007.jpg	99
1303.93	0.9	899.9	incongruent	Block2	incongruent/STIM_007.jpg	100
1307.724	0.713	712.8	incongruent	Block2	incongruent/STIM_007.jpg	100
1312.215	1.058	1058.3	incongruent	Block2	incongruent/STIM_007.jpg	99
1316.697	0.886	886.2	incongruent	Block2	incongruent/STIM_007.jpg	99
1320.422	1.141	1141.4	incongruent	Block2	incongruent/STIM_008.jpg	99
1324.966	1.041	1041.2	incongruent	Block2	incongruent/STIM_008.jpg	100
1329.57	0.646	646.5	incongruent	Block2	incongruent/STIM_008.jpg	100
1334.13	0.806	805.6	incongruent	Block2	incongruent/STIM_008.jpg	99
1338.634	0.673	673.4	incongruent	Block2	incongruent/STIM_008.jpg	99
1341.929	0.814	814.4	incongruent	Block2	incongruent/STIM_009.jpg	100
1346.264	1.07	1069.9	incongruent	Block2	incongruent/STIM_009.jpg	100
1350.368	0.616	616.4	incongruent	Block2	incongruent/STIM_009.jpg	99
1353.248	0.966	965.6	incongruent	Block2	incongruent/STIM_009.jpg	100
1357.527	1.009	1009.2	incongruent	Block2	incongruent/STIM_009.jpg	99
1362.284	1.191	1190.8	incongruent	Block2	incongruent/STIM_010.jpg	100
1365.897	1.254	1254.2	incongruent	Block2	incongruent/STIM_010.jpg	100
1371.048	0.856	855.6	incongruent	Block2	incongruent/STIM_010.jpg	100
1375.562	0.612	611.9	incongruent	Block2	incongruent/STIM_010.jpg	100
1378.599	0.69	689.5	incongruent	Block2	incongruent/STIM_010.jpg	100
1381.732	1.002	1002.0	incongruent	Block2	incongruent/STIM_011.jpg	100
1386.057	0.988	987.6	incongruent	Block2	incongruent/STIM_011.jpg	99
1389.558	0.674	674.1	incongruent	Block2	incongruent/STIM_011.jpg	100
1392.24	0.536	535.6	incongruent	Block2	incongruent/STIM_011.jpg	100
1395.094	0.686	686.5	incongruent	Block2	incongruent/STIM_011.jpg	99
1397.83	1.111	1111.3	incongruent	Block2	incongruent/STIM_012.jpg	99
1401.543	0.933	933.4	incongruent	Block2	incongruent/STIM_012.jpg	100
1405.656	1.03	1030.1	incongruent	Block2	incongruent/STIM_012.jpg	100
1409.951	1.064	1063.6	incongruent	Block2	incongruent/STIM_012.jpg	99
1414.044	0.684	684.1	incongruent	Block2	incongruent/STIM_012.jpg	99
1418.155	1.175	1174.7	incongruent	Block2	incongruent/STIM_013.jpg	100
1422.351	1.247	1247.0	incongruent	Block2	incongruent/STIM_013.jpg	100
1425.787	0.866	865.6	incongruent	Block2	incongruent/STIM_013.jpg	100
1429.547	0.666	665.7	incongruent	Block2	incongruent/STIM_013.jpg	99
1433.406	0.602	601.8	incongruent	Block2	incongruent/STIM_013.jpg	99
1436.884	1.093	1092.9	incongruent	Block2	incongruent/STIM_014.jpg	100
1440.981	1.262	1261.7	incongruent	Block2	incongruent/STIM_014.jpg	100
1445.438	1.06	1059.9	incongruent	Block2	incongruent/STIM_014.jpg	100
1448.87	0.821	820.6	incongruent	Block2	incongruent/STIM_014.jpg	100
1452.876	1.044	1044.5	incongruent	Block2	incongruent/STIM_014.jpg	100
1457.634	0.844	844.4	incongruent	Block2	incongruent/STIM_015.jpg	100
1460.969	0.66	660.0	incongruent	Block2	incongruent/STIM_015.jpg	100
1464.538	0.63	630.4	incongruent	Block2	incongruent/STIM_015.jpg	99
1468.515	0.818	817.6	incongruent	Block2	incongruent/STIM_015.jpg	99
1472.565	0.82	819.9	incongruent	Block2	incongruent/STIM_015.jpg	99
1476.251	1.314	1313.7	incongruent	Block2	incongruent/STIM_016.jpg	100
1480.973	0.61	610.3	incongruent	Block2	incongruent/STIM_016.jpg	99
1485.11	0.745	745.0	incongruent	Block2	incongruent/STIM_016.jpg	99
1488.439	0.911	911.4	incongruent	Block2	incongruent/STIM_016.jpg	100
1492.553	0.691	691.4	incongruent	Block2	incongruent/STIM_016.jpg	99
1496.203	0.884	883.6	incongruent	Block2	incongruent/STIM_017.jpg	99
1499.714	0.948	947.7	incongruent	Block2	incongruent/STIM_017.jpg	100
1503.566	1.047	1047.2	incongruent	Block2	incongruent/STIM_017.jpg	99
1508.512	0.845	845.2	incongruent	Block2	incongruent/STIM_017.jpg	99
1512.201	0.738	738.0	incongruent	Block2	incongruent/STIM_017.jpg	100
1516.83	0.793	792.9	incongruent	Block2	incongruent/STIM_018.jpg	99
1520.695	1.044	1044.4	incongruent	Block2	incongruent/STIM_018.jpg	100
1524.955	0.688	687.6	incongruent	Block2	incongruent/STIM_018.jpg	99
1529.244	0.791	791.3	incongruent	Block2	incongruent/STIM_018.jpg	100
1533.594	0.876	875.5	incongruent	Block2	incongruent/STIM_018.jpg	99
1537.508	0.828	827.5	incongruent	Block2	incongruent/STIM_019.jpg	100
1541.023	1.11	1110.0	incongruent	Block2	incongruent/STIM_019.jpg	99
1544.441	0.575	575.2	incongruent	Block2	incongruent/STIM_019.jpg	99
1548.712	0.666	665.6	incongruent	Block2	incongruent/STIM_019.jpg	100
1552.262	0.831	831.0	incongruent	Block2	incongruent/STIM_019.jpg	99
1556.812	1.322	1322.5	incongruent	Block2	incongruent/STIM_020.jpg	100
1560.994	0.854	854.3	incongruent	Block2	incongruent/STIM_020.jpg	100
1564.854	0.593	593.1	incongruent	Block2	incongruent/STIM_020.jpg	100
1569.131	0.836	836.1	incongruent	Block2	incongruent/STIM_020.jpg	99
1572.027	1.089	1089.2	incongruent	Block2	incongruent/STIM_020.jpg	100
1575.775	0.667	667.1	incongruent	Block2	incongruent/STIM_021.jpg	99
1580.163	0.614	613.5	incongruent	Block2	incongruent/STIM_021.jpg	100
1583.113	0.838	838.5	incongruent	Block2	incongruent/STIM_021.jpg	99
1586.752	0.62	620.3	incongruent	Block2	incongruent/STIM_021.jpg	99
1590.399	0.637	636.9	incongruent	Block2	incongruent/STIM_021.jpg	99
1593.694	0.977	976.8	incongruent	Block2	incongruent/STIM_022.jpg	100
1596.968	1.255	1255.1	incongruent	Block2	incongruent/STIM_022.jpg	100
1600.435	1.041	1040.8	incongruent	Block2	incongruent/STIM_022.jpg	100
1603.991	0.649	649.3	incongruent	Block2	incongruent/STIM_022.jpg	99
1607.78	1.088	1088.0	incongruent	Block2	incongruent/STIM_022.jpg	99
1611.353	1.295	1295.2	incongruent	Block2	incongruent/STIM_023.jpg	100
1616.308	0.869	868.9	incongruent	Block2	incongruent/STIM_023.jpg	99
1619.78	0.822	821.7	incongruent	Block2	incongruent/STIM_023.jpg	99
1624.415	0.725	724.6	incongruent	Block2	incongruent/STIM_023.jpg	99
1628.409	0.784	784.5	incongruent	Block2	incongruent/STIM_023.jpg	100
1631.976	0.946	945.9	incongruent	Block2	incongruent/STIM_024.jpg	99
1636.386	1.099	1099.0	incongruent	Block2	incongruent/STIM_024.jpg	99
1641.214	0.65	649.5	incongruent	Block2	incongruent/STIM_024.jpg	100
1645.104	0.576	576.4	incongruent	Block2	incongruent/STIM_024.jpg	99
1648.975	0.683	683.2	incongruent	Block2	incongruent/STIM_024.jpg	99
1652.078	1.186	1186.4	incongruent	Block2	incongruent/STIM_025.jpg	100
1655.565	1.08	1080.3	incongruent	Block2	incongruent/STIM_025.jpg	99
1659.549	1.094	1094.0	incongruent	Block2	incongruent/STIM_025.jpg	100
1664.331	0.951	951.4	incongruent	Block2	incongruent/STIM_025.jpg	100
1668.462	0.884	883.5	incongruent	Block2	incongruent/STIM_025.jpg	100
1672.604	1.356	1356.3	incongruent	Block2	incongruent/STIM_026.jpg	99
1677.148	1.101	1101.2	incongruent	Block2	incongruent/STIM_026.jpg	100
1681.898	0.733	732.8	incongruent	Block2	incongruent/STIM_026.jpg	100
1686.317	1.01	1010.3	incongruent	Block2	incongruent/STIM_026.jpg	99
1689.844	0.66	660.4	incongruent	Block2	incongruent/STIM_026.jpg	99
1694.274	0.982	982.2	incongruent	Block2	incongruent/STIM_027.jpg	99
1698.333	0.89	890.0	incongruent	Block2	incongruent/STIM_027.jpg	99
1702.874	0.772	772.2	incongruent	Block2	incongruent/STIM_027.jpg	99
1706.011	0.858	858.2	incongruent	Block2	incongruent/STIM_027.jpg	99
1709.807	0.578	578.4	incongruent	Block2	incongruent/STIM_027.jpg	99
1713.016	0.763	763.2	incongruent	Block2	incongruent/STIM_028.jpg	100
1715.871	0.919	918.7	incongruent	Block2	incongruent/STIM_028.jpg	100
1720.124	1.179	1179.2	incongruent	Block2	incongruent/STIM_028.jpg	100
1724.62	0.957	957.2	incongruent	Block2	incongruent/STIM_028.jpg	100
1728.739	1.036	1035.9	incongruent	Block2	incongruent/STIM_028.jpg	99
1733.282	1.243	1243.2	incongruent	Block2	incongruent/STIM_029.jpg	99
1738.049	1.022	1022.4	incongruent	Block2	incongruent/STIM_029.jpg	100
1742.872	0.782	781.9	incongruent	Block2	incongruent/STIM_029.jpg	99
1746.518	1.021	1021.2	incongruent	Block2	incongruent/STIM_029.jpg	99
1751.433	0.874	874.5	incongruent	Block2	incongruent/STIM_029.jpg	99
1755.492	0.921	921.0	congruent	Block2	congruent/STIM_000.jpg	99
1758.605	0.664	664.5	congruent	Block2	congruent/STIM_000.jpg	99
1761.944	0.887	887.1	congruent	Block2	congruent/STIM_000.jpg	99
1765.168	0.678	678.4	congruent	Block2	congruent/STIM_000.jpg	100
1769.6	0.927	927.0	congruent	Block2	congruent/STIM_000.jpg	100
1772.852	0.687	686.7	congruent	Block2	congruent/STIM_001.jpg	100
1777.152	0.886	885.5	congruent	Block2	congruent/STIM_001.jpg	100
1780.501	0.671	670.8	congruent	Block2	congruent/STIM_001.jpg	100
1783.921	0.944	944.0	congruent	Block2	congruent/STIM_001.jpg	100
1787.584	0.852	851.5	congruent	Block2	congruent/STIM_001.jpg	99
1791.113	0.833	832.8	congruent	Block2	congruent/STIM_002.jpg	100
1794.481	0.594	593.7	congruent	Block2	congruent/STIM_002.jpg	100
1798.307	0.878	878.2	congruent	Block2	congruent/STIM_002.jpg	99
1802.692	0.962	961.8	congruent	Block2	congruent/STIM_002.jpg	100
1806.684	0.823	823.0	congruent	Block2	congruent/STIM_002.jpg	100
1811.12	0.891	891.2	congruent	Block2	congruent/STIM_003.jpg	100
1815.556	0.894	894.1	congruent	Block2	congruent/STIM_003.jpg	99
1818.68	0.552	552.2	congruent	Block2	congruent/STIM_003.jpg	99
1823.118	0.841	840.8	congruent	Block2	congruent/STIM_003.jpg	100
1826.449	0.537	537.4	congruent	Block2	congruent/STIM_003.jpg	99
1830.81	0.601	601.2	congruent	Block2	congruent/STIM_004.jpg	100
1833.762	0.874	874.3	congruent	Block2	congruent/STIM_004.jpg	100
1837.338	0.589	589.2	congruent	Block2	congruent/STIM_004.jpg	100
1841.531	0.574	574.3	congruent	Block2	congruent/STIM_004.jpg	100
1845.964	0.901	901.2	congruent	Block2	congruent/STIM_004.jpg	99
1850.056	0.95	950.0	congruent	Block2	congruent/STIM_005.jpg	100
1854.068	0.783	782.9	congruent	Block2	congruent/STIM_005.jpg	100
1858.128	0.574	573.9	congruent	Block2	congruent/STIM_005.jpg	100
1862.211	0.618	617.7	congruent	Block2	congruent/STIM_005.jpg	99
1866.626	0.892	892.2	congruent	Block2	congruent/STIM_005.jpg	99
1871.111	0.948	948.3	congruent	Block2	congruent/STIM_006.jpg	100
1875.21	0.854	853.5	congruent	Block2	congruent/STIM_006.jpg	100
1878.824	0.537	536.8	congruent	Block2	congruent/STIM_006.jpg	100
1881.644	0.708	708.0	congruent	Block2	congruent/STIM_006.jpg	100
1885.621	0.642	641.7	congruent	Block2	congruent/STIM_006.jpg	100
1888.904	0.698	697.7	congruent	Block2	congruent/STIM_007.jpg	99
1892.519	0.538	538.2	congruent	Block2	congruent/STIM_007.jpg	99
1896.389	0.729	728.9	congruent	Block2	congruent/STIM_007.jpg	100
1899.135	0.9	899.5	congruent	Block2	congruent/STIM_007.jpg	100
1903.402	0.59	590.5	congruent	Block2	congruent/STIM_007.jpg	100
1907.395	0.887	886.9	congruent	Block2	congruent/STIM_008.jpg	100
1910.845	0.619	618.9	congruent	Block2	congruent/STIM_008.jpg	99
1914.499	0.727	727.4	congruent	Block2	congruent/STIM_008.jpg	100
1917.963	0.839	838.9	congruent	Block2	congruent/STIM_008.jpg	99
1921.922	0.642	641.5	congruent	Block2	congruent/STIM_008.jpg	99
1924.627	0.742	742.2	congruent	Block2	congruent/STIM_009.jpg	99
1929.116	0.684	683.5	congruent	Block2	congruent/STIM_009.jpg	100
1932.814	0.951	951.2	congruent	Block2	congruent/STIM_009.jpg	100
1936.695	0.75	750.4	congruent	Block2	congruent/STIM_009.jpg	99
1940.883	0.957	957.0	congruent	Block2	congruent/STIM_009.jpg	100
1945.117	0.676	675.8	congruent	Block2	congruent/STIM_010.jpg	99
1949.491	0.671	671.4	congruent	Block2	congruent/STIM_010.jpg	100
1953.138	0.923	923.0	congruent	Block2	congruent/STIM_010.jpg	99
1957.814	0.614	613.7	congruent	Block2	congruent/STIM_010.jpg	99
1960.678	0.641	640.9	congruent	Block2	congruent/STIM_010.jpg	99
1963.509	0.827	826.6	congruent	Block2	congruent/STIM_011.jpg	100
1968.127	0.765	765.3	congruent	Block2	congruent/STIM_011.jpg	99
1972.014	0.613	613.0	congruent	Block2	congruent/STIM_011.jpg	100
1976.565	0.795	795.2	congruent	Block2	congruent/STIM_011.jpg	100
1980.142	0.874	873.9	congruent	Block2	congruent/STIM_011.jpg	100
1984.761	0.698	697.8	congruent	Block2	congruent/STIM_012.jpg	99
1989.158	0.908	908.1	congruent	Block2	congruent/STIM_012.jpg	99
1993.696	0.661	661.3	congruent	Block2	congruent/STIM_012.jpg	99
1998.009	0.592	592.0	congruent	Block2	congruent/STIM_012.jpg	100
2001.545	0.697	696.6	congruent	Block2	congruent/STIM_012.jpg	99
2005.077	0.796	796.5	congruent	Block2	congruent/STIM_013.jpg	100
2008.424	0.823	823.1	congruent	Block2	congruent/STIM_013.jpg	100
2012.236	0.583	583.2	congruent	Block2	congruent/STIM_013.jpg	99
2015.673	0.705	705.2	congruent	Block2	congruent/STIM_013.jpg	100
2018.66	0.738	738.0	congruent	Block2	congruent/STIM_013.jpg	100
2023.257	0.795	795.4	congruent	Block2	congruent/STIM_014.jpg	99
2026.63	0.693	692.6	congruent	Block2	congruent/STIM_014.jpg	99
2030.237	0.936	936.5	congruent	Block2	congruent/STIM_014.jpg	100
2034.95	0.934	933.9	congruent	Block2	congruent/STIM_014.jpg	100
2039.754	0.864	864.1	congruent	Block2	congruent/STIM_014.jpg	99
2042.562	0.561	560.8	congruent	Block2	congruent/STIM_015.jpg	100
2045.52	0.81	809.9	congruent	Block2	congruent/STIM_015.jpg	100
2048.893	0.797	796.6	congruent	Block2	congruent/STIM_015.jpg	100
2051.969	0.884	883.8	congruent	Block2	congruent/STIM_015.jpg	99
2054.866	0.794	793.5	congruent	Block2	congruent/STIM_015.jpg	100
2058.583	0.893	892.8	congruent	Block2	congruent/STIM_016.jpg	99
2062.956	0.773	773.1	congruent	Block2	congruent/STIM_016.jpg	100
2066.942	0.887	887.4	congruent	Block2	congruent/STIM_016.jpg	100
2071.304	0.701	701.3	congruent	Block2	congruent/STIM_016.jpg	99
2075.458	0.686	685.8	congruent	Block2	congruent/STIM_016.jpg	99
2078.567	0.909	908.7	congruent	Block2	congruent/STIM_017.jpg	99
2082.733	0.61	609.8	congruent	Block2	congruent/STIM_017.jpg	99
2087.128	0.928	928.3	congruent	Block2	congruent/STIM_017.jpg	100
2090.18	0.722	722.1	congruent	Block2	congruent/STIM_017.jpg	99
2093.568	0.835	835.2	congruent	Block2	congruent/STIM_017.jpg	100
2097.988	0.604	604.3	congruent	Block2	congruent/STIM_018.jpg	100
2102.166	0.84	840.0	congruent	Block2	congruent/STIM_018.jpg	100
2106.309	0.596	596.1	congruent	Block2	congruent/STIM_018.jpg	99
2110.332	0.95	949.6	congruent	Block2	congruent/STIM_018.jpg	99
2113.556	0.942	942.4	congruent	Block2	congruent/STIM_018.jpg	100
2117.449	0.595	595.0	congruent	Block2	congruent/STIM_019.jpg	100
2120.337	0.805	804.7	congruent	Block2	congruent/STIM_019.jpg	99
2123.415	0.577	577.1	congruent	Block2	congruent/STIM_019.jpg	99
2127.838	0.739	739.4	congruent	Block2	congruent/STIM_019.jpg	99
2131.882	0.934	933.9	congruent	Block2	congruent/STIM_019.jpg	99
2136.3	0.612	612.1	congruent	Block2	congruent/STIM_020.jpg	100
2139.671	0.865	864.8	congruent	Block2	congruent/STIM_020.jpg	100
2143.753	0.876	876.5	congruent	Block2	congruent/STIM_020.jpg	100
2147.217	0.803	803.1	congruent	Block2	congruent/STIM_020.jpg	99
2151.153	0.722	722.4	congruent	Block2	congruent/STIM_020.jpg	99
2155.036	0.7	699.6	congruent	Block2	congruent/STIM_021.jpg	100
2159.084	0.838	838.0	congruent	Block2	congruent/STIM_021.jpg	100
2163.336	0.659	658.9	congruent	Block2	congruent/STIM_021.jpg	100
2167.687	0.556	556.3	congruent	Block2	congruent/STIM_021.jpg	100
2170.518	0.551	550.8	congruent	Block2	congruent/STIM_021.jpg	100
2174.432	0.821	820.7	congruent	Block2	congruent/STIM_022.jpg	100
2178.458	0.641	640.9	congruent	Block2	congruent/STIM_022.jpg	100
2182.298	0.657	656.8	congruent	Block2	congruent/STIM_022.jpg	99
2185.233	0.828	827.8	congruent	Block2	congruent/STIM_022.jpg	99
2188.113	0.842	841.6	congruent	Block2	congruent/STIM_022.jpg	100
2191.861	0.753	753.0	congruent	Block2	congruent/STIM_023.jpg	99
2194.786	0.67	670.5	congruent	Block2	congruent/STIM_023.jpg	99
2198.61	0.881	881.3	congruent	Block2	congruent/STIM_023.jpg	100
2202.174	0.771	771.2	congruent	Block2	congruent/STIM_023.jpg	100
2206.792	0.773	772.9	congruent	Block2	congruent/STIM_023.jpg	99
2211.441	0.792	791.7	congruent	Block2	congruent/STIM_024.jpg	99
2215.346	0.626	626.1	congruent	Block2	congruent/STIM_024.jpg	99
2218.434	0.958	958.2	congruent	Block2	congruent/STIM_024.jpg	100
2223.17	0.701	701.3	congruent	Block2	congruent/STIM_024.jpg	99
2226.534	0.542	541.5	congruent	Block2	congruent/STIM_024.jpg	99
2229.817	0.627	627.0	congruent	Block2	congruent/STIM_025.jpg	100
2234.012	0.851	851.2	congruent	Block2	congruent/STIM_025.jpg	100
2237.053	0.912	911.7	congruent	Block2	congruent/STIM_025.jpg	100
2241.572	0.609	609.3	congruent	Block2	congruent/STIM_025.jpg	100
2245.695	0.819	818.6	congruent	Block2	congruent/STIM_025.jpg	100
2249.149	0.74	740.3	congruent	Block2	congruent/STIM_026.jpg	100
2253.012	0.715	714.6	congruent	Block2	congruent/STIM_026.jpg	100
2255.916	0.956	955.5	congruent	Block2	congruent/STIM_026.jpg	99
2260.142	0.903	903.0	congruent	Block2	congruent/STIM_026.jpg	99
2263.625	0.922	921.6	congruent	Block2	congruent/STIM_026.jpg	99
2268.333	0.55	549.5	congruent	Block2	congruent/STIM_027.jpg	99
2272.769	0.573	573.0	congruent	Block2	congruent/STIM_027.jpg	100
2276.591	0.816	816.4	congruent	Block2	congruent/STIM_027.jpg	99
2280.316	0.904	903.5	congruent	Block2	congruent/STIM_027.jpg	99
2284.142	0.696	696.3	congruent	Block2	congruent/STIM_027.jpg	100
2288.455	0.905	905.0	congruent	Block2	congruent/STIM_028.jpg	99
2292.644	0.83	829.8	congruent	Block2	congruent/STIM_028.jpg	99
2295.758	0.629	628.7	congruent	Block2	congruent/STIM_028.jpg	99
2298.367	0.889	888.6	congruent	Block2	congruent/STIM_028.jpg	99
2302.442	0.634	634.1	congruent	Block2	congruent/STIM_028.jpg	99
2305.832	0.86	860.4	congruent	Block2	congruent/STIM_029.jpg	100
2310.039	0.768	768.2	congruent	Block2	congruent/STIM_029.jpg	99
2313.392	0.715	714.7	congruent	Block2	congruent/STIM_029.jpg	100
2317.734	0.834	833.6	congruent	Block2	congruent/STIM_029.jpg	99
2321.366	0.873	873.2	congruent	Block2	congruent/STIM_029.jpg	99
2325.027	0.813	813.3	incongruent	Block3	incongruent/STIM_000.jpg	100
2329.688	0.653	653.3	incongruent	Block3	incongruent/STIM_000.jpg	99
2333.805	0.761	761.0	incongruent	Block3	incongruent/STIM_000.jpg	99
2337.955	1.008	1007.5	incongruent	Block3	incongruent/STIM_000.jpg	100
2342.286	0.617	616.9	incongruent	Block3	incongruent/STIM_000.jpg	100
2345.215	0.736	735.6	incongruent	Block3	incongruent/STIM_001.jpg	99
2348.88	0.992	991.6	incongruent	Block3	incongruent/STIM_001.jpg	100
2353.5	0.638	637.9	incongruent	Block3	incongruent/STIM_001.jpg	100
2357.519	0.629	628.6	incongruent	Block3	incongruent/STIM_001.jpg	99
2361.809	1.114	1114.0	incongruent	Block3	incongruent/STIM_001.jpg	99
2365.955	0.875	875.0	incongruent	Block3	incongruent/STIM_002.jpg	100
2369.917	0.749	748.7	incongruent	Block3	incongruent/STIM_002.jpg	99
2373.347	0.528	528.5	incongruent	Block3	incongruent/STIM_002.jpg	99
2377.81	0.584	584.0	incongruent	Block3	incongruent/STIM_002.jpg	99
2381.514	0.935	934.8	incongruent	Block3	incongruent/STIM_002.jpg	99
2385.297	0.555	554.9	incongruent	Block3	incongruent/STIM_003.jpg	99
2388.808	0.702	701.9	incongruent	Block3	incongruent/STIM_003.jpg	100
2392.405	0.954	953.8	incongruent	Block3	incongruent/STIM_003.jpg	100
2396.644	1.05	1050.4	incongruent	Block3	incongruent/STIM_003.jpg	99
2399.901	0.624	623.6	incongruent	Block3	incongruent/STIM_003.jpg	100
2404.303	0.845	845.1	incongruent	Block3	incongruent/STIM_004.jpg	100
2408.274	0.937	936.9	incongruent	Block3	incongruent/STIM_004.jpg	99
2412.851	1.096	1096.0	incongruent	Block3	incongruent/STIM_004.jpg	99
2416.267	0.644	644.5	incongruent	Block3	incongruent/STIM_004.jpg	99
2419.34	0.695	695.4	incongruent	Block3	incongruent/STIM_004.jpg	99
2422.707	0.921	920.7	incongruent	Block3	incongruent/STIM_005.jpg	100
2425.992	0.611	611.1	incongruent	Block3	incongruent/STIM_005.jpg	100
2430.113	1.01	1009.8	incongruent	Block3	incongruent/STIM_005.jpg	100
2433.055	1.038	1037.7	incongruent	Block3	incongruent/STIM_005.jpg	100
2436.575	0.751	751.2	incongruent	Block3	incongruent/STIM_005.jpg	100
2440.343	0.869	869.1	incongruent	Block3	incongruent/STIM_006.jpg	99
2443.277	0.726	726.1	incongruent	Block3	incongruent/STIM_006.jpg	100
2446.295	0.695	695.3	incongruent	Block3	incongruent/STIM_006.jpg	99
2449.817	0.946	946.0	incongruent	Block3	incongruent/STIM_006.jpg	99
2454.414	0.91	910.5	incongruent	Block3	incongruent/STIM_006.jpg	100
2457.282	0.625	625.4	incongruent	Block3	incongruent/STIM_007.jpg	100
2460.522	0.902	902.5	incongruent	Block3	incongruent/STIM_007.jpg	99
2465.36	0.656	656.4	incongruent	Block3	incongruent/STIM_007.jpg	99
2469.124	0.548	547.6	incongruent	Block3	incongruent/STIM_007.jpg	99
2472.509	0.993	992.8	incongruent	Block3	incongruent/STIM_007.jpg	99
2475.549	0.8	800.5	incongruent	Block3	incongruent/STIM_008.jpg	100
2480.276	0.59	590.4	incongruent	Block3	incongruent/STIM_008.jpg	99
2483.514	0.969	968.9	incongruent	Block3	incongruent/STIM_008.jpg	100
2487.423	1.005	1005.0	incongruent	Block3	incongruent/STIM_008.jpg	99
2490.369	0.882	881.9	incongruent	Block3	incongruent/STIM_008.jpg	100
2494.253	0.768	768.1	incongruent	Block3	incongruent/STIM_009.jpg	99
2498.532	0.998	997.9	incongruent	Block3	incongruent/STIM_009.jpg	100
2501.487	0.713	713.3	incongruent	Block3	incongruent/STIM_009.jpg	99
2505.011	0.947	947.1	incongruent	Block3	incongruent/STIM_009.jpg	100
2508.386	0.97	969.6	incongruent	Block3	incongruent/STIM_009.jpg	99
2512.486	1.015	1014.7	incongruent	Block3	incongruent/STIM_010.jpg	100
2515.872	0.776	775.7	incongruent	Block3	incongruent/STIM_010.jpg	100
2520.063	0.738	738.3	incongruent	Block3	incongruent/STIM_010.jpg	100
2523.99	0.882	882.0	incongruent	Block3	incongruent/STIM_010.jpg	100
2527.439	1.007	1007.1	incongruent	Block3	incongruent/STIM_010.jpg	99
2532.126	1.09	1089.8	incongruent	Block3	incongruent/STIM_011.jpg	100
2536.901	1.066	1066.5	incongruent	Block3	incongruent/STIM_011.jpg	99
2541.67	1.068	1067.7	incongruent	Block3	incongruent/STIM_011.jpg	100
2546.222	0.931	930.9	incongruent	Block3	incongruent/STIM_011.jpg	99
2549.465	1.124	1124.5	incongruent	Block3	incongruent/STIM_011.jpg	99
2553.127	0.862	861.9	incongruent	Block3	incongruent/STIM_012.jpg	100
2557.871	0.557	557.2	incongruent	Block3	incongruent/STIM_012.jpg	100
2562.204	0.65	650.2	incongruent	Block3	incongruent/STIM_012.jpg	100
2564.94	1.039	1039.1	incongruent	Block3	incongruent/STIM_012.jpg	100
2569.094	0.618	618.0	incongruent	Block3	incongruent/STIM_012.jpg	100
2572.06	0.936	936.3	incongruent	Block3	incongruent/STIM_013.jpg	99
2575.214	0.604	604.5	incongruent	Block3	incongruent/STIM_013.jpg	100
2578.928	0.811	811.0	incongruent	Block3	incongruent/STIM_013.jpg	99
2582.107	0.965	965.3	incongruent	Block3	incongruent/STIM_013.jpg	100
2585.644	0.993	993.3	incongruent	Block3	incongruent/STIM_013.jpg	100
2589.579	0.718	717.5	incongruent	Block3	incongruent/STIM_014.jpg	99
2593.929	1.049	1049.1	incongruent	Block3	incongruent/STIM_014.jpg	100
2598.096	0.892	891.8	incongruent	Block3	incongruent/STIM_014.jpg	99
2601.39	0.775	774.7	incongruent	Block3	incongruent/STIM_014.jpg	100
2605.533	0.665	664.8	incongruent	Block3	incongruent/STIM_014.jpg	99
2609.691	1.061	1061.3	incongruent	Block3	incongruent/STIM_015.jpg	100
2612.748	0.95	950.3	incongruent	Block3	incongruent/STIM_015.jpg	99
2616.312	0.676	675.9	incongruent	Block3	incongruent/STIM_015.jpg	99
2620.817	0.835	834.8	incongruent	Block3	incongruent/STIM_015.jpg	99
2623.702	0.937	937.4	incongruent	Block3	incongruent/STIM_015.jpg	99
2628.525	0.851	850.8	incongruent	Block3	incongruent/STIM_016.jpg	99
2631.388	0.806	806.2	incongruent	Block3	incongruent/STIM_016.jpg	99
2636.064	1.075	1075.0	incongruent	Block3	incongruent/STIM_016.jpg	99
2640.855	0.919	918.7	incongruent	Block3	incongruent/STIM_016.jpg	99
2644.336	0.964	964.1	incongruent	Block3	incongruent/STIM_016.jpg	99
2648.998	0.807	807.4	incongruent	Block3	incongruent/STIM_017.jpg	99
2652.284	1.01	1010.4	incongruent	Block3	incongruent/STIM_017.jpg	99
2656.016	0.649	649.0	incongruent	Block3	incongruent/STIM_017.jpg	100
2660.081	0.538	537.7	incongruent	Block3	incongruent/STIM_017.jpg	100
2663.07	0.713	712.8	incongruent	Block3	incongruent/STIM_017.jpg	99
2666.242	0.977	976.9	incongruent	Block3	incongruent/STIM_018.jpg	99
2669.791	1.025	1025.2	incongruent	Block3	incongruent/STIM_018.jpg	100
2673.399	0.925	925.4	incongruent	Block3	incongruent/STIM_018.jpg	99
2676.653	1.052	1051.8	incongruent	Block3	incongruent/STIM_018.jpg	100
2680.107	0.666	666.0	incongruent	Block3	incongruent/STIM_018.jpg	99
2682.918	0.968	967.5	incongruent	Block3	incongruent/STIM_019.jpg	100
2687.656	0.671	671.3	incongruent	Block3	incongruent/STIM_019.jpg	100
2690.417	0.742	741.8	incongruent	Block3	incongruent/STIM_019.jpg	99
2693.634	1.027	1026.8	incongruent	Block3	incongruent/STIM_019.jpg	100
2697.28	0.912	911.5	incongruent	Block3	incongruent/STIM_019.jpg	99
2701.183	0.527	527.2	incongruent	Block3	incongruent/STIM_020.jpg	100
2704.154	0.799	799.3	incongruent	Block3	incongruent/STIM_020.jpg	99
2708.155	0.62	620.3	incongruent	Block3	incongruent/STIM_020.jpg	99
2711.78	1.017	1016.6	incongruent	Block3	incongruent/STIM_020.jpg	100
2715.076	0.571	570.7	incongruent	Block3	incongruent/STIM_020.jpg	100
2717.796	1.105	1105.4	incongruent	Block3	incongruent/STIM_021.jpg	100
2720.871	1.104	1104.0	incongruent	Block3	incongruent/STIM_021.jpg	99
2724.279	1.014	1014.3	incongruent	Block3	incongruent/STIM_021.jpg	100
2728.191	1.023	1023.3	incongruent	Block3	incongruent/STIM_021.jpg	99
2732.447	0.538	538.2	incongruent	Block3	incongruent/STIM_021.jpg	99
2736.757	0.943	943.3	incongruent	Block3	incongruent/STIM_022.jpg	99
2741.277	0.682	682.1	incongruent	Block3	incongruent/STIM_022.jpg	99
2743.95	0.729	728.9	incongruent	Block3	incongruent/STIM_022.jpg	99
2747.881	0.772	771.5	incongruent	Block3	incongruent/STIM_022.jpg	100
2752.42	0.61	610.0	incongruent	Block3	incongruent/STIM_022.jpg	100
2755.797	0.973	972.7	incongruent	Block3	incongruent/STIM_023.jpg	100
2759.365	1.08	1079.8	incongruent	Block3	incongruent/STIM_023.jpg	100
2762.982	0.913	913.1	incongruent	Block3	incongruent/STIM_023.jpg	99
2766.971	1.022	1022.5	incongruent	Block3	incongruent/STIM_023.jpg	99
2771.794	0.654	654.5	incongruent	Block3	incongruent/STIM_023.jpg	99
2776.182	1.067	1066.9	incongruent	Block3	incongruent/STIM_024.jpg	99
2780.181	0.583	583.3	incongruent	Block3	incongruent/STIM_024.jpg	100
2783.186	0.872	871.8	incongruent	Block3	incongruent/STIM_024.jpg	100
2787.596	0.772	771.5	incongruent	Block3	incongruent/STIM_024.jpg	99
2790.552	0.843	842.9	incongruent	Block3	incongruent/STIM_024.jpg	100
2793.449	0.984	983.6	incongruent	Block3	incongruent/STIM_025.jpg	99
2797.216	0.818	818.5	incongruent	Block3	incongruent/STIM_025.jpg	100
2800.069	0.709	709.2	incongruent	Block3	incongruent/STIM_025.jpg	100
2802.917	1.078	1077.9	incongruent	Block3	incongruent/STIM_025.jpg	99
2806.605	0.958	957.5	incongruent	Block3	incongruent/STIM_025.jpg	100
2810.22	0.924	924.3	incongruent	Block3	incongruent/STIM_026.jpg	100
2813.096	1.025	1025.2	incongruent	Block3	incongruent/STIM_026.jpg	100
2817.936	0.988	988.4	incongruent	Block3	incongruent/STIM_026.jpg	100
2821.687	0.569	568.7	incongruent	Block3	incongruent/STIM_026.jpg	99
2826.009	0.775	775.0	incongruent	Block3	incongruent/STIM_026.jpg	100
2830.107	0.622	622.4	incongruent	Block3	incongruent/STIM_027.jpg	99
2834.594	0.754	754.5	incongruent	Block3	incongruent/STIM_027.jpg	100
2837.33	0.611	611.1	incongruent	Block3	incongruent/STIM_027.jpg	100
2841.807	1.042	1042.2	incongruent	Block3	incongruent/STIM_027.jpg	99
2844.865	0.983	982.7	incongruent	Block3	incongruent/STIM_027.jpg	99
2849.65	1.024	1024.5	incongruent	Block3	incongruent/STIM_028.jpg	100
2853.626	0.592	592.1	incongruent	Block3	incongruent/STIM_028.jpg	99
2856.539	0.747	747.0	incongruent	Block3	incongruent/STIM_028.jpg	99
2861.047	1.046	1046.4	incongruent	Block3	incongruent/STIM_028.jpg	100
2864.268	1.014	1014.1	incongruent	Block3	incongruent/STIM_028.jpg	99
2868.224	0.634	634.0	incongruent	Block3	incongruent/STIM_029.jpg	100
2871.416	1.032	1031.6	incongruent	Block3	incongruent/STIM_029.jpg	99
2875.822	0.886	885.9	incongruent	Block3	incongruent/STIM_029.jpg	99
2879.786	0.721	721.1	incongruent	Block3	incongruent/STIM_029.jpg	100
2882.53	0.693	692.6	incongruent	Block3	incongruent/STIM_029.jpg	99
2886.199	0.938	938.0	congruent	Block3	congruent/STIM_000.jpg	100
2890.61	0.558	557.5	congruent	Block3	congruent/STIM_000.jpg	100
2895.095	0.946	946.1	congruent	Block3	congruent/STIM_000.jpg	99
2899.1	0.952	952.1	congruent	Block3	congruent/STIM_000.jpg	100
2902.91	0.898	897.7	congruent	Block3	congruent/STIM_000.jpg	99
2907.095	0.68	679.6	congruent	Block3	congruent/STIM_001.jpg	99
2911.042	0.643	643.2	congruent	Block3	congruent/STIM_001.jpg	99
2914.258	0.72	719.7	congruent	Block3	congruent/STIM_001.jpg	99
2917.799	0.693	692.9	congruent	Block3	congruent/STIM_001.jpg	99
2921.472	0.909	909.2	congruent	Block3	congruent/STIM_001.jpg	100
2925.225	0.67	670.3	congruent	Block3	congruent/STIM_002.jpg	100
2929.569	0.595	595.1	congruent	Block3	congruent/STIM_002.jpg	99
2932.864	0.868	868.0	congruent	Block3	congruent/STIM_002.jpg	99
2935.956	0.931	930.9	congruent	Block3	congruent/STIM_002.jpg	99
2940.493	0.855	854.9	congruent	Block3	congruent/STIM_002.jpg	100
2944.538	0.942	941.5	congruent	Block3	congruent/STIM_003.jpg	99
2948.108	0.639	638.6	congruent	Block3	congruent/STIM_003.jpg	100
2952.619	0.717	716.7	congruent	Block3	congruent/STIM_003.jpg	100
2956.85	0.835	834.7	congruent	Block3	congruent/STIM_003.jpg	100
2960.125	0.952	951.8	congruent	Block3	congruent/STIM_003.jpg	100
2964.898	0.932	932.1	congruent	Block3	congruent/STIM_004.jpg	99
2968.793	0.962	962.5	congruent	Block3	congruent/STIM_004.jpg	99
2973.517	0.832	831.7	congruent	Block3	congruent/STIM_004.jpg	100
2976.881	0.596	596.5	congruent	Block3	congruent/STIM_004.jpg	99
2980.437	0.642	641.8	congruent	Block3	congruent/STIM_004.jpg	100
2984.805	0.855	855.4	congruent	Block3	congruent/STIM_005.jpg	100
2989.39	0.71	710.5	congruent	Block3	congruent/STIM_005.jpg	100
2993.76	0.64	640.4	congruent	Block3	congruent/STIM_005.jpg	99
2998.094	0.78	780.0	congruent	Block3	congruent/STIM_005.jpg	100
3002.29	0.865	865.3	congruent	Block3	congruent/STIM_005.jpg	99
3005.129	0.602	601.7	congruent	Block3	congruent/STIM_006.jpg	100
3008.424	0.661	660.6	congruent	Block3	congruent/STIM_006.jpg	99
3012.332	0.803	803.2	congruent	Block3	congruent/STIM_006.jpg	100
3016.049	0.704	703.9	congruent	Block3	congruent/STIM_006.jpg	99
3020.586	0.881	881.1	congruent	Block3	congruent/STIM_006.jpg	99
3024.949	0.91	910.1	congruent	Block3	congruent/STIM_007.jpg	99
3028.985	0.587	586.6	congruent	Block3	congruent/STIM_007.jpg	99
3031.609	0.583	582.9	congruent	Block3	congruent/STIM_007.jpg	100
3034.576	0.929	929.0	congruent	Block3	congruent/STIM_007.jpg	100
3039.24	0.639	638.6	congruent	Block3	congruent/STIM_007.jpg	100
3042.376	0.871	870.9	congruent	Block3	congruent/STIM_008.jpg	99
3046.527	0.796	796.2	congruent	Block3	congruent/STIM_008.jpg	100
3050.574	0.654	653.5	congruent	Block3	congruent/STIM_008.jpg	99
3053.945	0.9	899.6	congruent	Block3	congruent/STIM_008.jpg	100
3058.697	0.787	787.1	congruent	Block3	congruent/STIM_008.jpg	99
3063.324	0.806	806.4	congruent	Block3	congruent/STIM_009.jpg	100
3066.178	0.573	573.3	congruent	Block3	congruent/STIM_009.jpg	100
3070.599	0.794	794.3	congruent	Block3	congruent/STIM_009.jpg	100
3075.009	0.758	758.0	congruent	Block3	congruent/STIM_009.jpg	99
3079.076	0.66	660.1	congruent	Block3	congruent/STIM_009.jpg	100
3083.639	0.677	677.2	congruent	Block3	congruent/STIM_010.jpg	99
3087.176	0.671	671.0	congruent	Block3	congruent/STIM_010.jpg	100
3090.313	0.914	914.2	congruent	Block3	congruent/STIM_010.jpg	99
3093.167	0.9	900.2	congruent	Block3	congruent/STIM_010.jpg	99
3096.215	0.678	678.3	congruent	Block3	congruent/STIM_010.jpg	99
3100.518	0.579	578.7	congruent	Block3	congruent/STIM_011.jpg	100
3104.532	0.838	837.8	congruent	Block3	congruent/STIM_011.jpg	99
3107.48	0.742	741.5	congruent	Block3	congruent/STIM_011.jpg	100
3111.63	0.964	963.9	congruent	Block3	congruent/STIM_011.jpg	99
3114.555	0.628	628.5	congruent	Block3	congruent/STIM_011.jpg	99
3118.804	0.6	599.7	congruent	Block3	congruent/STIM_012.jpg	100
3121.741	0.605	604.8	congruent	Block3	congruent/STIM_012.jpg	99
3125.65	0.964	964.0	congruent	Block3	congruent/STIM_012.jpg	100
3129.028	0.733	732.8	congruent	Block3	congruent/STIM_012.jpg	100
3131.978	0.874	874.4	congruent	Block3	congruent/STIM_012.jpg	100
3136.382	0.681	681.3	congruent	Block3	congruent/STIM_013.jpg	99
3139.23	0.571	570.8	congruent	Block3	congruent/STIM_013.jpg	99
3143.639	0.869	869.3	congruent	Block3	congruent/STIM_013.jpg	99
3147.625	0.935	935.2	congruent	Block3	congruent/STIM_013.jpg	100
3152.153	0.733	733.1	congruent	Block3	congruent/STIM_013.jpg	99
3156.79	0.569	569.0	congruent	Block3	congruent/STIM_014.jpg	99
3160.744	0.597	597.0	congruent	Block3	congruent/STIM_014.jpg	99
3164.839	0.872	871.5	congruent	Block3	congruent/STIM_014.jpg	100
3168.217	0.71	709.8	congruent	Block3	congruent/STIM_014.jpg	99
3171.212	0.628	628.1	congruent	Block3	congruent/STIM_014.jpg	100
3175.647	0.603	603.4	congruent	Block3	congruent/STIM_015.jpg	100
3179.792	0.961	960.8	congruent	Block3	congruent/STIM_015.jpg	99
3183.964	0.799	798.8	congruent	Block3	congruent/STIM_015.jpg	100
3187.673	0.906	906.2	congruent	Block3	congruent/STIM_015.jpg	99
3191.06	0.657	657.1	congruent	Block3	congruent/STIM_015.jpg	99
3195.125	0.545	545.0	congruent	Block3	congruent/STIM_016.jpg	100
3199.616	0.565	565.2	congruent	Block3	congruent/STIM_016.jpg	100
3202.878	0.697	696.8	congruent	Block3	congruent/STIM_016.jpg	99
3206.436	0.552	551.9	congruent	Block3	congruent/STIM_016.jpg	99
3209.244	0.938	938.0	congruent	Block3	congruent/STIM_016.jpg	100
3213.338	0.573	573.3	congruent	Block3	congruent/STIM_017.jpg	100
3216.046	0.615	614.8	congruent	Block3	congruent/STIM_017.jpg	100
3219.609	0.575	574.9	congruent	Block3	congruent/STIM_017.jpg	99
3224.046	0.67	669.9	congruent	Block3	congruent/STIM_017.jpg	99
3227.339	0.721	720.7	congruent	Block3	congruent/STIM_017.jpg	100
3231.118	0.859	859.1	congruent	Block3	congruent/STIM_018.jpg	99
3234.881	0.624	624.0	congruent	Block3	congruent/STIM_018.jpg	100
3239.368	0.683	683.1	congruent	Block3	congruent/STIM_018.jpg	100
3243.06	0.684	683.6	congruent	Block3	congruent/STIM_018.jpg	100
3247.552	0.791	790.7	congruent	Block3	congruent/STIM_018.jpg	100
3251.029	0.678	678.4	congruent	Block3	congruent/STIM_019.jpg	100
3253.802	0.74	740.3	congruent	Block3	congruent/STIM_019.jpg	99
3257.881	0.568	568.0	congruent	Block3	congruent/STIM_019.jpg	99
3261.66	0.679	678.7	congruent	Block3	congruent/STIM_019.jpg	100
3265.6	0.81	810.1	congruent	Block3	congruent/STIM_019.jpg	100
3268.643	0.567	566.7	congruent	Block3	congruent/STIM_020.jpg	100
3272.614	0.573	572.8	congruent	Block3	congruent/STIM_020.jpg	99
3276.623	0.63	629.8	congruent	Block3	congruent/STIM_020.jpg	99
3279.873	0.63	629.9	congruent	Block3	congruent/STIM_020.jpg	100
3283.818	0.549	549.0	congruent	Block3	congruent/STIM_020.jpg	100
3287.325	0.585	585.4	congruent	Block3	congruent/STIM_021.jpg	100
3291.126	0.862	861.9	congruent	Block3	congruent/STIM_021.jpg	100
3294.634	0.963	963.3	congruent	Block3	congruent/STIM_021.jpg	99
3298.372	0.787	787.1	congruent	Block3	congruent/STIM_021.jpg	99
3302.144	0.645	645.3	congruent	Block3	congruent/STIM_021.jpg	99
3305.492	0.805	805.2	congruent	Block3	congruent/STIM_022.jpg	99
3308.409	0.748	747.9	congruent	Block3	congruent/STIM_022.jpg	100
3311.786	0.962	962.5	congruent	Block3	congruent/STIM_022.jpg	100
3316.495	0.713	712.8	congruent	Block3	congruent/STIM_022.jpg	99
3320.441	0.642	642.2	congruent	Block3	congruent/STIM_022.jpg	99
3323.281	0.654	654.3	congruent	Block3	congruent/STIM_023.jpg	100
3327.626	0.962	961.8	congruent	Block3	congruent/STIM_023.jpg	100
3331.977	0.806	805.9	congruent	Block3	congruent/STIM_023.jpg	99
3334.799	0.594	593.6	congruent	Block3	congruent/STIM_023.jpg	100
3337.522	0.871	871.1	congruent	Block3	congruent/STIM_023.jpg	100
3340.886	0.656	656.4	congruent	Block3	congruent/STIM_024.jpg	99
3344.362	0.798	797.9	congruent	Block3	congruent/STIM_024.jpg	100
3349.027	0.573	573.4	congruent	Block3	congruent/STIM_024.jpg	100
3352.249	0.742	742.5	congruent	Block3	congruent/STIM_024.jpg	100
3356.368	0.767	767.3	congruent	Block3	congruent/STIM_024.jpg	100
3360.726	0.789	788.9	congruent	Block3	congruent/STIM_025.jpg	99
3364.671	0.751	750.8	congruent	Block3	congruent/STIM_025.jpg	99
3368.756	0.89	890.1	congruent	Block3	congruent/STIM_025.jpg	100
3372.419	0.893	892.9	congruent	Block3	congruent/STIM_025.jpg	100
3375.759	0.671	671.4	congruent	Block3	congruent/STIM_025.jpg	99
3379.137	0.597	597.3	congruent	Block3	congruent/STIM_026.jpg	100
3383.649	0.736	736.2	congruent	Block3	congruent/STIM_026.jpg	99
3387.226	0.564	563.9	congruent	Block3	congruent/STIM_026.jpg	100
3391.366	0.926	925.7	congruent	Block3	congruent/STIM_026.jpg	99
3395.985	0.868	867.9	congruent	Block3	congruent/STIM_026.jpg	100
3399.569	0.648	647.7	congruent	Block3	congruent/STIM_027.jpg	99
3402.358	0.96	959.9	congruent	Block3	congruent/STIM_027.jpg	99
3406.716	0.561	560.6	congruent	Block3	congruent/STIM_027.jpg	100
3409.934	0.617	617.2	congruent	Block3	congruent/STIM_027.jpg	99
3413.241	0.965	964.9	congruent	Block3	congruent/STIM_027.jpg	99
3416.951	0.747	746.7	congruent	Block3	congruent/STIM_028.jpg	100
3420.381	0.861	861.4	congruent	Block3	congruent/STIM_028.jpg	99
3424.871	0.76	759.6	congruent	Block3	congruent/STIM_028.jpg	100
3428.652	0.551	550.6	congruent	Block3	congruent/STIM_028.jpg	99
3432.483	0.838	837.8	congruent	Block3	congruent/STIM_028.jpg	99
3435.417	0.74	739.5	congruent	Block3	congruent/STIM_029.jpg	100
3439.215	0.698	698.5	congruent	Block3	congruent/STIM_029.jpg	100
3443.102	0.571	571.1	congruent	Block3	congruent/STIM_029.jpg	99
3445.666	0.916	915.6	congruent	Block3	congruent/STIM_029.jpg	99
3448.579	0.822	821.5	congruent	Block3	congruent/STIM_029.jpg	99
