onset	duration	accuracy_binary	trial_type	learning_stage	stimulus
0.0	1.682	1	generate	Run1	generate/STIM_000.jpg
4.432	1.96	1	generate	Run1	generate/STIM_000.jpg
10.117	1.988	1	generate	Run1	generate/STIM_000.jpg
15.467	1.873	1	generate	Run1	generate/STIM_000.jpg
19.843	1.625	1	generate	Run1	generate/STIM_000.jpg
25.159	1.485	1	generate	Run1	generate/STIM_001.jpg
29.547	1.791	1	generate	Run1	generate/STIM_001.jpg
34.535	1.395	1	generate	Run1	generate/STIM_001.jpg
39.228	1.462	1	generate	Run1	generate/STIM_001.jpg
44.585	1.31	1	generate	Run1	generate/STIM_001.jpg
49.214	2.149	1	generate	Run1	generate/STIM_002.jpg
54.877	1.885	1	generate	Run1	generate/STIM_002.jpg
59.335	1.563	1	generate	Run1	generate/STIM_002.jpg
63.798	2.219	1	generate	Run1	generate/STIM_002.jpg
68.768	1.804	1	generate	Run1	generate/STIM_002.jpg
72.903	1.877	1	generate	Run1	generate/STIM_003.jpg
77.729	1.192	1	generate	Run1	generate/STIM_003.jpg
82.793	1.435	1	generate	Run1	generate/STIM_003.jpg
87.879	1.55	1	generate	Run1	generate/STIM_003.jpg
93.329	1.135	1	generate	Run1	generate/STIM_003.jpg
97.771	2.14	1	generate	Run1	generate/STIM_004.jpg
102.33	1.59	0	generate	Run1	generate/STIM_004.jpg
106.863	1.774	0	generate	Run1	generate/STIM_004.jpg
111.287	0.998	1	generate	Run1	generate/STIM_004.jpg
115.808	2.022	1	generate	Run1	generate/STIM_004.jpg
119.973	1.914	1	generate	Run1	generate/STIM_005.jpg
125.638	1.187	1	generate	Run1	generate/STIM_005.jpg
129.104	2.224	1	generate	Run1	generate/STIM_005.jpg
134.305	2.375	1	generate	Run1	generate/STIM_005.jpg
139.021	1.301	1	generate	Run1	generate/STIM_005.jpg
142.933	2.026	1	generate	Run1	generate/STIM_006.jpg
148.708	2.439	1	generate	Run1	generate/STIM_006.jpg
154.59	1.032	1	generate	Run1	generate/STIM_006.jpg
158.68	1.407	1	generate	Run1	generate/STIM_006.jpg
162.153	0.931	1	generate	Run1	generate/STIM_006.jpg
165.524	2.567	1	generate	Run1	generate/STIM_007.jpg
170.142	2.111	1	generate	Run1	generate/STIM_007.jpg
174.281	1.836	1	generate	Run1	generate/STIM_007.jpg
178.778	1.818	1	generate	Run1	generate/STIM_007.jpg
184.039	0.948	1	generate	Run1	generate/STIM_007.jpg
187.23	2.444	0	generate	Run1	generate/STIM_008.jpg
192.666	1.458	1	generate	Run1	generate/STIM_008.jpg
197.445	2.51	1	generate	Run1	generate/STIM_008.jpg
202.716	1.477	1	generate	Run1	generate/STIM_008.jpg
207.498	1.182	1	generate	Run1	generate/STIM_008.jpg
210.71	1.822	1	generate	Run1	generate/STIM_009.jpg
216.408	1.642	1	generate	Run1	generate/STIM_009.jpg
220.508	1.905	1	generate	Run1	generate/STIM_009.jpg
224.612	2.028	1	generate	Run1	generate/STIM_009.jpg
230.262	1.804	1	generate	Run1	generate/STIM_009.jpg
234.598	2.208	1	generate	Run1	generate/STIM_010.jpg
239.283	2.14	1	generate	Run1	generate/STIM_010.jpg
243.782	1.171	1	generate	Run1	generate/STIM_010.jpg
247.653	2.189	1	generate	Run1	generate/STIM_010.jpg
251.895	2.025	1	generate	Run1	generate/STIM_010.jpg
256.972	1.234	1	generate	Run1	generate/STIM_011.jpg
261.436	2.566	1	generate	Run1	generate/STIM_011.jpg
267.571	1.592	0	generate	Run1	generate/STIM_011.jpg
272.117	1.21	1	generate	Run1	generate/STIM_011.jpg
275.835	0.992	1	generate	Run1	generate/STIM_011.jpg
279.919	2.719	1	generate	Run1	generate/STIM_012.jpg
285.78	2.684	1	generate	Run1	generate/STIM_012.jpg
291.208	1.415	1	generate	Run1	generate/STIM_012.jpg
295.022	2.345	1	generate	Run1	generate/STIM_012.jpg
299.885	1.569	1	generate	Run1	generate/STIM_012.jpg
304.48	2.744	1	generate	Run1	generate/STIM_013.jpg
310.689	2.24	1	generate	Run1	generate/STIM_013.jpg
316.011	1.109	1	generate	Run1	generate/STIM_013.jpg
321.108	2.285	1	generate	Run1	generate/STIM_013.jpg
327.35	1.298	0	generate	Run1	generate/STIM_013.jpg
331.164	2.585	1	generate	Run1	generate/STIM_014.jpg
336.025	1.55	1	generate	Run1	generate/STIM_014.jpg
339.762	2.293	1	generate	Run1	generate/STIM_014.jpg
346.048	1.303	1	generate	Run1	generate/STIM_014.jpg
350.889	1.326	1	generate	Run1	generate/STIM_014.jpg
354.837	2.518	1	generate	Run1	generate/STIM_015.jpg
359.654	1.648	1	generate	Run1	generate/STIM_015.jpg
364.578	1.796	1	generate	Run1	generate/STIM_015.jpg
369.495	1.521	1	generate	Run1	generate/STIM_015.jpg
373.044	1.202	1	generate	Run1	generate/STIM_015.jpg
377.594	2.105	0	generate	Run1	generate/STIM_016.jpg
382.277	2.328	1	generate	Run1	generate/STIM_016.jpg
387.13	2.241	1	generate	Run1	generate/STIM_016.jpg
391.754	1.778	1	generate	Run1	generate/STIM_016.jpg
396.384	2.0	1	generate	Run1	generate/STIM_016.jpg
401.516	2.632	1	generate	Run1	generate/STIM_017.jpg
407.111	2.119	0	generate	Run1	generate/STIM_017.jpg
412.41	1.105	1	generate	Run1	generate/STIM_017.jpg
417.456	1.009	1	generate	Run1	generate/STIM_017.jpg
422.273	1.333	1	generate	Run1	generate/STIM_017.jpg
425.768	1.699	1	generate	Run1	generate/STIM_018.jpg
431.035	2.406	1	generate	Run1	generate/STIM_018.jpg
437.361	1.328	1	generate	Run1	generate/STIM_018.jpg
441.598	1.86	1	generate	Run1	generate/STIM_018.jpg
446.935	1.646	1	generate	Run1	generate/STIM_018.jpg
450.62	1.459	1	generate	Run1	generate/STIM_019.jpg
454.897	2.544	1	generate	Run1	generate/STIM_019.jpg
459.679	2.121	1	generate	Run1	generate/STIM_019.jpg
465.449	1.998	1	generate	Run1	generate/STIM_019.jpg
471.39	1.731	1	generate	Run1	generate/STIM_019.jpg
476.376	1.535	1	generate	Run1	generate/STIM_020.jpg
480.001	1.722	1	generate	Run1	generate/STIM_020.jpg
485.503	2.078	1	generate	Run1	generate/STIM_020.jpg
491.323	2.037	1	generate	Run1	generate/STIM_020.jpg
496.69	1.243	1	generate	Run1	generate/STIM_020.jpg
501.33	2.701	1	generate	Run1	generate/STIM_021.jpg
507.184	2.613	1	generate	Run1	generate/STIM_021.jpg
513.563	1.836	1	generate	Run1	generate/STIM_021.jpg
519.348	1.313	1	generate	Run1	generate/STIM_021.jpg
523.09	1.202	1	generate	Run1	generate/STIM_021.jpg
527.484	2.324	1	generate	Run1	generate/STIM_022.jpg
531.882	2.413	1	generate	Run1	generate/STIM_022.jpg
538.288	1.938	1	generate	Run1	generate/STIM_022.jpg
543.831	1.323	1	generate	Run1	generate/STIM_022.jpg
548.818	2.07	1	generate	Run1	generate/STIM_022.jpg
553.456	1.49	1	generate	Run1	generate/STIM_023.jpg
558.496	1.556	1	generate	Run1	generate/STIM_023.jpg
562.187	1.663	1	generate	Run1	generate/STIM_023.jpg
567.449	1.329	1	generate	Run1	generate/STIM_023.jpg
572.425	2.115	1	generate	Run1	generate/STIM_023.jpg
576.999	2.807	1	generate	Run1	generate/STIM_024.jpg
583.517	1.925	0	generate	Run1	generate/STIM_024.jpg
589.021	2.225	1	generate	Run1	generate/STIM_024.jpg
595.152	1.344	1	generate	Run1	generate/STIM_024.jpg
600.433	1.182	1	generate	Run1	generate/STIM_024.jpg
603.752	0.884	1	repeat	Run1	repeat/STIM_000.jpg
607.539	0.858	1	repeat	Run1	repeat/STIM_000.jpg
612.253	0.735	1	repeat	Run1	repeat/STIM_000.jpg
616.064	0.722	1	repeat	Run1	repeat/STIM_000.jpg
620.205	0.51	1	repeat	Run1	repeat/STIM_000.jpg
623.446	0.54	1	repeat	Run1	repeat/STIM_001.jpg
626.101	0.736	1	repeat	Run1	repeat/STIM_001.jpg
630.627	0.73	1	repeat	Run1	repeat/STIM_001.jpg
634.141	0.694	1	repeat	Run1	repeat/STIM_001.jpg
637.468	0.642	1	repeat	Run1	repeat/STIM_001.jpg
641.263	0.609	1	repeat	Run1	repeat/STIM_002.jpg
644.798	0.522	1	repeat	Run1	repeat/STIM_002.jpg
649.152	0.696	1	repeat	Run1	repeat/STIM_002.jpg
652.921	0.497	1	repeat	Run1	repeat/STIM_002.jpg
656.444	0.519	1	repeat	Run1	repeat/STIM_002.jpg
659.234	0.82	1	repeat	Run1	repeat/STIM_003.jpg
662.583	0.79	1	repeat	Run1	repeat/STIM_003.jpg
665.431	0.65	1	repeat	Run1	repeat/STIM_003.jpg
669.041	0.808	1	repeat	Run1	repeat/STIM_003.jpg
671.926	0.825	1	repeat	Run1	repeat/STIM_003.jpg
675.382	0.773	1	repeat	Run1	repeat/STIM_004.jpg
678.97	0.824	1	repeat	Run1	repeat/STIM_004.jpg
683.224	0.919	1	repeat	Run1	repeat/STIM_004.jpg
686.802	0.894	1	repeat	Run1	repeat/STIM_004.jpg
691.662	0.681	1	repeat	Run1	repeat/STIM_004.jpg
695.541	0.896	1	repeat	Run1	repeat/STIM_005.jpg
698.502	0.717	1	repeat	Run1	repeat/STIM_005.jpg
702.535	0.648	1	repeat	Run1	repeat/STIM_005.jpg
705.232	0.678	1	repeat	Run1	repeat/STIM_005.jpg
709.03	0.842	1	repeat	Run1	repeat/STIM_005.jpg
713.416	0.604	1	repeat	Run1	repeat/STIM_006.jpg
716.165	0.556	1	repeat	Run1	repeat/STIM_006.jpg
720.606	0.908	1	repeat	Run1	repeat/STIM_006.jpg
724.704	0.747	1	repeat	Run1	repeat/STIM_006.jpg
728.839	0.72	1	repeat	Run1	repeat/STIM_006.jpg
733.083	0.605	1	repeat	Run1	repeat/STIM_007.jpg
736.902	0.627	1	repeat	Run1	repeat/STIM_007.jpg
740.019	0.604	1	repeat	Run1	repeat/STIM_007.jpg
743.979	0.516	1	repeat	Run1	repeat/STIM_007.jpg
747.007	0.541	1	repeat	Run1	repeat/STIM_007.jpg
751.223	0.619	1	repeat	Run1	repeat/STIM_008.jpg
755.172	0.87	1	repeat	Run1	repeat/STIM_008.jpg
759.407	0.802	1	repeat	Run1	repeat/STIM_008.jpg
762.616	0.846	1	repeat	Run1	repeat/STIM_008.jpg
767.324	0.831	1	repeat	Run1	repeat/STIM_008.jpg
770.96	0.864	1	repeat	Run1	repeat/STIM_009.jpg
775.718	0.567	1	repeat	Run1	repeat/STIM_009.jpg
778.855	0.704	1	repeat	Run1	repeat/STIM_009.jpg
782.373	0.571	1	repeat	Run1	repeat/STIM_009.jpg
785.92	0.663	1	repeat	Run1	repeat/STIM_009.jpg
789.516	0.588	1	repeat	Run1	repeat/STIM_010.jpg
792.818	0.913	1	repeat	Run1	repeat/STIM_010.jpg
795.765	0.682	1	repeat	Run1	repeat/STIM_010.jpg
798.705	0.868	1	repeat	Run1	repeat/STIM_010.jpg
801.614	0.919	1	repeat	Run1	repeat/STIM_010.jpg
805.914	0.765	1	repeat	Run1	repeat/STIM_011.jpg
810.418	0.571	1	repeat	Run1	repeat/STIM_011.jpg
814.907	0.89	1	repeat	Run1	repeat/STIM_011.jpg
818.02	0.903	1	repeat	Run1	repeat/STIM_011.jpg
821.526	0.715	1	repeat	Run1	repeat/STIM_011.jpg
824.426	0.778	1	repeat	Run1	repeat/STIM_012.jpg
828.979	0.911	1	repeat	Run1	repeat/STIM_012.jpg
832.562	0.661	1	repeat	Run1	repeat/STIM_012.jpg
835.325	0.546	1	repeat	Run1	repeat/STIM_012.jpg
839.24	0.622	1	repeat	Run1	repeat/STIM_012.jpg
842.352	0.79	1	repeat	Run1	repeat/STIM_013.jpg
845.359	0.558	1	repeat	Run1	repeat/STIM_013.jpg
848.372	0.68	1	repeat	Run1	repeat/STIM_013.jpg
852.643	0.54	0	repeat	Run1	repeat/STIM_013.jpg
857.071	0.87	1	repeat	Run1	repeat/STIM_013.jpg
860.183	0.477	1	repeat	Run1	repeat/STIM_014.jpg
864.639	0.874	1	repeat	Run1	repeat/STIM_014.jpg
867.669	0.808	1	repeat	Run1	repeat/STIM_014.jpg
872.31	0.809	1	repeat	Run1	repeat/STIM_014.jpg
877.089	0.52	1	repeat	Run1	repeat/STIM_014.jpg
879.995	1.806	0	generate	Run2	generate/STIM_000.jpg
884.725	1.754	1	generate	Run2	generate/STIM_000.jpg
889.963	1.86	1	generate	Run2	generate/STIM_000.jpg
895.499	1.895	1	generate	Run2	generate/STIM_000.jpg
900.041	0.841	1	generate	Run2	generate/STIM_000.jpg
903.73	1.382	1	generate	Run2	generate/STIM_001.jpg
909.026	1.828	1	generate	Run2	generate/STIM_001.jpg
913.977	1.616	1	generate	Run2	generate/STIM_001.jpg
918.329	1.257	1	generate	Run2	generate/STIM_001.jpg
922.303	1.584	1	generate	Run2	generate/STIM_001.jpg
926.988	1.054	1	generate	Run2	generate/STIM_002.jpg
930.64	1.326	1	generate	Run2	generate/STIM_002.jpg
934.4	1.61	1	generate	Run2	generate/STIM_002.jpg
938.143	1.512	1	generate	Run2	generate/STIM_002.jpg
943.303	1.019	1	generate	Run2	generate/STIM_002.jpg
947.926	2.078	1	generate	Run2	generate/STIM_003.jpg
952.216	1.256	1	generate	Run2	generate/STIM_003.jpg
956.915	1.886	1	generate	Run2	generate/STIM_003.jpg
961.973	1.321	1	generate	Run2	generate/STIM_003.jpg
965.664	1.282	1	generate	Run2	generate/STIM_003.jpg
969.239	2.358	1	generate	Run2	generate/STIM_004.jpg
974.727	1.284	1	generate	Run2	generate/STIM_004.jpg
979.099	0.879	1	generate	Run2	generate/STIM_004.jpg
983.543	0.813	1	generate	Run2	generate/STIM_004.jpg
988.198	1.359	1	generate	Run2	generate/STIM_004.jpg
991.788	1.833	1	generate	Run2	generate/STIM_005.jpg
996.952	2.179	1	generate	Run2	generate/STIM_005.jpg
1001.958	1.16	1	generate	Run2	generate/STIM_005.jpg
1007.08	1.696	1	generate	Run2	generate/STIM_005.jpg
1012.773	0.834	1	generate	Run2	generate/STIM_005.jpg
1017.445	2.075	1	generate	Run2	generate/STIM_006.jpg
1022.083	1.683	1	generate	Run2	generate/STIM_006.jpg
1026.784	1.424	1	generate	Run2	generate/STIM_006.jpg
1032.162	1.029	1	generate	Run2	generate/STIM_006.jpg
1036.385	1.337	1	generate	Run2	generate/STIM_006.jpg
1039.962	1.334	1	generate	Run2	generate/STIM_007.jpg
1044.372	1.859	1	generate	Run2	generate/STIM_007.jpg
1049.979	1.986	1	generate	Run2	generate/STIM_007.jpg
1055.405	0.937	0	generate	Run2	generate/STIM_007.jpg
1059.134	1.644	1	generate	Run2	generate/STIM_007.jpg
1064.142	1.978	1	generate	Run2	generate/STIM_008.jpg
1069.457	2.119	1	generate	Run2	generate/STIM_008.jpg
1073.913	1.838	1	generate	Run2	generate/STIM_008.jpg
1079.44	1.095	0	generate	Run2	generate/STIM_008.jpg
1083.753	1.128	1	generate	Run2	generate/STIM_008.jpg
1088.75	1.736	1	generate	Run2	generate/STIM_009.jpg
1093.815	1.522	1	generate	Run2	generate/STIM_009.jpg
1097.487	1.776	0	generate	Run2	generate/STIM_009.jpg
1103.16	1.973	1	generate	Run2	generate/STIM_009.jpg
1107.247	1.196	1	generate	Run2	generate/STIM_009.jpg
1110.531	1.477	1	generate	Run2	generate/STIM_010.jpg
1114.087	1.036	0	generate	Run2	generate/STIM_010.jpg
1118.045	1.599	1	generate	Run2	generate/STIM_010.jpg
1122.905	1.599	1	generate	Run2	generate/STIM_010.jpg
1127.282	1.79	1	generate	Run2	generate/STIM_010.jpg
1132.44	1.528	0	generate	Run2	generate/STIM_011.jpg
1136.297	1.103	1	generate	Run2	generate/STIM_011.jpg
1141.123	2.061	1	generate	Run2	generate/STIM_011.jpg
1146.774	1.234	1	generate	Run2	generate/STIM_011.jpg
1150.162	1.657	1	generate	Run2	generate/STIM_011.jpg
1154.815	1.076	1	generate	Run2	generate/STIM_012.jpg
1158.996	1.259	1	generate	Run2	generate/STIM_012.jpg
1163.063	1.266	1	generate	Run2	generate/STIM_012.jpg
1167.765	1.641	1	generate	Run2	generate/STIM_012.jpg
1171.937	0.916	1	generate	Run2	generate/STIM_012.jpg
1176.469	1.345	1	generate	Run2	generate/STIM_013.jpg
1180.773	1.157	1	generate	Run2	generate/STIM_013.jpg
1185.075	1.036	1	generate	Run2	generate/STIM_013.jpg
1189.256	1.496	0	generate	Run2	generate/STIM_013.jpg
1194.33	1.797	1	generate	Run2	generate/STIM_013.jpg
1200.013	1.914	1	generate	Run2	generate/STIM_014.jpg
1205.052	1.874	1	generate	Run2	generate/STIM_014.jpg
1209.97	1.268	1	generate	Run2	generate/STIM_014.jpg
1213.738	1.248	1	generate	Run2	generate/STIM_014.jpg
1218.664	1.837	1	generate	Run2	generate/STIM_014.jpg
1223.893	2.255	1	generate	Run2	generate/STIM_015.jpg
1229.265	1.989	1	generate	Run2	generate/STIM_015.jpg
1233.657	0.88	0	generate	Run2	generate/STIM_015.jpg
1236.754	1.388	1	generate	Run2	generate/STIM_015.jpg
1240.527	1.372	1	generate	Run2	generate/STIM_015.jpg
1244.151	2.121	1	generate	Run2	generate/STIM_016.jpg
1248.427	2.213	1	generate	Run2	generate/STIM_016.jpg
1252.985	0.969	1	generate	Run2	generate/STIM_016.jpg
1256.957	1.117	1	generate	Run2	generate/STIM_016.jpg
1260.437	1.005	1	generate	Run2	generate/STIM_016.jpg
1263.932	1.871	0	generate	Run2	generate/STIM_017.jpg
1268.079	1.541	1	generate	Run2	generate/STIM_017.jpg
1273.102	1.905	1	generate	Run2	generate/STIM_017.jpg
1277.355	1.35	1	generate	Run2	generate/STIM_017.jpg
1280.907	0.794	1	generate	Run2	generate/STIM_017.jpg
1284.373	1.111	1	generate	Run2	generate/STIM_018.jpg
1289.408	2.223	1	generate	Run2	generate/STIM_018.jpg
1294.953	0.88	1	generate	Run2	generate/STIM_018.jpg
1298.282	1.932	1	generate	Run2	generate/STIM_018.jpg
1302.351	1.272	1	generate	Run2	generate/STIM_018.jpg
1306.881	0.968	1	generate	Run2	generate/STIM_019.jpg
1310.751	1.944	1	generate	Run2	generate/STIM_019.jpg
1315.022	1.396	1	generate	Run2	generate/STIM_019.jpg
1319.883	1.784	1	generate	Run2	generate/STIM_019.jpg
1323.7	1.205	1	generate	Run2	generate/STIM_019.jpg
1327.557	2.225	1	generate	Run2	generate/STIM_020.jpg
1333.574	1.51	1	generate	Run2	generate/STIM_020.jpg
1337.319	1.492	1	generate	Run2	generate/STIM_020.jpg
1341.946	1.155	1	generate	Run2	generate/STIM_020.jpg
1346.849	1.793	1	generate	Run2	generate/STIM_020.jpg
1351.531	2.092	1	generate	Run2	generate/STIM_021.jpg
1357.493	1.464	1	generate	Run2	generate/STIM_021.jpg
1361.28	1.832	1	generate	Run2	generate/STIM_021.jpg
1366.572	0.846	1	generate	Run2	generate/STIM_021.jpg
1370.699	1.729	1	generate	Run2	generate/STIM_021.jpg
1375.838	2.219	1	generate	Run2	generate/STIM_022.jpg
1380.39	1.875	1	generate	Run2	generate/STIM_022.jpg
1384.464	1.606	1	generate	Run2	generate/STIM_022.jpg
1388.119	1.614	1	generate	Run2	generate/STIM_022.jpg
1392.496	1.646	1	generate	Run2	generate/STIM_022.jpg
1396.969	1.485	1	generate	Run2	generate/STIM_023.jpg
1402.308	1.937	1	generate	Run2	generate/STIM_023.jpg
1406.464	1.478	1	generate	Run2	generate/STIM_023.jpg
1410.54	1.933	1	generate	Run2	generate/STIM_023.jpg
1415.912	1.266	1	generate	Run2	generate/STIM_023.jpg
1419.906	1.682	1	generate	Run2	generate/STIM_024.jpg
1425.219	1.394	1	generate	Run2	generate/STIM_024.jpg
1429.658	2.103	1	generate	Run2	generate/STIM_024.jpg
1434.05	1.72	1	generate	Run2	generate/STIM_024.jpg
1438.093	0.854	1	generate	Run2	generate/STIM_024.jpg
1441.01	0.852	1	repeat	Run2	repeat/STIM_000.jpg
1444.077	0.475	1	repeat	Run2	repeat/STIM_000.jpg
1448.325	0.481	1	repeat	Run2	repeat/STIM_000.jpg
1452.235	0.608	1	repeat	Run2	repeat/STIM_000.jpg
1455.808	0.634	1	repeat	Run2	repeat/STIM_000.jpg
1458.683	0.609	1	repeat	Run2	repeat/STIM_001.jpg
1461.782	0.482	1	repeat	Run2	repeat/STIM_001.jpg
1465.725	0.805	1	repeat	Run2	repeat/STIM_001.jpg
1468.724	0.789	1	repeat	Run2	repeat/STIM_001.jpg
1473.353	0.844	1	repeat	Run2	repeat/STIM_001.jpg
1477.098	0.651	1	repeat	Run2	repeat/STIM_002.jpg
1481.322	0.895	1	repeat	Run2	repeat/STIM_002.jpg
1485.967	0.488	1	repeat	Run2	repeat/STIM_002.jpg
1489.859	0.69	1	repeat	Run2	repeat/STIM_002.jpg
1493.1	0.671	1	repeat	Run2	repeat/STIM_002.jpg
1496.226	0.477	1	repeat	Run2	repeat/STIM_003.jpg
1499.597	0.523	1	repeat	Run2	repeat/STIM_003.jpg
1503.091	0.85	1	repeat	Run2	repeat/STIM_003.jpg
1507.291	0.478	1	repeat	Run2	repeat/STIM_003.jpg
1510.758	0.842	1	repeat	Run2	repeat/STIM_003.jpg
1514.369	0.749	1	repeat	Run2	repeat/STIM_004.jpg
1517.844	0.667	1	repeat	Run2	repeat/STIM_004.jpg
1522.043	0.754	1	repeat	Run2	repeat/STIM_004.jpg
1525.722	0.683	1	repeat	Run2	repeat/STIM_004.jpg
1528.616	0.58	1	repeat	Run2	repeat/STIM_004.jpg
1531.939	0.668	1	repeat	Run2	repeat/STIM_005.jpg
1535.6	0.746	1	repeat	Run2	repeat/STIM_005.jpg
1539.249	0.869	1	repeat	Run2	repeat/STIM_005.jpg
1542.365	0.643	1	repeat	Run2	repeat/STIM_005.jpg
1546.445	0.586	1	repeat	Run2	repeat/STIM_005.jpg
1549.637	0.779	1	repeat	Run2	repeat/STIM_006.jpg
1554.106	0.491	1	repeat	Run2	repeat/STIM_006.jpg
1558.535	0.771	1	repeat	Run2	repeat/STIM_006.jpg
1563.276	0.833	1	repeat	Run2	repeat/STIM_006.jpg
1568.008	0.531	1	repeat	Run2	repeat/STIM_006.jpg
1571.497	0.616	1	repeat	Run2	repeat/STIM_007.jpg
1574.507	0.932	1	repeat	Run2	repeat/STIM_007.jpg
1578.441	0.749	1	repeat	Run2	repeat/STIM_007.jpg
1581.776	0.708	1	repeat	Run2	repeat/STIM_007.jpg
1585.051	0.688	0	repeat	Run2	repeat/STIM_007.jpg
1587.783	0.511	1	repeat	Run2	repeat/STIM_008.jpg
1590.456	0.864	1	repeat	Run2	repeat/STIM_008.jpg
1594.217	0.784	1	repeat	Run2	repeat/STIM_008.jpg
1598.334	0.893	1	repeat	Run2	repeat/STIM_008.jpg
1601.663	0.706	1	repeat	Run2	repeat/STIM_008.jpg
1605.557	0.492	1	repeat	Run2	repeat/STIM_009.jpg
1609.945	0.826	1	repeat	Run2	repeat/STIM_009.jpg
1613.727	0.894	1	repeat	Run2	repeat/STIM_009.jpg
1617.052	0.479	1	repeat	Run2	repeat/STIM_009.jpg
1620.237	0.693	1	repeat	Run2	repeat/STIM_009.jpg
1624.656	0.558	1	repeat	Run2	repeat/STIM_010.jpg
1627.623	0.528	1	repeat	Run2	repeat/STIM_010.jpg
1630.932	0.644	1	repeat	Run2	repeat/STIM_010.jpg
1634.432	0.514	1	repeat	Run2	repeat/STIM_010.jpg
1638.434	0.657	1	repeat	Run2	repeat/STIM_010.jpg
1641.498	0.861	1	repeat	Run2	repeat/STIM_011.jpg
1646.047	0.773	1	repeat	Run2	repeat/STIM_011.jpg
1649.139	0.743	1	repeat	Run2	repeat/STIM_011.jpg
1653.842	0.477	1	repeat	Run2	repeat/STIM_011.jpg
1658.081	0.902	1	repeat	Run2	repeat/STIM_011.jpg
1661.167	0.608	1	repeat	Run2	repeat/STIM_012.jpg
1665.012	0.925	1	repeat	Run2	repeat/STIM_012.jpg
1668.015	0.6	1	repeat	Run2	repeat/STIM_012.jpg
1671.415	0.926	1	repeat	Run2	repeat/STIM_012.jpg
1675.111	0.817	1	repeat	Run2	repeat/STIM_012.jpg
1679.304	0.94	1	repeat	Run2	repeat/STIM_013.jpg
1682.637	0.858	1	repeat	Run2	repeat/STIM_013.jpg
1685.795	0.574	1	repeat	Run2	repeat/STIM_013.jpg
1689.919	0.614	1	repeat	Run2	repeat/STIM_013.jpg
1693.051	0.55	1	repeat	Run2	repeat/STIM_013.jpg
1696.021	0.916	1	repeat	Run2	repeat/STIM_014.jpg
1700.524	0.681	1	repeat	Run2	repeat/STIM_014.jpg
1703.295	0.792	1	repeat	Run2	repeat/STIM_014.jpg
1706.555	0.503	1	repeat	Run2	repeat/STIM_014.jpg
1710.984	0.931	1	repeat	Run2	repeat/STIM_014.jpg
1714.808	1.223	1	generate	Run3	generate/STIM_000.jpg
1719.881	1.816	1	generate	Run3	generate/STIM_000.jpg
1724.484	1.266	1	generate	Run3	generate/STIM_000.jpg
1728.138	1.436	1	generate	Run3	generate/STIM_000.jpg
1732.879	1.508	1	generate	Run3	generate/STIM_000.jpg
1737.24	1.934	1	generate	Run3	generate/STIM_001.jpg
1741.298	0.916	1	generate	Run3	generate/STIM_001.jpg
1745.251	1.691	0	generate	Run3	generate/STIM_001.jpg
1749.628	1.469	1	generate	Run3	generate/STIM_001.jpg
1754.727	1.589	1	generate	Run3	generate/STIM_001.jpg
1759.773	0.797	1	generate	Run3	generate/STIM_002.jpg
1762.688	1.305	1	generate	Run3	generate/STIM_002.jpg
1767.308	0.827	1	generate	Run3	generate/STIM_002.jpg
1771.19	1.314	1	generate	Run3	generate/STIM_002.jpg
1775.112	0.89	1	generate	Run3	generate/STIM_002.jpg
1779.364	1.453	1	generate	Run3	generate/STIM_003.jpg
1783.891	0.855	1	generate	Run3	generate/STIM_003.jpg
1786.975	1.373	1	generate	Run3	generate/STIM_003.jpg
1790.637	1.039	1	generate	Run3	generate/STIM_003.jpg
1794.648	1.926	1	generate	Run3	generate/STIM_003.jpg
1800.03	1.346	1	generate	Run3	generate/STIM_004.jpg
1803.79	1.518	1	generate	Run3	generate/STIM_004.jpg
1808.804	1.934	1	generate	Run3	generate/STIM_004.jpg
1813.626	1.502	1	generate	Run3	generate/STIM_004.jpg
1817.856	1.709	1	generate	Run3	generate/STIM_004.jpg
1823.149	1.898	1	generate	Run3	generate/STIM_005.jpg
1828.848	1.086	1	generate	Run3	generate/STIM_005.jpg
1833.295	1.339	1	generate	Run3	generate/STIM_005.jpg
1837.472	1.819	1	generate	Run3	generate/STIM_005.jpg
1842.075	1.932	1	generate	Run3	generate/STIM_005.jpg
1847.84	1.871	1	generate	Run3	generate/STIM_006.jpg
1852.09	1.589	1	generate	Run3	generate/STIM_006.jpg
1856.664	1.973	1	generate	Run3	generate/STIM_006.jpg
1860.889	0.915	1	generate	Run3	generate/STIM_006.jpg
1864.061	0.798	1	generate	Run3	generate/STIM_006.jpg
1868.066	1.468	1	generate	Run3	generate/STIM_007.jpg
1872.088	1.974	0	generate	Run3	generate/STIM_007.jpg
1876.578	1.952	1	generate	Run3	generate/STIM_007.jpg
1881.252	1.026	1	generate	Run3	generate/STIM_007.jpg
1886.036	1.693	1	generate	Run3	generate/STIM_007.jpg
1891.221	1.399	1	generate	Run3	generate/STIM_008.jpg
1896.363	0.976	1	generate	Run3	generate/STIM_008.jpg
1901.072	1.97	1	generate	Run3	generate/STIM_008.jpg
1905.916	1.556	1	generate	Run3	generate/STIM_008.jpg
1910.819	1.442	1	generate	Run3	generate/STIM_008.jpg
1915.25	1.218	1	generate	Run3	generate/STIM_009.jpg
1919.377	0.793	1	generate	Run3	generate/STIM_009.jpg
1923.604	1.978	1	generate	Run3	generate/STIM_009.jpg
1928.263	1.922	1	generate	Run3	generate/STIM_009.jpg
1933.5	1.394	1	generate	Run3	generate/STIM_009.jpg
1936.938	1.482	1	generate	Run3	generate/STIM_010.jpg
1942.313	0.868	1	generate	Run3	generate/STIM_010.jpg
1946.648	0.86	1	generate	Run3	generate/STIM_010.jpg
1950.021	1.817	1	generate	Run3	generate/STIM_010.jpg
1954.183	1.628	1	generate	Run3	generate/STIM_010.jpg
1958.486	1.22	1	generate	Run3	generate/STIM_011.jpg
1963.678	1.439	1	generate	Run3	generate/STIM_011.jpg
1967.196	1.427	1	generate	Run3	generate/STIM_011.jpg
1971.695	1.692	1	generate	Run3	generate/STIM_011.jpg
1977.284	1.228	1	generate	Run3	generate/STIM_011.jpg
1981.469	0.956	1	generate	Run3	generate/STIM_012.jpg
1985.591	1.329	1	generate	Run3	generate/STIM_012.jpg
1989.393	1.947	1	generate	Run3	generate/STIM_012.jpg
1993.797	1.392	1	generate	Run3	generate/STIM_012.jpg
1998.636	1.755	1	generate	Run3	generate/STIM_012.jpg
2002.918	1.762	1	generate	Run3	generate/STIM_013.jpg
2008.316	0.811	1	generate	Run3	generate/STIM_013.jpg
2013.056	1.726	1	generate	Run3	generate/STIM_013.jpg
2017.941	1.472	1	generate	Run3	generate/STIM_013.jpg
2022.288	1.976	1	generate	Run3	generate/STIM_013.jpg
2027.121	1.544	1	generate	Run3	generate/STIM_014.jpg
2031.69	0.868	1	generate	Run3	generate/STIM_014.jpg
2036.219	1.413	1	generate	Run3	generate/STIM_014.jpg
2040.172	0.962	1	generate	Run3	generate/STIM_014.jpg
2043.469	0.941	1	generate	Run3	generate/STIM_014.jpg
2047.017	1.354	1	generate	Run3	generate/STIM_015.jpg
2051.032	1.02	1	generate	Run3	generate/STIM_015.jpg
2055.006	1.211	1	generate	Run3	generate/STIM_015.jpg
2058.885	1.398	1	generate	Run3	generate/STIM_015.jpg
2062.953	1.05	1	generate	Run3	generate/STIM_015.jpg
2067.248	1.685	1	generate	Run3	generate/STIM_016.jpg
2070.967	1.072	1	generate	Run3	generate/STIM_016.jpg
2075.947	0.966	1	generate	Run3	generate/STIM_016.jpg
2079.464	1.961	1	generate	Run3	generate/STIM_016.jpg
2084.866	1.03	1	generate	Run3	generate/STIM_016.jpg
2089.007	1.512	1	generate	Run3	generate/STIM_017.jpg
2093.332	0.792	1	generate	Run3	generate/STIM_017.jpg
2097.759	1.89	1	generate	Run3	generate/STIM_017.jpg
2101.782	1.8	1	generate	Run3	generate/STIM_017.jpg
2106.594	1.289	1	generate	Run3	generate/STIM_017.jpg
2111.115	1.887	1	generate	Run3	generate/STIM_018.jpg
2116.809	0.934	1	generate	Run3	generate/STIM_018.jpg
2119.94	0.978	1	generate	Run3	generate/STIM_018.jpg
2123.928	0.873	1	generate	Run3	generate/STIM_018.jpg
2128.121	0.961	1	generate	Run3	generate/STIM_018.jpg
2131.574	1.352	1	generate	Run3	generate/STIM_019.jpg
2135.229	1.417	1	generate	Run3	generate/STIM_019.jpg
2138.669	1.189	1	generate	Run3	generate/STIM_019.jpg
2142.209	0.931	1	generate	Run3	generate/STIM_019.jpg
2145.263	1.464	1	generate	Run3	generate/STIM_019.jpg
2149.953	0.83	1	generate	Run3	generate/STIM_020.jpg
2153.573	1.65	1	generate	Run3	generate/STIM_020.jpg
2158.614	1.494	1	generate	Run3	generate/STIM_020.jpg
2162.915	1.128	1	generate	Run3	generate/STIM_020.jpg
2166.859	1.734	1	generate	Run3	generate/STIM_020.jpg
2171.324	1.711	1	generate	Run3	generate/STIM_021.jpg
2175.552	1.219	1	generate	Run3	generate/STIM_021.jpg
2179.344	1.455	1	generate	Run3	generate/STIM_021.jpg
2183.997	0.913	1	generate	Run3	generate/STIM_021.jpg
2187.607	1.703	1	generate	Run3	generate/STIM_021.jpg
2192.701	1.927	1	generate	Run3	generate/STIM_022.jpg
2196.718	1.126	1	generate	Run3	generate/STIM_022.jpg
2200.882	1.355	1	generate	Run3	generate/STIM_022.jpg
2205.619	1.235	1	generate	Run3	generate/STIM_022.jpg
2210.234	1.54	1	generate	Run3	generate/STIM_022.jpg
2214.513	1.106	1	generate	Run3	generate/STIM_023.jpg
2218.086	1.821	1	generate	Run3	generate/STIM_023.jpg
2223.146	1.194	0	generate	Run3	generate/STIM_023.jpg
2226.719	1.523	1	generate	Run3	generate/STIM_023.jpg
2231.342	1.044	1	generate	Run3	generate/STIM_023.jpg
2236.091	0.898	1	generate	Run3	generate/STIM_024.jpg
2239.923	1.219	0	generate	Run3	generate/STIM_024.jpg
2243.22	1.165	1	generate	Run3	generate/STIM_024.jpg
2247.817	1.222	1	generate	Run3	generate/STIM_024.jpg
2251.665	1.589	1	generate	Run3	generate/STIM_024.jpg
2255.494	0.533	1	repeat	Run3	repeat/STIM_000.jpg
2259.756	0.622	1	repeat	Run3	repeat/STIM_000.jpg
2262.886	0.598	1	repeat	Run3	repeat/STIM_000.jpg
2266.233	0.472	1	repeat	Run3	repeat/STIM_000.jpg
2269.141	0.63	1	repeat	Run3	repeat/STIM_000.jpg
2273.229	0.585	1	repeat	Run3	repeat/STIM_001.jpg
2277.081	0.685	1	repeat	Run3	repeat/STIM_001.jpg
2281.456	0.728	0	repeat	Run3	repeat/STIM_001.jpg
2285.26	0.475	1	repeat	Run3	repeat/STIM_001.jpg
2288.605	0.76	1	repeat	Run3	repeat/STIM_001.jpg
2291.724	0.912	1	repeat	Run3	repeat/STIM_002.jpg
2294.9	0.616	1	repeat	Run3	repeat/STIM_002.jpg
2299.257	0.836	1	repeat	Run3	repeat/STIM_002.jpg
2303.528	0.928	1	repeat	Run3	repeat/STIM_002.jpg
2307.565	0.784	1	repeat	Run3	repeat/STIM_002.jpg
2310.798	0.597	1	repeat	Run3	repeat/STIM_003.jpg
2314.351	0.605	1	repeat	Run3	repeat/STIM_003.jpg
2318.349	0.705	1	repeat	Run3	repeat/STIM_003.jpg
2322.282	0.607	1	repeat	Run3	repeat/STIM_003.jpg
2325.361	0.624	1	repeat	Run3	repeat/STIM_003.jpg
2329.216	0.539	1	repeat	Run3	repeat/STIM_004.jpg
2332.172	0.54	1	repeat	Run3	repeat/STIM_004.jpg
2335.032	0.914	1	repeat	Run3	repeat/STIM_004.jpg
2339.602	0.701	1	repeat	Run3	repeat/STIM_004.jpg
2343.954	0.843	1	repeat	Run3	repeat/STIM_004.jpg
2348.131	0.93	1	repeat	Run3	repeat/STIM_005.jpg
2352.923	0.586	1	repeat	Run3	repeat/STIM_005.jpg
2357.277	0.922	1	repeat	Run3	repeat/STIM_005.jpg
2362.169	0.694	1	repeat	Run3	repeat/STIM_005.jpg
2365.77	0.828	1	repeat	Run3	repeat/STIM_005.jpg
2368.943	0.68	1	repeat	Run3	repeat/STIM_006.jpg
2372.191	0.847	1	repeat	Run3	repeat/STIM_006.jpg
2376.718	0.827	1	repeat	Run3	repeat/STIM_006.jpg
2381.529	0.686	1	repeat	Run3	repeat/STIM_006.jpg
2384.735	0.857	1	repeat	Run3	repeat/STIM_006.jpg
2388.015	0.65	1	repeat	Run3	repeat/STIM_007.jpg
2391.533	0.658	1	repeat	Run3	repeat/STIM_007.jpg
2395.426	0.742	1	repeat	Run3	repeat/STIM_007.jpg
2400.124	0.941	1	repeat	Run3	repeat/STIM_007.jpg
2403.381	0.937	1	repeat	Run3	repeat/STIM_007.jpg
2407.054	0.675	1	repeat	Run3	repeat/STIM_008.jpg
2410.773	0.484	1	repeat	Run3	repeat/STIM_008.jpg
2414.215	0.684	1	repeat	Run3	repeat/STIM_008.jpg
2417.711	0.942	1	repeat	Run3	repeat/STIM_008.jpg
2421.9	0.486	1	repeat	Run3	repeat/STIM_008.jpg
2424.709	0.764	1	repeat	Run3	repeat/STIM_009.jpg
2428.137	0.768	1	repeat	Run3	repeat/STIM_009.jpg
2431.08	0.566	1	repeat	Run3	repeat/STIM_009.jpg
2433.802	0.844	1	repeat	Run3	repeat/STIM_009.jpg
2436.749	0.781	1	repeat	Run3	repeat/STIM_009.jpg
2441.381	0.814	1	repeat	Run3	repeat/STIM_010.jpg
2445.468	0.829	1	repeat	Run3	repeat/STIM_010.jpg
2449.094	0.786	1	repeat	Run3	repeat/STIM_010.jpg
2452.168	0.675	1	repeat	Run3	repeat/STIM_010.jpg
2456.674	0.49	1	repeat	Run3	repeat/STIM_010.jpg
2460.613	0.89	1	repeat	Run3	repeat/STIM_011.jpg
2463.517	0.941	1	repeat	Run3	repeat/STIM_011.jpg
2466.986	0.817	1	repeat	Run3	repeat/STIM_011.jpg
2470.286	0.901	0	repeat	Run3	repeat/STIM_011.jpg
2473.72	0.646	1	repeat	Run3	repeat/STIM_011.jpg
2476.435	0.751	1	repeat	Run3	repeat/STIM_012.jpg
2479.641	0.543	1	repeat	Run3	repeat/STIM_012.jpg
2483.059	0.587	1	repeat	Run3	repeat/STIM_012.jpg
2487.493	0.626	1	repeat	Run3	repeat/STIM_012.jpg
2491.644	0.527	1	repeat	Run3	repeat/STIM_012.jpg
2494.984	0.843	1	repeat	Run3	repeat/STIM_013.jpg
2499.416	0.587	1	repeat	Run3	repeat/STIM_013.jpg
2502.778	0.607	1	repeat	Run3	repeat/STIM_013.jpg
2506.513	0.573	1	repeat	Run3	repeat/STIM_013.jpg
2509.81	0.92	1	repeat	Run3	repeat/STIM_013.jpg
2513.499	0.672	1	repeat	Run3	repeat/STIM_014.jpg
2516.339	0.588	0	repeat	Run3	repeat/STIM_014.jpg
2519.154	0.761	1	repeat	Run3	repeat/STIM_014.jpg
2522.036	0.812	1	repeat	Run3	repeat/STIM_014.jpg
2526.694	0.599	1	repeat	Run3	repeat/STIM_014.jpg
2530.383	1.67	1	generate	Run4	generate/STIM_000.jpg
2534.809	1.452	1	generate	Run4	generate/STIM_000.jpg
2539.473	0.872	0	generate	Run4	generate/STIM_000.jpg
2543.759	1.383	1	generate	Run4	generate/STIM_000.jpg
2549.114	1.511	1	generate	Run4	generate/STIM_000.jpg
2553.487	0.962	1	generate	Run4	generate/STIM_001.jpg
2558.008	1.15	1	generate	Run4	generate/STIM_001.jpg
2563.14	1.144	1	generate	Run4	generate/STIM_001.jpg
2566.69	1.002	1	generate	Run4	generate/STIM_001.jpg
2571.064	0.803	1	generate	Run4	generate/STIM_001.jpg
2575.643	1.259	1	generate	Run4	generate/STIM_002.jpg
2579.14	0.922	1	generate	Run4	generate/STIM_002.jpg
2583.805	1.889	1	generate	Run4	generate/STIM_002.jpg
2589.508	1.63	1	generate	Run4	generate/STIM_002.jpg
2594.138	0.98	1	generate	Run4	generate/STIM_002.jpg
2599.096	1.483	1	generate	Run4	generate/STIM_003.jpg
2603.016	1.249	1	generate	Run4	generate/STIM_003.jpg
2607.15	1.945	0	generate	Run4	generate/STIM_003.jpg
2612.117	0.947	1	generate	Run4	generate/STIM_003.jpg
2615.27	1.148	1	generate	Run4	generate/STIM_003.jpg
2620.106	1.11	1	generate	Run4	generate/STIM_004.jpg
2623.4	1.24	1	generate	Run4	generate/STIM_004.jpg
2627.246	1.812	1	generate	Run4	generate/STIM_004.jpg
2632.626	1.306	1	generate	Run4	generate/STIM_004.jpg
2636.091	1.12	1	generate	Run4	generate/STIM_004.jpg
2640.838	1.387	1	generate	Run4	generate/STIM_005.jpg
2644.934	1.812	1	generate	Run4	generate/STIM_005.jpg
2649.467	1.973	1	generate	Run4	generate/STIM_005.jpg
2653.751	0.912	1	generate	Run4	generate/STIM_005.jpg
2657.347	1.684	1	generate	Run4	generate/STIM_005.jpg
2662.077	1.977	1	generate	Run4	generate/STIM_006.jpg
2667.581	1.273	1	generate	Run4	generate/STIM_006.jpg
2671.209	1.698	1	generate	Run4	generate/STIM_006.jpg
2675.969	1.94	1	generate	Run4	generate/STIM_006.jpg
2680.541	1.006	1	generate	Run4	generate/STIM_006.jpg
2683.587	1.858	1	generate	Run4	generate/STIM_007.jpg
2688.914	1.954	1	generate	Run4	generate/STIM_007.jpg
2694.689	1.632	1	generate	Run4	generate/STIM_007.jpg
2700.141	1.325	1	generate	Run4	generate/STIM_007.jpg
2705.4	1.022	1	generate	Run4	generate/STIM_007.jpg
2708.74	1.374	1	generate	Run4	generate/STIM_008.jpg
2713.063	1.259	1	generate	Run4	generate/STIM_008.jpg
2716.41	1.312	1	generate	Run4	generate/STIM_008.jpg
2720.293	1.705	1	generate	Run4	generate/STIM_008.jpg
2725.03	1.395	1	generate	Run4	generate/STIM_008.jpg
2729.651	1.731	1	generate	Run4	generate/STIM_009.jpg
2734.336	0.964	0	generate	Run4	generate/STIM_009.jpg
2737.679	1.457	1	generate	Run4	generate/STIM_009.jpg
2742.429	1.381	1	generate	Run4	generate/STIM_009.jpg
2747.558	0.95	1	generate	Run4	generate/STIM_009.jpg
2751.798	1.048	1	generate	Run4	generate/STIM_010.jpg
2755.06	1.764	1	generate	Run4	generate/STIM_010.jpg
2759.514	1.239	1	generate	Run4	generate/STIM_010.jpg
2763.366	1.976	1	generate	Run4	generate/STIM_010.jpg
2769.081	1.632	1	generate	Run4	generate/STIM_010.jpg
2772.724	0.871	1	generate	Run4	generate/STIM_011.jpg
2775.837	1.06	1	generate	Run4	generate/STIM_011.jpg
2780.003	1.077	1	generate	Run4	generate/STIM_011.jpg
2783.813	1.74	1	generate	Run4	generate/STIM_011.jpg
2788.678	0.944	1	generate	Run4	generate/STIM_011.jpg
2792.133	1.113	1	generate	Run4	generate/STIM_012.jpg
2795.402	1.727	1	generate	Run4	generate/STIM_012.jpg
2799.184	1.272	1	generate	Run4	generate/STIM_012.jpg
2802.767	1.364	1	generate	Run4	generate/STIM_012.jpg
2807.075	1.792	1	generate	Run4	generate/STIM_012.jpg
2810.877	1.268	1	generate	Run4	generate/STIM_013.jpg
2815.508	1.454	1	generate	Run4	generate/STIM_013.jpg
2819.966	0.936	1	generate	Run4	generate/STIM_013.jpg
2824.079	1.902	1	generate	Run4	generate/STIM_013.jpg
2829.489	1.154	1	generate	Run4	generate/STIM_013.jpg
2833.81	1.69	1	generate	Run4	generate/STIM_014.jpg
2838.835	0.84	1	generate	Run4	generate/STIM_014.jpg
2842.54	1.06	0	generate	Run4	generate/STIM_014.jpg
2846.253	1.229	1	generate	Run4	generate/STIM_014.jpg
2849.947	0.808	1	generate	Run4	generate/STIM_014.jpg
2854.094	1.737	1	generate	Run4	generate/STIM_015.jpg
2859.525	1.87	1	generate	Run4	generate/STIM_015.jpg
2864.176	0.989	0	generate	Run4	generate/STIM_015.jpg
2867.3	1.744	1	generate	Run4	generate/STIM_015.jpg
2872.078	1.823	1	generate	Run4	generate/STIM_015.jpg
2877.756	1.002	1	generate	Run4	generate/STIM_016.jpg
2881.286	0.899	1	generate	Run4	generate/STIM_016.jpg
2885.967	0.993	1	generate	Run4	generate/STIM_016.jpg
2889.055	1.219	1	generate	Run4	generate/STIM_016.jpg
2892.469	1.768	1	generate	Run4	generate/STIM_016.jpg
2897.968	1.263	1	generate	Run4	generate/STIM_017.jpg
2901.783	0.946	1	generate	Run4	generate/STIM_017.jpg
2906.137	1.001	1	generate	Run4	generate/STIM_017.jpg
2910.888	1.715	1	generate	Run4	generate/STIM_017.jpg
2914.625	1.237	1	generate	Run4	generate/STIM_017.jpg
2918.099	1.803	1	generate	Run4	generate/STIM_018.jpg
2922.792	1.207	1	generate	Run4	generate/STIM_018.jpg
2927.607	1.403	1	generate	Run4	generate/STIM_018.jpg
2931.028	1.249	1	generate	Run4	generate/STIM_018.jpg
2936.018	1.32	1	generate	Run4	generate/STIM_018.jpg
2940.731	1.152	1	generate	Run4	generate/STIM_019.jpg
2945.233	1.055	1	generate	Run4	generate/STIM_019.jpg
2949.5	0.936	1	generate	Run4	generate/STIM_019.jpg
2953.508	1.16	1	generate	Run4	generate/STIM_019.jpg
2957.54	1.484	1	generate	Run4	generate/STIM_019.jpg
2962.28	1.238	1	generate	Run4	generate/STIM_020.jpg
2965.722	1.859	1	generate	Run4	generate/STIM_020.jpg
2970.275	1.152	1	generate	Run4	generate/STIM_020.jpg
2974.922	1.672	1	generate	Run4	generate/STIM_020.jpg
2979.662	1.769	1	generate	Run4	generate/STIM_020.jpg
2984.35	1.05	1	generate	Run4	generate/STIM_021.jpg
2988.092	1.396	1	generate	Run4	generate/STIM_021.jpg
2992.286	1.846	1	generate	Run4	generate/STIM_021.jpg
2998.109	1.89	1	generate	Run4	generate/STIM_021.jpg
3003.201	1.405	0	generate	Run4	generate/STIM_021.jpg
3006.901	1.188	1	generate	Run4	generate/STIM_022.jpg
3010.773	1.623	1	generate	Run4	generate/STIM_022.jpg
3016.003	1.616	1	generate	Run4	generate/STIM_022.jpg
3020.677	0.874	1	generate	Run4	generate/STIM_022.jpg
3025.265	0.883	1	generate	Run4	generate/STIM_022.jpg
3030.075	1.568	1	generate	Run4	generate/STIM_023.jpg
3034.126	1.668	1	generate	Run4	generate/STIM_023.jpg
3038.267	1.967	1	generate	Run4	generate/STIM_023.jpg
3042.406	1.023	1	generate	Run4	generate/STIM_023.jpg
3046.513	1.128	1	generate	Run4	generate/STIM_023.jpg
3051.218	0.955	1	generate	Run4	generate/STIM_024.jpg
3056.025	1.093	1	generate	Run4	generate/STIM_024.jpg
3059.671	1.325	1	generate	Run4	generate/STIM_024.jpg
3063.64	0.818	1	generate	Run4	generate/STIM_024.jpg
3067.491	1.546	1	generate	Run4	generate/STIM_024.jpg
3071.828	0.476	1	repeat	Run4	repeat/STIM_000.jpg
3074.546	0.5	1	repeat	Run4	repeat/STIM_000.jpg
3078.068	0.936	1	repeat	Run4	repeat/STIM_000.jpg
3082.854	0.58	1	repeat	Run4	repeat/STIM_000.jpg
3085.865	0.844	1	repeat	Run4	repeat/STIM_000.jpg
3090.532	0.766	1	repeat	Run4	repeat/STIM_001.jpg
3094.132	0.784	1	repeat	Run4	repeat/STIM_001.jpg
3098.052	0.596	1	repeat	Run4	repeat/STIM_001.jpg
3101.625	0.535	1	repeat	Run4	repeat/STIM_001.jpg
3105.058	0.804	1	repeat	Run4	repeat/STIM_001.jpg
3107.984	0.678	1	repeat	Run4	repeat/STIM_002.jpg
3111.303	0.743	1	repeat	Run4	repeat/STIM_002.jpg
3114.43	0.789	1	repeat	Run4	repeat/STIM_002.jpg
3117.511	0.561	1	repeat	Run4	repeat/STIM_002.jpg
3121.143	0.631	1	repeat	Run4	repeat/STIM_002.jpg
3124.746	0.678	1	repeat	Run4	repeat/STIM_003.jpg
3127.687	0.675	1	repeat	Run4	repeat/STIM_003.jpg
3130.888	0.744	1	repeat	Run4	repeat/STIM_003.jpg
3134.184	0.85	1	repeat	Run4	repeat/STIM_003.jpg
3137.275	0.917	1	repeat	Run4	repeat/STIM_003.jpg
3141.475	0.798	1	repeat	Run4	repeat/STIM_004.jpg
3145.324	0.748	1	repeat	Run4	repeat/STIM_004.jpg
3149.342	0.592	1	repeat	Run4	repeat/STIM_004.jpg
3153.109	0.636	0	repeat	Run4	repeat/STIM_004.jpg
3157.293	0.859	1	repeat	Run4	repeat/STIM_004.jpg
3160.837	0.932	1	repeat	Run4	repeat/STIM_005.jpg
3164.687	0.658	1	repeat	Run4	repeat/STIM_005.jpg
3168.339	0.837	1	repeat	Run4	repeat/STIM_005.jpg
3172.63	0.638	1	repeat	Run4	repeat/STIM_005.jpg
3175.826	0.86	1	repeat	Run4	repeat/STIM_005.jpg
3179.743	0.935	1	repeat	Run4	repeat/STIM_006.jpg
3183.138	0.916	1	repeat	Run4	repeat/STIM_006.jpg
3187.568	0.686	1	repeat	Run4	repeat/STIM_006.jpg
3190.993	0.522	1	repeat	Run4	repeat/STIM_006.jpg
3194.579	0.751	1	repeat	Run4	repeat/STIM_006.jpg
3197.675	0.936	1	repeat	Run4	repeat/STIM_007.jpg
3201.52	0.723	1	repeat	Run4	repeat/STIM_007.jpg
3204.628	0.816	1	repeat	Run4	repeat/STIM_007.jpg
3209.325	0.845	1	repeat	Run4	repeat/STIM_007.jpg
3213.967	0.801	1	repeat	Run4	repeat/STIM_007.jpg
3216.904	0.551	1	repeat	Run4	repeat/STIM_008.jpg
3221.281	0.634	1	repeat	Run4	repeat/STIM_008.jpg
3224.58	0.572	1	repeat	Run4	repeat/STIM_008.jpg
3227.997	0.902	1	repeat	Run4	repeat/STIM_008.jpg
3232.215	0.734	1	repeat	Run4	repeat/STIM_008.jpg
3235.605	0.735	1	repeat	Run4	repeat/STIM_009.jpg
3238.692	0.897	1	repeat	Run4	repeat/STIM_009.jpg
3242.167	0.791	1	repeat	Run4	repeat/STIM_009.jpg
3246.096	0.705	1	repeat	Run4	repeat/STIM_009.jpg
3249.048	0.622	1	repeat	Run4	repeat/STIM_009.jpg
3253.188	0.657	1	repeat	Run4	repeat/STIM_010.jpg
3256.479	0.892	1	repeat	Run4	repeat/STIM_010.jpg
3260.658	0.472	1	repeat	Run4	repeat/STIM_010.jpg
3263.654	0.839	1	repeat	Run4	repeat/STIM_010.jpg
3268.279	0.852	1	repeat	Run4	repeat/STIM_010.jpg
3272.26	0.924	1	repeat	Run4	repeat/STIM_011.jpg
3276.714	0.618	1	repeat	Run4	repeat/STIM_011.jpg
3281.329	0.852	1	repeat	Run4	repeat/STIM_011.jpg
3284.309	0.642	1	repeat	Run4	repeat/STIM_011.jpg
3287.674	0.782	1	repeat	Run4	repeat/STIM_011.jpg
3290.835	0.807	1	repeat	Run4	repeat/STIM_012.jpg
3295.547	0.933	1	repeat	Run4	repeat/STIM_012.jpg
3300.109	0.69	1	repeat	Run4	repeat/STIM_012.jpg
3304.548	0.486	1	repeat	Run4	repeat/STIM_012.jpg
3308.115	0.544	1	repeat	Run4	repeat/STIM_012.jpg
3310.671	0.729	1	repeat	Run4	repeat/STIM_013.jpg
3313.513	0.937	1	repeat	Run4	repeat/STIM_013.jpg
3317.479	0.553	1	repeat	Run4	repeat/STIM_013.jpg
3321.08	0.9	1	repeat	Run4	repeat/STIM_013.jpg
3325.815	0.821	1	repeat	Run4	repeat/STIM_013.jpg
3330.44	0.557	1	repeat	Run4	repeat/STIM_014.jpg
3333.398	0.57	1	repeat	Run4	repeat/STIM_014.jpg
3337.602	0.709	1	repeat	Run4	repeat/STIM_014.jpg
3340.993	0.858	1	repeat	Run4	repeat/STIM_014.jpg
3344.328	0.848	1	repeat	Run4	repeat/STIM_014.jpg
