onset	duration	accuracy_binary	trial_type	learning_stage	stimulus
0.0	2.732	0	generate	Run1	generate/STIM_000.jpg
5.577	2.321	1	generate	Run1	generate/STIM_000.jpg
11.029	1.88	1	generate	Run1	generate/STIM_000.jpg
14.995	1.472	1	generate	Run1	generate/STIM_000.jpg
19.628	1.158	1	generate	Run1	generate/STIM_000.jpg
23.054	3.19	1	generate	Run1	generate/STIM_001.jpg
28.737	1.772	1	generate	Run1	generate/STIM_001.jpg
32.646	2.214	1	generate	Run1	generate/STIM_001.jpg
37.021	2.87	1	generate	Run1	generate/STIM_001.jpg
42.21	1.995	1	generate	Run1	generate/STIM_001.jpg
46.287	1.964	1	generate	Run1	generate/STIM_002.jpg
51.961	2.714	1	generate	Run1	generate/STIM_002.jpg
56.639	1.275	0	generate	Run1	generate/STIM_002.jpg
60.797	2.652	0	generate	Run1	generate/STIM_002.jpg
65.469	2.753	1	generate	Run1	generate/STIM_002.jpg
69.965	2.208	1	generate	Run1	generate/STIM_003.jpg
74.045	2.271	0	generate	Run1	generate/STIM_003.jpg
78.722	2.104	1	generate	Run1	generate/STIM_003.jpg
82.736	2.037	1	generate	Run1	generate/STIM_003.jpg
88.173	1.466	1	generate	Run1	generate/STIM_003.jpg
92.819	1.777	1	generate	Run1	generate/STIM_004.jpg
97.007	2.051	0	generate	Run1	generate/STIM_004.jpg
100.979	1.257	0	generate	Run1	generate/STIM_004.jpg
104.85	2.484	1	generate	Run1	generate/STIM_004.jpg
109.487	2.319	1	generate	Run1	generate/STIM_004.jpg
113.686	1.749	1	generate	Run1	generate/STIM_005.jpg
118.684	3.095	0	generate	Run1	generate/STIM_005.jpg
124.155	1.761	0	generate	Run1	generate/STIM_005.jpg
127.768	2.688	1	generate	Run1	generate/STIM_005.jpg
133.727	2.32	1	generate	Run1	generate/STIM_005.jpg
139.54	2.944	0	generate	Run1	generate/STIM_006.jpg
145.637	1.4	1	generate	Run1	generate/STIM_006.jpg
149.157	1.691	1	generate	Run1	generate/STIM_006.jpg
153.821	1.626	1	generate	Run1	generate/STIM_006.jpg
158.078	2.722	0	generate	Run1	generate/STIM_006.jpg
162.833	2.774	1	generate	Run1	generate/STIM_007.jpg
167.497	2.466	1	generate	Run1	generate/STIM_007.jpg
172.86	2.493	1	generate	Run1	generate/STIM_007.jpg
177.618	2.131	0	generate	Run1	generate/STIM_007.jpg
183.187	1.124	1	generate	Run1	generate/STIM_007.jpg
187.245	2.678	0	generate	Run1	generate/STIM_008.jpg
193.373	1.444	1	generate	Run1	generate/STIM_008.jpg
198.57	3.036	1	generate	Run1	generate/STIM_008.jpg
204.201	2.232	1	generate	Run1	generate/STIM_008.jpg
209.943	2.319	0	generate	Run1	generate/STIM_008.jpg
214.881	3.237	1	generate	Run1	generate/STIM_009.jpg
220.572	2.768	1	generate	Run1	generate/STIM_009.jpg
225.884	2.747	1	generate	Run1	generate/STIM_009.jpg
231.239	2.825	1	generate	Run1	generate/STIM_009.jpg
236.153	1.574	1	generate	Run1	generate/STIM_009.jpg
241.098	3.069	1	generate	Run1	generate/STIM_010.jpg
246.669	1.595	1	generate	Run1	generate/STIM_010.jpg
252.043	2.937	1	generate	Run1	generate/STIM_010.jpg
256.812	1.29	1	generate	Run1	generate/STIM_010.jpg
261.619	2.59	1	generate	Run1	generate/STIM_010.jpg
265.877	3.199	1	generate	Run1	generate/STIM_011.jpg
271.009	1.365	0	generate	Run1	generate/STIM_011.jpg
274.382	2.754	0	generate	Run1	generate/STIM_011.jpg
280.308	1.995	1	generate	Run1	generate/STIM_011.jpg
284.447	1.676	1	generate	Run1	generate/STIM_011.jpg
289.25	2.757	0	generate	Run1	generate/STIM_012.jpg
295.145	2.301	0	generate	Run1	generate/STIM_012.jpg
300.749	1.465	1	generate	Run1	generate/STIM_012.jpg
304.395	2.421	1	generate	Run1	generate/STIM_012.jpg
310.409	1.295	0	generate	Run1	generate/STIM_012.jpg
313.669	1.692	0	generate	Run1	generate/STIM_013.jpg
317.185	2.3	0	generate	Run1	generate/STIM_013.jpg
321.235	2.456	0	generate	Run1	generate/STIM_013.jpg
326.662	1.879	0	generate	Run1	generate/STIM_013.jpg
331.81	1.794	0	generate	Run1	generate/STIM_013.jpg
335.857	1.804	0	generate	Run1	generate/STIM_014.jpg
341.331	2.788	1	generate	Run1	generate/STIM_014.jpg
347.419	1.938	0	generate	Run1	generate/STIM_014.jpg
352.229	1.938	1	generate	Run1	generate/STIM_014.jpg
357.237	2.656	1	generate	Run1	generate/STIM_014.jpg
362.105	1.639	1	generate	Run1	generate/STIM_015.jpg
367.045	2.145	1	generate	Run1	generate/STIM_015.jpg
372.264	2.71	1	generate	Run1	generate/STIM_015.jpg
377.768	2.569	1	generate	Run1	generate/STIM_015.jpg
382.043	1.44	1	generate	Run1	generate/STIM_015.jpg
385.975	1.501	0	generate	Run1	generate/STIM_016.jpg
391.13	2.852	1	generate	Run1	generate/STIM_016.jpg
396.762	2.888	1	generate	Run1	generate/STIM_016.jpg
402.202	2.551	0	generate	Run1	generate/STIM_016.jpg
408.06	1.279	1	generate	Run1	generate/STIM_016.jpg
411.62	3.321	1	generate	Run1	generate/STIM_017.jpg
417.109	2.776	0	generate	Run1	generate/STIM_017.jpg
423.034	2.931	1	generate	Run1	generate/STIM_017.jpg
428.776	1.699	1	generate	Run1	generate/STIM_017.jpg
433.532	1.296	0	generate	Run1	generate/STIM_017.jpg
437.827	2.852	1	generate	Run1	generate/STIM_018.jpg
443.96	1.675	0	generate	Run1	generate/STIM_018.jpg
449.208	1.897	1	generate	Run1	generate/STIM_018.jpg
453.454	2.348	1	generate	Run1	generate/STIM_018.jpg
457.693	2.527	1	generate	Run1	generate/STIM_018.jpg
461.98	3.122	1	generate	Run1	generate/STIM_019.jpg
468.659	1.622	1	generate	Run1	generate/STIM_019.jpg
473.914	2.876	1	generate	Run1	generate/STIM_019.jpg
478.99	2.578	1	generate	Run1	generate/STIM_019.jpg
484.749	2.559	1	generate	Run1	generate/STIM_019.jpg
490.824	1.8	0	generate	Run1	generate/STIM_020.jpg
495.136	2.928	1	generate	Run1	generate/STIM_020.jpg
500.737	2.91	1	generate	Run1	generate/STIM_020.jpg
505.839	1.781	1	generate	Run1	generate/STIM_020.jpg
509.673	2.716	1	generate	Run1	generate/STIM_020.jpg
515.679	2.179	1	generate	Run1	generate/STIM_021.jpg
521.208	3.261	1	generate	Run1	generate/STIM_021.jpg
526.663	1.505	1	generate	Run1	generate/STIM_021.jpg
530.282	2.398	0	generate	Run1	generate/STIM_021.jpg
536.335	2.075	1	generate	Run1	generate/STIM_021.jpg
541.201	1.444	1	generate	Run1	generate/STIM_022.jpg
545.02	3.145	0	generate	Run1	generate/STIM_022.jpg
550.191	1.561	1	generate	Run1	generate/STIM_022.jpg
553.616	2.595	1	generate	Run1	generate/STIM_022.jpg
559.48	1.268	1	generate	Run1	generate/STIM_022.jpg
562.982	3.202	1	generate	Run1	generate/STIM_023.jpg
568.079	2.955	1	generate	Run1	generate/STIM_023.jpg
573.148	1.914	1	generate	Run1	generate/STIM_023.jpg
578.384	1.634	1	generate	Run1	generate/STIM_023.jpg
582.84	1.886	1	generate	Run1	generate/STIM_023.jpg
586.787	2.214	1	generate	Run1	generate/STIM_024.jpg
592.179	1.723	0	generate	Run1	generate/STIM_024.jpg
596.985	2.14	0	generate	Run1	generate/STIM_024.jpg
602.365	1.886	1	generate	Run1	generate/STIM_024.jpg
606.774	1.396	1	generate	Run1	generate/STIM_024.jpg
611.268	1.037	1	repeat	Run1	repeat/STIM_000.jpg
615.071	1.0	1	repeat	Run1	repeat/STIM_000.jpg
619.425	0.584	1	repeat	Run1	repeat/STIM_000.jpg
623.769	0.865	1	repeat	Run1	repeat/STIM_000.jpg
627.925	0.757	1	repeat	Run1	repeat/STIM_000.jpg
631.669	0.856	1	repeat	Run1	repeat/STIM_001.jpg
635.242	0.934	1	repeat	Run1	repeat/STIM_001.jpg
638.741	0.687	0	repeat	Run1	repeat/STIM_001.jpg
641.573	0.644	1	repeat	Run1	repeat/STIM_001.jpg
645.629	0.9	1	repeat	Run1	repeat/STIM_001.jpg
649.29	1.042	1	repeat	Run1	repeat/STIM_002.jpg
654.187	0.804	1	repeat	Run1	repeat/STIM_002.jpg
658.519	0.823	1	repeat	Run1	repeat/STIM_002.jpg
663.001	0.752	1	repeat	Run1	repeat/STIM_002.jpg
666.788	1.084	1	repeat	Run1	repeat/STIM_002.jpg
670.304	0.593	1	repeat	Run1	repeat/STIM_003.jpg
673.369	1.145	1	repeat	Run1	repeat/STIM_003.jpg
677.508	1.049	1	repeat	Run1	repeat/STIM_003.jpg
682.084	0.949	1	repeat	Run1	repeat/STIM_003.jpg
685.673	0.719	1	repeat	Run1	repeat/STIM_003.jpg
688.536	1.069	1	repeat	Run1	repeat/STIM_004.jpg
693.168	0.633	1	repeat	Run1	repeat/STIM_004.jpg
697.691	0.962	1	repeat	Run1	repeat/STIM_004.jpg
700.798	0.648	1	repeat	Run1	repeat/STIM_004.jpg
703.864	0.667	1	repeat	Run1	repeat/STIM_004.jpg
707.227	0.744	1	repeat	Run1	repeat/STIM_005.jpg
710.575	1.111	1	repeat	Run1	repeat/STIM_005.jpg
714.835	0.869	1	repeat	Run1	repeat/STIM_005.jpg
718.3	0.602	1	repeat	Run1	repeat/STIM_005.jpg
721.96	0.656	1	repeat	Run1	repeat/STIM_005.jpg
726.258	0.677	0	repeat	Run1	repeat/STIM_006.jpg
730.449	0.601	1	repeat	Run1	repeat/STIM_006.jpg
733.997	1.052	1	repeat	Run1	repeat/STIM_006.jpg
737.281	1.073	1	repeat	Run1	repeat/STIM_006.jpg
740.323	1.006	1	repeat	Run1	repeat/STIM_006.jpg
743.972	0.766	1	repeat	Run1	repeat/STIM_007.jpg
748.139	0.794	1	repeat	Run1	repeat/STIM_007.jpg
752.325	0.86	1	repeat	Run1	repeat/STIM_007.jpg
755.324	0.696	1	repeat	Run1	repeat/STIM_007.jpg
759.91	1.042	1	repeat	Run1	repeat/STIM_007.jpg
764.102	1.052	1	repeat	Run1	repeat/STIM_008.jpg
767.235	0.714	1	repeat	Run1	repeat/STIM_008.jpg
771.796	0.995	1	repeat	Run1	repeat/STIM_008.jpg
776.608	0.932	1	repeat	Run1	repeat/STIM_008.jpg
780.815	0.795	1	repeat	Run1	repeat/STIM_008.jpg
783.824	0.848	1	repeat	Run1	repeat/STIM_009.jpg
788.033	0.964	0	repeat	Run1	repeat/STIM_009.jpg
791.051	0.994	1	repeat	Run1	repeat/STIM_009.jpg
794.456	1.042	1	repeat	Run1	repeat/STIM_009.jpg
798.534	0.993	1	repeat	Run1	repeat/STIM_009.jpg
802.858	0.742	1	repeat	Run1	repeat/STIM_010.jpg
806.025	0.905	1	repeat	Run1	repeat/STIM_010.jpg
810.143	0.86	1	repeat	Run1	repeat/STIM_010.jpg
814.156	0.877	0	repeat	Run1	repeat/STIM_010.jpg
818.445	0.979	1	repeat	Run1	repeat/STIM_010.jpg
821.481	0.913	1	repeat	Run1	repeat/STIM_011.jpg
824.917	1.06	1	repeat	Run1	repeat/STIM_011.jpg
829.251	0.757	1	repeat	Run1	repeat/STIM_011.jpg
832.722	0.804	1	repeat	Run1	repeat/STIM_011.jpg
836.544	0.987	1	repeat	Run1	repeat/STIM_011.jpg
840.83	0.984	1	repeat	Run1	repeat/STIM_012.jpg
843.964	0.781	1	repeat	Run1	repeat/STIM_012.jpg
846.709	0.578	1	repeat	Run1	repeat/STIM_012.jpg
849.276	1.017	1	repeat	Run1	repeat/STIM_012.jpg
854.089	0.698	1	repeat	Run1	repeat/STIM_012.jpg
857.623	0.89	1	repeat	Run1	repeat/STIM_013.jpg
861.532	0.851	1	repeat	Run1	repeat/STIM_013.jpg
865.277	0.999	1	repeat	Run1	repeat/STIM_013.jpg
868.71	0.66	0	repeat	Run1	repeat/STIM_013.jpg
871.737	0.665	1	repeat	Run1	repeat/STIM_013.jpg
874.975	0.947	1	repeat	Run1	repeat/STIM_014.jpg
878.372	0.619	1	repeat	Run1	repeat/STIM_014.jpg
880.92	0.602	1	repeat	Run1	repeat/STIM_014.jpg
884.584	0.922	1	repeat	Run1	repeat/STIM_014.jpg
887.972	0.969	1	repeat	Run1	repeat/STIM_014.jpg
892.053	2.635	0	generate	Run2	generate/STIM_000.jpg
897.835	2.016	0	generate	Run2	generate/STIM_000.jpg
903.174	1.623	1	generate	Run2	generate/STIM_000.jpg
907.318	1.077	1	generate	Run2	generate/STIM_000.jpg
910.873	2.041	1	generate	Run2	generate/STIM_000.jpg
915.406	2.305	1	generate	Run2	generate/STIM_001.jpg
919.442	1.272	1	generate	Run2	generate/STIM_001.jpg
922.77	1.307	1	generate	Run2	generate/STIM_001.jpg
926.026	1.538	1	generate	Run2	generate/STIM_001.jpg
930.595	1.947	1	generate	Run2	generate/STIM_001.jpg
935.861	1.646	1	generate	Run2	generate/STIM_002.jpg
939.371	1.199	1	generate	Run2	generate/STIM_002.jpg
942.459	1.062	1	generate	Run2	generate/STIM_002.jpg
946.912	1.863	1	generate	Run2	generate/STIM_002.jpg
952.39	2.272	1	generate	Run2	generate/STIM_002.jpg
957.51	2.58	1	generate	Run2	generate/STIM_003.jpg
962.741	1.116	1	generate	Run2	generate/STIM_003.jpg
966.191	1.35	1	generate	Run2	generate/STIM_003.jpg
969.68	1.974	1	generate	Run2	generate/STIM_003.jpg
975.325	2.386	1	generate	Run2	generate/STIM_003.jpg
979.519	2.046	0	generate	Run2	generate/STIM_004.jpg
984.143	2.188	0	generate	Run2	generate/STIM_004.jpg
988.875	2.471	1	generate	Run2	generate/STIM_004.jpg
994.779	1.052	1	generate	Run2	generate/STIM_004.jpg
999.582	2.313	1	generate	Run2	generate/STIM_004.jpg
1005.127	1.911	1	generate	Run2	generate/STIM_005.jpg
1010.454	1.549	1	generate	Run2	generate/STIM_005.jpg
1013.808	1.056	1	generate	Run2	generate/STIM_005.jpg
1017.838	2.19	1	generate	Run2	generate/STIM_005.jpg
1022.616	2.02	1	generate	Run2	generate/STIM_005.jpg
1027.855	1.437	1	generate	Run2	generate/STIM_006.jpg
1032.359	1.165	1	generate	Run2	generate/STIM_006.jpg
1036.835	2.498	1	generate	Run2	generate/STIM_006.jpg
1041.577	1.043	1	generate	Run2	generate/STIM_006.jpg
1046.443	1.761	1	generate	Run2	generate/STIM_006.jpg
1050.456	1.395	1	generate	Run2	generate/STIM_007.jpg
1054.69	2.311	0	generate	Run2	generate/STIM_007.jpg
1060.142	1.246	1	generate	Run2	generate/STIM_007.jpg
1063.604	1.501	0	generate	Run2	generate/STIM_007.jpg
1067.695	1.519	1	generate	Run2	generate/STIM_007.jpg
1071.297	1.784	1	generate	Run2	generate/STIM_008.jpg
1075.075	2.0	1	generate	Run2	generate/STIM_008.jpg
1079.086	2.314	1	generate	Run2	generate/STIM_008.jpg
1083.558	1.582	0	generate	Run2	generate/STIM_008.jpg
1087.348	1.087	1	generate	Run2	generate/STIM_008.jpg
1091.122	2.603	1	generate	Run2	generate/STIM_009.jpg
1097.071	1.381	1	generate	Run2	generate/STIM_009.jpg
1101.696	1.244	0	generate	Run2	generate/STIM_009.jpg
1106.316	1.765	1	generate	Run2	generate/STIM_009.jpg
1110.399	1.752	1	generate	Run2	generate/STIM_009.jpg
1113.974	2.045	1	generate	Run2	generate/STIM_010.jpg
1119.438	2.674	0	generate	Run2	generate/STIM_010.jpg
1124.036	1.565	1	generate	Run2	generate/STIM_010.jpg
1128.914	1.484	1	generate	Run2	generate/STIM_010.jpg
1133.736	2.404	1	generate	Run2	generate/STIM_010.jpg
1139.195	2.22	0	generate	Run2	generate/STIM_011.jpg
1144.768	1.136	1	generate	Run2	generate/STIM_011.jpg
1148.711	2.37	1	generate	Run2	generate/STIM_011.jpg
1154.568	2.295	0	generate	Run2	generate/STIM_011.jpg
1158.607	2.307	1	generate	Run2	generate/STIM_011.jpg
1164.416	1.398	1	generate	Run2	generate/STIM_012.jpg
1168.675	1.416	1	generate	Run2	generate/STIM_012.jpg
1173.183	2.165	1	generate	Run2	generate/STIM_012.jpg
1177.47	1.437	1	generate	Run2	generate/STIM_012.jpg
1182.426	1.903	0	generate	Run2	generate/STIM_012.jpg
1186.271	1.934	0	generate	Run2	generate/STIM_013.jpg
1191.573	1.977	0	generate	Run2	generate/STIM_013.jpg
1196.748	2.264	1	generate	Run2	generate/STIM_013.jpg
1201.629	1.15	0	generate	Run2	generate/STIM_013.jpg
1206.451	1.48	1	generate	Run2	generate/STIM_013.jpg
1210.39	2.718	1	generate	Run2	generate/STIM_014.jpg
1216.199	1.764	1	generate	Run2	generate/STIM_014.jpg
1221.695	1.961	1	generate	Run2	generate/STIM_014.jpg
1226.675	2.152	1	generate	Run2	generate/STIM_014.jpg
1231.577	1.17	1	generate	Run2	generate/STIM_014.jpg
1235.289	1.529	0	generate	Run2	generate/STIM_015.jpg
1240.419	2.078	0	generate	Run2	generate/STIM_015.jpg
1245.639	2.008	0	generate	Run2	generate/STIM_015.jpg
1250.86	2.04	1	generate	Run2	generate/STIM_015.jpg
1256.244	1.408	1	generate	Run2	generate/STIM_015.jpg
1260.014	2.44	1	generate	Run2	generate/STIM_016.jpg
1266.027	2.71	0	generate	Run2	generate/STIM_016.jpg
1272.374	1.961	1	generate	Run2	generate/STIM_016.jpg
1278.019	1.315	1	generate	Run2	generate/STIM_016.jpg
1282.055	1.176	1	generate	Run2	generate/STIM_016.jpg
1286.362	2.67	0	generate	Run2	generate/STIM_017.jpg
1291.317	1.609	1	generate	Run2	generate/STIM_017.jpg
1295.953	1.618	1	generate	Run2	generate/STIM_017.jpg
1300.331	2.359	1	generate	Run2	generate/STIM_017.jpg
1304.939	1.406	1	generate	Run2	generate/STIM_017.jpg
1309.989	1.9	1	generate	Run2	generate/STIM_018.jpg
1314.977	2.201	1	generate	Run2	generate/STIM_018.jpg
1320.255	2.513	1	generate	Run2	generate/STIM_018.jpg
1326.381	1.637	1	generate	Run2	generate/STIM_018.jpg
1331.782	1.851	1	generate	Run2	generate/STIM_018.jpg
1337.15	2.247	1	generate	Run2	generate/STIM_019.jpg
1341.331	1.441	1	generate	Run2	generate/STIM_019.jpg
1346.148	1.167	1	generate	Run2	generate/STIM_019.jpg
1350.29	2.308	1	generate	Run2	generate/STIM_019.jpg
1355.536	2.069	1	generate	Run2	generate/STIM_019.jpg
1360.669	2.603	1	generate	Run2	generate/STIM_020.jpg
1365.356	2.032	1	generate	Run2	generate/STIM_020.jpg
1370.521	1.496	1	generate	Run2	generate/STIM_020.jpg
1374.992	1.643	0	generate	Run2	generate/STIM_020.jpg
1379.26	1.701	1	generate	Run2	generate/STIM_020.jpg
1383.59	2.758	1	generate	Run2	generate/STIM_021.jpg
1389.353	1.994	0	generate	Run2	generate/STIM_021.jpg
1393.255	2.528	1	generate	Run2	generate/STIM_021.jpg
1397.947	1.869	1	generate	Run2	generate/STIM_021.jpg
1402.903	1.199	1	generate	Run2	generate/STIM_021.jpg
1406.793	1.803	1	generate	Run2	generate/STIM_022.jpg
1411.287	1.858	1	generate	Run2	generate/STIM_022.jpg
1416.24	1.675	1	generate	Run2	generate/STIM_022.jpg
1421.693	1.733	1	generate	Run2	generate/STIM_022.jpg
1425.582	1.476	1	generate	Run2	generate/STIM_022.jpg
1429.106	1.176	1	generate	Run2	generate/STIM_023.jpg
1432.748	1.564	1	generate	Run2	generate/STIM_023.jpg
1437.751	2.392	1	generate	Run2	generate/STIM_023.jpg
1443.025	1.778	1	generate	Run2	generate/STIM_023.jpg
1447.466	1.118	1	generate	Run2	generate/STIM_023.jpg
1451.916	2.518	1	generate	Run2	generate/STIM_024.jpg
1456.864	1.345	1	generate	Run2	generate/STIM_024.jpg
1461.884	1.799	1	generate	Run2	generate/STIM_024.jpg
1465.935	2.143	1	generate	Run2	generate/STIM_024.jpg
1470.315	2.006	1	generate	Run2	generate/STIM_024.jpg
1475.023	0.858	1	repeat	Run2	repeat/STIM_000.jpg
1479.413	0.712	1	repeat	Run2	repeat/STIM_000.jpg
1482.463	0.979	1	repeat	Run2	repeat/STIM_000.jpg
1487.081	0.736	1	repeat	Run2	repeat/STIM_000.jpg
1489.817	0.595	1	repeat	Run2	repeat/STIM_000.jpg
1493.724	0.646	1	repeat	Run2	repeat/STIM_001.jpg
1497.556	0.666	0	repeat	Run2	repeat/STIM_001.jpg
1500.734	0.724	1	repeat	Run2	repeat/STIM_001.jpg
1505.046	0.755	1	repeat	Run2	repeat/STIM_001.jpg
1508.273	0.8	1	repeat	Run2	repeat/STIM_001.jpg
1511.111	0.709	1	repeat	Run2	repeat/STIM_002.jpg
1515.246	0.855	1	repeat	Run2	repeat/STIM_002.jpg
1518.269	0.948	1	repeat	Run2	repeat/STIM_002.jpg
1523.017	1.046	1	repeat	Run2	repeat/STIM_002.jpg
1526.509	1.0	1	repeat	Run2	repeat/STIM_002.jpg
1530.041	1.138	1	repeat	Run2	repeat/STIM_003.jpg
1533.947	0.68	1	repeat	Run2	repeat/STIM_003.jpg
1537.406	1.104	1	repeat	Run2	repeat/STIM_003.jpg
1540.473	0.617	1	repeat	Run2	repeat/STIM_003.jpg
1543.71	0.748	1	repeat	Run2	repeat/STIM_003.jpg
1547.918	0.702	1	repeat	Run2	repeat/STIM_004.jpg
1550.831	1.056	1	repeat	Run2	repeat/STIM_004.jpg
1554.231	0.868	1	repeat	Run2	repeat/STIM_004.jpg
1558.896	1.141	1	repeat	Run2	repeat/STIM_004.jpg
1562.164	1.086	1	repeat	Run2	repeat/STIM_004.jpg
1566.069	0.701	1	repeat	Run2	repeat/STIM_005.jpg
1570.006	0.815	1	repeat	Run2	repeat/STIM_005.jpg
1574.483	0.72	1	repeat	Run2	repeat/STIM_005.jpg
1578.797	1.036	0	repeat	Run2	repeat/STIM_005.jpg
1582.067	0.874	1	repeat	Run2	repeat/STIM_005.jpg
1585.687	0.78	1	repeat	Run2	repeat/STIM_006.jpg
1588.783	1.016	1	repeat	Run2	repeat/STIM_006.jpg
1593.19	0.922	1	repeat	Run2	repeat/STIM_006.jpg
1597.353	0.724	1	repeat	Run2	repeat/STIM_006.jpg
1600.694	0.674	1	repeat	Run2	repeat/STIM_006.jpg
1603.463	0.725	1	repeat	Run2	repeat/STIM_007.jpg
1607.156	1.144	1	repeat	Run2	repeat/STIM_007.jpg
1611.993	0.916	1	repeat	Run2	repeat/STIM_007.jpg
1616.262	0.99	1	repeat	Run2	repeat/STIM_007.jpg
1620.395	0.607	0	repeat	Run2	repeat/STIM_007.jpg
1623.764	0.824	1	repeat	Run2	repeat/STIM_008.jpg
1628.227	0.725	1	repeat	Run2	repeat/STIM_008.jpg
1632.611	0.764	1	repeat	Run2	repeat/STIM_008.jpg
1635.865	1.082	1	repeat	Run2	repeat/STIM_008.jpg
1639.787	0.793	1	repeat	Run2	repeat/STIM_008.jpg
1644.37	0.767	1	repeat	Run2	repeat/STIM_009.jpg
1648.062	0.6	1	repeat	Run2	repeat/STIM_009.jpg
1651.938	0.725	1	repeat	Run2	repeat/STIM_009.jpg
1655.448	1.037	1	repeat	Run2	repeat/STIM_009.jpg
1660.338	0.714	1	repeat	Run2	repeat/STIM_009.jpg
1664.687	0.835	1	repeat	Run2	repeat/STIM_010.jpg
1668.605	0.961	1	repeat	Run2	repeat/STIM_010.jpg
1673.161	0.942	1	repeat	Run2	repeat/STIM_010.jpg
1676.668	0.899	1	repeat	Run2	repeat/STIM_010.jpg
1680.859	0.7	1	repeat	Run2	repeat/STIM_010.jpg
1685.416	0.806	1	repeat	Run2	repeat/STIM_011.jpg
1689.65	1.128	1	repeat	Run2	repeat/STIM_011.jpg
1693.432	1.021	1	repeat	Run2	repeat/STIM_011.jpg
1698.245	0.671	1	repeat	Run2	repeat/STIM_011.jpg
1702.244	0.975	1	repeat	Run2	repeat/STIM_011.jpg
1705.095	1.109	0	repeat	Run2	repeat/STIM_012.jpg
1709.252	0.81	1	repeat	Run2	repeat/STIM_012.jpg
1712.651	0.8	1	repeat	Run2	repeat/STIM_012.jpg
1716.171	1.026	1	repeat	Run2	repeat/STIM_012.jpg
1719.749	0.913	1	repeat	Run2	repeat/STIM_012.jpg
1722.687	0.942	1	repeat	Run2	repeat/STIM_013.jpg
1726.977	0.663	1	repeat	Run2	repeat/STIM_013.jpg
1730.349	1.097	1	repeat	Run2	repeat/STIM_013.jpg
1734.77	1.125	1	repeat	Run2	repeat/STIM_013.jpg
1739.448	1.015	1	repeat	Run2	repeat/STIM_013.jpg
1743.568	0.993	1	repeat	Run2	repeat/STIM_014.jpg
1747.807	0.763	1	repeat	Run2	repeat/STIM_014.jpg
1751.26	1.064	1	repeat	Run2	repeat/STIM_014.jpg
1754.449	1.084	1	repeat	Run2	repeat/STIM_014.jpg
1758.592	0.616	1	repeat	Run2	repeat/STIM_014.jpg
1761.293	1.727	1	generate	Run3	generate/STIM_000.jpg
1766.191	2.146	1	generate	Run3	generate/STIM_000.jpg
1770.49	2.292	1	generate	Run3	generate/STIM_000.jpg
1775.923	1.989	1	generate	Run3	generate/STIM_000.jpg
1779.756	1.171	1	generate	Run3	generate/STIM_000.jpg
1783.897	1.491	0	generate	Run3	generate/STIM_001.jpg
1787.994	2.394	1	generate	Run3	generate/STIM_001.jpg
1793.414	1.003	0	generate	Run3	generate/STIM_001.jpg
1797.777	1.954	1	generate	Run3	generate/STIM_001.jpg
1802.077	1.212	1	generate	Run3	generate/STIM_001.jpg
1806.994	2.266	1	generate	Run3	generate/STIM_002.jpg
1811.319	1.736	0	generate	Run3	generate/STIM_002.jpg
1815.669	2.243	1	generate	Run3	generate/STIM_002.jpg
1819.683	1.161	1	generate	Run3	generate/STIM_002.jpg
1824.025	1.773	1	generate	Run3	generate/STIM_002.jpg
1829.567	1.996	1	generate	Run3	generate/STIM_003.jpg
1835.201	2.154	1	generate	Run3	generate/STIM_003.jpg
1840.267	1.608	1	generate	Run3	generate/STIM_003.jpg
1843.676	1.413	0	generate	Run3	generate/STIM_003.jpg
1847.219	2.123	1	generate	Run3	generate/STIM_003.jpg
1853.032	1.707	1	generate	Run3	generate/STIM_004.jpg
1857.649	2.058	1	generate	Run3	generate/STIM_004.jpg
1862.946	2.165	1	generate	Run3	generate/STIM_004.jpg
1867.347	1.008	1	generate	Run3	generate/STIM_004.jpg
1870.788	1.796	1	generate	Run3	generate/STIM_004.jpg
1874.81	1.797	1	generate	Run3	generate/STIM_005.jpg
1879.876	2.383	1	generate	Run3	generate/STIM_005.jpg
1885.838	1.612	1	generate	Run3	generate/STIM_005.jpg
1890.59	1.928	1	generate	Run3	generate/STIM_005.jpg
1894.554	1.079	1	generate	Run3	generate/STIM_005.jpg
1898.093	1.594	1	generate	Run3	generate/STIM_006.jpg
1902.464	1.177	1	generate	Run3	generate/STIM_006.jpg
1906.817	2.006	1	generate	Run3	generate/STIM_006.jpg
1911.302	1.667	1	generate	Run3	generate/STIM_006.jpg
1915.901	1.076	1	generate	Run3	generate/STIM_006.jpg
1919.383	1.305	1	generate	Run3	generate/STIM_007.jpg
1923.035	1.663	0	generate	Run3	generate/STIM_007.jpg
1927.25	2.352	1	generate	Run3	generate/STIM_007.jpg
1931.762	1.963	1	generate	Run3	generate/STIM_007.jpg
1936.583	2.126	1	generate	Run3	generate/STIM_007.jpg
1941.404	1.741	1	generate	Run3	generate/STIM_008.jpg
1945.209	1.2	1	generate	Run3	generate/STIM_008.jpg
1950.244	2.34	1	generate	Run3	generate/STIM_008.jpg
1956.093	2.409	1	generate	Run3	generate/STIM_008.jpg
1961.525	1.874	1	generate	Run3	generate/STIM_008.jpg
1965.388	2.276	1	generate	Run3	generate/STIM_009.jpg
1970.494	1.819	1	generate	Run3	generate/STIM_009.jpg
1975.39	2.293	1	generate	Run3	generate/STIM_009.jpg
1981.315	1.281	1	generate	Run3	generate/STIM_009.jpg
1984.929	1.266	1	generate	Run3	generate/STIM_009.jpg
1989.98	1.372	1	generate	Run3	generate/STIM_010.jpg
1994.738	1.596	1	generate	Run3	generate/STIM_010.jpg
1998.267	1.872	1	generate	Run3	generate/STIM_010.jpg
2002.771	2.345	1	generate	Run3	generate/STIM_010.jpg
2007.662	1.71	1	generate	Run3	generate/STIM_010.jpg
2013.087	1.043	1	generate	Run3	generate/STIM_011.jpg
2016.971	1.61	1	generate	Run3	generate/STIM_011.jpg
2021.064	1.992	1	generate	Run3	generate/STIM_011.jpg
2025.979	1.246	1	generate	Run3	generate/STIM_011.jpg
2030.719	2.312	1	generate	Run3	generate/STIM_011.jpg
2035.448	1.144	1	generate	Run3	generate/STIM_012.jpg
2039.788	2.368	1	generate	Run3	generate/STIM_012.jpg
2044.476	1.295	1	generate	Run3	generate/STIM_012.jpg
2049.35	2.257	1	generate	Run3	generate/STIM_012.jpg
2054.903	1.206	1	generate	Run3	generate/STIM_012.jpg
2058.286	1.041	1	generate	Run3	generate/STIM_013.jpg
2062.039	1.158	1	generate	Run3	generate/STIM_013.jpg
2065.573	1.929	1	generate	Run3	generate/STIM_013.jpg
2070.218	0.998	1	generate	Run3	generate/STIM_013.jpg
2073.32	1.33	1	generate	Run3	generate/STIM_013.jpg
2077.414	1.227	0	generate	Run3	generate/STIM_014.jpg
2080.653	2.051	1	generate	Run3	generate/STIM_014.jpg
2086.016	1.908	1	generate	Run3	generate/STIM_014.jpg
2090.371	2.257	1	generate	Run3	generate/STIM_014.jpg
2095.302	2.199	1	generate	Run3	generate/STIM_014.jpg
2099.824	2.156	0	generate	Run3	generate/STIM_015.jpg
2104.651	0.981	1	generate	Run3	generate/STIM_015.jpg
2108.261	1.167	1	generate	Run3	generate/STIM_015.jpg
2111.392	2.178	1	generate	Run3	generate/STIM_015.jpg
2117.074	1.974	1	generate	Run3	generate/STIM_015.jpg
2122.682	1.464	1	generate	Run3	generate/STIM_016.jpg
2126.402	2.406	1	generate	Run3	generate/STIM_016.jpg
2130.613	1.862	1	generate	Run3	generate/STIM_016.jpg
2135.867	1.897	1	generate	Run3	generate/STIM_016.jpg
2141.416	1.094	1	generate	Run3	generate/STIM_016.jpg
2146.189	1.878	0	generate	Run3	generate/STIM_017.jpg
2150.962	1.468	1	generate	Run3	generate/STIM_017.jpg
2155.127	2.378	1	generate	Run3	generate/STIM_017.jpg
2159.473	1.374	1	generate	Run3	generate/STIM_017.jpg
2162.828	1.38	1	generate	Run3	generate/STIM_017.jpg
2168.017	1.575	1	generate	Run3	generate/STIM_018.jpg
2172.933	1.853	0	generate	Run3	generate/STIM_018.jpg
2178.349	2.404	1	generate	Run3	generate/STIM_018.jpg
2182.989	1.2	1	generate	Run3	generate/STIM_018.jpg
2186.657	2.4	0	generate	Run3	generate/STIM_018.jpg
2191.677	1.422	1	generate	Run3	generate/STIM_019.jpg
2194.93	1.258	1	generate	Run3	generate/STIM_019.jpg
2199.647	2.344	1	generate	Run3	generate/STIM_019.jpg
2204.84	2.02	1	generate	Run3	generate/STIM_019.jpg
2210.217	1.363	1	generate	Run3	generate/STIM_019.jpg
2214.612	2.392	1	generate	Run3	generate/STIM_020.jpg
2218.984	1.326	1	generate	Run3	generate/STIM_020.jpg
2222.207	2.33	1	generate	Run3	generate/STIM_020.jpg
2227.445	1.051	1	generate	Run3	generate/STIM_020.jpg
2231.449	1.275	1	generate	Run3	generate/STIM_020.jpg
2235.576	2.267	1	generate	Run3	generate/STIM_021.jpg
2240.798	1.306	1	generate	Run3	generate/STIM_021.jpg
2244.416	1.273	1	generate	Run3	generate/STIM_021.jpg
2248.389	1.409	1	generate	Run3	generate/STIM_021.jpg
2252.155	1.908	1	generate	Run3	generate/STIM_021.jpg
2256.6	1.91	1	generate	Run3	generate/STIM_022.jpg
2260.437	1.8	1	generate	Run3	generate/STIM_022.jpg
2265.513	1.015	1	generate	Run3	generate/STIM_022.jpg
2268.905	2.36	1	generate	Run3	generate/STIM_022.jpg
2273.883	1.186	1	generate	Run3	generate/STIM_022.jpg
2277.325	1.008	1	generate	Run3	generate/STIM_023.jpg
2281.378	1.757	1	generate	Run3	generate/STIM_023.jpg
2286.425	1.993	0	generate	Run3	generate/STIM_023.jpg
2291.351	1.552	1	generate	Run3	generate/STIM_023.jpg
2296.638	2.031	1	generate	Run3	generate/STIM_023.jpg
2302.226	2.341	1	generate	Run3	generate/STIM_024.jpg
2307.656	1.894	0	generate	Run3	generate/STIM_024.jpg
2312.217	1.386	1	generate	Run3	generate/STIM_024.jpg
2317.046	1.625	1	generate	Run3	generate/STIM_024.jpg
2321.338	1.784	1	generate	Run3	generate/STIM_024.jpg
2325.41	1.112	1	repeat	Run3	repeat/STIM_000.jpg
2330.283	1.033	1	repeat	Run3	repeat/STIM_000.jpg
2333.772	0.794	1	repeat	Run3	repeat/STIM_000.jpg
2336.64	0.984	1	repeat	Run3	repeat/STIM_000.jpg
2341.174	0.65	1	repeat	Run3	repeat/STIM_000.jpg
2344.994	1.132	1	repeat	Run3	repeat/STIM_001.jpg
2348.001	1.095	1	repeat	Run3	repeat/STIM_001.jpg
2352.646	0.916	0	repeat	Run3	repeat/STIM_001.jpg
2355.969	1.031	1	repeat	Run3	repeat/STIM_001.jpg
2360.225	1.004	1	repeat	Run3	repeat/STIM_001.jpg
2364.732	0.932	1	repeat	Run3	repeat/STIM_002.jpg
2369.467	0.746	1	repeat	Run3	repeat/STIM_002.jpg
2373.947	0.829	1	repeat	Run3	repeat/STIM_002.jpg
2377.193	0.93	1	repeat	Run3	repeat/STIM_002.jpg
2381.481	0.887	1	repeat	Run3	repeat/STIM_002.jpg
2384.299	0.868	1	repeat	Run3	repeat/STIM_003.jpg
2388.338	0.787	1	repeat	Run3	repeat/STIM_003.jpg
2392.36	1.048	1	repeat	Run3	repeat/STIM_003.jpg
2396.107	1.107	1	repeat	Run3	repeat/STIM_003.jpg
2399.553	0.691	1	repeat	Run3	repeat/STIM_003.jpg
2402.815	1.14	1	repeat	Run3	repeat/STIM_004.jpg
2405.977	0.807	1	repeat	Run3	repeat/STIM_004.jpg
2408.861	1.018	1	repeat	Run3	repeat/STIM_004.jpg
2413.684	1.083	1	repeat	Run3	repeat/STIM_004.jpg
2416.901	1.034	1	repeat	Run3	repeat/STIM_004.jpg
2420.042	1.138	1	repeat	Run3	repeat/STIM_005.jpg
2424.483	0.966	1	repeat	Run3	repeat/STIM_005.jpg
2427.905	1.139	1	repeat	Run3	repeat/STIM_005.jpg
2431.644	0.697	1	repeat	Run3	repeat/STIM_005.jpg
2434.769	0.78	0	repeat	Run3	repeat/STIM_005.jpg
2438.637	1.093	1	repeat	Run3	repeat/STIM_006.jpg
2443.505	0.93	1	repeat	Run3	repeat/STIM_006.jpg
2448.079	0.814	1	repeat	Run3	repeat/STIM_006.jpg
2452.643	0.67	1	repeat	Run3	repeat/STIM_006.jpg
2456.116	0.759	1	repeat	Run3	repeat/STIM_006.jpg
2460.728	0.725	1	repeat	Run3	repeat/STIM_007.jpg
2463.616	1.021	1	repeat	Run3	repeat/STIM_007.jpg
2467.545	1.098	1	repeat	Run3	repeat/STIM_007.jpg
2471.731	0.834	1	repeat	Run3	repeat/STIM_007.jpg
2474.82	0.723	0	repeat	Run3	repeat/STIM_007.jpg
2478.688	0.692	1	repeat	Run3	repeat/STIM_008.jpg
2481.702	0.631	1	repeat	Run3	repeat/STIM_008.jpg
2484.683	0.999	1	repeat	Run3	repeat/STIM_008.jpg
2488.412	0.701	1	repeat	Run3	repeat/STIM_008.jpg
2491.409	0.826	1	repeat	Run3	repeat/STIM_008.jpg
2494.793	0.732	1	repeat	Run3	repeat/STIM_009.jpg
2498.618	0.612	0	repeat	Run3	repeat/STIM_009.jpg
2501.251	0.613	1	repeat	Run3	repeat/STIM_009.jpg
2503.983	1.038	1	repeat	Run3	repeat/STIM_009.jpg
2508.588	0.704	1	repeat	Run3	repeat/STIM_009.jpg
2512.877	1.148	1	repeat	Run3	repeat/STIM_010.jpg
2517.674	0.903	1	repeat	Run3	repeat/STIM_010.jpg
2521.577	0.782	1	repeat	Run3	repeat/STIM_010.jpg
2524.63	1.048	1	repeat	Run3	repeat/STIM_010.jpg
2529.455	0.735	1	repeat	Run3	repeat/STIM_010.jpg
2532.141	0.843	1	repeat	Run3	repeat/STIM_011.jpg
2535.17	0.783	1	repeat	Run3	repeat/STIM_011.jpg
2538.795	0.655	1	repeat	Run3	repeat/STIM_011.jpg
2542.09	0.905	0	repeat	Run3	repeat/STIM_011.jpg
2546.433	0.79	1	repeat	Run3	repeat/STIM_011.jpg
2549.801	1.109	1	repeat	Run3	repeat/STIM_012.jpg
2554.427	0.66	1	repeat	Run3	repeat/STIM_012.jpg
2558.164	0.86	1	repeat	Run3	repeat/STIM_012.jpg
2561.732	0.892	1	repeat	Run3	repeat/STIM_012.jpg
2565.403	0.828	1	repeat	Run3	repeat/STIM_012.jpg
2568.176	0.921	1	repeat	Run3	repeat/STIM_013.jpg
2571.1	0.6	1	repeat	Run3	repeat/STIM_013.jpg
2573.718	0.718	1	repeat	Run3	repeat/STIM_013.jpg
2577.018	0.958	0	repeat	Run3	repeat/STIM_013.jpg
2581.832	0.743	1	repeat	Run3	repeat/STIM_013.jpg
2584.54	0.606	1	repeat	Run3	repeat/STIM_014.jpg
2588.886	0.894	0	repeat	Run3	repeat/STIM_014.jpg
2593.41	0.61	1	repeat	Run3	repeat/STIM_014.jpg
2597.593	1.07	1	repeat	Run3	repeat/STIM_014.jpg
2600.605	0.983	1	repeat	Run3	repeat/STIM_014.jpg
2603.735	2.025	1	generate	Run4	generate/STIM_000.jpg
2608.744	1.192	1	generate	Run4	generate/STIM_000.jpg
2613.126	1.011	0	generate	Run4	generate/STIM_000.jpg
2616.523	2.177	1	generate	Run4	generate/STIM_000.jpg
2620.88	1.836	1	generate	Run4	generate/STIM_000.jpg
2624.711	1.59	1	generate	Run4	generate/STIM_001.jpg
2629.929	1.976	1	generate	Run4	generate/STIM_001.jpg
2635.097	2.249	1	generate	Run4	generate/STIM_001.jpg
2639.317	1.566	1	generate	Run4	generate/STIM_001.jpg
2643.769	1.0	1	generate	Run4	generate/STIM_001.jpg
2648.22	2.036	1	generate	Run4	generate/STIM_002.jpg
2653.688	1.515	1	generate	Run4	generate/STIM_002.jpg
2658.353	2.165	1	generate	Run4	generate/STIM_002.jpg
2662.298	1.995	1	generate	Run4	generate/STIM_002.jpg
2667.533	1.474	1	generate	Run4	generate/STIM_002.jpg
2671.599	1.095	1	generate	Run4	generate/STIM_003.jpg
2676.166	1.206	1	generate	Run4	generate/STIM_003.jpg
2680.492	2.088	0	generate	Run4	generate/STIM_003.jpg
2685.203	1.545	1	generate	Run4	generate/STIM_003.jpg
2688.669	1.731	1	generate	Run4	generate/STIM_003.jpg
2693.3	1.475	1	generate	Run4	generate/STIM_004.jpg
2697.741	1.379	1	generate	Run4	generate/STIM_004.jpg
2701.104	1.828	1	generate	Run4	generate/STIM_004.jpg
2705.546	1.932	1	generate	Run4	generate/STIM_004.jpg
2709.702	1.413	1	generate	Run4	generate/STIM_004.jpg
2713.179	1.517	1	generate	Run4	generate/STIM_005.jpg
2717.047	1.163	1	generate	Run4	generate/STIM_005.jpg
2720.772	1.056	1	generate	Run4	generate/STIM_005.jpg
2725.103	2.032	1	generate	Run4	generate/STIM_005.jpg
2730.517	1.632	1	generate	Run4	generate/STIM_005.jpg
2735.89	2.237	1	generate	Run4	generate/STIM_006.jpg
2741.451	1.76	1	generate	Run4	generate/STIM_006.jpg
2745.913	1.33	1	generate	Run4	generate/STIM_006.jpg
2749.169	1.382	1	generate	Run4	generate/STIM_006.jpg
2753.665	1.885	1	generate	Run4	generate/STIM_006.jpg
2757.683	2.1	1	generate	Run4	generate/STIM_007.jpg
2761.522	1.964	1	generate	Run4	generate/STIM_007.jpg
2765.478	2.32	1	generate	Run4	generate/STIM_007.jpg
2770.652	1.339	1	generate	Run4	generate/STIM_007.jpg
2774.018	1.085	1	generate	Run4	generate/STIM_007.jpg
2777.265	2.35	0	generate	Run4	generate/STIM_008.jpg
2782.719	1.736	1	generate	Run4	generate/STIM_008.jpg
2786.876	1.749	1	generate	Run4	generate/STIM_008.jpg
2790.885	1.298	1	generate	Run4	generate/STIM_008.jpg
2795.436	1.823	1	generate	Run4	generate/STIM_008.jpg
2800.533	1.453	1	generate	Run4	generate/STIM_009.jpg
2804.143	2.205	0	generate	Run4	generate/STIM_009.jpg
2809.587	1.442	1	generate	Run4	generate/STIM_009.jpg
2813.784	1.681	1	generate	Run4	generate/STIM_009.jpg
2817.824	1.36	1	generate	Run4	generate/STIM_009.jpg
2822.823	1.204	1	generate	Run4	generate/STIM_010.jpg
2827.549	1.287	1	generate	Run4	generate/STIM_010.jpg
2830.835	2.086	1	generate	Run4	generate/STIM_010.jpg
2836.559	1.366	1	generate	Run4	generate/STIM_010.jpg
2840.522	1.718	1	generate	Run4	generate/STIM_010.jpg
2845.16	1.268	1	generate	Run4	generate/STIM_011.jpg
2849.901	1.266	1	generate	Run4	generate/STIM_011.jpg
2854.574	1.899	1	generate	Run4	generate/STIM_011.jpg
2858.859	1.186	1	generate	Run4	generate/STIM_011.jpg
2862.635	2.191	1	generate	Run4	generate/STIM_011.jpg
2868.227	2.39	1	generate	Run4	generate/STIM_012.jpg
2872.939	2.188	1	generate	Run4	generate/STIM_012.jpg
2878.172	2.322	1	generate	Run4	generate/STIM_012.jpg
2882.206	1.726	1	generate	Run4	generate/STIM_012.jpg
2886.861	2.269	1	generate	Run4	generate/STIM_012.jpg
2891.83	2.194	1	generate	Run4	generate/STIM_013.jpg
2896.016	1.34	1	generate	Run4	generate/STIM_013.jpg
2900.415	2.182	1	generate	Run4	generate/STIM_013.jpg
2906.18	2.383	1	generate	Run4	generate/STIM_013.jpg
2911.011	2.233	1	generate	Run4	generate/STIM_013.jpg
2916.093	1.208	1	generate	Run4	generate/STIM_014.jpg
2919.594	1.27	1	generate	Run4	generate/STIM_014.jpg
2924.453	0.981	0	generate	Run4	generate/STIM_014.jpg
2927.321	2.198	1	generate	Run4	generate/STIM_014.jpg
2931.495	1.541	1	generate	Run4	generate/STIM_014.jpg
2935.35	1.895	1	generate	Run4	generate/STIM_015.jpg
2939.632	2.369	1	generate	Run4	generate/STIM_015.jpg
2944.058	2.054	0	generate	Run4	generate/STIM_015.jpg
2947.952	2.311	1	generate	Run4	generate/STIM_015.jpg
2953.24	1.115	1	generate	Run4	generate/STIM_015.jpg
2956.239	1.979	1	generate	Run4	generate/STIM_016.jpg
2961.604	1.905	1	generate	Run4	generate/STIM_016.jpg
2966.256	1.267	1	generate	Run4	generate/STIM_016.jpg
2971.126	1.476	1	generate	Run4	generate/STIM_016.jpg
2974.791	2.35	1	generate	Run4	generate/STIM_016.jpg
2980.045	0.966	1	generate	Run4	generate/STIM_017.jpg
2983.889	1.73	1	generate	Run4	generate/STIM_017.jpg
2989.271	1.701	1	generate	Run4	generate/STIM_017.jpg
2992.911	2.282	1	generate	Run4	generate/STIM_017.jpg
2997.704	2.323	1	generate	Run4	generate/STIM_017.jpg
3002.752	1.431	1	generate	Run4	generate/STIM_018.jpg
3007.43	2.172	1	generate	Run4	generate/STIM_018.jpg
3013.143	1.792	1	generate	Run4	generate/STIM_018.jpg
3017.87	1.766	1	generate	Run4	generate/STIM_018.jpg
3022.784	2.156	1	generate	Run4	generate/STIM_018.jpg
3027.614	1.441	0	generate	Run4	generate/STIM_019.jpg
3032.19	2.163	1	generate	Run4	generate/STIM_019.jpg
3036.106	2.313	1	generate	Run4	generate/STIM_019.jpg
3041.265	1.229	1	generate	Run4	generate/STIM_019.jpg
3044.381	1.863	1	generate	Run4	generate/STIM_019.jpg
3048.061	1.66	1	generate	Run4	generate/STIM_020.jpg
3051.939	1.561	1	generate	Run4	generate/STIM_020.jpg
3056.173	2.402	1	generate	Run4	generate/STIM_020.jpg
3061.855	1.343	1	generate	Run4	generate/STIM_020.jpg
3066.132	1.645	1	generate	Run4	generate/STIM_020.jpg
3070.518	1.801	1	generate	Run4	generate/STIM_021.jpg
3074.511	1.243	1	generate	Run4	generate/STIM_021.jpg
3078.262	1.005	1	generate	Run4	generate/STIM_021.jpg
3082.551	1.978	1	generate	Run4	generate/STIM_021.jpg
3088.268	2.41	0	generate	Run4	generate/STIM_021.jpg
3092.441	1.791	1	generate	Run4	generate/STIM_022.jpg
3097.808	2.032	1	generate	Run4	generate/STIM_022.jpg
3102.846	2.293	1	generate	Run4	generate/STIM_022.jpg
3107.015	1.612	1	generate	Run4	generate/STIM_022.jpg
3110.624	1.314	1	generate	Run4	generate/STIM_022.jpg
3114.938	1.102	1	generate	Run4	generate/STIM_023.jpg
3118.399	2.314	1	generate	Run4	generate/STIM_023.jpg
3123.322	2.078	1	generate	Run4	generate/STIM_023.jpg
3128.976	1.126	1	generate	Run4	generate/STIM_023.jpg
3133.401	1.188	1	generate	Run4	generate/STIM_023.jpg
3137.678	1.692	1	generate	Run4	generate/STIM_024.jpg
3141.78	2.005	1	generate	Run4	generate/STIM_024.jpg
3147.307	1.788	1	generate	Run4	generate/STIM_024.jpg
3152.088	2.361	1	generate	Run4	generate/STIM_024.jpg
3156.258	2.034	1	generate	Run4	generate/STIM_024.jpg
3160.599	0.639	1	repeat	Run4	repeat/STIM_000.jpg
3164.533	0.697	1	repeat	Run4	repeat/STIM_000.jpg
3168.621	0.599	1	repeat	Run4	repeat/STIM_000.jpg
3172.952	0.766	1	repeat	Run4	repeat/STIM_000.jpg
3177.214	0.809	1	repeat	Run4	repeat/STIM_000.jpg
3180.478	0.667	1	repeat	Run4	repeat/STIM_001.jpg
3184.195	0.957	1	repeat	Run4	repeat/STIM_001.jpg
3188.371	0.973	1	repeat	Run4	repeat/STIM_001.jpg
3192.334	0.872	1	repeat	Run4	repeat/STIM_001.jpg
3196.962	0.807	1	repeat	Run4	repeat/STIM_001.jpg
3200.039	1.064	1	repeat	Run4	repeat/STIM_002.jpg
3204.663	0.871	1	repeat	Run4	repeat/STIM_002.jpg
3209.116	0.822	0	repeat	Run4	repeat/STIM_002.jpg
3212.021	0.796	1	repeat	Run4	repeat/STIM_002.jpg
3215.098	0.856	1	repeat	Run4	repeat/STIM_002.jpg
3218.738	0.628	1	repeat	Run4	repeat/STIM_003.jpg
3222.22	0.602	1	repeat	Run4	repeat/STIM_003.jpg
3226.478	0.958	1	repeat	Run4	repeat/STIM_003.jpg
3229.792	1.019	1	repeat	Run4	repeat/STIM_003.jpg
3234.348	0.871	0	repeat	Run4	repeat/STIM_003.jpg
3238.408	0.598	1	repeat	Run4	repeat/STIM_004.jpg
3241.631	0.808	1	repeat	Run4	repeat/STIM_004.jpg
3245.847	1.025	1	repeat	Run4	repeat/STIM_004.jpg
3250.337	0.744	1	repeat	Run4	repeat/STIM_004.jpg
3253.152	0.776	1	repeat	Run4	repeat/STIM_004.jpg
3256.605	0.705	1	repeat	Run4	repeat/STIM_005.jpg
3259.492	0.926	1	repeat	Run4	repeat/STIM_005.jpg
3262.46	0.853	1	repeat	Run4	repeat/STIM_005.jpg
3267.128	1.033	1	repeat	Run4	repeat/STIM_005.jpg
3270.797	1.084	1	repeat	Run4	repeat/STIM_005.jpg
3275.707	0.744	1	repeat	Run4	repeat/STIM_006.jpg
3278.88	0.836	1	repeat	Run4	repeat/STIM_006.jpg
3283.197	0.683	1	repeat	Run4	repeat/STIM_006.jpg
3287.461	1.071	1	repeat	Run4	repeat/STIM_006.jpg
3292.012	0.953	1	repeat	Run4	repeat/STIM_006.jpg
3296.532	1.109	1	repeat	Run4	repeat/STIM_007.jpg
3299.967	0.651	1	repeat	Run4	repeat/STIM_007.jpg
3302.903	0.94	1	repeat	Run4	repeat/STIM_007.jpg
3305.754	0.813	1	repeat	Run4	repeat/STIM_007.jpg
3308.926	1.066	1	repeat	Run4	repeat/STIM_007.jpg
3312.95	0.951	1	repeat	Run4	repeat/STIM_008.jpg
3316.76	0.745	0	repeat	Run4	repeat/STIM_008.jpg
3320.938	0.605	1	repeat	Run4	repeat/STIM_008.jpg
3323.517	1.139	1	repeat	Run4	repeat/STIM_008.jpg
3327.678	1.072	1	repeat	Run4	repeat/STIM_008.jpg
3331.584	0.994	1	repeat	Run4	repeat/STIM_009.jpg
3334.489	1.123	1	repeat	Run4	repeat/STIM_009.jpg
3339.413	0.793	1	repeat	Run4	repeat/STIM_009.jpg
3342.368	0.915	1	repeat	Run4	repeat/STIM_009.jpg
3345.89	0.603	1	repeat	Run4	repeat/STIM_009.jpg
3349.074	0.7	1	repeat	Run4	repeat/STIM_010.jpg
3351.981	0.614	1	repeat	Run4	repeat/STIM_010.jpg
3356.404	0.776	1	repeat	Run4	repeat/STIM_010.jpg
3360.721	0.661	1	repeat	Run4	repeat/STIM_010.jpg
3364.016	0.874	1	repeat	Run4	repeat/STIM_010.jpg
3368.686	0.921	1	repeat	Run4	repeat/STIM_011.jpg
3371.776	0.688	1	repeat	Run4	repeat/STIM_011.jpg
3374.828	1.0	1	repeat	Run4	repeat/STIM_011.jpg
3378.816	0.69	1	repeat	Run4	repeat/STIM_011.jpg
3381.958	0.908	1	repeat	Run4	repeat/STIM_011.jpg
3385.758	0.78	1	repeat	Run4	repeat/STIM_012.jpg
3389.459	0.987	1	repeat	Run4	repeat/STIM_012.jpg
3392.813	0.665	1	repeat	Run4	repeat/STIM_012.jpg
3396.81	0.831	1	repeat	Run4	repeat/STIM_012.jpg
3399.745	0.967	1	repeat	Run4	repeat/STIM_012.jpg
3403.063	0.635	1	repeat	Run4	repeat/STIM_013.jpg
3406.493	0.761	1	repeat	Run4	repeat/STIM_013.jpg
3409.181	0.586	1	repeat	Run4	repeat/STIM_013.jpg
3411.692	1.148	1	repeat	Run4	repeat/STIM_013.jpg
3414.834	0.998	1	repeat	Run4	repeat/STIM_013.jpg
3418.28	0.874	1	repeat	Run4	repeat/STIM_014.jpg
3421.171	1.029	1	repeat	Run4	repeat/STIM_014.jpg
3425.065	0.661	1	repeat	Run4	repeat/STIM_014.jpg
3429.349	0.714	1	repeat	Run4	repeat/STIM_014.jpg
3433.194	0.968	1	repeat	Run4	repeat/STIM_014.jpg
