onset	duration	accuracy_binary	trial_type	learning_stage	stimulus
0.0	3.668	1	navigation	Trial1	navigation/STIM_000.jpg
7.029	2.013	0	navigation	Trial1	navigation/STIM_000.jpg
12.417	4.104	0	navigation	Trial1	navigation/STIM_000.jpg
19.059	3.505	1	navigation	Trial1	navigation/STIM_000.jpg
26.097	1.783	1	navigation	Trial1	navigation/STIM_000.jpg
30.857	1.645	0	navigation	Trial1	navigation/STIM_000.jpg
35.284	2.382	0	navigation	Trial1	navigation/STIM_001.jpg
39.978	2.265	1	navigation	Trial1	navigation/STIM_001.jpg
44.596	4.567	0	navigation	Trial1	navigation/STIM_001.jpg
51.648	3.445	0	navigation	Trial1	navigation/STIM_001.jpg
57.149	2.671	0	navigation	Trial1	navigation/STIM_001.jpg
63.526	2.315	1	navigation	Trial1	navigation/STIM_001.jpg
69.658	3.156	1	navigation	Trial1	navigation/STIM_002.jpg
75.517	3.176	1	navigation	Trial1	navigation/STIM_002.jpg
81.657	2.729	1	navigation	Trial1	navigation/STIM_002.jpg
86.998	3.583	0	navigation	Trial1	navigation/STIM_002.jpg
93.385	4.0	1	navigation	Trial1	navigation/STIM_002.jpg
99.779	3.009	0	navigation	Trial1	navigation/STIM_002.jpg
106.466	4.25	1	navigation	Trial1	navigation/STIM_003.jpg
113.611	3.186	1	navigation	Trial1	navigation/STIM_003.jpg
120.482	4.488	1	navigation	Trial1	navigation/STIM_003.jpg
128.125	2.523	1	navigation	Trial1	navigation/STIM_003.jpg
133.248	4.022	1	navigation	Trial1	navigation/STIM_003.jpg
140.39	2.166	1	navigation	Trial1	navigation/STIM_003.jpg
145.602	3.588	0	navigation	Trial1	navigation/STIM_004.jpg
152.439	2.956	1	navigation	Trial1	navigation/STIM_004.jpg
158.489	4.398	1	navigation	Trial1	navigation/STIM_004.jpg
165.275	2.965	1	navigation	Trial1	navigation/STIM_004.jpg
170.375	1.771	1	navigation	Trial1	navigation/STIM_004.jpg
174.651	1.884	1	navigation	Trial1	navigation/STIM_004.jpg
179.808	3.998	0	navigation	Trial1	navigation/STIM_005.jpg
186.935	2.302	0	navigation	Trial1	navigation/STIM_005.jpg
193.05	2.778	1	navigation	Trial1	navigation/STIM_005.jpg
198.187	3.161	1	navigation	Trial1	navigation/STIM_005.jpg
205.213	2.026	1	navigation	Trial1	navigation/STIM_005.jpg
210.147	2.132	1	navigation	Trial1	navigation/STIM_005.jpg
215.08	5.07	1	navigation	Trial1	navigation/STIM_006.jpg
222.302	3.817	1	navigation	Trial1	navigation/STIM_006.jpg
228.663	2.313	1	navigation	Trial1	navigation/STIM_006.jpg
234.719	2.513	1	navigation	Trial1	navigation/STIM_006.jpg
240.876	3.77	1	navigation	Trial1	navigation/STIM_006.jpg
247.846	2.626	1	navigation	Trial1	navigation/STIM_006.jpg
253.378	2.252	1	navigation	Trial1	navigation/STIM_007.jpg
257.902	3.53	1	navigation	Trial1	navigation/STIM_007.jpg
265.099	3.995	0	navigation	Trial1	navigation/STIM_007.jpg
272.581	2.164	1	navigation	Trial1	navigation/STIM_007.jpg
277.331	2.88	1	navigation	Trial1	navigation/STIM_007.jpg
283.234	2.379	0	navigation	Trial1	navigation/STIM_007.jpg
287.64	2.341	0	navigation	Trial1	navigation/STIM_008.jpg
292.913	4.622	0	navigation	Trial1	navigation/STIM_008.jpg
300.896	2.868	1	navigation	Trial1	navigation/STIM_008.jpg
306.876	2.57	0	navigation	Trial1	navigation/STIM_008.jpg
312.994	3.891	0	navigation	Trial1	navigation/STIM_008.jpg
320.383	3.036	1	navigation	Trial1	navigation/STIM_008.jpg
326.185	2.69	1	navigation	Trial1	navigation/STIM_009.jpg
332.758	2.622	1	navigation	Trial1	navigation/STIM_009.jpg
338.116	2.564	1	navigation	Trial1	navigation/STIM_009.jpg
342.649	4.164	1	navigation	Trial1	navigation/STIM_009.jpg
349.952	3.594	1	navigation	Trial1	navigation/STIM_009.jpg
355.567	3.143	1	navigation	Trial1	navigation/STIM_009.jpg
360.68	4.884	1	navigation	Trial1	navigation/STIM_010.jpg
367.47	3.505	1	navigation	Trial1	navigation/STIM_010.jpg
373.599	2.324	1	navigation	Trial1	navigation/STIM_010.jpg
379.48	2.106	0	navigation	Trial1	navigation/STIM_010.jpg
383.795	3.355	1	navigation	Trial1	navigation/STIM_010.jpg
389.462	2.979	1	navigation	Trial1	navigation/STIM_010.jpg
396.103	5.01	1	navigation	Trial1	navigation/STIM_011.jpg
404.908	4.765	1	navigation	Trial1	navigation/STIM_011.jpg
413.443	3.197	1	navigation	Trial1	navigation/STIM_011.jpg
419.792	2.297	0	navigation	Trial1	navigation/STIM_011.jpg
424.257	2.724	1	navigation	Trial1	navigation/STIM_011.jpg
429.91	2.395	1	navigation	Trial1	navigation/STIM_011.jpg
435.036	1.293	1	pointing	Trial1	pointing/STIM_000.jpg
439.794	0.988	1	pointing	Trial1	pointing/STIM_000.jpg
444.329	1.133	1	pointing	Trial1	pointing/STIM_000.jpg
447.966	0.866	1	pointing	Trial1	pointing/STIM_000.jpg
452.532	1.459	1	pointing	Trial1	pointing/STIM_000.jpg
457.007	1.302	1	pointing	Trial1	pointing/STIM_000.jpg
460.678	1.442	1	pointing	Trial1	pointing/STIM_001.jpg
465.85	1.4	1	pointing	Trial1	pointing/STIM_001.jpg
470.476	0.947	1	pointing	Trial1	pointing/STIM_001.jpg
474.525	1.167	1	pointing	Trial1	pointing/STIM_001.jpg
478.965	1.506	1	pointing	Trial1	pointing/STIM_001.jpg
483.694	0.968	1	pointing	Trial1	pointing/STIM_001.jpg
488.585	1.102	1	pointing	Trial1	pointing/STIM_002.jpg
493.115	1.432	1	pointing	Trial1	pointing/STIM_002.jpg
498.434	1.403	1	pointing	Trial1	pointing/STIM_002.jpg
503.228	1.434	0	pointing	Trial1	pointing/STIM_002.jpg
507.636	1.142	1	pointing	Trial1	pointing/STIM_002.jpg
512.572	0.989	1	pointing	Trial1	pointing/STIM_002.jpg
515.815	0.993	1	pointing	Trial1	pointing/STIM_003.jpg
519.924	0.968	1	pointing	Trial1	pointing/STIM_003.jpg
523.973	1.409	1	pointing	Trial1	pointing/STIM_003.jpg
527.713	1.211	1	pointing	Trial1	pointing/STIM_003.jpg
531.97	1.218	1	pointing	Trial1	pointing/STIM_003.jpg
535.682	1.071	1	pointing	Trial1	pointing/STIM_003.jpg
539.926	1.196	1	pointing	Trial1	pointing/STIM_004.jpg
543.863	1.295	1	pointing	Trial1	pointing/STIM_004.jpg
548.365	1.076	1	pointing	Trial1	pointing/STIM_004.jpg
553.227	0.957	1	pointing	Trial1	pointing/STIM_004.jpg
556.332	1.35	1	pointing	Trial1	pointing/STIM_004.jpg
559.751	1.078	1	pointing	Trial1	pointing/STIM_004.jpg
563.495	1.032	1	pointing	Trial1	pointing/STIM_005.jpg
568.306	1.22	1	pointing	Trial1	pointing/STIM_005.jpg
572.176	1.238	1	pointing	Trial1	pointing/STIM_005.jpg
575.73	1.417	1	pointing	Trial1	pointing/STIM_005.jpg
581.11	0.9	1	pointing	Trial1	pointing/STIM_005.jpg
584.987	1.035	0	pointing	Trial1	pointing/STIM_005.jpg
589.261	0.892	1	pointing	Trial1	pointing/STIM_006.jpg
592.65	0.878	1	pointing	Trial1	pointing/STIM_006.jpg
597.148	0.98	1	pointing	Trial1	pointing/STIM_006.jpg
601.77	1.294	1	pointing	Trial1	pointing/STIM_006.jpg
606.236	1.367	1	pointing	Trial1	pointing/STIM_006.jpg
611.129	1.178	1	pointing	Trial1	pointing/STIM_006.jpg
614.491	1.212	1	pointing	Trial1	pointing/STIM_007.jpg
618.99	1.196	1	pointing	Trial1	pointing/STIM_007.jpg
623.134	0.979	1	pointing	Trial1	pointing/STIM_007.jpg
626.986	1.254	1	pointing	Trial1	pointing/STIM_007.jpg
631.935	1.129	1	pointing	Trial1	pointing/STIM_007.jpg
636.538	1.271	0	pointing	Trial1	pointing/STIM_007.jpg
640.1	1.385	1	pointing	Trial1	pointing/STIM_008.jpg
644.417	0.941	1	pointing	Trial1	pointing/STIM_008.jpg
648.852	1.062	1	pointing	Trial1	pointing/STIM_008.jpg
653.225	1.337	1	pointing	Trial1	pointing/STIM_008.jpg
658.368	1.068	1	pointing	Trial1	pointing/STIM_008.jpg
662.801	1.131	1	pointing	Trial1	pointing/STIM_008.jpg
667.439	1.318	1	pointing	Trial1	pointing/STIM_009.jpg
671.903	1.077	1	pointing	Trial1	pointing/STIM_009.jpg
675.497	1.148	1	pointing	Trial1	pointing/STIM_009.jpg
679.01	1.076	1	pointing	Trial1	pointing/STIM_009.jpg
682.588	0.993	1	pointing	Trial1	pointing/STIM_009.jpg
686.35	1.027	1	pointing	Trial1	pointing/STIM_009.jpg
690.137	1.329	1	pointing	Trial1	pointing/STIM_010.jpg
694.642	1.051	1	pointing	Trial1	pointing/STIM_010.jpg
698.639	0.917	1	pointing	Trial1	pointing/STIM_010.jpg
701.895	0.986	1	pointing	Trial1	pointing/STIM_010.jpg
705.76	1.279	1	pointing	Trial1	pointing/STIM_010.jpg
710.78	1.099	1	pointing	Trial1	pointing/STIM_010.jpg
715.086	0.906	0	pointing	Trial1	pointing/STIM_011.jpg
719.463	1.203	1	pointing	Trial1	pointing/STIM_011.jpg
724.499	1.01	1	pointing	Trial1	pointing/STIM_011.jpg
728.384	1.096	0	pointing	Trial1	pointing/STIM_011.jpg
733.269	1.493	1	pointing	Trial1	pointing/STIM_011.jpg
737.94	1.432	1	pointing	Trial1	pointing/STIM_011.jpg
742.525	2.081	0	navigation	Trial2	navigation/STIM_000.jpg
748.244	3.43	1	navigation	Trial2	navigation/STIM_000.jpg
755.29	3.178	0	navigation	Trial2	navigation/STIM_000.jpg
762.017	2.646	1	navigation	Trial2	navigation/STIM_000.jpg
766.688	3.126	1	navigation	Trial2	navigation/STIM_000.jpg
772.855	3.388	1	navigation	Trial2	navigation/STIM_000.jpg
779.956	3.967	0	navigation	Trial2	navigation/STIM_001.jpg
786.775	3.662	1	navigation	Trial2	navigation/STIM_001.jpg
792.947	3.111	1	navigation	Trial2	navigation/STIM_001.jpg
798.063	1.578	1	navigation	Trial2	navigation/STIM_001.jpg
803.497	2.941	1	navigation	Trial2	navigation/STIM_001.jpg
809.562	2.32	0	navigation	Trial2	navigation/STIM_001.jpg
814.849	2.667	1	navigation	Trial2	navigation/STIM_002.jpg
819.676	2.184	1	navigation	Trial2	navigation/STIM_002.jpg
824.073	2.328	1	navigation	Trial2	navigation/STIM_002.jpg
828.982	1.67	1	navigation	Trial2	navigation/STIM_002.jpg
834.559	2.175	1	navigation	Trial2	navigation/STIM_002.jpg
840.58	1.7	1	navigation	Trial2	navigation/STIM_002.jpg
845.299	4.251	0	navigation	Trial2	navigation/STIM_003.jpg
852.693	2.279	1	navigation	Trial2	navigation/STIM_003.jpg
857.474	3.318	1	navigation	Trial2	navigation/STIM_003.jpg
864.632	3.497	1	navigation	Trial2	navigation/STIM_003.jpg
870.82	2.842	1	navigation	Trial2	navigation/STIM_003.jpg
877.242	2.376	0	navigation	Trial2	navigation/STIM_003.jpg
881.816	2.837	0	navigation	Trial2	navigation/STIM_004.jpg
888.547	2.814	1	navigation	Trial2	navigation/STIM_004.jpg
893.763	3.306	1	navigation	Trial2	navigation/STIM_004.jpg
900.434	2.426	1	navigation	Trial2	navigation/STIM_004.jpg
906.502	3.132	0	navigation	Trial2	navigation/STIM_004.jpg
913.186	2.081	1	navigation	Trial2	navigation/STIM_004.jpg
918.53	3.927	1	navigation	Trial2	navigation/STIM_005.jpg
926.213	2.801	1	navigation	Trial2	navigation/STIM_005.jpg
931.058	3.52	0	navigation	Trial2	navigation/STIM_005.jpg
936.6	1.848	1	navigation	Trial2	navigation/STIM_005.jpg
941.648	1.947	1	navigation	Trial2	navigation/STIM_005.jpg
947.426	2.471	0	navigation	Trial2	navigation/STIM_005.jpg
952.552	4.065	1	navigation	Trial2	navigation/STIM_006.jpg
959.974	3.321	1	navigation	Trial2	navigation/STIM_006.jpg
965.905	1.587	0	navigation	Trial2	navigation/STIM_006.jpg
970.507	2.611	0	navigation	Trial2	navigation/STIM_006.jpg
975.525	3.099	1	navigation	Trial2	navigation/STIM_006.jpg
982.399	2.029	1	navigation	Trial2	navigation/STIM_006.jpg
987.429	3.733	0	navigation	Trial2	navigation/STIM_007.jpg
993.314	3.453	1	navigation	Trial2	navigation/STIM_007.jpg
999.228	3.042	1	navigation	Trial2	navigation/STIM_007.jpg
1004.673	2.81	1	navigation	Trial2	navigation/STIM_007.jpg
1010.565	3.264	1	navigation	Trial2	navigation/STIM_007.jpg
1017.693	1.663	0	navigation	Trial2	navigation/STIM_007.jpg
1022.807	3.644	0	navigation	Trial2	navigation/STIM_008.jpg
1029.152	2.884	1	navigation	Trial2	navigation/STIM_008.jpg
1035.563	2.798	1	navigation	Trial2	navigation/STIM_008.jpg
1041.111	3.038	1	navigation	Trial2	navigation/STIM_008.jpg
1046.595	1.968	1	navigation	Trial2	navigation/STIM_008.jpg
1051.796	2.952	0	navigation	Trial2	navigation/STIM_008.jpg
1057.915	2.947	0	navigation	Trial2	navigation/STIM_009.jpg
1063.203	1.818	1	navigation	Trial2	navigation/STIM_009.jpg
1068.072	2.967	1	navigation	Trial2	navigation/STIM_009.jpg
1073.562	2.417	1	navigation	Trial2	navigation/STIM_009.jpg
1079.844	2.563	1	navigation	Trial2	navigation/STIM_009.jpg
1086.105	3.504	1	navigation	Trial2	navigation/STIM_009.jpg
1092.102	2.832	1	navigation	Trial2	navigation/STIM_010.jpg
1097.974	3.783	1	navigation	Trial2	navigation/STIM_010.jpg
1104.384	1.547	1	navigation	Trial2	navigation/STIM_010.jpg
1108.298	2.214	0	navigation	Trial2	navigation/STIM_010.jpg
1113.893	1.672	1	navigation	Trial2	navigation/STIM_010.jpg
1117.696	2.268	1	navigation	Trial2	navigation/STIM_010.jpg
1122.344	3.397	0	navigation	Trial2	navigation/STIM_011.jpg
1127.993	3.756	1	navigation	Trial2	navigation/STIM_011.jpg
1134.408	3.138	1	navigation	Trial2	navigation/STIM_011.jpg
1140.514	1.723	1	navigation	Trial2	navigation/STIM_011.jpg
1144.871	3.276	1	navigation	Trial2	navigation/STIM_011.jpg
1151.197	3.34	1	navigation	Trial2	navigation/STIM_011.jpg
1156.748	1.464	1	pointing	Trial2	pointing/STIM_000.jpg
1162.018	0.835	0	pointing	Trial2	pointing/STIM_000.jpg
1165.554	0.817	1	pointing	Trial2	pointing/STIM_000.jpg
1169.629	0.946	1	pointing	Trial2	pointing/STIM_000.jpg
1174.422	1.43	1	pointing	Trial2	pointing/STIM_000.jpg
1178.645	1.508	1	pointing	Trial2	pointing/STIM_000.jpg
1183.522	0.854	1	pointing	Trial2	pointing/STIM_001.jpg
1187.233	1.095	1	pointing	Trial2	pointing/STIM_001.jpg
1190.589	0.926	1	pointing	Trial2	pointing/STIM_001.jpg
1194.831	1.271	1	pointing	Trial2	pointing/STIM_001.jpg
1199.443	1.26	1	pointing	Trial2	pointing/STIM_001.jpg
1203.853	1.513	1	pointing	Trial2	pointing/STIM_001.jpg
1207.604	0.911	1	pointing	Trial2	pointing/STIM_002.jpg
1212.287	0.911	1	pointing	Trial2	pointing/STIM_002.jpg
1216.888	1.443	1	pointing	Trial2	pointing/STIM_002.jpg
1220.953	1.503	1	pointing	Trial2	pointing/STIM_002.jpg
1224.455	1.341	1	pointing	Trial2	pointing/STIM_002.jpg
1227.963	0.864	1	pointing	Trial2	pointing/STIM_002.jpg
1232.29	1.231	1	pointing	Trial2	pointing/STIM_003.jpg
1236.86	0.872	1	pointing	Trial2	pointing/STIM_003.jpg
1240.403	1.078	1	pointing	Trial2	pointing/STIM_003.jpg
1244.892	1.257	1	pointing	Trial2	pointing/STIM_003.jpg
1249.221	1.222	1	pointing	Trial2	pointing/STIM_003.jpg
1254.325	1.392	1	pointing	Trial2	pointing/STIM_003.jpg
1258.015	1.427	1	pointing	Trial2	pointing/STIM_004.jpg
1261.78	0.863	1	pointing	Trial2	pointing/STIM_004.jpg
1266.31	0.852	1	pointing	Trial2	pointing/STIM_004.jpg
1270.122	1.054	1	pointing	Trial2	pointing/STIM_004.jpg
1273.429	1.464	1	pointing	Trial2	pointing/STIM_004.jpg
1278.739	1.292	1	pointing	Trial2	pointing/STIM_004.jpg
1282.951	1.217	1	pointing	Trial2	pointing/STIM_005.jpg
1287.174	1.528	1	pointing	Trial2	pointing/STIM_005.jpg
1291.471	1.334	1	pointing	Trial2	pointing/STIM_005.jpg
1295.974	1.05	1	pointing	Trial2	pointing/STIM_005.jpg
1300.642	0.963	1	pointing	Trial2	pointing/STIM_005.jpg
1304.232	1.014	1	pointing	Trial2	pointing/STIM_005.jpg
1308.667	1.402	1	pointing	Trial2	pointing/STIM_006.jpg
1312.129	0.95	1	pointing	Trial2	pointing/STIM_006.jpg
1315.198	1.25	1	pointing	Trial2	pointing/STIM_006.jpg
1320.388	1.282	1	pointing	Trial2	pointing/STIM_006.jpg
1324.855	1.135	1	pointing	Trial2	pointing/STIM_006.jpg
1329.191	1.501	1	pointing	Trial2	pointing/STIM_006.jpg
1332.792	1.455	1	pointing	Trial2	pointing/STIM_007.jpg
1337.842	0.999	1	pointing	Trial2	pointing/STIM_007.jpg
1342.033	1.36	1	pointing	Trial2	pointing/STIM_007.jpg
1346.615	1.274	1	pointing	Trial2	pointing/STIM_007.jpg
1351.412	1.128	1	pointing	Trial2	pointing/STIM_007.jpg
1354.728	1.46	1	pointing	Trial2	pointing/STIM_007.jpg
1359.835	0.983	1	pointing	Trial2	pointing/STIM_008.jpg
1363.833	1.054	1	pointing	Trial2	pointing/STIM_008.jpg
1366.945	1.054	1	pointing	Trial2	pointing/STIM_008.jpg
1371.746	1.294	0	pointing	Trial2	pointing/STIM_008.jpg
1375.06	1.363	1	pointing	Trial2	pointing/STIM_008.jpg
1379.099	1.48	1	pointing	Trial2	pointing/STIM_008.jpg
1383.019	1.459	1	pointing	Trial2	pointing/STIM_009.jpg
1388.352	1.048	0	pointing	Trial2	pointing/STIM_009.jpg
1391.409	1.03	1	pointing	Trial2	pointing/STIM_009.jpg
1396.149	1.17	1	pointing	Trial2	pointing/STIM_009.jpg
1400.399	1.329	1	pointing	Trial2	pointing/STIM_009.jpg
1404.122	1.49	1	pointing	Trial2	pointing/STIM_009.jpg
1407.966	1.124	0	pointing	Trial2	pointing/STIM_010.jpg
1411.485	1.19	1	pointing	Trial2	pointing/STIM_010.jpg
1416.444	0.856	0	pointing	Trial2	pointing/STIM_010.jpg
1419.853	0.925	1	pointing	Trial2	pointing/STIM_010.jpg
1424.651	1.322	1	pointing	Trial2	pointing/STIM_010.jpg
1429.94	1.512	1	pointing	Trial2	pointing/STIM_010.jpg
1435.217	1.499	1	pointing	Trial2	pointing/STIM_011.jpg
1438.729	1.226	0	pointing	Trial2	pointing/STIM_011.jpg
1442.77	1.12	1	pointing	Trial2	pointing/STIM_011.jpg
1447.756	1.37	1	pointing	Trial2	pointing/STIM_011.jpg
1451.894	1.163	1	pointing	Trial2	pointing/STIM_011.jpg
1456.078	1.015	1	pointing	Trial2	pointing/STIM_011.jpg
1460.244	3.206	1	navigation	Trial3	navigation/STIM_000.jpg
1466.441	1.882	1	navigation	Trial3	navigation/STIM_000.jpg
1471.912	3.046	1	navigation	Trial3	navigation/STIM_000.jpg
1477.827	2.238	1	navigation	Trial3	navigation/STIM_000.jpg
1483.79	2.238	1	navigation	Trial3	navigation/STIM_000.jpg
1489.532	3.255	1	navigation	Trial3	navigation/STIM_000.jpg
1494.953	1.795	1	navigation	Trial3	navigation/STIM_001.jpg
1498.816	2.532	0	navigation	Trial3	navigation/STIM_001.jpg
1503.804	3.324	1	navigation	Trial3	navigation/STIM_001.jpg
1510.288	1.518	1	navigation	Trial3	navigation/STIM_001.jpg
1515.122	1.699	1	navigation	Trial3	navigation/STIM_001.jpg
1519.745	3.009	1	navigation	Trial3	navigation/STIM_001.jpg
1525.062	3.435	1	navigation	Trial3	navigation/STIM_002.jpg
1531.029	1.978	1	navigation	Trial3	navigation/STIM_002.jpg
1536.559	2.052	1	navigation	Trial3	navigation/STIM_002.jpg
1542.354	1.679	1	navigation	Trial3	navigation/STIM_002.jpg
1546.898	2.715	1	navigation	Trial3	navigation/STIM_002.jpg
1553.342	2.999	1	navigation	Trial3	navigation/STIM_002.jpg
1559.993	1.872	1	navigation	Trial3	navigation/STIM_003.jpg
1565.246	3.516	1	navigation	Trial3	navigation/STIM_003.jpg
1570.93	2.76	1	navigation	Trial3	navigation/STIM_003.jpg
1575.708	3.303	0	navigation	Trial3	navigation/STIM_003.jpg
1581.9	2.214	1	navigation	Trial3	navigation/STIM_003.jpg
1586.611	1.516	1	navigation	Trial3	navigation/STIM_003.jpg
1590.662	2.045	1	navigation	Trial3	navigation/STIM_004.jpg
1596.492	3.381	1	navigation	Trial3	navigation/STIM_004.jpg
1602.207	3.488	1	navigation	Trial3	navigation/STIM_004.jpg
1608.879	2.307	1	navigation	Trial3	navigation/STIM_004.jpg
1613.889	3.248	1	navigation	Trial3	navigation/STIM_004.jpg
1620.927	3.505	1	navigation	Trial3	navigation/STIM_004.jpg
1627.877	2.008	1	navigation	Trial3	navigation/STIM_005.jpg
1633.174	1.827	1	navigation	Trial3	navigation/STIM_005.jpg
1638.918	2.957	1	navigation	Trial3	navigation/STIM_005.jpg
1645.271	3.167	0	navigation	Trial3	navigation/STIM_005.jpg
1652.325	1.479	1	navigation	Trial3	navigation/STIM_005.jpg
1656.565	2.561	1	navigation	Trial3	navigation/STIM_005.jpg
1661.491	2.176	1	navigation	Trial3	navigation/STIM_006.jpg
1667.238	2.077	1	navigation	Trial3	navigation/STIM_006.jpg
1672.701	3.28	1	navigation	Trial3	navigation/STIM_006.jpg
1679.711	1.731	1	navigation	Trial3	navigation/STIM_006.jpg
1685.335	1.878	1	navigation	Trial3	navigation/STIM_006.jpg
1691.151	2.754	1	navigation	Trial3	navigation/STIM_006.jpg
1695.882	3.198	1	navigation	Trial3	navigation/STIM_007.jpg
1702.436	2.072	1	navigation	Trial3	navigation/STIM_007.jpg
1708.281	1.692	1	navigation	Trial3	navigation/STIM_007.jpg
1713.376	2.778	1	navigation	Trial3	navigation/STIM_007.jpg
1719.196	2.812	1	navigation	Trial3	navigation/STIM_007.jpg
1725.913	1.975	1	navigation	Trial3	navigation/STIM_007.jpg
1731.078	2.802	1	navigation	Trial3	navigation/STIM_008.jpg
1737.111	2.961	1	navigation	Trial3	navigation/STIM_008.jpg
1743.384	3.359	1	navigation	Trial3	navigation/STIM_008.jpg
1748.803	1.929	1	navigation	Trial3	navigation/STIM_008.jpg
1752.789	1.959	1	navigation	Trial3	navigation/STIM_008.jpg
1757.503	2.869	1	navigation	Trial3	navigation/STIM_008.jpg
1763.711	1.443	1	navigation	Trial3	navigation/STIM_009.jpg
1768.192	2.129	1	navigation	Trial3	navigation/STIM_009.jpg
1773.443	2.003	1	navigation	Trial3	navigation/STIM_009.jpg
1778.76	2.76	1	navigation	Trial3	navigation/STIM_009.jpg
1783.529	3.011	1	navigation	Trial3	navigation/STIM_009.jpg
1789.322	2.132	1	navigation	Trial3	navigation/STIM_009.jpg
1794.255	1.691	1	navigation	Trial3	navigation/STIM_010.jpg
1798.482	3.109	1	navigation	Trial3	navigation/STIM_010.jpg
1804.943	2.152	1	navigation	Trial3	navigation/STIM_010.jpg
1809.445	2.352	1	navigation	Trial3	navigation/STIM_010.jpg
1814.248	1.972	1	navigation	Trial3	navigation/STIM_010.jpg
1819.322	2.95	1	navigation	Trial3	navigation/STIM_010.jpg
1825.793	3.172	1	navigation	Trial3	navigation/STIM_011.jpg
1831.063	2.591	1	navigation	Trial3	navigation/STIM_011.jpg
1835.66	2.027	1	navigation	Trial3	navigation/STIM_011.jpg
1839.648	2.412	1	navigation	Trial3	navigation/STIM_011.jpg
1844.071	2.077	1	navigation	Trial3	navigation/STIM_011.jpg
1849.411	2.59	1	navigation	Trial3	navigation/STIM_011.jpg
1855.013	0.949	0	pointing	Trial3	pointing/STIM_000.jpg
1859.936	1.494	1	pointing	Trial3	pointing/STIM_000.jpg
1864.96	1.014	1	pointing	Trial3	pointing/STIM_000.jpg
1868.573	1.268	1	pointing	Trial3	pointing/STIM_000.jpg
1873.598	1.16	1	pointing	Trial3	pointing/STIM_000.jpg
1878.052	0.97	1	pointing	Trial3	pointing/STIM_000.jpg
1881.93	1.348	1	pointing	Trial3	pointing/STIM_001.jpg
1885.995	1.472	1	pointing	Trial3	pointing/STIM_001.jpg
1891.164	1.218	1	pointing	Trial3	pointing/STIM_001.jpg
1896.23	0.872	1	pointing	Trial3	pointing/STIM_001.jpg
1899.772	1.1	1	pointing	Trial3	pointing/STIM_001.jpg
1904.607	0.934	1	pointing	Trial3	pointing/STIM_001.jpg
1907.886	0.894	1	pointing	Trial3	pointing/STIM_002.jpg
1910.946	1.377	0	pointing	Trial3	pointing/STIM_002.jpg
1915.76	0.827	1	pointing	Trial3	pointing/STIM_002.jpg
1920.485	1.454	1	pointing	Trial3	pointing/STIM_002.jpg
1925.86	1.116	1	pointing	Trial3	pointing/STIM_002.jpg
1930.023	1.243	1	pointing	Trial3	pointing/STIM_002.jpg
1934.061	1.354	1	pointing	Trial3	pointing/STIM_003.jpg
1937.663	0.921	1	pointing	Trial3	pointing/STIM_003.jpg
1941.308	1.442	0	pointing	Trial3	pointing/STIM_003.jpg
1945.932	1.463	1	pointing	Trial3	pointing/STIM_003.jpg
1949.707	1.109	1	pointing	Trial3	pointing/STIM_003.jpg
1954.445	1.023	1	pointing	Trial3	pointing/STIM_003.jpg
1957.898	1.072	1	pointing	Trial3	pointing/STIM_004.jpg
1962.848	1.299	1	pointing	Trial3	pointing/STIM_004.jpg
1966.807	1.21	1	pointing	Trial3	pointing/STIM_004.jpg
1971.918	1.164	1	pointing	Trial3	pointing/STIM_004.jpg
1976.715	0.86	1	pointing	Trial3	pointing/STIM_004.jpg
1980.116	1.292	1	pointing	Trial3	pointing/STIM_004.jpg
1984.954	1.398	1	pointing	Trial3	pointing/STIM_005.jpg
1989.675	1.218	1	pointing	Trial3	pointing/STIM_005.jpg
1993.4	1.483	1	pointing	Trial3	pointing/STIM_005.jpg
1996.964	1.328	1	pointing	Trial3	pointing/STIM_005.jpg
2001.728	1.369	1	pointing	Trial3	pointing/STIM_005.jpg
2006.569	0.88	1	pointing	Trial3	pointing/STIM_005.jpg
2010.294	0.916	1	pointing	Trial3	pointing/STIM_006.jpg
2014.834	1.315	0	pointing	Trial3	pointing/STIM_006.jpg
2019.707	1.259	0	pointing	Trial3	pointing/STIM_006.jpg
2023.433	0.99	1	pointing	Trial3	pointing/STIM_006.jpg
2026.838	1.476	1	pointing	Trial3	pointing/STIM_006.jpg
2031.408	1.356	1	pointing	Trial3	pointing/STIM_006.jpg
2035.673	1.063	1	pointing	Trial3	pointing/STIM_007.jpg
2040.675	1.008	1	pointing	Trial3	pointing/STIM_007.jpg
2045.01	1.467	1	pointing	Trial3	pointing/STIM_007.jpg
2050.367	0.977	1	pointing	Trial3	pointing/STIM_007.jpg
2053.93	0.988	1	pointing	Trial3	pointing/STIM_007.jpg
2058.845	1.336	1	pointing	Trial3	pointing/STIM_007.jpg
2063.369	1.439	1	pointing	Trial3	pointing/STIM_008.jpg
2067.68	1.092	1	pointing	Trial3	pointing/STIM_008.jpg
2071.173	1.361	1	pointing	Trial3	pointing/STIM_008.jpg
2075.618	1.345	1	pointing	Trial3	pointing/STIM_008.jpg
2078.975	1.177	1	pointing	Trial3	pointing/STIM_008.jpg
2083.967	1.462	1	pointing	Trial3	pointing/STIM_008.jpg
2088.303	1.008	1	pointing	Trial3	pointing/STIM_009.jpg
2093.188	0.918	1	pointing	Trial3	pointing/STIM_009.jpg
2096.643	1.111	1	pointing	Trial3	pointing/STIM_009.jpg
2101.038	0.969	1	pointing	Trial3	pointing/STIM_009.jpg
2104.988	1.115	1	pointing	Trial3	pointing/STIM_009.jpg
2108.904	1.264	1	pointing	Trial3	pointing/STIM_009.jpg
2112.533	1.107	1	pointing	Trial3	pointing/STIM_010.jpg
2115.699	1.357	1	pointing	Trial3	pointing/STIM_010.jpg
2120.827	1.444	1	pointing	Trial3	pointing/STIM_010.jpg
2124.729	1.044	1	pointing	Trial3	pointing/STIM_010.jpg
2127.959	1.463	1	pointing	Trial3	pointing/STIM_010.jpg
2132.069	1.518	1	pointing	Trial3	pointing/STIM_010.jpg
2135.785	1.284	1	pointing	Trial3	pointing/STIM_011.jpg
2139.556	1.154	1	pointing	Trial3	pointing/STIM_011.jpg
2143.868	1.284	1	pointing	Trial3	pointing/STIM_011.jpg
2147.14	1.32	1	pointing	Trial3	pointing/STIM_011.jpg
2152.374	0.987	1	pointing	Trial3	pointing/STIM_011.jpg
2156.869	0.82	1	pointing	Trial3	pointing/STIM_011.jpg
