onset	duration	response_time_ms	trial_type	learning_stage	stimulus	response_port
0.0	3.668	3668.4	navigation	Trial1	navigation/STIM_000.jpg	99
7.029	2.013	2012.9	navigation	Trial1	navigation/STIM_000.jpg	99
12.417	4.104	4104.0	navigation	Trial1	navigation/STIM_000.jpg	99
19.059	3.505	3504.7	navigation	Trial1	navigation/STIM_000.jpg	99
26.097	1.783	1783.1	navigation	Trial1	navigation/STIM_000.jpg	99
30.857	1.645	1644.9	navigation	Trial1	navigation/STIM_000.jpg	100
35.284	2.382	2382.5	navigation	Trial1	navigation/STIM_001.jpg	100
39.978	2.265	2265.3	navigation	Trial1	navigation/STIM_001.jpg	99
44.596	4.567	4567.3	navigation	Trial1	navigation/STIM_001.jpg	100
51.648	3.445	3444.8	navigation	Trial1	navigation/STIM_001.jpg	100
57.149	2.671	2671.4	navigation	Trial1	navigation/STIM_001.jpg	100
63.526	2.315	2314.6	navigation	Trial1	navigation/STIM_001.jpg	100
69.658	3.156	3155.9	navigation	Trial1	navigation/STIM_002.jpg	100
75.517	3.176	3176.4	navigation	Trial1	navigation/STIM_002.jpg	100
81.657	2.729	2729.3	navigation	Trial1	navigation/STIM_002.jpg	99
86.998	3.583	3582.6	navigation	Trial1	navigation/STIM_002.jpg	99
93.385	4.0	4000.5	navigation	Trial1	navigation/STIM_002.jpg	99
99.779	3.009	3009.0	navigation	Trial1	navigation/STIM_002.jpg	100
106.466	4.25	4249.6	navigation	Trial1	navigation/STIM_003.jpg	99
113.611	3.186	3186.2	navigation	Trial1	navigation/STIM_003.jpg	100
120.482	4.488	4487.9	navigation	Trial1	navigation/STIM_003.jpg	99
128.125	2.523	2522.8	navigation	Trial1	navigation/STIM_003.jpg	100
133.248	4.022	4022.4	navigation	Trial1	navigation/STIM_003.jpg	99
140.39	2.166	2166.3	navigation	Trial1	navigation/STIM_003.jpg	100
145.602	3.588	3587.9	navigation	Trial1	navigation/STIM_004.jpg	100
152.439	2.956	2955.5	navigation	Trial1	navigation/STIM_004.jpg	100
158.489	4.398	4398.3	navigation	Trial1	navigation/STIM_004.jpg	100
165.275	2.965	2965.1	navigation	Trial1	navigation/STIM_004.jpg	99
170.375	1.771	1771.3	navigation	Trial1	navigation/STIM_004.jpg	99
174.651	1.884	1883.8	navigation	Trial1	navigation/STIM_004.jpg	99
179.808	3.998	3997.6	navigation	Trial1	navigation/STIM_005.jpg	100
186.935	2.302	2302.1	navigation	Trial1	navigation/STIM_005.jpg	100
193.05	2.778	2778.0	navigation	Trial1	navigation/STIM_005.jpg	99
198.187	3.161	3160.7	navigation	Trial1	navigation/STIM_005.jpg	100
205.213	2.026	2025.9	navigation	Trial1	navigation/STIM_005.jpg	99
210.147	2.132	2131.8	navigation	Trial1	navigation/STIM_005.jpg	99
215.08	5.07	5070.2	navigation	Trial1	navigation/STIM_006.jpg	100
222.302	3.817	3816.8	navigation	Trial1	navigation/STIM_006.jpg	100
228.663	2.313	2313.4	navigation	Trial1	navigation/STIM_006.jpg	99
234.719	2.513	2512.9	navigation	Trial1	navigation/STIM_006.jpg	99
240.876	3.77	3769.5	navigation	Trial1	navigation/STIM_006.jpg	99
247.846	2.626	2626.2	navigation	Trial1	navigation/STIM_006.jpg	99
253.378	2.252	2252.1	navigation	Trial1	navigation/STIM_007.jpg	99
257.902	3.53	3529.7	navigation	Trial1	navigation/STIM_007.jpg	99
265.099	3.995	3994.7	navigation	Trial1	navigation/STIM_007.jpg	99
272.581	2.164	2164.1	navigation	Trial1	navigation/STIM_007.jpg	99
277.331	2.88	2879.9	navigation	Trial1	navigation/STIM_007.jpg	99
283.234	2.379	2379.0	navigation	Trial1	navigation/STIM_007.jpg	99
287.64	2.341	2340.8	navigation	Trial1	navigation/STIM_008.jpg	100
292.913	4.622	4621.9	navigation	Trial1	navigation/STIM_008.jpg	99
300.896	2.868	2868.0	navigation	Trial1	navigation/STIM_008.jpg	100
306.876	2.57	2569.6	navigation	Trial1	navigation/STIM_008.jpg	99
312.994	3.891	3890.7	navigation	Trial1	navigation/STIM_008.jpg	99
320.383	3.036	3035.9	navigation	Trial1	navigation/STIM_008.jpg	99
326.185	2.69	2689.9	navigation	Trial1	navigation/STIM_009.jpg	99
332.758	2.622	2621.7	navigation	Trial1	navigation/STIM_009.jpg	99
338.116	2.564	2563.6	navigation	Trial1	navigation/STIM_009.jpg	100
342.649	4.164	4164.5	navigation	Trial1	navigation/STIM_009.jpg	99
349.952	3.594	3594.4	navigation	Trial1	navigation/STIM_009.jpg	99
355.567	3.143	3142.8	navigation	Trial1	navigation/STIM_009.jpg	100
360.68	4.884	4883.6	navigation	Trial1	navigation/STIM_010.jpg	99
367.47	3.505	3504.9	navigation	Trial1	navigation/STIM_010.jpg	100
373.599	2.324	2323.8	navigation	Trial1	navigation/STIM_010.jpg	100
379.48	2.106	2106.3	navigation	Trial1	navigation/STIM_010.jpg	99
383.795	3.355	3354.8	navigation	Trial1	navigation/STIM_010.jpg	99
389.462	2.979	2979.0	navigation	Trial1	navigation/STIM_010.jpg	99
396.103	5.01	5010.4	navigation	Trial1	navigation/STIM_011.jpg	99
404.908	4.765	4764.9	navigation	Trial1	navigation/STIM_011.jpg	100
413.443	3.197	3197.1	navigation	Trial1	navigation/STIM_011.jpg	99
419.792	2.297	2297.3	navigation	Trial1	navigation/STIM_011.jpg	100
424.257	2.724	2724.4	navigation	Trial1	navigation/STIM_011.jpg	100
429.91	2.395	2395.3	navigation	Trial1	navigation/STIM_011.jpg	100
435.036	1.293	1292.7	pointing	Trial1	pointing/STIM_000.jpg	99
439.794	0.988	988.4	pointing	Trial1	pointing/STIM_000.jpg	100
444.329	1.133	1132.9	pointing	Trial1	pointing/STIM_000.jpg	100
447.966	0.866	865.8	pointing	Trial1	pointing/STIM_000.jpg	99
452.532	1.459	1459.4	pointing	Trial1	pointing/STIM_000.jpg	99
457.007	1.302	1302.1	pointing	Trial1	pointing/STIM_000.jpg	100
460.678	1.442	1441.9	pointing	Trial1	pointing/STIM_001.jpg	100
465.85	1.4	1400.4	pointing	Trial1	pointing/STIM_001.jpg	100
470.476	0.947	947.2	pointing	Trial1	pointing/STIM_001.jpg	100
474.525	1.167	1167.4	pointing	Trial1	pointing/STIM_001.jpg	100
478.965	1.506	1506.2	pointing	Trial1	pointing/STIM_001.jpg	100
483.694	0.968	968.1	pointing	Trial1	pointing/STIM_001.jpg	99
488.585	1.102	1102.2	pointing	Trial1	pointing/STIM_002.jpg	99
493.115	1.432	1432.2	pointing	Trial1	pointing/STIM_002.jpg	99
498.434	1.403	1402.6	pointing	Trial1	pointing/STIM_002.jpg	99
503.228	1.434	1434.2	pointing	Trial1	pointing/STIM_002.jpg	99
507.636	1.142	1141.6	pointing	Trial1	pointing/STIM_002.jpg	99
512.572	0.989	989.4	pointing	Trial1	pointing/STIM_002.jpg	99
515.815	0.993	992.8	pointing	Trial1	pointing/STIM_003.jpg	99
519.924	0.968	968.4	pointing	Trial1	pointing/STIM_003.jpg	100
523.973	1.409	1408.9	pointing	Trial1	pointing/STIM_003.jpg	100
527.713	1.211	1210.9	pointing	Trial1	pointing/STIM_003.jpg	100
531.97	1.218	1218.4	pointing	Trial1	pointing/STIM_003.jpg	99
535.682	1.071	1071.0	pointing	Trial1	pointing/STIM_003.jpg	100
539.926	1.196	1196.3	pointing	Trial1	pointing/STIM_004.jpg	99
543.863	1.295	1294.7	pointing	Trial1	pointing/STIM_004.jpg	100
548.365	1.076	1076.1	pointing	Trial1	pointing/STIM_004.jpg	100
553.227	0.957	956.6	pointing	Trial1	pointing/STIM_004.jpg	99
556.332	1.35	1350.3	pointing	Trial1	pointing/STIM_004.jpg	99
559.751	1.078	1078.4	pointing	Trial1	pointing/STIM_004.jpg	100
563.495	1.032	1032.2	pointing	Trial1	pointing/STIM_005.jpg	99
568.306	1.22	1219.7	pointing	Trial1	pointing/STIM_005.jpg	99
572.176	1.238	1237.6	pointing	Trial1	pointing/STIM_005.jpg	99
575.73	1.417	1417.1	pointing	Trial1	pointing/STIM_005.jpg	100
581.11	0.9	899.9	pointing	Trial1	pointing/STIM_005.jpg	99
584.987	1.035	1034.7	pointing	Trial1	pointing/STIM_005.jpg	99
589.261	0.892	892.5	pointing	Trial1	pointing/STIM_006.jpg	99
592.65	0.878	877.5	pointing	Trial1	pointing/STIM_006.jpg	100
597.148	0.98	980.5	pointing	Trial1	pointing/STIM_006.jpg	99
601.77	1.294	1294.4	pointing	Trial1	pointing/STIM_006.jpg	99
606.236	1.367	1367.4	pointing	Trial1	pointing/STIM_006.jpg	99
611.129	1.178	1178.2	pointing	Trial1	pointing/STIM_006.jpg	99
614.491	1.212	1211.7	pointing	Trial1	pointing/STIM_007.jpg	100
618.99	1.196	1196.2	pointing	Trial1	pointing/STIM_007.jpg	99
623.134	0.979	979.0	pointing	Trial1	pointing/STIM_007.jpg	100
626.986	1.254	1254.5	pointing	Trial1	pointing/STIM_007.jpg	99
631.935	1.129	1128.9	pointing	Trial1	pointing/STIM_007.jpg	99
636.538	1.271	1271.0	pointing	Trial1	pointing/STIM_007.jpg	99
640.1	1.385	1384.7	pointing	Trial1	pointing/STIM_008.jpg	99
644.417	0.941	940.8	pointing	Trial1	pointing/STIM_008.jpg	100
648.852	1.062	1062.2	pointing	Trial1	pointing/STIM_008.jpg	100
653.225	1.337	1336.6	pointing	Trial1	pointing/STIM_008.jpg	100
658.368	1.068	1067.7	pointing	Trial1	pointing/STIM_008.jpg	99
662.801	1.131	1131.3	pointing	Trial1	pointing/STIM_008.jpg	100
667.439	1.318	1317.9	pointing	Trial1	pointing/STIM_009.jpg	99
671.903	1.077	1077.0	pointing	Trial1	pointing/STIM_009.jpg	99
675.497	1.148	1148.4	pointing	Trial1	pointing/STIM_009.jpg	100
679.01	1.076	1076.0	pointing	Trial1	pointing/STIM_009.jpg	100
682.588	0.993	992.9	pointing	Trial1	pointing/STIM_009.jpg	99
686.35	1.027	1026.7	pointing	Trial1	pointing/STIM_009.jpg	99
690.137	1.329	1329.3	pointing	Trial1	pointing/STIM_010.jpg	100
694.642	1.051	1051.3	pointing	Trial1	pointing/STIM_010.jpg	99
698.639	0.917	916.7	pointing	Trial1	pointing/STIM_010.jpg	100
701.895	0.986	986.1	pointing	Trial1	pointing/STIM_010.jpg	99
705.76	1.279	1278.7	pointing	Trial1	pointing/STIM_010.jpg	100
710.78	1.099	1098.9	pointing	Trial1	pointing/STIM_010.jpg	99
715.086	0.906	906.3	pointing	Trial1	pointing/STIM_011.jpg	100
719.463	1.203	1202.7	pointing	Trial1	pointing/STIM_011.jpg	100
724.499	1.01	1009.8	pointing	Trial1	pointing/STIM_011.jpg	99
728.384	1.096	1096.1	pointing	Trial1	pointing/STIM_011.jpg	100
733.269	1.493	1493.1	pointing	Trial1	pointing/STIM_011.jpg	100
737.94	1.432	1432.5	pointing	Trial1	pointing/STIM_011.jpg	100
742.525	2.081	2081.4	navigation	Trial2	navigation/STIM_000.jpg	100
748.244	3.43	3430.4	navigation	Trial2	navigation/STIM_000.jpg	100
755.29	3.178	3178.4	navigation	Trial2	navigation/STIM_000.jpg	99
762.017	2.646	2646.4	navigation	Trial2	navigation/STIM_000.jpg	100
766.688	3.126	3125.7	navigation	Trial2	navigation/STIM_000.jpg	100
772.855	3.388	3387.7	navigation	Trial2	navigation/STIM_000.jpg	99
779.956	3.967	3966.6	navigation	Trial2	navigation/STIM_001.jpg	99
786.775	3.662	3661.8	navigation	Trial2	navigation/STIM_001.jpg	100
792.947	3.111	3110.6	navigation	Trial2	navigation/STIM_001.jpg	100
798.063	1.578	1578.1	navigation	Trial2	navigation/STIM_001.jpg	100
803.497	2.941	2941.4	navigation	Trial2	navigation/STIM_001.jpg	100
809.562	2.32	2319.6	navigation	Trial2	navigation/STIM_001.jpg	99
814.849	2.667	2666.7	navigation	Trial2	navigation/STIM_002.jpg	100
819.676	2.184	2184.5	navigation	Trial2	navigation/STIM_002.jpg	100
824.073	2.328	2327.9	navigation	Trial2	navigation/STIM_002.jpg	100
828.982	1.67	1669.8	navigation	Trial2	navigation/STIM_002.jpg	100
834.559	2.175	2174.8	navigation	Trial2	navigation/STIM_002.jpg	99
840.58	1.7	1700.0	navigation	Trial2	navigation/STIM_002.jpg	99
845.299	4.251	4250.6	navigation	Trial2	navigation/STIM_003.jpg	100
852.693	2.279	2279.4	navigation	Trial2	navigation/STIM_003.jpg	100
857.474	3.318	3318.3	navigation	Trial2	navigation/STIM_003.jpg	100
864.632	3.497	3496.7	navigation	Trial2	navigation/STIM_003.jpg	100
870.82	2.842	2841.5	navigation	Trial2	navigation/STIM_003.jpg	100
877.242	2.376	2375.7	navigation	Trial2	navigation/STIM_003.jpg	100
881.816	2.837	2836.7	navigation	Trial2	navigation/STIM_004.jpg	99
888.547	2.814	2814.0	navigation	Trial2	navigation/STIM_004.jpg	99
893.763	3.306	3305.5	navigation	Trial2	navigation/STIM_004.jpg	100
900.434	2.426	2426.0	navigation	Trial2	navigation/STIM_004.jpg	99
906.502	3.132	3132.5	navigation	Trial2	navigation/STIM_004.jpg	100
913.186	2.081	2080.6	navigation	Trial2	navigation/STIM_004.jpg	100
918.53	3.927	3926.6	navigation	Trial2	navigation/STIM_005.jpg	100
926.213	2.801	2800.6	navigation	Trial2	navigation/STIM_005.jpg	100
931.058	3.52	3520.0	navigation	Trial2	navigation/STIM_005.jpg	100
936.6	1.848	1847.7	navigation	Trial2	navigation/STIM_005.jpg	100
941.648	1.947	1947.3	navigation	Trial2	navigation/STIM_005.jpg	99
947.426	2.471	2471.1	navigation	Trial2	navigation/STIM_005.jpg	99
952.552	4.065	4065.0	navigation	Trial2	navigation/STIM_006.jpg	100
959.974	3.321	3320.7	navigation	Trial2	navigation/STIM_006.jpg	100
965.905	1.587	1587.2	navigation	Trial2	navigation/STIM_006.jpg	100
970.507	2.611	2610.7	navigation	Trial2	navigation/STIM_006.jpg	99
975.525	3.099	3098.8	navigation	Trial2	navigation/STIM_006.jpg	99
982.399	2.029	2029.4	navigation	Trial2	navigation/STIM_006.jpg	99
987.429	3.733	3733.2	navigation	Trial2	navigation/STIM_007.jpg	99
993.314	3.453	3453.2	navigation	Trial2	navigation/STIM_007.jpg	100
999.228	3.042	3041.9	navigation	Trial2	navigation/STIM_007.jpg	100
1004.673	2.81	2810.5	navigation	Trial2	navigation/STIM_007.jpg	99
1010.565	3.264	3263.9	navigation	Trial2	navigation/STIM_007.jpg	100
1017.693	1.663	1663.2	navigation	Trial2	navigation/STIM_007.jpg	99
1022.807	3.644	3644.3	navigation	Trial2	navigation/STIM_008.jpg	99
1029.152	2.884	2884.1	navigation	Trial2	navigation/STIM_008.jpg	100
1035.563	2.798	2798.4	navigation	Trial2	navigation/STIM_008.jpg	100
1041.111	3.038	3037.7	navigation	Trial2	navigation/STIM_008.jpg	100
1046.595	1.968	1967.8	navigation	Trial2	navigation/STIM_008.jpg	100
1051.796	2.952	2951.5	navigation	Trial2	navigation/STIM_008.jpg	100
1057.915	2.947	2947.0	navigation	Trial2	navigation/STIM_009.jpg	100
1063.203	1.818	1818.0	navigation	Trial2	navigation/STIM_009.jpg	100
1068.072	2.967	2966.8	navigation	Trial2	navigation/STIM_009.jpg	100
1073.562	2.417	2416.6	navigation	Trial2	navigation/STIM_009.jpg	99
1079.844	2.563	2562.8	navigation	Trial2	navigation/STIM_009.jpg	99
1086.105	3.504	3503.5	navigation	Trial2	navigation/STIM_009.jpg	99
1092.102	2.832	2832.4	navigation	Trial2	navigation/STIM_010.jpg	100
1097.974	3.783	3782.6	navigation	Trial2	navigation/STIM_010.jpg	100
1104.384	1.547	1546.6	navigation	Trial2	navigation/STIM_010.jpg	99
1108.298	2.214	2214.2	navigation	Trial2	navigation/STIM_010.jpg	99
1113.893	1.672	1672.4	navigation	Trial2	navigation/STIM_010.jpg	100
1117.696	2.268	2268.0	navigation	Trial2	navigation/STIM_010.jpg	100
1122.344	3.397	3397.3	navigation	Trial2	navigation/STIM_011.jpg	100
1127.993	3.756	3756.5	navigation	Trial2	navigation/STIM_011.jpg	100
1134.408	3.138	3137.9	navigation	Trial2	navigation/STIM_011.jpg	99
1140.514	1.723	1722.7	navigation	Trial2	navigation/STIM_011.jpg	99
1144.871	3.276	3275.9	navigation	Trial2	navigation/STIM_011.jpg	100
1151.197	3.34	3340.1	navigation	Trial2	navigation/STIM_011.jpg	100
1156.748	1.464	1463.5	pointing	Trial2	pointing/STIM_000.jpg	99
1162.018	0.835	835.3	pointing	Trial2	pointing/STIM_000.jpg	99
1165.554	0.817	816.9	pointing	Trial2	pointing/STIM_000.jpg	99
1169.629	0.946	945.8	pointing	Trial2	pointing/STIM_000.jpg	99
1174.422	1.43	1430.4	pointing	Trial2	pointing/STIM_000.jpg	100
1178.645	1.508	1507.9	pointing	Trial2	pointing/STIM_000.jpg	99
1183.522	0.854	854.3	pointing	Trial2	pointing/STIM_001.jpg	100
1187.233	1.095	1094.7	pointing	Trial2	pointing/STIM_001.jpg	100
1190.589	0.926	926.5	pointing	Trial2	pointing/STIM_001.jpg	99
1194.831	1.271	1270.7	pointing	Trial2	pointing/STIM_001.jpg	100
1199.443	1.26	1259.9	pointing	Trial2	pointing/STIM_001.jpg	100
1203.853	1.513	1513.4	pointing	Trial2	pointing/STIM_001.jpg	100
1207.604	0.911	911.1	pointing	Trial2	pointing/STIM_002.jpg	100
1212.287	0.911	910.6	pointing	Trial2	pointing/STIM_002.jpg	99
1216.888	1.443	1443.2	pointing	Trial2	pointing/STIM_002.jpg	100
1220.953	1.503	1503.1	pointing	Trial2	pointing/STIM_002.jpg	99
1224.455	1.341	1341.2	pointing	Trial2	pointing/STIM_002.jpg	99
1227.963	0.864	864.1	pointing	Trial2	pointing/STIM_002.jpg	99
1232.29	1.231	1230.7	pointing	Trial2	pointing/STIM_003.jpg	100
1236.86	0.872	871.5	pointing	Trial2	pointing/STIM_003.jpg	99
1240.403	1.078	1078.5	pointing	Trial2	pointing/STIM_003.jpg	100
1244.892	1.257	1256.6	pointing	Trial2	pointing/STIM_003.jpg	100
1249.221	1.222	1222.3	pointing	Trial2	pointing/STIM_003.jpg	100
1254.325	1.392	1392.4	pointing	Trial2	pointing/STIM_003.jpg	100
1258.015	1.427	1427.4	pointing	Trial2	pointing/STIM_004.jpg	100
1261.78	0.863	863.2	pointing	Trial2	pointing/STIM_004.jpg	100
1266.31	0.852	852.1	pointing	Trial2	pointing/STIM_004.jpg	100
1270.122	1.054	1054.3	pointing	Trial2	pointing/STIM_004.jpg	99
1273.429	1.464	1463.7	pointing	Trial2	pointing/STIM_004.jpg	100
1278.739	1.292	1292.1	pointing	Trial2	pointing/STIM_004.jpg	100
1282.951	1.217	1217.1	pointing	Trial2	pointing/STIM_005.jpg	100
1287.174	1.528	1528.5	pointing	Trial2	pointing/STIM_005.jpg	99
1291.471	1.334	1334.1	pointing	Trial2	pointing/STIM_005.jpg	99
1295.974	1.05	1050.3	pointing	Trial2	pointing/STIM_005.jpg	100
1300.642	0.963	962.8	pointing	Trial2	pointing/STIM_005.jpg	99
1304.232	1.014	1013.5	pointing	Trial2	pointing/STIM_005.jpg	100
1308.667	1.402	1401.8	pointing	Trial2	pointing/STIM_006.jpg	99
1312.129	0.95	950.3	pointing	Trial2	pointing/STIM_006.jpg	100
1315.198	1.25	1250.3	pointing	Trial2	pointing/STIM_006.jpg	100
1320.388	1.282	1282.3	pointing	Trial2	pointing/STIM_006.jpg	100
1324.855	1.135	1135.4	pointing	Trial2	pointing/STIM_006.jpg	100
1329.191	1.501	1501.1	pointing	Trial2	pointing/STIM_006.jpg	99
1332.792	1.455	1455.2	pointing	Trial2	pointing/STIM_007.jpg	99
1337.842	0.999	999.1	pointing	Trial2	pointing/STIM_007.jpg	99
1342.033	1.36	1360.4	pointing	Trial2	pointing/STIM_007.jpg	100
1346.615	1.274	1274.1	pointing	Trial2	pointing/STIM_007.jpg	100
1351.412	1.128	1128.0	pointing	Trial2	pointing/STIM_007.jpg	99
1354.728	1.46	1460.1	pointing	Trial2	pointing/STIM_007.jpg	99
1359.835	0.983	982.6	pointing	Trial2	pointing/STIM_008.jpg	100
1363.833	1.054	1054.3	pointing	Trial2	pointing/STIM_008.jpg	100
1366.945	1.054	1054.5	pointing	Trial2	pointing/STIM_008.jpg	99
1371.746	1.294	1294.4	pointing	Trial2	pointing/STIM_008.jpg	100
1375.06	1.363	1363.1	pointing	Trial2	pointing/STIM_008.jpg	100
1379.099	1.48	1480.1	pointing	Trial2	pointing/STIM_008.jpg	99
1383.019	1.459	1459.3	pointing	Trial2	pointing/STIM_009.jpg	100
1388.352	1.048	1047.7	pointing	Trial2	pointing/STIM_009.jpg	100
1391.409	1.03	1030.3	pointing	Trial2	pointing/STIM_009.jpg	99
1396.149	1.17	1170.0	pointing	Trial2	pointing/STIM_009.jpg	99
1400.399	1.329	1329.4	pointing	Trial2	pointing/STIM_009.jpg	99
1404.122	1.49	1489.8	pointing	Trial2	pointing/STIM_009.jpg	100
1407.966	1.124	1123.8	pointing	Trial2	pointing/STIM_010.jpg	99
1411.485	1.19	1190.1	pointing	Trial2	pointing/STIM_010.jpg	100
1416.444	0.856	855.6	pointing	Trial2	pointing/STIM_010.jpg	99
1419.853	0.925	925.4	pointing	Trial2	pointing/STIM_010.jpg	99
1424.651	1.322	1322.0	pointing	Trial2	pointing/STIM_010.jpg	100
1429.94	1.512	1511.8	pointing	Trial2	pointing/STIM_010.jpg	99
1435.217	1.499	1498.8	pointing	Trial2	pointing/STIM_011.jpg	100
1438.729	1.226	1226.2	pointing	Trial2	pointing/STIM_011.jpg	99
1442.77	1.12	1119.5	pointing	Trial2	pointing/STIM_011.jpg	100
1447.756	1.37	1369.9	pointing	Trial2	pointing/STIM_011.jpg	100
1451.894	1.163	1162.9	pointing	Trial2	pointing/STIM_011.jpg	99
1456.078	1.015	1014.8	pointing	Trial2	pointing/STIM_011.jpg	99
1460.244	3.206	3205.6	navigation	Trial3	navigation/STIM_000.jpg	99
1466.441	1.882	1881.5	navigation	Trial3	navigation/STIM_000.jpg	100
1471.912	3.046	3045.6	navigation	Trial3	navigation/STIM_000.jpg	99
1477.827	2.238	2237.8	navigation	Trial3	navigation/STIM_000.jpg	99
1483.79	2.238	2237.7	navigation	Trial3	navigation/STIM_000.jpg	100
1489.532	3.255	3255.3	navigation	Trial3	navigation/STIM_000.jpg	99
1494.953	1.795	1795.1	navigation	Trial3	navigation/STIM_001.jpg	99
1498.816	2.532	2531.9	navigation	Trial3	navigation/STIM_001.jpg	99
1503.804	3.324	3324.5	navigation	Trial3	navigation/STIM_001.jpg	100
1510.288	1.518	1517.5	navigation	Trial3	navigation/STIM_001.jpg	100
1515.122	1.699	1699.1	navigation	Trial3	navigation/STIM_001.jpg	99
1519.745	3.009	3008.9	navigation	Trial3	navigation/STIM_001.jpg	99
1525.062	3.435	3434.9	navigation	Trial3	navigation/STIM_002.jpg	99
1531.029	1.978	1978.3	navigation	Trial3	navigation/STIM_002.jpg	99
1536.559	2.052	2052.4	navigation	Trial3	navigation/STIM_002.jpg	100
1542.354	1.679	1678.7	navigation	Trial3	navigation/STIM_002.jpg	100
1546.898	2.715	2714.6	navigation	Trial3	navigation/STIM_002.jpg	100
1553.342	2.999	2998.8	navigation	Trial3	navigation/STIM_002.jpg	100
1559.993	1.872	1872.5	navigation	Trial3	navigation/STIM_003.jpg	99
1565.246	3.516	3515.6	navigation	Trial3	navigation/STIM_003.jpg	99
1570.93	2.76	2759.7	navigation	Trial3	navigation/STIM_003.jpg	100
1575.708	3.303	3302.6	navigation	Trial3	navigation/STIM_003.jpg	99
1581.9	2.214	2213.8	navigation	Trial3	navigation/STIM_003.jpg	100
1586.611	1.516	1515.9	navigation	Trial3	navigation/STIM_003.jpg	100
1590.662	2.045	2045.0	navigation	Trial3	navigation/STIM_004.jpg	100
1596.492	3.381	3381.2	navigation	Trial3	navigation/STIM_004.jpg	100
1602.207	3.488	3487.5	navigation	Trial3	navigation/STIM_004.jpg	100
1608.879	2.307	2307.0	navigation	Trial3	navigation/STIM_004.jpg	99
1613.889	3.248	3247.7	navigation	Trial3	navigation/STIM_004.jpg	99
1620.927	3.505	3505.2	navigation	Trial3	navigation/STIM_004.jpg	100
1627.877	2.008	2008.4	navigation	Trial3	navigation/STIM_005.jpg	99
1633.174	1.827	1827.1	navigation	Trial3	navigation/STIM_005.jpg	99
1638.918	2.957	2956.8	navigation	Trial3	navigation/STIM_005.jpg	100
1645.271	3.167	3167.3	navigation	Trial3	navigation/STIM_005.jpg	99
1652.325	1.479	1479.3	navigation	Trial3	navigation/STIM_005.jpg	100
1656.565	2.561	2560.9	navigation	Trial3	navigation/STIM_005.jpg	100
1661.491	2.176	2175.9	navigation	Trial3	navigation/STIM_006.jpg	99
1667.238	2.077	2077.4	navigation	Trial3	navigation/STIM_006.jpg	100
1672.701	3.28	3279.8	navigation	Trial3	navigation/STIM_006.jpg	99
1679.711	1.731	1731.4	navigation	Trial3	navigation/STIM_006.jpg	100
1685.335	1.878	1877.6	navigation	Trial3	navigation/STIM_006.jpg	100
1691.151	2.754	2753.5	navigation	Trial3	navigation/STIM_006.jpg	99
1695.882	3.198	3197.8	navigation	Trial3	navigation/STIM_007.jpg	99
1702.436	2.072	2071.9	navigation	Trial3	navigation/STIM_007.jpg	99
1708.281	1.692	1691.6	navigation	Trial3	navigation/STIM_007.jpg	100
1713.376	2.778	2778.3	navigation	Trial3	navigation/STIM_007.jpg	100
1719.196	2.812	2812.1	navigation	Trial3	navigation/STIM_007.jpg	100
1725.913	1.975	1975.0	navigation	Trial3	navigation/STIM_007.jpg	100
1731.078	2.802	2801.8	navigation	Trial3	navigation/STIM_008.jpg	99
1737.111	2.961	2961.1	navigation	Trial3	navigation/STIM_008.jpg	100
1743.384	3.359	3358.9	navigation	Trial3	navigation/STIM_008.jpg	100
1748.803	1.929	1929.3	navigation	Trial3	navigation/STIM_008.jpg	100
1752.789	1.959	1958.6	navigation	Trial3	navigation/STIM_008.jpg	99
1757.503	2.869	2869.2	navigation	Trial3	navigation/STIM_008.jpg	99
1763.711	1.443	1442.6	navigation	Trial3	navigation/STIM_009.jpg	99
1768.192	2.129	2128.7	navigation	Trial3	navigation/STIM_009.jpg	100
1773.443	2.003	2003.2	navigation	Trial3	navigation/STIM_009.jpg	100
1778.76	2.76	2759.6	navigation	Trial3	navigation/STIM_009.jpg	99
1783.529	3.011	3011.1	navigation	Trial3	navigation/STIM_009.jpg	99
1789.322	2.132	2132.3	navigation	Trial3	navigation/STIM_009.jpg	99
1794.255	1.691	1691.1	navigation	Trial3	navigation/STIM_010.jpg	99
1798.482	3.109	3109.4	navigation	Trial3	navigation/STIM_010.jpg	99
1804.943	2.152	2151.5	navigation	Trial3	navigation/STIM_010.jpg	99
1809.445	2.352	2352.3	navigation	Trial3	navigation/STIM_010.jpg	99
1814.248	1.972	1972.3	navigation	Trial3	navigation/STIM_010.jpg	99
1819.322	2.95	2949.8	navigation	Trial3	navigation/STIM_010.jpg	100
1825.793	3.172	3172.0	navigation	Trial3	navigation/STIM_011.jpg	99
1831.063	2.591	2590.7	navigation	Trial3	navigation/STIM_011.jpg	100
1835.66	2.027	2027.1	navigation	Trial3	navigation/STIM_011.jpg	99
1839.648	2.412	2411.6	navigation	Trial3	navigation/STIM_011.jpg	99
1844.071	2.077	2076.8	navigation	Trial3	navigation/STIM_011.jpg	99
1849.411	2.59	2590.1	navigation	Trial3	navigation/STIM_011.jpg	99
1855.013	0.949	948.8	pointing	Trial3	pointing/STIM_000.jpg	99
1859.936	1.494	1494.2	pointing	Trial3	pointing/STIM_000.jpg	100
1864.96	1.014	1014.0	pointing	Trial3	pointing/STIM_000.jpg	100
1868.573	1.268	1267.6	pointing	Trial3	pointing/STIM_000.jpg	100
1873.598	1.16	1159.8	pointing	Trial3	pointing/STIM_000.jpg	100
1878.052	0.97	970.1	pointing	Trial3	pointing/STIM_000.jpg	99
1881.93	1.348	1347.8	pointing	Trial3	pointing/STIM_001.jpg	100
1885.995	1.472	1472.2	pointing	Trial3	pointing/STIM_001.jpg	100
1891.164	1.218	1217.5	pointing	Trial3	pointing/STIM_001.jpg	100
1896.23	0.872	872.5	pointing	Trial3	pointing/STIM_001.jpg	99
1899.772	1.1	1100.3	pointing	Trial3	pointing/STIM_001.jpg	99
1904.607	0.934	934.0	pointing	Trial3	pointing/STIM_001.jpg	100
1907.886	0.894	894.0	pointing	Trial3	pointing/STIM_002.jpg	100
1910.946	1.377	1376.6	pointing	Trial3	pointing/STIM_002.jpg	99
1915.76	0.827	826.7	pointing	Trial3	pointing/STIM_002.jpg	100
1920.485	1.454	1454.4	pointing	Trial3	pointing/STIM_002.jpg	99
1925.86	1.116	1116.0	pointing	Trial3	pointing/STIM_002.jpg	100
1930.023	1.243	1243.1	pointing	Trial3	pointing/STIM_002.jpg	100
1934.061	1.354	1353.8	pointing	Trial3	pointing/STIM_003.jpg	100
1937.663	0.921	921.3	pointing	Trial3	pointing/STIM_003.jpg	99
1941.308	1.442	1441.5	pointing	Trial3	pointing/STIM_003.jpg	99
1945.932	1.463	1462.7	pointing	Trial3	pointing/STIM_003.jpg	99
1949.707	1.109	1109.1	pointing	Trial3	pointing/STIM_003.jpg	99
1954.445	1.023	1023.3	pointing	Trial3	pointing/STIM_003.jpg	99
1957.898	1.072	1071.5	pointing	Trial3	pointing/STIM_004.jpg	100
1962.848	1.299	1298.6	pointing	Trial3	pointing/STIM_004.jpg	99
1966.807	1.21	1210.3	pointing	Trial3	pointing/STIM_004.jpg	99
1971.918	1.164	1163.9	pointing	Trial3	pointing/STIM_004.jpg	99
1976.715	0.86	859.6	pointing	Trial3	pointing/STIM_004.jpg	99
1980.116	1.292	1292.4	pointing	Trial3	pointing/STIM_004.jpg	99
1984.954	1.398	1398.5	pointing	Trial3	pointing/STIM_005.jpg	99
1989.675	1.218	1218.4	pointing	Trial3	pointing/STIM_005.jpg	99
1993.4	1.483	1483.1	pointing	Trial3	pointing/STIM_005.jpg	99
1996.964	1.328	1328.1	pointing	Trial3	pointing/STIM_005.jpg	99
2001.728	1.369	1368.9	pointing	Trial3	pointing/STIM_005.jpg	100
2006.569	0.88	880.3	pointing	Trial3	pointing/STIM_005.jpg	99
2010.294	0.916	916.0	pointing	Trial3	pointing/STIM_006.jpg	99
2014.834	1.315	1315.1	pointing	Trial3	pointing/STIM_006.jpg	100
2019.707	1.259	1258.9	pointing	Trial3	pointing/STIM_006.jpg	100
2023.433	0.99	990.5	pointing	Trial3	pointing/STIM_006.jpg	99
2026.838	1.476	1476.5	pointing	Trial3	pointing/STIM_006.jpg	100
2031.408	1.356	1355.5	pointing	Trial3	pointing/STIM_006.jpg	100
2035.673	1.063	1063.1	pointing	Trial3	pointing/STIM_007.jpg	100
2040.675	1.008	1008.0	pointing	Trial3	pointing/STIM_007.jpg	100
2045.01	1.467	1467.1	pointing	Trial3	pointing/STIM_007.jpg	99
2050.367	0.977	976.8	pointing	Trial3	pointing/STIM_007.jpg	99
2053.93	0.988	987.9	pointing	Trial3	pointing/STIM_007.jpg	100
2058.845	1.336	1336.5	pointing	Trial3	pointing/STIM_007.jpg	100
2063.369	1.439	1439.3	pointing	Trial3	pointing/STIM_008.jpg	100
2067.68	1.092	1092.3	pointing	Trial3	pointing/STIM_008.jpg	100
2071.173	1.361	1361.3	pointing	Trial3	pointing/STIM_008.jpg	99
2075.618	1.345	1344.9	pointing	Trial3	pointing/STIM_008.jpg	99
2078.975	1.177	1176.9	pointing	Trial3	pointing/STIM_008.jpg	100
2083.967	1.462	1462.3	pointing	Trial3	pointing/STIM_008.jpg	99
2088.303	1.008	1007.8	pointing	Trial3	pointing/STIM_009.jpg	100
2093.188	0.918	917.5	pointing	Trial3	pointing/STIM_009.jpg	99
2096.643	1.111	1111.3	pointing	Trial3	pointing/STIM_009.jpg	99
2101.038	0.969	968.7	pointing	Trial3	pointing/STIM_009.jpg	99
2104.988	1.115	1115.1	pointing	Trial3	pointing/STIM_009.jpg	100
2108.904	1.264	1263.5	pointing	Trial3	pointing/STIM_009.jpg	100
2112.533	1.107	1107.4	pointing	Trial3	pointing/STIM_010.jpg	100
2115.699	1.357	1357.2	pointing	Trial3	pointing/STIM_010.jpg	100
2120.827	1.444	1444.2	pointing	Trial3	pointing/STIM_010.jpg	100
2124.729	1.044	1044.4	pointing	Trial3	pointing/STIM_010.jpg	99
2127.959	1.463	1462.7	pointing	Trial3	pointing/STIM_010.jpg	100
2132.069	1.518	1517.5	pointing	Trial3	pointing/STIM_010.jpg	100
2135.785	1.284	1284.4	pointing	Trial3	pointing/STIM_011.jpg	100
2139.556	1.154	1154.4	pointing	Trial3	pointing/STIM_011.jpg	100
2143.868	1.284	1284.0	pointing	Trial3	pointing/STIM_011.jpg	100
2147.14	1.32	1319.9	pointing	Trial3	pointing/STIM_011.jpg	100
2152.374	0.987	987.2	pointing	Trial3	pointing/STIM_011.jpg	100
2156.869	0.82	820.4	pointing	Trial3	pointing/STIM_011.jpg	100
