onset	duration	accuracy	trial_type	learning_stage	stimulus
0.0	0.822	correct	incongruent	Block1	incongruent/STIM_000.jpg
4.251	0.908	correct	incongruent	Block1	incongruent/STIM_000.jpg
8.046	0.899	correct	incongruent	Block1	incongruent/STIM_000.jpg
12.309	1.212	correct	incongruent	Block1	incongruent/STIM_000.jpg
15.843	1.101	correct	incongruent	Block1	incongruent/STIM_000.jpg
19.69	1.166	incorrect	incongruent	Block1	incongruent/STIM_001.jpg
23.28	0.845	correct	incongruent	Block1	incongruent/STIM_001.jpg
26.733	0.698	correct	incongruent	Block1	incongruent/STIM_001.jpg
31.094	0.897	correct	incongruent	Block1	incongruent/STIM_001.jpg
35.111	0.926	correct	incongruent	Block1	incongruent/STIM_001.jpg
39.619	1.372	correct	incongruent	Block1	incongruent/STIM_002.jpg
43.8	0.885	incorrect	incongruent	Block1	incongruent/STIM_002.jpg
47.321	0.788	correct	incongruent	Block1	incongruent/STIM_002.jpg
51.526	1.329	correct	incongruent	Block1	incongruent/STIM_002.jpg
56.16	0.97	correct	incongruent	Block1	incongruent/STIM_002.jpg
59.515	1.222	correct	incongruent	Block1	incongruent/STIM_003.jpg
64.557	1.231	correct	incongruent	Block1	incongruent/STIM_003.jpg
67.985	0.692	correct	incongruent	Block1	incongruent/STIM_003.jpg
71.257	1.105	correct	incongruent	Block1	incongruent/STIM_003.jpg
76.321	1.277	correct	incongruent	Block1	incongruent/STIM_003.jpg
80.958	1.234	correct	incongruent	Block1	incongruent/STIM_004.jpg
85.772	1.493	correct	incongruent	Block1	incongruent/STIM_004.jpg
91.104	1.348	correct	incongruent	Block1	incongruent/STIM_004.jpg
94.694	1.164	correct	incongruent	Block1	incongruent/STIM_004.jpg
98.351	0.998	correct	incongruent	Block1	incongruent/STIM_004.jpg
103.328	1.426	correct	incongruent	Block1	incongruent/STIM_005.jpg
108.064	1.312	correct	incongruent	Block1	incongruent/STIM_005.jpg
113.024	1.17	correct	incongruent	Block1	incongruent/STIM_005.jpg
116.817	0.889	incorrect	incongruent	Block1	incongruent/STIM_005.jpg
121.449	0.808	correct	incongruent	Block1	incongruent/STIM_005.jpg
124.836	0.818	correct	incongruent	Block1	incongruent/STIM_006.jpg
129.268	1.542	correct	incongruent	Block1	incongruent/STIM_006.jpg
134.184	1.162	correct	incongruent	Block1	incongruent/STIM_006.jpg
138.594	1.237	incorrect	incongruent	Block1	incongruent/STIM_006.jpg
142.51	1.108	correct	incongruent	Block1	incongruent/STIM_006.jpg
146.81	1.199	correct	incongruent	Block1	incongruent/STIM_007.jpg
150.998	1.26	correct	incongruent	Block1	incongruent/STIM_007.jpg
154.762	0.73	correct	incongruent	Block1	incongruent/STIM_007.jpg
158.096	0.669	correct	incongruent	Block1	incongruent/STIM_007.jpg
162.349	1.217	correct	incongruent	Block1	incongruent/STIM_007.jpg
165.919	1.099	correct	incongruent	Block1	incongruent/STIM_008.jpg
170.825	1.001	correct	incongruent	Block1	incongruent/STIM_008.jpg
174.196	1.227	correct	incongruent	Block1	incongruent/STIM_008.jpg
179.132	1.14	correct	incongruent	Block1	incongruent/STIM_008.jpg
183.755	1.13	incorrect	incongruent	Block1	incongruent/STIM_008.jpg
188.507	1.629	correct	incongruent	Block1	incongruent/STIM_009.jpg
192.876	0.955	incorrect	incongruent	Block1	incongruent/STIM_009.jpg
197.063	0.815	correct	incongruent	Block1	incongruent/STIM_009.jpg
201.73	0.851	correct	incongruent	Block1	incongruent/STIM_009.jpg
205.523	0.692	correct	incongruent	Block1	incongruent/STIM_009.jpg
209.417	1.095	correct	incongruent	Block1	incongruent/STIM_010.jpg
213.347	0.892	incorrect	incongruent	Block1	incongruent/STIM_010.jpg
216.675	1.105	correct	incongruent	Block1	incongruent/STIM_010.jpg
221.097	1.148	correct	incongruent	Block1	incongruent/STIM_010.jpg
224.856	1.116	correct	incongruent	Block1	incongruent/STIM_010.jpg
228.591	1.479	correct	incongruent	Block1	incongruent/STIM_011.jpg
232.555	1.118	correct	incongruent	Block1	incongruent/STIM_011.jpg
237.328	1.016	correct	incongruent	Block1	incongruent/STIM_011.jpg
240.519	0.746	correct	incongruent	Block1	incongruent/STIM_011.jpg
244.057	1.101	correct	incongruent	Block1	incongruent/STIM_011.jpg
247.455	0.941	correct	incongruent	Block1	incongruent/STIM_012.jpg
252.236	0.877	correct	incongruent	Block1	incongruent/STIM_012.jpg
256.768	1.282	correct	incongruent	Block1	incongruent/STIM_012.jpg
261.723	0.674	correct	incongruent	Block1	incongruent/STIM_012.jpg
264.594	1.219	correct	incongruent	Block1	incongruent/STIM_012.jpg
268.392	1.13	correct	incongruent	Block1	incongruent/STIM_013.jpg
272.541	1.552	correct	incongruent	Block1	incongruent/STIM_013.jpg
276.315	0.787	correct	incongruent	Block1	incongruent/STIM_013.jpg
281.016	0.819	correct	incongruent	Block1	incongruent/STIM_013.jpg
284.029	1.018	correct	incongruent	Block1	incongruent/STIM_013.jpg
288.151	0.835	correct	incongruent	Block1	incongruent/STIM_014.jpg
292.18	1.438	correct	incongruent	Block1	incongruent/STIM_014.jpg
297.089	1.21	correct	incongruent	Block1	incongruent/STIM_014.jpg
301.374	1.005	correct	incongruent	Block1	incongruent/STIM_014.jpg
304.806	1.099	incorrect	incongruent	Block1	incongruent/STIM_014.jpg
309.581	0.974	correct	incongruent	Block1	incongruent/STIM_015.jpg
313.319	0.952	correct	incongruent	Block1	incongruent/STIM_015.jpg
316.365	1.427	correct	incongruent	Block1	incongruent/STIM_015.jpg
321.609	1.166	correct	incongruent	Block1	incongruent/STIM_015.jpg
326.618	1.088	correct	incongruent	Block1	incongruent/STIM_015.jpg
330.605	1.629	correct	incongruent	Block1	incongruent/STIM_016.jpg
336.122	1.469	correct	incongruent	Block1	incongruent/STIM_016.jpg
340.903	0.72	correct	incongruent	Block1	incongruent/STIM_016.jpg
343.906	1.317	correct	incongruent	Block1	incongruent/STIM_016.jpg
348.551	0.726	correct	incongruent	Block1	incongruent/STIM_016.jpg
352.69	1.348	incorrect	incongruent	Block1	incongruent/STIM_017.jpg
356.783	1.222	correct	incongruent	Block1	incongruent/STIM_017.jpg
361.459	0.729	correct	incongruent	Block1	incongruent/STIM_017.jpg
364.33	0.759	correct	incongruent	Block1	incongruent/STIM_017.jpg
368.425	0.686	correct	incongruent	Block1	incongruent/STIM_017.jpg
372.365	1.432	correct	incongruent	Block1	incongruent/STIM_018.jpg
377.177	1.05	correct	incongruent	Block1	incongruent/STIM_018.jpg
380.492	0.778	correct	incongruent	Block1	incongruent/STIM_018.jpg
383.761	1.099	correct	incongruent	Block1	incongruent/STIM_018.jpg
387.852	0.801	correct	incongruent	Block1	incongruent/STIM_018.jpg
391.752	0.888	correct	incongruent	Block1	incongruent/STIM_019.jpg
396.092	1.011	correct	incongruent	Block1	incongruent/STIM_019.jpg
400.119	1.474	correct	incongruent	Block1	incongruent/STIM_019.jpg
404.38	1.052	correct	incongruent	Block1	incongruent/STIM_019.jpg
409.221	0.786	correct	incongruent	Block1	incongruent/STIM_019.jpg
412.69	0.946	correct	incongruent	Block1	incongruent/STIM_020.jpg
417.005	1.333	correct	incongruent	Block1	incongruent/STIM_020.jpg
421.546	1.072	correct	incongruent	Block1	incongruent/STIM_020.jpg
426.062	1.329	correct	incongruent	Block1	incongruent/STIM_020.jpg
430.537	0.863	correct	incongruent	Block1	incongruent/STIM_020.jpg
433.406	1.122	correct	incongruent	Block1	incongruent/STIM_021.jpg
437.242	1.22	correct	incongruent	Block1	incongruent/STIM_021.jpg
441.753	1.205	incorrect	incongruent	Block1	incongruent/STIM_021.jpg
445.955	0.747	correct	incongruent	Block1	incongruent/STIM_021.jpg
449.511	1.067	correct	incongruent	Block1	incongruent/STIM_021.jpg
454.002	1.177	correct	incongruent	Block1	incongruent/STIM_022.jpg
457.462	0.765	correct	incongruent	Block1	incongruent/STIM_022.jpg
461.24	0.929	incorrect	incongruent	Block1	incongruent/STIM_022.jpg
465.392	0.752	correct	incongruent	Block1	incongruent/STIM_022.jpg
469.729	0.845	correct	incongruent	Block1	incongruent/STIM_022.jpg
473.422	1.61	correct	incongruent	Block1	incongruent/STIM_023.jpg
478.517	0.844	correct	incongruent	Block1	incongruent/STIM_023.jpg
482.67	1.391	incorrect	incongruent	Block1	incongruent/STIM_023.jpg
487.166	0.95	correct	incongruent	Block1	incongruent/STIM_023.jpg
490.596	1.153	correct	incongruent	Block1	incongruent/STIM_023.jpg
495.412	1.393	correct	incongruent	Block1	incongruent/STIM_024.jpg
499.656	1.358	correct	incongruent	Block1	incongruent/STIM_024.jpg
504.777	0.721	correct	incongruent	Block1	incongruent/STIM_024.jpg
508.784	1.394	correct	incongruent	Block1	incongruent/STIM_024.jpg
513.64	1.045	correct	incongruent	Block1	incongruent/STIM_024.jpg
517.426	1.239	correct	incongruent	Block1	incongruent/STIM_025.jpg
520.985	1.089	correct	incongruent	Block1	incongruent/STIM_025.jpg
525.469	1.199	correct	incongruent	Block1	incongruent/STIM_025.jpg
530.129	1.356	correct	incongruent	Block1	incongruent/STIM_025.jpg
534.66	1.219	correct	incongruent	Block1	incongruent/STIM_025.jpg
538.861	1.247	incorrect	incongruent	Block1	incongruent/STIM_026.jpg
542.75	1.167	correct	incongruent	Block1	incongruent/STIM_026.jpg
546.519	1.189	incorrect	incongruent	Block1	incongruent/STIM_026.jpg
550.731	0.839	correct	incongruent	Block1	incongruent/STIM_026.jpg
554.488	0.707	incorrect	incongruent	Block1	incongruent/STIM_026.jpg
557.424	0.946	incorrect	incongruent	Block1	incongruent/STIM_027.jpg
561.912	0.82	correct	incongruent	Block1	incongruent/STIM_027.jpg
565.87	0.774	correct	incongruent	Block1	incongruent/STIM_027.jpg
569.222	0.728	correct	incongruent	Block1	incongruent/STIM_027.jpg
572.647	1.179	correct	incongruent	Block1	incongruent/STIM_027.jpg
576.389	1.002	correct	incongruent	Block1	incongruent/STIM_028.jpg
580.558	1.36	correct	incongruent	Block1	incongruent/STIM_028.jpg
584.559	1.349	correct	incongruent	Block1	incongruent/STIM_028.jpg
589.088	0.707	correct	incongruent	Block1	incongruent/STIM_028.jpg
593.222	1.199	correct	incongruent	Block1	incongruent/STIM_028.jpg
596.565	1.312	correct	incongruent	Block1	incongruent/STIM_029.jpg
601.023	1.394	correct	incongruent	Block1	incongruent/STIM_029.jpg
605.502	1.098	correct	incongruent	Block1	incongruent/STIM_029.jpg
610.442	1.386	correct	incongruent	Block1	incongruent/STIM_029.jpg
615.129	1.069	correct	incongruent	Block1	incongruent/STIM_029.jpg
618.716	0.972	correct	congruent	Block1	congruent/STIM_000.jpg
623.05	0.612	correct	congruent	Block1	congruent/STIM_000.jpg
626.073	0.906	correct	congruent	Block1	congruent/STIM_000.jpg
629.596	0.719	correct	congruent	Block1	congruent/STIM_000.jpg
633.824	0.819	correct	congruent	Block1	congruent/STIM_000.jpg
636.791	0.594	correct	congruent	Block1	congruent/STIM_001.jpg
640.175	0.963	correct	congruent	Block1	congruent/STIM_001.jpg
644.758	0.567	correct	congruent	Block1	congruent/STIM_001.jpg
649.312	0.846	correct	congruent	Block1	congruent/STIM_001.jpg
653.471	0.582	correct	congruent	Block1	congruent/STIM_001.jpg
656.971	0.667	correct	congruent	Block1	congruent/STIM_002.jpg
659.894	0.772	correct	congruent	Block1	congruent/STIM_002.jpg
663.321	0.727	correct	congruent	Block1	congruent/STIM_002.jpg
666.179	0.813	correct	congruent	Block1	congruent/STIM_002.jpg
669.836	0.766	correct	congruent	Block1	congruent/STIM_002.jpg
674.357	0.862	correct	congruent	Block1	congruent/STIM_003.jpg
677.644	0.675	incorrect	congruent	Block1	congruent/STIM_003.jpg
681.012	0.834	correct	congruent	Block1	congruent/STIM_003.jpg
685.495	0.646	correct	congruent	Block1	congruent/STIM_003.jpg
689.795	0.895	correct	congruent	Block1	congruent/STIM_003.jpg
694.14	0.961	correct	congruent	Block1	congruent/STIM_004.jpg
698.597	0.914	incorrect	congruent	Block1	congruent/STIM_004.jpg
702.327	0.866	correct	congruent	Block1	congruent/STIM_004.jpg
707.07	0.619	correct	congruent	Block1	congruent/STIM_004.jpg
710.894	0.694	incorrect	congruent	Block1	congruent/STIM_004.jpg
714.935	0.805	correct	congruent	Block1	congruent/STIM_005.jpg
718.432	0.957	correct	congruent	Block1	congruent/STIM_005.jpg
721.991	0.614	correct	congruent	Block1	congruent/STIM_005.jpg
724.606	0.869	correct	congruent	Block1	congruent/STIM_005.jpg
729.275	0.742	correct	congruent	Block1	congruent/STIM_005.jpg
732.917	0.641	correct	congruent	Block1	congruent/STIM_006.jpg
736.304	0.815	correct	congruent	Block1	congruent/STIM_006.jpg
739.465	0.899	correct	congruent	Block1	congruent/STIM_006.jpg
743.888	0.806	correct	congruent	Block1	congruent/STIM_006.jpg
746.939	0.782	correct	congruent	Block1	congruent/STIM_006.jpg
750.199	0.763	correct	congruent	Block1	congruent/STIM_007.jpg
753.665	0.609	correct	congruent	Block1	congruent/STIM_007.jpg
757.369	0.796	correct	congruent	Block1	congruent/STIM_007.jpg
761.439	0.869	incorrect	congruent	Block1	congruent/STIM_007.jpg
764.321	0.95	correct	congruent	Block1	congruent/STIM_007.jpg
768.321	0.891	correct	congruent	Block1	congruent/STIM_008.jpg
773.008	0.812	correct	congruent	Block1	congruent/STIM_008.jpg
777.815	0.786	correct	congruent	Block1	congruent/STIM_008.jpg
781.936	0.905	correct	congruent	Block1	congruent/STIM_008.jpg
786.046	0.934	correct	congruent	Block1	congruent/STIM_008.jpg
790.501	0.858	correct	congruent	Block1	congruent/STIM_009.jpg
794.738	0.949	incorrect	congruent	Block1	congruent/STIM_009.jpg
798.993	0.598	correct	congruent	Block1	congruent/STIM_009.jpg
803.301	0.93	correct	congruent	Block1	congruent/STIM_009.jpg
807.179	0.872	correct	congruent	Block1	congruent/STIM_009.jpg
810.266	0.865	correct	congruent	Block1	congruent/STIM_010.jpg
813.905	0.624	correct	congruent	Block1	congruent/STIM_010.jpg
817.014	0.748	correct	congruent	Block1	congruent/STIM_010.jpg
820.561	0.949	correct	congruent	Block1	congruent/STIM_010.jpg
824.06	0.732	correct	congruent	Block1	congruent/STIM_010.jpg
827.955	0.858	correct	congruent	Block1	congruent/STIM_011.jpg
831.029	0.688	correct	congruent	Block1	congruent/STIM_011.jpg
835.563	0.878	correct	congruent	Block1	congruent/STIM_011.jpg
839.806	0.896	correct	congruent	Block1	congruent/STIM_011.jpg
843.929	0.973	correct	congruent	Block1	congruent/STIM_011.jpg
848.157	0.585	correct	congruent	Block1	congruent/STIM_012.jpg
852.054	0.766	correct	congruent	Block1	congruent/STIM_012.jpg
855.633	0.872	correct	congruent	Block1	congruent/STIM_012.jpg
859.764	0.921	correct	congruent	Block1	congruent/STIM_012.jpg
863.641	0.857	correct	congruent	Block1	congruent/STIM_012.jpg
867.809	0.834	correct	congruent	Block1	congruent/STIM_013.jpg
871.111	0.624	correct	congruent	Block1	congruent/STIM_013.jpg
874.354	0.72	incorrect	congruent	Block1	congruent/STIM_013.jpg
877.272	0.804	correct	congruent	Block1	congruent/STIM_013.jpg
881.35	0.983	correct	congruent	Block1	congruent/STIM_013.jpg
885.259	0.712	correct	congruent	Block1	congruent/STIM_014.jpg
888.565	0.564	correct	congruent	Block1	congruent/STIM_014.jpg
893.068	0.568	correct	congruent	Block1	congruent/STIM_014.jpg
896.904	0.626	correct	congruent	Block1	congruent/STIM_014.jpg
900.01	0.882	correct	congruent	Block1	congruent/STIM_014.jpg
904.562	0.857	correct	congruent	Block1	congruent/STIM_015.jpg
908.636	0.56	correct	congruent	Block1	congruent/STIM_015.jpg
912.984	0.939	correct	congruent	Block1	congruent/STIM_015.jpg
916.925	0.601	correct	congruent	Block1	congruent/STIM_015.jpg
920.904	0.864	correct	congruent	Block1	congruent/STIM_015.jpg
925.55	0.614	correct	congruent	Block1	congruent/STIM_016.jpg
928.283	0.777	correct	congruent	Block1	congruent/STIM_016.jpg
932.848	0.755	correct	congruent	Block1	congruent/STIM_016.jpg
935.717	0.928	correct	congruent	Block1	congruent/STIM_016.jpg
939.039	0.883	correct	congruent	Block1	congruent/STIM_016.jpg
942.939	0.85	correct	congruent	Block1	congruent/STIM_017.jpg
946.645	0.762	correct	congruent	Block1	congruent/STIM_017.jpg
951.191	0.884	correct	congruent	Block1	congruent/STIM_017.jpg
954.151	0.704	correct	congruent	Block1	congruent/STIM_017.jpg
958.384	0.779	correct	congruent	Block1	congruent/STIM_017.jpg
962.137	0.639	correct	congruent	Block1	congruent/STIM_018.jpg
966.247	0.882	correct	congruent	Block1	congruent/STIM_018.jpg
970.66	0.609	correct	congruent	Block1	congruent/STIM_018.jpg
974.898	0.76	correct	congruent	Block1	congruent/STIM_018.jpg
977.809	0.624	correct	congruent	Block1	congruent/STIM_018.jpg
981.58	0.841	correct	congruent	Block1	congruent/STIM_019.jpg
985.622	0.954	correct	congruent	Block1	congruent/STIM_019.jpg
989.314	0.598	correct	congruent	Block1	congruent/STIM_019.jpg
993.704	0.88	correct	congruent	Block1	congruent/STIM_019.jpg
997.833	0.593	correct	congruent	Block1	congruent/STIM_019.jpg
1001.174	0.976	correct	congruent	Block1	congruent/STIM_020.jpg
1005.02	0.675	correct	congruent	Block1	congruent/STIM_020.jpg
1009.057	0.687	correct	congruent	Block1	congruent/STIM_020.jpg
1011.755	0.554	correct	congruent	Block1	congruent/STIM_020.jpg
1014.655	0.584	correct	congruent	Block1	congruent/STIM_020.jpg
1017.517	0.948	correct	congruent	Block1	congruent/STIM_021.jpg
1022.288	0.873	incorrect	congruent	Block1	congruent/STIM_021.jpg
1026.938	0.685	correct	congruent	Block1	congruent/STIM_021.jpg
1030.137	0.68	correct	congruent	Block1	congruent/STIM_021.jpg
1034.146	0.787	correct	congruent	Block1	congruent/STIM_021.jpg
1038.257	0.783	correct	congruent	Block1	congruent/STIM_022.jpg
1042.439	0.827	correct	congruent	Block1	congruent/STIM_022.jpg
1045.863	0.669	correct	congruent	Block1	congruent/STIM_022.jpg
1048.689	0.83	correct	congruent	Block1	congruent/STIM_022.jpg
1052.056	0.957	correct	congruent	Block1	congruent/STIM_022.jpg
1055.142	0.797	correct	congruent	Block1	congruent/STIM_023.jpg
1058.868	0.849	correct	congruent	Block1	congruent/STIM_023.jpg
1062.076	0.694	correct	congruent	Block1	congruent/STIM_023.jpg
1066.176	0.692	correct	congruent	Block1	congruent/STIM_023.jpg
1070.157	0.669	correct	congruent	Block1	congruent/STIM_023.jpg
1073.099	0.757	correct	congruent	Block1	congruent/STIM_024.jpg
1077.136	0.852	correct	congruent	Block1	congruent/STIM_024.jpg
1080.341	0.919	correct	congruent	Block1	congruent/STIM_024.jpg
1083.562	0.936	correct	congruent	Block1	congruent/STIM_024.jpg
1088.355	0.68	correct	congruent	Block1	congruent/STIM_024.jpg
1091.662	0.915	correct	congruent	Block1	congruent/STIM_025.jpg
1095.658	0.778	correct	congruent	Block1	congruent/STIM_025.jpg
1099.605	0.917	correct	congruent	Block1	congruent/STIM_025.jpg
1102.706	0.7	correct	congruent	Block1	congruent/STIM_025.jpg
1105.622	0.787	incorrect	congruent	Block1	congruent/STIM_025.jpg
1108.832	0.68	correct	congruent	Block1	congruent/STIM_026.jpg
1112.792	0.89	correct	congruent	Block1	congruent/STIM_026.jpg
1116.924	0.614	correct	congruent	Block1	congruent/STIM_026.jpg
1119.942	0.567	correct	congruent	Block1	congruent/STIM_026.jpg
1124.25	0.711	correct	congruent	Block1	congruent/STIM_026.jpg
1128.267	0.766	correct	congruent	Block1	congruent/STIM_027.jpg
1131.962	0.761	correct	congruent	Block1	congruent/STIM_027.jpg
1136.16	0.807	correct	congruent	Block1	congruent/STIM_027.jpg
1139.547	0.78	correct	congruent	Block1	congruent/STIM_027.jpg
1143.989	0.96	correct	congruent	Block1	congruent/STIM_027.jpg
1148.032	0.79	correct	congruent	Block1	congruent/STIM_028.jpg
1152.374	0.756	correct	congruent	Block1	congruent/STIM_028.jpg
1156.98	0.796	correct	congruent	Block1	congruent/STIM_028.jpg
1160.966	0.852	correct	congruent	Block1	congruent/STIM_028.jpg
1165.319	0.759	incorrect	congruent	Block1	congruent/STIM_028.jpg
1169.124	0.81	incorrect	congruent	Block1	congruent/STIM_029.jpg
1172.336	0.723	incorrect	congruent	Block1	congruent/STIM_029.jpg
1176.709	0.708	correct	congruent	Block1	congruent/STIM_029.jpg
1181.172	0.615	correct	congruent	Block1	congruent/STIM_029.jpg
1183.999	0.818	correct	congruent	Block1	congruent/STIM_029.jpg
1188.629	0.855	correct	incongruent	Block2	incongruent/STIM_000.jpg
1192.483	1.19	correct	incongruent	Block2	incongruent/STIM_000.jpg
1196.818	1.187	correct	incongruent	Block2	incongruent/STIM_000.jpg
1201.767	0.983	correct	incongruent	Block2	incongruent/STIM_000.jpg
1206.234	0.731	correct	incongruent	Block2	incongruent/STIM_000.jpg
1209.243	1.073	correct	incongruent	Block2	incongruent/STIM_001.jpg
1212.922	0.636	incorrect	incongruent	Block2	incongruent/STIM_001.jpg
1217.16	0.752	correct	incongruent	Block2	incongruent/STIM_001.jpg
1220.456	0.54	correct	incongruent	Block2	incongruent/STIM_001.jpg
1223.188	1.11	correct	incongruent	Block2	incongruent/STIM_001.jpg
1226.556	1.17	correct	incongruent	Block2	incongruent/STIM_002.jpg
1229.92	1.217	correct	incongruent	Block2	incongruent/STIM_002.jpg
1234.036	1.013	correct	incongruent	Block2	incongruent/STIM_002.jpg
1239.035	0.613	correct	incongruent	Block2	incongruent/STIM_002.jpg
1242.084	0.537	correct	incongruent	Block2	incongruent/STIM_002.jpg
1245.635	0.86	correct	incongruent	Block2	incongruent/STIM_003.jpg
1249.872	0.618	correct	incongruent	Block2	incongruent/STIM_003.jpg
1254.408	1.113	correct	incongruent	Block2	incongruent/STIM_003.jpg
1258.033	0.887	correct	incongruent	Block2	incongruent/STIM_003.jpg
1261.528	0.681	correct	incongruent	Block2	incongruent/STIM_003.jpg
1264.339	1.374	correct	incongruent	Block2	incongruent/STIM_004.jpg
1268.844	0.867	correct	incongruent	Block2	incongruent/STIM_004.jpg
1272.652	0.853	correct	incongruent	Block2	incongruent/STIM_004.jpg
1276.132	0.799	correct	incongruent	Block2	incongruent/STIM_004.jpg
1280.665	0.868	correct	incongruent	Block2	incongruent/STIM_004.jpg
1284.862	1.313	correct	incongruent	Block2	incongruent/STIM_005.jpg
1290.127	1.039	incorrect	incongruent	Block2	incongruent/STIM_005.jpg
1293.394	0.979	incorrect	incongruent	Block2	incongruent/STIM_005.jpg
1297.712	0.583	correct	incongruent	Block2	incongruent/STIM_005.jpg
1301.293	0.934	correct	incongruent	Block2	incongruent/STIM_005.jpg
1305.79	1.195	correct	incongruent	Block2	incongruent/STIM_006.jpg
1310.077	1.096	correct	incongruent	Block2	incongruent/STIM_006.jpg
1313.693	0.954	correct	incongruent	Block2	incongruent/STIM_006.jpg
1317.392	0.773	incorrect	incongruent	Block2	incongruent/STIM_006.jpg
1321.019	0.883	correct	incongruent	Block2	incongruent/STIM_006.jpg
1324.034	1.392	correct	incongruent	Block2	incongruent/STIM_007.jpg
1328.763	0.952	correct	incongruent	Block2	incongruent/STIM_007.jpg
1331.75	0.929	correct	incongruent	Block2	incongruent/STIM_007.jpg
1335.214	1.02	correct	incongruent	Block2	incongruent/STIM_007.jpg
1338.472	0.675	correct	incongruent	Block2	incongruent/STIM_007.jpg
1341.6	1.252	correct	incongruent	Block2	incongruent/STIM_008.jpg
1345.141	0.957	correct	incongruent	Block2	incongruent/STIM_008.jpg
1348.27	0.674	correct	incongruent	Block2	incongruent/STIM_008.jpg
1352.19	0.842	correct	incongruent	Block2	incongruent/STIM_008.jpg
1356.91	0.934	correct	incongruent	Block2	incongruent/STIM_008.jpg
1360.08	1.293	correct	incongruent	Block2	incongruent/STIM_009.jpg
1364.281	1.019	correct	incongruent	Block2	incongruent/STIM_009.jpg
1368.008	0.692	correct	incongruent	Block2	incongruent/STIM_009.jpg
1370.886	0.659	correct	incongruent	Block2	incongruent/STIM_009.jpg
1374.805	1.044	correct	incongruent	Block2	incongruent/STIM_009.jpg
1379.413	1.202	correct	incongruent	Block2	incongruent/STIM_010.jpg
1382.954	1.078	correct	incongruent	Block2	incongruent/STIM_010.jpg
1387.463	1.048	correct	incongruent	Block2	incongruent/STIM_010.jpg
1391.526	0.961	correct	incongruent	Block2	incongruent/STIM_010.jpg
1396.197	0.743	correct	incongruent	Block2	incongruent/STIM_010.jpg
1400.54	0.914	correct	incongruent	Block2	incongruent/STIM_011.jpg
1405.268	0.902	correct	incongruent	Block2	incongruent/STIM_011.jpg
1410.061	0.73	correct	incongruent	Block2	incongruent/STIM_011.jpg
1413.505	0.869	correct	incongruent	Block2	incongruent/STIM_011.jpg
1417.096	0.661	correct	incongruent	Block2	incongruent/STIM_011.jpg
1421.224	0.819	correct	incongruent	Block2	incongruent/STIM_012.jpg
1424.675	0.846	correct	incongruent	Block2	incongruent/STIM_012.jpg
1427.909	0.878	correct	incongruent	Block2	incongruent/STIM_012.jpg
1431.957	1.127	correct	incongruent	Block2	incongruent/STIM_012.jpg
1436.931	0.768	correct	incongruent	Block2	incongruent/STIM_012.jpg
1441.574	1.359	correct	incongruent	Block2	incongruent/STIM_013.jpg
1445.121	1.008	correct	incongruent	Block2	incongruent/STIM_013.jpg
1449.599	0.968	correct	incongruent	Block2	incongruent/STIM_013.jpg
1453.699	0.649	correct	incongruent	Block2	incongruent/STIM_013.jpg
1456.724	0.578	correct	incongruent	Block2	incongruent/STIM_013.jpg
1460.945	0.898	correct	incongruent	Block2	incongruent/STIM_014.jpg
1465.736	0.65	correct	incongruent	Block2	incongruent/STIM_014.jpg
1469.375	1.082	correct	incongruent	Block2	incongruent/STIM_014.jpg
1473.646	0.852	correct	incongruent	Block2	incongruent/STIM_014.jpg
1476.711	0.98	correct	incongruent	Block2	incongruent/STIM_014.jpg
1479.953	1.343	correct	incongruent	Block2	incongruent/STIM_015.jpg
1484.584	0.886	correct	incongruent	Block2	incongruent/STIM_015.jpg
1487.703	0.644	correct	incongruent	Block2	incongruent/STIM_015.jpg
1491.462	0.987	correct	incongruent	Block2	incongruent/STIM_015.jpg
1494.728	0.676	correct	incongruent	Block2	incongruent/STIM_015.jpg
1498.619	0.758	correct	incongruent	Block2	incongruent/STIM_016.jpg
1503.122	0.737	incorrect	incongruent	Block2	incongruent/STIM_016.jpg
1506.516	0.71	correct	incongruent	Block2	incongruent/STIM_016.jpg
1510.49	0.955	correct	incongruent	Block2	incongruent/STIM_016.jpg
1515.138	0.694	correct	incongruent	Block2	incongruent/STIM_016.jpg
1518.66	1.257	correct	incongruent	Block2	incongruent/STIM_017.jpg
1523.178	1.078	correct	incongruent	Block2	incongruent/STIM_017.jpg
1527.991	0.688	correct	incongruent	Block2	incongruent/STIM_017.jpg
1532.544	0.54	correct	incongruent	Block2	incongruent/STIM_017.jpg
1536.412	1.03	correct	incongruent	Block2	incongruent/STIM_017.jpg
1539.542	0.803	correct	incongruent	Block2	incongruent/STIM_018.jpg
1542.435	0.723	incorrect	incongruent	Block2	incongruent/STIM_018.jpg
1545.352	0.69	correct	incongruent	Block2	incongruent/STIM_018.jpg
1549.17	0.88	correct	incongruent	Block2	incongruent/STIM_018.jpg
1553.225	0.71	correct	incongruent	Block2	incongruent/STIM_018.jpg
1557.387	0.924	correct	incongruent	Block2	incongruent/STIM_019.jpg
1562.172	1.22	correct	incongruent	Block2	incongruent/STIM_019.jpg
1566.655	0.939	incorrect	incongruent	Block2	incongruent/STIM_019.jpg
1569.705	0.778	correct	incongruent	Block2	incongruent/STIM_019.jpg
1572.65	0.767	correct	incongruent	Block2	incongruent/STIM_019.jpg
1577.296	0.878	correct	incongruent	Block2	incongruent/STIM_020.jpg
1581.92	0.969	correct	incongruent	Block2	incongruent/STIM_020.jpg
1586.265	0.721	correct	incongruent	Block2	incongruent/STIM_020.jpg
1590.484	0.904	correct	incongruent	Block2	incongruent/STIM_020.jpg
1594.574	0.666	correct	incongruent	Block2	incongruent/STIM_020.jpg
1598.388	0.878	correct	incongruent	Block2	incongruent/STIM_021.jpg
1602.234	0.935	correct	incongruent	Block2	incongruent/STIM_021.jpg
1605.345	0.666	correct	incongruent	Block2	incongruent/STIM_021.jpg
1608.865	0.565	correct	incongruent	Block2	incongruent/STIM_021.jpg
1611.776	1.11	correct	incongruent	Block2	incongruent/STIM_021.jpg
1616.721	1.017	correct	incongruent	Block2	incongruent/STIM_022.jpg
1619.985	1.046	correct	incongruent	Block2	incongruent/STIM_022.jpg
1624.246	1.194	correct	incongruent	Block2	incongruent/STIM_022.jpg
1628.112	0.821	correct	incongruent	Block2	incongruent/STIM_022.jpg
1631.343	0.829	correct	incongruent	Block2	incongruent/STIM_022.jpg
1634.993	0.776	correct	incongruent	Block2	incongruent/STIM_023.jpg
1639.167	0.753	correct	incongruent	Block2	incongruent/STIM_023.jpg
1643.42	1.226	correct	incongruent	Block2	incongruent/STIM_023.jpg
1648.007	0.657	correct	incongruent	Block2	incongruent/STIM_023.jpg
1650.794	0.755	correct	incongruent	Block2	incongruent/STIM_023.jpg
1653.576	0.947	correct	incongruent	Block2	incongruent/STIM_024.jpg
1658.275	1.266	correct	incongruent	Block2	incongruent/STIM_024.jpg
1662.493	0.821	correct	incongruent	Block2	incongruent/STIM_024.jpg
1666.513	0.625	correct	incongruent	Block2	incongruent/STIM_024.jpg
1669.281	0.588	correct	incongruent	Block2	incongruent/STIM_024.jpg
1671.905	0.76	correct	incongruent	Block2	incongruent/STIM_025.jpg
1674.806	1.206	correct	incongruent	Block2	incongruent/STIM_025.jpg
1679.97	0.747	incorrect	incongruent	Block2	incongruent/STIM_025.jpg
1683.969	0.859	incorrect	incongruent	Block2	incongruent/STIM_025.jpg
1687.32	1.081	correct	incongruent	Block2	incongruent/STIM_025.jpg
1691.704	1.1	correct	incongruent	Block2	incongruent/STIM_026.jpg
1696.732	1.166	correct	incongruent	Block2	incongruent/STIM_026.jpg
1701.674	0.586	correct	incongruent	Block2	incongruent/STIM_026.jpg
1704.372	0.908	correct	incongruent	Block2	incongruent/STIM_026.jpg
1708.186	0.559	correct	incongruent	Block2	incongruent/STIM_026.jpg
1711.863	0.851	correct	incongruent	Block2	incongruent/STIM_027.jpg
1715.972	1.241	correct	incongruent	Block2	incongruent/STIM_027.jpg
1720.301	0.644	correct	incongruent	Block2	incongruent/STIM_027.jpg
1724.922	0.741	correct	incongruent	Block2	incongruent/STIM_027.jpg
1728.559	0.545	correct	incongruent	Block2	incongruent/STIM_027.jpg
1731.23	0.851	correct	incongruent	Block2	incongruent/STIM_028.jpg
1734.551	1.31	correct	incongruent	Block2	incongruent/STIM_028.jpg
1738.107	1.134	correct	incongruent	Block2	incongruent/STIM_028.jpg
1742.384	0.559	correct	incongruent	Block2	incongruent/STIM_028.jpg
1746.54	0.816	correct	incongruent	Block2	incongruent/STIM_028.jpg
1750.42	1.382	correct	incongruent	Block2	incongruent/STIM_029.jpg
1755.233	0.907	correct	incongruent	Block2	incongruent/STIM_029.jpg
1758.916	1.055	correct	incongruent	Block2	incongruent/STIM_029.jpg
1763.549	1.044	correct	incongruent	Block2	incongruent/STIM_029.jpg
1768.354	0.583	correct	incongruent	Block2	incongruent/STIM_029.jpg
1772.065	0.648	correct	congruent	Block2	congruent/STIM_000.jpg
1774.762	0.944	correct	congruent	Block2	congruent/STIM_000.jpg
1778.11	0.875	correct	congruent	Block2	congruent/STIM_000.jpg
1782.217	0.714	correct	congruent	Block2	congruent/STIM_000.jpg
1785.786	0.58	correct	congruent	Block2	congruent/STIM_000.jpg
1788.922	0.931	correct	congruent	Block2	congruent/STIM_001.jpg
1792.203	0.595	correct	congruent	Block2	congruent/STIM_001.jpg
1795.978	0.624	correct	congruent	Block2	congruent/STIM_001.jpg
1800.082	0.553	correct	congruent	Block2	congruent/STIM_001.jpg
1803.653	0.742	correct	congruent	Block2	congruent/STIM_001.jpg
1806.705	0.9	correct	congruent	Block2	congruent/STIM_002.jpg
1809.88	0.904	correct	congruent	Block2	congruent/STIM_002.jpg
1814.141	0.649	correct	congruent	Block2	congruent/STIM_002.jpg
1817.961	0.57	correct	congruent	Block2	congruent/STIM_002.jpg
1822.248	0.562	incorrect	congruent	Block2	congruent/STIM_002.jpg
1826.801	0.796	correct	congruent	Block2	congruent/STIM_003.jpg
1831.425	0.79	correct	congruent	Block2	congruent/STIM_003.jpg
1834.599	0.655	correct	congruent	Block2	congruent/STIM_003.jpg
1837.831	0.55	correct	congruent	Block2	congruent/STIM_003.jpg
1840.62	0.864	correct	congruent	Block2	congruent/STIM_003.jpg
1844.902	0.651	correct	congruent	Block2	congruent/STIM_004.jpg
1848.131	0.668	correct	congruent	Block2	congruent/STIM_004.jpg
1851.15	0.863	correct	congruent	Block2	congruent/STIM_004.jpg
1854.723	0.954	correct	congruent	Block2	congruent/STIM_004.jpg
1859.343	0.55	incorrect	congruent	Block2	congruent/STIM_004.jpg
1863.846	0.91	correct	congruent	Block2	congruent/STIM_005.jpg
1867.713	0.812	correct	congruent	Block2	congruent/STIM_005.jpg
1872.372	0.81	correct	congruent	Block2	congruent/STIM_005.jpg
1875.862	0.838	correct	congruent	Block2	congruent/STIM_005.jpg
1879.054	0.866	incorrect	congruent	Block2	congruent/STIM_005.jpg
1882.631	0.927	correct	congruent	Block2	congruent/STIM_006.jpg
1887.059	0.958	correct	congruent	Block2	congruent/STIM_006.jpg
1892.005	0.714	correct	congruent	Block2	congruent/STIM_006.jpg
1895.985	0.818	correct	congruent	Block2	congruent/STIM_006.jpg
1900.251	0.664	correct	congruent	Block2	congruent/STIM_006.jpg
1904.054	0.749	correct	congruent	Block2	congruent/STIM_007.jpg
1907.392	0.586	correct	congruent	Block2	congruent/STIM_007.jpg
1911.689	0.772	correct	congruent	Block2	congruent/STIM_007.jpg
1914.788	0.968	correct	congruent	Block2	congruent/STIM_007.jpg
1919.239	0.775	correct	congruent	Block2	congruent/STIM_007.jpg
1923.053	0.561	correct	congruent	Block2	congruent/STIM_008.jpg
1927.489	0.579	correct	congruent	Block2	congruent/STIM_008.jpg
1931.512	0.931	correct	congruent	Block2	congruent/STIM_008.jpg
1935.15	0.565	correct	congruent	Block2	congruent/STIM_008.jpg
1938.416	0.674	incorrect	congruent	Block2	congruent/STIM_008.jpg
1941.418	0.748	correct	congruent	Block2	congruent/STIM_009.jpg
1945.717	0.961	correct	congruent	Block2	congruent/STIM_009.jpg
1949.334	0.586	correct	congruent	Block2	congruent/STIM_009.jpg
1952.581	0.864	correct	congruent	Block2	congruent/STIM_009.jpg
1955.493	0.596	correct	congruent	Block2	congruent/STIM_009.jpg
1959.105	0.558	correct	congruent	Block2	congruent/STIM_010.jpg
1962.901	0.575	correct	congruent	Block2	congruent/STIM_010.jpg
1966.412	0.686	correct	congruent	Block2	congruent/STIM_010.jpg
1970.556	0.697	correct	congruent	Block2	congruent/STIM_010.jpg
1974.222	0.952	correct	congruent	Block2	congruent/STIM_010.jpg
1977.517	0.767	correct	congruent	Block2	congruent/STIM_011.jpg
1980.687	0.71	correct	congruent	Block2	congruent/STIM_011.jpg
1984.577	0.84	correct	congruent	Block2	congruent/STIM_011.jpg
1987.908	0.55	correct	congruent	Block2	congruent/STIM_011.jpg
1992.23	0.638	correct	congruent	Block2	congruent/STIM_011.jpg
1995.822	0.971	correct	congruent	Block2	congruent/STIM_012.jpg
2000.275	0.87	correct	congruent	Block2	congruent/STIM_012.jpg
2004.792	0.817	correct	congruent	Block2	congruent/STIM_012.jpg
2008.223	0.889	correct	congruent	Block2	congruent/STIM_012.jpg
2011.618	0.6	correct	congruent	Block2	congruent/STIM_012.jpg
2014.57	0.622	correct	congruent	Block2	congruent/STIM_013.jpg
2017.492	0.89	correct	congruent	Block2	congruent/STIM_013.jpg
2021.135	0.929	correct	congruent	Block2	congruent/STIM_013.jpg
2024.892	0.648	correct	congruent	Block2	congruent/STIM_013.jpg
2029.337	0.738	correct	congruent	Block2	congruent/STIM_013.jpg
2033.931	0.774	correct	congruent	Block2	congruent/STIM_014.jpg
2037.13	0.899	correct	congruent	Block2	congruent/STIM_014.jpg
2041.872	0.872	correct	congruent	Block2	congruent/STIM_014.jpg
2046.688	0.796	correct	congruent	Block2	congruent/STIM_014.jpg
2050.82	0.917	correct	congruent	Block2	congruent/STIM_014.jpg
2055.394	0.968	correct	congruent	Block2	congruent/STIM_015.jpg
2059.011	0.558	correct	congruent	Block2	congruent/STIM_015.jpg
2062.494	0.792	correct	congruent	Block2	congruent/STIM_015.jpg
2065.678	0.868	correct	congruent	Block2	congruent/STIM_015.jpg
2069.799	0.579	incorrect	congruent	Block2	congruent/STIM_015.jpg
2073.072	0.814	correct	congruent	Block2	congruent/STIM_016.jpg
2077.634	0.778	incorrect	congruent	Block2	congruent/STIM_016.jpg
2081.342	0.595	correct	congruent	Block2	congruent/STIM_016.jpg
2084.228	0.824	correct	congruent	Block2	congruent/STIM_016.jpg
2087.192	0.617	correct	congruent	Block2	congruent/STIM_016.jpg
2090.974	0.838	correct	congruent	Block2	congruent/STIM_017.jpg
2095.764	0.572	correct	congruent	Block2	congruent/STIM_017.jpg
2098.777	0.806	correct	congruent	Block2	congruent/STIM_017.jpg
2101.905	0.57	correct	congruent	Block2	congruent/STIM_017.jpg
2105.162	0.61	incorrect	congruent	Block2	congruent/STIM_017.jpg
2109.458	0.641	correct	congruent	Block2	congruent/STIM_018.jpg
2112.863	0.922	correct	congruent	Block2	congruent/STIM_018.jpg
2115.837	0.741	correct	congruent	Block2	congruent/STIM_018.jpg
2120.518	0.753	correct	congruent	Block2	congruent/STIM_018.jpg
2125.088	0.698	correct	congruent	Block2	congruent/STIM_018.jpg
2129.057	0.67	correct	congruent	Block2	congruent/STIM_019.jpg
2131.946	0.705	correct	congruent	Block2	congruent/STIM_019.jpg
2134.85	0.667	correct	congruent	Block2	congruent/STIM_019.jpg
2139.261	0.892	correct	congruent	Block2	congruent/STIM_019.jpg
2143.79	0.825	correct	congruent	Block2	congruent/STIM_019.jpg
2147.162	0.842	correct	congruent	Block2	congruent/STIM_020.jpg
2151.291	0.797	correct	congruent	Block2	congruent/STIM_020.jpg
2155.617	0.802	correct	congruent	Block2	congruent/STIM_020.jpg
2158.582	0.828	incorrect	congruent	Block2	congruent/STIM_020.jpg
2162.321	0.678	correct	congruent	Block2	congruent/STIM_020.jpg
2165.12	0.907	correct	congruent	Block2	congruent/STIM_021.jpg
2169.302	0.849	correct	congruent	Block2	congruent/STIM_021.jpg
2173.187	0.598	correct	congruent	Block2	congruent/STIM_021.jpg
2177.464	0.818	correct	congruent	Block2	congruent/STIM_021.jpg
2181.578	0.979	correct	congruent	Block2	congruent/STIM_021.jpg
2185.886	0.878	correct	congruent	Block2	congruent/STIM_022.jpg
2189.5	0.671	correct	congruent	Block2	congruent/STIM_022.jpg
2193.014	0.956	correct	congruent	Block2	congruent/STIM_022.jpg
2196.801	0.864	incorrect	congruent	Block2	congruent/STIM_022.jpg
2199.866	0.702	correct	congruent	Block2	congruent/STIM_022.jpg
2203.381	0.955	correct	congruent	Block2	congruent/STIM_023.jpg
2207.778	0.805	correct	congruent	Block2	congruent/STIM_023.jpg
2212.022	0.682	correct	congruent	Block2	congruent/STIM_023.jpg
2215.029	0.8	correct	congruent	Block2	congruent/STIM_023.jpg
2218.312	0.821	correct	congruent	Block2	congruent/STIM_023.jpg
2221.767	0.83	correct	congruent	Block2	congruent/STIM_024.jpg
2225.287	0.802	correct	congruent	Block2	congruent/STIM_024.jpg
2228.633	0.973	correct	congruent	Block2	congruent/STIM_024.jpg
2232.015	0.674	correct	congruent	Block2	congruent/STIM_024.jpg
2235.978	0.566	correct	congruent	Block2	congruent/STIM_024.jpg
2240.396	0.748	correct	congruent	Block2	congruent/STIM_025.jpg
2244.871	0.901	correct	congruent	Block2	congruent/STIM_025.jpg
2249.189	0.741	correct	congruent	Block2	congruent/STIM_025.jpg
2253.59	0.888	correct	congruent	Block2	congruent/STIM_025.jpg
2257.444	0.83	correct	congruent	Block2	congruent/STIM_025.jpg
2261.338	0.94	correct	congruent	Block2	congruent/STIM_026.jpg
2264.502	0.842	correct	congruent	Block2	congruent/STIM_026.jpg
2267.769	0.75	incorrect	congruent	Block2	congruent/STIM_026.jpg
2270.837	0.97	correct	congruent	Block2	congruent/STIM_026.jpg
2274.093	0.933	correct	congruent	Block2	congruent/STIM_026.jpg
2278.109	0.786	correct	congruent	Block2	congruent/STIM_027.jpg
2281.189	0.977	correct	congruent	Block2	congruent/STIM_027.jpg
2286.012	0.574	correct	congruent	Block2	congruent/STIM_027.jpg
2289.93	0.548	correct	congruent	Block2	congruent/STIM_027.jpg
2294.112	0.721	correct	congruent	Block2	congruent/STIM_027.jpg
2297.643	0.782	correct	congruent	Block2	congruent/STIM_028.jpg
2300.883	0.677	correct	congruent	Block2	congruent/STIM_028.jpg
2303.581	0.593	correct	congruent	Block2	congruent/STIM_028.jpg
2307.991	0.655	correct	congruent	Block2	congruent/STIM_028.jpg
2311.196	0.6	correct	congruent	Block2	congruent/STIM_028.jpg
2314.6	0.781	correct	congruent	Block2	congruent/STIM_029.jpg
2319.181	0.882	correct	congruent	Block2	congruent/STIM_029.jpg
2322.935	0.827	correct	congruent	Block2	congruent/STIM_029.jpg
2325.865	0.739	correct	congruent	Block2	congruent/STIM_029.jpg
2328.765	0.642	correct	congruent	Block2	congruent/STIM_029.jpg
2333.313	0.846	correct	incongruent	Block3	incongruent/STIM_000.jpg
2338.068	0.834	correct	incongruent	Block3	incongruent/STIM_000.jpg
2341.284	0.615	correct	incongruent	Block3	incongruent/STIM_000.jpg
2345.552	0.803	correct	incongruent	Block3	incongruent/STIM_000.jpg
2350.35	0.939	correct	incongruent	Block3	incongruent/STIM_000.jpg
2354.069	0.671	correct	incongruent	Block3	incongruent/STIM_001.jpg
2358.614	0.58	correct	incongruent	Block3	incongruent/STIM_001.jpg
2362.223	1.121	correct	incongruent	Block3	incongruent/STIM_001.jpg
2365.875	0.559	correct	incongruent	Block3	incongruent/STIM_001.jpg
2369.712	0.591	correct	incongruent	Block3	incongruent/STIM_001.jpg
2374.247	1.031	correct	incongruent	Block3	incongruent/STIM_002.jpg
2377.818	1.034	correct	incongruent	Block3	incongruent/STIM_002.jpg
2382.502	0.551	correct	incongruent	Block3	incongruent/STIM_002.jpg
2386.536	1.042	correct	incongruent	Block3	incongruent/STIM_002.jpg
2389.996	0.999	correct	incongruent	Block3	incongruent/STIM_002.jpg
2394.155	0.948	correct	incongruent	Block3	incongruent/STIM_003.jpg
2397.898	0.995	correct	incongruent	Block3	incongruent/STIM_003.jpg
2402.225	1.023	correct	incongruent	Block3	incongruent/STIM_003.jpg
2406.188	0.772	incorrect	incongruent	Block3	incongruent/STIM_003.jpg
2410.658	0.67	correct	incongruent	Block3	incongruent/STIM_003.jpg
2413.567	0.841	correct	incongruent	Block3	incongruent/STIM_004.jpg
2418.361	1.058	correct	incongruent	Block3	incongruent/STIM_004.jpg
2421.653	0.984	correct	incongruent	Block3	incongruent/STIM_004.jpg
2426.624	1.113	correct	incongruent	Block3	incongruent/STIM_004.jpg
2430.455	0.984	correct	incongruent	Block3	incongruent/STIM_004.jpg
2435.147	0.943	correct	incongruent	Block3	incongruent/STIM_005.jpg
2438.283	0.927	correct	incongruent	Block3	incongruent/STIM_005.jpg
2441.655	0.952	correct	incongruent	Block3	incongruent/STIM_005.jpg
2444.855	0.944	correct	incongruent	Block3	incongruent/STIM_005.jpg
2447.832	0.968	correct	incongruent	Block3	incongruent/STIM_005.jpg
2451.522	0.705	correct	incongruent	Block3	incongruent/STIM_006.jpg
2455.255	0.974	correct	incongruent	Block3	incongruent/STIM_006.jpg
2459.581	1.071	correct	incongruent	Block3	incongruent/STIM_006.jpg
2462.874	0.795	correct	incongruent	Block3	incongruent/STIM_006.jpg
2465.828	0.874	correct	incongruent	Block3	incongruent/STIM_006.jpg
2469.593	0.687	correct	incongruent	Block3	incongruent/STIM_007.jpg
2473.741	0.63	correct	incongruent	Block3	incongruent/STIM_007.jpg
2477.555	0.97	correct	incongruent	Block3	incongruent/STIM_007.jpg
2480.637	0.556	correct	incongruent	Block3	incongruent/STIM_007.jpg
2483.453	0.678	correct	incongruent	Block3	incongruent/STIM_007.jpg
2486.728	1.002	correct	incongruent	Block3	incongruent/STIM_008.jpg
2491.651	1.117	correct	incongruent	Block3	incongruent/STIM_008.jpg
2496.331	0.839	correct	incongruent	Block3	incongruent/STIM_008.jpg
2500.715	0.822	correct	incongruent	Block3	incongruent/STIM_008.jpg
2504.573	0.987	correct	incongruent	Block3	incongruent/STIM_008.jpg
2508.282	0.568	correct	incongruent	Block3	incongruent/STIM_009.jpg
2512.126	0.638	correct	incongruent	Block3	incongruent/STIM_009.jpg
2514.942	0.97	correct	incongruent	Block3	incongruent/STIM_009.jpg
2519.464	0.757	correct	incongruent	Block3	incongruent/STIM_009.jpg
2523.197	0.915	correct	incongruent	Block3	incongruent/STIM_009.jpg
2527.587	0.564	correct	incongruent	Block3	incongruent/STIM_010.jpg
2531.085	0.66	correct	incongruent	Block3	incongruent/STIM_010.jpg
2535.734	0.685	correct	incongruent	Block3	incongruent/STIM_010.jpg
2539.453	0.871	correct	incongruent	Block3	incongruent/STIM_010.jpg
2543.737	0.593	correct	incongruent	Block3	incongruent/STIM_010.jpg
2546.836	0.73	correct	incongruent	Block3	incongruent/STIM_011.jpg
2550.18	0.793	correct	incongruent	Block3	incongruent/STIM_011.jpg
2554.475	0.997	correct	incongruent	Block3	incongruent/STIM_011.jpg
2557.923	0.604	correct	incongruent	Block3	incongruent/STIM_011.jpg
2561.562	0.991	correct	incongruent	Block3	incongruent/STIM_011.jpg
2565.913	1.031	correct	incongruent	Block3	incongruent/STIM_012.jpg
2569.497	0.576	correct	incongruent	Block3	incongruent/STIM_012.jpg
2573.243	1.031	correct	incongruent	Block3	incongruent/STIM_012.jpg
2576.935	0.973	correct	incongruent	Block3	incongruent/STIM_012.jpg
2581.889	1.062	correct	incongruent	Block3	incongruent/STIM_012.jpg
2586.003	1.041	correct	incongruent	Block3	incongruent/STIM_013.jpg
2590.808	0.681	correct	incongruent	Block3	incongruent/STIM_013.jpg
2594.649	1.031	correct	incongruent	Block3	incongruent/STIM_013.jpg
2598.398	0.539	correct	incongruent	Block3	incongruent/STIM_013.jpg
2602.528	1.081	correct	incongruent	Block3	incongruent/STIM_013.jpg
2607.057	0.986	incorrect	incongruent	Block3	incongruent/STIM_014.jpg
2610.319	0.544	correct	incongruent	Block3	incongruent/STIM_014.jpg
2614.204	0.646	correct	incongruent	Block3	incongruent/STIM_014.jpg
2617.739	0.646	correct	incongruent	Block3	incongruent/STIM_014.jpg
2621.732	0.582	correct	incongruent	Block3	incongruent/STIM_014.jpg
2625.2	0.569	correct	incongruent	Block3	incongruent/STIM_015.jpg
2629.282	0.549	incorrect	incongruent	Block3	incongruent/STIM_015.jpg
2632.453	1.086	correct	incongruent	Block3	incongruent/STIM_015.jpg
2637.437	1.11	correct	incongruent	Block3	incongruent/STIM_015.jpg
2641.879	1.024	correct	incongruent	Block3	incongruent/STIM_015.jpg
2645.166	1.072	correct	incongruent	Block3	incongruent/STIM_016.jpg
2649.256	1.147	correct	incongruent	Block3	incongruent/STIM_016.jpg
2653.071	0.566	correct	incongruent	Block3	incongruent/STIM_016.jpg
2656.458	1.101	correct	incongruent	Block3	incongruent/STIM_016.jpg
2660.21	0.714	correct	incongruent	Block3	incongruent/STIM_016.jpg
2663.106	0.703	correct	incongruent	Block3	incongruent/STIM_017.jpg
2666.664	1.0	correct	incongruent	Block3	incongruent/STIM_017.jpg
2670.138	1.049	correct	incongruent	Block3	incongruent/STIM_017.jpg
2673.476	0.787	correct	incongruent	Block3	incongruent/STIM_017.jpg
2678.206	1.07	correct	incongruent	Block3	incongruent/STIM_017.jpg
2682.371	0.59	correct	incongruent	Block3	incongruent/STIM_018.jpg
2685.957	1.09	correct	incongruent	Block3	incongruent/STIM_018.jpg
2690.537	0.732	correct	incongruent	Block3	incongruent/STIM_018.jpg
2694.815	0.863	correct	incongruent	Block3	incongruent/STIM_018.jpg
2698.837	0.976	correct	incongruent	Block3	incongruent/STIM_018.jpg
2703.282	0.843	incorrect	incongruent	Block3	incongruent/STIM_019.jpg
2706.363	0.556	correct	incongruent	Block3	incongruent/STIM_019.jpg
2709.002	1.118	correct	incongruent	Block3	incongruent/STIM_019.jpg
2713.358	1.139	correct	incongruent	Block3	incongruent/STIM_019.jpg
2716.781	0.552	correct	incongruent	Block3	incongruent/STIM_019.jpg
2720.362	0.976	correct	incongruent	Block3	incongruent/STIM_020.jpg
2725.107	0.91	correct	incongruent	Block3	incongruent/STIM_020.jpg
2729.077	0.952	correct	incongruent	Block3	incongruent/STIM_020.jpg
2733.942	0.918	correct	incongruent	Block3	incongruent/STIM_020.jpg
2738.263	0.732	correct	incongruent	Block3	incongruent/STIM_020.jpg
2741.521	0.76	correct	incongruent	Block3	incongruent/STIM_021.jpg
2744.575	0.985	correct	incongruent	Block3	incongruent/STIM_021.jpg
2748.213	0.564	correct	incongruent	Block3	incongruent/STIM_021.jpg
2752.571	0.687	correct	incongruent	Block3	incongruent/STIM_021.jpg
2756.206	0.706	correct	incongruent	Block3	incongruent/STIM_021.jpg
2760.296	0.896	correct	incongruent	Block3	incongruent/STIM_022.jpg
2764.181	0.79	correct	incongruent	Block3	incongruent/STIM_022.jpg
2768.456	0.848	correct	incongruent	Block3	incongruent/STIM_022.jpg
2772.322	0.768	correct	incongruent	Block3	incongruent/STIM_022.jpg
2776.085	0.746	correct	incongruent	Block3	incongruent/STIM_022.jpg
2780.549	0.966	correct	incongruent	Block3	incongruent/STIM_023.jpg
2784.504	1.084	correct	incongruent	Block3	incongruent/STIM_023.jpg
2789.365	0.792	correct	incongruent	Block3	incongruent/STIM_023.jpg
2793.438	0.824	correct	incongruent	Block3	incongruent/STIM_023.jpg
2796.44	0.701	correct	incongruent	Block3	incongruent/STIM_023.jpg
2799.508	1.107	correct	incongruent	Block3	incongruent/STIM_024.jpg
2803.672	0.779	correct	incongruent	Block3	incongruent/STIM_024.jpg
2807.011	0.759	correct	incongruent	Block3	incongruent/STIM_024.jpg
2809.925	1.055	correct	incongruent	Block3	incongruent/STIM_024.jpg
2813.408	0.764	correct	incongruent	Block3	incongruent/STIM_024.jpg
2818.048	0.998	correct	incongruent	Block3	incongruent/STIM_025.jpg
2821.961	0.619	correct	incongruent	Block3	incongruent/STIM_025.jpg
2825.203	0.743	correct	incongruent	Block3	incongruent/STIM_025.jpg
2829.701	0.709	correct	incongruent	Block3	incongruent/STIM_025.jpg
2834.307	0.562	correct	incongruent	Block3	incongruent/STIM_025.jpg
2837.793	0.674	correct	incongruent	Block3	incongruent/STIM_026.jpg
2840.691	0.813	correct	incongruent	Block3	incongruent/STIM_026.jpg
2845.402	0.786	correct	incongruent	Block3	incongruent/STIM_026.jpg
2849.865	0.7	correct	incongruent	Block3	incongruent/STIM_026.jpg
2853.293	0.584	correct	incongruent	Block3	incongruent/STIM_026.jpg
2856.173	0.841	correct	incongruent	Block3	incongruent/STIM_027.jpg
2860.793	1.047	correct	incongruent	Block3	incongruent/STIM_027.jpg
2865.091	0.844	correct	incongruent	Block3	incongruent/STIM_027.jpg
2869.73	0.72	correct	incongruent	Block3	incongruent/STIM_027.jpg
2872.505	1.146	correct	incongruent	Block3	incongruent/STIM_027.jpg
2877.46	0.592	correct	incongruent	Block3	incongruent/STIM_028.jpg
2881.567	0.605	correct	incongruent	Block3	incongruent/STIM_028.jpg
2884.664	0.544	correct	incongruent	Block3	incongruent/STIM_028.jpg
2888.317	0.794	correct	incongruent	Block3	incongruent/STIM_028.jpg
2892.221	1.025	correct	incongruent	Block3	incongruent/STIM_028.jpg
2895.697	0.573	correct	incongruent	Block3	incongruent/STIM_029.jpg
2898.93	0.983	correct	incongruent	Block3	incongruent/STIM_029.jpg
2903.378	1.089	correct	incongruent	Block3	incongruent/STIM_029.jpg
2906.603	1.001	correct	incongruent	Block3	incongruent/STIM_029.jpg
2911.278	1.123	correct	incongruent	Block3	incongruent/STIM_029.jpg
2915.137	0.718	correct	congruent	Block3	congruent/STIM_000.jpg
2918.986	0.917	correct	congruent	Block3	congruent/STIM_000.jpg
2922.867	0.902	correct	congruent	Block3	congruent/STIM_000.jpg
2926.898	0.943	correct	congruent	Block3	congruent/STIM_000.jpg
2930.839	0.631	correct	congruent	Block3	congruent/STIM_000.jpg
2934.251	0.697	correct	congruent	Block3	congruent/STIM_001.jpg
2938.667	0.616	correct	congruent	Block3	congruent/STIM_001.jpg
2941.715	0.634	correct	congruent	Block3	congruent/STIM_001.jpg
2945.932	0.591	correct	congruent	Block3	congruent/STIM_001.jpg
2948.604	0.929	correct	congruent	Block3	congruent/STIM_001.jpg
2951.787	0.722	correct	congruent	Block3	congruent/STIM_002.jpg
2955.142	0.554	correct	congruent	Block3	congruent/STIM_002.jpg
2958.265	0.781	correct	congruent	Block3	congruent/STIM_002.jpg
2961.935	0.679	correct	congruent	Block3	congruent/STIM_002.jpg
2965.414	0.885	correct	congruent	Block3	congruent/STIM_002.jpg
2968.531	0.796	correct	congruent	Block3	congruent/STIM_003.jpg
2972.221	0.898	correct	congruent	Block3	congruent/STIM_003.jpg
2975.876	0.948	correct	congruent	Block3	congruent/STIM_003.jpg
2979.144	0.769	correct	congruent	Block3	congruent/STIM_003.jpg
2983.614	0.965	incorrect	congruent	Block3	congruent/STIM_003.jpg
2987.933	0.706	correct	congruent	Block3	congruent/STIM_004.jpg
2990.875	0.55	correct	congruent	Block3	congruent/STIM_004.jpg
2994.783	0.914	incorrect	congruent	Block3	congruent/STIM_004.jpg
2998.941	0.803	correct	congruent	Block3	congruent/STIM_004.jpg
3003.469	0.942	correct	congruent	Block3	congruent/STIM_004.jpg
3006.441	0.628	correct	congruent	Block3	congruent/STIM_005.jpg
3010.572	0.788	correct	congruent	Block3	congruent/STIM_005.jpg
3014.137	0.635	correct	congruent	Block3	congruent/STIM_005.jpg
3017.527	0.908	correct	congruent	Block3	congruent/STIM_005.jpg
3020.569	0.732	correct	congruent	Block3	congruent/STIM_005.jpg
3025.059	0.956	correct	congruent	Block3	congruent/STIM_006.jpg
3029.358	0.836	correct	congruent	Block3	congruent/STIM_006.jpg
3032.797	0.956	correct	congruent	Block3	congruent/STIM_006.jpg
3035.827	0.791	correct	congruent	Block3	congruent/STIM_006.jpg
3038.863	0.711	correct	congruent	Block3	congruent/STIM_006.jpg
3042.729	0.639	correct	congruent	Block3	congruent/STIM_007.jpg
3045.813	0.936	correct	congruent	Block3	congruent/STIM_007.jpg
3048.833	0.676	incorrect	congruent	Block3	congruent/STIM_007.jpg
3051.854	0.789	correct	congruent	Block3	congruent/STIM_007.jpg
3054.96	0.619	correct	congruent	Block3	congruent/STIM_007.jpg
3058.506	0.899	correct	congruent	Block3	congruent/STIM_008.jpg
3061.841	0.729	correct	congruent	Block3	congruent/STIM_008.jpg
3066.473	0.791	correct	congruent	Block3	congruent/STIM_008.jpg
3070.466	0.78	correct	congruent	Block3	congruent/STIM_008.jpg
3073.994	0.954	correct	congruent	Block3	congruent/STIM_008.jpg
3077.281	0.633	correct	congruent	Block3	congruent/STIM_009.jpg
3081.845	0.923	correct	congruent	Block3	congruent/STIM_009.jpg
3085.43	0.736	incorrect	congruent	Block3	congruent/STIM_009.jpg
3088.942	0.822	correct	congruent	Block3	congruent/STIM_009.jpg
3092.678	0.76	incorrect	congruent	Block3	congruent/STIM_009.jpg
3096.667	0.8	correct	congruent	Block3	congruent/STIM_010.jpg
3100.043	0.622	correct	congruent	Block3	congruent/STIM_010.jpg
3104.131	0.811	correct	congruent	Block3	congruent/STIM_010.jpg
3108.549	0.632	correct	congruent	Block3	congruent/STIM_010.jpg
3112.804	0.821	correct	congruent	Block3	congruent/STIM_010.jpg
3117.222	0.611	correct	congruent	Block3	congruent/STIM_011.jpg
3121.791	0.906	incorrect	congruent	Block3	congruent/STIM_011.jpg
3126.375	0.881	correct	congruent	Block3	congruent/STIM_011.jpg
3129.588	0.653	correct	congruent	Block3	congruent/STIM_011.jpg
3134.142	0.573	correct	congruent	Block3	congruent/STIM_011.jpg
3137.948	0.578	correct	congruent	Block3	congruent/STIM_012.jpg
3140.646	0.701	correct	congruent	Block3	congruent/STIM_012.jpg
3144.367	0.906	correct	congruent	Block3	congruent/STIM_012.jpg
3148.066	0.832	correct	congruent	Block3	congruent/STIM_012.jpg
3151.811	0.557	correct	congruent	Block3	congruent/STIM_012.jpg
3154.954	0.648	correct	congruent	Block3	congruent/STIM_013.jpg
3158.271	0.984	correct	congruent	Block3	congruent/STIM_013.jpg
3162.989	0.849	correct	congruent	Block3	congruent/STIM_013.jpg
3167.308	0.979	correct	congruent	Block3	congruent/STIM_013.jpg
3170.722	0.794	correct	congruent	Block3	congruent/STIM_013.jpg
3175.308	0.89	correct	congruent	Block3	congruent/STIM_014.jpg
3179.468	0.566	correct	congruent	Block3	congruent/STIM_014.jpg
3182.74	0.552	incorrect	congruent	Block3	congruent/STIM_014.jpg
3186.395	0.577	correct	congruent	Block3	congruent/STIM_014.jpg
3189.012	0.64	correct	congruent	Block3	congruent/STIM_014.jpg
3193.173	0.804	correct	congruent	Block3	congruent/STIM_015.jpg
3197.889	0.59	correct	congruent	Block3	congruent/STIM_015.jpg
3200.699	0.677	correct	congruent	Block3	congruent/STIM_015.jpg
3204.006	0.702	correct	congruent	Block3	congruent/STIM_015.jpg
3206.761	0.83	correct	congruent	Block3	congruent/STIM_015.jpg
3210.34	0.568	correct	congruent	Block3	congruent/STIM_016.jpg
3214.387	0.821	correct	congruent	Block3	congruent/STIM_016.jpg
3217.357	0.589	correct	congruent	Block3	congruent/STIM_016.jpg
3220.494	0.955	correct	congruent	Block3	congruent/STIM_016.jpg
3224.485	0.669	correct	congruent	Block3	congruent/STIM_016.jpg
3227.505	0.692	correct	congruent	Block3	congruent/STIM_017.jpg
3230.389	0.762	correct	congruent	Block3	congruent/STIM_017.jpg
3233.991	0.634	correct	congruent	Block3	congruent/STIM_017.jpg
3237.739	0.63	correct	congruent	Block3	congruent/STIM_017.jpg
3241.335	0.89	incorrect	congruent	Block3	congruent/STIM_017.jpg
3244.554	0.954	correct	congruent	Block3	congruent/STIM_018.jpg
3247.789	0.865	correct	congruent	Block3	congruent/STIM_018.jpg
3252.064	0.971	correct	congruent	Block3	congruent/STIM_018.jpg
3256.019	0.802	correct	congruent	Block3	congruent/STIM_018.jpg
3259.236	0.706	correct	congruent	Block3	congruent/STIM_018.jpg
3263.109	0.756	correct	congruent	Block3	congruent/STIM_019.jpg
3266.898	0.74	correct	congruent	Block3	congruent/STIM_019.jpg
3270.138	0.96	correct	congruent	Block3	congruent/STIM_019.jpg
3273.114	0.598	correct	congruent	Block3	congruent/STIM_019.jpg
3275.901	0.638	correct	congruent	Block3	congruent/STIM_019.jpg
3278.83	0.563	correct	congruent	Block3	congruent/STIM_020.jpg
3281.835	0.962	correct	congruent	Block3	congruent/STIM_020.jpg
3286.284	0.873	correct	congruent	Block3	congruent/STIM_020.jpg
3290.726	0.902	correct	congruent	Block3	congruent/STIM_020.jpg
3294.924	0.807	correct	congruent	Block3	congruent/STIM_020.jpg
3297.955	0.917	correct	congruent	Block3	congruent/STIM_021.jpg
3301.069	0.919	correct	congruent	Block3	congruent/STIM_021.jpg
3305.564	0.918	correct	congruent	Block3	congruent/STIM_021.jpg
3309.411	0.822	correct	congruent	Block3	congruent/STIM_021.jpg
3313.803	0.891	correct	congruent	Block3	congruent/STIM_021.jpg
3317.913	0.586	correct	congruent	Block3	congruent/STIM_022.jpg
3321.875	0.553	correct	congruent	Block3	congruent/STIM_022.jpg
3324.834	0.675	correct	congruent	Block3	congruent/STIM_022.jpg
3327.81	0.684	correct	congruent	Block3	congruent/STIM_022.jpg
3330.785	0.633	correct	congruent	Block3	congruent/STIM_022.jpg
3334.535	0.671	correct	congruent	Block3	congruent/STIM_023.jpg
3338.195	0.779	correct	congruent	Block3	congruent/STIM_023.jpg
3342.967	0.787	correct	congruent	Block3	congruent/STIM_023.jpg
3347.324	0.642	correct	congruent	Block3	congruent/STIM_023.jpg
3350.709	0.874	correct	congruent	Block3	congruent/STIM_023.jpg
3355.503	0.656	correct	congruent	Block3	congruent/STIM_024.jpg
3358.439	0.729	correct	congruent	Block3	congruent/STIM_024.jpg
3362.884	0.91	correct	congruent	Block3	congruent/STIM_024.jpg
3366.303	0.691	correct	congruent	Block3	congruent/STIM_024.jpg
3370.26	0.96	correct	congruent	Block3	congruent/STIM_024.jpg
3373.67	0.6	correct	congruent	Block3	congruent/STIM_025.jpg
3377.141	0.908	correct	congruent	Block3	congruent/STIM_025.jpg
3380.777	0.809	correct	congruent	Block3	congruent/STIM_025.jpg
3385.352	0.558	correct	congruent	Block3	congruent/STIM_025.jpg
3388.933	0.814	correct	congruent	Block3	congruent/STIM_025.jpg
3391.922	0.609	correct	congruent	Block3	congruent/STIM_026.jpg
3395.462	0.842	correct	congruent	Block3	congruent/STIM_026.jpg
3398.664	0.959	correct	congruent	Block3	congruent/STIM_026.jpg
3402.116	0.628	correct	congruent	Block3	congruent/STIM_026.jpg
3405.297	0.609	correct	congruent	Block3	congruent/STIM_026.jpg
3408.786	0.883	correct	congruent	Block3	congruent/STIM_027.jpg
3412.684	0.565	correct	congruent	Block3	congruent/STIM_027.jpg
3416.929	0.895	correct	congruent	Block3	congruent/STIM_027.jpg
3420.217	0.929	correct	congruent	Block3	congruent/STIM_027.jpg
3423.843	0.842	correct	congruent	Block3	congruent/STIM_027.jpg
3427.412	0.676	correct	congruent	Block3	congruent/STIM_028.jpg
3430.391	0.843	correct	congruent	Block3	congruent/STIM_028.jpg
3434.754	0.724	correct	congruent	Block3	congruent/STIM_028.jpg
3439.445	0.701	correct	congruent	Block3	congruent/STIM_028.jpg
3443.88	0.774	correct	congruent	Block3	congruent/STIM_028.jpg
3447.566	0.857	correct	congruent	Block3	congruent/STIM_029.jpg
3450.767	0.892	correct	congruent	Block3	congruent/STIM_029.jpg
3455.007	0.87	correct	congruent	Block3	congruent/STIM_029.jpg
3458.854	0.964	correct	congruent	Block3	congruent/STIM_029.jpg
3463.026	0.824	correct	congruent	Block3	congruent/STIM_029.jpg
