onset	duration	response_time_ms	trial_type	learning_stage	stimulus	response_port
0.0	0.822	822.0	incongruent	Block1	incongruent/STIM_000.jpg	99
4.251	0.908	908.5	incongruent	Block1	incongruent/STIM_000.jpg	99
8.046	0.899	898.9	incongruent	Block1	incongruent/STIM_000.jpg	99
12.309	1.212	1212.4	incongruent	Block1	incongruent/STIM_000.jpg	99
15.843	1.101	1100.9	incongruent	Block1	incongruent/STIM_000.jpg	99
19.69	1.166	1166.4	incongruent	Block1	incongruent/STIM_001.jpg	100
23.28	0.845	845.1	incongruent	Block1	incongruent/STIM_001.jpg	99
26.733	0.698	698.4	incongruent	Block1	incongruent/STIM_001.jpg	99
31.094	0.897	897.1	incongruent	Block1	incongruent/STIM_001.jpg	99
35.111	0.926	925.9	incongruent	Block1	incongruent/STIM_001.jpg	99
39.619	1.372	1372.2	incongruent	Block1	incongruent/STIM_002.jpg	99
43.8	0.885	885.3	incongruent	Block1	incongruent/STIM_002.jpg	99
47.321	0.788	787.9	incongruent	Block1	incongruent/STIM_002.jpg	100
51.526	1.329	1329.2	incongruent	Block1	incongruent/STIM_002.jpg	100
56.16	0.97	970.3	incongruent	Block1	incongruent/STIM_002.jpg	100
59.515	1.222	1222.1	incongruent	Block1	incongruent/STIM_003.jpg	99
64.557	1.231	1231.0	incongruent	Block1	incongruent/STIM_003.jpg	100
67.985	0.692	692.5	incongruent	Block1	incongruent/STIM_003.jpg	100
71.257	1.105	1104.6	incongruent	Block1	incongruent/STIM_003.jpg	100
76.321	1.277	1276.9	incongruent	Block1	incongruent/STIM_003.jpg	100
80.958	1.234	1234.0	incongruent	Block1	incongruent/STIM_004.jpg	100
85.772	1.493	1493.0	incongruent	Block1	incongruent/STIM_004.jpg	100
91.104	1.348	1348.2	incongruent	Block1	incongruent/STIM_004.jpg	99
94.694	1.164	1164.5	incongruent	Block1	incongruent/STIM_004.jpg	99
98.351	0.998	998.3	incongruent	Block1	incongruent/STIM_004.jpg	100
103.328	1.426	1426.1	incongruent	Block1	incongruent/STIM_005.jpg	99
108.064	1.312	1312.3	incongruent	Block1	incongruent/STIM_005.jpg	100
113.024	1.17	1170.4	incongruent	Block1	incongruent/STIM_005.jpg	99
116.817	0.889	889.4	incongruent	Block1	incongruent/STIM_005.jpg	100
121.449	0.808	808.3	incongruent	Block1	incongruent/STIM_005.jpg	100
124.836	0.818	817.6	incongruent	Block1	incongruent/STIM_006.jpg	100
129.268	1.542	1541.8	incongruent	Block1	incongruent/STIM_006.jpg	99
134.184	1.162	1162.0	incongruent	Block1	incongruent/STIM_006.jpg	99
138.594	1.237	1236.6	incongruent	Block1	incongruent/STIM_006.jpg	100
142.51	1.108	1108.5	incongruent	Block1	incongruent/STIM_006.jpg	100
146.81	1.199	1199.2	incongruent	Block1	incongruent/STIM_007.jpg	100
150.998	1.26	1259.8	incongruent	Block1	incongruent/STIM_007.jpg	100
154.762	0.73	730.1	incongruent	Block1	incongruent/STIM_007.jpg	99
158.096	0.669	669.0	incongruent	Block1	incongruent/STIM_007.jpg	100
162.349	1.217	1216.8	incongruent	Block1	incongruent/STIM_007.jpg	100
165.919	1.099	1099.4	incongruent	Block1	incongruent/STIM_008.jpg	100
170.825	1.001	1001.3	incongruent	Block1	incongruent/STIM_008.jpg	100
174.196	1.227	1227.4	incongruent	Block1	incongruent/STIM_008.jpg	100
179.132	1.14	1139.6	incongruent	Block1	incongruent/STIM_008.jpg	99
183.755	1.13	1129.9	incongruent	Block1	incongruent/STIM_008.jpg	99
188.507	1.629	1629.4	incongruent	Block1	incongruent/STIM_009.jpg	99
192.876	0.955	954.6	incongruent	Block1	incongruent/STIM_009.jpg	100
197.063	0.815	815.2	incongruent	Block1	incongruent/STIM_009.jpg	100
201.73	0.851	850.6	incongruent	Block1	incongruent/STIM_009.jpg	100
205.523	0.692	691.8	incongruent	Block1	incongruent/STIM_009.jpg	99
209.417	1.095	1094.6	incongruent	Block1	incongruent/STIM_010.jpg	99
213.347	0.892	892.3	incongruent	Block1	incongruent/STIM_010.jpg	100
216.675	1.105	1104.8	incongruent	Block1	incongruent/STIM_010.jpg	99
221.097	1.148	1147.5	incongruent	Block1	incongruent/STIM_010.jpg	99
224.856	1.116	1115.6	incongruent	Block1	incongruent/STIM_010.jpg	100
228.591	1.479	1478.7	incongruent	Block1	incongruent/STIM_011.jpg	100
232.555	1.118	1118.3	incongruent	Block1	incongruent/STIM_011.jpg	100
237.328	1.016	1016.3	incongruent	Block1	incongruent/STIM_011.jpg	100
240.519	0.746	746.2	incongruent	Block1	incongruent/STIM_011.jpg	99
244.057	1.101	1100.9	incongruent	Block1	incongruent/STIM_011.jpg	99
247.455	0.941	941.4	incongruent	Block1	incongruent/STIM_012.jpg	99
252.236	0.877	876.7	incongruent	Block1	incongruent/STIM_012.jpg	100
256.768	1.282	1282.5	incongruent	Block1	incongruent/STIM_012.jpg	100
261.723	0.674	673.5	incongruent	Block1	incongruent/STIM_012.jpg	99
264.594	1.219	1219.4	incongruent	Block1	incongruent/STIM_012.jpg	99
268.392	1.13	1130.3	incongruent	Block1	incongruent/STIM_013.jpg	100
272.541	1.552	1551.7	incongruent	Block1	incongruent/STIM_013.jpg	100
276.315	0.787	787.0	incongruent	Block1	incongruent/STIM_013.jpg	99
281.016	0.819	819.1	incongruent	Block1	incongruent/STIM_013.jpg	99
284.029	1.018	1017.5	incongruent	Block1	incongruent/STIM_013.jpg	100
288.151	0.835	834.7	incongruent	Block1	incongruent/STIM_014.jpg	100
292.18	1.438	1438.3	incongruent	Block1	incongruent/STIM_014.jpg	99
297.089	1.21	1209.5	incongruent	Block1	incongruent/STIM_014.jpg	99
301.374	1.005	1004.9	incongruent	Block1	incongruent/STIM_014.jpg	99
304.806	1.099	1098.9	incongruent	Block1	incongruent/STIM_014.jpg	100
309.581	0.974	973.6	incongruent	Block1	incongruent/STIM_015.jpg	100
313.319	0.952	952.0	incongruent	Block1	incongruent/STIM_015.jpg	100
316.365	1.427	1427.3	incongruent	Block1	incongruent/STIM_015.jpg	100
321.609	1.166	1166.1	incongruent	Block1	incongruent/STIM_015.jpg	100
326.618	1.088	1087.7	incongruent	Block1	incongruent/STIM_015.jpg	100
330.605	1.629	1629.1	incongruent	Block1	incongruent/STIM_016.jpg	100
336.122	1.469	1468.9	incongruent	Block1	incongruent/STIM_016.jpg	99
340.903	0.72	720.0	incongruent	Block1	incongruent/STIM_016.jpg	99
343.906	1.317	1316.6	incongruent	Block1	incongruent/STIM_016.jpg	100
348.551	0.726	726.0	incongruent	Block1	incongruent/STIM_016.jpg	99
352.69	1.348	1347.8	incongruent	Block1	incongruent/STIM_017.jpg	100
356.783	1.222	1222.1	incongruent	Block1	incongruent/STIM_017.jpg	99
361.459	0.729	729.0	incongruent	Block1	incongruent/STIM_017.jpg	100
364.33	0.759	759.0	incongruent	Block1	incongruent/STIM_017.jpg	100
368.425	0.686	686.4	incongruent	Block1	incongruent/STIM_017.jpg	99
372.365	1.432	1432.1	incongruent	Block1	incongruent/STIM_018.jpg	99
377.177	1.05	1050.4	incongruent	Block1	incongruent/STIM_018.jpg	99
380.492	0.778	778.0	incongruent	Block1	incongruent/STIM_018.jpg	99
383.761	1.099	1099.2	incongruent	Block1	incongruent/STIM_018.jpg	100
387.852	0.801	801.1	incongruent	Block1	incongruent/STIM_018.jpg	99
391.752	0.888	888.5	incongruent	Block1	incongruent/STIM_019.jpg	100
396.092	1.011	1011.2	incongruent	Block1	incongruent/STIM_019.jpg	100
400.119	1.474	1474.5	incongruent	Block1	incongruent/STIM_019.jpg	100
404.38	1.052	1052.4	incongruent	Block1	incongruent/STIM_019.jpg	99
409.221	0.786	786.4	incongruent	Block1	incongruent/STIM_019.jpg	100
412.69	0.946	946.3	incongruent	Block1	incongruent/STIM_020.jpg	100
417.005	1.333	1333.0	incongruent	Block1	incongruent/STIM_020.jpg	100
421.546	1.072	1071.8	incongruent	Block1	incongruent/STIM_020.jpg	99
426.062	1.329	1328.9	incongruent	Block1	incongruent/STIM_020.jpg	99
430.537	0.863	862.8	incongruent	Block1	incongruent/STIM_020.jpg	99
433.406	1.122	1121.7	incongruent	Block1	incongruent/STIM_021.jpg	99
437.242	1.22	1219.8	incongruent	Block1	incongruent/STIM_021.jpg	99
441.753	1.205	1204.6	incongruent	Block1	incongruent/STIM_021.jpg	100
445.955	0.747	747.4	incongruent	Block1	incongruent/STIM_021.jpg	99
449.511	1.067	1067.4	incongruent	Block1	incongruent/STIM_021.jpg	99
454.002	1.177	1176.9	incongruent	Block1	incongruent/STIM_022.jpg	100
457.462	0.765	765.3	incongruent	Block1	incongruent/STIM_022.jpg	99
461.24	0.929	928.9	incongruent	Block1	incongruent/STIM_022.jpg	100
465.392	0.752	751.8	incongruent	Block1	incongruent/STIM_022.jpg	100
469.729	0.845	844.8	incongruent	Block1	incongruent/STIM_022.jpg	99
473.422	1.61	1609.7	incongruent	Block1	incongruent/STIM_023.jpg	99
478.517	0.844	843.7	incongruent	Block1	incongruent/STIM_023.jpg	99
482.67	1.391	1391.1	incongruent	Block1	incongruent/STIM_023.jpg	99
487.166	0.95	950.3	incongruent	Block1	incongruent/STIM_023.jpg	100
490.596	1.153	1153.4	incongruent	Block1	incongruent/STIM_023.jpg	100
495.412	1.393	1393.4	incongruent	Block1	incongruent/STIM_024.jpg	99
499.656	1.358	1357.7	incongruent	Block1	incongruent/STIM_024.jpg	99
504.777	0.721	721.2	incongruent	Block1	incongruent/STIM_024.jpg	99
508.784	1.394	1393.6	incongruent	Block1	incongruent/STIM_024.jpg	99
513.64	1.045	1044.7	incongruent	Block1	incongruent/STIM_024.jpg	99
517.426	1.239	1239.2	incongruent	Block1	incongruent/STIM_025.jpg	99
520.985	1.089	1089.3	incongruent	Block1	incongruent/STIM_025.jpg	100
525.469	1.199	1198.6	incongruent	Block1	incongruent/STIM_025.jpg	99
530.129	1.356	1356.2	incongruent	Block1	incongruent/STIM_025.jpg	100
534.66	1.219	1218.6	incongruent	Block1	incongruent/STIM_025.jpg	100
538.861	1.247	1247.0	incongruent	Block1	incongruent/STIM_026.jpg	100
542.75	1.167	1166.8	incongruent	Block1	incongruent/STIM_026.jpg	99
546.519	1.189	1188.8	incongruent	Block1	incongruent/STIM_026.jpg	99
550.731	0.839	838.8	incongruent	Block1	incongruent/STIM_026.jpg	100
554.488	0.707	706.7	incongruent	Block1	incongruent/STIM_026.jpg	99
557.424	0.946	945.7	incongruent	Block1	incongruent/STIM_027.jpg	99
561.912	0.82	820.5	incongruent	Block1	incongruent/STIM_027.jpg	100
565.87	0.774	774.0	incongruent	Block1	incongruent/STIM_027.jpg	99
569.222	0.728	727.6	incongruent	Block1	incongruent/STIM_027.jpg	99
572.647	1.179	1179.1	incongruent	Block1	incongruent/STIM_027.jpg	100
576.389	1.002	1002.3	incongruent	Block1	incongruent/STIM_028.jpg	100
580.558	1.36	1360.3	incongruent	Block1	incongruent/STIM_028.jpg	99
584.559	1.349	1349.1	incongruent	Block1	incongruent/STIM_028.jpg	99
589.088	0.707	707.2	incongruent	Block1	incongruent/STIM_028.jpg	100
593.222	1.199	1198.7	incongruent	Block1	incongruent/STIM_028.jpg	100
596.565	1.312	1312.5	incongruent	Block1	incongruent/STIM_029.jpg	100
601.023	1.394	1393.8	incongruent	Block1	incongruent/STIM_029.jpg	100
605.502	1.098	1098.4	incongruent	Block1	incongruent/STIM_029.jpg	100
610.442	1.386	1385.8	incongruent	Block1	incongruent/STIM_029.jpg	99
615.129	1.069	1068.7	incongruent	Block1	incongruent/STIM_029.jpg	99
618.716	0.972	972.4	congruent	Block1	congruent/STIM_000.jpg	100
623.05	0.612	611.8	congruent	Block1	congruent/STIM_000.jpg	100
626.073	0.906	906.2	congruent	Block1	congruent/STIM_000.jpg	99
629.596	0.719	718.8	congruent	Block1	congruent/STIM_000.jpg	100
633.824	0.819	819.4	congruent	Block1	congruent/STIM_000.jpg	99
636.791	0.594	593.6	congruent	Block1	congruent/STIM_001.jpg	100
640.175	0.963	963.1	congruent	Block1	congruent/STIM_001.jpg	100
644.758	0.567	566.6	congruent	Block1	congruent/STIM_001.jpg	100
649.312	0.846	846.5	congruent	Block1	congruent/STIM_001.jpg	99
653.471	0.582	581.8	congruent	Block1	congruent/STIM_001.jpg	100
656.971	0.667	666.9	congruent	Block1	congruent/STIM_002.jpg	100
659.894	0.772	772.2	congruent	Block1	congruent/STIM_002.jpg	99
663.321	0.727	726.9	congruent	Block1	congruent/STIM_002.jpg	100
666.179	0.813	812.6	congruent	Block1	congruent/STIM_002.jpg	100
669.836	0.766	765.7	congruent	Block1	congruent/STIM_002.jpg	99
674.357	0.862	861.9	congruent	Block1	congruent/STIM_003.jpg	100
677.644	0.675	674.7	congruent	Block1	congruent/STIM_003.jpg	99
681.012	0.834	833.9	congruent	Block1	congruent/STIM_003.jpg	100
685.495	0.646	646.2	congruent	Block1	congruent/STIM_003.jpg	100
689.795	0.895	894.9	congruent	Block1	congruent/STIM_003.jpg	99
694.14	0.961	961.4	congruent	Block1	congruent/STIM_004.jpg	100
698.597	0.914	913.9	congruent	Block1	congruent/STIM_004.jpg	100
702.327	0.866	866.5	congruent	Block1	congruent/STIM_004.jpg	100
707.07	0.619	619.3	congruent	Block1	congruent/STIM_004.jpg	99
710.894	0.694	694.3	congruent	Block1	congruent/STIM_004.jpg	100
714.935	0.805	804.6	congruent	Block1	congruent/STIM_005.jpg	99
718.432	0.957	957.4	congruent	Block1	congruent/STIM_005.jpg	100
721.991	0.614	614.0	congruent	Block1	congruent/STIM_005.jpg	100
724.606	0.869	868.8	congruent	Block1	congruent/STIM_005.jpg	100
729.275	0.742	741.8	congruent	Block1	congruent/STIM_005.jpg	100
732.917	0.641	641.3	congruent	Block1	congruent/STIM_006.jpg	99
736.304	0.815	815.2	congruent	Block1	congruent/STIM_006.jpg	100
739.465	0.899	899.3	congruent	Block1	congruent/STIM_006.jpg	100
743.888	0.806	805.5	congruent	Block1	congruent/STIM_006.jpg	100
746.939	0.782	781.9	congruent	Block1	congruent/STIM_006.jpg	100
750.199	0.763	763.3	congruent	Block1	congruent/STIM_007.jpg	100
753.665	0.609	608.7	congruent	Block1	congruent/STIM_007.jpg	100
757.369	0.796	796.2	congruent	Block1	congruent/STIM_007.jpg	100
761.439	0.869	868.8	congruent	Block1	congruent/STIM_007.jpg	99
764.321	0.95	950.1	congruent	Block1	congruent/STIM_007.jpg	99
768.321	0.891	890.6	congruent	Block1	congruent/STIM_008.jpg	100
773.008	0.812	812.0	congruent	Block1	congruent/STIM_008.jpg	99
777.815	0.786	785.5	congruent	Block1	congruent/STIM_008.jpg	99
781.936	0.905	905.1	congruent	Block1	congruent/STIM_008.jpg	99
786.046	0.934	934.4	congruent	Block1	congruent/STIM_008.jpg	99
790.501	0.858	857.8	congruent	Block1	congruent/STIM_009.jpg	100
794.738	0.949	948.7	congruent	Block1	congruent/STIM_009.jpg	99
798.993	0.598	598.4	congruent	Block1	congruent/STIM_009.jpg	100
803.301	0.93	929.5	congruent	Block1	congruent/STIM_009.jpg	100
807.179	0.872	871.5	congruent	Block1	congruent/STIM_009.jpg	99
810.266	0.865	864.7	congruent	Block1	congruent/STIM_010.jpg	100
813.905	0.624	624.0	congruent	Block1	congruent/STIM_010.jpg	100
817.014	0.748	748.5	congruent	Block1	congruent/STIM_010.jpg	100
820.561	0.949	949.2	congruent	Block1	congruent/STIM_010.jpg	100
824.06	0.732	732.1	congruent	Block1	congruent/STIM_010.jpg	99
827.955	0.858	857.8	congruent	Block1	congruent/STIM_011.jpg	99
831.029	0.688	687.6	congruent	Block1	congruent/STIM_011.jpg	100
835.563	0.878	877.7	congruent	Block1	congruent/STIM_011.jpg	99
839.806	0.896	895.7	congruent	Block1	congruent/STIM_011.jpg	99
843.929	0.973	972.6	congruent	Block1	congruent/STIM_011.jpg	100
848.157	0.585	585.2	congruent	Block1	congruent/STIM_012.jpg	99
852.054	0.766	766.0	congruent	Block1	congruent/STIM_012.jpg	100
855.633	0.872	871.5	congruent	Block1	congruent/STIM_012.jpg	100
859.764	0.921	920.6	congruent	Block1	congruent/STIM_012.jpg	99
863.641	0.857	856.6	congruent	Block1	congruent/STIM_012.jpg	99
867.809	0.834	834.0	congruent	Block1	congruent/STIM_013.jpg	100
871.111	0.624	623.9	congruent	Block1	congruent/STIM_013.jpg	99
874.354	0.72	720.0	congruent	Block1	congruent/STIM_013.jpg	100
877.272	0.804	804.3	congruent	Block1	congruent/STIM_013.jpg	100
881.35	0.983	983.2	congruent	Block1	congruent/STIM_013.jpg	100
885.259	0.712	711.9	congruent	Block1	congruent/STIM_014.jpg	99
888.565	0.564	563.9	congruent	Block1	congruent/STIM_014.jpg	99
893.068	0.568	568.3	congruent	Block1	congruent/STIM_014.jpg	100
896.904	0.626	625.8	congruent	Block1	congruent/STIM_014.jpg	100
900.01	0.882	882.1	congruent	Block1	congruent/STIM_014.jpg	100
904.562	0.857	857.2	congruent	Block1	congruent/STIM_015.jpg	100
908.636	0.56	559.5	congruent	Block1	congruent/STIM_015.jpg	99
912.984	0.939	939.2	congruent	Block1	congruent/STIM_015.jpg	99
916.925	0.601	600.7	congruent	Block1	congruent/STIM_015.jpg	100
920.904	0.864	863.6	congruent	Block1	congruent/STIM_015.jpg	99
925.55	0.614	614.3	congruent	Block1	congruent/STIM_016.jpg	99
928.283	0.777	776.7	congruent	Block1	congruent/STIM_016.jpg	99
932.848	0.755	754.8	congruent	Block1	congruent/STIM_016.jpg	99
935.717	0.928	928.2	congruent	Block1	congruent/STIM_016.jpg	99
939.039	0.883	882.8	congruent	Block1	congruent/STIM_016.jpg	100
942.939	0.85	850.4	congruent	Block1	congruent/STIM_017.jpg	99
946.645	0.762	762.4	congruent	Block1	congruent/STIM_017.jpg	99
951.191	0.884	884.1	congruent	Block1	congruent/STIM_017.jpg	99
954.151	0.704	703.5	congruent	Block1	congruent/STIM_017.jpg	99
958.384	0.779	779.3	congruent	Block1	congruent/STIM_017.jpg	99
962.137	0.639	639.2	congruent	Block1	congruent/STIM_018.jpg	100
966.247	0.882	882.2	congruent	Block1	congruent/STIM_018.jpg	99
970.66	0.609	609.0	congruent	Block1	congruent/STIM_018.jpg	99
974.898	0.76	760.5	congruent	Block1	congruent/STIM_018.jpg	100
977.809	0.624	623.6	congruent	Block1	congruent/STIM_018.jpg	100
981.58	0.841	841.3	congruent	Block1	congruent/STIM_019.jpg	99
985.622	0.954	953.5	congruent	Block1	congruent/STIM_019.jpg	100
989.314	0.598	598.0	congruent	Block1	congruent/STIM_019.jpg	99
993.704	0.88	879.6	congruent	Block1	congruent/STIM_019.jpg	100
997.833	0.593	592.7	congruent	Block1	congruent/STIM_019.jpg	99
1001.174	0.976	976.3	congruent	Block1	congruent/STIM_020.jpg	100
1005.02	0.675	675.1	congruent	Block1	congruent/STIM_020.jpg	99
1009.057	0.687	687.1	congruent	Block1	congruent/STIM_020.jpg	100
1011.755	0.554	553.8	congruent	Block1	congruent/STIM_020.jpg	100
1014.655	0.584	583.6	congruent	Block1	congruent/STIM_020.jpg	99
1017.517	0.948	947.8	congruent	Block1	congruent/STIM_021.jpg	99
1022.288	0.873	872.7	congruent	Block1	congruent/STIM_021.jpg	100
1026.938	0.685	685.3	congruent	Block1	congruent/STIM_021.jpg	100
1030.137	0.68	680.2	congruent	Block1	congruent/STIM_021.jpg	100
1034.146	0.787	786.9	congruent	Block1	congruent/STIM_021.jpg	100
1038.257	0.783	783.3	congruent	Block1	congruent/STIM_022.jpg	99
1042.439	0.827	827.1	congruent	Block1	congruent/STIM_022.jpg	100
1045.863	0.669	669.1	congruent	Block1	congruent/STIM_022.jpg	100
1048.689	0.83	829.6	congruent	Block1	congruent/STIM_022.jpg	100
1052.056	0.957	957.0	congruent	Block1	congruent/STIM_022.jpg	99
1055.142	0.797	796.6	congruent	Block1	congruent/STIM_023.jpg	100
1058.868	0.849	848.7	congruent	Block1	congruent/STIM_023.jpg	99
1062.076	0.694	694.4	congruent	Block1	congruent/STIM_023.jpg	100
1066.176	0.692	692.2	congruent	Block1	congruent/STIM_023.jpg	100
1070.157	0.669	669.2	congruent	Block1	congruent/STIM_023.jpg	99
1073.099	0.757	757.2	congruent	Block1	congruent/STIM_024.jpg	100
1077.136	0.852	851.5	congruent	Block1	congruent/STIM_024.jpg	99
1080.341	0.919	918.9	congruent	Block1	congruent/STIM_024.jpg	99
1083.562	0.936	936.3	congruent	Block1	congruent/STIM_024.jpg	100
1088.355	0.68	679.8	congruent	Block1	congruent/STIM_024.jpg	99
1091.662	0.915	914.6	congruent	Block1	congruent/STIM_025.jpg	99
1095.658	0.778	777.6	congruent	Block1	congruent/STIM_025.jpg	100
1099.605	0.917	917.0	congruent	Block1	congruent/STIM_025.jpg	99
1102.706	0.7	699.9	congruent	Block1	congruent/STIM_025.jpg	99
1105.622	0.787	787.3	congruent	Block1	congruent/STIM_025.jpg	99
1108.832	0.68	679.8	congruent	Block1	congruent/STIM_026.jpg	100
1112.792	0.89	890.5	congruent	Block1	congruent/STIM_026.jpg	100
1116.924	0.614	613.6	congruent	Block1	congruent/STIM_026.jpg	100
1119.942	0.567	567.2	congruent	Block1	congruent/STIM_026.jpg	99
1124.25	0.711	711.2	congruent	Block1	congruent/STIM_026.jpg	100
1128.267	0.766	766.3	congruent	Block1	congruent/STIM_027.jpg	99
1131.962	0.761	760.8	congruent	Block1	congruent/STIM_027.jpg	99
1136.16	0.807	807.3	congruent	Block1	congruent/STIM_027.jpg	99
1139.547	0.78	780.5	congruent	Block1	congruent/STIM_027.jpg	100
1143.989	0.96	960.0	congruent	Block1	congruent/STIM_027.jpg	99
1148.032	0.79	790.5	congruent	Block1	congruent/STIM_028.jpg	100
1152.374	0.756	756.1	congruent	Block1	congruent/STIM_028.jpg	100
1156.98	0.796	796.4	congruent	Block1	congruent/STIM_028.jpg	100
1160.966	0.852	852.1	congruent	Block1	congruent/STIM_028.jpg	100
1165.319	0.759	758.9	congruent	Block1	congruent/STIM_028.jpg	99
1169.124	0.81	810.1	congruent	Block1	congruent/STIM_029.jpg	100
1172.336	0.723	723.2	congruent	Block1	congruent/STIM_029.jpg	99
1176.709	0.708	708.0	congruent	Block1	congruent/STIM_029.jpg	100
1181.172	0.615	615.3	congruent	Block1	congruent/STIM_029.jpg	99
1183.999	0.818	817.5	congruent	Block1	congruent/STIM_029.jpg	99
1188.629	0.855	854.9	incongruent	Block2	incongruent/STIM_000.jpg	99
1192.483	1.19	1190.4	incongruent	Block2	incongruent/STIM_000.jpg	99
1196.818	1.187	1186.7	incongruent	Block2	incongruent/STIM_000.jpg	99
1201.767	0.983	983.1	incongruent	Block2	incongruent/STIM_000.jpg	99
1206.234	0.731	730.6	incongruent	Block2	incongruent/STIM_000.jpg	99
1209.243	1.073	1073.0	incongruent	Block2	incongruent/STIM_001.jpg	99
1212.922	0.636	635.6	incongruent	Block2	incongruent/STIM_001.jpg	100
1217.16	0.752	751.6	incongruent	Block2	incongruent/STIM_001.jpg	99
1220.456	0.54	540.5	incongruent	Block2	incongruent/STIM_001.jpg	99
1223.188	1.11	1110.2	incongruent	Block2	incongruent/STIM_001.jpg	100
1226.556	1.17	1170.5	incongruent	Block2	incongruent/STIM_002.jpg	99
1229.92	1.217	1216.8	incongruent	Block2	incongruent/STIM_002.jpg	100
1234.036	1.013	1012.8	incongruent	Block2	incongruent/STIM_002.jpg	100
1239.035	0.613	613.2	incongruent	Block2	incongruent/STIM_002.jpg	99
1242.084	0.537	537.0	incongruent	Block2	incongruent/STIM_002.jpg	100
1245.635	0.86	860.1	incongruent	Block2	incongruent/STIM_003.jpg	99
1249.872	0.618	617.6	incongruent	Block2	incongruent/STIM_003.jpg	100
1254.408	1.113	1112.7	incongruent	Block2	incongruent/STIM_003.jpg	99
1258.033	0.887	887.1	incongruent	Block2	incongruent/STIM_003.jpg	99
1261.528	0.681	681.3	incongruent	Block2	incongruent/STIM_003.jpg	100
1264.339	1.374	1374.1	incongruent	Block2	incongruent/STIM_004.jpg	100
1268.844	0.867	867.4	incongruent	Block2	incongruent/STIM_004.jpg	100
1272.652	0.853	852.7	incongruent	Block2	incongruent/STIM_004.jpg	99
1276.132	0.799	798.7	incongruent	Block2	incongruent/STIM_004.jpg	100
1280.665	0.868	867.7	incongruent	Block2	incongruent/STIM_004.jpg	99
1284.862	1.313	1313.3	incongruent	Block2	incongruent/STIM_005.jpg	99
1290.127	1.039	1038.8	incongruent	Block2	incongruent/STIM_005.jpg	100
1293.394	0.979	979.3	incongruent	Block2	incongruent/STIM_005.jpg	99
1297.712	0.583	583.3	incongruent	Block2	incongruent/STIM_005.jpg	100
1301.293	0.934	933.9	incongruent	Block2	incongruent/STIM_005.jpg	99
1305.79	1.195	1195.0	incongruent	Block2	incongruent/STIM_006.jpg	100
1310.077	1.096	1095.9	incongruent	Block2	incongruent/STIM_006.jpg	100
1313.693	0.954	953.7	incongruent	Block2	incongruent/STIM_006.jpg	99
1317.392	0.773	773.3	incongruent	Block2	incongruent/STIM_006.jpg	99
1321.019	0.883	883.3	incongruent	Block2	incongruent/STIM_006.jpg	99
1324.034	1.392	1392.5	incongruent	Block2	incongruent/STIM_007.jpg	99
1328.763	0.952	952.3	incongruent	Block2	incongruent/STIM_007.jpg	100
1331.75	0.929	928.8	incongruent	Block2	incongruent/STIM_007.jpg	100
1335.214	1.02	1020.4	incongruent	Block2	incongruent/STIM_007.jpg	100
1338.472	0.675	674.8	incongruent	Block2	incongruent/STIM_007.jpg	99
1341.6	1.252	1251.6	incongruent	Block2	incongruent/STIM_008.jpg	100
1345.141	0.957	956.6	incongruent	Block2	incongruent/STIM_008.jpg	100
1348.27	0.674	674.5	incongruent	Block2	incongruent/STIM_008.jpg	99
1352.19	0.842	842.4	incongruent	Block2	incongruent/STIM_008.jpg	99
1356.91	0.934	934.2	incongruent	Block2	incongruent/STIM_008.jpg	99
1360.08	1.293	1292.7	incongruent	Block2	incongruent/STIM_009.jpg	100
1364.281	1.019	1019.3	incongruent	Block2	incongruent/STIM_009.jpg	100
1368.008	0.692	692.1	incongruent	Block2	incongruent/STIM_009.jpg	100
1370.886	0.659	658.9	incongruent	Block2	incongruent/STIM_009.jpg	100
1374.805	1.044	1044.3	incongruent	Block2	incongruent/STIM_009.jpg	100
1379.413	1.202	1202.4	incongruent	Block2	incongruent/STIM_010.jpg	100
1382.954	1.078	1078.0	incongruent	Block2	incongruent/STIM_010.jpg	99
1387.463	1.048	1047.5	incongruent	Block2	incongruent/STIM_010.jpg	100
1391.526	0.961	961.2	incongruent	Block2	incongruent/STIM_010.jpg	99
1396.197	0.743	742.9	incongruent	Block2	incongruent/STIM_010.jpg	100
1400.54	0.914	914.0	incongruent	Block2	incongruent/STIM_011.jpg	100
1405.268	0.902	901.7	incongruent	Block2	incongruent/STIM_011.jpg	99
1410.061	0.73	729.5	incongruent	Block2	incongruent/STIM_011.jpg	100
1413.505	0.869	868.6	incongruent	Block2	incongruent/STIM_011.jpg	100
1417.096	0.661	661.0	incongruent	Block2	incongruent/STIM_011.jpg	100
1421.224	0.819	819.3	incongruent	Block2	incongruent/STIM_012.jpg	99
1424.675	0.846	845.9	incongruent	Block2	incongruent/STIM_012.jpg	99
1427.909	0.878	877.8	incongruent	Block2	incongruent/STIM_012.jpg	100
1431.957	1.127	1126.7	incongruent	Block2	incongruent/STIM_012.jpg	99
1436.931	0.768	768.3	incongruent	Block2	incongruent/STIM_012.jpg	99
1441.574	1.359	1359.1	incongruent	Block2	incongruent/STIM_013.jpg	100
1445.121	1.008	1008.5	incongruent	Block2	incongruent/STIM_013.jpg	99
1449.599	0.968	968.2	incongruent	Block2	incongruent/STIM_013.jpg	99
1453.699	0.649	649.3	incongruent	Block2	incongruent/STIM_013.jpg	99
1456.724	0.578	578.1	incongruent	Block2	incongruent/STIM_013.jpg	99
1460.945	0.898	897.8	incongruent	Block2	incongruent/STIM_014.jpg	100
1465.736	0.65	649.9	incongruent	Block2	incongruent/STIM_014.jpg	100
1469.375	1.082	1082.4	incongruent	Block2	incongruent/STIM_014.jpg	99
1473.646	0.852	852.4	incongruent	Block2	incongruent/STIM_014.jpg	99
1476.711	0.98	980.4	incongruent	Block2	incongruent/STIM_014.jpg	100
1479.953	1.343	1343.4	incongruent	Block2	incongruent/STIM_015.jpg	100
1484.584	0.886	885.8	incongruent	Block2	incongruent/STIM_015.jpg	99
1487.703	0.644	644.1	incongruent	Block2	incongruent/STIM_015.jpg	99
1491.462	0.987	987.4	incongruent	Block2	incongruent/STIM_015.jpg	99
1494.728	0.676	676.2	incongruent	Block2	incongruent/STIM_015.jpg	99
1498.619	0.758	758.5	incongruent	Block2	incongruent/STIM_016.jpg	100
1503.122	0.737	737.1	incongruent	Block2	incongruent/STIM_016.jpg	100
1506.516	0.71	709.8	incongruent	Block2	incongruent/STIM_016.jpg	100
1510.49	0.955	954.7	incongruent	Block2	incongruent/STIM_016.jpg	100
1515.138	0.694	693.8	incongruent	Block2	incongruent/STIM_016.jpg	99
1518.66	1.257	1256.7	incongruent	Block2	incongruent/STIM_017.jpg	100
1523.178	1.078	1077.7	incongruent	Block2	incongruent/STIM_017.jpg	99
1527.991	0.688	687.9	incongruent	Block2	incongruent/STIM_017.jpg	100
1532.544	0.54	540.0	incongruent	Block2	incongruent/STIM_017.jpg	100
1536.412	1.03	1029.8	incongruent	Block2	incongruent/STIM_017.jpg	100
1539.542	0.803	802.6	incongruent	Block2	incongruent/STIM_018.jpg	99
1542.435	0.723	722.8	incongruent	Block2	incongruent/STIM_018.jpg	99
1545.352	0.69	690.1	incongruent	Block2	incongruent/STIM_018.jpg	99
1549.17	0.88	879.9	incongruent	Block2	incongruent/STIM_018.jpg	100
1553.225	0.71	710.2	incongruent	Block2	incongruent/STIM_018.jpg	100
1557.387	0.924	923.5	incongruent	Block2	incongruent/STIM_019.jpg	100
1562.172	1.22	1220.4	incongruent	Block2	incongruent/STIM_019.jpg	99
1566.655	0.939	939.4	incongruent	Block2	incongruent/STIM_019.jpg	100
1569.705	0.778	777.9	incongruent	Block2	incongruent/STIM_019.jpg	100
1572.65	0.767	767.3	incongruent	Block2	incongruent/STIM_019.jpg	99
1577.296	0.878	878.0	incongruent	Block2	incongruent/STIM_020.jpg	99
1581.92	0.969	969.3	incongruent	Block2	incongruent/STIM_020.jpg	99
1586.265	0.721	721.0	incongruent	Block2	incongruent/STIM_020.jpg	99
1590.484	0.904	904.2	incongruent	Block2	incongruent/STIM_020.jpg	99
1594.574	0.666	665.5	incongruent	Block2	incongruent/STIM_020.jpg	100
1598.388	0.878	878.1	incongruent	Block2	incongruent/STIM_021.jpg	99
1602.234	0.935	935.4	incongruent	Block2	incongruent/STIM_021.jpg	100
1605.345	0.666	665.8	incongruent	Block2	incongruent/STIM_021.jpg	100
1608.865	0.565	564.7	incongruent	Block2	incongruent/STIM_021.jpg	100
1611.776	1.11	1110.2	incongruent	Block2	incongruent/STIM_021.jpg	99
1616.721	1.017	1016.9	incongruent	Block2	incongruent/STIM_022.jpg	100
1619.985	1.046	1045.8	incongruent	Block2	incongruent/STIM_022.jpg	100
1624.246	1.194	1193.9	incongruent	Block2	incongruent/STIM_022.jpg	100
1628.112	0.821	821.0	incongruent	Block2	incongruent/STIM_022.jpg	100
1631.343	0.829	829.3	incongruent	Block2	incongruent/STIM_022.jpg	99
1634.993	0.776	775.6	incongruent	Block2	incongruent/STIM_023.jpg	99
1639.167	0.753	753.1	incongruent	Block2	incongruent/STIM_023.jpg	100
1643.42	1.226	1225.8	incongruent	Block2	incongruent/STIM_023.jpg	100
1648.007	0.657	657.3	incongruent	Block2	incongruent/STIM_023.jpg	100
1650.794	0.755	754.7	incongruent	Block2	incongruent/STIM_023.jpg	99
1653.576	0.947	947.4	incongruent	Block2	incongruent/STIM_024.jpg	100
1658.275	1.266	1265.9	incongruent	Block2	incongruent/STIM_024.jpg	99
1662.493	0.821	820.8	incongruent	Block2	incongruent/STIM_024.jpg	100
1666.513	0.625	625.1	incongruent	Block2	incongruent/STIM_024.jpg	99
1669.281	0.588	588.0	incongruent	Block2	incongruent/STIM_024.jpg	100
1671.905	0.76	760.3	incongruent	Block2	incongruent/STIM_025.jpg	100
1674.806	1.206	1206.3	incongruent	Block2	incongruent/STIM_025.jpg	100
1679.97	0.747	746.6	incongruent	Block2	incongruent/STIM_025.jpg	99
1683.969	0.859	858.8	incongruent	Block2	incongruent/STIM_025.jpg	100
1687.32	1.081	1080.7	incongruent	Block2	incongruent/STIM_025.jpg	100
1691.704	1.1	1100.2	incongruent	Block2	incongruent/STIM_026.jpg	100
1696.732	1.166	1166.2	incongruent	Block2	incongruent/STIM_026.jpg	99
1701.674	0.586	586.5	incongruent	Block2	incongruent/STIM_026.jpg	99
1704.372	0.908	908.1	incongruent	Block2	incongruent/STIM_026.jpg	100
1708.186	0.559	558.6	incongruent	Block2	incongruent/STIM_026.jpg	99
1711.863	0.851	851.3	incongruent	Block2	incongruent/STIM_027.jpg	100
1715.972	1.241	1241.0	incongruent	Block2	incongruent/STIM_027.jpg	99
1720.301	0.644	644.0	incongruent	Block2	incongruent/STIM_027.jpg	99
1724.922	0.741	741.3	incongruent	Block2	incongruent/STIM_027.jpg	100
1728.559	0.545	545.3	incongruent	Block2	incongruent/STIM_027.jpg	100
1731.23	0.851	851.4	incongruent	Block2	incongruent/STIM_028.jpg	100
1734.551	1.31	1310.3	incongruent	Block2	incongruent/STIM_028.jpg	100
1738.107	1.134	1134.1	incongruent	Block2	incongruent/STIM_028.jpg	100
1742.384	0.559	559.1	incongruent	Block2	incongruent/STIM_028.jpg	100
1746.54	0.816	816.1	incongruent	Block2	incongruent/STIM_028.jpg	100
1750.42	1.382	1381.7	incongruent	Block2	incongruent/STIM_029.jpg	99
1755.233	0.907	907.2	incongruent	Block2	incongruent/STIM_029.jpg	99
1758.916	1.055	1055.2	incongruent	Block2	incongruent/STIM_029.jpg	100
1763.549	1.044	1044.4	incongruent	Block2	incongruent/STIM_029.jpg	99
1768.354	0.583	582.6	incongruent	Block2	incongruent/STIM_029.jpg	99
1772.065	0.648	648.3	congruent	Block2	congruent/STIM_000.jpg	99
1774.762	0.944	944.2	congruent	Block2	congruent/STIM_000.jpg	100
1778.11	0.875	874.9	congruent	Block2	congruent/STIM_000.jpg	100
1782.217	0.714	714.0	congruent	Block2	congruent/STIM_000.jpg	99
1785.786	0.58	580.2	congruent	Block2	congruent/STIM_000.jpg	100
1788.922	0.931	930.8	congruent	Block2	congruent/STIM_001.jpg	99
1792.203	0.595	594.8	congruent	Block2	congruent/STIM_001.jpg	99
1795.978	0.624	623.9	congruent	Block2	congruent/STIM_001.jpg	100
1800.082	0.553	553.4	congruent	Block2	congruent/STIM_001.jpg	99
1803.653	0.742	742.2	congruent	Block2	congruent/STIM_001.jpg	100
1806.705	0.9	899.5	congruent	Block2	congruent/STIM_002.jpg	99
1809.88	0.904	904.4	congruent	Block2	congruent/STIM_002.jpg	99
1814.141	0.649	649.1	congruent	Block2	congruent/STIM_002.jpg	99
1817.961	0.57	570.4	congruent	Block2	congruent/STIM_002.jpg	99
1822.248	0.562	561.5	congruent	Block2	congruent/STIM_002.jpg	100
1826.801	0.796	796.2	congruent	Block2	congruent/STIM_003.jpg	100
1831.425	0.79	789.8	congruent	Block2	congruent/STIM_003.jpg	100
1834.599	0.655	655.4	congruent	Block2	congruent/STIM_003.jpg	99
1837.831	0.55	550.1	congruent	Block2	congruent/STIM_003.jpg	100
1840.62	0.864	864.4	congruent	Block2	congruent/STIM_003.jpg	99
1844.902	0.651	651.1	congruent	Block2	congruent/STIM_004.jpg	99
1848.131	0.668	667.8	congruent	Block2	congruent/STIM_004.jpg	99
1851.15	0.863	863.2	congruent	Block2	congruent/STIM_004.jpg	100
1854.723	0.954	954.4	congruent	Block2	congruent/STIM_004.jpg	99
1859.343	0.55	550.3	congruent	Block2	congruent/STIM_004.jpg	99
1863.846	0.91	910.3	congruent	Block2	congruent/STIM_005.jpg	100
1867.713	0.812	812.4	congruent	Block2	congruent/STIM_005.jpg	99
1872.372	0.81	809.8	congruent	Block2	congruent/STIM_005.jpg	99
1875.862	0.838	838.5	congruent	Block2	congruent/STIM_005.jpg	100
1879.054	0.866	866.3	congruent	Block2	congruent/STIM_005.jpg	100
1882.631	0.927	927.1	congruent	Block2	congruent/STIM_006.jpg	100
1887.059	0.958	958.2	congruent	Block2	congruent/STIM_006.jpg	99
1892.005	0.714	713.9	congruent	Block2	congruent/STIM_006.jpg	99
1895.985	0.818	817.9	congruent	Block2	congruent/STIM_006.jpg	100
1900.251	0.664	663.6	congruent	Block2	congruent/STIM_006.jpg	100
1904.054	0.749	749.4	congruent	Block2	congruent/STIM_007.jpg	99
1907.392	0.586	585.5	congruent	Block2	congruent/STIM_007.jpg	99
1911.689	0.772	772.1	congruent	Block2	congruent/STIM_007.jpg	100
1914.788	0.968	968.2	congruent	Block2	congruent/STIM_007.jpg	99
1919.239	0.775	774.8	congruent	Block2	congruent/STIM_007.jpg	100
1923.053	0.561	560.6	congruent	Block2	congruent/STIM_008.jpg	100
1927.489	0.579	579.0	congruent	Block2	congruent/STIM_008.jpg	100
1931.512	0.931	930.7	congruent	Block2	congruent/STIM_008.jpg	100
1935.15	0.565	564.8	congruent	Block2	congruent/STIM_008.jpg	100
1938.416	0.674	673.8	congruent	Block2	congruent/STIM_008.jpg	99
1941.418	0.748	748.5	congruent	Block2	congruent/STIM_009.jpg	99
1945.717	0.961	960.8	congruent	Block2	congruent/STIM_009.jpg	99
1949.334	0.586	586.1	congruent	Block2	congruent/STIM_009.jpg	100
1952.581	0.864	863.9	congruent	Block2	congruent/STIM_009.jpg	100
1955.493	0.596	595.5	congruent	Block2	congruent/STIM_009.jpg	99
1959.105	0.558	558.3	congruent	Block2	congruent/STIM_010.jpg	100
1962.901	0.575	575.0	congruent	Block2	congruent/STIM_010.jpg	100
1966.412	0.686	685.8	congruent	Block2	congruent/STIM_010.jpg	99
1970.556	0.697	696.9	congruent	Block2	congruent/STIM_010.jpg	99
1974.222	0.952	952.3	congruent	Block2	congruent/STIM_010.jpg	100
1977.517	0.767	767.2	congruent	Block2	congruent/STIM_011.jpg	99
1980.687	0.71	709.9	congruent	Block2	congruent/STIM_011.jpg	99
1984.577	0.84	840.0	congruent	Block2	congruent/STIM_011.jpg	100
1987.908	0.55	550.4	congruent	Block2	congruent/STIM_011.jpg	99
1992.23	0.638	638.3	congruent	Block2	congruent/STIM_011.jpg	99
1995.822	0.971	970.7	congruent	Block2	congruent/STIM_012.jpg	99
2000.275	0.87	870.1	congruent	Block2	congruent/STIM_012.jpg	100
2004.792	0.817	817.2	congruent	Block2	congruent/STIM_012.jpg	100
2008.223	0.889	889.2	congruent	Block2	congruent/STIM_012.jpg	100
2011.618	0.6	599.6	congruent	Block2	congruent/STIM_012.jpg	100
2014.57	0.622	622.4	congruent	Block2	congruent/STIM_013.jpg	100
2017.492	0.89	890.3	congruent	Block2	congruent/STIM_013.jpg	100
2021.135	0.929	929.2	congruent	Block2	congruent/STIM_013.jpg	99
2024.892	0.648	648.3	congruent	Block2	congruent/STIM_013.jpg	100
2029.337	0.738	738.2	congruent	Block2	congruent/STIM_013.jpg	100
2033.931	0.774	774.0	congruent	Block2	congruent/STIM_014.jpg	100
2037.13	0.899	899.3	congruent	Block2	congruent/STIM_014.jpg	99
2041.872	0.872	871.7	congruent	Block2	congruent/STIM_014.jpg	100
2046.688	0.796	796.3	congruent	Block2	congruent/STIM_014.jpg	99
2050.82	0.917	916.9	congruent	Block2	congruent/STIM_014.jpg	99
2055.394	0.968	967.8	congruent	Block2	congruent/STIM_015.jpg	99
2059.011	0.558	558.5	congruent	Block2	congruent/STIM_015.jpg	100
2062.494	0.792	792.0	congruent	Block2	congruent/STIM_015.jpg	100
2065.678	0.868	868.2	congruent	Block2	congruent/STIM_015.jpg	100
2069.799	0.579	579.1	congruent	Block2	congruent/STIM_015.jpg	99
2073.072	0.814	813.6	congruent	Block2	congruent/STIM_016.jpg	100
2077.634	0.778	777.8	congruent	Block2	congruent/STIM_016.jpg	99
2081.342	0.595	594.6	congruent	Block2	congruent/STIM_016.jpg	100
2084.228	0.824	824.1	congruent	Block2	congruent/STIM_016.jpg	99
2087.192	0.617	617.2	congruent	Block2	congruent/STIM_016.jpg	100
2090.974	0.838	838.5	congruent	Block2	congruent/STIM_017.jpg	99
2095.764	0.572	572.2	congruent	Block2	congruent/STIM_017.jpg	99
2098.777	0.806	806.3	congruent	Block2	congruent/STIM_017.jpg	100
2101.905	0.57	570.0	congruent	Block2	congruent/STIM_017.jpg	100
2105.162	0.61	609.8	congruent	Block2	congruent/STIM_017.jpg	99
2109.458	0.641	641.2	congruent	Block2	congruent/STIM_018.jpg	99
2112.863	0.922	921.9	congruent	Block2	congruent/STIM_018.jpg	100
2115.837	0.741	740.7	congruent	Block2	congruent/STIM_018.jpg	99
2120.518	0.753	753.3	congruent	Block2	congruent/STIM_018.jpg	100
2125.088	0.698	697.9	congruent	Block2	congruent/STIM_018.jpg	100
2129.057	0.67	670.0	congruent	Block2	congruent/STIM_019.jpg	99
2131.946	0.705	704.6	congruent	Block2	congruent/STIM_019.jpg	99
2134.85	0.667	667.3	congruent	Block2	congruent/STIM_019.jpg	99
2139.261	0.892	891.8	congruent	Block2	congruent/STIM_019.jpg	100
2143.79	0.825	824.6	congruent	Block2	congruent/STIM_019.jpg	100
2147.162	0.842	841.9	congruent	Block2	congruent/STIM_020.jpg	99
2151.291	0.797	797.2	congruent	Block2	congruent/STIM_020.jpg	100
2155.617	0.802	801.9	congruent	Block2	congruent/STIM_020.jpg	100
2158.582	0.828	828.0	congruent	Block2	congruent/STIM_020.jpg	100
2162.321	0.678	678.4	congruent	Block2	congruent/STIM_020.jpg	99
2165.12	0.907	907.4	congruent	Block2	congruent/STIM_021.jpg	100
2169.302	0.849	848.8	congruent	Block2	congruent/STIM_021.jpg	100
2173.187	0.598	597.5	congruent	Block2	congruent/STIM_021.jpg	100
2177.464	0.818	818.0	congruent	Block2	congruent/STIM_021.jpg	99
2181.578	0.979	979.3	congruent	Block2	congruent/STIM_021.jpg	99
2185.886	0.878	877.9	congruent	Block2	congruent/STIM_022.jpg	100
2189.5	0.671	670.6	congruent	Block2	congruent/STIM_022.jpg	100
2193.014	0.956	956.3	congruent	Block2	congruent/STIM_022.jpg	100
2196.801	0.864	864.5	congruent	Block2	congruent/STIM_022.jpg	100
2199.866	0.702	701.5	congruent	Block2	congruent/STIM_022.jpg	100
2203.381	0.955	954.6	congruent	Block2	congruent/STIM_023.jpg	99
2207.778	0.805	805.4	congruent	Block2	congruent/STIM_023.jpg	99
2212.022	0.682	681.9	congruent	Block2	congruent/STIM_023.jpg	99
2215.029	0.8	800.1	congruent	Block2	congruent/STIM_023.jpg	99
2218.312	0.821	820.8	congruent	Block2	congruent/STIM_023.jpg	100
2221.767	0.83	829.6	congruent	Block2	congruent/STIM_024.jpg	100
2225.287	0.802	802.2	congruent	Block2	congruent/STIM_024.jpg	100
2228.633	0.973	973.1	congruent	Block2	congruent/STIM_024.jpg	100
2232.015	0.674	674.5	congruent	Block2	congruent/STIM_024.jpg	100
2235.978	0.566	566.2	congruent	Block2	congruent/STIM_024.jpg	100
2240.396	0.748	747.9	congruent	Block2	congruent/STIM_025.jpg	99
2244.871	0.901	900.7	congruent	Block2	congruent/STIM_025.jpg	100
2249.189	0.741	741.2	congruent	Block2	congruent/STIM_025.jpg	99
2253.59	0.888	887.8	congruent	Block2	congruent/STIM_025.jpg	100
2257.444	0.83	829.9	congruent	Block2	congruent/STIM_025.jpg	99
2261.338	0.94	939.8	congruent	Block2	congruent/STIM_026.jpg	100
2264.502	0.842	842.0	congruent	Block2	congruent/STIM_026.jpg	99
2267.769	0.75	749.9	congruent	Block2	congruent/STIM_026.jpg	100
2270.837	0.97	969.8	congruent	Block2	congruent/STIM_026.jpg	100
2274.093	0.933	933.2	congruent	Block2	congruent/STIM_026.jpg	99
2278.109	0.786	786.2	congruent	Block2	congruent/STIM_027.jpg	100
2281.189	0.977	976.8	congruent	Block2	congruent/STIM_027.jpg	100
2286.012	0.574	574.3	congruent	Block2	congruent/STIM_027.jpg	99
2289.93	0.548	548.4	congruent	Block2	congruent/STIM_027.jpg	99
2294.112	0.721	721.0	congruent	Block2	congruent/STIM_027.jpg	100
2297.643	0.782	782.0	congruent	Block2	congruent/STIM_028.jpg	100
2300.883	0.677	677.4	congruent	Block2	congruent/STIM_028.jpg	99
2303.581	0.593	592.7	congruent	Block2	congruent/STIM_028.jpg	100
2307.991	0.655	654.9	congruent	Block2	congruent/STIM_028.jpg	99
2311.196	0.6	599.9	congruent	Block2	congruent/STIM_028.jpg	99
2314.6	0.781	780.7	congruent	Block2	congruent/STIM_029.jpg	100
2319.181	0.882	881.7	congruent	Block2	congruent/STIM_029.jpg	100
2322.935	0.827	827.1	congruent	Block2	congruent/STIM_029.jpg	100
2325.865	0.739	738.8	congruent	Block2	congruent/STIM_029.jpg	100
2328.765	0.642	642.2	congruent	Block2	congruent/STIM_029.jpg	99
2333.313	0.846	845.8	incongruent	Block3	incongruent/STIM_000.jpg	100
2338.068	0.834	833.5	incongruent	Block3	incongruent/STIM_000.jpg	99
2341.284	0.615	614.6	incongruent	Block3	incongruent/STIM_000.jpg	99
2345.552	0.803	802.6	incongruent	Block3	incongruent/STIM_000.jpg	99
2350.35	0.939	939.4	incongruent	Block3	incongruent/STIM_000.jpg	99
2354.069	0.671	670.6	incongruent	Block3	incongruent/STIM_001.jpg	100
2358.614	0.58	579.8	incongruent	Block3	incongruent/STIM_001.jpg	99
2362.223	1.121	1121.2	incongruent	Block3	incongruent/STIM_001.jpg	99
2365.875	0.559	558.6	incongruent	Block3	incongruent/STIM_001.jpg	100
2369.712	0.591	590.7	incongruent	Block3	incongruent/STIM_001.jpg	99
2374.247	1.031	1031.1	incongruent	Block3	incongruent/STIM_002.jpg	100
2377.818	1.034	1034.0	incongruent	Block3	incongruent/STIM_002.jpg	99
2382.502	0.551	550.7	incongruent	Block3	incongruent/STIM_002.jpg	100
2386.536	1.042	1042.0	incongruent	Block3	incongruent/STIM_002.jpg	99
2389.996	0.999	999.3	incongruent	Block3	incongruent/STIM_002.jpg	99
2394.155	0.948	947.7	incongruent	Block3	incongruent/STIM_003.jpg	99
2397.898	0.995	995.2	incongruent	Block3	incongruent/STIM_003.jpg	99
2402.225	1.023	1023.1	incongruent	Block3	incongruent/STIM_003.jpg	100
2406.188	0.772	771.7	incongruent	Block3	incongruent/STIM_003.jpg	100
2410.658	0.67	670.4	incongruent	Block3	incongruent/STIM_003.jpg	99
2413.567	0.841	841.2	incongruent	Block3	incongruent/STIM_004.jpg	100
2418.361	1.058	1058.4	incongruent	Block3	incongruent/STIM_004.jpg	99
2421.653	0.984	984.5	incongruent	Block3	incongruent/STIM_004.jpg	99
2426.624	1.113	1113.1	incongruent	Block3	incongruent/STIM_004.jpg	99
2430.455	0.984	984.2	incongruent	Block3	incongruent/STIM_004.jpg	100
2435.147	0.943	942.7	incongruent	Block3	incongruent/STIM_005.jpg	99
2438.283	0.927	927.0	incongruent	Block3	incongruent/STIM_005.jpg	100
2441.655	0.952	952.0	incongruent	Block3	incongruent/STIM_005.jpg	99
2444.855	0.944	944.2	incongruent	Block3	incongruent/STIM_005.jpg	100
2447.832	0.968	968.5	incongruent	Block3	incongruent/STIM_005.jpg	99
2451.522	0.705	704.7	incongruent	Block3	incongruent/STIM_006.jpg	100
2455.255	0.974	974.0	incongruent	Block3	incongruent/STIM_006.jpg	100
2459.581	1.071	1070.9	incongruent	Block3	incongruent/STIM_006.jpg	100
2462.874	0.795	794.8	incongruent	Block3	incongruent/STIM_006.jpg	100
2465.828	0.874	873.5	incongruent	Block3	incongruent/STIM_006.jpg	99
2469.593	0.687	687.3	incongruent	Block3	incongruent/STIM_007.jpg	100
2473.741	0.63	629.9	incongruent	Block3	incongruent/STIM_007.jpg	100
2477.555	0.97	970.5	incongruent	Block3	incongruent/STIM_007.jpg	100
2480.637	0.556	556.4	incongruent	Block3	incongruent/STIM_007.jpg	100
2483.453	0.678	677.6	incongruent	Block3	incongruent/STIM_007.jpg	99
2486.728	1.002	1002.1	incongruent	Block3	incongruent/STIM_008.jpg	99
2491.651	1.117	1116.8	incongruent	Block3	incongruent/STIM_008.jpg	100
2496.331	0.839	838.6	incongruent	Block3	incongruent/STIM_008.jpg	100
2500.715	0.822	821.7	incongruent	Block3	incongruent/STIM_008.jpg	100
2504.573	0.987	987.0	incongruent	Block3	incongruent/STIM_008.jpg	99
2508.282	0.568	568.2	incongruent	Block3	incongruent/STIM_009.jpg	99
2512.126	0.638	637.8	incongruent	Block3	incongruent/STIM_009.jpg	100
2514.942	0.97	969.7	incongruent	Block3	incongruent/STIM_009.jpg	100
2519.464	0.757	756.7	incongruent	Block3	incongruent/STIM_009.jpg	100
2523.197	0.915	915.4	incongruent	Block3	incongruent/STIM_009.jpg	100
2527.587	0.564	564.1	incongruent	Block3	incongruent/STIM_010.jpg	100
2531.085	0.66	660.0	incongruent	Block3	incongruent/STIM_010.jpg	99
2535.734	0.685	685.1	incongruent	Block3	incongruent/STIM_010.jpg	99
2539.453	0.871	871.2	incongruent	Block3	incongruent/STIM_010.jpg	100
2543.737	0.593	592.8	incongruent	Block3	incongruent/STIM_010.jpg	99
2546.836	0.73	729.8	incongruent	Block3	incongruent/STIM_011.jpg	99
2550.18	0.793	792.6	incongruent	Block3	incongruent/STIM_011.jpg	100
2554.475	0.997	997.1	incongruent	Block3	incongruent/STIM_011.jpg	99
2557.923	0.604	604.0	incongruent	Block3	incongruent/STIM_011.jpg	100
2561.562	0.991	990.6	incongruent	Block3	incongruent/STIM_011.jpg	99
2565.913	1.031	1031.4	incongruent	Block3	incongruent/STIM_012.jpg	99
2569.497	0.576	575.7	incongruent	Block3	incongruent/STIM_012.jpg	100
2573.243	1.031	1031.1	incongruent	Block3	incongruent/STIM_012.jpg	100
2576.935	0.973	973.4	incongruent	Block3	incongruent/STIM_012.jpg	100
2581.889	1.062	1062.3	incongruent	Block3	incongruent/STIM_012.jpg	100
2586.003	1.041	1040.7	incongruent	Block3	incongruent/STIM_013.jpg	99
2590.808	0.681	680.6	incongruent	Block3	incongruent/STIM_013.jpg	100
2594.649	1.031	1030.8	incongruent	Block3	incongruent/STIM_013.jpg	99
2598.398	0.539	538.9	incongruent	Block3	incongruent/STIM_013.jpg	100
2602.528	1.081	1080.7	incongruent	Block3	incongruent/STIM_013.jpg	100
2607.057	0.986	985.9	incongruent	Block3	incongruent/STIM_014.jpg	99
2610.319	0.544	543.6	incongruent	Block3	incongruent/STIM_014.jpg	100
2614.204	0.646	645.5	incongruent	Block3	incongruent/STIM_014.jpg	99
2617.739	0.646	645.8	incongruent	Block3	incongruent/STIM_014.jpg	100
2621.732	0.582	582.3	incongruent	Block3	incongruent/STIM_014.jpg	99
2625.2	0.569	569.0	incongruent	Block3	incongruent/STIM_015.jpg	99
2629.282	0.549	549.2	incongruent	Block3	incongruent/STIM_015.jpg	100
2632.453	1.086	1086.1	incongruent	Block3	incongruent/STIM_015.jpg	99
2637.437	1.11	1109.5	incongruent	Block3	incongruent/STIM_015.jpg	99
2641.879	1.024	1024.1	incongruent	Block3	incongruent/STIM_015.jpg	100
2645.166	1.072	1071.7	incongruent	Block3	incongruent/STIM_016.jpg	100
2649.256	1.147	1146.9	incongruent	Block3	incongruent/STIM_016.jpg	100
2653.071	0.566	565.5	incongruent	Block3	incongruent/STIM_016.jpg	100
2656.458	1.101	1100.6	incongruent	Block3	incongruent/STIM_016.jpg	99
2660.21	0.714	713.8	incongruent	Block3	incongruent/STIM_016.jpg	99
2663.106	0.703	702.8	incongruent	Block3	incongruent/STIM_017.jpg	100
2666.664	1.0	999.5	incongruent	Block3	incongruent/STIM_017.jpg	100
2670.138	1.049	1048.9	incongruent	Block3	incongruent/STIM_017.jpg	99
2673.476	0.787	786.7	incongruent	Block3	incongruent/STIM_017.jpg	100
2678.206	1.07	1069.9	incongruent	Block3	incongruent/STIM_017.jpg	99
2682.371	0.59	590.0	incongruent	Block3	incongruent/STIM_018.jpg	99
2685.957	1.09	1089.6	incongruent	Block3	incongruent/STIM_018.jpg	99
2690.537	0.732	732.5	incongruent	Block3	incongruent/STIM_018.jpg	100
2694.815	0.863	863.4	incongruent	Block3	incongruent/STIM_018.jpg	100
2698.837	0.976	975.7	incongruent	Block3	incongruent/STIM_018.jpg	100
2703.282	0.843	842.9	incongruent	Block3	incongruent/STIM_019.jpg	100
2706.363	0.556	555.5	incongruent	Block3	incongruent/STIM_019.jpg	99
2709.002	1.118	1118.4	incongruent	Block3	incongruent/STIM_019.jpg	100
2713.358	1.139	1139.2	incongruent	Block3	incongruent/STIM_019.jpg	100
2716.781	0.552	551.7	incongruent	Block3	incongruent/STIM_019.jpg	100
2720.362	0.976	975.8	incongruent	Block3	incongruent/STIM_020.jpg	99
2725.107	0.91	909.8	incongruent	Block3	incongruent/STIM_020.jpg	100
2729.077	0.952	951.7	incongruent	Block3	incongruent/STIM_020.jpg	100
2733.942	0.918	917.6	incongruent	Block3	incongruent/STIM_020.jpg	100
2738.263	0.732	731.5	incongruent	Block3	incongruent/STIM_020.jpg	99
2741.521	0.76	760.3	incongruent	Block3	incongruent/STIM_021.jpg	100
2744.575	0.985	984.6	incongruent	Block3	incongruent/STIM_021.jpg	100
2748.213	0.564	564.5	incongruent	Block3	incongruent/STIM_021.jpg	100
2752.571	0.687	686.6	incongruent	Block3	incongruent/STIM_021.jpg	100
2756.206	0.706	705.9	incongruent	Block3	incongruent/STIM_021.jpg	99
2760.296	0.896	896.4	incongruent	Block3	incongruent/STIM_022.jpg	100
2764.181	0.79	790.4	incongruent	Block3	incongruent/STIM_022.jpg	99
2768.456	0.848	848.5	incongruent	Block3	incongruent/STIM_022.jpg	100
2772.322	0.768	767.7	incongruent	Block3	incongruent/STIM_022.jpg	99
2776.085	0.746	746.3	incongruent	Block3	incongruent/STIM_022.jpg	100
2780.549	0.966	965.8	incongruent	Block3	incongruent/STIM_023.jpg	99
2784.504	1.084	1083.5	incongruent	Block3	incongruent/STIM_023.jpg	99
2789.365	0.792	792.5	incongruent	Block3	incongruent/STIM_023.jpg	100
2793.438	0.824	823.6	incongruent	Block3	incongruent/STIM_023.jpg	99
2796.44	0.701	700.8	incongruent	Block3	incongruent/STIM_023.jpg	100
2799.508	1.107	1107.4	incongruent	Block3	incongruent/STIM_024.jpg	100
2803.672	0.779	779.2	incongruent	Block3	incongruent/STIM_024.jpg	99
2807.011	0.759	759.1	incongruent	Block3	incongruent/STIM_024.jpg	99
2809.925	1.055	1054.8	incongruent	Block3	incongruent/STIM_024.jpg	100
2813.408	0.764	764.0	incongruent	Block3	incongruent/STIM_024.jpg	100
2818.048	0.998	998.2	incongruent	Block3	incongruent/STIM_025.jpg	100
2821.961	0.619	619.4	incongruent	Block3	incongruent/STIM_025.jpg	100
2825.203	0.743	743.2	incongruent	Block3	incongruent/STIM_025.jpg	100
2829.701	0.709	708.6	incongruent	Block3	incongruent/STIM_025.jpg	99
2834.307	0.562	562.1	incongruent	Block3	incongruent/STIM_025.jpg	99
2837.793	0.674	673.8	incongruent	Block3	incongruent/STIM_026.jpg	99
2840.691	0.813	812.6	incongruent	Block3	incongruent/STIM_026.jpg	99
2845.402	0.786	786.1	incongruent	Block3	incongruent/STIM_026.jpg	100
2849.865	0.7	699.8	incongruent	Block3	incongruent/STIM_026.jpg	100
2853.293	0.584	583.6	incongruent	Block3	incongruent/STIM_026.jpg	99
2856.173	0.841	840.8	incongruent	Block3	incongruent/STIM_027.jpg	99
2860.793	1.047	1047.0	incongruent	Block3	incongruent/STIM_027.jpg	99
2865.091	0.844	844.3	incongruent	Block3	incongruent/STIM_027.jpg	100
2869.73	0.72	719.9	incongruent	Block3	incongruent/STIM_027.jpg	100
2872.505	1.146	1146.1	incongruent	Block3	incongruent/STIM_027.jpg	99
2877.46	0.592	591.9	incongruent	Block3	incongruent/STIM_028.jpg	100
2881.567	0.605	605.1	incongruent	Block3	incongruent/STIM_028.jpg	100
2884.664	0.544	544.5	incongruent	Block3	incongruent/STIM_028.jpg	100
2888.317	0.794	794.3	incongruent	Block3	incongruent/STIM_028.jpg	99
2892.221	1.025	1025.0	incongruent	Block3	incongruent/STIM_028.jpg	100
2895.697	0.573	572.7	incongruent	Block3	incongruent/STIM_029.jpg	100
2898.93	0.983	982.7	incongruent	Block3	incongruent/STIM_029.jpg	99
2903.378	1.089	1089.4	incongruent	Block3	incongruent/STIM_029.jpg	99
2906.603	1.001	1000.8	incongruent	Block3	incongruent/STIM_029.jpg	100
2911.278	1.123	1122.6	incongruent	Block3	incongruent/STIM_029.jpg	99
2915.137	0.718	718.4	congruent	Block3	congruent/STIM_000.jpg	100
2918.986	0.917	916.7	congruent	Block3	congruent/STIM_000.jpg	100
2922.867	0.902	902.0	congruent	Block3	congruent/STIM_000.jpg	99
2926.898	0.943	942.6	congruent	Block3	congruent/STIM_000.jpg	100
2930.839	0.631	631.2	congruent	Block3	congruent/STIM_000.jpg	100
2934.251	0.697	696.6	congruent	Block3	congruent/STIM_001.jpg	100
2938.667	0.616	615.9	congruent	Block3	congruent/STIM_001.jpg	99
2941.715	0.634	634.0	congruent	Block3	congruent/STIM_001.jpg	99
2945.932	0.591	591.3	congruent	Block3	congruent/STIM_001.jpg	100
2948.604	0.929	929.1	congruent	Block3	congruent/STIM_001.jpg	100
2951.787	0.722	721.6	congruent	Block3	congruent/STIM_002.jpg	99
2955.142	0.554	554.0	congruent	Block3	congruent/STIM_002.jpg	100
2958.265	0.781	780.6	congruent	Block3	congruent/STIM_002.jpg	100
2961.935	0.679	679.4	congruent	Block3	congruent/STIM_002.jpg	100
2965.414	0.885	884.6	congruent	Block3	congruent/STIM_002.jpg	99
2968.531	0.796	795.7	congruent	Block3	congruent/STIM_003.jpg	99
2972.221	0.898	897.9	congruent	Block3	congruent/STIM_003.jpg	99
2975.876	0.948	947.7	congruent	Block3	congruent/STIM_003.jpg	100
2979.144	0.769	768.8	congruent	Block3	congruent/STIM_003.jpg	99
2983.614	0.965	964.8	congruent	Block3	congruent/STIM_003.jpg	100
2987.933	0.706	706.4	congruent	Block3	congruent/STIM_004.jpg	100
2990.875	0.55	550.3	congruent	Block3	congruent/STIM_004.jpg	100
2994.783	0.914	914.5	congruent	Block3	congruent/STIM_004.jpg	99
2998.941	0.803	802.7	congruent	Block3	congruent/STIM_004.jpg	100
3003.469	0.942	942.5	congruent	Block3	congruent/STIM_004.jpg	100
3006.441	0.628	628.3	congruent	Block3	congruent/STIM_005.jpg	100
3010.572	0.788	788.1	congruent	Block3	congruent/STIM_005.jpg	100
3014.137	0.635	634.9	congruent	Block3	congruent/STIM_005.jpg	100
3017.527	0.908	908.3	congruent	Block3	congruent/STIM_005.jpg	99
3020.569	0.732	731.5	congruent	Block3	congruent/STIM_005.jpg	99
3025.059	0.956	956.0	congruent	Block3	congruent/STIM_006.jpg	99
3029.358	0.836	835.7	congruent	Block3	congruent/STIM_006.jpg	100
3032.797	0.956	956.4	congruent	Block3	congruent/STIM_006.jpg	99
3035.827	0.791	791.2	congruent	Block3	congruent/STIM_006.jpg	100
3038.863	0.711	711.3	congruent	Block3	congruent/STIM_006.jpg	100
3042.729	0.639	639.1	congruent	Block3	congruent/STIM_007.jpg	100
3045.813	0.936	935.6	congruent	Block3	congruent/STIM_007.jpg	99
3048.833	0.676	676.1	congruent	Block3	congruent/STIM_007.jpg	100
3051.854	0.789	788.8	congruent	Block3	congruent/STIM_007.jpg	99
3054.96	0.619	618.7	congruent	Block3	congruent/STIM_007.jpg	100
3058.506	0.899	899.0	congruent	Block3	congruent/STIM_008.jpg	99
3061.841	0.729	729.1	congruent	Block3	congruent/STIM_008.jpg	100
3066.473	0.791	791.2	congruent	Block3	congruent/STIM_008.jpg	100
3070.466	0.78	779.9	congruent	Block3	congruent/STIM_008.jpg	100
3073.994	0.954	954.5	congruent	Block3	congruent/STIM_008.jpg	100
3077.281	0.633	632.8	congruent	Block3	congruent/STIM_009.jpg	100
3081.845	0.923	923.1	congruent	Block3	congruent/STIM_009.jpg	100
3085.43	0.736	735.9	congruent	Block3	congruent/STIM_009.jpg	99
3088.942	0.822	822.5	congruent	Block3	congruent/STIM_009.jpg	100
3092.678	0.76	759.5	congruent	Block3	congruent/STIM_009.jpg	100
3096.667	0.8	799.5	congruent	Block3	congruent/STIM_010.jpg	99
3100.043	0.622	621.7	congruent	Block3	congruent/STIM_010.jpg	99
3104.131	0.811	811.1	congruent	Block3	congruent/STIM_010.jpg	99
3108.549	0.632	631.7	congruent	Block3	congruent/STIM_010.jpg	99
3112.804	0.821	820.8	congruent	Block3	congruent/STIM_010.jpg	100
3117.222	0.611	611.2	congruent	Block3	congruent/STIM_011.jpg	100
3121.791	0.906	906.5	congruent	Block3	congruent/STIM_011.jpg	100
3126.375	0.881	880.8	congruent	Block3	congruent/STIM_011.jpg	100
3129.588	0.653	652.9	congruent	Block3	congruent/STIM_011.jpg	100
3134.142	0.573	573.2	congruent	Block3	congruent/STIM_011.jpg	99
3137.948	0.578	578.5	congruent	Block3	congruent/STIM_012.jpg	99
3140.646	0.701	701.4	congruent	Block3	congruent/STIM_012.jpg	99
3144.367	0.906	905.5	congruent	Block3	congruent/STIM_012.jpg	99
3148.066	0.832	831.8	congruent	Block3	congruent/STIM_012.jpg	99
3151.811	0.557	557.4	congruent	Block3	congruent/STIM_012.jpg	100
3154.954	0.648	647.9	congruent	Block3	congruent/STIM_013.jpg	100
3158.271	0.984	983.8	congruent	Block3	congruent/STIM_013.jpg	99
3162.989	0.849	849.3	congruent	Block3	congruent/STIM_013.jpg	100
3167.308	0.979	979.1	congruent	Block3	congruent/STIM_013.jpg	99
3170.722	0.794	794.1	congruent	Block3	congruent/STIM_013.jpg	100
3175.308	0.89	889.7	congruent	Block3	congruent/STIM_014.jpg	100
3179.468	0.566	565.8	congruent	Block3	congruent/STIM_014.jpg	100
3182.74	0.552	552.0	congruent	Block3	congruent/STIM_014.jpg	99
3186.395	0.577	577.2	congruent	Block3	congruent/STIM_014.jpg	99
3189.012	0.64	639.8	congruent	Block3	congruent/STIM_014.jpg	99
3193.173	0.804	803.6	congruent	Block3	congruent/STIM_015.jpg	100
3197.889	0.59	589.8	congruent	Block3	congruent/STIM_015.jpg	100
3200.699	0.677	677.4	congruent	Block3	congruent/STIM_015.jpg	99
3204.006	0.702	702.1	congruent	Block3	congruent/STIM_015.jpg	100
3206.761	0.83	830.3	congruent	Block3	congruent/STIM_015.jpg	99
3210.34	0.568	568.1	congruent	Block3	congruent/STIM_016.jpg	99
3214.387	0.821	821.0	congruent	Block3	congruent/STIM_016.jpg	99
3217.357	0.589	589.0	congruent	Block3	congruent/STIM_016.jpg	100
3220.494	0.955	955.4	congruent	Block3	congruent/STIM_016.jpg	100
3224.485	0.669	669.1	congruent	Block3	congruent/STIM_016.jpg	99
3227.505	0.692	691.6	congruent	Block3	congruent/STIM_017.jpg	100
3230.389	0.762	761.6	congruent	Block3	congruent/STIM_017.jpg	100
3233.991	0.634	633.8	congruent	Block3	congruent/STIM_017.jpg	100
3237.739	0.63	629.6	congruent	Block3	congruent/STIM_017.jpg	100
3241.335	0.89	889.7	congruent	Block3	congruent/STIM_017.jpg	99
3244.554	0.954	954.3	congruent	Block3	congruent/STIM_018.jpg	100
3247.789	0.865	864.7	congruent	Block3	congruent/STIM_018.jpg	100
3252.064	0.971	971.1	congruent	Block3	congruent/STIM_018.jpg	100
3256.019	0.802	801.5	congruent	Block3	congruent/STIM_018.jpg	100
3259.236	0.706	706.3	congruent	Block3	congruent/STIM_018.jpg	99
3263.109	0.756	756.0	congruent	Block3	congruent/STIM_019.jpg	100
3266.898	0.74	739.6	congruent	Block3	congruent/STIM_019.jpg	99
3270.138	0.96	959.9	congruent	Block3	congruent/STIM_019.jpg	99
3273.114	0.598	598.3	congruent	Block3	congruent/STIM_019.jpg	99
3275.901	0.638	638.2	congruent	Block3	congruent/STIM_019.jpg	100
3278.83	0.563	563.2	congruent	Block3	congruent/STIM_020.jpg	100
3281.835	0.962	961.9	congruent	Block3	congruent/STIM_020.jpg	99
3286.284	0.873	872.8	congruent	Block3	congruent/STIM_020.jpg	100
3290.726	0.902	902.3	congruent	Block3	congruent/STIM_020.jpg	100
3294.924	0.807	807.4	congruent	Block3	congruent/STIM_020.jpg	100
3297.955	0.917	916.7	congruent	Block3	congruent/STIM_021.jpg	99
3301.069	0.919	918.9	congruent	Block3	congruent/STIM_021.jpg	100
3305.564	0.918	917.7	congruent	Block3	congruent/STIM_021.jpg	99
3309.411	0.822	821.8	congruent	Block3	congruent/STIM_021.jpg	100
3313.803	0.891	891.2	congruent	Block3	congruent/STIM_021.jpg	99
3317.913	0.586	586.5	congruent	Block3	congruent/STIM_022.jpg	100
3321.875	0.553	552.6	congruent	Block3	congruent/STIM_022.jpg	99
3324.834	0.675	674.7	congruent	Block3	congruent/STIM_022.jpg	99
3327.81	0.684	684.0	congruent	Block3	congruent/STIM_022.jpg	99
3330.785	0.633	633.2	congruent	Block3	congruent/STIM_022.jpg	100
3334.535	0.671	671.0	congruent	Block3	congruent/STIM_023.jpg	99
3338.195	0.779	778.9	congruent	Block3	congruent/STIM_023.jpg	99
3342.967	0.787	786.8	congruent	Block3	congruent/STIM_023.jpg	100
3347.324	0.642	642.0	congruent	Block3	congruent/STIM_023.jpg	100
3350.709	0.874	874.5	congruent	Block3	congruent/STIM_023.jpg	99
3355.503	0.656	656.1	congruent	Block3	congruent/STIM_024.jpg	100
3358.439	0.729	729.3	congruent	Block3	congruent/STIM_024.jpg	100
3362.884	0.91	909.6	congruent	Block3	congruent/STIM_024.jpg	99
3366.303	0.691	690.9	congruent	Block3	congruent/STIM_024.jpg	99
3370.26	0.96	960.0	congruent	Block3	congruent/STIM_024.jpg	99
3373.67	0.6	600.5	congruent	Block3	congruent/STIM_025.jpg	99
3377.141	0.908	908.3	congruent	Block3	congruent/STIM_025.jpg	100
3380.777	0.809	809.0	congruent	Block3	congruent/STIM_025.jpg	99
3385.352	0.558	557.5	congruent	Block3	congruent/STIM_025.jpg	100
3388.933	0.814	813.5	congruent	Block3	congruent/STIM_025.jpg	99
3391.922	0.609	608.7	congruent	Block3	congruent/STIM_026.jpg	99
3395.462	0.842	841.5	congruent	Block3	congruent/STIM_026.jpg	100
3398.664	0.959	958.7	congruent	Block3	congruent/STIM_026.jpg	100
3402.116	0.628	627.7	congruent	Block3	congruent/STIM_026.jpg	100
3405.297	0.609	608.6	congruent	Block3	congruent/STIM_026.jpg	99
3408.786	0.883	882.7	congruent	Block3	congruent/STIM_027.jpg	100
3412.684	0.565	565.3	congruent	Block3	congruent/STIM_027.jpg	100
3416.929	0.895	895.2	congruent	Block3	congruent/STIM_027.jpg	99
3420.217	0.929	928.9	congruent	Block3	congruent/STIM_027.jpg	99
3423.843	0.842	842.4	congruent	Block3	congruent/STIM_027.jpg	99
3427.412	0.676	675.8	congruent	Block3	congruent/STIM_028.jpg	99
3430.391	0.843	843.1	congruent	Block3	congruent/STIM_028.jpg	99
3434.754	0.724	724.1	congruent	Block3	congruent/STIM_028.jpg	99
3439.445	0.701	701.0	congruent	Block3	congruent/STIM_028.jpg	99
3443.88	0.774	773.6	congruent	Block3	congruent/STIM_028.jpg	100
3447.566	0.857	856.6	congruent	Block3	congruent/STIM_029.jpg	100
3450.767	0.892	891.9	congruent	Block3	congruent/STIM_029.jpg	100
3455.007	0.87	870.5	congruent	Block3	congruent/STIM_029.jpg	99
3458.854	0.964	963.5	congruent	Block3	congruent/STIM_029.jpg	99
3463.026	0.824	823.8	congruent	Block3	congruent/STIM_029.jpg	100
