onset	duration	response_time_ms	trial_type	learning_stage	stimulus	response_port
0.0	2.352	2352.4	regulate	Run1	regulate/STIM_000.jpg	99
4.863	1.966	1965.5	regulate	Run1	regulate/STIM_000.jpg	99
9.224	1.552	1551.8	regulate	Run1	regulate/STIM_000.jpg	100
14.126	1.925	1924.9	regulate	Run1	regulate/STIM_000.jpg	100
19.687	3.502	3501.7	regulate	Run1	regulate/STIM_001.jpg	99
26.443	3.223	3223.2	regulate	Run1	regulate/STIM_001.jpg	100
33.126	1.754	1753.8	regulate	Run1	regulate/STIM_001.jpg	100
37.745	3.133	3133.1	regulate	Run1	regulate/STIM_001.jpg	100
42.926	3.236	3235.8	regulate	Run1	regulate/STIM_002.jpg	99
49.573	2.858	2858.4	regulate	Run1	regulate/STIM_002.jpg	100
54.979	1.478	1478.5	regulate	Run1	regulate/STIM_002.jpg	99
59.973	1.747	1747.3	regulate	Run1	regulate/STIM_002.jpg	100
63.754	2.526	2525.5	regulate	Run1	regulate/STIM_003.jpg	100
69.137	3.472	3472.0	regulate	Run1	regulate/STIM_003.jpg	99
76.434	3.164	3164.0	regulate	Run1	regulate/STIM_003.jpg	99
82.898	1.544	1543.8	regulate	Run1	regulate/STIM_003.jpg	99
87.332	2.643	2643.3	regulate	Run1	regulate/STIM_004.jpg	99
92.687	2.056	2055.5	regulate	Run1	regulate/STIM_004.jpg	99
97.926	1.823	1823.0	regulate	Run1	regulate/STIM_004.jpg	99
103.692	2.697	2697.4	regulate	Run1	regulate/STIM_004.jpg	99
108.791	2.769	2769.2	regulate	Run1	regulate/STIM_005.jpg	99
114.521	3.006	3006.5	regulate	Run1	regulate/STIM_005.jpg	100
119.947	2.704	2703.9	regulate	Run1	regulate/STIM_005.jpg	100
125.538	1.912	1911.8	regulate	Run1	regulate/STIM_005.jpg	100
130.211	2.295	2295.3	regulate	Run1	regulate/STIM_006.jpg	99
136.356	1.98	1980.1	regulate	Run1	regulate/STIM_006.jpg	99
141.592	2.673	2673.3	regulate	Run1	regulate/STIM_006.jpg	99
146.566	1.441	1440.6	regulate	Run1	regulate/STIM_006.jpg	99
151.572	1.94	1939.9	regulate	Run1	regulate/STIM_007.jpg	100
155.634	1.528	1528.1	regulate	Run1	regulate/STIM_007.jpg	100
160.349	3.168	3168.1	regulate	Run1	regulate/STIM_007.jpg	100
166.017	3.059	3058.9	regulate	Run1	regulate/STIM_007.jpg	100
171.255	3.24	3240.1	regulate	Run1	regulate/STIM_008.jpg	99
177.708	2.864	2864.4	regulate	Run1	regulate/STIM_008.jpg	99
184.41	2.816	2815.6	regulate	Run1	regulate/STIM_008.jpg	100
189.973	2.524	2523.5	regulate	Run1	regulate/STIM_008.jpg	99
195.643	2.676	2675.9	regulate	Run1	regulate/STIM_009.jpg	100
200.988	2.448	2447.6	regulate	Run1	regulate/STIM_009.jpg	99
205.837	3.295	3294.6	regulate	Run1	regulate/STIM_009.jpg	100
212.655	2.266	2266.1	regulate	Run1	regulate/STIM_009.jpg	100
217.29	3.638	3637.7	regulate	Run1	regulate/STIM_010.jpg	99
223.967	2.725	2725.3	regulate	Run1	regulate/STIM_010.jpg	100
230.562	2.85	2849.9	regulate	Run1	regulate/STIM_010.jpg	99
235.412	1.691	1690.6	regulate	Run1	regulate/STIM_010.jpg	100
239.588	1.674	1673.8	regulate	Run1	regulate/STIM_011.jpg	99
244.541	2.597	2597.1	regulate	Run1	regulate/STIM_011.jpg	100
249.152	2.179	2179.0	regulate	Run1	regulate/STIM_011.jpg	100
254.426	1.6	1600.3	regulate	Run1	regulate/STIM_011.jpg	100
258.981	1.927	1927.0	regulate	Run1	regulate/STIM_012.jpg	100
263.965	2.131	2131.3	regulate	Run1	regulate/STIM_012.jpg	99
269.288	3.09	3090.5	regulate	Run1	regulate/STIM_012.jpg	100
275.574	3.103	3102.9	regulate	Run1	regulate/STIM_012.jpg	99
282.476	1.691	1691.2	regulate	Run1	regulate/STIM_013.jpg	99
287.232	2.793	2792.6	regulate	Run1	regulate/STIM_013.jpg	100
293.33	1.95	1950.0	regulate	Run1	regulate/STIM_013.jpg	100
298.703	2.676	2675.9	regulate	Run1	regulate/STIM_013.jpg	99
305.238	2.756	2755.7	regulate	Run1	regulate/STIM_014.jpg	99
310.813	1.875	1874.7	regulate	Run1	regulate/STIM_014.jpg	99
316.435	3.298	3297.7	regulate	Run1	regulate/STIM_014.jpg	100
321.953	2.308	2307.6	regulate	Run1	regulate/STIM_014.jpg	100
326.833	2.684	2684.3	regulate	Run1	regulate/STIM_015.jpg	100
331.585	2.923	2923.4	regulate	Run1	regulate/STIM_015.jpg	100
338.278	2.146	2145.6	regulate	Run1	regulate/STIM_015.jpg	99
343.321	1.801	1801.0	regulate	Run1	regulate/STIM_015.jpg	99
347.988	2.578	2578.3	regulate	Run1	regulate/STIM_016.jpg	99
352.915	2.686	2686.0	regulate	Run1	regulate/STIM_016.jpg	100
358.317	2.804	2803.7	regulate	Run1	regulate/STIM_016.jpg	99
364.916	1.416	1415.6	regulate	Run1	regulate/STIM_016.jpg	99
370.179	1.904	1904.4	regulate	Run1	regulate/STIM_017.jpg	99
375.375	1.64	1639.6	regulate	Run1	regulate/STIM_017.jpg	99
379.824	3.249	3249.1	regulate	Run1	regulate/STIM_017.jpg	99
386.471	2.642	2642.1	regulate	Run1	regulate/STIM_017.jpg	99
392.518	1.752	1752.1	regulate	Run1	regulate/STIM_018.jpg	100
396.646	3.034	3034.4	regulate	Run1	regulate/STIM_018.jpg	100
403.536	2.159	2159.4	regulate	Run1	regulate/STIM_018.jpg	99
407.93	1.897	1896.7	regulate	Run1	regulate/STIM_018.jpg	100
412.591	2.735	2734.9	regulate	Run1	regulate/STIM_019.jpg	99
418.661	2.527	2527.3	regulate	Run1	regulate/STIM_019.jpg	100
423.775	2.118	2117.6	regulate	Run1	regulate/STIM_019.jpg	99
428.158	2.525	2524.6	regulate	Run1	regulate/STIM_019.jpg	99
434.117	2.86	2860.1	regulate	Run1	regulate/STIM_020.jpg	100
439.9	3.462	3461.6	regulate	Run1	regulate/STIM_020.jpg	100
445.967	1.534	1533.5	regulate	Run1	regulate/STIM_020.jpg	99
449.645	1.936	1936.4	regulate	Run1	regulate/STIM_020.jpg	99
454.74	2.486	2486.2	regulate	Run1	regulate/STIM_021.jpg	100
459.7	2.76	2760.0	regulate	Run1	regulate/STIM_021.jpg	99
465.929	3.194	3193.7	regulate	Run1	regulate/STIM_021.jpg	100
471.495	2.707	2707.2	regulate	Run1	regulate/STIM_021.jpg	99
476.656	1.678	1678.5	regulate	Run1	regulate/STIM_022.jpg	99
482.031	2.331	2330.8	regulate	Run1	regulate/STIM_022.jpg	99
486.62	2.443	2443.1	regulate	Run1	regulate/STIM_022.jpg	99
492.929	2.696	2695.8	regulate	Run1	regulate/STIM_022.jpg	100
497.855	1.858	1858.0	regulate	Run1	regulate/STIM_023.jpg	99
502.864	1.701	1701.0	regulate	Run1	regulate/STIM_023.jpg	99
507.104	2.085	2084.6	regulate	Run1	regulate/STIM_023.jpg	100
512.996	1.648	1647.8	regulate	Run1	regulate/STIM_023.jpg	99
518.608	1.936	1936.1	regulate	Run1	regulate/STIM_024.jpg	99
523.812	3.333	3333.1	regulate	Run1	regulate/STIM_024.jpg	99
530.181	3.294	3294.5	regulate	Run1	regulate/STIM_024.jpg	100
536.284	2.098	2097.5	regulate	Run1	regulate/STIM_024.jpg	100
541.429	3.526	3525.7	regulate	Run1	regulate/STIM_025.jpg	100
548.054	1.858	1857.7	regulate	Run1	regulate/STIM_025.jpg	100
552.936	1.802	1802.5	regulate	Run1	regulate/STIM_025.jpg	100
557.887	3.036	3036.2	regulate	Run1	regulate/STIM_025.jpg	99
563.36	3.468	3467.9	regulate	Run1	regulate/STIM_026.jpg	100
569.331	2.117	2117.3	regulate	Run1	regulate/STIM_026.jpg	99
573.84	1.462	1461.8	regulate	Run1	regulate/STIM_026.jpg	100
578.177	2.948	2948.0	regulate	Run1	regulate/STIM_026.jpg	100
585.109	1.741	1741.3	regulate	Run1	regulate/STIM_027.jpg	100
588.898	2.403	2402.7	regulate	Run1	regulate/STIM_027.jpg	99
594.489	1.572	1572.4	regulate	Run1	regulate/STIM_027.jpg	99
598.971	3.036	3036.2	regulate	Run1	regulate/STIM_027.jpg	99
605.156	1.926	1926.3	regulate	Run1	regulate/STIM_028.jpg	99
609.15	2.138	2137.8	regulate	Run1	regulate/STIM_028.jpg	100
614.22	2.192	2192.5	regulate	Run1	regulate/STIM_028.jpg	100
619.847	3.115	3114.6	regulate	Run1	regulate/STIM_028.jpg	100
626.164	3.168	3168.1	regulate	Run1	regulate/STIM_029.jpg	100
633.111	3.352	3352.2	regulate	Run1	regulate/STIM_029.jpg	100
639.985	2.751	2750.7	regulate	Run1	regulate/STIM_029.jpg	99
646.618	1.559	1558.7	regulate	Run1	regulate/STIM_029.jpg	99
650.567	1.221	1221.2	observe	Run1	observe/STIM_000.jpg	99
654.274	1.325	1325.4	observe	Run1	observe/STIM_000.jpg	100
658.015	0.869	868.9	observe	Run1	observe/STIM_000.jpg	99
662.483	1.593	1593.1	observe	Run1	observe/STIM_000.jpg	100
667.314	1.346	1345.8	observe	Run1	observe/STIM_001.jpg	100
670.906	0.935	935.1	observe	Run1	observe/STIM_001.jpg	100
675.511	1.0	1000.5	observe	Run1	observe/STIM_001.jpg	100
679.95	1.228	1227.6	observe	Run1	observe/STIM_001.jpg	99
683.262	1.592	1592.2	observe	Run1	observe/STIM_002.jpg	99
688.079	1.01	1009.5	observe	Run1	observe/STIM_002.jpg	99
691.53	1.292	1291.8	observe	Run1	observe/STIM_002.jpg	100
695.127	1.59	1590.5	observe	Run1	observe/STIM_002.jpg	99
698.833	1.48	1479.9	observe	Run1	observe/STIM_003.jpg	100
703.001	1.063	1062.9	observe	Run1	observe/STIM_003.jpg	99
706.335	1.024	1024.0	observe	Run1	observe/STIM_003.jpg	100
710.806	1.298	1298.5	observe	Run1	observe/STIM_003.jpg	99
716.096	1.368	1368.4	observe	Run1	observe/STIM_004.jpg	99
720.999	1.105	1104.7	observe	Run1	observe/STIM_004.jpg	100
724.723	1.418	1418.4	observe	Run1	observe/STIM_004.jpg	100
729.94	1.223	1222.7	observe	Run1	observe/STIM_004.jpg	100
734.282	1.052	1052.0	observe	Run1	observe/STIM_005.jpg	99
738.968	1.538	1537.7	observe	Run1	observe/STIM_005.jpg	99
742.516	1.035	1035.3	observe	Run1	observe/STIM_005.jpg	99
747.167	0.926	925.5	observe	Run1	observe/STIM_005.jpg	100
750.606	1.448	1448.5	observe	Run1	observe/STIM_006.jpg	99
755.206	1.6	1600.0	observe	Run1	observe/STIM_006.jpg	100
760.079	0.995	994.6	observe	Run1	observe/STIM_006.jpg	100
764.214	1.522	1522.1	observe	Run1	observe/STIM_006.jpg	99
769.204	1.458	1458.0	observe	Run1	observe/STIM_007.jpg	100
772.814	1.539	1538.9	observe	Run1	observe/STIM_007.jpg	99
776.833	0.853	853.3	observe	Run1	observe/STIM_007.jpg	100
779.74	1.452	1451.9	observe	Run1	observe/STIM_007.jpg	99
783.592	1.391	1391.3	observe	Run1	observe/STIM_008.jpg	99
787.891	1.579	1579.2	observe	Run1	observe/STIM_008.jpg	99
793.179	0.852	851.7	observe	Run1	observe/STIM_008.jpg	99
796.378	1.611	1610.8	observe	Run1	observe/STIM_008.jpg	100
800.35	1.626	1625.7	observe	Run1	observe/STIM_009.jpg	100
805.043	1.211	1211.4	observe	Run1	observe/STIM_009.jpg	100
809.059	1.668	1668.0	observe	Run1	observe/STIM_009.jpg	99
814.085	1.091	1090.9	observe	Run1	observe/STIM_009.jpg	100
818.088	1.45	1449.5	observe	Run1	observe/STIM_010.jpg	100
821.714	1.105	1104.6	observe	Run1	observe/STIM_010.jpg	100
826.373	1.454	1454.3	observe	Run1	observe/STIM_010.jpg	100
830.997	1.007	1006.8	observe	Run1	observe/STIM_010.jpg	100
835.683	0.944	944.2	observe	Run1	observe/STIM_011.jpg	99
840.62	1.404	1403.9	observe	Run1	observe/STIM_011.jpg	100
844.91	1.491	1490.8	observe	Run1	observe/STIM_011.jpg	100
848.604	1.366	1366.2	observe	Run1	observe/STIM_011.jpg	100
853.042	1.138	1138.3	observe	Run1	observe/STIM_012.jpg	99
858.029	0.913	912.8	observe	Run1	observe/STIM_012.jpg	99
861.271	1.423	1423.3	observe	Run1	observe/STIM_012.jpg	100
865.453	1.42	1419.7	observe	Run1	observe/STIM_012.jpg	99
869.637	0.985	985.4	observe	Run1	observe/STIM_013.jpg	99
873.266	1.169	1168.9	observe	Run1	observe/STIM_013.jpg	99
878.158	0.953	953.1	observe	Run1	observe/STIM_013.jpg	100
882.768	1.342	1342.2	observe	Run1	observe/STIM_013.jpg	99
886.264	0.966	966.3	observe	Run1	observe/STIM_014.jpg	100
889.371	1.437	1437.3	observe	Run1	observe/STIM_014.jpg	99
893.618	1.092	1092.1	observe	Run1	observe/STIM_014.jpg	100
898.095	1.344	1343.6	observe	Run1	observe/STIM_014.jpg	100
902.432	1.645	1644.8	observe	Run1	observe/STIM_015.jpg	99
907.991	1.616	1616.0	observe	Run1	observe/STIM_015.jpg	99
913.124	1.109	1109.1	observe	Run1	observe/STIM_015.jpg	100
918.137	1.324	1323.9	observe	Run1	observe/STIM_015.jpg	99
922.259	1.552	1551.7	observe	Run1	observe/STIM_016.jpg	100
927.668	1.033	1033.0	observe	Run1	observe/STIM_016.jpg	100
931.959	0.977	976.7	observe	Run1	observe/STIM_016.jpg	100
936.016	1.21	1210.5	observe	Run1	observe/STIM_016.jpg	99
939.981	0.909	909.3	observe	Run1	observe/STIM_017.jpg	99
943.859	1.082	1082.3	observe	Run1	observe/STIM_017.jpg	100
948.361	1.05	1050.1	observe	Run1	observe/STIM_017.jpg	99
952.763	1.321	1320.6	observe	Run1	observe/STIM_017.jpg	99
956.801	1.325	1325.3	observe	Run1	observe/STIM_018.jpg	99
960.294	1.415	1414.9	observe	Run1	observe/STIM_018.jpg	100
965.287	1.038	1037.7	observe	Run1	observe/STIM_018.jpg	100
968.615	1.49	1489.9	observe	Run1	observe/STIM_018.jpg	99
972.558	1.379	1379.1	observe	Run1	observe/STIM_019.jpg	99
976.981	1.234	1234.3	observe	Run1	observe/STIM_019.jpg	100
981.977	1.053	1052.9	observe	Run1	observe/STIM_019.jpg	99
985.358	1.18	1179.8	observe	Run1	observe/STIM_019.jpg	100
989.968	3.081	3081.4	regulate	Run2	regulate/STIM_000.jpg	99
995.281	2.231	2231.3	regulate	Run2	regulate/STIM_000.jpg	100
1000.86	1.266	1266.1	regulate	Run2	regulate/STIM_000.jpg	100
1005.748	1.169	1168.6	regulate	Run2	regulate/STIM_000.jpg	99
1010.584	1.834	1834.3	regulate	Run2	regulate/STIM_001.jpg	100
1015.038	1.838	1837.6	regulate	Run2	regulate/STIM_001.jpg	100
1019.441	1.848	1847.5	regulate	Run2	regulate/STIM_001.jpg	99
1023.822	1.961	1961.1	regulate	Run2	regulate/STIM_001.jpg	99
1029.695	3.093	3092.7	regulate	Run2	regulate/STIM_002.jpg	100
1035.926	1.455	1455.1	regulate	Run2	regulate/STIM_002.jpg	100
1040.694	1.803	1803.1	regulate	Run2	regulate/STIM_002.jpg	100
1045.519	1.158	1157.6	regulate	Run2	regulate/STIM_002.jpg	99
1048.892	1.416	1416.3	regulate	Run2	regulate/STIM_003.jpg	100
1052.753	1.829	1829.1	regulate	Run2	regulate/STIM_003.jpg	99
1057.491	1.805	1804.7	regulate	Run2	regulate/STIM_003.jpg	99
1061.904	1.885	1885.2	regulate	Run2	regulate/STIM_003.jpg	100
1066.885	2.089	2088.8	regulate	Run2	regulate/STIM_004.jpg	99
1072.365	1.296	1295.7	regulate	Run2	regulate/STIM_004.jpg	100
1077.23	2.345	2345.1	regulate	Run2	regulate/STIM_004.jpg	99
1083.156	2.543	2542.8	regulate	Run2	regulate/STIM_004.jpg	100
1088.775	2.494	2494.4	regulate	Run2	regulate/STIM_005.jpg	99
1094.637	2.686	2685.6	regulate	Run2	regulate/STIM_005.jpg	100
1100.968	1.845	1844.7	regulate	Run2	regulate/STIM_005.jpg	100
1105.799	1.895	1894.9	regulate	Run2	regulate/STIM_005.jpg	99
1109.915	1.642	1642.2	regulate	Run2	regulate/STIM_006.jpg	99
1113.698	1.461	1460.9	regulate	Run2	regulate/STIM_006.jpg	99
1119.138	2.142	2142.5	regulate	Run2	regulate/STIM_006.jpg	99
1124.277	2.117	2116.9	regulate	Run2	regulate/STIM_006.jpg	100
1128.423	2.339	2338.7	regulate	Run2	regulate/STIM_007.jpg	100
1133.848	2.428	2428.4	regulate	Run2	regulate/STIM_007.jpg	100
1139.047	2.373	2372.8	regulate	Run2	regulate/STIM_007.jpg	100
1143.817	1.984	1983.9	regulate	Run2	regulate/STIM_007.jpg	100
1148.833	2.706	2706.4	regulate	Run2	regulate/STIM_008.jpg	99
1155.47	2.285	2285.3	regulate	Run2	regulate/STIM_008.jpg	100
1160.124	1.527	1527.2	regulate	Run2	regulate/STIM_008.jpg	99
1164.198	1.716	1716.2	regulate	Run2	regulate/STIM_008.jpg	100
1169.722	1.603	1602.6	regulate	Run2	regulate/STIM_009.jpg	100
1174.155	2.588	2587.6	regulate	Run2	regulate/STIM_009.jpg	100
1179.806	1.628	1627.7	regulate	Run2	regulate/STIM_009.jpg	99
1185.393	1.778	1777.6	regulate	Run2	regulate/STIM_009.jpg	100
1189.434	1.374	1374.5	regulate	Run2	regulate/STIM_010.jpg	99
1194.054	2.471	2470.8	regulate	Run2	regulate/STIM_010.jpg	100
1199.782	2.715	2714.6	regulate	Run2	regulate/STIM_010.jpg	100
1205.253	2.418	2417.8	regulate	Run2	regulate/STIM_010.jpg	100
1210.475	1.423	1423.0	regulate	Run2	regulate/STIM_011.jpg	100
1215.327	2.803	2803.4	regulate	Run2	regulate/STIM_011.jpg	100
1220.171	1.87	1869.7	regulate	Run2	regulate/STIM_011.jpg	99
1225.346	1.645	1645.0	regulate	Run2	regulate/STIM_011.jpg	99
1230.036	2.984	2983.9	regulate	Run2	regulate/STIM_012.jpg	99
1235.076	1.542	1542.2	regulate	Run2	regulate/STIM_012.jpg	99
1239.187	2.511	2510.9	regulate	Run2	regulate/STIM_012.jpg	100
1244.023	1.96	1960.2	regulate	Run2	regulate/STIM_012.jpg	100
1249.894	1.898	1898.0	regulate	Run2	regulate/STIM_013.jpg	99
1255.248	2.551	2551.3	regulate	Run2	regulate/STIM_013.jpg	99
1259.983	2.674	2674.5	regulate	Run2	regulate/STIM_013.jpg	99
1266.097	1.391	1391.3	regulate	Run2	regulate/STIM_013.jpg	99
1270.705	2.4	2399.7	regulate	Run2	regulate/STIM_014.jpg	100
1275.561	2.44	2439.9	regulate	Run2	regulate/STIM_014.jpg	99
1281.087	2.423	2423.4	regulate	Run2	regulate/STIM_014.jpg	100
1286.189	1.26	1259.8	regulate	Run2	regulate/STIM_014.jpg	99
1290.28	1.515	1515.1	regulate	Run2	regulate/STIM_015.jpg	99
1294.25	2.512	2512.3	regulate	Run2	regulate/STIM_015.jpg	99
1300.44	2.034	2033.8	regulate	Run2	regulate/STIM_015.jpg	100
1304.482	1.422	1422.0	regulate	Run2	regulate/STIM_015.jpg	100
1309.845	3.074	3074.5	regulate	Run2	regulate/STIM_016.jpg	100
1316.376	2.338	2337.6	regulate	Run2	regulate/STIM_016.jpg	99
1321.899	2.559	2559.1	regulate	Run2	regulate/STIM_016.jpg	100
1328.447	2.494	2494.0	regulate	Run2	regulate/STIM_016.jpg	99
1333.719	1.605	1605.1	regulate	Run2	regulate/STIM_017.jpg	99
1338.395	1.56	1560.4	regulate	Run2	regulate/STIM_017.jpg	100
1343.658	2.615	2615.4	regulate	Run2	regulate/STIM_017.jpg	99
1348.583	1.643	1642.8	regulate	Run2	regulate/STIM_017.jpg	99
1352.484	2.204	2203.9	regulate	Run2	regulate/STIM_018.jpg	100
1357.848	2.487	2486.7	regulate	Run2	regulate/STIM_018.jpg	100
1363.409	1.628	1627.7	regulate	Run2	regulate/STIM_018.jpg	99
1367.464	1.566	1566.3	regulate	Run2	regulate/STIM_018.jpg	100
1371.952	2.673	2672.9	regulate	Run2	regulate/STIM_019.jpg	100
1376.819	2.01	2009.9	regulate	Run2	regulate/STIM_019.jpg	99
1382.129	2.169	2168.6	regulate	Run2	regulate/STIM_019.jpg	100
1386.305	2.404	2403.5	regulate	Run2	regulate/STIM_019.jpg	100
1391.356	1.493	1493.0	regulate	Run2	regulate/STIM_020.jpg	99
1395.44	1.289	1289.1	regulate	Run2	regulate/STIM_020.jpg	100
1399.847	1.347	1347.4	regulate	Run2	regulate/STIM_020.jpg	99
1404.396	1.699	1698.7	regulate	Run2	regulate/STIM_020.jpg	100
1409.73	2.776	2776.0	regulate	Run2	regulate/STIM_021.jpg	100
1414.883	2.272	2272.3	regulate	Run2	regulate/STIM_021.jpg	100
1421.038	1.753	1753.4	regulate	Run2	regulate/STIM_021.jpg	99
1425.125	2.366	2365.7	regulate	Run2	regulate/STIM_021.jpg	100
1431.279	1.718	1718.1	regulate	Run2	regulate/STIM_022.jpg	100
1435.83	1.864	1864.5	regulate	Run2	regulate/STIM_022.jpg	100
1440.75	2.737	2736.9	regulate	Run2	regulate/STIM_022.jpg	100
1447.242	2.435	2434.7	regulate	Run2	regulate/STIM_022.jpg	99
1451.761	2.934	2934.3	regulate	Run2	regulate/STIM_023.jpg	100
1458.486	2.231	2231.2	regulate	Run2	regulate/STIM_023.jpg	99
1463.595	2.437	2436.8	regulate	Run2	regulate/STIM_023.jpg	100
1468.254	1.395	1395.2	regulate	Run2	regulate/STIM_023.jpg	99
1473.576	1.576	1576.2	regulate	Run2	regulate/STIM_024.jpg	100
1477.957	1.972	1971.6	regulate	Run2	regulate/STIM_024.jpg	100
1482.458	1.815	1814.9	regulate	Run2	regulate/STIM_024.jpg	100
1486.467	2.041	2041.2	regulate	Run2	regulate/STIM_024.jpg	99
1491.031	2.011	2011.2	regulate	Run2	regulate/STIM_025.jpg	99
1495.853	2.77	2770.2	regulate	Run2	regulate/STIM_025.jpg	99
1502.566	1.725	1724.8	regulate	Run2	regulate/STIM_025.jpg	100
1507.561	2.006	2005.7	regulate	Run2	regulate/STIM_025.jpg	99
1512.947	2.628	2628.5	regulate	Run2	regulate/STIM_026.jpg	100
1519.068	1.89	1889.6	regulate	Run2	regulate/STIM_026.jpg	99
1524.906	1.845	1844.9	regulate	Run2	regulate/STIM_026.jpg	99
1529.925	2.294	2294.4	regulate	Run2	regulate/STIM_026.jpg	99
1534.4	1.723	1722.7	regulate	Run2	regulate/STIM_027.jpg	100
1538.35	2.411	2410.9	regulate	Run2	regulate/STIM_027.jpg	100
1543.86	1.33	1330.5	regulate	Run2	regulate/STIM_027.jpg	99
1549.024	1.762	1761.9	regulate	Run2	regulate/STIM_027.jpg	100
1554.503	2.848	2848.5	regulate	Run2	regulate/STIM_028.jpg	100
1561.029	2.352	2352.5	regulate	Run2	regulate/STIM_028.jpg	99
1565.822	2.258	2258.1	regulate	Run2	regulate/STIM_028.jpg	100
1571.588	1.908	1908.3	regulate	Run2	regulate/STIM_028.jpg	99
1577.027	2.54	2539.5	regulate	Run2	regulate/STIM_029.jpg	99
1581.962	1.428	1427.8	regulate	Run2	regulate/STIM_029.jpg	99
1586.851	2.554	2554.0	regulate	Run2	regulate/STIM_029.jpg	100
1593.078	1.922	1921.8	regulate	Run2	regulate/STIM_029.jpg	100
1598.416	0.848	847.8	observe	Run2	observe/STIM_000.jpg	100
1601.929	1.031	1031.2	observe	Run2	observe/STIM_000.jpg	99
1606.499	1.212	1211.5	observe	Run2	observe/STIM_000.jpg	100
1611.199	1.101	1101.0	observe	Run2	observe/STIM_000.jpg	100
1616.189	1.559	1559.1	observe	Run2	observe/STIM_001.jpg	100
1619.805	1.512	1511.8	observe	Run2	observe/STIM_001.jpg	100
1624.298	1.601	1601.2	observe	Run2	observe/STIM_001.jpg	100
1629.115	1.594	1593.6	observe	Run2	observe/STIM_001.jpg	99
1633.676	1.243	1242.7	observe	Run2	observe/STIM_002.jpg	99
1638.62	1.685	1684.6	observe	Run2	observe/STIM_002.jpg	99
1643.35	0.914	913.7	observe	Run2	observe/STIM_002.jpg	99
1646.713	1.478	1477.6	observe	Run2	observe/STIM_002.jpg	100
1652.076	1.526	1525.9	observe	Run2	observe/STIM_003.jpg	100
1656.871	1.004	1003.7	observe	Run2	observe/STIM_003.jpg	99
1660.461	1.154	1154.5	observe	Run2	observe/STIM_003.jpg	100
1665.109	1.457	1457.0	observe	Run2	observe/STIM_003.jpg	99
1669.613	1.051	1050.8	observe	Run2	observe/STIM_004.jpg	100
1673.279	1.603	1603.3	observe	Run2	observe/STIM_004.jpg	99
1678.484	1.23	1230.2	observe	Run2	observe/STIM_004.jpg	100
1681.921	1.276	1276.0	observe	Run2	observe/STIM_004.jpg	99
1685.854	1.016	1016.4	observe	Run2	observe/STIM_005.jpg	99
1690.359	0.944	944.2	observe	Run2	observe/STIM_005.jpg	99
1693.757	1.599	1598.7	observe	Run2	observe/STIM_005.jpg	99
1698.431	1.389	1389.4	observe	Run2	observe/STIM_005.jpg	99
1702.343	1.292	1292.2	observe	Run2	observe/STIM_006.jpg	99
1707.384	1.22	1220.5	observe	Run2	observe/STIM_006.jpg	100
1712.459	1.636	1635.6	observe	Run2	observe/STIM_006.jpg	99
1716.998	1.319	1319.2	observe	Run2	observe/STIM_006.jpg	100
1721.828	1.086	1086.3	observe	Run2	observe/STIM_007.jpg	99
1726.36	0.922	921.7	observe	Run2	observe/STIM_007.jpg	100
1730.528	1.248	1247.7	observe	Run2	observe/STIM_007.jpg	99
1735.035	1.194	1194.5	observe	Run2	observe/STIM_007.jpg	100
1738.734	0.929	928.7	observe	Run2	observe/STIM_008.jpg	100
1742.973	1.008	1008.1	observe	Run2	observe/STIM_008.jpg	99
1747.515	1.108	1107.7	observe	Run2	observe/STIM_008.jpg	100
1751.869	0.852	851.7	observe	Run2	observe/STIM_008.jpg	99
1755.384	1.266	1266.5	observe	Run2	observe/STIM_009.jpg	100
1759.636	1.608	1607.6	observe	Run2	observe/STIM_009.jpg	100
1763.545	1.428	1427.9	observe	Run2	observe/STIM_009.jpg	100
1767.219	1.174	1173.5	observe	Run2	observe/STIM_009.jpg	100
1771.853	1.002	1001.9	observe	Run2	observe/STIM_010.jpg	99
1775.129	0.924	924.5	observe	Run2	observe/STIM_010.jpg	99
1779.423	1.579	1578.7	observe	Run2	observe/STIM_010.jpg	100
1783.284	1.068	1068.0	observe	Run2	observe/STIM_010.jpg	99
1788.336	1.628	1627.5	observe	Run2	observe/STIM_011.jpg	100
1792.014	1.282	1282.2	observe	Run2	observe/STIM_011.jpg	100
1796.22	1.313	1312.9	observe	Run2	observe/STIM_011.jpg	99
1800.813	1.599	1599.3	observe	Run2	observe/STIM_011.jpg	100
1804.907	1.238	1238.3	observe	Run2	observe/STIM_012.jpg	100
1809.447	1.566	1565.5	observe	Run2	observe/STIM_012.jpg	100
1814.636	0.988	988.4	observe	Run2	observe/STIM_012.jpg	99
1818.279	1.315	1315.2	observe	Run2	observe/STIM_012.jpg	99
1823.151	1.009	1008.7	observe	Run2	observe/STIM_013.jpg	99
1826.841	1.354	1354.5	observe	Run2	observe/STIM_013.jpg	99
1832.04	1.1	1100.3	observe	Run2	observe/STIM_013.jpg	100
1836.901	1.193	1192.6	observe	Run2	observe/STIM_013.jpg	99
1841.012	1.499	1499.0	observe	Run2	observe/STIM_014.jpg	100
1845.136	1.617	1616.7	observe	Run2	observe/STIM_014.jpg	99
1849.845	1.04	1039.8	observe	Run2	observe/STIM_014.jpg	100
1853.259	1.024	1023.7	observe	Run2	observe/STIM_014.jpg	99
1856.984	1.004	1004.5	observe	Run2	observe/STIM_015.jpg	99
1861.017	1.521	1521.1	observe	Run2	observe/STIM_015.jpg	99
1866.377	1.398	1398.1	observe	Run2	observe/STIM_015.jpg	100
1871.694	1.556	1556.3	observe	Run2	observe/STIM_015.jpg	99
1876.353	0.952	952.0	observe	Run2	observe/STIM_016.jpg	99
1880.183	1.356	1356.3	observe	Run2	observe/STIM_016.jpg	100
1885.196	0.951	950.9	observe	Run2	observe/STIM_016.jpg	100
1888.467	1.349	1349.1	observe	Run2	observe/STIM_016.jpg	99
1893.007	1.46	1459.6	observe	Run2	observe/STIM_017.jpg	100
1897.285	0.907	906.7	observe	Run2	observe/STIM_017.jpg	100
1900.908	0.888	888.5	observe	Run2	observe/STIM_017.jpg	99
1905.752	1.237	1236.9	observe	Run2	observe/STIM_017.jpg	99
1910.429	0.969	968.8	observe	Run2	observe/STIM_018.jpg	100
1914.316	0.892	892.0	observe	Run2	observe/STIM_018.jpg	99
1918.266	1.114	1114.1	observe	Run2	observe/STIM_018.jpg	99
1922.391	1.522	1521.7	observe	Run2	observe/STIM_018.jpg	100
1926.403	1.148	1148.4	observe	Run2	observe/STIM_019.jpg	99
1930.289	1.683	1683.0	observe	Run2	observe/STIM_019.jpg	99
1935.496	0.948	947.9	observe	Run2	observe/STIM_019.jpg	99
1940.286	1.435	1435.1	observe	Run2	observe/STIM_019.jpg	100
1945.205	1.224	1223.6	regulate	Run3	regulate/STIM_000.jpg	99
1948.608	1.789	1789.0	regulate	Run3	regulate/STIM_000.jpg	100
1952.828	1.97	1970.5	regulate	Run3	regulate/STIM_000.jpg	99
1958.767	1.303	1302.7	regulate	Run3	regulate/STIM_000.jpg	100
1962.767	1.686	1685.5	regulate	Run3	regulate/STIM_001.jpg	99
1968.006	1.975	1975.1	regulate	Run3	regulate/STIM_001.jpg	99
1973.221	2.227	2226.9	regulate	Run3	regulate/STIM_001.jpg	99
1978.039	2.228	2228.5	regulate	Run3	regulate/STIM_001.jpg	99
1983.311	1.775	1775.3	regulate	Run3	regulate/STIM_002.jpg	99
1988.901	1.119	1119.2	regulate	Run3	regulate/STIM_002.jpg	99
1993.149	1.318	1317.7	regulate	Run3	regulate/STIM_002.jpg	99
1997.784	1.259	1258.6	regulate	Run3	regulate/STIM_002.jpg	99
2001.159	2.274	2274.1	regulate	Run3	regulate/STIM_003.jpg	100
2007.059	1.158	1158.2	regulate	Run3	regulate/STIM_003.jpg	99
2010.78	1.469	1468.7	regulate	Run3	regulate/STIM_003.jpg	100
2015.281	1.339	1338.6	regulate	Run3	regulate/STIM_003.jpg	99
2019.378	1.682	1681.7	regulate	Run3	regulate/STIM_004.jpg	100
2023.414	1.843	1842.7	regulate	Run3	regulate/STIM_004.jpg	100
2027.403	1.875	1874.7	regulate	Run3	regulate/STIM_004.jpg	100
2032.684	1.73	1730.0	regulate	Run3	regulate/STIM_004.jpg	100
2037.831	1.661	1661.3	regulate	Run3	regulate/STIM_005.jpg	99
2043.286	2.372	2372.4	regulate	Run3	regulate/STIM_005.jpg	100
2047.686	1.157	1157.3	regulate	Run3	regulate/STIM_005.jpg	99
2050.891	2.223	2222.9	regulate	Run3	regulate/STIM_005.jpg	99
2055.954	1.534	1533.6	regulate	Run3	regulate/STIM_006.jpg	100
2060.281	2.354	2353.8	regulate	Run3	regulate/STIM_006.jpg	100
2066.246	1.576	1576.4	regulate	Run3	regulate/STIM_006.jpg	99
2071.783	1.732	1732.3	regulate	Run3	regulate/STIM_006.jpg	100
2076.281	1.597	1597.3	regulate	Run3	regulate/STIM_007.jpg	100
2080.545	1.773	1773.2	regulate	Run3	regulate/STIM_007.jpg	99
2084.65	1.41	1410.2	regulate	Run3	regulate/STIM_007.jpg	99
2089.101	1.918	1918.3	regulate	Run3	regulate/STIM_007.jpg	99
2093.789	1.172	1171.5	regulate	Run3	regulate/STIM_008.jpg	99
2097.732	1.626	1625.5	regulate	Run3	regulate/STIM_008.jpg	100
2103.197	1.169	1169.2	regulate	Run3	regulate/STIM_008.jpg	100
2108.131	2.54	2540.0	regulate	Run3	regulate/STIM_008.jpg	99
2112.893	1.246	1246.4	regulate	Run3	regulate/STIM_009.jpg	99
2117.623	1.91	1910.0	regulate	Run3	regulate/STIM_009.jpg	99
2121.921	1.727	1727.4	regulate	Run3	regulate/STIM_009.jpg	99
2127.162	1.43	1430.5	regulate	Run3	regulate/STIM_009.jpg	99
2131.001	2.358	2358.3	regulate	Run3	regulate/STIM_010.jpg	99
2135.528	2.219	2219.2	regulate	Run3	regulate/STIM_010.jpg	100
2141.117	1.408	1407.6	regulate	Run3	regulate/STIM_010.jpg	100
2145.912	1.67	1670.1	regulate	Run3	regulate/STIM_010.jpg	99
2149.924	2.518	2518.1	regulate	Run3	regulate/STIM_011.jpg	100
2155.015	2.474	2473.9	regulate	Run3	regulate/STIM_011.jpg	100
2160.136	1.122	1121.8	regulate	Run3	regulate/STIM_011.jpg	100
2164.604	2.537	2537.2	regulate	Run3	regulate/STIM_011.jpg	99
2169.898	2.487	2487.3	regulate	Run3	regulate/STIM_012.jpg	100
2176.15	1.616	1616.5	regulate	Run3	regulate/STIM_012.jpg	99
2180.577	2.55	2549.7	regulate	Run3	regulate/STIM_012.jpg	99
2186.429	2.272	2272.1	regulate	Run3	regulate/STIM_012.jpg	99
2191.913	2.006	2005.9	regulate	Run3	regulate/STIM_013.jpg	99
2196.216	1.797	1796.8	regulate	Run3	regulate/STIM_013.jpg	99
2201.419	2.508	2507.5	regulate	Run3	regulate/STIM_013.jpg	100
2206.285	2.112	2111.7	regulate	Run3	regulate/STIM_013.jpg	100
2210.903	1.452	1452.2	regulate	Run3	regulate/STIM_014.jpg	99
2215.462	2.035	2035.5	regulate	Run3	regulate/STIM_014.jpg	100
2221.246	1.864	1864.5	regulate	Run3	regulate/STIM_014.jpg	100
2226.628	2.464	2463.6	regulate	Run3	regulate/STIM_014.jpg	99
2232.816	1.418	1418.5	regulate	Run3	regulate/STIM_015.jpg	100
2237.417	1.793	1792.9	regulate	Run3	regulate/STIM_015.jpg	100
2242.878	2.45	2450.0	regulate	Run3	regulate/STIM_015.jpg	100
2247.817	1.349	1349.3	regulate	Run3	regulate/STIM_015.jpg	99
2251.601	2.544	2543.5	regulate	Run3	regulate/STIM_016.jpg	100
2256.95	1.48	1480.0	regulate	Run3	regulate/STIM_016.jpg	99
2260.503	1.288	1287.6	regulate	Run3	regulate/STIM_016.jpg	99
2265.206	2.308	2308.1	regulate	Run3	regulate/STIM_016.jpg	100
2270.928	1.513	1512.7	regulate	Run3	regulate/STIM_017.jpg	100
2275.71	1.368	1367.7	regulate	Run3	regulate/STIM_017.jpg	100
2280.277	1.988	1988.1	regulate	Run3	regulate/STIM_017.jpg	100
2284.643	1.781	1780.6	regulate	Run3	regulate/STIM_017.jpg	99
2290.057	2.297	2296.8	regulate	Run3	regulate/STIM_018.jpg	100
2294.464	1.764	1763.5	regulate	Run3	regulate/STIM_018.jpg	100
2299.493	1.482	1482.1	regulate	Run3	regulate/STIM_018.jpg	100
2303.805	2.241	2241.4	regulate	Run3	regulate/STIM_018.jpg	100
2308.284	2.22	2220.1	regulate	Run3	regulate/STIM_019.jpg	100
2313.601	1.188	1187.6	regulate	Run3	regulate/STIM_019.jpg	100
2317.914	1.709	1708.7	regulate	Run3	regulate/STIM_019.jpg	99
2322.504	2.096	2096.3	regulate	Run3	regulate/STIM_019.jpg	100
2327.191	2.41	2409.8	regulate	Run3	regulate/STIM_020.jpg	100
2333.194	1.552	1551.7	regulate	Run3	regulate/STIM_020.jpg	99
2337.195	2.018	2017.9	regulate	Run3	regulate/STIM_020.jpg	100
2341.808	1.426	1426.3	regulate	Run3	regulate/STIM_020.jpg	99
2345.278	1.379	1378.7	regulate	Run3	regulate/STIM_021.jpg	100
2350.543	1.245	1245.1	regulate	Run3	regulate/STIM_021.jpg	99
2353.813	1.205	1205.4	regulate	Run3	regulate/STIM_021.jpg	99
2358.834	1.439	1439.4	regulate	Run3	regulate/STIM_021.jpg	99
2363.021	1.638	1638.3	regulate	Run3	regulate/STIM_022.jpg	99
2366.804	2.06	2060.1	regulate	Run3	regulate/STIM_022.jpg	99
2371.632	2.5	2499.5	regulate	Run3	regulate/STIM_022.jpg	100
2377.324	2.09	2090.1	regulate	Run3	regulate/STIM_022.jpg	100
2381.899	1.626	1625.7	regulate	Run3	regulate/STIM_023.jpg	99
2387.345	1.236	1235.8	regulate	Run3	regulate/STIM_023.jpg	99
2392.535	2.276	2276.1	regulate	Run3	regulate/STIM_023.jpg	100
2397.542	1.705	1704.9	regulate	Run3	regulate/STIM_023.jpg	99
2402.603	1.468	1467.5	regulate	Run3	regulate/STIM_024.jpg	99
2407.722	1.118	1117.8	regulate	Run3	regulate/STIM_024.jpg	99
2411.871	1.709	1708.9	regulate	Run3	regulate/STIM_024.jpg	100
2416.948	1.819	1819.0	regulate	Run3	regulate/STIM_024.jpg	99
2421.181	1.792	1792.2	regulate	Run3	regulate/STIM_025.jpg	100
2426.609	1.946	1945.8	regulate	Run3	regulate/STIM_025.jpg	99
2431.034	1.768	1768.0	regulate	Run3	regulate/STIM_025.jpg	99
2436.462	1.8	1800.0	regulate	Run3	regulate/STIM_025.jpg	100
2440.698	2.328	2328.0	regulate	Run3	regulate/STIM_026.jpg	100
2446.36	1.516	1516.1	regulate	Run3	regulate/STIM_026.jpg	100
2450.318	1.498	1498.1	regulate	Run3	regulate/STIM_026.jpg	99
2454.693	1.742	1742.3	regulate	Run3	regulate/STIM_026.jpg	100
2460.15	2.465	2464.7	regulate	Run3	regulate/STIM_027.jpg	100
2465.661	1.755	1755.4	regulate	Run3	regulate/STIM_027.jpg	99
2471.352	2.207	2207.4	regulate	Run3	regulate/STIM_027.jpg	99
2475.681	1.249	1249.4	regulate	Run3	regulate/STIM_027.jpg	99
2479.538	1.746	1745.6	regulate	Run3	regulate/STIM_028.jpg	100
2483.62	2.505	2504.9	regulate	Run3	regulate/STIM_028.jpg	99
2489.631	2.072	2072.0	regulate	Run3	regulate/STIM_028.jpg	100
2495.493	1.827	1827.4	regulate	Run3	regulate/STIM_028.jpg	99
2500.787	2.44	2439.8	regulate	Run3	regulate/STIM_029.jpg	100
2507.032	2.398	2398.3	regulate	Run3	regulate/STIM_029.jpg	99
2511.869	1.557	1557.1	regulate	Run3	regulate/STIM_029.jpg	99
2516.278	1.188	1188.5	regulate	Run3	regulate/STIM_029.jpg	100
2519.702	1.683	1682.9	observe	Run3	observe/STIM_000.jpg	99
2524.753	1.241	1240.9	observe	Run3	observe/STIM_000.jpg	100
2529.895	0.865	865.2	observe	Run3	observe/STIM_000.jpg	99
2533.82	0.877	877.4	observe	Run3	observe/STIM_000.jpg	99
2537.323	1.471	1470.8	observe	Run3	observe/STIM_001.jpg	100
2542.397	1.382	1381.8	observe	Run3	observe/STIM_001.jpg	100
2547.209	1.236	1236.2	observe	Run3	observe/STIM_001.jpg	99
2552.062	1.395	1395.3	observe	Run3	observe/STIM_001.jpg	99
2556.664	0.935	934.9	observe	Run3	observe/STIM_002.jpg	99
2560.611	1.237	1237.1	observe	Run3	observe/STIM_002.jpg	99
2565.65	1.26	1259.9	observe	Run3	observe/STIM_002.jpg	100
2569.918	1.642	1641.6	observe	Run3	observe/STIM_002.jpg	100
2574.975	0.928	928.5	observe	Run3	observe/STIM_003.jpg	100
2578.724	1.206	1205.7	observe	Run3	observe/STIM_003.jpg	99
2583.204	0.99	989.5	observe	Run3	observe/STIM_003.jpg	100
2587.694	1.161	1161.4	observe	Run3	observe/STIM_003.jpg	99
2592.611	1.037	1037.3	observe	Run3	observe/STIM_004.jpg	100
2596.935	1.011	1011.3	observe	Run3	observe/STIM_004.jpg	100
2601.785	1.618	1617.5	observe	Run3	observe/STIM_004.jpg	100
2606.948	1.206	1206.4	observe	Run3	observe/STIM_004.jpg	99
2611.352	1.549	1549.1	observe	Run3	observe/STIM_005.jpg	99
2616.292	0.963	963.3	observe	Run3	observe/STIM_005.jpg	100
2620.848	0.942	942.5	observe	Run3	observe/STIM_005.jpg	100
2625.279	1.042	1042.4	observe	Run3	observe/STIM_005.jpg	100
2629.652	1.041	1040.6	observe	Run3	observe/STIM_006.jpg	99
2634.436	1.66	1660.3	observe	Run3	observe/STIM_006.jpg	99
2638.44	0.9	899.7	observe	Run3	observe/STIM_006.jpg	99
2642.47	1.214	1214.1	observe	Run3	observe/STIM_006.jpg	99
2646.59	1.032	1032.5	observe	Run3	observe/STIM_007.jpg	100
2650.729	1.266	1265.8	observe	Run3	observe/STIM_007.jpg	100
2654.962	1.331	1331.4	observe	Run3	observe/STIM_007.jpg	100
2658.961	1.401	1400.8	observe	Run3	observe/STIM_007.jpg	99
2663.459	1.385	1384.9	observe	Run3	observe/STIM_008.jpg	100
2667.72	1.036	1036.2	observe	Run3	observe/STIM_008.jpg	99
2672.423	1.168	1167.6	observe	Run3	observe/STIM_008.jpg	100
2676.504	1.623	1622.7	observe	Run3	observe/STIM_008.jpg	99
2681.754	1.348	1347.6	observe	Run3	observe/STIM_009.jpg	99
2686.583	1.152	1151.7	observe	Run3	observe/STIM_009.jpg	100
2690.498	1.087	1086.6	observe	Run3	observe/STIM_009.jpg	99
2694.691	1.03	1029.7	observe	Run3	observe/STIM_009.jpg	100
2698.726	1.533	1532.7	observe	Run3	observe/STIM_010.jpg	99
2703.913	1.096	1096.4	observe	Run3	observe/STIM_010.jpg	99
2707.692	1.192	1192.2	observe	Run3	observe/STIM_010.jpg	100
2711.605	1.472	1472.1	observe	Run3	observe/STIM_010.jpg	100
2715.751	1.163	1163.1	observe	Run3	observe/STIM_011.jpg	99
2720.257	1.333	1333.0	observe	Run3	observe/STIM_011.jpg	100
2723.981	0.914	914.5	observe	Run3	observe/STIM_011.jpg	100
2727.315	1.53	1530.2	observe	Run3	observe/STIM_011.jpg	99
2732.135	1.038	1037.9	observe	Run3	observe/STIM_012.jpg	99
2735.801	1.53	1529.8	observe	Run3	observe/STIM_012.jpg	100
2739.356	1.439	1438.7	observe	Run3	observe/STIM_012.jpg	99
2744.691	1.101	1100.8	observe	Run3	observe/STIM_012.jpg	99
2748.008	1.268	1267.8	observe	Run3	observe/STIM_013.jpg	99
2752.895	1.182	1181.8	observe	Run3	observe/STIM_013.jpg	100
2757.945	1.086	1086.2	observe	Run3	observe/STIM_013.jpg	100
2761.264	1.283	1283.2	observe	Run3	observe/STIM_013.jpg	99
2766.503	0.887	886.7	observe	Run3	observe/STIM_014.jpg	99
2771.334	1.347	1347.1	observe	Run3	observe/STIM_014.jpg	100
2775.783	1.384	1383.6	observe	Run3	observe/STIM_014.jpg	100
2781.044	0.988	987.6	observe	Run3	observe/STIM_014.jpg	99
2784.567	1.256	1255.9	observe	Run3	observe/STIM_015.jpg	100
2788.378	1.129	1129.3	observe	Run3	observe/STIM_015.jpg	99
2792.969	0.867	867.4	observe	Run3	observe/STIM_015.jpg	99
2796.206	0.993	993.1	observe	Run3	observe/STIM_015.jpg	99
2801.196	1.326	1326.4	observe	Run3	observe/STIM_016.jpg	99
2805.803	1.657	1657.2	observe	Run3	observe/STIM_016.jpg	99
2811.016	1.064	1063.7	observe	Run3	observe/STIM_016.jpg	100
2815.146	0.911	910.7	observe	Run3	observe/STIM_016.jpg	100
2818.868	1.647	1646.6	observe	Run3	observe/STIM_017.jpg	99
2823.732	0.981	981.2	observe	Run3	observe/STIM_017.jpg	100
2826.861	1.113	1112.7	observe	Run3	observe/STIM_017.jpg	100
2831.362	1.424	1424.4	observe	Run3	observe/STIM_017.jpg	99
2836.469	1.566	1566.1	observe	Run3	observe/STIM_018.jpg	99
2841.496	1.307	1307.1	observe	Run3	observe/STIM_018.jpg	100
2845.573	1.085	1085.1	observe	Run3	observe/STIM_018.jpg	99
2849.537	1.301	1300.7	observe	Run3	observe/STIM_018.jpg	99
2853.471	1.163	1162.8	observe	Run3	observe/STIM_019.jpg	100
2858.454	1.62	1620.5	observe	Run3	observe/STIM_019.jpg	99
2862.545	1.029	1029.1	observe	Run3	observe/STIM_019.jpg	99
2866.13	0.912	912.3	observe	Run3	observe/STIM_019.jpg	100
