onset	duration	response_time_ms	trial_type	learning_stage	stimulus	response_port
0.0	2.945	2944.7	regulate	Run1	regulate/STIM_000.jpg	99
6.597	2.058	2058.2	regulate	Run1	regulate/STIM_000.jpg	99
12.345	2.478	2477.8	regulate	Run1	regulate/STIM_000.jpg	100
17.317	3.29	3289.6	regulate	Run1	regulate/STIM_000.jpg	100
23.962	3.623	3623.0	regulate	Run1	regulate/STIM_001.jpg	99
29.431	1.996	1996.5	regulate	Run1	regulate/STIM_001.jpg	100
34.496	3.521	3521.4	regulate	Run1	regulate/STIM_001.jpg	100
41.608	2.399	2398.9	regulate	Run1	regulate/STIM_001.jpg	100
47.444	2.533	2533.0	regulate	Run1	regulate/STIM_002.jpg	99
53.61	2.815	2815.1	regulate	Run1	regulate/STIM_002.jpg	100
59.304	2.122	2121.7	regulate	Run1	regulate/STIM_002.jpg	99
63.478	2.36	2360.0	regulate	Run1	regulate/STIM_002.jpg	100
69.173	1.746	1745.6	regulate	Run1	regulate/STIM_003.jpg	100
73.192	2.91	2909.5	regulate	Run1	regulate/STIM_003.jpg	99
79.567	1.674	1674.1	regulate	Run1	regulate/STIM_003.jpg	99
83.343	2.002	2002.4	regulate	Run1	regulate/STIM_003.jpg	99
88.52	3.656	3656.4	regulate	Run1	regulate/STIM_004.jpg	99
94.884	3.224	3224.2	regulate	Run1	regulate/STIM_004.jpg	99
101.472	1.686	1685.6	regulate	Run1	regulate/STIM_004.jpg	99
105.509	3.278	3277.8	regulate	Run1	regulate/STIM_004.jpg	99
110.426	2.911	2911.3	regulate	Run1	regulate/STIM_005.jpg	99
116.783	2.39	2389.8	regulate	Run1	regulate/STIM_005.jpg	100
121.758	2.949	2949.1	regulate	Run1	regulate/STIM_005.jpg	100
127.296	3.185	3185.0	regulate	Run1	regulate/STIM_005.jpg	100
133.569	3.009	3009.4	regulate	Run1	regulate/STIM_006.jpg	99
139.649	3.355	3354.6	regulate	Run1	regulate/STIM_006.jpg	99
146.146	2.62	2620.2	regulate	Run1	regulate/STIM_006.jpg	99
151.858	2.836	2836.0	regulate	Run1	regulate/STIM_006.jpg	99
158.009	2.494	2493.5	regulate	Run1	regulate/STIM_007.jpg	100
164.112	3.727	3727.1	regulate	Run1	regulate/STIM_007.jpg	100
170.786	1.896	1895.8	regulate	Run1	regulate/STIM_007.jpg	100
174.773	3.26	3260.1	regulate	Run1	regulate/STIM_007.jpg	100
180.962	2.186	2186.4	regulate	Run1	regulate/STIM_008.jpg	99
186.301	2.837	2837.0	regulate	Run1	regulate/STIM_008.jpg	99
192.255	3.057	3057.0	regulate	Run1	regulate/STIM_008.jpg	100
197.318	3.161	3161.2	regulate	Run1	regulate/STIM_008.jpg	99
203.215	3.161	3160.8	regulate	Run1	regulate/STIM_009.jpg	100
209.858	1.812	1811.5	regulate	Run1	regulate/STIM_009.jpg	99
215.32	2.123	2123.2	regulate	Run1	regulate/STIM_009.jpg	100
220.14	1.614	1614.1	regulate	Run1	regulate/STIM_009.jpg	100
224.726	3.53	3530.5	regulate	Run1	regulate/STIM_010.jpg	99
230.135	2.218	2218.4	regulate	Run1	regulate/STIM_010.jpg	100
235.698	1.986	1986.3	regulate	Run1	regulate/STIM_010.jpg	99
239.604	1.899	1898.8	regulate	Run1	regulate/STIM_010.jpg	100
244.727	2.6	2600.0	regulate	Run1	regulate/STIM_011.jpg	99
249.596	3.513	3512.7	regulate	Run1	regulate/STIM_011.jpg	100
256.527	2.462	2462.0	regulate	Run1	regulate/STIM_011.jpg	100
262.114	1.852	1851.7	regulate	Run1	regulate/STIM_011.jpg	100
266.723	2.754	2753.5	regulate	Run1	regulate/STIM_012.jpg	100
272.756	1.925	1925.4	regulate	Run1	regulate/STIM_012.jpg	99
278.481	1.47	1469.8	regulate	Run1	regulate/STIM_012.jpg	100
283.037	1.947	1946.8	regulate	Run1	regulate/STIM_012.jpg	99
288.562	2.559	2558.7	regulate	Run1	regulate/STIM_013.jpg	99
293.307	2.837	2836.7	regulate	Run1	regulate/STIM_013.jpg	100
298.203	2.662	2662.3	regulate	Run1	regulate/STIM_013.jpg	100
303.395	2.216	2216.1	regulate	Run1	regulate/STIM_013.jpg	99
307.977	3.156	3156.3	regulate	Run1	regulate/STIM_014.jpg	99
312.903	3.15	3149.9	regulate	Run1	regulate/STIM_014.jpg	99
319.582	2.159	2158.7	regulate	Run1	regulate/STIM_014.jpg	100
324.009	3.195	3195.1	regulate	Run1	regulate/STIM_014.jpg	100
328.945	2.001	2000.5	regulate	Run1	regulate/STIM_015.jpg	100
333.733	3.21	3209.9	regulate	Run1	regulate/STIM_015.jpg	100
340.514	2.808	2807.5	regulate	Run1	regulate/STIM_015.jpg	99
345.689	1.446	1446.3	regulate	Run1	regulate/STIM_015.jpg	99
349.641	1.648	1647.9	regulate	Run1	regulate/STIM_016.jpg	99
354.325	1.74	1740.4	regulate	Run1	regulate/STIM_016.jpg	100
359.762	1.612	1612.3	regulate	Run1	regulate/STIM_016.jpg	99
364.593	2.782	2782.0	regulate	Run1	regulate/STIM_016.jpg	99
371.03	2.871	2870.6	regulate	Run1	regulate/STIM_017.jpg	99
375.763	3.032	3032.3	regulate	Run1	regulate/STIM_017.jpg	99
380.439	2.931	2930.7	regulate	Run1	regulate/STIM_017.jpg	99
385.389	3.081	3080.8	regulate	Run1	regulate/STIM_017.jpg	99
391.638	3.355	3355.4	regulate	Run1	regulate/STIM_018.jpg	100
397.319	1.988	1987.5	regulate	Run1	regulate/STIM_018.jpg	100
401.281	1.572	1571.8	regulate	Run1	regulate/STIM_018.jpg	99
405.284	1.442	1442.5	regulate	Run1	regulate/STIM_018.jpg	100
410.12	2.806	2806.2	regulate	Run1	regulate/STIM_019.jpg	99
416.521	3.088	3088.4	regulate	Run1	regulate/STIM_019.jpg	100
421.536	3.273	3272.8	regulate	Run1	regulate/STIM_019.jpg	99
426.855	3.27	3270.3	regulate	Run1	regulate/STIM_019.jpg	99
433.447	3.028	3027.8	regulate	Run1	regulate/STIM_020.jpg	100
439.801	3.518	3518.1	regulate	Run1	regulate/STIM_020.jpg	100
445.824	1.902	1902.3	regulate	Run1	regulate/STIM_020.jpg	99
451.447	2.144	2143.7	regulate	Run1	regulate/STIM_020.jpg	99
456.226	2.506	2506.2	regulate	Run1	regulate/STIM_021.jpg	100
462.309	2.835	2834.6	regulate	Run1	regulate/STIM_021.jpg	99
468.745	1.855	1854.6	regulate	Run1	regulate/STIM_021.jpg	100
472.808	1.633	1633.1	regulate	Run1	regulate/STIM_021.jpg	99
477.581	2.911	2911.0	regulate	Run1	regulate/STIM_022.jpg	99
482.336	2.331	2330.8	regulate	Run1	regulate/STIM_022.jpg	99
488.039	2.274	2274.5	regulate	Run1	regulate/STIM_022.jpg	99
493.822	2.295	2294.7	regulate	Run1	regulate/STIM_022.jpg	100
498.228	3.194	3194.4	regulate	Run1	regulate/STIM_023.jpg	99
504.978	2.017	2017.4	regulate	Run1	regulate/STIM_023.jpg	99
510.17	2.306	2305.7	regulate	Run1	regulate/STIM_023.jpg	100
515.614	2.422	2422.0	regulate	Run1	regulate/STIM_023.jpg	99
520.048	3.033	3032.6	regulate	Run1	regulate/STIM_024.jpg	99
525.187	3.198	3197.9	regulate	Run1	regulate/STIM_024.jpg	99
530.216	2.844	2843.7	regulate	Run1	regulate/STIM_024.jpg	100
536.235	1.79	1789.5	regulate	Run1	regulate/STIM_024.jpg	100
540.553	3.702	3702.3	regulate	Run1	regulate/STIM_025.jpg	100
547.014	2.694	2693.8	regulate	Run1	regulate/STIM_025.jpg	100
552.246	2.555	2555.4	regulate	Run1	regulate/STIM_025.jpg	100
556.624	2.983	2983.0	regulate	Run1	regulate/STIM_025.jpg	99
561.988	3.528	3527.9	regulate	Run1	regulate/STIM_026.jpg	100
569.084	3.373	3372.7	regulate	Run1	regulate/STIM_026.jpg	99
575.772	2.195	2195.4	regulate	Run1	regulate/STIM_026.jpg	100
580.349	2.543	2543.0	regulate	Run1	regulate/STIM_026.jpg	100
585.288	2.064	2063.7	regulate	Run1	regulate/STIM_027.jpg	100
590.699	3.168	3167.5	regulate	Run1	regulate/STIM_027.jpg	99
596.458	2.865	2865.3	regulate	Run1	regulate/STIM_027.jpg	99
601.829	2.639	2638.9	regulate	Run1	regulate/STIM_027.jpg	99
606.318	1.841	1841.4	regulate	Run1	regulate/STIM_028.jpg	99
611.732	3.524	3524.3	regulate	Run1	regulate/STIM_028.jpg	100
617.423	3.326	3326.2	regulate	Run1	regulate/STIM_028.jpg	100
624.12	2.443	2442.8	regulate	Run1	regulate/STIM_028.jpg	100
628.588	1.947	1947.0	regulate	Run1	regulate/STIM_029.jpg	100
633.058	2.696	2695.8	regulate	Run1	regulate/STIM_029.jpg	100
638.736	3.103	3102.7	regulate	Run1	regulate/STIM_029.jpg	99
644.381	1.745	1744.6	regulate	Run1	regulate/STIM_029.jpg	99
648.697	0.91	910.0	observe	Run1	observe/STIM_000.jpg	99
651.864	1.239	1239.2	observe	Run1	observe/STIM_000.jpg	100
655.059	1.716	1715.7	observe	Run1	observe/STIM_000.jpg	99
660.409	1.749	1749.2	observe	Run1	observe/STIM_000.jpg	100
665.382	0.953	953.3	observe	Run1	observe/STIM_001.jpg	100
669.327	0.988	988.0	observe	Run1	observe/STIM_001.jpg	100
672.895	1.144	1143.7	observe	Run1	observe/STIM_001.jpg	100
676.765	1.688	1688.2	observe	Run1	observe/STIM_001.jpg	99
682.066	1.232	1232.1	observe	Run1	observe/STIM_002.jpg	99
685.328	1.379	1379.3	observe	Run1	observe/STIM_002.jpg	99
689.721	1.052	1051.6	observe	Run1	observe/STIM_002.jpg	100
694.478	1.272	1271.9	observe	Run1	observe/STIM_002.jpg	99
697.677	1.347	1347.1	observe	Run1	observe/STIM_003.jpg	100
701.073	1.303	1302.6	observe	Run1	observe/STIM_003.jpg	99
704.875	1.634	1633.8	observe	Run1	observe/STIM_003.jpg	100
709.085	1.72	1719.5	observe	Run1	observe/STIM_003.jpg	99
714.313	1.581	1581.1	observe	Run1	observe/STIM_004.jpg	99
719.755	1.747	1747.2	observe	Run1	observe/STIM_004.jpg	100
724.024	1.434	1433.8	observe	Run1	observe/STIM_004.jpg	100
729.08	0.968	967.6	observe	Run1	observe/STIM_004.jpg	100
733.907	1.626	1626.4	observe	Run1	observe/STIM_005.jpg	99
739.023	1.242	1242.4	observe	Run1	observe/STIM_005.jpg	99
742.924	1.271	1271.1	observe	Run1	observe/STIM_005.jpg	99
746.127	1.152	1151.6	observe	Run1	observe/STIM_005.jpg	100
749.934	1.646	1646.0	observe	Run1	observe/STIM_006.jpg	99
753.935	0.909	909.1	observe	Run1	observe/STIM_006.jpg	100
758.232	1.155	1154.6	observe	Run1	observe/STIM_006.jpg	100
762.248	1.254	1253.9	observe	Run1	observe/STIM_006.jpg	99
765.879	1.337	1336.6	observe	Run1	observe/STIM_007.jpg	100
770.657	0.994	994.0	observe	Run1	observe/STIM_007.jpg	99
774.971	1.806	1805.8	observe	Run1	observe/STIM_007.jpg	100
779.648	1.333	1333.3	observe	Run1	observe/STIM_007.jpg	99
783.162	1.576	1575.6	observe	Run1	observe/STIM_008.jpg	99
786.837	1.113	1112.8	observe	Run1	observe/STIM_008.jpg	99
791.326	0.921	921.4	observe	Run1	observe/STIM_008.jpg	99
794.466	1.728	1728.2	observe	Run1	observe/STIM_008.jpg	100
799.246	1.781	1780.7	observe	Run1	observe/STIM_009.jpg	100
803.762	1.63	1629.8	observe	Run1	observe/STIM_009.jpg	100
808.679	1.547	1547.2	observe	Run1	observe/STIM_009.jpg	99
813.858	1.616	1616.0	observe	Run1	observe/STIM_009.jpg	100
817.332	1.622	1622.3	observe	Run1	observe/STIM_010.jpg	100
822.215	1.03	1029.9	observe	Run1	observe/STIM_010.jpg	100
825.27	1.257	1256.6	observe	Run1	observe/STIM_010.jpg	100
830.095	1.058	1058.5	observe	Run1	observe/STIM_010.jpg	100
833.671	1.128	1127.5	observe	Run1	observe/STIM_011.jpg	99
837.527	1.175	1174.9	observe	Run1	observe/STIM_011.jpg	100
841.178	0.988	988.1	observe	Run1	observe/STIM_011.jpg	100
844.34	1.674	1674.4	observe	Run1	observe/STIM_011.jpg	100
849.624	1.222	1221.6	observe	Run1	observe/STIM_012.jpg	99
853.259	0.982	981.5	observe	Run1	observe/STIM_012.jpg	99
856.587	1.209	1208.6	observe	Run1	observe/STIM_012.jpg	100
860.441	1.181	1180.6	observe	Run1	observe/STIM_012.jpg	99
864.36	1.403	1403.3	observe	Run1	observe/STIM_013.jpg	99
869.163	1.344	1343.7	observe	Run1	observe/STIM_013.jpg	99
873.944	1.417	1416.7	observe	Run1	observe/STIM_013.jpg	100
878.871	1.242	1242.5	observe	Run1	observe/STIM_013.jpg	99
882.917	1.196	1195.7	observe	Run1	observe/STIM_014.jpg	100
887.733	1.309	1309.3	observe	Run1	observe/STIM_014.jpg	99
891.056	1.139	1138.7	observe	Run1	observe/STIM_014.jpg	100
894.71	1.475	1475.1	observe	Run1	observe/STIM_014.jpg	100
899.016	1.002	1001.9	observe	Run1	observe/STIM_015.jpg	99
902.71	1.44	1439.6	observe	Run1	observe/STIM_015.jpg	99
906.13	0.957	956.7	observe	Run1	observe/STIM_015.jpg	100
909.976	1.292	1292.4	observe	Run1	observe/STIM_015.jpg	99
914.007	1.586	1585.6	observe	Run1	observe/STIM_016.jpg	100
918.155	1.172	1172.3	observe	Run1	observe/STIM_016.jpg	100
921.943	1.738	1738.5	observe	Run1	observe/STIM_016.jpg	100
926.85	1.216	1216.3	observe	Run1	observe/STIM_016.jpg	99
931.721	1.251	1251.3	observe	Run1	observe/STIM_017.jpg	99
936.036	1.383	1382.9	observe	Run1	observe/STIM_017.jpg	100
940.867	1.076	1075.7	observe	Run1	observe/STIM_017.jpg	99
944.118	1.623	1623.0	observe	Run1	observe/STIM_017.jpg	99
947.659	1.673	1673.1	observe	Run1	observe/STIM_018.jpg	99
952.991	1.693	1692.8	observe	Run1	observe/STIM_018.jpg	100
957.633	1.54	1540.1	observe	Run1	observe/STIM_018.jpg	100
962.777	1.241	1240.7	observe	Run1	observe/STIM_018.jpg	99
967.025	1.554	1554.1	observe	Run1	observe/STIM_019.jpg	99
972.072	1.127	1126.6	observe	Run1	observe/STIM_019.jpg	100
976.828	1.075	1075.3	observe	Run1	observe/STIM_019.jpg	99
981.276	1.727	1727.2	observe	Run1	observe/STIM_019.jpg	100
984.909	2.257	2257.3	regulate	Run2	regulate/STIM_000.jpg	99
990.609	2.664	2663.7	regulate	Run2	regulate/STIM_000.jpg	100
996.812	2.05	2050.5	regulate	Run2	regulate/STIM_000.jpg	100
1001.196	2.243	2243.2	regulate	Run2	regulate/STIM_000.jpg	99
1006.199	1.627	1627.3	regulate	Run2	regulate/STIM_001.jpg	100
1010.563	1.955	1955.4	regulate	Run2	regulate/STIM_001.jpg	100
1015.134	2.347	2346.8	regulate	Run2	regulate/STIM_001.jpg	99
1019.866	2.568	2567.6	regulate	Run2	regulate/STIM_001.jpg	99
1025.676	2.418	2418.1	regulate	Run2	regulate/STIM_002.jpg	100
1030.931	2.558	2557.7	regulate	Run2	regulate/STIM_002.jpg	100
1036.843	2.236	2236.3	regulate	Run2	regulate/STIM_002.jpg	100
1041.278	2.039	2038.9	regulate	Run2	regulate/STIM_002.jpg	99
1046.513	2.051	2051.2	regulate	Run2	regulate/STIM_003.jpg	100
1051.971	2.954	2954.5	regulate	Run2	regulate/STIM_003.jpg	99
1056.721	2.166	2166.4	regulate	Run2	regulate/STIM_003.jpg	99
1061.885	2.54	2539.6	regulate	Run2	regulate/STIM_003.jpg	100
1066.679	3.125	3124.9	regulate	Run2	regulate/STIM_004.jpg	99
1072.781	2.093	2093.0	regulate	Run2	regulate/STIM_004.jpg	100
1077.071	2.662	2662.1	regulate	Run2	regulate/STIM_004.jpg	99
1082.943	2.398	2398.3	regulate	Run2	regulate/STIM_004.jpg	100
1087.524	2.844	2844.5	regulate	Run2	regulate/STIM_005.jpg	99
1093.144	2.369	2369.0	regulate	Run2	regulate/STIM_005.jpg	100
1098.62	2.187	2186.8	regulate	Run2	regulate/STIM_005.jpg	100
1102.559	2.622	2621.5	regulate	Run2	regulate/STIM_005.jpg	99
1107.44	2.036	2035.7	regulate	Run2	regulate/STIM_006.jpg	99
1111.373	2.261	2260.7	regulate	Run2	regulate/STIM_006.jpg	99
1116.892	1.704	1703.6	regulate	Run2	regulate/STIM_006.jpg	99
1120.893	1.417	1417.4	regulate	Run2	regulate/STIM_006.jpg	100
1125.62	2.624	2623.8	regulate	Run2	regulate/STIM_007.jpg	100
1130.797	2.714	2713.5	regulate	Run2	regulate/STIM_007.jpg	100
1137.023	1.646	1646.1	regulate	Run2	regulate/STIM_007.jpg	100
1141.258	2.525	2525.2	regulate	Run2	regulate/STIM_007.jpg	100
1146.889	2.697	2696.8	regulate	Run2	regulate/STIM_008.jpg	99
1153.024	2.243	2242.7	regulate	Run2	regulate/STIM_008.jpg	100
1157.769	1.586	1586.5	regulate	Run2	regulate/STIM_008.jpg	99
1161.784	2.609	2608.6	regulate	Run2	regulate/STIM_008.jpg	100
1167.044	3.082	3082.1	regulate	Run2	regulate/STIM_009.jpg	100
1173.431	3.176	3175.6	regulate	Run2	regulate/STIM_009.jpg	100
1178.344	2.65	2650.0	regulate	Run2	regulate/STIM_009.jpg	99
1184.372	2.176	2175.8	regulate	Run2	regulate/STIM_009.jpg	100
1190.081	1.568	1567.7	regulate	Run2	regulate/STIM_010.jpg	99
1194.366	2.656	2656.1	regulate	Run2	regulate/STIM_010.jpg	100
1199.678	2.029	2028.9	regulate	Run2	regulate/STIM_010.jpg	100
1204.798	2.066	2066.0	regulate	Run2	regulate/STIM_010.jpg	100
1209.201	1.812	1812.5	regulate	Run2	regulate/STIM_011.jpg	100
1214.678	2.43	2429.5	regulate	Run2	regulate/STIM_011.jpg	100
1219.929	2.503	2502.6	regulate	Run2	regulate/STIM_011.jpg	99
1224.903	1.348	1347.7	regulate	Run2	regulate/STIM_011.jpg	99
1228.751	3.229	3228.6	regulate	Run2	regulate/STIM_012.jpg	99
1234.136	2.21	2209.6	regulate	Run2	regulate/STIM_012.jpg	99
1238.946	2.681	2681.3	regulate	Run2	regulate/STIM_012.jpg	100
1244.195	1.718	1718.4	regulate	Run2	regulate/STIM_012.jpg	100
1249.341	1.379	1378.9	regulate	Run2	regulate/STIM_013.jpg	99
1253.095	2.416	2416.4	regulate	Run2	regulate/STIM_013.jpg	99
1257.332	1.999	1998.8	regulate	Run2	regulate/STIM_013.jpg	99
1261.964	2.334	2333.9	regulate	Run2	regulate/STIM_013.jpg	99
1266.27	3.127	3127.1	regulate	Run2	regulate/STIM_014.jpg	100
1271.212	2.034	2034.5	regulate	Run2	regulate/STIM_014.jpg	99
1275.095	1.422	1421.6	regulate	Run2	regulate/STIM_014.jpg	100
1280.16	1.682	1681.6	regulate	Run2	regulate/STIM_014.jpg	99
1284.827	2.544	2544.4	regulate	Run2	regulate/STIM_015.jpg	99
1289.331	2.339	2338.7	regulate	Run2	regulate/STIM_015.jpg	99
1295.308	1.6	1600.2	regulate	Run2	regulate/STIM_015.jpg	100
1300.59	2.045	2044.9	regulate	Run2	regulate/STIM_015.jpg	100
1305.953	3.11	3109.9	regulate	Run2	regulate/STIM_016.jpg	100
1312.598	3.102	3101.6	regulate	Run2	regulate/STIM_016.jpg	99
1318.141	1.865	1865.0	regulate	Run2	regulate/STIM_016.jpg	100
1322.919	1.661	1661.2	regulate	Run2	regulate/STIM_016.jpg	99
1327.118	1.932	1932.2	regulate	Run2	regulate/STIM_017.jpg	99
1331.703	1.753	1752.9	regulate	Run2	regulate/STIM_017.jpg	100
1336.142	1.726	1726.5	regulate	Run2	regulate/STIM_017.jpg	99
1340.75	1.246	1246.3	regulate	Run2	regulate/STIM_017.jpg	99
1344.801	2.032	2032.2	regulate	Run2	regulate/STIM_018.jpg	100
1350.598	2.254	2254.0	regulate	Run2	regulate/STIM_018.jpg	100
1356.193	2.035	2034.9	regulate	Run2	regulate/STIM_018.jpg	99
1361.122	1.601	1601.3	regulate	Run2	regulate/STIM_018.jpg	100
1366.371	3.095	3095.3	regulate	Run2	regulate/STIM_019.jpg	100
1372.636	3.099	3099.1	regulate	Run2	regulate/STIM_019.jpg	99
1378.03	1.367	1367.0	regulate	Run2	regulate/STIM_019.jpg	100
1381.991	2.412	2411.5	regulate	Run2	regulate/STIM_019.jpg	100
1387.777	1.58	1580.1	regulate	Run2	regulate/STIM_020.jpg	99
1391.335	1.384	1383.7	regulate	Run2	regulate/STIM_020.jpg	100
1396.435	1.31	1310.3	regulate	Run2	regulate/STIM_020.jpg	99
1400.669	2.526	2525.5	regulate	Run2	regulate/STIM_020.jpg	100
1406.091	2.583	2582.7	regulate	Run2	regulate/STIM_021.jpg	100
1411.801	2.734	2733.7	regulate	Run2	regulate/STIM_021.jpg	100
1417.221	1.67	1669.7	regulate	Run2	regulate/STIM_021.jpg	99
1422.216	1.597	1596.8	regulate	Run2	regulate/STIM_021.jpg	100
1426.093	2.082	2082.1	regulate	Run2	regulate/STIM_022.jpg	100
1430.487	2.692	2692.2	regulate	Run2	regulate/STIM_022.jpg	100
1434.924	2.519	2518.9	regulate	Run2	regulate/STIM_022.jpg	100
1440.171	2.54	2540.4	regulate	Run2	regulate/STIM_022.jpg	99
1445.573	2.906	2906.1	regulate	Run2	regulate/STIM_023.jpg	100
1452.087	2.164	2164.3	regulate	Run2	regulate/STIM_023.jpg	99
1456.13	1.965	1964.6	regulate	Run2	regulate/STIM_023.jpg	100
1460.637	1.28	1280.3	regulate	Run2	regulate/STIM_023.jpg	99
1465.464	2.551	2550.6	regulate	Run2	regulate/STIM_024.jpg	100
1470.833	2.174	2174.4	regulate	Run2	regulate/STIM_024.jpg	100
1475.363	1.344	1344.3	regulate	Run2	regulate/STIM_024.jpg	100
1480.083	1.44	1440.2	regulate	Run2	regulate/STIM_024.jpg	99
1484.654	3.159	3158.6	regulate	Run2	regulate/STIM_025.jpg	99
1489.963	1.767	1767.2	regulate	Run2	regulate/STIM_025.jpg	99
1494.723	2.077	2077.3	regulate	Run2	regulate/STIM_025.jpg	100
1500.113	2.396	2396.0	regulate	Run2	regulate/STIM_025.jpg	99
1504.623	2.67	2669.9	regulate	Run2	regulate/STIM_026.jpg	100
1509.18	1.602	1602.2	regulate	Run2	regulate/STIM_026.jpg	99
1512.717	2.638	2638.4	regulate	Run2	regulate/STIM_026.jpg	99
1518.287	1.637	1637.0	regulate	Run2	regulate/STIM_026.jpg	99
1521.972	3.2	3200.2	regulate	Run2	regulate/STIM_027.jpg	100
1527.134	1.954	1954.3	regulate	Run2	regulate/STIM_027.jpg	100
1532.13	2.25	2250.5	regulate	Run2	regulate/STIM_027.jpg	99
1537.717	1.367	1367.3	regulate	Run2	regulate/STIM_027.jpg	100
1541.012	2.045	2045.3	regulate	Run2	regulate/STIM_028.jpg	100
1546.71	2.325	2324.7	regulate	Run2	regulate/STIM_028.jpg	99
1551.207	2.026	2026.4	regulate	Run2	regulate/STIM_028.jpg	100
1555.269	1.471	1471.4	regulate	Run2	regulate/STIM_028.jpg	99
1559.288	1.421	1420.7	regulate	Run2	regulate/STIM_029.jpg	99
1563.953	1.39	1389.9	regulate	Run2	regulate/STIM_029.jpg	99
1567.332	1.393	1392.7	regulate	Run2	regulate/STIM_029.jpg	100
1570.638	2.289	2288.6	regulate	Run2	regulate/STIM_029.jpg	100
1575.192	1.297	1296.7	observe	Run2	observe/STIM_000.jpg	100
1578.594	1.767	1767.2	observe	Run2	observe/STIM_000.jpg	99
1582.941	1.568	1568.2	observe	Run2	observe/STIM_000.jpg	100
1588.058	1.1	1099.5	observe	Run2	observe/STIM_000.jpg	100
1590.989	1.163	1162.8	observe	Run2	observe/STIM_001.jpg	100
1595.233	1.232	1232.3	observe	Run2	observe/STIM_001.jpg	100
1599.025	1.496	1496.4	observe	Run2	observe/STIM_001.jpg	100
1603.146	1.788	1788.4	observe	Run2	observe/STIM_001.jpg	99
1607.801	1.189	1189.2	observe	Run2	observe/STIM_002.jpg	99
1611.166	1.293	1292.7	observe	Run2	observe/STIM_002.jpg	99
1615.837	1.465	1464.9	observe	Run2	observe/STIM_002.jpg	99
1620.098	1.056	1056.0	observe	Run2	observe/STIM_002.jpg	100
1623.55	1.2	1199.8	observe	Run2	observe/STIM_003.jpg	100
1628.228	1.291	1291.3	observe	Run2	observe/STIM_003.jpg	99
1633.059	1.449	1449.2	observe	Run2	observe/STIM_003.jpg	100
1636.591	1.03	1029.9	observe	Run2	observe/STIM_003.jpg	99
1639.648	1.736	1736.2	observe	Run2	observe/STIM_004.jpg	100
1644.609	1.194	1194.4	observe	Run2	observe/STIM_004.jpg	99
1647.792	1.743	1742.6	observe	Run2	observe/STIM_004.jpg	100
1652.946	1.585	1585.4	observe	Run2	observe/STIM_004.jpg	99
1657.532	1.498	1498.0	observe	Run2	observe/STIM_005.jpg	99
1662.166	1.224	1224.3	observe	Run2	observe/STIM_005.jpg	99
1666.042	1.068	1067.5	observe	Run2	observe/STIM_005.jpg	99
1669.804	1.442	1442.3	observe	Run2	observe/STIM_005.jpg	99
1675.02	1.332	1331.7	observe	Run2	observe/STIM_006.jpg	99
1679.901	1.058	1057.6	observe	Run2	observe/STIM_006.jpg	100
1682.891	1.508	1507.5	observe	Run2	observe/STIM_006.jpg	99
1687.517	1.027	1026.9	observe	Run2	observe/STIM_006.jpg	100
1691.489	1.724	1724.2	observe	Run2	observe/STIM_007.jpg	99
1696.019	0.943	943.1	observe	Run2	observe/STIM_007.jpg	100
1698.939	0.913	912.8	observe	Run2	observe/STIM_007.jpg	99
1703.428	1.171	1171.3	observe	Run2	observe/STIM_007.jpg	100
1708.405	1.308	1307.9	observe	Run2	observe/STIM_008.jpg	100
1711.581	1.737	1736.8	observe	Run2	observe/STIM_008.jpg	99
1715.932	1.557	1557.0	observe	Run2	observe/STIM_008.jpg	100
1720.875	1.623	1623.1	observe	Run2	observe/STIM_008.jpg	99
1725.701	1.056	1055.6	observe	Run2	observe/STIM_009.jpg	100
1729.84	1.005	1004.8	observe	Run2	observe/STIM_009.jpg	100
1732.787	1.043	1042.7	observe	Run2	observe/STIM_009.jpg	100
1736.621	1.192	1192.1	observe	Run2	observe/STIM_009.jpg	100
1740.999	1.023	1023.2	observe	Run2	observe/STIM_010.jpg	99
1744.795	1.205	1205.4	observe	Run2	observe/STIM_010.jpg	99
1749.228	1.018	1017.5	observe	Run2	observe/STIM_010.jpg	100
1752.187	1.244	1244.1	observe	Run2	observe/STIM_010.jpg	99
1756.064	1.287	1287.3	observe	Run2	observe/STIM_011.jpg	100
1759.352	0.952	952.3	observe	Run2	observe/STIM_011.jpg	100
1763.328	1.072	1072.0	observe	Run2	observe/STIM_011.jpg	99
1766.665	1.565	1565.1	observe	Run2	observe/STIM_011.jpg	100
1770.818	1.66	1660.4	observe	Run2	observe/STIM_012.jpg	100
1776.011	1.799	1798.8	observe	Run2	observe/STIM_012.jpg	100
1781.249	1.009	1009.3	observe	Run2	observe/STIM_012.jpg	99
1784.284	1.809	1809.2	observe	Run2	observe/STIM_012.jpg	99
1788.777	1.444	1443.9	observe	Run2	observe/STIM_013.jpg	99
1792.189	1.774	1774.0	observe	Run2	observe/STIM_013.jpg	99
1795.746	1.056	1056.5	observe	Run2	observe/STIM_013.jpg	100
1799.176	1.155	1154.6	observe	Run2	observe/STIM_013.jpg	99
1802.41	1.475	1475.4	observe	Run2	observe/STIM_014.jpg	100
1807.297	1.073	1073.0	observe	Run2	observe/STIM_014.jpg	99
1810.798	0.878	878.0	observe	Run2	observe/STIM_014.jpg	100
1814.667	1.369	1369.4	observe	Run2	observe/STIM_014.jpg	99
1818.509	1.36	1359.9	observe	Run2	observe/STIM_015.jpg	99
1822.465	1.281	1281.1	observe	Run2	observe/STIM_015.jpg	99
1827.285	1.744	1744.3	observe	Run2	observe/STIM_015.jpg	100
1831.702	1.428	1427.5	observe	Run2	observe/STIM_015.jpg	99
1835.72	1.104	1104.3	observe	Run2	observe/STIM_016.jpg	99
1839.279	1.587	1587.0	observe	Run2	observe/STIM_016.jpg	100
1844.567	1.304	1304.4	observe	Run2	observe/STIM_016.jpg	100
1847.809	1.656	1656.3	observe	Run2	observe/STIM_016.jpg	99
1852.22	1.131	1131.0	observe	Run2	observe/STIM_017.jpg	100
1856.569	1.106	1106.0	observe	Run2	observe/STIM_017.jpg	100
1860.631	1.688	1687.9	observe	Run2	observe/STIM_017.jpg	99
1864.945	1.076	1075.8	observe	Run2	observe/STIM_017.jpg	99
1869.685	1.08	1079.5	observe	Run2	observe/STIM_018.jpg	100
1873.195	1.793	1793.2	observe	Run2	observe/STIM_018.jpg	99
1876.968	1.319	1318.9	observe	Run2	observe/STIM_018.jpg	99
1880.379	1.551	1551.3	observe	Run2	observe/STIM_018.jpg	100
1884.829	0.996	996.5	observe	Run2	observe/STIM_019.jpg	99
1888.321	1.505	1504.6	observe	Run2	observe/STIM_019.jpg	99
1893.106	1.204	1204.3	observe	Run2	observe/STIM_019.jpg	99
1897.94	0.99	989.5	observe	Run2	observe/STIM_019.jpg	100
1901.866	2.257	2256.8	regulate	Run3	regulate/STIM_000.jpg	99
1907.117	1.848	1848.0	regulate	Run3	regulate/STIM_000.jpg	100
1910.965	1.166	1165.5	regulate	Run3	regulate/STIM_000.jpg	99
1915.332	2.562	2562.0	regulate	Run3	regulate/STIM_000.jpg	100
1920.363	1.734	1734.1	regulate	Run3	regulate/STIM_001.jpg	99
1924.798	1.694	1693.6	regulate	Run3	regulate/STIM_001.jpg	99
1929.683	2.176	2176.4	regulate	Run3	regulate/STIM_001.jpg	99
1935.506	1.96	1959.8	regulate	Run3	regulate/STIM_001.jpg	99
1941.275	1.518	1517.6	regulate	Run3	regulate/STIM_002.jpg	99
1945.362	1.712	1711.5	regulate	Run3	regulate/STIM_002.jpg	99
1949.198	2.538	2537.7	regulate	Run3	regulate/STIM_002.jpg	99
1953.904	1.514	1513.7	regulate	Run3	regulate/STIM_002.jpg	99
1957.686	1.407	1406.6	regulate	Run3	regulate/STIM_003.jpg	100
1962.192	2.201	2201.4	regulate	Run3	regulate/STIM_003.jpg	99
1967.047	2.39	2390.1	regulate	Run3	regulate/STIM_003.jpg	100
1972.273	2.356	2356.0	regulate	Run3	regulate/STIM_003.jpg	99
1977.753	1.522	1522.5	regulate	Run3	regulate/STIM_004.jpg	100
1982.335	2.676	2675.5	regulate	Run3	regulate/STIM_004.jpg	100
1987.447	1.457	1456.8	regulate	Run3	regulate/STIM_004.jpg	100
1992.384	1.641	1641.2	regulate	Run3	regulate/STIM_004.jpg	100
1997.678	2.44	2440.1	regulate	Run3	regulate/STIM_005.jpg	99
2003.433	1.226	1226.2	regulate	Run3	regulate/STIM_005.jpg	100
2006.641	2.05	2050.3	regulate	Run3	regulate/STIM_005.jpg	99
2011.273	1.252	1252.3	regulate	Run3	regulate/STIM_005.jpg	99
2016.105	1.278	1278.2	regulate	Run3	regulate/STIM_006.jpg	100
2020.944	2.241	2240.9	regulate	Run3	regulate/STIM_006.jpg	100
2025.274	1.806	1806.0	regulate	Run3	regulate/STIM_006.jpg	99
2029.758	1.122	1122.2	regulate	Run3	regulate/STIM_006.jpg	100
2034.594	2.763	2763.4	regulate	Run3	regulate/STIM_007.jpg	100
2040.445	2.1	2099.8	regulate	Run3	regulate/STIM_007.jpg	99
2045.453	2.291	2290.9	regulate	Run3	regulate/STIM_007.jpg	99
2050.789	1.76	1760.2	regulate	Run3	regulate/STIM_007.jpg	99
2055.123	1.613	1613.4	regulate	Run3	regulate/STIM_008.jpg	99
2059.143	1.492	1491.8	regulate	Run3	regulate/STIM_008.jpg	100
2063.026	1.71	1710.5	regulate	Run3	regulate/STIM_008.jpg	100
2068.491	2.049	2049.4	regulate	Run3	regulate/STIM_008.jpg	99
2073.505	1.62	1619.6	regulate	Run3	regulate/STIM_009.jpg	99
2078.848	2.435	2435.3	regulate	Run3	regulate/STIM_009.jpg	99
2083.032	1.977	1977.4	regulate	Run3	regulate/STIM_009.jpg	99
2087.976	2.323	2323.0	regulate	Run3	regulate/STIM_009.jpg	99
2093.411	2.731	2731.0	regulate	Run3	regulate/STIM_010.jpg	99
2098.346	2.557	2557.2	regulate	Run3	regulate/STIM_010.jpg	100
2103.901	1.444	1444.1	regulate	Run3	regulate/STIM_010.jpg	100
2109.1	2.236	2235.5	regulate	Run3	regulate/STIM_010.jpg	99
2113.746	2.595	2594.9	regulate	Run3	regulate/STIM_011.jpg	100
2119.698	2.707	2707.3	regulate	Run3	regulate/STIM_011.jpg	100
2124.832	2.609	2609.3	regulate	Run3	regulate/STIM_011.jpg	100
2129.329	1.434	1433.6	regulate	Run3	regulate/STIM_011.jpg	99
2132.796	2.059	2058.9	regulate	Run3	regulate/STIM_012.jpg	100
2138.134	1.284	1284.4	regulate	Run3	regulate/STIM_012.jpg	99
2141.648	1.547	1547.4	regulate	Run3	regulate/STIM_012.jpg	99
2145.285	2.372	2371.7	regulate	Run3	regulate/STIM_012.jpg	99
2149.825	2.211	2210.6	regulate	Run3	regulate/STIM_013.jpg	99
2154.327	1.807	1807.2	regulate	Run3	regulate/STIM_013.jpg	99
2159.556	2.785	2785.1	regulate	Run3	regulate/STIM_013.jpg	100
2165.928	2.742	2741.8	regulate	Run3	regulate/STIM_013.jpg	100
2171.969	2.698	2697.7	regulate	Run3	regulate/STIM_014.jpg	99
2177.118	2.58	2579.6	regulate	Run3	regulate/STIM_014.jpg	100
2182.225	1.85	1850.1	regulate	Run3	regulate/STIM_014.jpg	100
2186.544	1.372	1372.1	regulate	Run3	regulate/STIM_014.jpg	99
2190.645	1.562	1562.3	regulate	Run3	regulate/STIM_015.jpg	100
2194.52	1.92	1920.2	regulate	Run3	regulate/STIM_015.jpg	100
2198.736	1.333	1333.1	regulate	Run3	regulate/STIM_015.jpg	100
2202.628	2.334	2333.8	regulate	Run3	regulate/STIM_015.jpg	99
2206.916	1.679	1678.6	regulate	Run3	regulate/STIM_016.jpg	100
2211.411	1.456	1455.5	regulate	Run3	regulate/STIM_016.jpg	99
2214.953	1.782	1782.0	regulate	Run3	regulate/STIM_016.jpg	99
2220.362	1.855	1854.6	regulate	Run3	regulate/STIM_016.jpg	100
2225.678	1.758	1758.2	regulate	Run3	regulate/STIM_017.jpg	100
2230.163	2.39	2390.0	regulate	Run3	regulate/STIM_017.jpg	100
2235.488	2.383	2383.0	regulate	Run3	regulate/STIM_017.jpg	100
2239.802	1.55	1550.3	regulate	Run3	regulate/STIM_017.jpg	99
2244.922	1.84	1840.5	regulate	Run3	regulate/STIM_018.jpg	100
2250.544	1.678	1677.5	regulate	Run3	regulate/STIM_018.jpg	100
2255.004	2.693	2692.8	regulate	Run3	regulate/STIM_018.jpg	100
2260.982	2.273	2272.9	regulate	Run3	regulate/STIM_018.jpg	100
2266.244	1.757	1757.0	regulate	Run3	regulate/STIM_019.jpg	100
2270.289	1.272	1272.4	regulate	Run3	regulate/STIM_019.jpg	100
2273.823	1.549	1549.0	regulate	Run3	regulate/STIM_019.jpg	99
2277.535	1.318	1317.9	regulate	Run3	regulate/STIM_019.jpg	100
2280.806	1.532	1531.5	regulate	Run3	regulate/STIM_020.jpg	100
2285.816	1.998	1998.2	regulate	Run3	regulate/STIM_020.jpg	99
2291.296	1.257	1257.2	regulate	Run3	regulate/STIM_020.jpg	100
2295.742	2.073	2072.9	regulate	Run3	regulate/STIM_020.jpg	99
2299.703	2.161	2160.8	regulate	Run3	regulate/STIM_021.jpg	100
2305.11	2.335	2335.1	regulate	Run3	regulate/STIM_021.jpg	99
2310.069	1.422	1422.1	regulate	Run3	regulate/STIM_021.jpg	99
2315.276	1.166	1165.7	regulate	Run3	regulate/STIM_021.jpg	99
2320.353	2.404	2404.5	regulate	Run3	regulate/STIM_022.jpg	99
2326.263	1.548	1547.6	regulate	Run3	regulate/STIM_022.jpg	99
2331.185	2.271	2270.7	regulate	Run3	regulate/STIM_022.jpg	100
2335.641	2.167	2167.2	regulate	Run3	regulate/STIM_022.jpg	100
2340.226	1.809	1808.8	regulate	Run3	regulate/STIM_023.jpg	99
2345.035	2.661	2661.1	regulate	Run3	regulate/STIM_023.jpg	99
2349.602	2.535	2534.9	regulate	Run3	regulate/STIM_023.jpg	100
2353.898	2.175	2174.8	regulate	Run3	regulate/STIM_023.jpg	99
2358.924	1.297	1297.0	regulate	Run3	regulate/STIM_024.jpg	99
2364.031	1.866	1866.0	regulate	Run3	regulate/STIM_024.jpg	99
2368.853	1.573	1572.9	regulate	Run3	regulate/STIM_024.jpg	100
2374.016	1.327	1327.1	regulate	Run3	regulate/STIM_024.jpg	99
2378.165	1.258	1258.1	regulate	Run3	regulate/STIM_025.jpg	100
2382.071	1.372	1371.8	regulate	Run3	regulate/STIM_025.jpg	99
2385.697	2.514	2513.5	regulate	Run3	regulate/STIM_025.jpg	99
2391.2	1.449	1449.2	regulate	Run3	regulate/STIM_025.jpg	100
2394.549	2.385	2385.0	regulate	Run3	regulate/STIM_026.jpg	100
2399.542	2.369	2368.8	regulate	Run3	regulate/STIM_026.jpg	100
2403.99	2.213	2213.3	regulate	Run3	regulate/STIM_026.jpg	99
2409.82	2.284	2284.1	regulate	Run3	regulate/STIM_026.jpg	100
2415.007	2.508	2508.2	regulate	Run3	regulate/STIM_027.jpg	100
2421.189	2.057	2056.9	regulate	Run3	regulate/STIM_027.jpg	99
2425.775	1.915	1914.6	regulate	Run3	regulate/STIM_027.jpg	99
2431.33	2.417	2416.7	regulate	Run3	regulate/STIM_027.jpg	99
2436.571	1.361	1360.8	regulate	Run3	regulate/STIM_028.jpg	100
2439.823	1.712	1712.0	regulate	Run3	regulate/STIM_028.jpg	99
2443.422	2.234	2234.5	regulate	Run3	regulate/STIM_028.jpg	100
2449.044	1.861	1861.1	regulate	Run3	regulate/STIM_028.jpg	99
2453.89	2.238	2237.9	regulate	Run3	regulate/STIM_029.jpg	100
2458.252	2.118	2118.0	regulate	Run3	regulate/STIM_029.jpg	99
2462.893	1.973	1972.7	regulate	Run3	regulate/STIM_029.jpg	99
2468.242	1.524	1523.8	regulate	Run3	regulate/STIM_029.jpg	100
2472.319	1.02	1019.8	observe	Run3	observe/STIM_000.jpg	99
2475.753	1.174	1174.2	observe	Run3	observe/STIM_000.jpg	100
2479.328	1.245	1245.2	observe	Run3	observe/STIM_000.jpg	99
2483.316	0.939	938.7	observe	Run3	observe/STIM_000.jpg	99
2487.765	1.28	1279.8	observe	Run3	observe/STIM_001.jpg	100
2491.989	1.094	1093.9	observe	Run3	observe/STIM_001.jpg	100
2495.505	0.964	963.8	observe	Run3	observe/STIM_001.jpg	99
2499.462	1.526	1526.4	observe	Run3	observe/STIM_001.jpg	99
2503.606	1.095	1094.9	observe	Run3	observe/STIM_002.jpg	99
2508.321	1.301	1301.0	observe	Run3	observe/STIM_002.jpg	99
2511.984	1.084	1084.5	observe	Run3	observe/STIM_002.jpg	100
2516.433	1.808	1807.7	observe	Run3	observe/STIM_002.jpg	100
2520.577	1.624	1624.5	observe	Run3	observe/STIM_003.jpg	100
2524.241	1.586	1586.1	observe	Run3	observe/STIM_003.jpg	99
2528.973	1.165	1165.2	observe	Run3	observe/STIM_003.jpg	100
2532.451	1.225	1225.1	observe	Run3	observe/STIM_003.jpg	99
2536.323	1.62	1619.9	observe	Run3	observe/STIM_004.jpg	100
2541.481	1.664	1664.5	observe	Run3	observe/STIM_004.jpg	100
2546.91	0.97	969.9	observe	Run3	observe/STIM_004.jpg	100
2550.714	1.528	1527.6	observe	Run3	observe/STIM_004.jpg	99
2554.776	1.357	1356.6	observe	Run3	observe/STIM_005.jpg	99
2559.112	1.632	1631.7	observe	Run3	observe/STIM_005.jpg	100
2563.529	1.222	1221.6	observe	Run3	observe/STIM_005.jpg	100
2567.118	1.507	1507.2	observe	Run3	observe/STIM_005.jpg	100
2570.772	1.415	1414.6	observe	Run3	observe/STIM_006.jpg	99
2575.193	1.62	1620.3	observe	Run3	observe/STIM_006.jpg	99
2579.34	1.166	1165.8	observe	Run3	observe/STIM_006.jpg	99
2582.796	1.598	1598.0	observe	Run3	observe/STIM_006.jpg	99
2586.814	1.151	1151.2	observe	Run3	observe/STIM_007.jpg	100
2591.777	1.556	1556.3	observe	Run3	observe/STIM_007.jpg	100
2595.529	1.085	1085.4	observe	Run3	observe/STIM_007.jpg	100
2599.228	1.136	1136.1	observe	Run3	observe/STIM_007.jpg	99
2603.355	1.071	1070.9	observe	Run3	observe/STIM_008.jpg	100
2607.82	1.352	1352.2	observe	Run3	observe/STIM_008.jpg	99
2611.355	1.433	1432.6	observe	Run3	observe/STIM_008.jpg	100
2616.018	1.116	1115.8	observe	Run3	observe/STIM_008.jpg	99
2619.97	1.672	1671.8	observe	Run3	observe/STIM_009.jpg	99
2624.41	1.18	1180.1	observe	Run3	observe/STIM_009.jpg	100
2628.866	1.726	1726.4	observe	Run3	observe/STIM_009.jpg	99
2633.954	1.635	1634.8	observe	Run3	observe/STIM_009.jpg	100
2638.964	1.556	1555.9	observe	Run3	observe/STIM_010.jpg	99
2643.854	1.093	1092.9	observe	Run3	observe/STIM_010.jpg	99
2647.038	1.602	1601.8	observe	Run3	observe/STIM_010.jpg	100
2651.315	1.718	1718.5	observe	Run3	observe/STIM_010.jpg	100
2655.179	1.24	1240.5	observe	Run3	observe/STIM_011.jpg	99
2658.3	1.784	1784.4	observe	Run3	observe/STIM_011.jpg	100
2662.78	1.507	1507.4	observe	Run3	observe/STIM_011.jpg	100
2667.389	1.766	1765.8	observe	Run3	observe/STIM_011.jpg	99
2671.543	1.361	1361.3	observe	Run3	observe/STIM_012.jpg	99
2675.101	1.358	1357.6	observe	Run3	observe/STIM_012.jpg	100
2680.321	1.263	1263.1	observe	Run3	observe/STIM_012.jpg	99
2684.78	1.573	1572.7	observe	Run3	observe/STIM_012.jpg	99
2689.147	1.714	1714.0	observe	Run3	observe/STIM_013.jpg	99
2693.277	1.681	1680.8	observe	Run3	observe/STIM_013.jpg	100
2696.865	1.677	1677.2	observe	Run3	observe/STIM_013.jpg	100
2700.371	1.152	1151.5	observe	Run3	observe/STIM_013.jpg	99
2704.887	1.087	1086.7	observe	Run3	observe/STIM_014.jpg	99
2709.363	0.972	972.0	observe	Run3	observe/STIM_014.jpg	100
2713.002	1.544	1544.5	observe	Run3	observe/STIM_014.jpg	100
2717.262	1.762	1762.2	observe	Run3	observe/STIM_014.jpg	99
2721.745	0.968	968.4	observe	Run3	observe/STIM_015.jpg	100
2726.324	1.78	1779.8	observe	Run3	observe/STIM_015.jpg	99
2731.365	1.162	1161.8	observe	Run3	observe/STIM_015.jpg	99
2734.642	0.939	938.6	observe	Run3	observe/STIM_015.jpg	99
2737.906	1.219	1219.3	observe	Run3	observe/STIM_016.jpg	99
2742.92	1.047	1047.4	observe	Run3	observe/STIM_016.jpg	99
2746.525	1.58	1579.9	observe	Run3	observe/STIM_016.jpg	100
2751.048	1.687	1686.6	observe	Run3	observe/STIM_016.jpg	100
2756.141	1.139	1139.0	observe	Run3	observe/STIM_017.jpg	99
2760.762	1.004	1003.8	observe	Run3	observe/STIM_017.jpg	100
2765.611	1.375	1374.8	observe	Run3	observe/STIM_017.jpg	100
2770.614	1.44	1439.9	observe	Run3	observe/STIM_017.jpg	99
2774.629	1.541	1540.6	observe	Run3	observe/STIM_018.jpg	99
2778.361	1.368	1368.3	observe	Run3	observe/STIM_018.jpg	100
2782.208	1.202	1201.8	observe	Run3	observe/STIM_018.jpg	99
2786.652	1.531	1530.8	observe	Run3	observe/STIM_018.jpg	99
2790.727	1.383	1383.4	observe	Run3	observe/STIM_019.jpg	100
2794.533	1.23	1229.8	observe	Run3	observe/STIM_019.jpg	99
2799.477	1.261	1261.0	observe	Run3	observe/STIM_019.jpg	99
2804.321	1.727	1726.6	observe	Run3	observe/STIM_019.jpg	100
