onset	duration	accuracy_binary	trial_type	learning_stage	stimulus
0.0	1.794	1	generate	Run1	generate/STIM_000.jpg
5.783	1.637	1	generate	Run1	generate/STIM_000.jpg
10.967	2.423	1	generate	Run1	generate/STIM_000.jpg
15.697	1.007	1	generate	Run1	generate/STIM_000.jpg
19.511	1.609	1	generate	Run1	generate/STIM_000.jpg
24.635	1.612	1	generate	Run1	generate/STIM_001.jpg
30.038	2.329	1	generate	Run1	generate/STIM_001.jpg
34.664	1.043	1	generate	Run1	generate/STIM_001.jpg
37.968	1.985	1	generate	Run1	generate/STIM_001.jpg
43.692	1.876	1	generate	Run1	generate/STIM_001.jpg
49.364	1.776	0	generate	Run1	generate/STIM_002.jpg
54.314	2.507	1	generate	Run1	generate/STIM_002.jpg
60.602	1.994	0	generate	Run1	generate/STIM_002.jpg
65.967	1.798	1	generate	Run1	generate/STIM_002.jpg
69.941	1.234	0	generate	Run1	generate/STIM_002.jpg
74.79	1.593	1	generate	Run1	generate/STIM_003.jpg
79.512	2.474	1	generate	Run1	generate/STIM_003.jpg
85.798	2.518	1	generate	Run1	generate/STIM_003.jpg
92.037	2.009	1	generate	Run1	generate/STIM_003.jpg
98.147	1.837	1	generate	Run1	generate/STIM_003.jpg
103.459	2.246	1	generate	Run1	generate/STIM_004.jpg
109.334	1.583	1	generate	Run1	generate/STIM_004.jpg
113.244	1.234	1	generate	Run1	generate/STIM_004.jpg
117.658	1.084	1	generate	Run1	generate/STIM_004.jpg
121.102	2.246	1	generate	Run1	generate/STIM_004.jpg
127.29	2.518	1	generate	Run1	generate/STIM_005.jpg
132.687	1.87	1	generate	Run1	generate/STIM_005.jpg
138.31	2.304	1	generate	Run1	generate/STIM_005.jpg
144.552	1.811	1	generate	Run1	generate/STIM_005.jpg
150.168	1.239	1	generate	Run1	generate/STIM_005.jpg
155.39	2.31	1	generate	Run1	generate/STIM_006.jpg
161.454	2.466	1	generate	Run1	generate/STIM_006.jpg
167.54	1.23	1	generate	Run1	generate/STIM_006.jpg
172.729	2.307	1	generate	Run1	generate/STIM_006.jpg
177.391	1.949	0	generate	Run1	generate/STIM_006.jpg
182.872	1.191	0	generate	Run1	generate/STIM_007.jpg
187.344	2.303	1	generate	Run1	generate/STIM_007.jpg
192.498	1.465	1	generate	Run1	generate/STIM_007.jpg
197.125	1.02	1	generate	Run1	generate/STIM_007.jpg
201.885	2.102	1	generate	Run1	generate/STIM_007.jpg
207.867	1.606	1	generate	Run1	generate/STIM_008.jpg
212.65	1.403	1	generate	Run1	generate/STIM_008.jpg
216.327	1.043	1	generate	Run1	generate/STIM_008.jpg
220.833	1.166	1	generate	Run1	generate/STIM_008.jpg
224.385	2.247	1	generate	Run1	generate/STIM_008.jpg
230.703	1.251	1	generate	Run1	generate/STIM_009.jpg
234.631	1.742	1	generate	Run1	generate/STIM_009.jpg
240.241	1.622	1	generate	Run1	generate/STIM_009.jpg
244.683	1.116	0	generate	Run1	generate/STIM_009.jpg
249.218	1.119	1	generate	Run1	generate/STIM_009.jpg
252.826	2.04	1	generate	Run1	generate/STIM_010.jpg
257.877	2.571	1	generate	Run1	generate/STIM_010.jpg
263.263	1.731	1	generate	Run1	generate/STIM_010.jpg
268.455	2.227	0	generate	Run1	generate/STIM_010.jpg
273.433	1.753	1	generate	Run1	generate/STIM_010.jpg
277.379	2.296	1	generate	Run1	generate/STIM_011.jpg
282.392	1.746	0	generate	Run1	generate/STIM_011.jpg
286.803	1.069	1	generate	Run1	generate/STIM_011.jpg
291.598	1.553	1	generate	Run1	generate/STIM_011.jpg
295.781	2.139	1	generate	Run1	generate/STIM_011.jpg
301.9	2.733	1	generate	Run1	generate/STIM_012.jpg
307.867	2.011	1	generate	Run1	generate/STIM_012.jpg
313.849	2.294	1	generate	Run1	generate/STIM_012.jpg
319.849	1.959	1	generate	Run1	generate/STIM_012.jpg
324.15	1.315	0	generate	Run1	generate/STIM_012.jpg
327.826	2.352	1	generate	Run1	generate/STIM_013.jpg
332.76	1.39	1	generate	Run1	generate/STIM_013.jpg
337.365	1.159	1	generate	Run1	generate/STIM_013.jpg
341.292	2.29	0	generate	Run1	generate/STIM_013.jpg
346.971	1.757	0	generate	Run1	generate/STIM_013.jpg
351.522	1.226	1	generate	Run1	generate/STIM_014.jpg
356.346	2.414	0	generate	Run1	generate/STIM_014.jpg
362.308	1.102	1	generate	Run1	generate/STIM_014.jpg
366.536	2.081	1	generate	Run1	generate/STIM_014.jpg
371.346	1.58	1	generate	Run1	generate/STIM_014.jpg
375.623	2.515	0	generate	Run1	generate/STIM_015.jpg
380.36	1.307	1	generate	Run1	generate/STIM_015.jpg
383.814	1.197	1	generate	Run1	generate/STIM_015.jpg
388.75	1.719	1	generate	Run1	generate/STIM_015.jpg
393.171	1.586	1	generate	Run1	generate/STIM_015.jpg
396.96	2.826	1	generate	Run1	generate/STIM_016.jpg
403.138	1.473	1	generate	Run1	generate/STIM_016.jpg
408.669	2.523	1	generate	Run1	generate/STIM_016.jpg
413.827	2.057	1	generate	Run1	generate/STIM_016.jpg
419.109	1.926	0	generate	Run1	generate/STIM_016.jpg
423.362	1.208	1	generate	Run1	generate/STIM_017.jpg
428.462	1.808	1	generate	Run1	generate/STIM_017.jpg
433.758	1.286	0	generate	Run1	generate/STIM_017.jpg
437.341	1.387	1	generate	Run1	generate/STIM_017.jpg
441.515	1.634	0	generate	Run1	generate/STIM_017.jpg
446.881	1.617	0	generate	Run1	generate/STIM_018.jpg
452.176	1.272	1	generate	Run1	generate/STIM_018.jpg
456.531	1.896	1	generate	Run1	generate/STIM_018.jpg
462.091	1.226	1	generate	Run1	generate/STIM_018.jpg
466.642	1.292	1	generate	Run1	generate/STIM_018.jpg
470.106	2.301	0	generate	Run1	generate/STIM_019.jpg
476.402	1.727	0	generate	Run1	generate/STIM_019.jpg
480.793	1.276	0	generate	Run1	generate/STIM_019.jpg
484.166	1.513	1	generate	Run1	generate/STIM_019.jpg
488.475	1.758	0	generate	Run1	generate/STIM_019.jpg
492.931	2.396	1	generate	Run1	generate/STIM_020.jpg
498.276	1.925	1	generate	Run1	generate/STIM_020.jpg
503.72	1.641	0	generate	Run1	generate/STIM_020.jpg
508.681	1.631	1	generate	Run1	generate/STIM_020.jpg
512.733	2.262	1	generate	Run1	generate/STIM_020.jpg
517.587	2.302	0	generate	Run1	generate/STIM_021.jpg
522.613	2.212	1	generate	Run1	generate/STIM_021.jpg
528.018	1.048	1	generate	Run1	generate/STIM_021.jpg
531.765	2.222	1	generate	Run1	generate/STIM_021.jpg
536.912	1.205	1	generate	Run1	generate/STIM_021.jpg
540.229	2.614	1	generate	Run1	generate/STIM_022.jpg
545.226	1.503	1	generate	Run1	generate/STIM_022.jpg
550.35	2.066	1	generate	Run1	generate/STIM_022.jpg
555.627	1.713	1	generate	Run1	generate/STIM_022.jpg
560.546	1.493	1	generate	Run1	generate/STIM_022.jpg
565.029	2.576	1	generate	Run1	generate/STIM_023.jpg
570.985	1.81	0	generate	Run1	generate/STIM_023.jpg
575.059	2.102	1	generate	Run1	generate/STIM_023.jpg
580.24	1.217	1	generate	Run1	generate/STIM_023.jpg
585.108	1.856	1	generate	Run1	generate/STIM_023.jpg
589.915	2.53	1	generate	Run1	generate/STIM_024.jpg
595.753	1.433	1	generate	Run1	generate/STIM_024.jpg
599.336	1.534	1	generate	Run1	generate/STIM_024.jpg
603.575	1.303	1	generate	Run1	generate/STIM_024.jpg
607.544	2.179	1	generate	Run1	generate/STIM_024.jpg
613.456	0.935	1	repeat	Run1	repeat/STIM_000.jpg
617.616	0.738	1	repeat	Run1	repeat/STIM_000.jpg
621.186	0.583	1	repeat	Run1	repeat/STIM_000.jpg
625.598	0.62	1	repeat	Run1	repeat/STIM_000.jpg
628.955	0.717	1	repeat	Run1	repeat/STIM_000.jpg
633.19	0.68	1	repeat	Run1	repeat/STIM_001.jpg
637.806	0.51	1	repeat	Run1	repeat/STIM_001.jpg
640.728	0.493	1	repeat	Run1	repeat/STIM_001.jpg
645.222	0.506	1	repeat	Run1	repeat/STIM_001.jpg
647.943	0.534	1	repeat	Run1	repeat/STIM_001.jpg
651.678	0.902	1	repeat	Run1	repeat/STIM_002.jpg
655.208	0.635	1	repeat	Run1	repeat/STIM_002.jpg
657.991	0.566	0	repeat	Run1	repeat/STIM_002.jpg
661.792	0.811	1	repeat	Run1	repeat/STIM_002.jpg
666.618	0.707	1	repeat	Run1	repeat/STIM_002.jpg
670.92	0.6	1	repeat	Run1	repeat/STIM_003.jpg
675.338	0.604	1	repeat	Run1	repeat/STIM_003.jpg
679.954	0.637	1	repeat	Run1	repeat/STIM_003.jpg
683.088	0.48	1	repeat	Run1	repeat/STIM_003.jpg
686.769	0.774	1	repeat	Run1	repeat/STIM_003.jpg
690.35	0.528	1	repeat	Run1	repeat/STIM_004.jpg
694.1	0.942	1	repeat	Run1	repeat/STIM_004.jpg
697.3	0.613	1	repeat	Run1	repeat/STIM_004.jpg
701.056	0.916	1	repeat	Run1	repeat/STIM_004.jpg
704.24	0.835	1	repeat	Run1	repeat/STIM_004.jpg
707.589	0.922	1	repeat	Run1	repeat/STIM_005.jpg
711.058	0.606	1	repeat	Run1	repeat/STIM_005.jpg
714.57	0.937	1	repeat	Run1	repeat/STIM_005.jpg
719.428	0.692	1	repeat	Run1	repeat/STIM_005.jpg
723.314	0.843	1	repeat	Run1	repeat/STIM_005.jpg
727.438	0.775	1	repeat	Run1	repeat/STIM_006.jpg
730.639	0.931	1	repeat	Run1	repeat/STIM_006.jpg
734.703	0.536	1	repeat	Run1	repeat/STIM_006.jpg
738.041	0.501	1	repeat	Run1	repeat/STIM_006.jpg
742.483	0.918	1	repeat	Run1	repeat/STIM_006.jpg
747.424	0.48	1	repeat	Run1	repeat/STIM_007.jpg
750.336	0.632	1	repeat	Run1	repeat/STIM_007.jpg
754.568	0.709	1	repeat	Run1	repeat/STIM_007.jpg
757.997	0.9	1	repeat	Run1	repeat/STIM_007.jpg
762.363	0.737	1	repeat	Run1	repeat/STIM_007.jpg
766.444	0.816	1	repeat	Run1	repeat/STIM_008.jpg
770.017	0.755	1	repeat	Run1	repeat/STIM_008.jpg
773.211	0.478	1	repeat	Run1	repeat/STIM_008.jpg
777.159	0.58	1	repeat	Run1	repeat/STIM_008.jpg
781.741	0.488	1	repeat	Run1	repeat/STIM_008.jpg
785.853	0.657	1	repeat	Run1	repeat/STIM_009.jpg
789.626	0.928	1	repeat	Run1	repeat/STIM_009.jpg
794.145	0.908	1	repeat	Run1	repeat/STIM_009.jpg
797.542	0.799	1	repeat	Run1	repeat/STIM_009.jpg
801.92	0.82	1	repeat	Run1	repeat/STIM_009.jpg
805.338	0.719	1	repeat	Run1	repeat/STIM_010.jpg
808.681	0.628	1	repeat	Run1	repeat/STIM_010.jpg
811.829	0.677	1	repeat	Run1	repeat/STIM_010.jpg
816.262	0.876	1	repeat	Run1	repeat/STIM_010.jpg
819.359	0.79	1	repeat	Run1	repeat/STIM_010.jpg
823.32	0.636	1	repeat	Run1	repeat/STIM_011.jpg
827.684	0.82	1	repeat	Run1	repeat/STIM_011.jpg
832.472	0.706	1	repeat	Run1	repeat/STIM_011.jpg
835.356	0.538	1	repeat	Run1	repeat/STIM_011.jpg
839.414	0.585	1	repeat	Run1	repeat/STIM_011.jpg
843.936	0.58	1	repeat	Run1	repeat/STIM_012.jpg
848.532	0.515	1	repeat	Run1	repeat/STIM_012.jpg
851.537	0.601	1	repeat	Run1	repeat/STIM_012.jpg
855.554	0.81	1	repeat	Run1	repeat/STIM_012.jpg
860.378	0.883	1	repeat	Run1	repeat/STIM_012.jpg
863.586	0.903	1	repeat	Run1	repeat/STIM_013.jpg
868.535	0.504	1	repeat	Run1	repeat/STIM_013.jpg
871.251	0.738	1	repeat	Run1	repeat/STIM_013.jpg
874.228	0.794	1	repeat	Run1	repeat/STIM_013.jpg
877.858	0.762	1	repeat	Run1	repeat/STIM_013.jpg
882.351	0.824	1	repeat	Run1	repeat/STIM_014.jpg
886.914	0.744	1	repeat	Run1	repeat/STIM_014.jpg
890.391	0.827	1	repeat	Run1	repeat/STIM_014.jpg
895.24	0.813	0	repeat	Run1	repeat/STIM_014.jpg
899.811	0.934	1	repeat	Run1	repeat/STIM_014.jpg
904.035	2.253	1	generate	Run2	generate/STIM_000.jpg
909.492	1.591	1	generate	Run2	generate/STIM_000.jpg
915.115	1.415	1	generate	Run2	generate/STIM_000.jpg
918.642	1.406	1	generate	Run2	generate/STIM_000.jpg
923.846	1.833	1	generate	Run2	generate/STIM_000.jpg
928.207	1.839	1	generate	Run2	generate/STIM_001.jpg
933.558	1.727	1	generate	Run2	generate/STIM_001.jpg
938.988	1.514	1	generate	Run2	generate/STIM_001.jpg
943.212	1.372	1	generate	Run2	generate/STIM_001.jpg
948.621	1.066	1	generate	Run2	generate/STIM_001.jpg
952.723	2.373	0	generate	Run2	generate/STIM_002.jpg
958.437	1.528	1	generate	Run2	generate/STIM_002.jpg
962.89	1.29	1	generate	Run2	generate/STIM_002.jpg
966.439	1.978	1	generate	Run2	generate/STIM_002.jpg
972.074	0.811	1	generate	Run2	generate/STIM_002.jpg
975.99	2.14	1	generate	Run2	generate/STIM_003.jpg
981.717	2.125	1	generate	Run2	generate/STIM_003.jpg
987.301	1.285	1	generate	Run2	generate/STIM_003.jpg
991.216	0.824	1	generate	Run2	generate/STIM_003.jpg
995.134	0.926	1	generate	Run2	generate/STIM_003.jpg
999.919	1.845	0	generate	Run2	generate/STIM_004.jpg
1004.382	1.94	1	generate	Run2	generate/STIM_004.jpg
1009.834	1.645	1	generate	Run2	generate/STIM_004.jpg
1013.841	1.205	1	generate	Run2	generate/STIM_004.jpg
1018.953	1.248	0	generate	Run2	generate/STIM_004.jpg
1022.864	1.327	1	generate	Run2	generate/STIM_005.jpg
1026.387	2.025	1	generate	Run2	generate/STIM_005.jpg
1031.601	1.975	1	generate	Run2	generate/STIM_005.jpg
1037.262	1.353	1	generate	Run2	generate/STIM_005.jpg
1042.068	1.077	0	generate	Run2	generate/STIM_005.jpg
1045.499	2.234	1	generate	Run2	generate/STIM_006.jpg
1050.038	1.066	1	generate	Run2	generate/STIM_006.jpg
1053.709	1.046	1	generate	Run2	generate/STIM_006.jpg
1058.0	1.677	1	generate	Run2	generate/STIM_006.jpg
1063.398	1.192	1	generate	Run2	generate/STIM_006.jpg
1067.187	1.853	0	generate	Run2	generate/STIM_007.jpg
1071.936	1.452	1	generate	Run2	generate/STIM_007.jpg
1077.353	1.201	0	generate	Run2	generate/STIM_007.jpg
1080.732	0.892	1	generate	Run2	generate/STIM_007.jpg
1085.177	1.459	1	generate	Run2	generate/STIM_007.jpg
1089.747	1.12	1	generate	Run2	generate/STIM_008.jpg
1094.776	1.529	0	generate	Run2	generate/STIM_008.jpg
1099.763	1.603	0	generate	Run2	generate/STIM_008.jpg
1104.796	1.4	1	generate	Run2	generate/STIM_008.jpg
1108.831	1.971	1	generate	Run2	generate/STIM_008.jpg
1114.376	2.052	1	generate	Run2	generate/STIM_009.jpg
1119.722	1.427	1	generate	Run2	generate/STIM_009.jpg
1123.92	1.277	1	generate	Run2	generate/STIM_009.jpg
1128.861	1.087	1	generate	Run2	generate/STIM_009.jpg
1133.798	1.226	1	generate	Run2	generate/STIM_009.jpg
1138.794	1.89	1	generate	Run2	generate/STIM_010.jpg
1143.575	2.181	0	generate	Run2	generate/STIM_010.jpg
1148.659	1.189	1	generate	Run2	generate/STIM_010.jpg
1153.506	1.638	1	generate	Run2	generate/STIM_010.jpg
1158.54	1.872	1	generate	Run2	generate/STIM_010.jpg
1163.302	1.932	1	generate	Run2	generate/STIM_011.jpg
1169.169	1.754	1	generate	Run2	generate/STIM_011.jpg
1174.314	1.501	1	generate	Run2	generate/STIM_011.jpg
1179.226	0.954	1	generate	Run2	generate/STIM_011.jpg
1183.905	1.56	1	generate	Run2	generate/STIM_011.jpg
1188.07	1.16	1	generate	Run2	generate/STIM_012.jpg
1192.049	1.769	1	generate	Run2	generate/STIM_012.jpg
1197.561	1.132	1	generate	Run2	generate/STIM_012.jpg
1202.348	1.359	1	generate	Run2	generate/STIM_012.jpg
1207.143	1.666	0	generate	Run2	generate/STIM_012.jpg
1211.794	1.84	1	generate	Run2	generate/STIM_013.jpg
1217.726	1.38	1	generate	Run2	generate/STIM_013.jpg
1222.658	1.333	1	generate	Run2	generate/STIM_013.jpg
1227.13	1.53	0	generate	Run2	generate/STIM_013.jpg
1231.346	1.57	1	generate	Run2	generate/STIM_013.jpg
1236.359	1.955	0	generate	Run2	generate/STIM_014.jpg
1240.877	1.689	1	generate	Run2	generate/STIM_014.jpg
1246.151	1.877	1	generate	Run2	generate/STIM_014.jpg
1250.235	1.312	1	generate	Run2	generate/STIM_014.jpg
1254.493	0.93	1	generate	Run2	generate/STIM_014.jpg
1257.751	2.086	1	generate	Run2	generate/STIM_015.jpg
1262.217	2.175	1	generate	Run2	generate/STIM_015.jpg
1268.176	1.762	0	generate	Run2	generate/STIM_015.jpg
1272.432	0.918	0	generate	Run2	generate/STIM_015.jpg
1276.028	1.767	0	generate	Run2	generate/STIM_015.jpg
1280.976	1.607	1	generate	Run2	generate/STIM_016.jpg
1285.497	0.972	1	generate	Run2	generate/STIM_016.jpg
1288.898	1.596	1	generate	Run2	generate/STIM_016.jpg
1293.949	0.889	0	generate	Run2	generate/STIM_016.jpg
1298.703	1.572	1	generate	Run2	generate/STIM_016.jpg
1303.176	2.211	1	generate	Run2	generate/STIM_017.jpg
1309.183	1.08	1	generate	Run2	generate/STIM_017.jpg
1313.216	0.925	1	generate	Run2	generate/STIM_017.jpg
1318.133	1.726	1	generate	Run2	generate/STIM_017.jpg
1322.169	1.232	1	generate	Run2	generate/STIM_017.jpg
1327.025	1.884	0	generate	Run2	generate/STIM_018.jpg
1331.956	1.96	1	generate	Run2	generate/STIM_018.jpg
1336.81	1.486	1	generate	Run2	generate/STIM_018.jpg
1341.365	0.898	1	generate	Run2	generate/STIM_018.jpg
1345.728	1.726	1	generate	Run2	generate/STIM_018.jpg
1350.802	2.156	1	generate	Run2	generate/STIM_019.jpg
1356.684	1.304	1	generate	Run2	generate/STIM_019.jpg
1361.284	1.333	1	generate	Run2	generate/STIM_019.jpg
1366.447	0.941	1	generate	Run2	generate/STIM_019.jpg
1369.631	0.886	1	generate	Run2	generate/STIM_019.jpg
1373.527	2.365	1	generate	Run2	generate/STIM_020.jpg
1379.656	2.185	0	generate	Run2	generate/STIM_020.jpg
1385.156	1.918	1	generate	Run2	generate/STIM_020.jpg
1391.057	0.909	1	generate	Run2	generate/STIM_020.jpg
1395.795	1.906	1	generate	Run2	generate/STIM_020.jpg
1400.81	1.16	1	generate	Run2	generate/STIM_021.jpg
1405.368	1.419	1	generate	Run2	generate/STIM_021.jpg
1409.805	1.625	1	generate	Run2	generate/STIM_021.jpg
1413.987	1.588	1	generate	Run2	generate/STIM_021.jpg
1419.559	1.86	1	generate	Run2	generate/STIM_021.jpg
1424.953	1.043	1	generate	Run2	generate/STIM_022.jpg
1428.298	1.754	1	generate	Run2	generate/STIM_022.jpg
1432.335	1.495	0	generate	Run2	generate/STIM_022.jpg
1436.226	1.266	1	generate	Run2	generate/STIM_022.jpg
1441.363	1.674	1	generate	Run2	generate/STIM_022.jpg
1446.841	1.347	1	generate	Run2	generate/STIM_023.jpg
1451.13	1.24	1	generate	Run2	generate/STIM_023.jpg
1454.787	0.912	0	generate	Run2	generate/STIM_023.jpg
1458.626	1.34	1	generate	Run2	generate/STIM_023.jpg
1462.746	1.337	1	generate	Run2	generate/STIM_023.jpg
1468.023	1.636	0	generate	Run2	generate/STIM_024.jpg
1471.903	1.728	1	generate	Run2	generate/STIM_024.jpg
1476.834	1.594	1	generate	Run2	generate/STIM_024.jpg
1481.692	1.523	1	generate	Run2	generate/STIM_024.jpg
1487.276	1.471	1	generate	Run2	generate/STIM_024.jpg
1492.066	0.704	1	repeat	Run2	repeat/STIM_000.jpg
1496.051	0.892	1	repeat	Run2	repeat/STIM_000.jpg
1499.715	0.523	1	repeat	Run2	repeat/STIM_000.jpg
1502.46	0.638	1	repeat	Run2	repeat/STIM_000.jpg
1505.414	0.583	1	repeat	Run2	repeat/STIM_000.jpg
1509.589	0.809	1	repeat	Run2	repeat/STIM_001.jpg
1512.567	0.493	1	repeat	Run2	repeat/STIM_001.jpg
1515.569	0.836	1	repeat	Run2	repeat/STIM_001.jpg
1518.784	0.833	1	repeat	Run2	repeat/STIM_001.jpg
1522.961	0.719	1	repeat	Run2	repeat/STIM_001.jpg
1527.611	0.888	1	repeat	Run2	repeat/STIM_002.jpg
1532.367	0.782	1	repeat	Run2	repeat/STIM_002.jpg
1536.605	0.783	1	repeat	Run2	repeat/STIM_002.jpg
1541.175	0.591	1	repeat	Run2	repeat/STIM_002.jpg
1544.977	0.789	1	repeat	Run2	repeat/STIM_002.jpg
1548.991	0.635	1	repeat	Run2	repeat/STIM_003.jpg
1552.258	0.935	1	repeat	Run2	repeat/STIM_003.jpg
1556.865	0.829	1	repeat	Run2	repeat/STIM_003.jpg
1560.857	0.751	1	repeat	Run2	repeat/STIM_003.jpg
1563.682	0.787	1	repeat	Run2	repeat/STIM_003.jpg
1566.965	0.904	1	repeat	Run2	repeat/STIM_004.jpg
1570.743	0.654	1	repeat	Run2	repeat/STIM_004.jpg
1575.076	0.815	1	repeat	Run2	repeat/STIM_004.jpg
1578.7	0.768	1	repeat	Run2	repeat/STIM_004.jpg
1581.575	0.527	0	repeat	Run2	repeat/STIM_004.jpg
1585.767	0.915	1	repeat	Run2	repeat/STIM_005.jpg
1589.761	0.59	1	repeat	Run2	repeat/STIM_005.jpg
1593.839	0.626	1	repeat	Run2	repeat/STIM_005.jpg
1596.583	0.588	1	repeat	Run2	repeat/STIM_005.jpg
1599.986	0.487	1	repeat	Run2	repeat/STIM_005.jpg
1604.168	0.649	1	repeat	Run2	repeat/STIM_006.jpg
1607.904	0.6	1	repeat	Run2	repeat/STIM_006.jpg
1611.705	0.472	1	repeat	Run2	repeat/STIM_006.jpg
1614.946	0.526	1	repeat	Run2	repeat/STIM_006.jpg
1617.555	0.595	1	repeat	Run2	repeat/STIM_006.jpg
1621.185	0.635	1	repeat	Run2	repeat/STIM_007.jpg
1625.8	0.494	1	repeat	Run2	repeat/STIM_007.jpg
1629.215	0.718	1	repeat	Run2	repeat/STIM_007.jpg
1632.368	0.888	1	repeat	Run2	repeat/STIM_007.jpg
1636.48	0.601	0	repeat	Run2	repeat/STIM_007.jpg
1640.934	0.73	1	repeat	Run2	repeat/STIM_008.jpg
1643.975	0.701	1	repeat	Run2	repeat/STIM_008.jpg
1647.901	0.814	1	repeat	Run2	repeat/STIM_008.jpg
1651.426	0.584	1	repeat	Run2	repeat/STIM_008.jpg
1655.04	0.514	1	repeat	Run2	repeat/STIM_008.jpg
1659.021	0.655	1	repeat	Run2	repeat/STIM_009.jpg
1661.745	0.906	1	repeat	Run2	repeat/STIM_009.jpg
1665.361	0.621	1	repeat	Run2	repeat/STIM_009.jpg
1669.414	0.778	1	repeat	Run2	repeat/STIM_009.jpg
1672.871	0.865	1	repeat	Run2	repeat/STIM_009.jpg
1677.338	0.801	1	repeat	Run2	repeat/STIM_010.jpg
1681.456	0.721	1	repeat	Run2	repeat/STIM_010.jpg
1685.184	0.863	1	repeat	Run2	repeat/STIM_010.jpg
1689.616	0.938	0	repeat	Run2	repeat/STIM_010.jpg
1692.85	0.66	0	repeat	Run2	repeat/STIM_010.jpg
1695.871	0.829	1	repeat	Run2	repeat/STIM_011.jpg
1700.462	0.581	1	repeat	Run2	repeat/STIM_011.jpg
1704.87	0.934	1	repeat	Run2	repeat/STIM_011.jpg
1708.048	0.688	1	repeat	Run2	repeat/STIM_011.jpg
1711.954	0.633	1	repeat	Run2	repeat/STIM_011.jpg
1714.92	0.864	1	repeat	Run2	repeat/STIM_012.jpg
1718.403	0.912	1	repeat	Run2	repeat/STIM_012.jpg
1721.895	0.874	1	repeat	Run2	repeat/STIM_012.jpg
1726.103	0.509	1	repeat	Run2	repeat/STIM_012.jpg
1728.884	0.553	1	repeat	Run2	repeat/STIM_012.jpg
1732.803	0.904	1	repeat	Run2	repeat/STIM_013.jpg
1737.368	0.829	1	repeat	Run2	repeat/STIM_013.jpg
1741.12	0.739	1	repeat	Run2	repeat/STIM_013.jpg
1744.695	0.942	1	repeat	Run2	repeat/STIM_013.jpg
1748.825	0.724	1	repeat	Run2	repeat/STIM_013.jpg
1751.736	0.472	1	repeat	Run2	repeat/STIM_014.jpg
1755.721	0.788	0	repeat	Run2	repeat/STIM_014.jpg
1760.117	0.651	1	repeat	Run2	repeat/STIM_014.jpg
1763.077	0.874	1	repeat	Run2	repeat/STIM_014.jpg
1767.175	0.85	1	repeat	Run2	repeat/STIM_014.jpg
1771.84	1.03	1	generate	Run3	generate/STIM_000.jpg
1776.471	1.024	1	generate	Run3	generate/STIM_000.jpg
1779.832	1.919	1	generate	Run3	generate/STIM_000.jpg
1785.521	1.122	1	generate	Run3	generate/STIM_000.jpg
1789.552	0.812	1	generate	Run3	generate/STIM_000.jpg
1794.207	1.383	1	generate	Run3	generate/STIM_001.jpg
1798.462	1.816	1	generate	Run3	generate/STIM_001.jpg
1803.109	1.797	1	generate	Run3	generate/STIM_001.jpg
1808.607	1.956	1	generate	Run3	generate/STIM_001.jpg
1813.041	0.809	1	generate	Run3	generate/STIM_001.jpg
1817.326	1.255	0	generate	Run3	generate/STIM_002.jpg
1821.334	1.938	1	generate	Run3	generate/STIM_002.jpg
1827.369	1.722	0	generate	Run3	generate/STIM_002.jpg
1831.279	1.04	1	generate	Run3	generate/STIM_002.jpg
1835.697	1.732	1	generate	Run3	generate/STIM_002.jpg
1841.432	1.328	1	generate	Run3	generate/STIM_003.jpg
1845.738	1.164	1	generate	Run3	generate/STIM_003.jpg
1849.95	1.849	1	generate	Run3	generate/STIM_003.jpg
1854.425	1.431	1	generate	Run3	generate/STIM_003.jpg
1859.483	1.445	1	generate	Run3	generate/STIM_003.jpg
1863.339	1.583	1	generate	Run3	generate/STIM_004.jpg
1868.151	1.81	1	generate	Run3	generate/STIM_004.jpg
1872.943	1.055	1	generate	Run3	generate/STIM_004.jpg
1876.833	1.06	1	generate	Run3	generate/STIM_004.jpg
1881.951	1.697	1	generate	Run3	generate/STIM_004.jpg
1887.187	0.901	1	generate	Run3	generate/STIM_005.jpg
1891.476	1.904	1	generate	Run3	generate/STIM_005.jpg
1895.571	1.578	1	generate	Run3	generate/STIM_005.jpg
1900.715	0.961	1	generate	Run3	generate/STIM_005.jpg
1903.976	1.061	1	generate	Run3	generate/STIM_005.jpg
1907.735	1.031	1	generate	Run3	generate/STIM_006.jpg
1911.777	1.432	1	generate	Run3	generate/STIM_006.jpg
1915.912	1.763	1	generate	Run3	generate/STIM_006.jpg
1920.39	1.017	1	generate	Run3	generate/STIM_006.jpg
1923.644	0.809	1	generate	Run3	generate/STIM_006.jpg
1926.887	1.806	1	generate	Run3	generate/STIM_007.jpg
1932.374	1.138	1	generate	Run3	generate/STIM_007.jpg
1937.486	0.885	1	generate	Run3	generate/STIM_007.jpg
1942.164	1.476	0	generate	Run3	generate/STIM_007.jpg
1945.865	1.914	1	generate	Run3	generate/STIM_007.jpg
1951.057	0.959	1	generate	Run3	generate/STIM_008.jpg
1955.433	1.566	1	generate	Run3	generate/STIM_008.jpg
1960.289	1.545	1	generate	Run3	generate/STIM_008.jpg
1963.957	0.969	1	generate	Run3	generate/STIM_008.jpg
1968.751	1.68	0	generate	Run3	generate/STIM_008.jpg
1973.083	1.475	1	generate	Run3	generate/STIM_009.jpg
1977.314	1.428	0	generate	Run3	generate/STIM_009.jpg
1981.545	1.924	0	generate	Run3	generate/STIM_009.jpg
1985.737	1.247	1	generate	Run3	generate/STIM_009.jpg
1989.128	1.92	1	generate	Run3	generate/STIM_009.jpg
1993.696	0.825	0	generate	Run3	generate/STIM_010.jpg
1998.207	1.74	1	generate	Run3	generate/STIM_010.jpg
2002.732	1.651	1	generate	Run3	generate/STIM_010.jpg
2007.092	1.851	1	generate	Run3	generate/STIM_010.jpg
2011.654	1.045	1	generate	Run3	generate/STIM_010.jpg
2015.21	0.798	1	generate	Run3	generate/STIM_011.jpg
2018.327	1.663	1	generate	Run3	generate/STIM_011.jpg
2024.035	1.883	1	generate	Run3	generate/STIM_011.jpg
2029.489	1.571	1	generate	Run3	generate/STIM_011.jpg
2035.124	1.738	1	generate	Run3	generate/STIM_011.jpg
2040.714	1.416	1	generate	Run3	generate/STIM_012.jpg
2044.832	1.69	1	generate	Run3	generate/STIM_012.jpg
2050.486	1.794	1	generate	Run3	generate/STIM_012.jpg
2054.806	1.601	0	generate	Run3	generate/STIM_012.jpg
2059.403	1.071	1	generate	Run3	generate/STIM_012.jpg
2063.751	1.379	1	generate	Run3	generate/STIM_013.jpg
2068.781	1.506	1	generate	Run3	generate/STIM_013.jpg
2073.345	1.791	1	generate	Run3	generate/STIM_013.jpg
2078.92	1.676	1	generate	Run3	generate/STIM_013.jpg
2083.572	1.167	1	generate	Run3	generate/STIM_013.jpg
2086.857	0.823	1	generate	Run3	generate/STIM_014.jpg
2091.452	1.38	1	generate	Run3	generate/STIM_014.jpg
2096.84	1.044	1	generate	Run3	generate/STIM_014.jpg
2101.464	1.473	1	generate	Run3	generate/STIM_014.jpg
2105.4	1.026	1	generate	Run3	generate/STIM_014.jpg
2109.964	1.581	1	generate	Run3	generate/STIM_015.jpg
2114.379	1.345	1	generate	Run3	generate/STIM_015.jpg
2118.586	1.203	1	generate	Run3	generate/STIM_015.jpg
2122.499	1.679	1	generate	Run3	generate/STIM_015.jpg
2127.125	0.866	1	generate	Run3	generate/STIM_015.jpg
2130.588	1.238	0	generate	Run3	generate/STIM_016.jpg
2135.663	1.884	1	generate	Run3	generate/STIM_016.jpg
2141.296	1.467	1	generate	Run3	generate/STIM_016.jpg
2145.993	1.114	1	generate	Run3	generate/STIM_016.jpg
2149.223	1.691	1	generate	Run3	generate/STIM_016.jpg
2154.878	1.291	0	generate	Run3	generate/STIM_017.jpg
2158.281	1.431	1	generate	Run3	generate/STIM_017.jpg
2162.096	1.094	1	generate	Run3	generate/STIM_017.jpg
2166.001	1.545	1	generate	Run3	generate/STIM_017.jpg
2171.076	1.867	1	generate	Run3	generate/STIM_017.jpg
2176.921	1.738	1	generate	Run3	generate/STIM_018.jpg
2181.783	1.188	1	generate	Run3	generate/STIM_018.jpg
2187.002	1.244	1	generate	Run3	generate/STIM_018.jpg
2192.156	1.067	1	generate	Run3	generate/STIM_018.jpg
2196.268	0.892	1	generate	Run3	generate/STIM_018.jpg
2200.499	0.874	1	generate	Run3	generate/STIM_019.jpg
2203.929	0.921	1	generate	Run3	generate/STIM_019.jpg
2207.943	1.168	0	generate	Run3	generate/STIM_019.jpg
2212.364	0.876	1	generate	Run3	generate/STIM_019.jpg
2215.723	1.636	1	generate	Run3	generate/STIM_019.jpg
2220.583	0.931	1	generate	Run3	generate/STIM_020.jpg
2224.67	1.043	1	generate	Run3	generate/STIM_020.jpg
2229.045	1.225	0	generate	Run3	generate/STIM_020.jpg
2234.254	1.191	1	generate	Run3	generate/STIM_020.jpg
2238.784	1.217	1	generate	Run3	generate/STIM_020.jpg
2243.204	1.954	1	generate	Run3	generate/STIM_021.jpg
2248.223	1.531	1	generate	Run3	generate/STIM_021.jpg
2252.148	1.779	1	generate	Run3	generate/STIM_021.jpg
2256.422	1.38	1	generate	Run3	generate/STIM_021.jpg
2261.133	1.281	1	generate	Run3	generate/STIM_021.jpg
2264.964	1.016	1	generate	Run3	generate/STIM_022.jpg
2269.974	1.229	1	generate	Run3	generate/STIM_022.jpg
2273.285	1.344	1	generate	Run3	generate/STIM_022.jpg
2277.955	1.878	1	generate	Run3	generate/STIM_022.jpg
2282.617	1.702	1	generate	Run3	generate/STIM_022.jpg
2288.022	1.054	1	generate	Run3	generate/STIM_023.jpg
2291.339	1.654	1	generate	Run3	generate/STIM_023.jpg
2296.333	1.339	1	generate	Run3	generate/STIM_023.jpg
2301.254	1.303	1	generate	Run3	generate/STIM_023.jpg
2305.396	0.804	1	generate	Run3	generate/STIM_023.jpg
2309.866	1.069	1	generate	Run3	generate/STIM_024.jpg
2314.504	0.825	1	generate	Run3	generate/STIM_024.jpg
2317.393	1.282	1	generate	Run3	generate/STIM_024.jpg
2321.608	0.795	1	generate	Run3	generate/STIM_024.jpg
2325.518	1.654	1	generate	Run3	generate/STIM_024.jpg
2330.34	0.75	1	repeat	Run3	repeat/STIM_000.jpg
2334.691	0.638	1	repeat	Run3	repeat/STIM_000.jpg
2337.585	0.636	1	repeat	Run3	repeat/STIM_000.jpg
2341.647	0.53	1	repeat	Run3	repeat/STIM_000.jpg
2345.027	0.881	1	repeat	Run3	repeat/STIM_000.jpg
2349.103	0.874	1	repeat	Run3	repeat/STIM_001.jpg
2353.574	0.889	1	repeat	Run3	repeat/STIM_001.jpg
2357.087	0.616	1	repeat	Run3	repeat/STIM_001.jpg
2360.47	0.74	1	repeat	Run3	repeat/STIM_001.jpg
2364.274	0.636	1	repeat	Run3	repeat/STIM_001.jpg
2367.005	0.821	1	repeat	Run3	repeat/STIM_002.jpg
2370.691	0.532	1	repeat	Run3	repeat/STIM_002.jpg
2374.868	0.629	1	repeat	Run3	repeat/STIM_002.jpg
2378.907	0.78	1	repeat	Run3	repeat/STIM_002.jpg
2383.195	0.656	1	repeat	Run3	repeat/STIM_002.jpg
2387.054	0.898	1	repeat	Run3	repeat/STIM_003.jpg
2391.27	0.542	1	repeat	Run3	repeat/STIM_003.jpg
2394.416	0.599	1	repeat	Run3	repeat/STIM_003.jpg
2398.59	0.696	1	repeat	Run3	repeat/STIM_003.jpg
2402.381	0.911	1	repeat	Run3	repeat/STIM_003.jpg
2405.64	0.688	1	repeat	Run3	repeat/STIM_004.jpg
2410.19	0.73	1	repeat	Run3	repeat/STIM_004.jpg
2414.066	0.819	1	repeat	Run3	repeat/STIM_004.jpg
2417.871	0.654	1	repeat	Run3	repeat/STIM_004.jpg
2421.8	0.838	1	repeat	Run3	repeat/STIM_004.jpg
2425.629	0.731	1	repeat	Run3	repeat/STIM_005.jpg
2428.44	0.517	1	repeat	Run3	repeat/STIM_005.jpg
2432.786	0.738	1	repeat	Run3	repeat/STIM_005.jpg
2436.674	0.934	1	repeat	Run3	repeat/STIM_005.jpg
2440.533	0.539	1	repeat	Run3	repeat/STIM_005.jpg
2443.861	0.51	1	repeat	Run3	repeat/STIM_006.jpg
2446.45	0.615	1	repeat	Run3	repeat/STIM_006.jpg
2449.157	0.803	1	repeat	Run3	repeat/STIM_006.jpg
2453.37	0.778	1	repeat	Run3	repeat/STIM_006.jpg
2456.701	0.923	1	repeat	Run3	repeat/STIM_006.jpg
2459.967	0.533	1	repeat	Run3	repeat/STIM_007.jpg
2464.48	0.683	1	repeat	Run3	repeat/STIM_007.jpg
2469.172	0.639	1	repeat	Run3	repeat/STIM_007.jpg
2473.622	0.682	1	repeat	Run3	repeat/STIM_007.jpg
2478.237	0.861	1	repeat	Run3	repeat/STIM_007.jpg
2482.83	0.837	1	repeat	Run3	repeat/STIM_008.jpg
2487.458	0.696	1	repeat	Run3	repeat/STIM_008.jpg
2490.435	0.852	1	repeat	Run3	repeat/STIM_008.jpg
2494.245	0.762	1	repeat	Run3	repeat/STIM_008.jpg
2497.836	0.786	1	repeat	Run3	repeat/STIM_008.jpg
2501.993	0.763	1	repeat	Run3	repeat/STIM_009.jpg
2505.46	0.857	1	repeat	Run3	repeat/STIM_009.jpg
2509.252	0.648	1	repeat	Run3	repeat/STIM_009.jpg
2511.984	0.57	1	repeat	Run3	repeat/STIM_009.jpg
2515.918	0.605	1	repeat	Run3	repeat/STIM_009.jpg
2519.259	0.669	1	repeat	Run3	repeat/STIM_010.jpg
2523.103	0.877	1	repeat	Run3	repeat/STIM_010.jpg
2526.864	0.695	1	repeat	Run3	repeat/STIM_010.jpg
2530.871	0.814	1	repeat	Run3	repeat/STIM_010.jpg
2533.924	0.78	1	repeat	Run3	repeat/STIM_010.jpg
2537.441	0.9	1	repeat	Run3	repeat/STIM_011.jpg
2542.033	0.549	1	repeat	Run3	repeat/STIM_011.jpg
2546.047	0.796	1	repeat	Run3	repeat/STIM_011.jpg
2549.592	0.861	1	repeat	Run3	repeat/STIM_011.jpg
2554.339	0.547	1	repeat	Run3	repeat/STIM_011.jpg
2557.169	0.885	1	repeat	Run3	repeat/STIM_012.jpg
2560.903	0.664	1	repeat	Run3	repeat/STIM_012.jpg
2565.03	0.866	1	repeat	Run3	repeat/STIM_012.jpg
2568.105	0.877	1	repeat	Run3	repeat/STIM_012.jpg
2572.348	0.587	1	repeat	Run3	repeat/STIM_012.jpg
2576.617	0.546	1	repeat	Run3	repeat/STIM_013.jpg
2580.744	0.718	0	repeat	Run3	repeat/STIM_013.jpg
2583.591	0.706	1	repeat	Run3	repeat/STIM_013.jpg
2587.79	0.706	1	repeat	Run3	repeat/STIM_013.jpg
2592.021	0.935	1	repeat	Run3	repeat/STIM_013.jpg
2595.585	0.892	1	repeat	Run3	repeat/STIM_014.jpg
2599.457	0.798	0	repeat	Run3	repeat/STIM_014.jpg
2603.464	0.863	1	repeat	Run3	repeat/STIM_014.jpg
2606.764	0.707	1	repeat	Run3	repeat/STIM_014.jpg
2609.52	0.771	1	repeat	Run3	repeat/STIM_014.jpg
2612.474	1.533	1	generate	Run4	generate/STIM_000.jpg
2617.92	1.746	0	generate	Run4	generate/STIM_000.jpg
2623.229	0.809	1	generate	Run4	generate/STIM_000.jpg
2627.001	1.314	1	generate	Run4	generate/STIM_000.jpg
2632.322	1.596	1	generate	Run4	generate/STIM_000.jpg
2637.714	1.403	1	generate	Run4	generate/STIM_001.jpg
2642.222	1.368	1	generate	Run4	generate/STIM_001.jpg
2647.287	1.754	0	generate	Run4	generate/STIM_001.jpg
2652.14	1.56	1	generate	Run4	generate/STIM_001.jpg
2656.57	0.915	1	generate	Run4	generate/STIM_001.jpg
2659.991	1.386	1	generate	Run4	generate/STIM_002.jpg
2664.195	1.488	1	generate	Run4	generate/STIM_002.jpg
2669.384	1.153	1	generate	Run4	generate/STIM_002.jpg
2672.991	1.774	1	generate	Run4	generate/STIM_002.jpg
2677.678	1.876	1	generate	Run4	generate/STIM_002.jpg
2683.064	1.881	1	generate	Run4	generate/STIM_003.jpg
2688.838	1.319	1	generate	Run4	generate/STIM_003.jpg
2692.255	1.052	1	generate	Run4	generate/STIM_003.jpg
2696.084	1.631	1	generate	Run4	generate/STIM_003.jpg
2700.149	1.386	1	generate	Run4	generate/STIM_003.jpg
2703.859	1.214	1	generate	Run4	generate/STIM_004.jpg
2708.82	0.884	1	generate	Run4	generate/STIM_004.jpg
2712.88	0.918	1	generate	Run4	generate/STIM_004.jpg
2717.266	1.036	1	generate	Run4	generate/STIM_004.jpg
2720.918	1.64	1	generate	Run4	generate/STIM_004.jpg
2725.07	0.798	1	generate	Run4	generate/STIM_005.jpg
2728.273	1.694	1	generate	Run4	generate/STIM_005.jpg
2732.877	1.063	1	generate	Run4	generate/STIM_005.jpg
2737.66	1.537	1	generate	Run4	generate/STIM_005.jpg
2742.401	1.342	1	generate	Run4	generate/STIM_005.jpg
2746.14	1.927	1	generate	Run4	generate/STIM_006.jpg
2751.635	1.229	1	generate	Run4	generate/STIM_006.jpg
2755.381	1.835	1	generate	Run4	generate/STIM_006.jpg
2760.875	1.603	1	generate	Run4	generate/STIM_006.jpg
2766.109	0.836	1	generate	Run4	generate/STIM_006.jpg
2770.668	1.861	1	generate	Run4	generate/STIM_007.jpg
2776.411	1.823	1	generate	Run4	generate/STIM_007.jpg
2781.363	1.822	1	generate	Run4	generate/STIM_007.jpg
2785.886	1.624	1	generate	Run4	generate/STIM_007.jpg
2790.717	0.937	1	generate	Run4	generate/STIM_007.jpg
2794.602	1.637	1	generate	Run4	generate/STIM_008.jpg
2798.443	1.126	1	generate	Run4	generate/STIM_008.jpg
2803.021	1.159	1	generate	Run4	generate/STIM_008.jpg
2806.365	1.313	1	generate	Run4	generate/STIM_008.jpg
2810.404	1.036	1	generate	Run4	generate/STIM_008.jpg
2814.752	1.952	1	generate	Run4	generate/STIM_009.jpg
2820.82	1.353	1	generate	Run4	generate/STIM_009.jpg
2824.263	1.512	1	generate	Run4	generate/STIM_009.jpg
2828.652	0.885	1	generate	Run4	generate/STIM_009.jpg
2832.618	1.115	1	generate	Run4	generate/STIM_009.jpg
2837.092	1.697	1	generate	Run4	generate/STIM_010.jpg
2841.264	1.866	1	generate	Run4	generate/STIM_010.jpg
2845.313	1.664	1	generate	Run4	generate/STIM_010.jpg
2850.109	0.811	1	generate	Run4	generate/STIM_010.jpg
2853.39	0.821	1	generate	Run4	generate/STIM_010.jpg
2857.992	1.193	1	generate	Run4	generate/STIM_011.jpg
2861.723	1.258	1	generate	Run4	generate/STIM_011.jpg
2865.795	1.818	1	generate	Run4	generate/STIM_011.jpg
2870.043	0.866	1	generate	Run4	generate/STIM_011.jpg
2874.866	1.383	1	generate	Run4	generate/STIM_011.jpg
2880.138	0.834	1	generate	Run4	generate/STIM_012.jpg
2883.212	1.13	1	generate	Run4	generate/STIM_012.jpg
2888.392	0.923	1	generate	Run4	generate/STIM_012.jpg
2893.282	1.342	1	generate	Run4	generate/STIM_012.jpg
2897.403	0.966	1	generate	Run4	generate/STIM_012.jpg
2902.21	1.832	1	generate	Run4	generate/STIM_013.jpg
2906.864	1.883	1	generate	Run4	generate/STIM_013.jpg
2911.58	0.909	1	generate	Run4	generate/STIM_013.jpg
2915.627	1.534	1	generate	Run4	generate/STIM_013.jpg
2920.126	1.505	1	generate	Run4	generate/STIM_013.jpg
2924.081	1.24	1	generate	Run4	generate/STIM_014.jpg
2929.233	1.286	1	generate	Run4	generate/STIM_014.jpg
2933.378	1.332	1	generate	Run4	generate/STIM_014.jpg
2938.321	1.075	1	generate	Run4	generate/STIM_014.jpg
2941.682	1.522	1	generate	Run4	generate/STIM_014.jpg
2946.866	1.012	1	generate	Run4	generate/STIM_015.jpg
2950.773	1.106	1	generate	Run4	generate/STIM_015.jpg
2955.308	1.321	1	generate	Run4	generate/STIM_015.jpg
2958.99	1.185	1	generate	Run4	generate/STIM_015.jpg
2963.648	1.282	1	generate	Run4	generate/STIM_015.jpg
2968.674	0.859	1	generate	Run4	generate/STIM_016.jpg
2972.027	0.872	1	generate	Run4	generate/STIM_016.jpg
2976.019	1.024	1	generate	Run4	generate/STIM_016.jpg
2980.705	1.837	1	generate	Run4	generate/STIM_016.jpg
2984.922	1.668	1	generate	Run4	generate/STIM_016.jpg
2989.248	1.717	1	generate	Run4	generate/STIM_017.jpg
2993.368	1.063	1	generate	Run4	generate/STIM_017.jpg
2997.154	1.526	1	generate	Run4	generate/STIM_017.jpg
3001.067	1.767	0	generate	Run4	generate/STIM_017.jpg
3006.564	1.786	1	generate	Run4	generate/STIM_017.jpg
3010.614	1.92	1	generate	Run4	generate/STIM_018.jpg
3015.417	1.021	1	generate	Run4	generate/STIM_018.jpg
3019.687	1.118	1	generate	Run4	generate/STIM_018.jpg
3024.151	1.167	1	generate	Run4	generate/STIM_018.jpg
3029.019	0.98	1	generate	Run4	generate/STIM_018.jpg
3032.871	1.145	1	generate	Run4	generate/STIM_019.jpg
3036.355	1.931	1	generate	Run4	generate/STIM_019.jpg
3040.748	1.849	0	generate	Run4	generate/STIM_019.jpg
3045.684	1.335	1	generate	Run4	generate/STIM_019.jpg
3049.385	1.38	1	generate	Run4	generate/STIM_019.jpg
3054.827	0.909	1	generate	Run4	generate/STIM_020.jpg
3058.05	1.937	1	generate	Run4	generate/STIM_020.jpg
3063.878	0.876	1	generate	Run4	generate/STIM_020.jpg
3067.743	1.865	1	generate	Run4	generate/STIM_020.jpg
3073.242	0.979	1	generate	Run4	generate/STIM_020.jpg
3078.213	1.782	1	generate	Run4	generate/STIM_021.jpg
3082.662	1.064	0	generate	Run4	generate/STIM_021.jpg
3087.201	1.296	1	generate	Run4	generate/STIM_021.jpg
3091.28	1.335	1	generate	Run4	generate/STIM_021.jpg
3095.414	0.86	1	generate	Run4	generate/STIM_021.jpg
3099.216	0.805	1	generate	Run4	generate/STIM_022.jpg
3102.25	1.442	1	generate	Run4	generate/STIM_022.jpg
3106.891	1.963	1	generate	Run4	generate/STIM_022.jpg
3112.42	0.957	1	generate	Run4	generate/STIM_022.jpg
3115.697	1.528	1	generate	Run4	generate/STIM_022.jpg
3120.205	1.401	0	generate	Run4	generate/STIM_023.jpg
3124.372	1.418	1	generate	Run4	generate/STIM_023.jpg
3128.456	0.852	1	generate	Run4	generate/STIM_023.jpg
3133.127	1.403	1	generate	Run4	generate/STIM_023.jpg
3137.973	1.29	1	generate	Run4	generate/STIM_023.jpg
3141.662	1.063	1	generate	Run4	generate/STIM_024.jpg
3146.346	1.878	1	generate	Run4	generate/STIM_024.jpg
3151.149	1.63	1	generate	Run4	generate/STIM_024.jpg
3156.316	1.634	1	generate	Run4	generate/STIM_024.jpg
3161.03	0.992	1	generate	Run4	generate/STIM_024.jpg
3165.174	0.891	1	repeat	Run4	repeat/STIM_000.jpg
3169.689	0.926	1	repeat	Run4	repeat/STIM_000.jpg
3173.027	0.7	1	repeat	Run4	repeat/STIM_000.jpg
3175.901	0.77	1	repeat	Run4	repeat/STIM_000.jpg
3179.74	0.554	0	repeat	Run4	repeat/STIM_000.jpg
3183.672	0.486	1	repeat	Run4	repeat/STIM_001.jpg
3187.265	0.871	1	repeat	Run4	repeat/STIM_001.jpg
3191.144	0.688	1	repeat	Run4	repeat/STIM_001.jpg
3194.978	0.803	1	repeat	Run4	repeat/STIM_001.jpg
3199.366	0.926	1	repeat	Run4	repeat/STIM_001.jpg
3203.024	0.855	1	repeat	Run4	repeat/STIM_002.jpg
3206.919	0.655	1	repeat	Run4	repeat/STIM_002.jpg
3210.267	0.688	1	repeat	Run4	repeat/STIM_002.jpg
3214.313	0.841	1	repeat	Run4	repeat/STIM_002.jpg
3218.698	0.532	1	repeat	Run4	repeat/STIM_002.jpg
3221.822	0.568	1	repeat	Run4	repeat/STIM_003.jpg
3225.485	0.522	1	repeat	Run4	repeat/STIM_003.jpg
3229.604	0.518	1	repeat	Run4	repeat/STIM_003.jpg
3233.229	0.821	0	repeat	Run4	repeat/STIM_003.jpg
3236.595	0.874	1	repeat	Run4	repeat/STIM_003.jpg
3240.37	0.842	1	repeat	Run4	repeat/STIM_004.jpg
3244.777	0.914	1	repeat	Run4	repeat/STIM_004.jpg
3249.496	0.525	1	repeat	Run4	repeat/STIM_004.jpg
3252.988	0.69	1	repeat	Run4	repeat/STIM_004.jpg
3255.835	0.609	1	repeat	Run4	repeat/STIM_004.jpg
3258.976	0.793	1	repeat	Run4	repeat/STIM_005.jpg
3262.124	0.67	0	repeat	Run4	repeat/STIM_005.jpg
3265.651	0.798	0	repeat	Run4	repeat/STIM_005.jpg
3268.857	0.705	1	repeat	Run4	repeat/STIM_005.jpg
3273.231	0.869	1	repeat	Run4	repeat/STIM_005.jpg
3278.034	0.521	1	repeat	Run4	repeat/STIM_006.jpg
3281.396	0.695	1	repeat	Run4	repeat/STIM_006.jpg
3284.318	0.923	1	repeat	Run4	repeat/STIM_006.jpg
3287.913	0.885	1	repeat	Run4	repeat/STIM_006.jpg
3291.484	0.888	1	repeat	Run4	repeat/STIM_006.jpg
3294.931	0.644	1	repeat	Run4	repeat/STIM_007.jpg
3299.581	0.802	1	repeat	Run4	repeat/STIM_007.jpg
3303.993	0.942	1	repeat	Run4	repeat/STIM_007.jpg
3308.644	0.903	1	repeat	Run4	repeat/STIM_007.jpg
3313.481	0.601	1	repeat	Run4	repeat/STIM_007.jpg
3317.673	0.734	1	repeat	Run4	repeat/STIM_008.jpg
3322.099	0.523	1	repeat	Run4	repeat/STIM_008.jpg
3326.004	0.656	1	repeat	Run4	repeat/STIM_008.jpg
3329.913	0.923	1	repeat	Run4	repeat/STIM_008.jpg
3334.642	0.742	1	repeat	Run4	repeat/STIM_008.jpg
3338.168	0.511	1	repeat	Run4	repeat/STIM_009.jpg
3342.231	0.721	1	repeat	Run4	repeat/STIM_009.jpg
3346.411	0.519	1	repeat	Run4	repeat/STIM_009.jpg
3349.4	0.928	1	repeat	Run4	repeat/STIM_009.jpg
3352.673	0.815	1	repeat	Run4	repeat/STIM_009.jpg
3356.843	0.667	1	repeat	Run4	repeat/STIM_010.jpg
3360.006	0.756	1	repeat	Run4	repeat/STIM_010.jpg
3363.45	0.694	1	repeat	Run4	repeat/STIM_010.jpg
3367.846	0.859	1	repeat	Run4	repeat/STIM_010.jpg
3371.157	0.616	1	repeat	Run4	repeat/STIM_010.jpg
3373.866	0.534	1	repeat	Run4	repeat/STIM_011.jpg
3376.666	0.745	1	repeat	Run4	repeat/STIM_011.jpg
3380.265	0.518	0	repeat	Run4	repeat/STIM_011.jpg
3383.31	0.842	1	repeat	Run4	repeat/STIM_011.jpg
3388.183	0.843	1	repeat	Run4	repeat/STIM_011.jpg
3393.061	0.671	1	repeat	Run4	repeat/STIM_012.jpg
3397.717	0.596	1	repeat	Run4	repeat/STIM_012.jpg
3400.583	0.918	1	repeat	Run4	repeat/STIM_012.jpg
3405.116	0.597	1	repeat	Run4	repeat/STIM_012.jpg
3408.915	0.605	1	repeat	Run4	repeat/STIM_012.jpg
3412.902	0.911	1	repeat	Run4	repeat/STIM_013.jpg
3416.428	0.809	1	repeat	Run4	repeat/STIM_013.jpg
3420.899	0.81	1	repeat	Run4	repeat/STIM_013.jpg
3424.756	0.939	1	repeat	Run4	repeat/STIM_013.jpg
3428.53	0.736	1	repeat	Run4	repeat/STIM_013.jpg
3432.456	0.665	1	repeat	Run4	repeat/STIM_014.jpg
3436.275	0.821	1	repeat	Run4	repeat/STIM_014.jpg
3439.758	0.612	1	repeat	Run4	repeat/STIM_014.jpg
3442.952	0.86	1	repeat	Run4	repeat/STIM_014.jpg
3446.284	0.84	1	repeat	Run4	repeat/STIM_014.jpg
