onset	duration	accuracy_binary	trial_type	learning_stage	stimulus
0.0	1.331	1	generate	Run1	generate/STIM_000.jpg
4.556	2.006	1	generate	Run1	generate/STIM_000.jpg
9.718	1.076	1	generate	Run1	generate/STIM_000.jpg
13.84	1.06	1	generate	Run1	generate/STIM_000.jpg
18.853	1.639	1	generate	Run1	generate/STIM_000.jpg
23.908	1.536	1	generate	Run1	generate/STIM_001.jpg
29.214	2.344	0	generate	Run1	generate/STIM_001.jpg
34.884	1.39	1	generate	Run1	generate/STIM_001.jpg
38.741	1.167	1	generate	Run1	generate/STIM_001.jpg
43.509	0.833	1	generate	Run1	generate/STIM_001.jpg
47.501	2.058	0	generate	Run1	generate/STIM_002.jpg
51.657	1.341	1	generate	Run1	generate/STIM_002.jpg
55.688	2.121	0	generate	Run1	generate/STIM_002.jpg
59.913	2.018	1	generate	Run1	generate/STIM_002.jpg
64.964	1.277	0	generate	Run1	generate/STIM_002.jpg
69.529	1.495	0	generate	Run1	generate/STIM_003.jpg
74.561	2.097	1	generate	Run1	generate/STIM_003.jpg
79.494	2.115	1	generate	Run1	generate/STIM_003.jpg
84.437	1.799	1	generate	Run1	generate/STIM_003.jpg
89.72	1.901	1	generate	Run1	generate/STIM_003.jpg
94.278	2.429	1	generate	Run1	generate/STIM_004.jpg
99.353	1.667	1	generate	Run1	generate/STIM_004.jpg
103.551	1.324	1	generate	Run1	generate/STIM_004.jpg
107.342	1.233	1	generate	Run1	generate/STIM_004.jpg
111.197	1.588	1	generate	Run1	generate/STIM_004.jpg
115.123	1.27	0	generate	Run1	generate/STIM_005.jpg
118.951	2.05	1	generate	Run1	generate/STIM_005.jpg
123.59	2.218	1	generate	Run1	generate/STIM_005.jpg
128.013	1.836	1	generate	Run1	generate/STIM_005.jpg
132.963	1.281	1	generate	Run1	generate/STIM_005.jpg
137.922	2.4	1	generate	Run1	generate/STIM_006.jpg
142.746	1.238	1	generate	Run1	generate/STIM_006.jpg
146.707	0.926	1	generate	Run1	generate/STIM_006.jpg
151.421	1.064	1	generate	Run1	generate/STIM_006.jpg
155.886	1.684	0	generate	Run1	generate/STIM_006.jpg
160.787	2.004	0	generate	Run1	generate/STIM_007.jpg
165.31	1.032	1	generate	Run1	generate/STIM_007.jpg
170.137	1.445	1	generate	Run1	generate/STIM_007.jpg
175.358	1.369	1	generate	Run1	generate/STIM_007.jpg
180.267	0.953	1	generate	Run1	generate/STIM_007.jpg
185.056	1.331	1	generate	Run1	generate/STIM_008.jpg
188.927	2.342	0	generate	Run1	generate/STIM_008.jpg
193.442	1.9	1	generate	Run1	generate/STIM_008.jpg
198.218	1.526	0	generate	Run1	generate/STIM_008.jpg
203.678	1.397	1	generate	Run1	generate/STIM_008.jpg
208.384	1.326	1	generate	Run1	generate/STIM_009.jpg
213.546	1.466	0	generate	Run1	generate/STIM_009.jpg
217.041	1.2	0	generate	Run1	generate/STIM_009.jpg
221.666	0.879	0	generate	Run1	generate/STIM_009.jpg
226.128	1.085	0	generate	Run1	generate/STIM_009.jpg
231.169	1.473	0	generate	Run1	generate/STIM_010.jpg
235.258	1.333	0	generate	Run1	generate/STIM_010.jpg
239.197	1.894	1	generate	Run1	generate/STIM_010.jpg
244.324	1.604	0	generate	Run1	generate/STIM_010.jpg
249.265	1.775	1	generate	Run1	generate/STIM_010.jpg
253.528	2.093	1	generate	Run1	generate/STIM_011.jpg
259.082	1.104	0	generate	Run1	generate/STIM_011.jpg
262.963	1.857	1	generate	Run1	generate/STIM_011.jpg
268.684	1.731	1	generate	Run1	generate/STIM_011.jpg
272.534	0.877	1	generate	Run1	generate/STIM_011.jpg
277.145	1.751	1	generate	Run1	generate/STIM_012.jpg
282.616	2.417	1	generate	Run1	generate/STIM_012.jpg
288.409	1.87	1	generate	Run1	generate/STIM_012.jpg
292.817	2.126	0	generate	Run1	generate/STIM_012.jpg
298.321	1.63	0	generate	Run1	generate/STIM_012.jpg
302.348	1.554	1	generate	Run1	generate/STIM_013.jpg
307.526	1.805	0	generate	Run1	generate/STIM_013.jpg
312.44	1.48	0	generate	Run1	generate/STIM_013.jpg
316.126	1.728	0	generate	Run1	generate/STIM_013.jpg
320.42	1.869	0	generate	Run1	generate/STIM_013.jpg
324.877	1.998	1	generate	Run1	generate/STIM_014.jpg
329.627	1.119	0	generate	Run1	generate/STIM_014.jpg
334.221	1.019	1	generate	Run1	generate/STIM_014.jpg
338.802	1.337	0	generate	Run1	generate/STIM_014.jpg
342.369	1.069	1	generate	Run1	generate/STIM_014.jpg
345.562	1.672	0	generate	Run1	generate/STIM_015.jpg
351.057	1.318	1	generate	Run1	generate/STIM_015.jpg
355.571	0.996	0	generate	Run1	generate/STIM_015.jpg
358.716	1.872	1	generate	Run1	generate/STIM_015.jpg
364.335	1.088	1	generate	Run1	generate/STIM_015.jpg
368.211	2.207	1	generate	Run1	generate/STIM_016.jpg
372.84	1.794	1	generate	Run1	generate/STIM_016.jpg
377.331	2.239	1	generate	Run1	generate/STIM_016.jpg
382.053	1.268	1	generate	Run1	generate/STIM_016.jpg
386.864	1.402	0	generate	Run1	generate/STIM_016.jpg
391.755	1.261	0	generate	Run1	generate/STIM_017.jpg
395.141	1.77	0	generate	Run1	generate/STIM_017.jpg
399.055	0.931	0	generate	Run1	generate/STIM_017.jpg
403.681	1.864	1	generate	Run1	generate/STIM_017.jpg
408.22	1.544	0	generate	Run1	generate/STIM_017.jpg
412.88	1.928	0	generate	Run1	generate/STIM_018.jpg
417.966	1.027	1	generate	Run1	generate/STIM_018.jpg
421.008	1.682	1	generate	Run1	generate/STIM_018.jpg
426.633	0.99	1	generate	Run1	generate/STIM_018.jpg
430.375	1.251	1	generate	Run1	generate/STIM_018.jpg
435.29	2.175	0	generate	Run1	generate/STIM_019.jpg
439.731	1.38	0	generate	Run1	generate/STIM_019.jpg
444.022	1.544	0	generate	Run1	generate/STIM_019.jpg
449.024	1.227	0	generate	Run1	generate/STIM_019.jpg
452.303	1.101	0	generate	Run1	generate/STIM_019.jpg
456.233	2.397	1	generate	Run1	generate/STIM_020.jpg
461.421	1.242	0	generate	Run1	generate/STIM_020.jpg
466.056	2.28	0	generate	Run1	generate/STIM_020.jpg
472.01	2.053	1	generate	Run1	generate/STIM_020.jpg
477.505	2.04	1	generate	Run1	generate/STIM_020.jpg
481.618	1.371	0	generate	Run1	generate/STIM_021.jpg
486.341	1.342	1	generate	Run1	generate/STIM_021.jpg
491.493	2.039	1	generate	Run1	generate/STIM_021.jpg
495.999	1.376	0	generate	Run1	generate/STIM_021.jpg
500.731	1.771	1	generate	Run1	generate/STIM_021.jpg
505.956	2.05	1	generate	Run1	generate/STIM_022.jpg
511.201	1.414	1	generate	Run1	generate/STIM_022.jpg
515.849	1.577	1	generate	Run1	generate/STIM_022.jpg
519.488	0.983	1	generate	Run1	generate/STIM_022.jpg
524.117	1.342	0	generate	Run1	generate/STIM_022.jpg
529.35	1.711	0	generate	Run1	generate/STIM_023.jpg
533.103	1.446	0	generate	Run1	generate/STIM_023.jpg
536.886	2.053	1	generate	Run1	generate/STIM_023.jpg
541.571	1.968	0	generate	Run1	generate/STIM_023.jpg
546.121	1.314	1	generate	Run1	generate/STIM_023.jpg
550.747	2.046	1	generate	Run1	generate/STIM_024.jpg
555.691	1.689	1	generate	Run1	generate/STIM_024.jpg
559.785	2.148	0	generate	Run1	generate/STIM_024.jpg
564.075	1.534	1	generate	Run1	generate/STIM_024.jpg
569.099	1.305	0	generate	Run1	generate/STIM_024.jpg
572.823	0.694	1	repeat	Run1	repeat/STIM_000.jpg
576.247	0.694	1	repeat	Run1	repeat/STIM_000.jpg
579.345	0.67	1	repeat	Run1	repeat/STIM_000.jpg
583.396	0.553	1	repeat	Run1	repeat/STIM_000.jpg
586.389	0.771	1	repeat	Run1	repeat/STIM_000.jpg
589.416	0.807	0	repeat	Run1	repeat/STIM_001.jpg
593.142	0.481	0	repeat	Run1	repeat/STIM_001.jpg
597.482	0.58	1	repeat	Run1	repeat/STIM_001.jpg
601.061	0.708	1	repeat	Run1	repeat/STIM_001.jpg
604.753	0.562	1	repeat	Run1	repeat/STIM_001.jpg
608.599	0.675	1	repeat	Run1	repeat/STIM_002.jpg
611.314	0.76	1	repeat	Run1	repeat/STIM_002.jpg
616.07	0.763	0	repeat	Run1	repeat/STIM_002.jpg
620.526	0.513	0	repeat	Run1	repeat/STIM_002.jpg
623.589	0.79	1	repeat	Run1	repeat/STIM_002.jpg
626.383	0.748	0	repeat	Run1	repeat/STIM_003.jpg
630.764	0.638	1	repeat	Run1	repeat/STIM_003.jpg
634.736	0.656	0	repeat	Run1	repeat/STIM_003.jpg
638.04	0.458	1	repeat	Run1	repeat/STIM_003.jpg
641.736	0.736	0	repeat	Run1	repeat/STIM_003.jpg
644.552	0.764	1	repeat	Run1	repeat/STIM_004.jpg
647.557	0.55	0	repeat	Run1	repeat/STIM_004.jpg
651.735	0.505	1	repeat	Run1	repeat/STIM_004.jpg
655.602	0.675	1	repeat	Run1	repeat/STIM_004.jpg
659.014	0.459	1	repeat	Run1	repeat/STIM_004.jpg
662.657	0.652	0	repeat	Run1	repeat/STIM_005.jpg
666.211	0.806	1	repeat	Run1	repeat/STIM_005.jpg
670.287	0.802	1	repeat	Run1	repeat/STIM_005.jpg
674.271	0.436	1	repeat	Run1	repeat/STIM_005.jpg
678.097	0.828	0	repeat	Run1	repeat/STIM_005.jpg
681.742	0.635	0	repeat	Run1	repeat/STIM_006.jpg
686.289	0.509	0	repeat	Run1	repeat/STIM_006.jpg
690.718	0.749	1	repeat	Run1	repeat/STIM_006.jpg
695.279	0.468	1	repeat	Run1	repeat/STIM_006.jpg
698.362	0.726	1	repeat	Run1	repeat/STIM_006.jpg
701.644	0.504	1	repeat	Run1	repeat/STIM_007.jpg
705.853	0.843	0	repeat	Run1	repeat/STIM_007.jpg
709.058	0.822	0	repeat	Run1	repeat/STIM_007.jpg
712.301	0.762	0	repeat	Run1	repeat/STIM_007.jpg
715.644	0.775	1	repeat	Run1	repeat/STIM_007.jpg
719.817	0.482	0	repeat	Run1	repeat/STIM_008.jpg
722.511	0.696	1	repeat	Run1	repeat/STIM_008.jpg
726.474	0.508	1	repeat	Run1	repeat/STIM_008.jpg
729.837	0.824	1	repeat	Run1	repeat/STIM_008.jpg
732.813	0.462	1	repeat	Run1	repeat/STIM_008.jpg
736.088	0.532	1	repeat	Run1	repeat/STIM_009.jpg
738.933	0.647	0	repeat	Run1	repeat/STIM_009.jpg
742.038	0.551	1	repeat	Run1	repeat/STIM_009.jpg
745.657	0.524	1	repeat	Run1	repeat/STIM_009.jpg
748.589	0.605	1	repeat	Run1	repeat/STIM_009.jpg
752.385	0.742	1	repeat	Run1	repeat/STIM_010.jpg
756.624	0.609	1	repeat	Run1	repeat/STIM_010.jpg
760.051	0.623	1	repeat	Run1	repeat/STIM_010.jpg
763.181	0.839	1	repeat	Run1	repeat/STIM_010.jpg
767.927	0.777	1	repeat	Run1	repeat/STIM_010.jpg
771.461	0.63	1	repeat	Run1	repeat/STIM_011.jpg
774.814	0.659	1	repeat	Run1	repeat/STIM_011.jpg
777.762	0.763	1	repeat	Run1	repeat/STIM_011.jpg
780.729	0.782	1	repeat	Run1	repeat/STIM_011.jpg
784.239	0.816	1	repeat	Run1	repeat/STIM_011.jpg
788.958	0.488	0	repeat	Run1	repeat/STIM_012.jpg
791.934	0.604	1	repeat	Run1	repeat/STIM_012.jpg
795.889	0.663	1	repeat	Run1	repeat/STIM_012.jpg
799.206	0.838	1	repeat	Run1	repeat/STIM_012.jpg
803.425	0.496	1	repeat	Run1	repeat/STIM_012.jpg
807.758	0.733	1	repeat	Run1	repeat/STIM_013.jpg
810.529	0.692	1	repeat	Run1	repeat/STIM_013.jpg
813.798	0.748	1	repeat	Run1	repeat/STIM_013.jpg
817.6	0.783	1	repeat	Run1	repeat/STIM_013.jpg
820.607	0.797	1	repeat	Run1	repeat/STIM_013.jpg
825.28	0.48	1	repeat	Run1	repeat/STIM_014.jpg
828.535	0.722	1	repeat	Run1	repeat/STIM_014.jpg
831.73	0.801	1	repeat	Run1	repeat/STIM_014.jpg
835.262	0.708	0	repeat	Run1	repeat/STIM_014.jpg
838.21	0.43	1	repeat	Run1	repeat/STIM_014.jpg
842.364	1.39	0	generate	Run2	generate/STIM_000.jpg
846.567	1.929	1	generate	Run2	generate/STIM_000.jpg
851.353	1.16	1	generate	Run2	generate/STIM_000.jpg
855.052	0.726	1	generate	Run2	generate/STIM_000.jpg
859.261	1.599	0	generate	Run2	generate/STIM_000.jpg
863.014	1.188	1	generate	Run2	generate/STIM_001.jpg
867.984	0.875	1	generate	Run2	generate/STIM_001.jpg
872.53	0.909	0	generate	Run2	generate/STIM_001.jpg
875.88	0.796	1	generate	Run2	generate/STIM_001.jpg
880.424	1.236	1	generate	Run2	generate/STIM_001.jpg
884.04	1.939	0	generate	Run2	generate/STIM_002.jpg
888.366	1.894	0	generate	Run2	generate/STIM_002.jpg
892.893	1.655	1	generate	Run2	generate/STIM_002.jpg
898.129	1.357	1	generate	Run2	generate/STIM_002.jpg
902.942	1.525	1	generate	Run2	generate/STIM_002.jpg
908.401	0.962	0	generate	Run2	generate/STIM_003.jpg
913.274	0.883	0	generate	Run2	generate/STIM_003.jpg
917.582	1.316	1	generate	Run2	generate/STIM_003.jpg
921.045	1.604	1	generate	Run2	generate/STIM_003.jpg
926.105	0.743	1	generate	Run2	generate/STIM_003.jpg
930.387	1.932	0	generate	Run2	generate/STIM_004.jpg
934.552	0.867	1	generate	Run2	generate/STIM_004.jpg
938.679	0.772	1	generate	Run2	generate/STIM_004.jpg
941.878	1.148	1	generate	Run2	generate/STIM_004.jpg
945.417	1.186	0	generate	Run2	generate/STIM_004.jpg
948.624	1.925	1	generate	Run2	generate/STIM_005.jpg
953.552	2.027	1	generate	Run2	generate/STIM_005.jpg
957.964	1.604	0	generate	Run2	generate/STIM_005.jpg
963.566	0.765	1	generate	Run2	generate/STIM_005.jpg
966.514	1.137	0	generate	Run2	generate/STIM_005.jpg
971.403	1.466	1	generate	Run2	generate/STIM_006.jpg
975.938	1.688	1	generate	Run2	generate/STIM_006.jpg
979.902	1.701	1	generate	Run2	generate/STIM_006.jpg
984.822	0.855	0	generate	Run2	generate/STIM_006.jpg
989.593	0.857	1	generate	Run2	generate/STIM_006.jpg
993.624	2.008	0	generate	Run2	generate/STIM_007.jpg
999.59	1.75	0	generate	Run2	generate/STIM_007.jpg
1005.005	1.441	0	generate	Run2	generate/STIM_007.jpg
1008.487	1.56	0	generate	Run2	generate/STIM_007.jpg
1012.253	1.719	1	generate	Run2	generate/STIM_007.jpg
1016.442	1.982	0	generate	Run2	generate/STIM_008.jpg
1020.571	0.984	0	generate	Run2	generate/STIM_008.jpg
1024.989	1.129	0	generate	Run2	generate/STIM_008.jpg
1029.876	1.585	1	generate	Run2	generate/STIM_008.jpg
1034.676	1.504	1	generate	Run2	generate/STIM_008.jpg
1039.069	2.014	1	generate	Run2	generate/STIM_009.jpg
1043.282	1.481	1	generate	Run2	generate/STIM_009.jpg
1047.277	0.832	1	generate	Run2	generate/STIM_009.jpg
1051.4	1.399	1	generate	Run2	generate/STIM_009.jpg
1055.964	1.125	1	generate	Run2	generate/STIM_009.jpg
1060.122	1.059	1	generate	Run2	generate/STIM_010.jpg
1064.097	0.882	0	generate	Run2	generate/STIM_010.jpg
1068.488	1.526	0	generate	Run2	generate/STIM_010.jpg
1072.171	1.584	1	generate	Run2	generate/STIM_010.jpg
1077.582	1.35	0	generate	Run2	generate/STIM_010.jpg
1082.82	2.002	1	generate	Run2	generate/STIM_011.jpg
1087.829	0.857	0	generate	Run2	generate/STIM_011.jpg
1090.937	1.433	1	generate	Run2	generate/STIM_011.jpg
1096.014	0.954	1	generate	Run2	generate/STIM_011.jpg
1099.324	0.876	0	generate	Run2	generate/STIM_011.jpg
1102.963	1.023	1	generate	Run2	generate/STIM_012.jpg
1107.318	1.863	0	generate	Run2	generate/STIM_012.jpg
1111.3	1.763	0	generate	Run2	generate/STIM_012.jpg
1116.367	1.458	1	generate	Run2	generate/STIM_012.jpg
1120.686	1.238	0	generate	Run2	generate/STIM_012.jpg
1125.309	1.383	1	generate	Run2	generate/STIM_013.jpg
1129.14	1.4	1	generate	Run2	generate/STIM_013.jpg
1133.582	0.857	1	generate	Run2	generate/STIM_013.jpg
1136.77	1.088	0	generate	Run2	generate/STIM_013.jpg
1141.659	1.406	1	generate	Run2	generate/STIM_013.jpg
1146.571	1.983	0	generate	Run2	generate/STIM_014.jpg
1151.852	1.339	0	generate	Run2	generate/STIM_014.jpg
1155.198	1.826	1	generate	Run2	generate/STIM_014.jpg
1159.751	1.598	0	generate	Run2	generate/STIM_014.jpg
1163.939	1.205	1	generate	Run2	generate/STIM_014.jpg
1167.401	1.079	0	generate	Run2	generate/STIM_015.jpg
1172.445	1.95	1	generate	Run2	generate/STIM_015.jpg
1177.456	1.378	0	generate	Run2	generate/STIM_015.jpg
1182.58	0.809	0	generate	Run2	generate/STIM_015.jpg
1186.347	1.608	0	generate	Run2	generate/STIM_015.jpg
1190.163	1.833	0	generate	Run2	generate/STIM_016.jpg
1195.92	1.832	1	generate	Run2	generate/STIM_016.jpg
1200.077	1.493	0	generate	Run2	generate/STIM_016.jpg
1205.268	1.376	0	generate	Run2	generate/STIM_016.jpg
1210.421	1.236	1	generate	Run2	generate/STIM_016.jpg
1215.561	1.557	1	generate	Run2	generate/STIM_017.jpg
1221.114	1.476	1	generate	Run2	generate/STIM_017.jpg
1225.709	1.372	1	generate	Run2	generate/STIM_017.jpg
1230.285	1.168	1	generate	Run2	generate/STIM_017.jpg
1234.971	1.277	0	generate	Run2	generate/STIM_017.jpg
1238.397	2.153	0	generate	Run2	generate/STIM_018.jpg
1243.89	1.62	1	generate	Run2	generate/STIM_018.jpg
1247.75	0.948	0	generate	Run2	generate/STIM_018.jpg
1252.006	1.346	1	generate	Run2	generate/STIM_018.jpg
1256.994	1.107	1	generate	Run2	generate/STIM_018.jpg
1260.378	1.09	1	generate	Run2	generate/STIM_019.jpg
1264.849	1.775	1	generate	Run2	generate/STIM_019.jpg
1270.428	0.964	0	generate	Run2	generate/STIM_019.jpg
1274.043	1.057	0	generate	Run2	generate/STIM_019.jpg
1277.487	1.147	1	generate	Run2	generate/STIM_019.jpg
1281.583	1.822	1	generate	Run2	generate/STIM_020.jpg
1286.966	1.382	0	generate	Run2	generate/STIM_020.jpg
1290.731	1.663	1	generate	Run2	generate/STIM_020.jpg
1295.017	1.7	1	generate	Run2	generate/STIM_020.jpg
1299.568	1.664	1	generate	Run2	generate/STIM_020.jpg
1304.346	1.684	1	generate	Run2	generate/STIM_021.jpg
1308.083	1.759	1	generate	Run2	generate/STIM_021.jpg
1312.436	1.36	1	generate	Run2	generate/STIM_021.jpg
1316.857	1.076	1	generate	Run2	generate/STIM_021.jpg
1321.773	1.521	1	generate	Run2	generate/STIM_021.jpg
1325.975	1.096	1	generate	Run2	generate/STIM_022.jpg
1329.609	1.102	0	generate	Run2	generate/STIM_022.jpg
1333.9	1.028	0	generate	Run2	generate/STIM_022.jpg
1338.656	0.883	1	generate	Run2	generate/STIM_022.jpg
1342.522	1.138	1	generate	Run2	generate/STIM_022.jpg
1347.426	1.245	1	generate	Run2	generate/STIM_023.jpg
1351.297	0.963	1	generate	Run2	generate/STIM_023.jpg
1354.671	1.62	0	generate	Run2	generate/STIM_023.jpg
1360.082	1.034	1	generate	Run2	generate/STIM_023.jpg
1364.534	1.264	1	generate	Run2	generate/STIM_023.jpg
1369.554	1.813	0	generate	Run2	generate/STIM_024.jpg
1373.629	1.018	1	generate	Run2	generate/STIM_024.jpg
1377.246	0.913	0	generate	Run2	generate/STIM_024.jpg
1381.763	1.162	0	generate	Run2	generate/STIM_024.jpg
1386.387	1.451	0	generate	Run2	generate/STIM_024.jpg
1390.381	0.48	1	repeat	Run2	repeat/STIM_000.jpg
1394.215	0.812	0	repeat	Run2	repeat/STIM_000.jpg
1397.699	0.714	1	repeat	Run2	repeat/STIM_000.jpg
1400.847	0.777	1	repeat	Run2	repeat/STIM_000.jpg
1405.18	0.661	1	repeat	Run2	repeat/STIM_000.jpg
1408.027	0.691	1	repeat	Run2	repeat/STIM_001.jpg
1410.813	0.724	0	repeat	Run2	repeat/STIM_001.jpg
1413.729	0.484	1	repeat	Run2	repeat/STIM_001.jpg
1417.982	0.557	1	repeat	Run2	repeat/STIM_001.jpg
1420.605	0.68	1	repeat	Run2	repeat/STIM_001.jpg
1424.623	0.668	0	repeat	Run2	repeat/STIM_002.jpg
1428.841	0.527	0	repeat	Run2	repeat/STIM_002.jpg
1432.484	0.611	1	repeat	Run2	repeat/STIM_002.jpg
1436.988	0.472	1	repeat	Run2	repeat/STIM_002.jpg
1440.692	0.529	1	repeat	Run2	repeat/STIM_002.jpg
1443.388	0.74	0	repeat	Run2	repeat/STIM_003.jpg
1447.593	0.71	1	repeat	Run2	repeat/STIM_003.jpg
1450.954	0.47	1	repeat	Run2	repeat/STIM_003.jpg
1453.874	0.659	1	repeat	Run2	repeat/STIM_003.jpg
1456.707	0.819	1	repeat	Run2	repeat/STIM_003.jpg
1460.644	0.767	1	repeat	Run2	repeat/STIM_004.jpg
1463.474	0.662	1	repeat	Run2	repeat/STIM_004.jpg
1467.101	0.814	1	repeat	Run2	repeat/STIM_004.jpg
1471.319	0.675	0	repeat	Run2	repeat/STIM_004.jpg
1474.294	0.723	0	repeat	Run2	repeat/STIM_004.jpg
1478.294	0.803	1	repeat	Run2	repeat/STIM_005.jpg
1481.573	0.654	1	repeat	Run2	repeat/STIM_005.jpg
1484.376	0.798	1	repeat	Run2	repeat/STIM_005.jpg
1488.012	0.775	0	repeat	Run2	repeat/STIM_005.jpg
1491.336	0.477	1	repeat	Run2	repeat/STIM_005.jpg
1495.447	0.629	1	repeat	Run2	repeat/STIM_006.jpg
1499.2	0.73	1	repeat	Run2	repeat/STIM_006.jpg
1502.681	0.736	1	repeat	Run2	repeat/STIM_006.jpg
1505.866	0.816	1	repeat	Run2	repeat/STIM_006.jpg
1508.79	0.519	1	repeat	Run2	repeat/STIM_006.jpg
1512.419	0.816	1	repeat	Run2	repeat/STIM_007.jpg
1515.242	0.721	1	repeat	Run2	repeat/STIM_007.jpg
1518.119	0.538	1	repeat	Run2	repeat/STIM_007.jpg
1521.557	0.554	1	repeat	Run2	repeat/STIM_007.jpg
1525.406	0.827	0	repeat	Run2	repeat/STIM_007.jpg
1528.978	0.538	1	repeat	Run2	repeat/STIM_008.jpg
1532.243	0.768	1	repeat	Run2	repeat/STIM_008.jpg
1536.154	0.845	1	repeat	Run2	repeat/STIM_008.jpg
1539.64	0.457	1	repeat	Run2	repeat/STIM_008.jpg
1543.077	0.563	1	repeat	Run2	repeat/STIM_008.jpg
1546.517	0.428	1	repeat	Run2	repeat/STIM_009.jpg
1549.123	0.844	1	repeat	Run2	repeat/STIM_009.jpg
1553.468	0.695	1	repeat	Run2	repeat/STIM_009.jpg
1556.613	0.604	1	repeat	Run2	repeat/STIM_009.jpg
1559.497	0.746	1	repeat	Run2	repeat/STIM_009.jpg
1563.226	0.817	1	repeat	Run2	repeat/STIM_010.jpg
1566.587	0.625	1	repeat	Run2	repeat/STIM_010.jpg
1569.398	0.488	0	repeat	Run2	repeat/STIM_010.jpg
1572.419	0.579	0	repeat	Run2	repeat/STIM_010.jpg
1575.382	0.469	0	repeat	Run2	repeat/STIM_010.jpg
1578.956	0.553	1	repeat	Run2	repeat/STIM_011.jpg
1581.58	0.665	1	repeat	Run2	repeat/STIM_011.jpg
1584.642	0.774	1	repeat	Run2	repeat/STIM_011.jpg
1588.819	0.53	1	repeat	Run2	repeat/STIM_011.jpg
1591.553	0.651	1	repeat	Run2	repeat/STIM_011.jpg
1595.126	0.519	0	repeat	Run2	repeat/STIM_012.jpg
1599.26	0.497	1	repeat	Run2	repeat/STIM_012.jpg
1601.822	0.5	1	repeat	Run2	repeat/STIM_012.jpg
1605.707	0.752	1	repeat	Run2	repeat/STIM_012.jpg
1608.539	0.8	0	repeat	Run2	repeat/STIM_012.jpg
1613.148	0.602	1	repeat	Run2	repeat/STIM_013.jpg
1616.756	0.679	0	repeat	Run2	repeat/STIM_013.jpg
1621.305	0.607	1	repeat	Run2	repeat/STIM_013.jpg
1625.905	0.435	1	repeat	Run2	repeat/STIM_013.jpg
1629.73	0.676	0	repeat	Run2	repeat/STIM_013.jpg
1633.124	0.703	0	repeat	Run2	repeat/STIM_014.jpg
1637.696	0.822	0	repeat	Run2	repeat/STIM_014.jpg
1641.69	0.85	1	repeat	Run2	repeat/STIM_014.jpg
1646.302	0.492	1	repeat	Run2	repeat/STIM_014.jpg
1649.977	0.819	1	repeat	Run2	repeat/STIM_014.jpg
1654.346	1.419	1	generate	Run3	generate/STIM_000.jpg
1659.258	1.319	1	generate	Run3	generate/STIM_000.jpg
1662.727	1.122	1	generate	Run3	generate/STIM_000.jpg
1667.291	1.737	1	generate	Run3	generate/STIM_000.jpg
1671.898	1.375	1	generate	Run3	generate/STIM_000.jpg
1676.171	1.171	1	generate	Run3	generate/STIM_001.jpg
1681.295	1.275	1	generate	Run3	generate/STIM_001.jpg
1685.137	1.099	1	generate	Run3	generate/STIM_001.jpg
1688.542	1.08	1	generate	Run3	generate/STIM_001.jpg
1692.803	1.72	1	generate	Run3	generate/STIM_001.jpg
1697.155	0.803	0	generate	Run3	generate/STIM_002.jpg
1701.031	1.257	1	generate	Run3	generate/STIM_002.jpg
1705.32	0.826	0	generate	Run3	generate/STIM_002.jpg
1709.898	1.756	1	generate	Run3	generate/STIM_002.jpg
1714.069	0.878	1	generate	Run3	generate/STIM_002.jpg
1718.564	1.156	0	generate	Run3	generate/STIM_003.jpg
1722.725	0.878	0	generate	Run3	generate/STIM_003.jpg
1725.772	0.766	1	generate	Run3	generate/STIM_003.jpg
1730.052	1.221	1	generate	Run3	generate/STIM_003.jpg
1733.414	1.474	1	generate	Run3	generate/STIM_003.jpg
1738.668	0.908	1	generate	Run3	generate/STIM_004.jpg
1743.162	0.768	1	generate	Run3	generate/STIM_004.jpg
1746.393	1.363	1	generate	Run3	generate/STIM_004.jpg
1751.267	1.722	1	generate	Run3	generate/STIM_004.jpg
1755.81	0.761	1	generate	Run3	generate/STIM_004.jpg
1759.457	1.116	1	generate	Run3	generate/STIM_005.jpg
1763.127	1.213	1	generate	Run3	generate/STIM_005.jpg
1766.366	1.186	1	generate	Run3	generate/STIM_005.jpg
1770.824	1.775	1	generate	Run3	generate/STIM_005.jpg
1775.136	1.699	1	generate	Run3	generate/STIM_005.jpg
1780.547	0.978	1	generate	Run3	generate/STIM_006.jpg
1785.205	1.649	1	generate	Run3	generate/STIM_006.jpg
1790.255	1.181	1	generate	Run3	generate/STIM_006.jpg
1793.645	1.678	0	generate	Run3	generate/STIM_006.jpg
1798.803	1.534	1	generate	Run3	generate/STIM_006.jpg
1803.636	0.844	1	generate	Run3	generate/STIM_007.jpg
1807.211	1.308	1	generate	Run3	generate/STIM_007.jpg
1810.771	1.248	0	generate	Run3	generate/STIM_007.jpg
1814.895	0.887	0	generate	Run3	generate/STIM_007.jpg
1817.785	1.784	0	generate	Run3	generate/STIM_007.jpg
1822.551	0.988	1	generate	Run3	generate/STIM_008.jpg
1826.731	1.569	1	generate	Run3	generate/STIM_008.jpg
1831.367	0.866	1	generate	Run3	generate/STIM_008.jpg
1836.208	0.998	1	generate	Run3	generate/STIM_008.jpg
1840.481	1.312	0	generate	Run3	generate/STIM_008.jpg
1844.68	1.183	1	generate	Run3	generate/STIM_009.jpg
1849.112	1.614	0	generate	Run3	generate/STIM_009.jpg
1854.315	0.758	0	generate	Run3	generate/STIM_009.jpg
1858.257	0.731	1	generate	Run3	generate/STIM_009.jpg
1862.832	1.708	1	generate	Run3	generate/STIM_009.jpg
1866.923	1.742	0	generate	Run3	generate/STIM_010.jpg
1871.561	1.242	0	generate	Run3	generate/STIM_010.jpg
1876.582	1.411	0	generate	Run3	generate/STIM_010.jpg
1880.096	0.839	1	generate	Run3	generate/STIM_010.jpg
1882.978	1.652	1	generate	Run3	generate/STIM_010.jpg
1886.693	1.539	1	generate	Run3	generate/STIM_011.jpg
1892.143	0.994	1	generate	Run3	generate/STIM_011.jpg
1896.072	1.238	1	generate	Run3	generate/STIM_011.jpg
1899.949	1.006	1	generate	Run3	generate/STIM_011.jpg
1904.481	0.988	1	generate	Run3	generate/STIM_011.jpg
1908.246	1.425	1	generate	Run3	generate/STIM_012.jpg
1913.271	1.403	1	generate	Run3	generate/STIM_012.jpg
1918.252	1.454	1	generate	Run3	generate/STIM_012.jpg
1921.721	1.337	0	generate	Run3	generate/STIM_012.jpg
1926.519	0.796	1	generate	Run3	generate/STIM_012.jpg
1930.448	1.727	1	generate	Run3	generate/STIM_013.jpg
1935.008	1.598	1	generate	Run3	generate/STIM_013.jpg
1940.073	1.282	0	generate	Run3	generate/STIM_013.jpg
1945.323	1.253	1	generate	Run3	generate/STIM_013.jpg
1950.258	1.424	1	generate	Run3	generate/STIM_013.jpg
1954.243	1.09	1	generate	Run3	generate/STIM_014.jpg
1957.645	1.138	0	generate	Run3	generate/STIM_014.jpg
1960.836	1.216	1	generate	Run3	generate/STIM_014.jpg
1964.992	1.153	1	generate	Run3	generate/STIM_014.jpg
1968.93	1.094	1	generate	Run3	generate/STIM_014.jpg
1973.974	1.114	0	generate	Run3	generate/STIM_015.jpg
1977.881	1.069	1	generate	Run3	generate/STIM_015.jpg
1981.413	1.743	0	generate	Run3	generate/STIM_015.jpg
1986.33	1.667	1	generate	Run3	generate/STIM_015.jpg
1990.665	0.988	0	generate	Run3	generate/STIM_015.jpg
1994.165	1.758	0	generate	Run3	generate/STIM_016.jpg
1999.718	0.803	0	generate	Run3	generate/STIM_016.jpg
2004.213	1.76	1	generate	Run3	generate/STIM_016.jpg
2008.7	1.507	1	generate	Run3	generate/STIM_016.jpg
2012.761	1.096	0	generate	Run3	generate/STIM_016.jpg
2016.872	1.278	0	generate	Run3	generate/STIM_017.jpg
2021.561	1.233	1	generate	Run3	generate/STIM_017.jpg
2025.465	1.416	1	generate	Run3	generate/STIM_017.jpg
2029.965	0.8	0	generate	Run3	generate/STIM_017.jpg
2034.24	1.237	1	generate	Run3	generate/STIM_017.jpg
2039.239	1.072	0	generate	Run3	generate/STIM_018.jpg
2044.029	1.138	0	generate	Run3	generate/STIM_018.jpg
2047.947	0.779	1	generate	Run3	generate/STIM_018.jpg
2051.586	1.514	1	generate	Run3	generate/STIM_018.jpg
2056.962	1.739	1	generate	Run3	generate/STIM_018.jpg
2061.347	1.022	0	generate	Run3	generate/STIM_019.jpg
2066.006	1.174	1	generate	Run3	generate/STIM_019.jpg
2069.76	1.452	0	generate	Run3	generate/STIM_019.jpg
2074.562	1.435	1	generate	Run3	generate/STIM_019.jpg
2079.946	1.12	1	generate	Run3	generate/STIM_019.jpg
2084.038	0.898	1	generate	Run3	generate/STIM_020.jpg
2088.403	0.867	0	generate	Run3	generate/STIM_020.jpg
2091.587	1.385	0	generate	Run3	generate/STIM_020.jpg
2096.183	1.529	0	generate	Run3	generate/STIM_020.jpg
2100.93	0.953	1	generate	Run3	generate/STIM_020.jpg
2105.698	1.652	1	generate	Run3	generate/STIM_021.jpg
2109.832	1.304	1	generate	Run3	generate/STIM_021.jpg
2114.386	1.174	1	generate	Run3	generate/STIM_021.jpg
2119.175	1.477	1	generate	Run3	generate/STIM_021.jpg
2123.545	1.519	1	generate	Run3	generate/STIM_021.jpg
2127.718	1.276	0	generate	Run3	generate/STIM_022.jpg
2132.442	0.753	1	generate	Run3	generate/STIM_022.jpg
2135.428	1.186	1	generate	Run3	generate/STIM_022.jpg
2140.343	1.224	0	generate	Run3	generate/STIM_022.jpg
2145.51	1.669	1	generate	Run3	generate/STIM_022.jpg
2150.756	1.542	1	generate	Run3	generate/STIM_023.jpg
2154.878	0.862	1	generate	Run3	generate/STIM_023.jpg
2159.415	1.783	1	generate	Run3	generate/STIM_023.jpg
2163.589	1.695	1	generate	Run3	generate/STIM_023.jpg
2168.936	1.263	1	generate	Run3	generate/STIM_023.jpg
2172.952	1.448	1	generate	Run3	generate/STIM_024.jpg
2178.306	0.898	1	generate	Run3	generate/STIM_024.jpg
2182.64	1.454	1	generate	Run3	generate/STIM_024.jpg
2187.805	1.717	0	generate	Run3	generate/STIM_024.jpg
2192.186	1.77	1	generate	Run3	generate/STIM_024.jpg
2196.491	0.542	1	repeat	Run3	repeat/STIM_000.jpg
2199.281	0.463	1	repeat	Run3	repeat/STIM_000.jpg
2203.028	0.505	0	repeat	Run3	repeat/STIM_000.jpg
2206.474	0.791	1	repeat	Run3	repeat/STIM_000.jpg
2209.642	0.45	0	repeat	Run3	repeat/STIM_000.jpg
2214.092	0.456	1	repeat	Run3	repeat/STIM_001.jpg
2218.042	0.538	1	repeat	Run3	repeat/STIM_001.jpg
2221.046	0.491	1	repeat	Run3	repeat/STIM_001.jpg
2224.637	0.821	1	repeat	Run3	repeat/STIM_001.jpg
2229.079	0.577	1	repeat	Run3	repeat/STIM_001.jpg
2233.424	0.751	1	repeat	Run3	repeat/STIM_002.jpg
2237.409	0.688	1	repeat	Run3	repeat/STIM_002.jpg
2240.636	0.473	0	repeat	Run3	repeat/STIM_002.jpg
2244.823	0.653	1	repeat	Run3	repeat/STIM_002.jpg
2248.107	0.604	1	repeat	Run3	repeat/STIM_002.jpg
2251.556	0.52	1	repeat	Run3	repeat/STIM_003.jpg
2255.43	0.622	1	repeat	Run3	repeat/STIM_003.jpg
2259.01	0.78	1	repeat	Run3	repeat/STIM_003.jpg
2262.331	0.729	0	repeat	Run3	repeat/STIM_003.jpg
2265.773	0.523	1	repeat	Run3	repeat/STIM_003.jpg
2269.871	0.48	1	repeat	Run3	repeat/STIM_004.jpg
2274.05	0.672	1	repeat	Run3	repeat/STIM_004.jpg
2276.876	0.77	0	repeat	Run3	repeat/STIM_004.jpg
2280.474	0.836	1	repeat	Run3	repeat/STIM_004.jpg
2283.371	0.426	1	repeat	Run3	repeat/STIM_004.jpg
2286.708	0.636	1	repeat	Run3	repeat/STIM_005.jpg
2290.59	0.641	0	repeat	Run3	repeat/STIM_005.jpg
2294.505	0.61	0	repeat	Run3	repeat/STIM_005.jpg
2297.336	0.82	1	repeat	Run3	repeat/STIM_005.jpg
2300.45	0.498	0	repeat	Run3	repeat/STIM_005.jpg
2304.182	0.429	1	repeat	Run3	repeat/STIM_006.jpg
2308.521	0.753	1	repeat	Run3	repeat/STIM_006.jpg
2311.662	0.699	1	repeat	Run3	repeat/STIM_006.jpg
2316.049	0.835	0	repeat	Run3	repeat/STIM_006.jpg
2319.668	0.555	1	repeat	Run3	repeat/STIM_006.jpg
2324.036	0.605	1	repeat	Run3	repeat/STIM_007.jpg
2327.521	0.785	1	repeat	Run3	repeat/STIM_007.jpg
2330.416	0.775	1	repeat	Run3	repeat/STIM_007.jpg
2334.808	0.778	0	repeat	Run3	repeat/STIM_007.jpg
2339.578	0.643	1	repeat	Run3	repeat/STIM_007.jpg
2343.61	0.543	0	repeat	Run3	repeat/STIM_008.jpg
2347.787	0.763	1	repeat	Run3	repeat/STIM_008.jpg
2351.164	0.839	1	repeat	Run3	repeat/STIM_008.jpg
2355.563	0.626	1	repeat	Run3	repeat/STIM_008.jpg
2358.218	0.739	1	repeat	Run3	repeat/STIM_008.jpg
2362.378	0.794	1	repeat	Run3	repeat/STIM_009.jpg
2366.438	0.729	1	repeat	Run3	repeat/STIM_009.jpg
2369.502	0.644	1	repeat	Run3	repeat/STIM_009.jpg
2372.696	0.85	1	repeat	Run3	repeat/STIM_009.jpg
2376.341	0.772	1	repeat	Run3	repeat/STIM_009.jpg
2380.514	0.661	1	repeat	Run3	repeat/STIM_010.jpg
2384.237	0.823	1	repeat	Run3	repeat/STIM_010.jpg
2387.886	0.798	1	repeat	Run3	repeat/STIM_010.jpg
2391.427	0.84	0	repeat	Run3	repeat/STIM_010.jpg
2396.191	0.714	1	repeat	Run3	repeat/STIM_010.jpg
2399.435	0.82	1	repeat	Run3	repeat/STIM_011.jpg
2403.855	0.517	1	repeat	Run3	repeat/STIM_011.jpg
2408.2	0.456	1	repeat	Run3	repeat/STIM_011.jpg
2412.428	0.489	1	repeat	Run3	repeat/STIM_011.jpg
2416.892	0.712	0	repeat	Run3	repeat/STIM_011.jpg
2420.404	0.649	1	repeat	Run3	repeat/STIM_012.jpg
2424.471	0.846	1	repeat	Run3	repeat/STIM_012.jpg
2429.089	0.544	0	repeat	Run3	repeat/STIM_012.jpg
2432.437	0.55	1	repeat	Run3	repeat/STIM_012.jpg
2436.265	0.7	0	repeat	Run3	repeat/STIM_012.jpg
2440.212	0.809	1	repeat	Run3	repeat/STIM_013.jpg
2444.203	0.628	0	repeat	Run3	repeat/STIM_013.jpg
2448.7	0.561	1	repeat	Run3	repeat/STIM_013.jpg
2452.707	0.632	1	repeat	Run3	repeat/STIM_013.jpg
2455.928	0.826	1	repeat	Run3	repeat/STIM_013.jpg
2460.242	0.632	1	repeat	Run3	repeat/STIM_014.jpg
2464.691	0.554	0	repeat	Run3	repeat/STIM_014.jpg
2468.306	0.568	1	repeat	Run3	repeat/STIM_014.jpg
2471.739	0.57	1	repeat	Run3	repeat/STIM_014.jpg
2474.41	0.674	1	repeat	Run3	repeat/STIM_014.jpg
2477.248	1.271	0	generate	Run4	generate/STIM_000.jpg
2481.607	1.758	0	generate	Run4	generate/STIM_000.jpg
2486.853	1.292	1	generate	Run4	generate/STIM_000.jpg
2492.097	1.47	1	generate	Run4	generate/STIM_000.jpg
2497.282	0.984	1	generate	Run4	generate/STIM_000.jpg
2502.139	1.122	1	generate	Run4	generate/STIM_001.jpg
2505.882	1.386	1	generate	Run4	generate/STIM_001.jpg
2511.137	0.763	0	generate	Run4	generate/STIM_001.jpg
2514.083	0.778	0	generate	Run4	generate/STIM_001.jpg
2517.219	1.201	1	generate	Run4	generate/STIM_001.jpg
2521.664	0.785	1	generate	Run4	generate/STIM_002.jpg
2525.643	1.391	1	generate	Run4	generate/STIM_002.jpg
2529.751	1.53	1	generate	Run4	generate/STIM_002.jpg
2534.708	1.438	1	generate	Run4	generate/STIM_002.jpg
2539.513	1.115	1	generate	Run4	generate/STIM_002.jpg
2542.754	1.617	1	generate	Run4	generate/STIM_003.jpg
2547.442	1.546	1	generate	Run4	generate/STIM_003.jpg
2552.43	1.727	1	generate	Run4	generate/STIM_003.jpg
2557.02	1.041	1	generate	Run4	generate/STIM_003.jpg
2561.913	1.626	1	generate	Run4	generate/STIM_003.jpg
2566.184	1.635	1	generate	Run4	generate/STIM_004.jpg
2570.404	1.178	1	generate	Run4	generate/STIM_004.jpg
2574.283	0.715	1	generate	Run4	generate/STIM_004.jpg
2578.145	1.635	1	generate	Run4	generate/STIM_004.jpg
2582.129	1.212	1	generate	Run4	generate/STIM_004.jpg
2586.015	1.606	1	generate	Run4	generate/STIM_005.jpg
2591.195	0.977	1	generate	Run4	generate/STIM_005.jpg
2595.832	1.41	1	generate	Run4	generate/STIM_005.jpg
2601.017	1.148	1	generate	Run4	generate/STIM_005.jpg
2605.944	1.093	1	generate	Run4	generate/STIM_005.jpg
2610.096	1.244	1	generate	Run4	generate/STIM_006.jpg
2614.991	1.156	1	generate	Run4	generate/STIM_006.jpg
2620.032	0.812	1	generate	Run4	generate/STIM_006.jpg
2623.166	1.344	1	generate	Run4	generate/STIM_006.jpg
2628.253	0.847	1	generate	Run4	generate/STIM_006.jpg
2631.701	1.505	0	generate	Run4	generate/STIM_007.jpg
2636.312	1.415	0	generate	Run4	generate/STIM_007.jpg
2640.104	0.731	1	generate	Run4	generate/STIM_007.jpg
2643.59	1.074	1	generate	Run4	generate/STIM_007.jpg
2646.938	0.784	0	generate	Run4	generate/STIM_007.jpg
2650.108	1.35	0	generate	Run4	generate/STIM_008.jpg
2654.356	0.94	1	generate	Run4	generate/STIM_008.jpg
2657.331	1.104	0	generate	Run4	generate/STIM_008.jpg
2661.908	1.495	1	generate	Run4	generate/STIM_008.jpg
2666.832	1.654	1	generate	Run4	generate/STIM_008.jpg
2671.334	1.539	1	generate	Run4	generate/STIM_009.jpg
2676.306	1.051	1	generate	Run4	generate/STIM_009.jpg
2680.391	0.927	1	generate	Run4	generate/STIM_009.jpg
2683.926	0.865	1	generate	Run4	generate/STIM_009.jpg
2688.391	0.822	1	generate	Run4	generate/STIM_009.jpg
2692.983	0.928	1	generate	Run4	generate/STIM_010.jpg
2696.776	1.264	1	generate	Run4	generate/STIM_010.jpg
2702.032	0.72	1	generate	Run4	generate/STIM_010.jpg
2705.199	0.961	1	generate	Run4	generate/STIM_010.jpg
2708.778	1.491	1	generate	Run4	generate/STIM_010.jpg
2712.912	1.402	1	generate	Run4	generate/STIM_011.jpg
2717.639	0.783	0	generate	Run4	generate/STIM_011.jpg
2721.773	1.443	1	generate	Run4	generate/STIM_011.jpg
2725.704	1.682	1	generate	Run4	generate/STIM_011.jpg
2729.407	0.996	1	generate	Run4	generate/STIM_011.jpg
2732.653	1.633	1	generate	Run4	generate/STIM_012.jpg
2738.213	0.861	1	generate	Run4	generate/STIM_012.jpg
2742.954	1.298	1	generate	Run4	generate/STIM_012.jpg
2746.536	1.579	1	generate	Run4	generate/STIM_012.jpg
2750.234	1.034	1	generate	Run4	generate/STIM_012.jpg
2753.958	1.212	1	generate	Run4	generate/STIM_013.jpg
2757.263	1.778	1	generate	Run4	generate/STIM_013.jpg
2761.797	0.985	1	generate	Run4	generate/STIM_013.jpg
2766.505	1.602	1	generate	Run4	generate/STIM_013.jpg
2772.046	1.028	0	generate	Run4	generate/STIM_013.jpg
2776.378	1.256	1	generate	Run4	generate/STIM_014.jpg
2780.118	1.598	1	generate	Run4	generate/STIM_014.jpg
2784.107	0.87	1	generate	Run4	generate/STIM_014.jpg
2788.797	0.775	0	generate	Run4	generate/STIM_014.jpg
2792.99	1.048	0	generate	Run4	generate/STIM_014.jpg
2796.76	1.623	1	generate	Run4	generate/STIM_015.jpg
2800.526	0.754	1	generate	Run4	generate/STIM_015.jpg
2803.796	0.809	1	generate	Run4	generate/STIM_015.jpg
2807.039	1.533	1	generate	Run4	generate/STIM_015.jpg
2811.759	1.501	1	generate	Run4	generate/STIM_015.jpg
2817.025	1.621	1	generate	Run4	generate/STIM_016.jpg
2822.263	0.892	1	generate	Run4	generate/STIM_016.jpg
2825.367	1.486	1	generate	Run4	generate/STIM_016.jpg
2829.8	1.498	0	generate	Run4	generate/STIM_016.jpg
2835.28	1.04	1	generate	Run4	generate/STIM_016.jpg
2838.637	1.53	0	generate	Run4	generate/STIM_017.jpg
2843.508	1.424	1	generate	Run4	generate/STIM_017.jpg
2848.729	1.165	1	generate	Run4	generate/STIM_017.jpg
2853.332	1.011	0	generate	Run4	generate/STIM_017.jpg
2858.058	1.358	1	generate	Run4	generate/STIM_017.jpg
2862.548	1.606	1	generate	Run4	generate/STIM_018.jpg
2867.771	1.297	1	generate	Run4	generate/STIM_018.jpg
2871.571	0.732	1	generate	Run4	generate/STIM_018.jpg
2875.797	0.816	1	generate	Run4	generate/STIM_018.jpg
2878.857	1.068	1	generate	Run4	generate/STIM_018.jpg
2883.826	1.544	1	generate	Run4	generate/STIM_019.jpg
2887.715	1.441	1	generate	Run4	generate/STIM_019.jpg
2891.78	1.105	0	generate	Run4	generate/STIM_019.jpg
2894.988	1.327	1	generate	Run4	generate/STIM_019.jpg
2899.624	1.678	1	generate	Run4	generate/STIM_019.jpg
2903.856	1.207	1	generate	Run4	generate/STIM_020.jpg
2907.104	1.338	1	generate	Run4	generate/STIM_020.jpg
2912.025	1.402	0	generate	Run4	generate/STIM_020.jpg
2916.355	1.285	0	generate	Run4	generate/STIM_020.jpg
2921.08	1.259	1	generate	Run4	generate/STIM_020.jpg
2924.667	1.208	0	generate	Run4	generate/STIM_021.jpg
2928.31	0.792	0	generate	Run4	generate/STIM_021.jpg
2931.436	1.739	1	generate	Run4	generate/STIM_021.jpg
2936.213	1.183	1	generate	Run4	generate/STIM_021.jpg
2940.356	1.352	1	generate	Run4	generate/STIM_021.jpg
2944.017	1.274	1	generate	Run4	generate/STIM_022.jpg
2947.398	0.72	1	generate	Run4	generate/STIM_022.jpg
2950.297	1.274	1	generate	Run4	generate/STIM_022.jpg
2955.491	1.394	0	generate	Run4	generate/STIM_022.jpg
2960.723	1.231	1	generate	Run4	generate/STIM_022.jpg
2964.857	1.221	0	generate	Run4	generate/STIM_023.jpg
2969.601	0.765	1	generate	Run4	generate/STIM_023.jpg
2972.719	1.601	1	generate	Run4	generate/STIM_023.jpg
2978.266	1.418	0	generate	Run4	generate/STIM_023.jpg
2981.77	0.783	0	generate	Run4	generate/STIM_023.jpg
2985.425	0.781	1	generate	Run4	generate/STIM_024.jpg
2988.314	1.783	1	generate	Run4	generate/STIM_024.jpg
2993.533	0.874	0	generate	Run4	generate/STIM_024.jpg
2996.981	1.762	1	generate	Run4	generate/STIM_024.jpg
3001.383	1.609	1	generate	Run4	generate/STIM_024.jpg
3005.135	0.746	1	repeat	Run4	repeat/STIM_000.jpg
3009.723	0.702	1	repeat	Run4	repeat/STIM_000.jpg
3013.144	0.516	0	repeat	Run4	repeat/STIM_000.jpg
3017.18	0.801	1	repeat	Run4	repeat/STIM_000.jpg
3020.345	0.638	0	repeat	Run4	repeat/STIM_000.jpg
3023.012	0.837	0	repeat	Run4	repeat/STIM_001.jpg
3026.094	0.557	1	repeat	Run4	repeat/STIM_001.jpg
3029.699	0.585	1	repeat	Run4	repeat/STIM_001.jpg
3032.66	0.626	1	repeat	Run4	repeat/STIM_001.jpg
3036.58	0.528	1	repeat	Run4	repeat/STIM_001.jpg
3039.999	0.586	1	repeat	Run4	repeat/STIM_002.jpg
3044.106	0.604	0	repeat	Run4	repeat/STIM_002.jpg
3046.95	0.618	1	repeat	Run4	repeat/STIM_002.jpg
3050.383	0.557	1	repeat	Run4	repeat/STIM_002.jpg
3053.67	0.479	1	repeat	Run4	repeat/STIM_002.jpg
3058.062	0.531	1	repeat	Run4	repeat/STIM_003.jpg
3061.48	0.802	0	repeat	Run4	repeat/STIM_003.jpg
3065.978	0.456	1	repeat	Run4	repeat/STIM_003.jpg
3068.983	0.506	0	repeat	Run4	repeat/STIM_003.jpg
3071.848	0.552	1	repeat	Run4	repeat/STIM_003.jpg
3075.434	0.566	1	repeat	Run4	repeat/STIM_004.jpg
3079.71	0.609	1	repeat	Run4	repeat/STIM_004.jpg
3082.881	0.54	0	repeat	Run4	repeat/STIM_004.jpg
3086.703	0.663	1	repeat	Run4	repeat/STIM_004.jpg
3090.32	0.563	0	repeat	Run4	repeat/STIM_004.jpg
3092.986	0.545	1	repeat	Run4	repeat/STIM_005.jpg
3096.066	0.813	0	repeat	Run4	repeat/STIM_005.jpg
3100.76	0.85	0	repeat	Run4	repeat/STIM_005.jpg
3104.475	0.427	1	repeat	Run4	repeat/STIM_005.jpg
3108.716	0.784	1	repeat	Run4	repeat/STIM_005.jpg
3112.778	0.682	1	repeat	Run4	repeat/STIM_006.jpg
3117.358	0.589	0	repeat	Run4	repeat/STIM_006.jpg
3120.349	0.774	1	repeat	Run4	repeat/STIM_006.jpg
3124.807	0.661	1	repeat	Run4	repeat/STIM_006.jpg
3129.384	0.426	1	repeat	Run4	repeat/STIM_006.jpg
3132.561	0.442	1	repeat	Run4	repeat/STIM_007.jpg
3135.788	0.816	1	repeat	Run4	repeat/STIM_007.jpg
3139.117	0.576	1	repeat	Run4	repeat/STIM_007.jpg
3142.215	0.604	1	repeat	Run4	repeat/STIM_007.jpg
3146.11	0.701	1	repeat	Run4	repeat/STIM_007.jpg
3150.169	0.593	0	repeat	Run4	repeat/STIM_008.jpg
3153.732	0.755	1	repeat	Run4	repeat/STIM_008.jpg
3157.637	0.816	1	repeat	Run4	repeat/STIM_008.jpg
3161.094	0.455	1	repeat	Run4	repeat/STIM_008.jpg
3165.236	0.582	1	repeat	Run4	repeat/STIM_008.jpg
3169.602	0.625	1	repeat	Run4	repeat/STIM_009.jpg
3172.347	0.824	1	repeat	Run4	repeat/STIM_009.jpg
3175.618	0.828	1	repeat	Run4	repeat/STIM_009.jpg
3179.887	0.714	1	repeat	Run4	repeat/STIM_009.jpg
3184.191	0.561	1	repeat	Run4	repeat/STIM_009.jpg
3187.203	0.818	1	repeat	Run4	repeat/STIM_010.jpg
3191.383	0.752	0	repeat	Run4	repeat/STIM_010.jpg
3195.501	0.696	1	repeat	Run4	repeat/STIM_010.jpg
3199.792	0.824	1	repeat	Run4	repeat/STIM_010.jpg
3203.021	0.806	0	repeat	Run4	repeat/STIM_010.jpg
3207.781	0.81	1	repeat	Run4	repeat/STIM_011.jpg
3210.84	0.78	1	repeat	Run4	repeat/STIM_011.jpg
3214.309	0.675	0	repeat	Run4	repeat/STIM_011.jpg
3218.458	0.837	1	repeat	Run4	repeat/STIM_011.jpg
3222.551	0.438	0	repeat	Run4	repeat/STIM_011.jpg
3225.639	0.496	1	repeat	Run4	repeat/STIM_012.jpg
3230.052	0.823	1	repeat	Run4	repeat/STIM_012.jpg
3233.542	0.786	0	repeat	Run4	repeat/STIM_012.jpg
3236.595	0.801	1	repeat	Run4	repeat/STIM_012.jpg
3240.787	0.575	1	repeat	Run4	repeat/STIM_012.jpg
3243.516	0.454	0	repeat	Run4	repeat/STIM_013.jpg
3246.859	0.553	1	repeat	Run4	repeat/STIM_013.jpg
3250.447	0.738	1	repeat	Run4	repeat/STIM_013.jpg
3255.013	0.702	1	repeat	Run4	repeat/STIM_013.jpg
3257.995	0.489	0	repeat	Run4	repeat/STIM_013.jpg
3261.676	0.558	1	repeat	Run4	repeat/STIM_014.jpg
3264.749	0.437	1	repeat	Run4	repeat/STIM_014.jpg
3267.819	0.485	1	repeat	Run4	repeat/STIM_014.jpg
3270.747	0.513	0	repeat	Run4	repeat/STIM_014.jpg
3274.646	0.578	0	repeat	Run4	repeat/STIM_014.jpg
