onset	duration	response_time_ms	trial_type	learning_stage	stimulus	response_port
0.0	1.794	1793.8	generate	Run1	generate/STIM_000.jpg	100
5.783	1.637	1636.6	generate	Run1	generate/STIM_000.jpg	100
10.967	2.423	2423.3	generate	Run1	generate/STIM_000.jpg	99
15.697	1.007	1006.8	generate	Run1	generate/STIM_000.jpg	100
19.511	1.609	1608.7	generate	Run1	generate/STIM_000.jpg	100
24.635	1.612	1611.6	generate	Run1	generate/STIM_001.jpg	99
30.038	2.329	2328.8	generate	Run1	generate/STIM_001.jpg	100
34.664	1.043	1042.8	generate	Run1	generate/STIM_001.jpg	100
37.968	1.985	1984.6	generate	Run1	generate/STIM_001.jpg	100
43.692	1.876	1876.1	generate	Run1	generate/STIM_001.jpg	100
49.364	1.776	1776.3	generate	Run1	generate/STIM_002.jpg	99
54.314	2.507	2507.4	generate	Run1	generate/STIM_002.jpg	99
60.602	1.994	1993.6	generate	Run1	generate/STIM_002.jpg	99
65.967	1.798	1798.5	generate	Run1	generate/STIM_002.jpg	99
69.941	1.234	1234.1	generate	Run1	generate/STIM_002.jpg	100
74.79	1.593	1593.3	generate	Run1	generate/STIM_003.jpg	100
79.512	2.474	2473.5	generate	Run1	generate/STIM_003.jpg	99
85.798	2.518	2518.2	generate	Run1	generate/STIM_003.jpg	99
92.037	2.009	2008.7	generate	Run1	generate/STIM_003.jpg	100
98.147	1.837	1836.7	generate	Run1	generate/STIM_003.jpg	100
103.459	2.246	2246.0	generate	Run1	generate/STIM_004.jpg	100
109.334	1.583	1582.7	generate	Run1	generate/STIM_004.jpg	100
113.244	1.234	1233.9	generate	Run1	generate/STIM_004.jpg	100
117.658	1.084	1083.8	generate	Run1	generate/STIM_004.jpg	99
121.102	2.246	2246.3	generate	Run1	generate/STIM_004.jpg	99
127.29	2.518	2518.5	generate	Run1	generate/STIM_005.jpg	100
132.687	1.87	1870.4	generate	Run1	generate/STIM_005.jpg	100
138.31	2.304	2304.5	generate	Run1	generate/STIM_005.jpg	100
144.552	1.811	1811.0	generate	Run1	generate/STIM_005.jpg	100
150.168	1.239	1239.0	generate	Run1	generate/STIM_005.jpg	99
155.39	2.31	2309.6	generate	Run1	generate/STIM_006.jpg	100
161.454	2.466	2466.0	generate	Run1	generate/STIM_006.jpg	99
167.54	1.23	1229.9	generate	Run1	generate/STIM_006.jpg	99
172.729	2.307	2306.8	generate	Run1	generate/STIM_006.jpg	100
177.391	1.949	1948.8	generate	Run1	generate/STIM_006.jpg	99
182.872	1.191	1191.0	generate	Run1	generate/STIM_007.jpg	99
187.344	2.303	2303.0	generate	Run1	generate/STIM_007.jpg	100
192.498	1.465	1465.1	generate	Run1	generate/STIM_007.jpg	99
197.125	1.02	1019.5	generate	Run1	generate/STIM_007.jpg	100
201.885	2.102	2102.3	generate	Run1	generate/STIM_007.jpg	99
207.867	1.606	1606.2	generate	Run1	generate/STIM_008.jpg	100
212.65	1.403	1403.3	generate	Run1	generate/STIM_008.jpg	100
216.327	1.043	1043.2	generate	Run1	generate/STIM_008.jpg	99
220.833	1.166	1165.8	generate	Run1	generate/STIM_008.jpg	100
224.385	2.247	2246.9	generate	Run1	generate/STIM_008.jpg	99
230.703	1.251	1250.7	generate	Run1	generate/STIM_009.jpg	100
234.631	1.742	1742.5	generate	Run1	generate/STIM_009.jpg	99
240.241	1.622	1621.6	generate	Run1	generate/STIM_009.jpg	99
244.683	1.116	1115.7	generate	Run1	generate/STIM_009.jpg	100
249.218	1.119	1119.3	generate	Run1	generate/STIM_009.jpg	100
252.826	2.04	2040.4	generate	Run1	generate/STIM_010.jpg	99
257.877	2.571	2570.7	generate	Run1	generate/STIM_010.jpg	100
263.263	1.731	1731.1	generate	Run1	generate/STIM_010.jpg	99
268.455	2.227	2227.4	generate	Run1	generate/STIM_010.jpg	99
273.433	1.753	1753.2	generate	Run1	generate/STIM_010.jpg	99
277.379	2.296	2295.5	generate	Run1	generate/STIM_011.jpg	100
282.392	1.746	1746.0	generate	Run1	generate/STIM_011.jpg	99
286.803	1.069	1068.7	generate	Run1	generate/STIM_011.jpg	99
291.598	1.553	1553.4	generate	Run1	generate/STIM_011.jpg	99
295.781	2.139	2138.6	generate	Run1	generate/STIM_011.jpg	99
301.9	2.733	2733.2	generate	Run1	generate/STIM_012.jpg	99
307.867	2.011	2010.7	generate	Run1	generate/STIM_012.jpg	99
313.849	2.294	2294.4	generate	Run1	generate/STIM_012.jpg	100
319.849	1.959	1958.6	generate	Run1	generate/STIM_012.jpg	100
324.15	1.315	1314.6	generate	Run1	generate/STIM_012.jpg	100
327.826	2.352	2352.0	generate	Run1	generate/STIM_013.jpg	99
332.76	1.39	1389.7	generate	Run1	generate/STIM_013.jpg	99
337.365	1.159	1159.4	generate	Run1	generate/STIM_013.jpg	99
341.292	2.29	2290.1	generate	Run1	generate/STIM_013.jpg	100
346.971	1.757	1757.3	generate	Run1	generate/STIM_013.jpg	99
351.522	1.226	1226.3	generate	Run1	generate/STIM_014.jpg	99
356.346	2.414	2414.4	generate	Run1	generate/STIM_014.jpg	100
362.308	1.102	1101.6	generate	Run1	generate/STIM_014.jpg	100
366.536	2.081	2080.7	generate	Run1	generate/STIM_014.jpg	100
371.346	1.58	1580.1	generate	Run1	generate/STIM_014.jpg	100
375.623	2.515	2515.1	generate	Run1	generate/STIM_015.jpg	99
380.36	1.307	1306.7	generate	Run1	generate/STIM_015.jpg	100
383.814	1.197	1197.3	generate	Run1	generate/STIM_015.jpg	100
388.75	1.719	1718.8	generate	Run1	generate/STIM_015.jpg	100
393.171	1.586	1586.0	generate	Run1	generate/STIM_015.jpg	100
396.96	2.826	2826.5	generate	Run1	generate/STIM_016.jpg	100
403.138	1.473	1472.7	generate	Run1	generate/STIM_016.jpg	99
408.669	2.523	2522.6	generate	Run1	generate/STIM_016.jpg	99
413.827	2.057	2057.1	generate	Run1	generate/STIM_016.jpg	99
419.109	1.926	1925.5	generate	Run1	generate/STIM_016.jpg	100
423.362	1.208	1208.1	generate	Run1	generate/STIM_017.jpg	99
428.462	1.808	1808.3	generate	Run1	generate/STIM_017.jpg	99
433.758	1.286	1286.1	generate	Run1	generate/STIM_017.jpg	99
437.341	1.387	1386.6	generate	Run1	generate/STIM_017.jpg	99
441.515	1.634	1634.2	generate	Run1	generate/STIM_017.jpg	99
446.881	1.617	1616.6	generate	Run1	generate/STIM_018.jpg	99
452.176	1.272	1271.5	generate	Run1	generate/STIM_018.jpg	99
456.531	1.896	1895.9	generate	Run1	generate/STIM_018.jpg	99
462.091	1.226	1225.6	generate	Run1	generate/STIM_018.jpg	99
466.642	1.292	1292.4	generate	Run1	generate/STIM_018.jpg	100
470.106	2.301	2301.3	generate	Run1	generate/STIM_019.jpg	100
476.402	1.727	1726.9	generate	Run1	generate/STIM_019.jpg	100
480.793	1.276	1275.9	generate	Run1	generate/STIM_019.jpg	99
484.166	1.513	1512.7	generate	Run1	generate/STIM_019.jpg	99
488.475	1.758	1757.5	generate	Run1	generate/STIM_019.jpg	99
492.931	2.396	2396.3	generate	Run1	generate/STIM_020.jpg	100
498.276	1.925	1925.0	generate	Run1	generate/STIM_020.jpg	99
503.72	1.641	1640.7	generate	Run1	generate/STIM_020.jpg	99
508.681	1.631	1631.3	generate	Run1	generate/STIM_020.jpg	100
512.733	2.262	2262.5	generate	Run1	generate/STIM_020.jpg	99
517.587	2.302	2302.4	generate	Run1	generate/STIM_021.jpg	99
522.613	2.212	2211.9	generate	Run1	generate/STIM_021.jpg	99
528.018	1.048	1048.0	generate	Run1	generate/STIM_021.jpg	100
531.765	2.222	2221.7	generate	Run1	generate/STIM_021.jpg	100
536.912	1.205	1204.6	generate	Run1	generate/STIM_021.jpg	100
540.229	2.614	2613.9	generate	Run1	generate/STIM_022.jpg	100
545.226	1.503	1503.1	generate	Run1	generate/STIM_022.jpg	100
550.35	2.066	2066.3	generate	Run1	generate/STIM_022.jpg	100
555.627	1.713	1713.4	generate	Run1	generate/STIM_022.jpg	100
560.546	1.493	1492.6	generate	Run1	generate/STIM_022.jpg	99
565.029	2.576	2575.6	generate	Run1	generate/STIM_023.jpg	99
570.985	1.81	1810.1	generate	Run1	generate/STIM_023.jpg	100
575.059	2.102	2101.7	generate	Run1	generate/STIM_023.jpg	99
580.24	1.217	1216.8	generate	Run1	generate/STIM_023.jpg	99
585.108	1.856	1855.5	generate	Run1	generate/STIM_023.jpg	100
589.915	2.53	2530.4	generate	Run1	generate/STIM_024.jpg	99
595.753	1.433	1432.8	generate	Run1	generate/STIM_024.jpg	99
599.336	1.534	1533.8	generate	Run1	generate/STIM_024.jpg	99
603.575	1.303	1303.2	generate	Run1	generate/STIM_024.jpg	99
607.544	2.179	2178.6	generate	Run1	generate/STIM_024.jpg	99
613.456	0.935	934.8	repeat	Run1	repeat/STIM_000.jpg	99
617.616	0.738	737.7	repeat	Run1	repeat/STIM_000.jpg	100
621.186	0.583	583.3	repeat	Run1	repeat/STIM_000.jpg	99
625.598	0.62	620.0	repeat	Run1	repeat/STIM_000.jpg	100
628.955	0.717	716.8	repeat	Run1	repeat/STIM_000.jpg	99
633.19	0.68	679.7	repeat	Run1	repeat/STIM_001.jpg	99
637.806	0.51	510.1	repeat	Run1	repeat/STIM_001.jpg	99
640.728	0.493	493.0	repeat	Run1	repeat/STIM_001.jpg	100
645.222	0.506	506.3	repeat	Run1	repeat/STIM_001.jpg	100
647.943	0.534	534.1	repeat	Run1	repeat/STIM_001.jpg	100
651.678	0.902	901.5	repeat	Run1	repeat/STIM_002.jpg	100
655.208	0.635	635.0	repeat	Run1	repeat/STIM_002.jpg	99
657.991	0.566	566.5	repeat	Run1	repeat/STIM_002.jpg	99
661.792	0.811	810.8	repeat	Run1	repeat/STIM_002.jpg	99
666.618	0.707	706.7	repeat	Run1	repeat/STIM_002.jpg	100
670.92	0.6	600.2	repeat	Run1	repeat/STIM_003.jpg	100
675.338	0.604	603.8	repeat	Run1	repeat/STIM_003.jpg	99
679.954	0.637	637.2	repeat	Run1	repeat/STIM_003.jpg	100
683.088	0.48	479.6	repeat	Run1	repeat/STIM_003.jpg	99
686.769	0.774	773.9	repeat	Run1	repeat/STIM_003.jpg	99
690.35	0.528	528.2	repeat	Run1	repeat/STIM_004.jpg	100
694.1	0.942	942.5	repeat	Run1	repeat/STIM_004.jpg	100
697.3	0.613	612.6	repeat	Run1	repeat/STIM_004.jpg	99
701.056	0.916	916.4	repeat	Run1	repeat/STIM_004.jpg	99
704.24	0.835	835.2	repeat	Run1	repeat/STIM_004.jpg	99
707.589	0.922	922.5	repeat	Run1	repeat/STIM_005.jpg	99
711.058	0.606	606.2	repeat	Run1	repeat/STIM_005.jpg	100
714.57	0.937	937.2	repeat	Run1	repeat/STIM_005.jpg	100
719.428	0.692	691.8	repeat	Run1	repeat/STIM_005.jpg	99
723.314	0.843	843.2	repeat	Run1	repeat/STIM_005.jpg	99
727.438	0.775	775.4	repeat	Run1	repeat/STIM_006.jpg	100
730.639	0.931	931.1	repeat	Run1	repeat/STIM_006.jpg	99
734.703	0.536	535.9	repeat	Run1	repeat/STIM_006.jpg	99
738.041	0.501	500.7	repeat	Run1	repeat/STIM_006.jpg	99
742.483	0.918	918.0	repeat	Run1	repeat/STIM_006.jpg	100
747.424	0.48	479.5	repeat	Run1	repeat/STIM_007.jpg	100
750.336	0.632	632.5	repeat	Run1	repeat/STIM_007.jpg	100
754.568	0.709	708.9	repeat	Run1	repeat/STIM_007.jpg	100
757.997	0.9	899.9	repeat	Run1	repeat/STIM_007.jpg	100
762.363	0.737	737.1	repeat	Run1	repeat/STIM_007.jpg	99
766.444	0.816	816.4	repeat	Run1	repeat/STIM_008.jpg	99
770.017	0.755	754.8	repeat	Run1	repeat/STIM_008.jpg	99
773.211	0.478	477.8	repeat	Run1	repeat/STIM_008.jpg	100
777.159	0.58	579.6	repeat	Run1	repeat/STIM_008.jpg	99
781.741	0.488	487.5	repeat	Run1	repeat/STIM_008.jpg	99
785.853	0.657	656.9	repeat	Run1	repeat/STIM_009.jpg	100
789.626	0.928	927.8	repeat	Run1	repeat/STIM_009.jpg	100
794.145	0.908	908.0	repeat	Run1	repeat/STIM_009.jpg	99
797.542	0.799	799.1	repeat	Run1	repeat/STIM_009.jpg	100
801.92	0.82	819.6	repeat	Run1	repeat/STIM_009.jpg	99
805.338	0.719	718.7	repeat	Run1	repeat/STIM_010.jpg	99
808.681	0.628	628.2	repeat	Run1	repeat/STIM_010.jpg	99
811.829	0.677	676.6	repeat	Run1	repeat/STIM_010.jpg	100
816.262	0.876	876.5	repeat	Run1	repeat/STIM_010.jpg	99
819.359	0.79	790.3	repeat	Run1	repeat/STIM_010.jpg	99
823.32	0.636	635.5	repeat	Run1	repeat/STIM_011.jpg	100
827.684	0.82	820.0	repeat	Run1	repeat/STIM_011.jpg	99
832.472	0.706	705.5	repeat	Run1	repeat/STIM_011.jpg	99
835.356	0.538	538.1	repeat	Run1	repeat/STIM_011.jpg	99
839.414	0.585	584.9	repeat	Run1	repeat/STIM_011.jpg	99
843.936	0.58	579.5	repeat	Run1	repeat/STIM_012.jpg	100
848.532	0.515	515.0	repeat	Run1	repeat/STIM_012.jpg	99
851.537	0.601	601.2	repeat	Run1	repeat/STIM_012.jpg	99
855.554	0.81	810.3	repeat	Run1	repeat/STIM_012.jpg	99
860.378	0.883	883.0	repeat	Run1	repeat/STIM_012.jpg	100
863.586	0.903	902.7	repeat	Run1	repeat/STIM_013.jpg	99
868.535	0.504	504.0	repeat	Run1	repeat/STIM_013.jpg	100
871.251	0.738	737.6	repeat	Run1	repeat/STIM_013.jpg	100
874.228	0.794	794.0	repeat	Run1	repeat/STIM_013.jpg	99
877.858	0.762	762.1	repeat	Run1	repeat/STIM_013.jpg	100
882.351	0.824	824.2	repeat	Run1	repeat/STIM_014.jpg	99
886.914	0.744	744.2	repeat	Run1	repeat/STIM_014.jpg	100
890.391	0.827	827.2	repeat	Run1	repeat/STIM_014.jpg	99
895.24	0.813	812.9	repeat	Run1	repeat/STIM_014.jpg	100
899.811	0.934	934.5	repeat	Run1	repeat/STIM_014.jpg	99
904.035	2.253	2252.6	generate	Run2	generate/STIM_000.jpg	100
909.492	1.591	1590.8	generate	Run2	generate/STIM_000.jpg	100
915.115	1.415	1414.6	generate	Run2	generate/STIM_000.jpg	100
918.642	1.406	1406.5	generate	Run2	generate/STIM_000.jpg	100
923.846	1.833	1833.3	generate	Run2	generate/STIM_000.jpg	100
928.207	1.839	1838.6	generate	Run2	generate/STIM_001.jpg	99
933.558	1.727	1726.7	generate	Run2	generate/STIM_001.jpg	100
938.988	1.514	1513.7	generate	Run2	generate/STIM_001.jpg	99
943.212	1.372	1372.0	generate	Run2	generate/STIM_001.jpg	100
948.621	1.066	1066.5	generate	Run2	generate/STIM_001.jpg	100
952.723	2.373	2373.0	generate	Run2	generate/STIM_002.jpg	99
958.437	1.528	1527.8	generate	Run2	generate/STIM_002.jpg	100
962.89	1.29	1289.8	generate	Run2	generate/STIM_002.jpg	100
966.439	1.978	1977.7	generate	Run2	generate/STIM_002.jpg	99
972.074	0.811	811.0	generate	Run2	generate/STIM_002.jpg	100
975.99	2.14	2140.5	generate	Run2	generate/STIM_003.jpg	100
981.717	2.125	2124.9	generate	Run2	generate/STIM_003.jpg	99
987.301	1.285	1284.8	generate	Run2	generate/STIM_003.jpg	99
991.216	0.824	824.0	generate	Run2	generate/STIM_003.jpg	100
995.134	0.926	925.5	generate	Run2	generate/STIM_003.jpg	100
999.919	1.845	1845.4	generate	Run2	generate/STIM_004.jpg	99
1004.382	1.94	1940.3	generate	Run2	generate/STIM_004.jpg	100
1009.834	1.645	1645.0	generate	Run2	generate/STIM_004.jpg	100
1013.841	1.205	1205.4	generate	Run2	generate/STIM_004.jpg	99
1018.953	1.248	1248.4	generate	Run2	generate/STIM_004.jpg	99
1022.864	1.327	1327.4	generate	Run2	generate/STIM_005.jpg	99
1026.387	2.025	2025.2	generate	Run2	generate/STIM_005.jpg	99
1031.601	1.975	1974.8	generate	Run2	generate/STIM_005.jpg	100
1037.262	1.353	1352.9	generate	Run2	generate/STIM_005.jpg	100
1042.068	1.077	1077.3	generate	Run2	generate/STIM_005.jpg	99
1045.499	2.234	2234.3	generate	Run2	generate/STIM_006.jpg	100
1050.038	1.066	1066.4	generate	Run2	generate/STIM_006.jpg	99
1053.709	1.046	1046.4	generate	Run2	generate/STIM_006.jpg	100
1058.0	1.677	1677.1	generate	Run2	generate/STIM_006.jpg	100
1063.398	1.192	1191.8	generate	Run2	generate/STIM_006.jpg	100
1067.187	1.853	1852.9	generate	Run2	generate/STIM_007.jpg	100
1071.936	1.452	1452.1	generate	Run2	generate/STIM_007.jpg	99
1077.353	1.201	1200.8	generate	Run2	generate/STIM_007.jpg	100
1080.732	0.892	892.5	generate	Run2	generate/STIM_007.jpg	100
1085.177	1.459	1458.9	generate	Run2	generate/STIM_007.jpg	99
1089.747	1.12	1120.3	generate	Run2	generate/STIM_008.jpg	99
1094.776	1.529	1529.2	generate	Run2	generate/STIM_008.jpg	100
1099.763	1.603	1603.1	generate	Run2	generate/STIM_008.jpg	100
1104.796	1.4	1399.8	generate	Run2	generate/STIM_008.jpg	99
1108.831	1.971	1971.1	generate	Run2	generate/STIM_008.jpg	100
1114.376	2.052	2052.3	generate	Run2	generate/STIM_009.jpg	100
1119.722	1.427	1426.7	generate	Run2	generate/STIM_009.jpg	99
1123.92	1.277	1276.7	generate	Run2	generate/STIM_009.jpg	100
1128.861	1.087	1087.3	generate	Run2	generate/STIM_009.jpg	100
1133.798	1.226	1226.4	generate	Run2	generate/STIM_009.jpg	100
1138.794	1.89	1889.5	generate	Run2	generate/STIM_010.jpg	99
1143.575	2.181	2180.8	generate	Run2	generate/STIM_010.jpg	99
1148.659	1.189	1188.9	generate	Run2	generate/STIM_010.jpg	99
1153.506	1.638	1638.3	generate	Run2	generate/STIM_010.jpg	99
1158.54	1.872	1871.8	generate	Run2	generate/STIM_010.jpg	100
1163.302	1.932	1932.3	generate	Run2	generate/STIM_011.jpg	100
1169.169	1.754	1753.5	generate	Run2	generate/STIM_011.jpg	100
1174.314	1.501	1500.7	generate	Run2	generate/STIM_011.jpg	100
1179.226	0.954	953.8	generate	Run2	generate/STIM_011.jpg	99
1183.905	1.56	1560.3	generate	Run2	generate/STIM_011.jpg	99
1188.07	1.16	1160.3	generate	Run2	generate/STIM_012.jpg	100
1192.049	1.769	1769.3	generate	Run2	generate/STIM_012.jpg	99
1197.561	1.132	1132.1	generate	Run2	generate/STIM_012.jpg	99
1202.348	1.359	1359.4	generate	Run2	generate/STIM_012.jpg	99
1207.143	1.666	1666.1	generate	Run2	generate/STIM_012.jpg	100
1211.794	1.84	1840.5	generate	Run2	generate/STIM_013.jpg	100
1217.726	1.38	1380.3	generate	Run2	generate/STIM_013.jpg	100
1222.658	1.333	1333.4	generate	Run2	generate/STIM_013.jpg	100
1227.13	1.53	1529.9	generate	Run2	generate/STIM_013.jpg	100
1231.346	1.57	1569.7	generate	Run2	generate/STIM_013.jpg	99
1236.359	1.955	1954.8	generate	Run2	generate/STIM_014.jpg	100
1240.877	1.689	1688.7	generate	Run2	generate/STIM_014.jpg	100
1246.151	1.877	1877.0	generate	Run2	generate/STIM_014.jpg	100
1250.235	1.312	1312.2	generate	Run2	generate/STIM_014.jpg	99
1254.493	0.93	929.5	generate	Run2	generate/STIM_014.jpg	100
1257.751	2.086	2085.6	generate	Run2	generate/STIM_015.jpg	99
1262.217	2.175	2175.0	generate	Run2	generate/STIM_015.jpg	99
1268.176	1.762	1762.2	generate	Run2	generate/STIM_015.jpg	99
1272.432	0.918	917.8	generate	Run2	generate/STIM_015.jpg	99
1276.028	1.767	1767.0	generate	Run2	generate/STIM_015.jpg	100
1280.976	1.607	1606.8	generate	Run2	generate/STIM_016.jpg	99
1285.497	0.972	972.1	generate	Run2	generate/STIM_016.jpg	100
1288.898	1.596	1596.1	generate	Run2	generate/STIM_016.jpg	100
1293.949	0.889	889.2	generate	Run2	generate/STIM_016.jpg	100
1298.703	1.572	1571.6	generate	Run2	generate/STIM_016.jpg	100
1303.176	2.211	2210.6	generate	Run2	generate/STIM_017.jpg	100
1309.183	1.08	1079.6	generate	Run2	generate/STIM_017.jpg	99
1313.216	0.925	924.6	generate	Run2	generate/STIM_017.jpg	99
1318.133	1.726	1726.0	generate	Run2	generate/STIM_017.jpg	99
1322.169	1.232	1232.3	generate	Run2	generate/STIM_017.jpg	100
1327.025	1.884	1883.5	generate	Run2	generate/STIM_018.jpg	99
1331.956	1.96	1959.6	generate	Run2	generate/STIM_018.jpg	99
1336.81	1.486	1486.3	generate	Run2	generate/STIM_018.jpg	100
1341.365	0.898	897.5	generate	Run2	generate/STIM_018.jpg	100
1345.728	1.726	1726.5	generate	Run2	generate/STIM_018.jpg	99
1350.802	2.156	2156.1	generate	Run2	generate/STIM_019.jpg	100
1356.684	1.304	1304.0	generate	Run2	generate/STIM_019.jpg	100
1361.284	1.333	1333.0	generate	Run2	generate/STIM_019.jpg	100
1366.447	0.941	941.0	generate	Run2	generate/STIM_019.jpg	100
1369.631	0.886	886.4	generate	Run2	generate/STIM_019.jpg	100
1373.527	2.365	2364.9	generate	Run2	generate/STIM_020.jpg	100
1379.656	2.185	2185.0	generate	Run2	generate/STIM_020.jpg	100
1385.156	1.918	1918.2	generate	Run2	generate/STIM_020.jpg	100
1391.057	0.909	908.7	generate	Run2	generate/STIM_020.jpg	99
1395.795	1.906	1906.2	generate	Run2	generate/STIM_020.jpg	100
1400.81	1.16	1159.5	generate	Run2	generate/STIM_021.jpg	99
1405.368	1.419	1419.3	generate	Run2	generate/STIM_021.jpg	99
1409.805	1.625	1624.7	generate	Run2	generate/STIM_021.jpg	100
1413.987	1.588	1587.5	generate	Run2	generate/STIM_021.jpg	99
1419.559	1.86	1860.1	generate	Run2	generate/STIM_021.jpg	100
1424.953	1.043	1043.4	generate	Run2	generate/STIM_022.jpg	99
1428.298	1.754	1754.2	generate	Run2	generate/STIM_022.jpg	100
1432.335	1.495	1495.4	generate	Run2	generate/STIM_022.jpg	99
1436.226	1.266	1266.3	generate	Run2	generate/STIM_022.jpg	100
1441.363	1.674	1674.5	generate	Run2	generate/STIM_022.jpg	100
1446.841	1.347	1347.4	generate	Run2	generate/STIM_023.jpg	100
1451.13	1.24	1239.5	generate	Run2	generate/STIM_023.jpg	99
1454.787	0.912	912.2	generate	Run2	generate/STIM_023.jpg	100
1458.626	1.34	1339.6	generate	Run2	generate/STIM_023.jpg	100
1462.746	1.337	1336.6	generate	Run2	generate/STIM_023.jpg	99
1468.023	1.636	1636.2	generate	Run2	generate/STIM_024.jpg	99
1471.903	1.728	1728.0	generate	Run2	generate/STIM_024.jpg	99
1476.834	1.594	1594.5	generate	Run2	generate/STIM_024.jpg	99
1481.692	1.523	1523.2	generate	Run2	generate/STIM_024.jpg	99
1487.276	1.471	1471.3	generate	Run2	generate/STIM_024.jpg	99
1492.066	0.704	704.5	repeat	Run2	repeat/STIM_000.jpg	100
1496.051	0.892	891.9	repeat	Run2	repeat/STIM_000.jpg	99
1499.715	0.523	523.4	repeat	Run2	repeat/STIM_000.jpg	99
1502.46	0.638	637.9	repeat	Run2	repeat/STIM_000.jpg	100
1505.414	0.583	582.8	repeat	Run2	repeat/STIM_000.jpg	99
1509.589	0.809	808.9	repeat	Run2	repeat/STIM_001.jpg	100
1512.567	0.493	492.7	repeat	Run2	repeat/STIM_001.jpg	100
1515.569	0.836	835.9	repeat	Run2	repeat/STIM_001.jpg	99
1518.784	0.833	833.2	repeat	Run2	repeat/STIM_001.jpg	99
1522.961	0.719	718.6	repeat	Run2	repeat/STIM_001.jpg	100
1527.611	0.888	888.2	repeat	Run2	repeat/STIM_002.jpg	100
1532.367	0.782	781.9	repeat	Run2	repeat/STIM_002.jpg	99
1536.605	0.783	783.4	repeat	Run2	repeat/STIM_002.jpg	99
1541.175	0.591	591.1	repeat	Run2	repeat/STIM_002.jpg	100
1544.977	0.789	788.7	repeat	Run2	repeat/STIM_002.jpg	100
1548.991	0.635	635.3	repeat	Run2	repeat/STIM_003.jpg	100
1552.258	0.935	935.0	repeat	Run2	repeat/STIM_003.jpg	99
1556.865	0.829	828.8	repeat	Run2	repeat/STIM_003.jpg	100
1560.857	0.751	750.7	repeat	Run2	repeat/STIM_003.jpg	99
1563.682	0.787	786.6	repeat	Run2	repeat/STIM_003.jpg	100
1566.965	0.904	903.9	repeat	Run2	repeat/STIM_004.jpg	99
1570.743	0.654	654.5	repeat	Run2	repeat/STIM_004.jpg	99
1575.076	0.815	815.2	repeat	Run2	repeat/STIM_004.jpg	100
1578.7	0.768	768.4	repeat	Run2	repeat/STIM_004.jpg	100
1581.575	0.527	527.2	repeat	Run2	repeat/STIM_004.jpg	99
1585.767	0.915	914.7	repeat	Run2	repeat/STIM_005.jpg	100
1589.761	0.59	590.4	repeat	Run2	repeat/STIM_005.jpg	100
1593.839	0.626	626.4	repeat	Run2	repeat/STIM_005.jpg	100
1596.583	0.588	588.5	repeat	Run2	repeat/STIM_005.jpg	99
1599.986	0.487	487.2	repeat	Run2	repeat/STIM_005.jpg	100
1604.168	0.649	648.7	repeat	Run2	repeat/STIM_006.jpg	99
1607.904	0.6	599.9	repeat	Run2	repeat/STIM_006.jpg	100
1611.705	0.472	472.3	repeat	Run2	repeat/STIM_006.jpg	100
1614.946	0.526	526.5	repeat	Run2	repeat/STIM_006.jpg	99
1617.555	0.595	594.8	repeat	Run2	repeat/STIM_006.jpg	100
1621.185	0.635	635.4	repeat	Run2	repeat/STIM_007.jpg	99
1625.8	0.494	493.7	repeat	Run2	repeat/STIM_007.jpg	100
1629.215	0.718	717.9	repeat	Run2	repeat/STIM_007.jpg	100
1632.368	0.888	887.6	repeat	Run2	repeat/STIM_007.jpg	99
1636.48	0.601	600.8	repeat	Run2	repeat/STIM_007.jpg	99
1640.934	0.73	729.6	repeat	Run2	repeat/STIM_008.jpg	100
1643.975	0.701	700.7	repeat	Run2	repeat/STIM_008.jpg	99
1647.901	0.814	814.0	repeat	Run2	repeat/STIM_008.jpg	100
1651.426	0.584	584.1	repeat	Run2	repeat/STIM_008.jpg	100
1655.04	0.514	513.7	repeat	Run2	repeat/STIM_008.jpg	100
1659.021	0.655	655.0	repeat	Run2	repeat/STIM_009.jpg	99
1661.745	0.906	905.7	repeat	Run2	repeat/STIM_009.jpg	100
1665.361	0.621	621.2	repeat	Run2	repeat/STIM_009.jpg	99
1669.414	0.778	778.1	repeat	Run2	repeat/STIM_009.jpg	100
1672.871	0.865	864.9	repeat	Run2	repeat/STIM_009.jpg	100
1677.338	0.801	801.3	repeat	Run2	repeat/STIM_010.jpg	99
1681.456	0.721	720.8	repeat	Run2	repeat/STIM_010.jpg	100
1685.184	0.863	863.4	repeat	Run2	repeat/STIM_010.jpg	99
1689.616	0.938	938.0	repeat	Run2	repeat/STIM_010.jpg	99
1692.85	0.66	659.7	repeat	Run2	repeat/STIM_010.jpg	100
1695.871	0.829	829.0	repeat	Run2	repeat/STIM_011.jpg	100
1700.462	0.581	581.4	repeat	Run2	repeat/STIM_011.jpg	99
1704.87	0.934	934.3	repeat	Run2	repeat/STIM_011.jpg	99
1708.048	0.688	687.7	repeat	Run2	repeat/STIM_011.jpg	100
1711.954	0.633	632.7	repeat	Run2	repeat/STIM_011.jpg	99
1714.92	0.864	864.3	repeat	Run2	repeat/STIM_012.jpg	99
1718.403	0.912	912.3	repeat	Run2	repeat/STIM_012.jpg	99
1721.895	0.874	874.1	repeat	Run2	repeat/STIM_012.jpg	100
1726.103	0.509	508.9	repeat	Run2	repeat/STIM_012.jpg	99
1728.884	0.553	552.9	repeat	Run2	repeat/STIM_012.jpg	99
1732.803	0.904	904.0	repeat	Run2	repeat/STIM_013.jpg	100
1737.368	0.829	828.8	repeat	Run2	repeat/STIM_013.jpg	100
1741.12	0.739	739.3	repeat	Run2	repeat/STIM_013.jpg	99
1744.695	0.942	941.5	repeat	Run2	repeat/STIM_013.jpg	99
1748.825	0.724	724.5	repeat	Run2	repeat/STIM_013.jpg	100
1751.736	0.472	472.5	repeat	Run2	repeat/STIM_014.jpg	99
1755.721	0.788	787.7	repeat	Run2	repeat/STIM_014.jpg	100
1760.117	0.651	650.9	repeat	Run2	repeat/STIM_014.jpg	99
1763.077	0.874	874.0	repeat	Run2	repeat/STIM_014.jpg	99
1767.175	0.85	849.6	repeat	Run2	repeat/STIM_014.jpg	100
1771.84	1.03	1029.7	generate	Run3	generate/STIM_000.jpg	99
1776.471	1.024	1024.3	generate	Run3	generate/STIM_000.jpg	99
1779.832	1.919	1918.6	generate	Run3	generate/STIM_000.jpg	99
1785.521	1.122	1121.9	generate	Run3	generate/STIM_000.jpg	99
1789.552	0.812	812.4	generate	Run3	generate/STIM_000.jpg	99
1794.207	1.383	1383.4	generate	Run3	generate/STIM_001.jpg	100
1798.462	1.816	1816.5	generate	Run3	generate/STIM_001.jpg	99
1803.109	1.797	1797.3	generate	Run3	generate/STIM_001.jpg	99
1808.607	1.956	1955.9	generate	Run3	generate/STIM_001.jpg	99
1813.041	0.809	808.6	generate	Run3	generate/STIM_001.jpg	100
1817.326	1.255	1255.4	generate	Run3	generate/STIM_002.jpg	99
1821.334	1.938	1937.9	generate	Run3	generate/STIM_002.jpg	99
1827.369	1.722	1721.5	generate	Run3	generate/STIM_002.jpg	100
1831.279	1.04	1040.1	generate	Run3	generate/STIM_002.jpg	99
1835.697	1.732	1732.1	generate	Run3	generate/STIM_002.jpg	100
1841.432	1.328	1327.5	generate	Run3	generate/STIM_003.jpg	100
1845.738	1.164	1164.1	generate	Run3	generate/STIM_003.jpg	100
1849.95	1.849	1848.9	generate	Run3	generate/STIM_003.jpg	100
1854.425	1.431	1431.4	generate	Run3	generate/STIM_003.jpg	100
1859.483	1.445	1444.9	generate	Run3	generate/STIM_003.jpg	100
1863.339	1.583	1583.1	generate	Run3	generate/STIM_004.jpg	99
1868.151	1.81	1810.3	generate	Run3	generate/STIM_004.jpg	99
1872.943	1.055	1055.2	generate	Run3	generate/STIM_004.jpg	100
1876.833	1.06	1060.2	generate	Run3	generate/STIM_004.jpg	99
1881.951	1.697	1696.8	generate	Run3	generate/STIM_004.jpg	100
1887.187	0.901	900.6	generate	Run3	generate/STIM_005.jpg	100
1891.476	1.904	1903.6	generate	Run3	generate/STIM_005.jpg	100
1895.571	1.578	1578.4	generate	Run3	generate/STIM_005.jpg	99
1900.715	0.961	961.2	generate	Run3	generate/STIM_005.jpg	100
1903.976	1.061	1061.4	generate	Run3	generate/STIM_005.jpg	99
1907.735	1.031	1031.2	generate	Run3	generate/STIM_006.jpg	99
1911.777	1.432	1432.4	generate	Run3	generate/STIM_006.jpg	99
1915.912	1.763	1763.3	generate	Run3	generate/STIM_006.jpg	99
1920.39	1.017	1016.9	generate	Run3	generate/STIM_006.jpg	100
1923.644	0.809	808.7	generate	Run3	generate/STIM_006.jpg	100
1926.887	1.806	1806.1	generate	Run3	generate/STIM_007.jpg	99
1932.374	1.138	1138.5	generate	Run3	generate/STIM_007.jpg	99
1937.486	0.885	885.4	generate	Run3	generate/STIM_007.jpg	100
1942.164	1.476	1476.5	generate	Run3	generate/STIM_007.jpg	100
1945.865	1.914	1914.0	generate	Run3	generate/STIM_007.jpg	99
1951.057	0.959	959.3	generate	Run3	generate/STIM_008.jpg	100
1955.433	1.566	1566.0	generate	Run3	generate/STIM_008.jpg	99
1960.289	1.545	1544.6	generate	Run3	generate/STIM_008.jpg	99
1963.957	0.969	969.3	generate	Run3	generate/STIM_008.jpg	99
1968.751	1.68	1679.9	generate	Run3	generate/STIM_008.jpg	100
1973.083	1.475	1475.3	generate	Run3	generate/STIM_009.jpg	100
1977.314	1.428	1427.5	generate	Run3	generate/STIM_009.jpg	99
1981.545	1.924	1924.2	generate	Run3	generate/STIM_009.jpg	99
1985.737	1.247	1247.0	generate	Run3	generate/STIM_009.jpg	99
1989.128	1.92	1920.5	generate	Run3	generate/STIM_009.jpg	99
1993.696	0.825	825.4	generate	Run3	generate/STIM_010.jpg	100
1998.207	1.74	1740.0	generate	Run3	generate/STIM_010.jpg	99
2002.732	1.651	1651.0	generate	Run3	generate/STIM_010.jpg	99
2007.092	1.851	1851.3	generate	Run3	generate/STIM_010.jpg	99
2011.654	1.045	1044.9	generate	Run3	generate/STIM_010.jpg	100
2015.21	0.798	798.1	generate	Run3	generate/STIM_011.jpg	99
2018.327	1.663	1663.1	generate	Run3	generate/STIM_011.jpg	100
2024.035	1.883	1882.9	generate	Run3	generate/STIM_011.jpg	100
2029.489	1.571	1570.9	generate	Run3	generate/STIM_011.jpg	99
2035.124	1.738	1738.1	generate	Run3	generate/STIM_011.jpg	99
2040.714	1.416	1416.5	generate	Run3	generate/STIM_012.jpg	99
2044.832	1.69	1690.5	generate	Run3	generate/STIM_012.jpg	99
2050.486	1.794	1793.7	generate	Run3	generate/STIM_012.jpg	99
2054.806	1.601	1601.1	generate	Run3	generate/STIM_012.jpg	100
2059.403	1.071	1071.2	generate	Run3	generate/STIM_012.jpg	100
2063.751	1.379	1378.6	generate	Run3	generate/STIM_013.jpg	100
2068.781	1.506	1506.0	generate	Run3	generate/STIM_013.jpg	99
2073.345	1.791	1790.9	generate	Run3	generate/STIM_013.jpg	99
2078.92	1.676	1675.6	generate	Run3	generate/STIM_013.jpg	100
2083.572	1.167	1167.3	generate	Run3	generate/STIM_013.jpg	100
2086.857	0.823	822.9	generate	Run3	generate/STIM_014.jpg	99
2091.452	1.38	1379.9	generate	Run3	generate/STIM_014.jpg	99
2096.84	1.044	1043.8	generate	Run3	generate/STIM_014.jpg	99
2101.464	1.473	1473.0	generate	Run3	generate/STIM_014.jpg	99
2105.4	1.026	1025.8	generate	Run3	generate/STIM_014.jpg	99
2109.964	1.581	1580.7	generate	Run3	generate/STIM_015.jpg	99
2114.379	1.345	1345.3	generate	Run3	generate/STIM_015.jpg	100
2118.586	1.203	1202.7	generate	Run3	generate/STIM_015.jpg	100
2122.499	1.679	1679.1	generate	Run3	generate/STIM_015.jpg	100
2127.125	0.866	866.5	generate	Run3	generate/STIM_015.jpg	99
2130.588	1.238	1238.3	generate	Run3	generate/STIM_016.jpg	99
2135.663	1.884	1883.5	generate	Run3	generate/STIM_016.jpg	99
2141.296	1.467	1466.6	generate	Run3	generate/STIM_016.jpg	100
2145.993	1.114	1113.9	generate	Run3	generate/STIM_016.jpg	99
2149.223	1.691	1691.2	generate	Run3	generate/STIM_016.jpg	100
2154.878	1.291	1290.9	generate	Run3	generate/STIM_017.jpg	100
2158.281	1.431	1431.2	generate	Run3	generate/STIM_017.jpg	100
2162.096	1.094	1094.3	generate	Run3	generate/STIM_017.jpg	99
2166.001	1.545	1545.1	generate	Run3	generate/STIM_017.jpg	100
2171.076	1.867	1867.2	generate	Run3	generate/STIM_017.jpg	100
2176.921	1.738	1738.1	generate	Run3	generate/STIM_018.jpg	99
2181.783	1.188	1188.1	generate	Run3	generate/STIM_018.jpg	99
2187.002	1.244	1243.7	generate	Run3	generate/STIM_018.jpg	100
2192.156	1.067	1066.8	generate	Run3	generate/STIM_018.jpg	100
2196.268	0.892	892.5	generate	Run3	generate/STIM_018.jpg	99
2200.499	0.874	874.4	generate	Run3	generate/STIM_019.jpg	99
2203.929	0.921	921.3	generate	Run3	generate/STIM_019.jpg	100
2207.943	1.168	1167.7	generate	Run3	generate/STIM_019.jpg	100
2212.364	0.876	876.0	generate	Run3	generate/STIM_019.jpg	100
2215.723	1.636	1635.9	generate	Run3	generate/STIM_019.jpg	100
2220.583	0.931	931.3	generate	Run3	generate/STIM_020.jpg	100
2224.67	1.043	1042.8	generate	Run3	generate/STIM_020.jpg	100
2229.045	1.225	1225.0	generate	Run3	generate/STIM_020.jpg	100
2234.254	1.191	1191.4	generate	Run3	generate/STIM_020.jpg	99
2238.784	1.217	1216.8	generate	Run3	generate/STIM_020.jpg	99
2243.204	1.954	1953.6	generate	Run3	generate/STIM_021.jpg	99
2248.223	1.531	1531.3	generate	Run3	generate/STIM_021.jpg	99
2252.148	1.779	1778.8	generate	Run3	generate/STIM_021.jpg	100
2256.422	1.38	1380.5	generate	Run3	generate/STIM_021.jpg	99
2261.133	1.281	1280.7	generate	Run3	generate/STIM_021.jpg	100
2264.964	1.016	1016.0	generate	Run3	generate/STIM_022.jpg	100
2269.974	1.229	1229.3	generate	Run3	generate/STIM_022.jpg	99
2273.285	1.344	1344.1	generate	Run3	generate/STIM_022.jpg	100
2277.955	1.878	1877.5	generate	Run3	generate/STIM_022.jpg	99
2282.617	1.702	1701.5	generate	Run3	generate/STIM_022.jpg	99
2288.022	1.054	1054.3	generate	Run3	generate/STIM_023.jpg	100
2291.339	1.654	1653.6	generate	Run3	generate/STIM_023.jpg	99
2296.333	1.339	1339.3	generate	Run3	generate/STIM_023.jpg	99
2301.254	1.303	1303.0	generate	Run3	generate/STIM_023.jpg	99
2305.396	0.804	803.8	generate	Run3	generate/STIM_023.jpg	99
2309.866	1.069	1069.0	generate	Run3	generate/STIM_024.jpg	100
2314.504	0.825	824.9	generate	Run3	generate/STIM_024.jpg	99
2317.393	1.282	1281.5	generate	Run3	generate/STIM_024.jpg	100
2321.608	0.795	795.2	generate	Run3	generate/STIM_024.jpg	100
2325.518	1.654	1653.6	generate	Run3	generate/STIM_024.jpg	100
2330.34	0.75	750.2	repeat	Run3	repeat/STIM_000.jpg	100
2334.691	0.638	637.8	repeat	Run3	repeat/STIM_000.jpg	100
2337.585	0.636	636.2	repeat	Run3	repeat/STIM_000.jpg	99
2341.647	0.53	529.7	repeat	Run3	repeat/STIM_000.jpg	100
2345.027	0.881	880.9	repeat	Run3	repeat/STIM_000.jpg	99
2349.103	0.874	873.7	repeat	Run3	repeat/STIM_001.jpg	100
2353.574	0.889	889.0	repeat	Run3	repeat/STIM_001.jpg	100
2357.087	0.616	616.1	repeat	Run3	repeat/STIM_001.jpg	99
2360.47	0.74	739.9	repeat	Run3	repeat/STIM_001.jpg	99
2364.274	0.636	636.0	repeat	Run3	repeat/STIM_001.jpg	100
2367.005	0.821	821.0	repeat	Run3	repeat/STIM_002.jpg	100
2370.691	0.532	532.2	repeat	Run3	repeat/STIM_002.jpg	100
2374.868	0.629	628.8	repeat	Run3	repeat/STIM_002.jpg	100
2378.907	0.78	779.6	repeat	Run3	repeat/STIM_002.jpg	99
2383.195	0.656	656.3	repeat	Run3	repeat/STIM_002.jpg	99
2387.054	0.898	898.1	repeat	Run3	repeat/STIM_003.jpg	99
2391.27	0.542	542.3	repeat	Run3	repeat/STIM_003.jpg	99
2394.416	0.599	599.4	repeat	Run3	repeat/STIM_003.jpg	99
2398.59	0.696	695.8	repeat	Run3	repeat/STIM_003.jpg	100
2402.381	0.911	911.3	repeat	Run3	repeat/STIM_003.jpg	99
2405.64	0.688	687.6	repeat	Run3	repeat/STIM_004.jpg	99
2410.19	0.73	730.0	repeat	Run3	repeat/STIM_004.jpg	99
2414.066	0.819	819.3	repeat	Run3	repeat/STIM_004.jpg	100
2417.871	0.654	654.0	repeat	Run3	repeat/STIM_004.jpg	100
2421.8	0.838	838.0	repeat	Run3	repeat/STIM_004.jpg	99
2425.629	0.731	731.4	repeat	Run3	repeat/STIM_005.jpg	100
2428.44	0.517	516.8	repeat	Run3	repeat/STIM_005.jpg	100
2432.786	0.738	737.9	repeat	Run3	repeat/STIM_005.jpg	99
2436.674	0.934	934.4	repeat	Run3	repeat/STIM_005.jpg	99
2440.533	0.539	539.4	repeat	Run3	repeat/STIM_005.jpg	100
2443.861	0.51	509.7	repeat	Run3	repeat/STIM_006.jpg	99
2446.45	0.615	614.8	repeat	Run3	repeat/STIM_006.jpg	100
2449.157	0.803	803.4	repeat	Run3	repeat/STIM_006.jpg	99
2453.37	0.778	778.3	repeat	Run3	repeat/STIM_006.jpg	99
2456.701	0.923	923.1	repeat	Run3	repeat/STIM_006.jpg	100
2459.967	0.533	533.2	repeat	Run3	repeat/STIM_007.jpg	100
2464.48	0.683	683.0	repeat	Run3	repeat/STIM_007.jpg	99
2469.172	0.639	638.7	repeat	Run3	repeat/STIM_007.jpg	99
2473.622	0.682	682.4	repeat	Run3	repeat/STIM_007.jpg	100
2478.237	0.861	861.3	repeat	Run3	repeat/STIM_007.jpg	100
2482.83	0.837	836.6	repeat	Run3	repeat/STIM_008.jpg	100
2487.458	0.696	696.4	repeat	Run3	repeat/STIM_008.jpg	100
2490.435	0.852	852.0	repeat	Run3	repeat/STIM_008.jpg	99
2494.245	0.762	762.0	repeat	Run3	repeat/STIM_008.jpg	99
2497.836	0.786	785.8	repeat	Run3	repeat/STIM_008.jpg	100
2501.993	0.763	763.2	repeat	Run3	repeat/STIM_009.jpg	99
2505.46	0.857	856.6	repeat	Run3	repeat/STIM_009.jpg	100
2509.252	0.648	647.6	repeat	Run3	repeat/STIM_009.jpg	99
2511.984	0.57	570.2	repeat	Run3	repeat/STIM_009.jpg	100
2515.918	0.605	604.8	repeat	Run3	repeat/STIM_009.jpg	99
2519.259	0.669	668.8	repeat	Run3	repeat/STIM_010.jpg	100
2523.103	0.877	876.9	repeat	Run3	repeat/STIM_010.jpg	100
2526.864	0.695	695.1	repeat	Run3	repeat/STIM_010.jpg	99
2530.871	0.814	813.6	repeat	Run3	repeat/STIM_010.jpg	100
2533.924	0.78	780.2	repeat	Run3	repeat/STIM_010.jpg	99
2537.441	0.9	899.6	repeat	Run3	repeat/STIM_011.jpg	100
2542.033	0.549	548.7	repeat	Run3	repeat/STIM_011.jpg	100
2546.047	0.796	796.2	repeat	Run3	repeat/STIM_011.jpg	100
2549.592	0.861	861.0	repeat	Run3	repeat/STIM_011.jpg	99
2554.339	0.547	547.0	repeat	Run3	repeat/STIM_011.jpg	100
2557.169	0.885	885.4	repeat	Run3	repeat/STIM_012.jpg	99
2560.903	0.664	664.0	repeat	Run3	repeat/STIM_012.jpg	100
2565.03	0.866	866.5	repeat	Run3	repeat/STIM_012.jpg	99
2568.105	0.877	877.3	repeat	Run3	repeat/STIM_012.jpg	100
2572.348	0.587	586.8	repeat	Run3	repeat/STIM_012.jpg	100
2576.617	0.546	545.6	repeat	Run3	repeat/STIM_013.jpg	100
2580.744	0.718	718.0	repeat	Run3	repeat/STIM_013.jpg	100
2583.591	0.706	705.9	repeat	Run3	repeat/STIM_013.jpg	100
2587.79	0.706	705.5	repeat	Run3	repeat/STIM_013.jpg	100
2592.021	0.935	934.9	repeat	Run3	repeat/STIM_013.jpg	100
2595.585	0.892	892.0	repeat	Run3	repeat/STIM_014.jpg	100
2599.457	0.798	797.7	repeat	Run3	repeat/STIM_014.jpg	100
2603.464	0.863	863.3	repeat	Run3	repeat/STIM_014.jpg	99
2606.764	0.707	707.4	repeat	Run3	repeat/STIM_014.jpg	100
2609.52	0.771	771.3	repeat	Run3	repeat/STIM_014.jpg	100
2612.474	1.533	1533.2	generate	Run4	generate/STIM_000.jpg	99
2617.92	1.746	1745.7	generate	Run4	generate/STIM_000.jpg	100
2623.229	0.809	808.6	generate	Run4	generate/STIM_000.jpg	100
2627.001	1.314	1313.7	generate	Run4	generate/STIM_000.jpg	99
2632.322	1.596	1595.7	generate	Run4	generate/STIM_000.jpg	99
2637.714	1.403	1403.3	generate	Run4	generate/STIM_001.jpg	99
2642.222	1.368	1368.2	generate	Run4	generate/STIM_001.jpg	100
2647.287	1.754	1754.1	generate	Run4	generate/STIM_001.jpg	99
2652.14	1.56	1560.5	generate	Run4	generate/STIM_001.jpg	99
2656.57	0.915	914.6	generate	Run4	generate/STIM_001.jpg	100
2659.991	1.386	1385.6	generate	Run4	generate/STIM_002.jpg	99
2664.195	1.488	1488.2	generate	Run4	generate/STIM_002.jpg	100
2669.384	1.153	1152.6	generate	Run4	generate/STIM_002.jpg	100
2672.991	1.774	1774.2	generate	Run4	generate/STIM_002.jpg	99
2677.678	1.876	1876.3	generate	Run4	generate/STIM_002.jpg	100
2683.064	1.881	1881.4	generate	Run4	generate/STIM_003.jpg	99
2688.838	1.319	1319.3	generate	Run4	generate/STIM_003.jpg	100
2692.255	1.052	1052.3	generate	Run4	generate/STIM_003.jpg	99
2696.084	1.631	1631.0	generate	Run4	generate/STIM_003.jpg	100
2700.149	1.386	1386.2	generate	Run4	generate/STIM_003.jpg	99
2703.859	1.214	1213.7	generate	Run4	generate/STIM_004.jpg	100
2708.82	0.884	884.0	generate	Run4	generate/STIM_004.jpg	100
2712.88	0.918	918.1	generate	Run4	generate/STIM_004.jpg	100
2717.266	1.036	1035.9	generate	Run4	generate/STIM_004.jpg	99
2720.918	1.64	1640.4	generate	Run4	generate/STIM_004.jpg	99
2725.07	0.798	798.0	generate	Run4	generate/STIM_005.jpg	99
2728.273	1.694	1693.5	generate	Run4	generate/STIM_005.jpg	100
2732.877	1.063	1063.2	generate	Run4	generate/STIM_005.jpg	99
2737.66	1.537	1537.3	generate	Run4	generate/STIM_005.jpg	100
2742.401	1.342	1342.4	generate	Run4	generate/STIM_005.jpg	99
2746.14	1.927	1927.0	generate	Run4	generate/STIM_006.jpg	100
2751.635	1.229	1229.3	generate	Run4	generate/STIM_006.jpg	99
2755.381	1.835	1835.2	generate	Run4	generate/STIM_006.jpg	99
2760.875	1.603	1603.2	generate	Run4	generate/STIM_006.jpg	100
2766.109	0.836	836.3	generate	Run4	generate/STIM_006.jpg	100
2770.668	1.861	1861.3	generate	Run4	generate/STIM_007.jpg	100
2776.411	1.823	1823.3	generate	Run4	generate/STIM_007.jpg	99
2781.363	1.822	1821.5	generate	Run4	generate/STIM_007.jpg	99
2785.886	1.624	1624.3	generate	Run4	generate/STIM_007.jpg	99
2790.717	0.937	936.8	generate	Run4	generate/STIM_007.jpg	99
2794.602	1.637	1636.7	generate	Run4	generate/STIM_008.jpg	99
2798.443	1.126	1125.9	generate	Run4	generate/STIM_008.jpg	99
2803.021	1.159	1159.1	generate	Run4	generate/STIM_008.jpg	100
2806.365	1.313	1313.2	generate	Run4	generate/STIM_008.jpg	100
2810.404	1.036	1035.6	generate	Run4	generate/STIM_008.jpg	100
2814.752	1.952	1952.5	generate	Run4	generate/STIM_009.jpg	99
2820.82	1.353	1353.2	generate	Run4	generate/STIM_009.jpg	100
2824.263	1.512	1512.1	generate	Run4	generate/STIM_009.jpg	100
2828.652	0.885	885.0	generate	Run4	generate/STIM_009.jpg	99
2832.618	1.115	1115.4	generate	Run4	generate/STIM_009.jpg	99
2837.092	1.697	1696.9	generate	Run4	generate/STIM_010.jpg	100
2841.264	1.866	1866.0	generate	Run4	generate/STIM_010.jpg	99
2845.313	1.664	1664.3	generate	Run4	generate/STIM_010.jpg	100
2850.109	0.811	810.8	generate	Run4	generate/STIM_010.jpg	100
2853.39	0.821	820.8	generate	Run4	generate/STIM_010.jpg	99
2857.992	1.193	1192.7	generate	Run4	generate/STIM_011.jpg	100
2861.723	1.258	1258.0	generate	Run4	generate/STIM_011.jpg	100
2865.795	1.818	1817.8	generate	Run4	generate/STIM_011.jpg	99
2870.043	0.866	866.3	generate	Run4	generate/STIM_011.jpg	100
2874.866	1.383	1383.3	generate	Run4	generate/STIM_011.jpg	100
2880.138	0.834	834.5	generate	Run4	generate/STIM_012.jpg	100
2883.212	1.13	1130.2	generate	Run4	generate/STIM_012.jpg	99
2888.392	0.923	922.7	generate	Run4	generate/STIM_012.jpg	99
2893.282	1.342	1342.1	generate	Run4	generate/STIM_012.jpg	99
2897.403	0.966	965.8	generate	Run4	generate/STIM_012.jpg	99
2902.21	1.832	1831.7	generate	Run4	generate/STIM_013.jpg	100
2906.864	1.883	1882.7	generate	Run4	generate/STIM_013.jpg	100
2911.58	0.909	908.6	generate	Run4	generate/STIM_013.jpg	100
2915.627	1.534	1534.5	generate	Run4	generate/STIM_013.jpg	99
2920.126	1.505	1504.7	generate	Run4	generate/STIM_013.jpg	100
2924.081	1.24	1239.7	generate	Run4	generate/STIM_014.jpg	99
2929.233	1.286	1286.0	generate	Run4	generate/STIM_014.jpg	99
2933.378	1.332	1331.5	generate	Run4	generate/STIM_014.jpg	99
2938.321	1.075	1074.7	generate	Run4	generate/STIM_014.jpg	100
2941.682	1.522	1521.6	generate	Run4	generate/STIM_014.jpg	99
2946.866	1.012	1011.5	generate	Run4	generate/STIM_015.jpg	99
2950.773	1.106	1106.2	generate	Run4	generate/STIM_015.jpg	99
2955.308	1.321	1321.0	generate	Run4	generate/STIM_015.jpg	99
2958.99	1.185	1184.6	generate	Run4	generate/STIM_015.jpg	100
2963.648	1.282	1282.2	generate	Run4	generate/STIM_015.jpg	100
2968.674	0.859	859.0	generate	Run4	generate/STIM_016.jpg	100
2972.027	0.872	871.5	generate	Run4	generate/STIM_016.jpg	100
2976.019	1.024	1023.9	generate	Run4	generate/STIM_016.jpg	99
2980.705	1.837	1836.9	generate	Run4	generate/STIM_016.jpg	99
2984.922	1.668	1668.4	generate	Run4	generate/STIM_016.jpg	100
2989.248	1.717	1716.6	generate	Run4	generate/STIM_017.jpg	100
2993.368	1.063	1063.0	generate	Run4	generate/STIM_017.jpg	99
2997.154	1.526	1526.5	generate	Run4	generate/STIM_017.jpg	100
3001.067	1.767	1766.7	generate	Run4	generate/STIM_017.jpg	100
3006.564	1.786	1786.3	generate	Run4	generate/STIM_017.jpg	100
3010.614	1.92	1920.1	generate	Run4	generate/STIM_018.jpg	99
3015.417	1.021	1021.3	generate	Run4	generate/STIM_018.jpg	100
3019.687	1.118	1118.1	generate	Run4	generate/STIM_018.jpg	100
3024.151	1.167	1167.0	generate	Run4	generate/STIM_018.jpg	100
3029.019	0.98	979.7	generate	Run4	generate/STIM_018.jpg	99
3032.871	1.145	1144.6	generate	Run4	generate/STIM_019.jpg	99
3036.355	1.931	1931.1	generate	Run4	generate/STIM_019.jpg	100
3040.748	1.849	1849.3	generate	Run4	generate/STIM_019.jpg	99
3045.684	1.335	1335.1	generate	Run4	generate/STIM_019.jpg	100
3049.385	1.38	1380.5	generate	Run4	generate/STIM_019.jpg	100
3054.827	0.909	909.2	generate	Run4	generate/STIM_020.jpg	100
3058.05	1.937	1936.8	generate	Run4	generate/STIM_020.jpg	100
3063.878	0.876	876.5	generate	Run4	generate/STIM_020.jpg	99
3067.743	1.865	1864.8	generate	Run4	generate/STIM_020.jpg	99
3073.242	0.979	978.7	generate	Run4	generate/STIM_020.jpg	100
3078.213	1.782	1781.7	generate	Run4	generate/STIM_021.jpg	100
3082.662	1.064	1063.9	generate	Run4	generate/STIM_021.jpg	100
3087.201	1.296	1296.3	generate	Run4	generate/STIM_021.jpg	100
3091.28	1.335	1335.0	generate	Run4	generate/STIM_021.jpg	99
3095.414	0.86	859.8	generate	Run4	generate/STIM_021.jpg	99
3099.216	0.805	804.6	generate	Run4	generate/STIM_022.jpg	99
3102.25	1.442	1441.9	generate	Run4	generate/STIM_022.jpg	99
3106.891	1.963	1962.7	generate	Run4	generate/STIM_022.jpg	100
3112.42	0.957	957.4	generate	Run4	generate/STIM_022.jpg	100
3115.697	1.528	1527.6	generate	Run4	generate/STIM_022.jpg	100
3120.205	1.401	1400.6	generate	Run4	generate/STIM_023.jpg	99
3124.372	1.418	1417.8	generate	Run4	generate/STIM_023.jpg	100
3128.456	0.852	852.5	generate	Run4	generate/STIM_023.jpg	100
3133.127	1.403	1403.3	generate	Run4	generate/STIM_023.jpg	99
3137.973	1.29	1290.5	generate	Run4	generate/STIM_023.jpg	99
3141.662	1.063	1063.2	generate	Run4	generate/STIM_024.jpg	100
3146.346	1.878	1877.7	generate	Run4	generate/STIM_024.jpg	99
3151.149	1.63	1630.0	generate	Run4	generate/STIM_024.jpg	99
3156.316	1.634	1634.5	generate	Run4	generate/STIM_024.jpg	99
3161.03	0.992	992.5	generate	Run4	generate/STIM_024.jpg	99
3165.174	0.891	890.6	repeat	Run4	repeat/STIM_000.jpg	100
3169.689	0.926	926.5	repeat	Run4	repeat/STIM_000.jpg	100
3173.027	0.7	699.6	repeat	Run4	repeat/STIM_000.jpg	99
3175.901	0.77	769.5	repeat	Run4	repeat/STIM_000.jpg	99
3179.74	0.554	554.0	repeat	Run4	repeat/STIM_000.jpg	99
3183.672	0.486	486.0	repeat	Run4	repeat/STIM_001.jpg	99
3187.265	0.871	871.2	repeat	Run4	repeat/STIM_001.jpg	99
3191.144	0.688	687.8	repeat	Run4	repeat/STIM_001.jpg	100
3194.978	0.803	803.2	repeat	Run4	repeat/STIM_001.jpg	100
3199.366	0.926	926.4	repeat	Run4	repeat/STIM_001.jpg	99
3203.024	0.855	854.8	repeat	Run4	repeat/STIM_002.jpg	99
3206.919	0.655	654.7	repeat	Run4	repeat/STIM_002.jpg	99
3210.267	0.688	688.4	repeat	Run4	repeat/STIM_002.jpg	99
3214.313	0.841	841.0	repeat	Run4	repeat/STIM_002.jpg	100
3218.698	0.532	532.4	repeat	Run4	repeat/STIM_002.jpg	100
3221.822	0.568	567.9	repeat	Run4	repeat/STIM_003.jpg	99
3225.485	0.522	521.7	repeat	Run4	repeat/STIM_003.jpg	99
3229.604	0.518	518.2	repeat	Run4	repeat/STIM_003.jpg	100
3233.229	0.821	821.0	repeat	Run4	repeat/STIM_003.jpg	99
3236.595	0.874	874.4	repeat	Run4	repeat/STIM_003.jpg	100
3240.37	0.842	842.2	repeat	Run4	repeat/STIM_004.jpg	99
3244.777	0.914	913.5	repeat	Run4	repeat/STIM_004.jpg	100
3249.496	0.525	525.4	repeat	Run4	repeat/STIM_004.jpg	100
3252.988	0.69	689.5	repeat	Run4	repeat/STIM_004.jpg	99
3255.835	0.609	608.6	repeat	Run4	repeat/STIM_004.jpg	100
3258.976	0.793	792.6	repeat	Run4	repeat/STIM_005.jpg	99
3262.124	0.67	670.5	repeat	Run4	repeat/STIM_005.jpg	99
3265.651	0.798	797.9	repeat	Run4	repeat/STIM_005.jpg	99
3268.857	0.705	704.8	repeat	Run4	repeat/STIM_005.jpg	100
3273.231	0.869	869.1	repeat	Run4	repeat/STIM_005.jpg	100
3278.034	0.521	520.9	repeat	Run4	repeat/STIM_006.jpg	100
3281.396	0.695	695.4	repeat	Run4	repeat/STIM_006.jpg	99
3284.318	0.923	922.7	repeat	Run4	repeat/STIM_006.jpg	99
3287.913	0.885	885.1	repeat	Run4	repeat/STIM_006.jpg	100
3291.484	0.888	888.3	repeat	Run4	repeat/STIM_006.jpg	100
3294.931	0.644	644.1	repeat	Run4	repeat/STIM_007.jpg	100
3299.581	0.802	801.9	repeat	Run4	repeat/STIM_007.jpg	99
3303.993	0.942	942.1	repeat	Run4	repeat/STIM_007.jpg	100
3308.644	0.903	902.8	repeat	Run4	repeat/STIM_007.jpg	100
3313.481	0.601	601.4	repeat	Run4	repeat/STIM_007.jpg	99
3317.673	0.734	734.5	repeat	Run4	repeat/STIM_008.jpg	100
3322.099	0.523	522.8	repeat	Run4	repeat/STIM_008.jpg	99
3326.004	0.656	656.4	repeat	Run4	repeat/STIM_008.jpg	99
3329.913	0.923	922.8	repeat	Run4	repeat/STIM_008.jpg	100
3334.642	0.742	742.1	repeat	Run4	repeat/STIM_008.jpg	99
3338.168	0.511	510.9	repeat	Run4	repeat/STIM_009.jpg	100
3342.231	0.721	721.2	repeat	Run4	repeat/STIM_009.jpg	100
3346.411	0.519	518.6	repeat	Run4	repeat/STIM_009.jpg	100
3349.4	0.928	928.1	repeat	Run4	repeat/STIM_009.jpg	99
3352.673	0.815	814.6	repeat	Run4	repeat/STIM_009.jpg	100
3356.843	0.667	666.6	repeat	Run4	repeat/STIM_010.jpg	99
3360.006	0.756	756.1	repeat	Run4	repeat/STIM_010.jpg	99
3363.45	0.694	694.5	repeat	Run4	repeat/STIM_010.jpg	99
3367.846	0.859	858.6	repeat	Run4	repeat/STIM_010.jpg	99
3371.157	0.616	615.5	repeat	Run4	repeat/STIM_010.jpg	100
3373.866	0.534	534.0	repeat	Run4	repeat/STIM_011.jpg	100
3376.666	0.745	744.8	repeat	Run4	repeat/STIM_011.jpg	99
3380.265	0.518	518.1	repeat	Run4	repeat/STIM_011.jpg	99
3383.31	0.842	841.7	repeat	Run4	repeat/STIM_011.jpg	99
3388.183	0.843	842.6	repeat	Run4	repeat/STIM_011.jpg	99
3393.061	0.671	671.2	repeat	Run4	repeat/STIM_012.jpg	100
3397.717	0.596	595.7	repeat	Run4	repeat/STIM_012.jpg	100
3400.583	0.918	918.0	repeat	Run4	repeat/STIM_012.jpg	99
3405.116	0.597	596.7	repeat	Run4	repeat/STIM_012.jpg	100
3408.915	0.605	605.4	repeat	Run4	repeat/STIM_012.jpg	99
3412.902	0.911	910.6	repeat	Run4	repeat/STIM_013.jpg	100
3416.428	0.809	808.9	repeat	Run4	repeat/STIM_013.jpg	99
3420.899	0.81	810.4	repeat	Run4	repeat/STIM_013.jpg	99
3424.756	0.939	938.9	repeat	Run4	repeat/STIM_013.jpg	100
3428.53	0.736	735.6	repeat	Run4	repeat/STIM_013.jpg	99
3432.456	0.665	665.2	repeat	Run4	repeat/STIM_014.jpg	100
3436.275	0.821	821.2	repeat	Run4	repeat/STIM_014.jpg	100
3439.758	0.612	612.0	repeat	Run4	repeat/STIM_014.jpg	100
3442.952	0.86	860.3	repeat	Run4	repeat/STIM_014.jpg	100
3446.284	0.84	840.1	repeat	Run4	repeat/STIM_014.jpg	99
