onset	duration	response_time_ms	trial_type	learning_stage	stimulus	response_port
0.0	1.335	1334.8	2back	Block1	2back/STIM_000.jpg	100
4.185	0.998	998.4	2back	Block1	2back/STIM_000.jpg	99
9.037	1.123	1122.8	2back	Block1	2back/STIM_000.jpg	99
12.781	1.228	1228.3	2back	Block1	2back/STIM_001.jpg	99
17.849	0.924	923.6	2back	Block1	2back/STIM_001.jpg	99
22.527	0.786	786.2	2back	Block1	2back/STIM_001.jpg	100
26.54	1.624	1623.7	2back	Block1	2back/STIM_002.jpg	100
32.037	1.197	1197.4	2back	Block1	2back/STIM_002.jpg	100
35.638	1.013	1013.3	2back	Block1	2back/STIM_002.jpg	99
40.461	1.507	1506.7	2back	Block1	2back/STIM_003.jpg	100
44.475	1.367	1366.7	2back	Block1	2back/STIM_003.jpg	100
48.124	0.778	778.5	2back	Block1	2back/STIM_003.jpg	100
52.477	1.195	1195.1	2back	Block1	2back/STIM_004.jpg	99
57.116	1.56	1560.1	2back	Block1	2back/STIM_004.jpg	100
62.566	0.786	786.4	2back	Block1	2back/STIM_004.jpg	100
65.862	1.311	1310.6	2back	Block1	2back/STIM_005.jpg	99
70.716	1.238	1237.8	2back	Block1	2back/STIM_005.jpg	100
75.409	0.71	709.5	2back	Block1	2back/STIM_005.jpg	100
79.349	0.754	753.8	2back	Block1	2back/STIM_006.jpg	100
82.728	1.127	1127.1	2back	Block1	2back/STIM_006.jpg	100
86.915	1.203	1203.2	2back	Block1	2back/STIM_006.jpg	99
90.52	1.589	1589.4	2back	Block1	2back/STIM_007.jpg	99
95.838	1.278	1278.0	2back	Block1	2back/STIM_007.jpg	100
100.548	1.53	1530.5	2back	Block1	2back/STIM_007.jpg	99
104.251	1.087	1087.3	2back	Block1	2back/STIM_008.jpg	99
107.827	1.184	1184.5	2back	Block1	2back/STIM_008.jpg	100
111.976	1.411	1411.0	2back	Block1	2back/STIM_008.jpg	99
115.691	1.367	1367.1	2back	Block1	2back/STIM_009.jpg	100
120.222	1.298	1297.7	2back	Block1	2back/STIM_009.jpg	100
123.569	1.369	1368.8	2back	Block1	2back/STIM_009.jpg	99
128.425	0.895	895.3	2back	Block1	2back/STIM_010.jpg	100
132.646	0.701	700.7	2back	Block1	2back/STIM_010.jpg	99
136.267	1.102	1102.2	2back	Block1	2back/STIM_010.jpg	99
139.626	1.45	1450.3	2back	Block1	2back/STIM_011.jpg	100
144.636	1.389	1389.0	2back	Block1	2back/STIM_011.jpg	99
148.551	1.156	1156.2	2back	Block1	2back/STIM_011.jpg	100
152.67	1.632	1632.1	2back	Block1	2back/STIM_012.jpg	100
157.018	0.736	736.1	2back	Block1	2back/STIM_012.jpg	99
160.689	1.06	1059.5	2back	Block1	2back/STIM_012.jpg	99
165.604	1.432	1432.1	2back	Block1	2back/STIM_013.jpg	100
169.713	0.896	896.3	2back	Block1	2back/STIM_013.jpg	99
174.044	1.293	1292.6	2back	Block1	2back/STIM_013.jpg	99
178.747	1.297	1296.9	2back	Block1	2back/STIM_014.jpg	99
182.904	1.596	1596.4	2back	Block1	2back/STIM_014.jpg	100
186.6	1.268	1267.6	2back	Block1	2back/STIM_014.jpg	99
190.193	1.371	1371.2	2back	Block1	2back/STIM_015.jpg	99
193.958	0.944	944.0	2back	Block1	2back/STIM_015.jpg	100
198.133	1.296	1295.6	2back	Block1	2back/STIM_015.jpg	100
201.861	1.314	1314.3	2back	Block1	2back/STIM_016.jpg	99
205.879	1.122	1121.7	2back	Block1	2back/STIM_016.jpg	99
210.412	1.077	1077.0	2back	Block1	2back/STIM_016.jpg	100
215.036	1.01	1009.9	2back	Block1	2back/STIM_017.jpg	100
218.983	1.301	1301.1	2back	Block1	2back/STIM_017.jpg	100
222.683	0.9	900.2	2back	Block1	2back/STIM_017.jpg	99
227.573	1.661	1660.7	2back	Block1	2back/STIM_018.jpg	99
232.888	1.374	1374.3	2back	Block1	2back/STIM_018.jpg	99
237.403	1.196	1196.4	2back	Block1	2back/STIM_018.jpg	99
241.141	1.209	1209.3	2back	Block1	2back/STIM_019.jpg	100
245.054	0.718	717.7	2back	Block1	2back/STIM_019.jpg	100
248.807	1.152	1151.7	2back	Block1	2back/STIM_019.jpg	100
252.715	0.917	916.9	2back	Block1	2back/STIM_020.jpg	100
256.089	0.724	724.2	2back	Block1	2back/STIM_020.jpg	99
259.669	1.484	1484.1	2back	Block1	2back/STIM_020.jpg	100
264.578	1.227	1226.9	2back	Block1	2back/STIM_021.jpg	99
268.087	0.788	787.6	2back	Block1	2back/STIM_021.jpg	100
271.925	1.534	1534.5	2back	Block1	2back/STIM_021.jpg	99
276.795	1.537	1536.6	2back	Block1	2back/STIM_022.jpg	100
280.979	1.242	1242.0	2back	Block1	2back/STIM_022.jpg	99
284.768	0.797	797.4	2back	Block1	2back/STIM_022.jpg	99
288.508	1.523	1523.4	2back	Block1	2back/STIM_023.jpg	100
293.806	1.03	1030.0	2back	Block1	2back/STIM_023.jpg	99
298.436	1.005	1004.7	2back	Block1	2back/STIM_023.jpg	99
301.562	0.751	750.9	2back	Block1	2back/STIM_024.jpg	99
305.528	0.913	912.9	2back	Block1	2back/STIM_024.jpg	100
308.679	0.941	941.2	2back	Block1	2back/STIM_024.jpg	100
313.022	1.219	1218.7	2back	Block1	2back/STIM_025.jpg	100
316.963	0.719	718.7	2back	Block1	2back/STIM_025.jpg	99
320.33	0.798	798.5	2back	Block1	2back/STIM_025.jpg	100
324.022	0.745	745.0	2back	Block1	2back/STIM_026.jpg	100
328.589	1.432	1431.7	2back	Block1	2back/STIM_026.jpg	99
332.734	0.954	953.9	2back	Block1	2back/STIM_026.jpg	100
336.458	1.658	1658.1	2back	Block1	2back/STIM_027.jpg	100
340.241	1.245	1244.7	2back	Block1	2back/STIM_027.jpg	100
344.292	1.356	1356.1	2back	Block1	2back/STIM_027.jpg	99
349.482	1.502	1501.9	2back	Block1	2back/STIM_028.jpg	99
353.878	1.309	1308.9	2back	Block1	2back/STIM_028.jpg	99
358.909	0.998	997.8	2back	Block1	2back/STIM_028.jpg	99
362.249	1.071	1070.6	2back	Block1	2back/STIM_029.jpg	99
365.547	0.819	818.9	2back	Block1	2back/STIM_029.jpg	99
368.563	1.457	1457.1	2back	Block1	2back/STIM_029.jpg	100
373.384	1.634	1634.3	2back	Block1	2back/STIM_030.jpg	100
377.064	1.043	1042.9	2back	Block1	2back/STIM_030.jpg	100
381.411	0.79	790.2	2back	Block1	2back/STIM_030.jpg	99
385.636	1.26	1259.6	2back	Block1	2back/STIM_031.jpg	100
390.142	1.157	1157.4	2back	Block1	2back/STIM_031.jpg	100
393.934	0.972	971.6	2back	Block1	2back/STIM_031.jpg	99
398.021	0.918	918.3	2back	Block1	2back/STIM_032.jpg	99
401.373	1.545	1545.1	2back	Block1	2back/STIM_032.jpg	99
406.078	1.461	1460.7	2back	Block1	2back/STIM_032.jpg	99
410.518	1.676	1675.6	2back	Block1	2back/STIM_033.jpg	100
416.093	0.869	869.1	2back	Block1	2back/STIM_033.jpg	100
420.821	0.918	917.7	2back	Block1	2back/STIM_033.jpg	100
423.763	1.223	1222.7	2back	Block1	2back/STIM_034.jpg	100
428.891	1.466	1466.3	2back	Block1	2back/STIM_034.jpg	99
432.464	1.395	1395.3	2back	Block1	2back/STIM_034.jpg	100
436.027	1.171	1171.4	2back	Block1	2back/STIM_035.jpg	100
439.43	1.274	1273.8	2back	Block1	2back/STIM_035.jpg	100
444.28	1.031	1031.3	2back	Block1	2back/STIM_035.jpg	99
448.413	1.509	1508.7	2back	Block1	2back/STIM_036.jpg	100
453.143	0.918	917.7	2back	Block1	2back/STIM_036.jpg	100
457.343	0.825	824.6	2back	Block1	2back/STIM_036.jpg	99
461.344	1.252	1251.9	2back	Block1	2back/STIM_037.jpg	100
466.125	1.061	1060.6	2back	Block1	2back/STIM_037.jpg	99
470.043	1.352	1352.0	2back	Block1	2back/STIM_037.jpg	99
474.926	0.946	946.0	2back	Block1	2back/STIM_038.jpg	99
478.726	1.139	1138.9	2back	Block1	2back/STIM_038.jpg	99
483.79	1.412	1411.6	2back	Block1	2back/STIM_038.jpg	100
487.397	1.517	1516.8	2back	Block1	2back/STIM_039.jpg	100
492.218	1.367	1366.7	2back	Block1	2back/STIM_039.jpg	100
495.908	1.528	1528.4	2back	Block1	2back/STIM_039.jpg	100
499.58	0.868	868.0	0back	Block1	0back/STIM_000.jpg	100
503.967	0.907	907.0	0back	Block1	0back/STIM_000.jpg	99
507.174	0.705	705.3	0back	Block1	0back/STIM_000.jpg	100
510.623	0.53	530.4	0back	Block1	0back/STIM_001.jpg	100
514.747	0.889	888.6	0back	Block1	0back/STIM_001.jpg	100
518.363	0.76	760.5	0back	Block1	0back/STIM_001.jpg	100
521.956	0.77	770.5	0back	Block1	0back/STIM_002.jpg	100
524.994	0.664	664.1	0back	Block1	0back/STIM_002.jpg	100
528.463	0.758	757.8	0back	Block1	0back/STIM_002.jpg	99
532.253	0.561	560.7	0back	Block1	0back/STIM_003.jpg	100
535.039	0.499	499.1	0back	Block1	0back/STIM_003.jpg	99
539.456	0.819	819.2	0back	Block1	0back/STIM_003.jpg	100
542.631	0.679	679.4	0back	Block1	0back/STIM_004.jpg	100
545.987	0.767	767.3	0back	Block1	0back/STIM_004.jpg	99
549.143	0.717	717.1	0back	Block1	0back/STIM_004.jpg	100
553.402	0.921	920.6	0back	Block1	0back/STIM_005.jpg	100
558.17	0.814	814.1	0back	Block1	0back/STIM_005.jpg	99
561.866	0.598	597.9	0back	Block1	0back/STIM_005.jpg	100
564.671	0.807	807.2	0back	Block1	0back/STIM_006.jpg	100
569.477	0.722	722.2	0back	Block1	0back/STIM_006.jpg	99
572.566	0.882	882.1	0back	Block1	0back/STIM_006.jpg	99
577.078	0.951	950.6	0back	Block1	0back/STIM_007.jpg	100
581.766	0.782	781.8	0back	Block1	0back/STIM_007.jpg	100
585.721	0.627	626.7	0back	Block1	0back/STIM_007.jpg	99
588.922	0.918	918.1	0back	Block1	0back/STIM_008.jpg	100
592.7	0.673	673.3	0back	Block1	0back/STIM_008.jpg	100
597.202	0.751	750.8	0back	Block1	0back/STIM_008.jpg	100
601.819	0.851	851.0	0back	Block1	0back/STIM_009.jpg	100
606.158	0.85	849.6	0back	Block1	0back/STIM_009.jpg	100
609.607	0.746	746.4	0back	Block1	0back/STIM_009.jpg	100
613.21	0.751	751.4	0back	Block1	0back/STIM_010.jpg	99
616.616	0.54	540.4	0back	Block1	0back/STIM_010.jpg	100
620.418	0.736	736.4	0back	Block1	0back/STIM_010.jpg	99
623.835	0.702	701.5	0back	Block1	0back/STIM_011.jpg	99
627.918	0.796	796.3	0back	Block1	0back/STIM_011.jpg	100
631.381	0.921	920.7	0back	Block1	0back/STIM_011.jpg	99
635.267	0.822	822.5	0back	Block1	0back/STIM_012.jpg	100
639.364	0.812	811.5	0back	Block1	0back/STIM_012.jpg	100
643.072	0.678	678.1	0back	Block1	0back/STIM_012.jpg	100
646.727	0.536	535.6	0back	Block1	0back/STIM_013.jpg	99
650.198	0.765	765.1	0back	Block1	0back/STIM_013.jpg	99
654.039	0.887	887.2	0back	Block1	0back/STIM_013.jpg	99
658.247	0.753	752.6	0back	Block1	0back/STIM_014.jpg	100
662.68	0.972	971.6	0back	Block1	0back/STIM_014.jpg	100
667.331	0.922	921.8	0back	Block1	0back/STIM_014.jpg	100
671.074	0.896	895.7	0back	Block1	0back/STIM_015.jpg	100
675.333	0.532	532.4	0back	Block1	0back/STIM_015.jpg	99
679.04	0.606	605.7	0back	Block1	0back/STIM_015.jpg	99
681.733	0.921	921.1	0back	Block1	0back/STIM_016.jpg	100
685.699	0.86	859.6	0back	Block1	0back/STIM_016.jpg	100
688.602	0.964	963.7	0back	Block1	0back/STIM_016.jpg	100
692.79	0.647	647.4	0back	Block1	0back/STIM_017.jpg	100
697.061	0.668	668.1	0back	Block1	0back/STIM_017.jpg	100
701.659	0.495	494.8	0back	Block1	0back/STIM_017.jpg	99
704.325	0.544	544.0	0back	Block1	0back/STIM_018.jpg	100
707.488	0.958	957.7	0back	Block1	0back/STIM_018.jpg	100
711.337	0.554	554.4	0back	Block1	0back/STIM_018.jpg	100
714.519	0.777	776.9	0back	Block1	0back/STIM_019.jpg	100
717.876	0.814	814.3	0back	Block1	0back/STIM_019.jpg	99
720.743	0.947	946.6	0back	Block1	0back/STIM_019.jpg	100
724.167	0.901	901.4	2back	Block2	2back/STIM_000.jpg	99
729.026	1.064	1064.0	2back	Block2	2back/STIM_000.jpg	99
733.292	0.589	588.8	2back	Block2	2back/STIM_000.jpg	99
736.819	1.141	1141.1	2back	Block2	2back/STIM_001.jpg	100
740.0	1.03	1030.1	2back	Block2	2back/STIM_001.jpg	100
744.502	0.605	605.4	2back	Block2	2back/STIM_001.jpg	100
748.818	0.635	634.9	2back	Block2	2back/STIM_002.jpg	99
751.731	1.362	1362.2	2back	Block2	2back/STIM_002.jpg	100
756.162	0.66	660.0	2back	Block2	2back/STIM_002.jpg	100
759.899	0.626	626.4	2back	Block2	2back/STIM_003.jpg	100
762.935	0.742	741.7	2back	Block2	2back/STIM_003.jpg	100
767.441	0.963	963.4	2back	Block2	2back/STIM_003.jpg	99
772.361	0.642	642.2	2back	Block2	2back/STIM_004.jpg	99
776.668	0.679	678.9	2back	Block2	2back/STIM_004.jpg	99
780.475	1.217	1216.7	2back	Block2	2back/STIM_004.jpg	99
785.559	1.027	1027.4	2back	Block2	2back/STIM_005.jpg	99
789.473	1.102	1101.9	2back	Block2	2back/STIM_005.jpg	99
793.853	1.273	1273.4	2back	Block2	2back/STIM_005.jpg	100
797.363	1.206	1206.4	2back	Block2	2back/STIM_006.jpg	99
801.85	1.347	1346.6	2back	Block2	2back/STIM_006.jpg	99
805.821	1.099	1098.6	2back	Block2	2back/STIM_006.jpg	99
809.218	0.995	995.2	2back	Block2	2back/STIM_007.jpg	100
813.559	1.301	1300.8	2back	Block2	2back/STIM_007.jpg	100
817.231	0.835	835.0	2back	Block2	2back/STIM_007.jpg	100
820.84	0.684	684.1	2back	Block2	2back/STIM_008.jpg	100
823.929	0.802	801.8	2back	Block2	2back/STIM_008.jpg	99
828.334	0.57	569.7	2back	Block2	2back/STIM_008.jpg	99
831.671	0.976	976.3	2back	Block2	2back/STIM_009.jpg	99
835.779	1.077	1076.6	2back	Block2	2back/STIM_009.jpg	99
840.476	0.938	937.5	2back	Block2	2back/STIM_009.jpg	99
843.796	1.35	1350.5	2back	Block2	2back/STIM_010.jpg	100
848.675	0.669	668.9	2back	Block2	2back/STIM_010.jpg	99
852.229	0.663	663.1	2back	Block2	2back/STIM_010.jpg	100
856.801	0.742	742.4	2back	Block2	2back/STIM_011.jpg	99
859.779	1.151	1151.4	2back	Block2	2back/STIM_011.jpg	100
863.23	0.55	550.3	2back	Block2	2back/STIM_011.jpg	99
867.58	0.992	992.3	2back	Block2	2back/STIM_012.jpg	100
871.347	1.095	1095.1	2back	Block2	2back/STIM_012.jpg	100
875.754	0.643	642.6	2back	Block2	2back/STIM_012.jpg	100
878.819	1.018	1018.3	2back	Block2	2back/STIM_013.jpg	100
883.381	0.984	983.8	2back	Block2	2back/STIM_013.jpg	99
886.92	0.971	971.1	2back	Block2	2back/STIM_013.jpg	100
891.271	0.704	704.2	2back	Block2	2back/STIM_014.jpg	100
894.887	0.586	586.4	2back	Block2	2back/STIM_014.jpg	99
898.255	0.855	854.8	2back	Block2	2back/STIM_014.jpg	100
901.939	1.206	1206.5	2back	Block2	2back/STIM_015.jpg	99
905.811	1.096	1096.0	2back	Block2	2back/STIM_015.jpg	100
909.579	0.903	903.1	2back	Block2	2back/STIM_015.jpg	99
912.865	1.191	1191.2	2back	Block2	2back/STIM_016.jpg	100
916.313	1.244	1243.5	2back	Block2	2back/STIM_016.jpg	100
920.796	0.664	663.8	2back	Block2	2back/STIM_016.jpg	100
924.232	1.438	1437.8	2back	Block2	2back/STIM_017.jpg	100
928.129	0.974	973.6	2back	Block2	2back/STIM_017.jpg	99
932.071	0.999	998.9	2back	Block2	2back/STIM_017.jpg	99
936.284	1.325	1324.9	2back	Block2	2back/STIM_018.jpg	99
940.083	1.179	1179.3	2back	Block2	2back/STIM_018.jpg	100
944.678	1.138	1137.6	2back	Block2	2back/STIM_018.jpg	99
948.448	1.123	1123.1	2back	Block2	2back/STIM_019.jpg	99
951.782	1.364	1363.6	2back	Block2	2back/STIM_019.jpg	99
957.079	0.954	954.4	2back	Block2	2back/STIM_019.jpg	100
961.612	0.714	714.5	2back	Block2	2back/STIM_020.jpg	99
965.01	0.934	934.3	2back	Block2	2back/STIM_020.jpg	99
969.453	1.24	1240.0	2back	Block2	2back/STIM_020.jpg	100
972.858	0.697	697.2	2back	Block2	2back/STIM_021.jpg	99
977.51	1.219	1218.9	2back	Block2	2back/STIM_021.jpg	99
981.739	0.879	878.6	2back	Block2	2back/STIM_021.jpg	99
986.048	0.748	747.5	2back	Block2	2back/STIM_022.jpg	100
989.157	0.859	858.6	2back	Block2	2back/STIM_022.jpg	99
992.97	0.839	839.1	2back	Block2	2back/STIM_022.jpg	99
996.737	1.064	1063.6	2back	Block2	2back/STIM_023.jpg	100
1000.594	0.726	725.5	2back	Block2	2back/STIM_023.jpg	99
1005.127	1.182	1182.1	2back	Block2	2back/STIM_023.jpg	99
1009.972	1.04	1039.9	2back	Block2	2back/STIM_024.jpg	100
1014.297	0.768	767.8	2back	Block2	2back/STIM_024.jpg	99
1018.266	0.662	662.2	2back	Block2	2back/STIM_024.jpg	100
1022.454	1.256	1256.5	2back	Block2	2back/STIM_025.jpg	100
1025.863	0.97	969.7	2back	Block2	2back/STIM_025.jpg	99
1030.126	1.067	1066.8	2back	Block2	2back/STIM_025.jpg	99
1033.802	0.841	841.3	2back	Block2	2back/STIM_026.jpg	99
1036.928	1.16	1160.5	2back	Block2	2back/STIM_026.jpg	100
1041.154	0.883	883.4	2back	Block2	2back/STIM_026.jpg	100
1044.501	1.314	1314.2	2back	Block2	2back/STIM_027.jpg	100
1048.703	0.823	822.6	2back	Block2	2back/STIM_027.jpg	99
1053.255	1.263	1263.0	2back	Block2	2back/STIM_027.jpg	100
1057.628	1.075	1074.9	2back	Block2	2back/STIM_028.jpg	99
1061.129	1.175	1175.0	2back	Block2	2back/STIM_028.jpg	100
1064.563	1.0	1000.0	2back	Block2	2back/STIM_028.jpg	99
1068.837	1.03	1030.1	2back	Block2	2back/STIM_029.jpg	99
1072.677	0.927	927.4	2back	Block2	2back/STIM_029.jpg	100
1076.672	1.272	1271.5	2back	Block2	2back/STIM_029.jpg	99
1081.887	0.806	805.7	2back	Block2	2back/STIM_030.jpg	99
1086.647	1.184	1183.8	2back	Block2	2back/STIM_030.jpg	99
1090.319	0.716	716.5	2back	Block2	2back/STIM_030.jpg	100
1093.764	1.154	1154.3	2back	Block2	2back/STIM_031.jpg	100
1098.506	0.591	590.9	2back	Block2	2back/STIM_031.jpg	100
1102.787	1.136	1136.4	2back	Block2	2back/STIM_031.jpg	100
1106.625	1.067	1067.2	2back	Block2	2back/STIM_032.jpg	99
1110.302	0.709	708.6	2back	Block2	2back/STIM_032.jpg	100
1114.223	0.748	747.8	2back	Block2	2back/STIM_032.jpg	100
1118.489	0.698	698.1	2back	Block2	2back/STIM_033.jpg	100
1121.355	1.132	1131.6	2back	Block2	2back/STIM_033.jpg	100
1124.535	0.935	934.6	2back	Block2	2back/STIM_033.jpg	100
1128.969	1.105	1105.0	2back	Block2	2back/STIM_034.jpg	99
1133.521	0.789	788.8	2back	Block2	2back/STIM_034.jpg	100
1136.887	0.708	708.1	2back	Block2	2back/STIM_034.jpg	99
1141.424	0.694	694.5	2back	Block2	2back/STIM_035.jpg	100
1144.821	0.786	786.1	2back	Block2	2back/STIM_035.jpg	99
1148.951	0.729	728.6	2back	Block2	2back/STIM_035.jpg	99
1153.126	0.972	971.9	2back	Block2	2back/STIM_036.jpg	99
1157.975	0.651	651.0	2back	Block2	2back/STIM_036.jpg	100
1161.787	1.078	1078.2	2back	Block2	2back/STIM_036.jpg	99
1165.828	1.141	1141.3	2back	Block2	2back/STIM_037.jpg	99
1170.454	1.356	1356.0	2back	Block2	2back/STIM_037.jpg	99
1174.717	1.138	1137.6	2back	Block2	2back/STIM_037.jpg	99
1178.031	0.625	624.7	2back	Block2	2back/STIM_038.jpg	100
1182.093	1.298	1297.7	2back	Block2	2back/STIM_038.jpg	100
1186.511	1.113	1113.2	2back	Block2	2back/STIM_038.jpg	99
1190.198	1.123	1123.4	2back	Block2	2back/STIM_039.jpg	100
1194.884	0.835	835.0	2back	Block2	2back/STIM_039.jpg	99
1198.051	0.692	692.1	2back	Block2	2back/STIM_039.jpg	99
1201.301	0.506	506.0	0back	Block2	0back/STIM_000.jpg	99
1204.186	0.768	768.5	0back	Block2	0back/STIM_000.jpg	99
1207.865	0.765	764.9	0back	Block2	0back/STIM_000.jpg	99
1212.422	0.947	947.0	0back	Block2	0back/STIM_001.jpg	99
1217.136	0.549	548.8	0back	Block2	0back/STIM_001.jpg	100
1220.669	0.551	551.0	0back	Block2	0back/STIM_001.jpg	99
1224.855	0.729	729.4	0back	Block2	0back/STIM_002.jpg	99
1228.492	0.954	953.6	0back	Block2	0back/STIM_002.jpg	100
1232.19	0.758	757.8	0back	Block2	0back/STIM_002.jpg	99
1235.383	0.786	785.6	0back	Block2	0back/STIM_003.jpg	100
1239.942	0.529	529.3	0back	Block2	0back/STIM_003.jpg	100
1244.013	0.848	847.5	0back	Block2	0back/STIM_003.jpg	100
1247.826	0.883	883.0	0back	Block2	0back/STIM_004.jpg	100
1252.405	0.602	601.7	0back	Block2	0back/STIM_004.jpg	100
1256.709	0.809	808.8	0back	Block2	0back/STIM_004.jpg	99
1259.856	0.773	773.1	0back	Block2	0back/STIM_005.jpg	100
1264.214	0.77	770.5	0back	Block2	0back/STIM_005.jpg	99
1268.066	0.848	848.2	0back	Block2	0back/STIM_005.jpg	100
1272.581	0.919	919.0	0back	Block2	0back/STIM_006.jpg	100
1276.891	0.63	629.9	0back	Block2	0back/STIM_006.jpg	99
1280.081	0.508	508.4	0back	Block2	0back/STIM_006.jpg	100
1284.114	0.961	961.1	0back	Block2	0back/STIM_007.jpg	99
1288.638	0.537	536.7	0back	Block2	0back/STIM_007.jpg	100
1291.524	0.813	812.9	0back	Block2	0back/STIM_007.jpg	100
1294.763	0.948	948.4	0back	Block2	0back/STIM_008.jpg	99
1298.257	0.804	803.5	0back	Block2	0back/STIM_008.jpg	100
1301.57	0.598	598.0	0back	Block2	0back/STIM_008.jpg	100
1305.92	0.712	711.9	0back	Block2	0back/STIM_009.jpg	100
1310.42	0.967	967.0	0back	Block2	0back/STIM_009.jpg	99
1313.918	0.905	904.9	0back	Block2	0back/STIM_009.jpg	100
1317.83	0.893	892.6	0back	Block2	0back/STIM_010.jpg	99
1320.871	0.903	902.7	0back	Block2	0back/STIM_010.jpg	99
1323.991	0.848	847.7	0back	Block2	0back/STIM_010.jpg	100
1326.972	0.6	599.6	0back	Block2	0back/STIM_011.jpg	99
1330.871	0.509	509.1	0back	Block2	0back/STIM_011.jpg	100
1333.554	0.617	616.9	0back	Block2	0back/STIM_011.jpg	99
1338.082	0.561	560.9	0back	Block2	0back/STIM_012.jpg	100
1340.856	0.802	802.4	0back	Block2	0back/STIM_012.jpg	100
1343.687	0.602	601.5	0back	Block2	0back/STIM_012.jpg	99
1347.338	0.598	597.7	0back	Block2	0back/STIM_013.jpg	99
1350.366	0.65	650.5	0back	Block2	0back/STIM_013.jpg	100
1354.471	0.635	635.1	0back	Block2	0back/STIM_013.jpg	100
1357.726	0.797	796.8	0back	Block2	0back/STIM_014.jpg	100
1362.221	0.786	785.9	0back	Block2	0back/STIM_014.jpg	99
1366.608	0.715	715.4	0back	Block2	0back/STIM_014.jpg	100
1369.655	0.799	798.9	0back	Block2	0back/STIM_015.jpg	100
1372.596	0.564	563.9	0back	Block2	0back/STIM_015.jpg	100
1375.227	0.632	631.8	0back	Block2	0back/STIM_015.jpg	100
1378.662	0.792	792.4	0back	Block2	0back/STIM_016.jpg	99
1383.446	0.522	521.8	0back	Block2	0back/STIM_016.jpg	100
1387.063	0.648	647.5	0back	Block2	0back/STIM_016.jpg	100
1389.843	0.942	942.3	0back	Block2	0back/STIM_017.jpg	99
1394.785	0.898	897.5	0back	Block2	0back/STIM_017.jpg	99
1399.635	0.817	816.8	0back	Block2	0back/STIM_017.jpg	99
1404.131	0.908	907.6	0back	Block2	0back/STIM_018.jpg	100
1409.011	0.722	722.4	0back	Block2	0back/STIM_018.jpg	100
1412.01	0.91	909.9	0back	Block2	0back/STIM_018.jpg	99
1416.475	0.661	661.3	0back	Block2	0back/STIM_019.jpg	99
1421.005	0.567	566.6	0back	Block2	0back/STIM_019.jpg	99
1424.721	0.87	869.9	0back	Block2	0back/STIM_019.jpg	99
1429.569	1.042	1042.5	2back	Block3	2back/STIM_000.jpg	100
1433.222	1.04	1040.4	2back	Block3	2back/STIM_000.jpg	100
1436.993	0.937	937.0	2back	Block3	2back/STIM_000.jpg	100
1441.592	0.582	582.2	2back	Block3	2back/STIM_001.jpg	100
1444.193	0.898	898.3	2back	Block3	2back/STIM_001.jpg	100
1447.53	0.623	623.3	2back	Block3	2back/STIM_001.jpg	99
1450.313	1.109	1109.3	2back	Block3	2back/STIM_002.jpg	99
1454.505	0.733	733.4	2back	Block3	2back/STIM_002.jpg	100
1459.165	0.824	824.2	2back	Block3	2back/STIM_002.jpg	99
1463.128	1.138	1138.4	2back	Block3	2back/STIM_003.jpg	99
1467.461	0.75	749.5	2back	Block3	2back/STIM_003.jpg	100
1470.939	1.017	1017.0	2back	Block3	2back/STIM_003.jpg	99
1474.984	0.796	796.5	2back	Block3	2back/STIM_004.jpg	99
1478.241	0.563	563.1	2back	Block3	2back/STIM_004.jpg	99
1481.775	0.538	538.5	2back	Block3	2back/STIM_004.jpg	100
1485.579	0.537	537.2	2back	Block3	2back/STIM_005.jpg	100
1489.327	0.71	710.1	2back	Block3	2back/STIM_005.jpg	100
1492.665	0.861	860.9	2back	Block3	2back/STIM_005.jpg	99
1495.969	0.663	663.1	2back	Block3	2back/STIM_006.jpg	100
1499.837	1.003	1002.7	2back	Block3	2back/STIM_006.jpg	100
1504.502	0.754	754.1	2back	Block3	2back/STIM_006.jpg	100
1508.935	0.69	690.1	2back	Block3	2back/STIM_007.jpg	100
1513.415	1.096	1096.4	2back	Block3	2back/STIM_007.jpg	99
1517.627	0.899	899.4	2back	Block3	2back/STIM_007.jpg	99
1521.62	0.617	617.2	2back	Block3	2back/STIM_008.jpg	99
1524.871	0.663	662.9	2back	Block3	2back/STIM_008.jpg	99
1529.354	0.914	913.8	2back	Block3	2back/STIM_008.jpg	100
1532.656	0.545	545.0	2back	Block3	2back/STIM_009.jpg	100
1536.257	1.124	1124.2	2back	Block3	2back/STIM_009.jpg	99
1539.964	0.563	563.0	2back	Block3	2back/STIM_009.jpg	100
1543.105	1.068	1068.5	2back	Block3	2back/STIM_010.jpg	100
1546.701	0.67	669.8	2back	Block3	2back/STIM_010.jpg	100
1550.515	0.811	811.1	2back	Block3	2back/STIM_010.jpg	100
1553.51	0.529	528.8	2back	Block3	2back/STIM_011.jpg	100
1556.131	0.882	882.1	2back	Block3	2back/STIM_011.jpg	100
1561.01	1.087	1086.7	2back	Block3	2back/STIM_011.jpg	100
1565.379	1.027	1027.3	2back	Block3	2back/STIM_012.jpg	100
1570.012	0.876	876.2	2back	Block3	2back/STIM_012.jpg	99
1574.009	0.641	640.7	2back	Block3	2back/STIM_012.jpg	99
1578.395	0.865	864.7	2back	Block3	2back/STIM_013.jpg	99
1581.399	1.145	1145.0	2back	Block3	2back/STIM_013.jpg	100
1585.486	1.169	1169.1	2back	Block3	2back/STIM_013.jpg	99
1589.458	1.176	1175.6	2back	Block3	2back/STIM_014.jpg	100
1593.519	0.951	950.7	2back	Block3	2back/STIM_014.jpg	99
1598.192	1.007	1007.3	2back	Block3	2back/STIM_014.jpg	100
1602.164	1.152	1152.5	2back	Block3	2back/STIM_015.jpg	100
1606.655	0.76	760.3	2back	Block3	2back/STIM_015.jpg	100
1610.249	0.888	888.1	2back	Block3	2back/STIM_015.jpg	100
1614.582	0.722	722.5	2back	Block3	2back/STIM_016.jpg	99
1618.935	0.679	679.4	2back	Block3	2back/STIM_016.jpg	100
1623.323	0.553	553.3	2back	Block3	2back/STIM_016.jpg	100
1627.279	0.914	913.8	2back	Block3	2back/STIM_017.jpg	100
1630.368	0.624	623.6	2back	Block3	2back/STIM_017.jpg	100
1632.993	0.876	876.5	2back	Block3	2back/STIM_017.jpg	99
1637.022	0.97	969.9	2back	Block3	2back/STIM_018.jpg	99
1640.336	1.02	1019.9	2back	Block3	2back/STIM_018.jpg	99
1644.306	0.957	956.8	2back	Block3	2back/STIM_018.jpg	99
1649.258	0.845	844.6	2back	Block3	2back/STIM_019.jpg	99
1652.487	0.637	636.8	2back	Block3	2back/STIM_019.jpg	100
1656.564	0.705	705.1	2back	Block3	2back/STIM_019.jpg	99
1659.397	0.954	954.0	2back	Block3	2back/STIM_020.jpg	100
1664.168	0.883	883.4	2back	Block3	2back/STIM_020.jpg	99
1668.087	1.044	1043.8	2back	Block3	2back/STIM_020.jpg	100
1672.118	0.948	947.7	2back	Block3	2back/STIM_021.jpg	99
1675.799	0.597	596.6	2back	Block3	2back/STIM_021.jpg	100
1680.393	0.874	873.5	2back	Block3	2back/STIM_021.jpg	100
1684.638	1.175	1175.2	2back	Block3	2back/STIM_022.jpg	99
1689.512	0.686	686.2	2back	Block3	2back/STIM_022.jpg	100
1692.548	0.517	517.4	2back	Block3	2back/STIM_022.jpg	99
1695.713	0.57	569.5	2back	Block3	2back/STIM_023.jpg	99
1698.88	0.773	772.6	2back	Block3	2back/STIM_023.jpg	99
1703.502	1.186	1185.7	2back	Block3	2back/STIM_023.jpg	100
1708.085	0.906	905.7	2back	Block3	2back/STIM_024.jpg	99
1711.828	0.972	972.2	2back	Block3	2back/STIM_024.jpg	100
1715.459	0.728	728.4	2back	Block3	2back/STIM_024.jpg	100
1719.945	0.547	547.3	2back	Block3	2back/STIM_025.jpg	99
1724.102	0.785	785.3	2back	Block3	2back/STIM_025.jpg	100
1727.851	0.672	671.5	2back	Block3	2back/STIM_025.jpg	99
1731.315	0.519	518.8	2back	Block3	2back/STIM_026.jpg	100
1734.174	0.798	797.9	2back	Block3	2back/STIM_026.jpg	100
1737.631	1.184	1184.5	2back	Block3	2back/STIM_026.jpg	99
1741.607	0.947	947.1	2back	Block3	2back/STIM_027.jpg	100
1745.709	0.838	837.6	2back	Block3	2back/STIM_027.jpg	100
1749.92	1.178	1177.6	2back	Block3	2back/STIM_027.jpg	100
1754.884	1.023	1023.0	2back	Block3	2back/STIM_028.jpg	99
1759.523	0.674	674.2	2back	Block3	2back/STIM_028.jpg	99
1763.632	0.937	936.7	2back	Block3	2back/STIM_028.jpg	99
1767.698	1.027	1027.0	2back	Block3	2back/STIM_029.jpg	99
1771.768	1.059	1058.7	2back	Block3	2back/STIM_029.jpg	100
1775.531	1.115	1114.9	2back	Block3	2back/STIM_029.jpg	100
1778.685	1.165	1165.0	2back	Block3	2back/STIM_030.jpg	100
1783.847	0.589	588.8	2back	Block3	2back/STIM_030.jpg	100
1787.775	0.853	853.4	2back	Block3	2back/STIM_030.jpg	100
1790.835	1.176	1176.3	2back	Block3	2back/STIM_031.jpg	99
1795.35	0.706	705.5	2back	Block3	2back/STIM_031.jpg	99
1798.693	0.627	627.0	2back	Block3	2back/STIM_031.jpg	100
1802.432	1.024	1024.5	2back	Block3	2back/STIM_032.jpg	99
1806.081	0.902	902.5	2back	Block3	2back/STIM_032.jpg	100
1809.658	0.584	583.8	2back	Block3	2back/STIM_032.jpg	99
1812.438	1.143	1143.3	2back	Block3	2back/STIM_033.jpg	100
1816.33	0.806	806.5	2back	Block3	2back/STIM_033.jpg	100
1820.335	1.17	1170.2	2back	Block3	2back/STIM_033.jpg	100
1823.567	0.63	630.2	2back	Block3	2back/STIM_034.jpg	99
1826.39	1.044	1044.3	2back	Block3	2back/STIM_034.jpg	100
1829.752	0.636	636.4	2back	Block3	2back/STIM_034.jpg	99
1833.746	0.663	663.0	2back	Block3	2back/STIM_035.jpg	99
1837.898	0.556	555.5	2back	Block3	2back/STIM_035.jpg	99
1841.687	0.92	919.8	2back	Block3	2back/STIM_035.jpg	100
1845.588	0.634	634.1	2back	Block3	2back/STIM_036.jpg	99
1849.226	0.698	698.1	2back	Block3	2back/STIM_036.jpg	99
1852.577	0.865	864.7	2back	Block3	2back/STIM_036.jpg	99
1856.984	1.079	1079.3	2back	Block3	2back/STIM_037.jpg	99
1861.259	0.819	818.9	2back	Block3	2back/STIM_037.jpg	99
1864.225	0.876	875.5	2back	Block3	2back/STIM_037.jpg	99
1868.419	0.526	525.7	2back	Block3	2back/STIM_038.jpg	100
1871.39	1.146	1145.9	2back	Block3	2back/STIM_038.jpg	99
1875.83	1.193	1192.8	2back	Block3	2back/STIM_038.jpg	99
1879.701	0.752	752.5	2back	Block3	2back/STIM_039.jpg	99
1883.852	0.888	888.1	2back	Block3	2back/STIM_039.jpg	100
1887.291	0.766	765.7	2back	Block3	2back/STIM_039.jpg	100
1891.795	0.969	968.7	0back	Block3	0back/STIM_000.jpg	99
1896.526	0.577	577.1	0back	Block3	0back/STIM_000.jpg	100
1899.853	0.516	515.5	0back	Block3	0back/STIM_000.jpg	99
1902.44	0.742	741.6	0back	Block3	0back/STIM_001.jpg	100
1905.964	0.69	689.5	0back	Block3	0back/STIM_001.jpg	99
1910.016	0.648	647.6	0back	Block3	0back/STIM_001.jpg	99
1914.548	0.963	963.2	0back	Block3	0back/STIM_002.jpg	100
1918.029	0.818	818.3	0back	Block3	0back/STIM_002.jpg	100
1922.384	0.942	941.6	0back	Block3	0back/STIM_002.jpg	99
1926.987	0.9	900.0	0back	Block3	0back/STIM_003.jpg	100
1930.509	0.614	614.1	0back	Block3	0back/STIM_003.jpg	99
1934.231	0.586	586.0	0back	Block3	0back/STIM_003.jpg	99
1938.745	0.636	635.7	0back	Block3	0back/STIM_004.jpg	100
1942.281	0.807	807.0	0back	Block3	0back/STIM_004.jpg	100
1945.433	0.71	709.8	0back	Block3	0back/STIM_004.jpg	100
1949.684	0.611	611.3	0back	Block3	0back/STIM_005.jpg	99
1953.828	0.585	584.9	0back	Block3	0back/STIM_005.jpg	99
1958.36	0.605	604.8	0back	Block3	0back/STIM_005.jpg	100
1962.359	0.665	665.2	0back	Block3	0back/STIM_006.jpg	100
1966.875	0.939	939.2	0back	Block3	0back/STIM_006.jpg	100
1970.322	0.728	727.6	0back	Block3	0back/STIM_006.jpg	99
1973.889	0.61	609.8	0back	Block3	0back/STIM_007.jpg	99
1976.709	0.807	807.3	0back	Block3	0back/STIM_007.jpg	99
1980.418	0.563	563.1	0back	Block3	0back/STIM_007.jpg	99
1984.372	0.637	637.0	0back	Block3	0back/STIM_008.jpg	99
1987.977	0.859	858.8	0back	Block3	0back/STIM_008.jpg	99
1990.91	0.783	783.0	0back	Block3	0back/STIM_008.jpg	99
1994.178	0.704	704.2	0back	Block3	0back/STIM_009.jpg	100
1996.944	0.94	939.6	0back	Block3	0back/STIM_009.jpg	99
2001.517	0.66	660.3	0back	Block3	0back/STIM_009.jpg	99
2005.788	0.735	734.8	0back	Block3	0back/STIM_010.jpg	100
2010.013	0.56	560.1	0back	Block3	0back/STIM_010.jpg	99
2014.525	0.846	845.6	0back	Block3	0back/STIM_010.jpg	99
2018.459	0.661	661.3	0back	Block3	0back/STIM_011.jpg	99
2021.741	0.676	676.0	0back	Block3	0back/STIM_011.jpg	99
2025.139	0.545	545.4	0back	Block3	0back/STIM_011.jpg	99
2028.462	0.801	801.3	0back	Block3	0back/STIM_012.jpg	99
2031.968	0.709	709.4	0back	Block3	0back/STIM_012.jpg	100
2035.657	0.777	776.9	0back	Block3	0back/STIM_012.jpg	100
2038.523	0.874	874.1	0back	Block3	0back/STIM_013.jpg	100
2041.914	0.498	498.5	0back	Block3	0back/STIM_013.jpg	100
2044.784	0.64	639.5	0back	Block3	0back/STIM_013.jpg	99
2048.104	0.963	963.2	0back	Block3	0back/STIM_014.jpg	100
2051.335	0.617	616.7	0back	Block3	0back/STIM_014.jpg	100
2055.335	0.571	571.4	0back	Block3	0back/STIM_014.jpg	99
2059.505	0.633	633.4	0back	Block3	0back/STIM_015.jpg	99
2062.615	0.804	804.1	0back	Block3	0back/STIM_015.jpg	100
2067.353	0.908	908.3	0back	Block3	0back/STIM_015.jpg	99
2072.08	0.898	898.1	0back	Block3	0back/STIM_016.jpg	99
2076.522	0.808	807.8	0back	Block3	0back/STIM_016.jpg	99
2080.376	0.639	639.2	0back	Block3	0back/STIM_016.jpg	100
2083.867	0.693	692.7	0back	Block3	0back/STIM_017.jpg	100
2087.576	0.52	519.5	0back	Block3	0back/STIM_017.jpg	100
2090.985	0.573	573.4	0back	Block3	0back/STIM_017.jpg	100
2095.417	0.806	806.4	0back	Block3	0back/STIM_018.jpg	99
2099.327	0.878	877.5	0back	Block3	0back/STIM_018.jpg	100
2102.843	0.648	647.8	0back	Block3	0back/STIM_018.jpg	100
2106.829	0.861	860.6	0back	Block3	0back/STIM_019.jpg	99
2109.972	0.643	643.3	0back	Block3	0back/STIM_019.jpg	100
2114.143	0.93	929.5	0back	Block3	0back/STIM_019.jpg	99
2117.918	0.922	921.6	2back	Block4	2back/STIM_000.jpg	100
2121.555	0.712	711.8	2back	Block4	2back/STIM_000.jpg	100
2125.931	1.054	1054.0	2back	Block4	2back/STIM_000.jpg	99
2129.757	0.531	531.0	2back	Block4	2back/STIM_001.jpg	100
2134.234	1.071	1071.1	2back	Block4	2back/STIM_001.jpg	99
2137.425	1.005	1004.6	2back	Block4	2back/STIM_001.jpg	99
2141.003	0.745	745.4	2back	Block4	2back/STIM_002.jpg	99
2145.197	0.989	989.1	2back	Block4	2back/STIM_002.jpg	99
2149.354	0.849	849.2	2back	Block4	2back/STIM_002.jpg	99
2153.255	0.746	746.1	2back	Block4	2back/STIM_003.jpg	99
2157.379	0.978	978.2	2back	Block4	2back/STIM_003.jpg	99
2161.957	0.888	887.7	2back	Block4	2back/STIM_003.jpg	100
2165.391	1.038	1038.1	2back	Block4	2back/STIM_004.jpg	100
2169.925	1.149	1149.4	2back	Block4	2back/STIM_004.jpg	99
2174.104	0.785	784.9	2back	Block4	2back/STIM_004.jpg	100
2177.47	1.164	1163.8	2back	Block4	2back/STIM_005.jpg	100
2181.807	0.855	855.2	2back	Block4	2back/STIM_005.jpg	100
2186.069	0.888	888.5	2back	Block4	2back/STIM_005.jpg	100
2189.46	0.818	818.2	2back	Block4	2back/STIM_006.jpg	100
2193.215	1.013	1013.1	2back	Block4	2back/STIM_006.jpg	100
2196.476	0.696	696.4	2back	Block4	2back/STIM_006.jpg	100
2199.969	0.874	873.8	2back	Block4	2back/STIM_007.jpg	100
2203.127	0.87	869.6	2back	Block4	2back/STIM_007.jpg	99
2206.104	0.869	869.2	2back	Block4	2back/STIM_007.jpg	100
2210.596	0.722	722.3	2back	Block4	2back/STIM_008.jpg	100
2215.127	0.638	637.8	2back	Block4	2back/STIM_008.jpg	99
2218.934	0.768	767.5	2back	Block4	2back/STIM_008.jpg	100
2223.337	0.786	786.3	2back	Block4	2back/STIM_009.jpg	100
2227.244	1.088	1087.6	2back	Block4	2back/STIM_009.jpg	100
2231.035	0.999	999.4	2back	Block4	2back/STIM_009.jpg	99
2235.816	1.161	1161.2	2back	Block4	2back/STIM_010.jpg	100
2239.606	0.835	834.8	2back	Block4	2back/STIM_010.jpg	99
2242.704	0.918	917.6	2back	Block4	2back/STIM_010.jpg	99
2246.566	0.603	602.9	2back	Block4	2back/STIM_011.jpg	99
2250.699	0.582	582.4	2back	Block4	2back/STIM_011.jpg	99
2254.875	0.809	808.8	2back	Block4	2back/STIM_011.jpg	100
2259.02	0.974	974.0	2back	Block4	2back/STIM_012.jpg	99
2262.193	1.181	1180.8	2back	Block4	2back/STIM_012.jpg	100
2266.391	1.064	1063.6	2back	Block4	2back/STIM_012.jpg	99
2270.323	0.766	766.2	2back	Block4	2back/STIM_013.jpg	100
2273.92	0.92	920.3	2back	Block4	2back/STIM_013.jpg	100
2277.999	0.772	771.8	2back	Block4	2back/STIM_013.jpg	99
2281.173	0.983	983.0	2back	Block4	2back/STIM_014.jpg	100
2284.271	0.828	828.2	2back	Block4	2back/STIM_014.jpg	99
2288.184	1.108	1108.3	2back	Block4	2back/STIM_014.jpg	99
2291.431	1.043	1042.9	2back	Block4	2back/STIM_015.jpg	99
2296.052	0.749	748.8	2back	Block4	2back/STIM_015.jpg	99
2299.967	0.733	733.1	2back	Block4	2back/STIM_015.jpg	99
2303.167	0.54	539.5	2back	Block4	2back/STIM_016.jpg	99
2306.944	0.578	578.4	2back	Block4	2back/STIM_016.jpg	100
2311.259	0.63	629.8	2back	Block4	2back/STIM_016.jpg	100
2313.925	1.018	1018.5	2back	Block4	2back/STIM_017.jpg	99
2317.418	0.586	586.1	2back	Block4	2back/STIM_017.jpg	100
2321.225	0.965	965.4	2back	Block4	2back/STIM_017.jpg	99
2325.864	1.127	1126.9	2back	Block4	2back/STIM_018.jpg	99
2330.853	1.172	1171.5	2back	Block4	2back/STIM_018.jpg	99
2335.575	0.679	678.8	2back	Block4	2back/STIM_018.jpg	99
2338.577	0.882	882.5	2back	Block4	2back/STIM_019.jpg	99
2342.463	1.113	1113.4	2back	Block4	2back/STIM_019.jpg	99
2346.954	0.615	614.8	2back	Block4	2back/STIM_019.jpg	99
2351.135	0.726	725.9	2back	Block4	2back/STIM_020.jpg	100
2355.621	0.85	849.5	2back	Block4	2back/STIM_020.jpg	100
2359.513	0.754	754.3	2back	Block4	2back/STIM_020.jpg	99
2363.298	0.526	525.8	2back	Block4	2back/STIM_021.jpg	100
2367.696	0.634	633.8	2back	Block4	2back/STIM_021.jpg	99
2371.913	0.672	671.6	2back	Block4	2back/STIM_021.jpg	100
2375.542	0.647	646.8	2back	Block4	2back/STIM_022.jpg	99
2378.611	0.512	512.1	2back	Block4	2back/STIM_022.jpg	100
2381.964	0.733	732.8	2back	Block4	2back/STIM_022.jpg	100
2386.113	1.002	1002.5	2back	Block4	2back/STIM_023.jpg	99
2390.865	1.118	1118.1	2back	Block4	2back/STIM_023.jpg	99
2395.07	1.028	1028.5	2back	Block4	2back/STIM_023.jpg	99
2400.009	0.569	568.6	2back	Block4	2back/STIM_024.jpg	99
2404.44	1.005	1004.6	2back	Block4	2back/STIM_024.jpg	99
2407.951	0.843	843.2	2back	Block4	2back/STIM_024.jpg	99
2410.973	1.154	1153.7	2back	Block4	2back/STIM_025.jpg	99
2414.415	0.555	554.8	2back	Block4	2back/STIM_025.jpg	99
2418.621	1.109	1108.9	2back	Block4	2back/STIM_025.jpg	99
2422.132	0.67	669.7	2back	Block4	2back/STIM_026.jpg	99
2425.963	0.58	579.9	2back	Block4	2back/STIM_026.jpg	99
2428.653	1.029	1028.9	2back	Block4	2back/STIM_026.jpg	100
2433.471	1.011	1010.9	2back	Block4	2back/STIM_027.jpg	100
2438.416	0.894	893.5	2back	Block4	2back/STIM_027.jpg	100
2443.122	0.694	693.6	2back	Block4	2back/STIM_027.jpg	99
2447.702	0.657	657.3	2back	Block4	2back/STIM_028.jpg	99
2450.895	0.753	753.0	2back	Block4	2back/STIM_028.jpg	99
2454.347	0.856	855.6	2back	Block4	2back/STIM_028.jpg	99
2457.85	0.968	968.4	2back	Block4	2back/STIM_029.jpg	100
2461.773	1.117	1116.8	2back	Block4	2back/STIM_029.jpg	100
2466.517	0.874	873.5	2back	Block4	2back/STIM_029.jpg	99
2470.453	0.714	713.8	2back	Block4	2back/STIM_030.jpg	100
2474.155	0.973	973.2	2back	Block4	2back/STIM_030.jpg	100
2478.734	0.775	775.1	2back	Block4	2back/STIM_030.jpg	99
2483.231	1.157	1157.2	2back	Block4	2back/STIM_031.jpg	100
2486.796	0.822	821.6	2back	Block4	2back/STIM_031.jpg	99
2490.467	0.652	652.5	2back	Block4	2back/STIM_031.jpg	100
2494.294	0.887	887.3	2back	Block4	2back/STIM_032.jpg	99
2498.964	1.039	1038.6	2back	Block4	2back/STIM_032.jpg	100
2503.339	0.778	777.9	2back	Block4	2back/STIM_032.jpg	100
2507.057	0.894	894.0	2back	Block4	2back/STIM_033.jpg	100
2511.077	0.532	532.2	2back	Block4	2back/STIM_033.jpg	99
2514.763	0.669	669.4	2back	Block4	2back/STIM_033.jpg	99
2518.047	1.088	1088.1	2back	Block4	2back/STIM_034.jpg	99
2522.431	0.871	870.6	2back	Block4	2back/STIM_034.jpg	99
2526.393	1.064	1064.4	2back	Block4	2back/STIM_034.jpg	99
2530.328	0.956	955.8	2back	Block4	2back/STIM_035.jpg	100
2534.86	1.132	1132.3	2back	Block4	2back/STIM_035.jpg	100
2539.944	1.193	1192.9	2back	Block4	2back/STIM_035.jpg	100
2543.941	0.95	950.2	2back	Block4	2back/STIM_036.jpg	99
2548.107	0.68	680.4	2back	Block4	2back/STIM_036.jpg	100
2552.771	0.999	999.1	2back	Block4	2back/STIM_036.jpg	99
2555.873	0.956	955.8	2back	Block4	2back/STIM_037.jpg	100
2560.749	1.08	1080.5	2back	Block4	2back/STIM_037.jpg	99
2565.643	0.584	584.1	2back	Block4	2back/STIM_037.jpg	99
2569.534	0.701	701.3	2back	Block4	2back/STIM_038.jpg	100
2573.462	1.087	1087.1	2back	Block4	2back/STIM_038.jpg	99
2577.553	0.88	879.8	2back	Block4	2back/STIM_038.jpg	99
2581.232	0.799	798.6	2back	Block4	2back/STIM_039.jpg	99
2584.257	1.123	1122.8	2back	Block4	2back/STIM_039.jpg	100
2588.103	1.19	1190.0	2back	Block4	2back/STIM_039.jpg	99
2591.374	0.851	851.1	0back	Block4	0back/STIM_000.jpg	100
2594.24	0.93	930.2	0back	Block4	0back/STIM_000.jpg	100
2597.965	0.73	729.5	0back	Block4	0back/STIM_000.jpg	100
2600.726	0.87	869.5	0back	Block4	0back/STIM_001.jpg	100
2604.662	0.835	834.9	0back	Block4	0back/STIM_001.jpg	100
2609.033	0.498	498.0	0back	Block4	0back/STIM_001.jpg	100
2612.308	0.615	615.3	0back	Block4	0back/STIM_002.jpg	100
2616.099	0.93	930.0	0back	Block4	0back/STIM_002.jpg	99
2619.27	0.622	622.0	0back	Block4	0back/STIM_002.jpg	99
2622.593	0.651	651.1	0back	Block4	0back/STIM_003.jpg	100
2627.166	0.962	961.7	0back	Block4	0back/STIM_003.jpg	99
2631.992	0.833	832.7	0back	Block4	0back/STIM_003.jpg	99
2635.495	0.79	789.7	0back	Block4	0back/STIM_004.jpg	100
2639.403	0.844	844.4	0back	Block4	0back/STIM_004.jpg	99
2643.693	0.634	634.3	0back	Block4	0back/STIM_004.jpg	99
2647.697	0.946	946.0	0back	Block4	0back/STIM_005.jpg	100
2651.069	0.54	540.0	0back	Block4	0back/STIM_005.jpg	100
2655.556	0.919	918.6	0back	Block4	0back/STIM_005.jpg	100
2659.994	0.686	686.0	0back	Block4	0back/STIM_006.jpg	99
2663.076	0.966	966.4	0back	Block4	0back/STIM_006.jpg	99
2667.874	0.493	492.9	0back	Block4	0back/STIM_006.jpg	100
2671.939	0.89	890.1	0back	Block4	0back/STIM_007.jpg	100
2674.913	0.822	821.9	0back	Block4	0back/STIM_007.jpg	100
2678.789	0.897	897.0	0back	Block4	0back/STIM_007.jpg	99
2683.02	0.817	817.1	0back	Block4	0back/STIM_008.jpg	100
2686.515	0.611	610.7	0back	Block4	0back/STIM_008.jpg	100
2690.094	0.853	853.0	0back	Block4	0back/STIM_008.jpg	99
2693.108	0.574	573.5	0back	Block4	0back/STIM_009.jpg	99
2697.566	0.852	852.5	0back	Block4	0back/STIM_009.jpg	99
2701.402	0.72	720.5	0back	Block4	0back/STIM_009.jpg	100
2704.439	0.576	575.8	0back	Block4	0back/STIM_010.jpg	99
2708.021	0.717	716.7	0back	Block4	0back/STIM_010.jpg	99
2712.412	0.859	858.8	0back	Block4	0back/STIM_010.jpg	100
2716.931	0.952	952.4	0back	Block4	0back/STIM_011.jpg	100
2720.821	0.93	929.8	0back	Block4	0back/STIM_011.jpg	100
2724.473	0.772	772.4	0back	Block4	0back/STIM_011.jpg	99
2727.356	0.926	926.4	0back	Block4	0back/STIM_012.jpg	99
2731.608	0.49	489.8	0back	Block4	0back/STIM_012.jpg	100
2735.581	0.546	546.0	0back	Block4	0back/STIM_012.jpg	99
2738.414	0.854	854.2	0back	Block4	0back/STIM_013.jpg	99
2741.722	0.621	620.8	0back	Block4	0back/STIM_013.jpg	99
2744.654	0.785	785.0	0back	Block4	0back/STIM_013.jpg	100
2748.096	0.739	738.9	0back	Block4	0back/STIM_014.jpg	99
2750.95	0.583	582.8	0back	Block4	0back/STIM_014.jpg	100
2754.158	0.881	880.8	0back	Block4	0back/STIM_014.jpg	100
2759.034	0.947	947.0	0back	Block4	0back/STIM_015.jpg	100
2763.896	0.607	607.1	0back	Block4	0back/STIM_015.jpg	100
2767.832	0.63	629.6	0back	Block4	0back/STIM_015.jpg	100
2770.681	0.926	925.5	0back	Block4	0back/STIM_016.jpg	100
2773.891	0.548	548.2	0back	Block4	0back/STIM_016.jpg	99
2776.468	0.922	922.4	0back	Block4	0back/STIM_016.jpg	99
2780.921	0.907	906.7	0back	Block4	0back/STIM_017.jpg	100
2784.205	0.528	528.1	0back	Block4	0back/STIM_017.jpg	99
2787.912	0.936	936.3	0back	Block4	0back/STIM_017.jpg	99
2790.868	0.8	799.8	0back	Block4	0back/STIM_018.jpg	99
2795.162	0.809	808.8	0back	Block4	0back/STIM_018.jpg	100
2799.292	0.767	767.3	0back	Block4	0back/STIM_018.jpg	99
2803.893	0.708	707.5	0back	Block4	0back/STIM_019.jpg	100
2808.568	0.585	584.9	0back	Block4	0back/STIM_019.jpg	100
2812.733	0.585	585.4	0back	Block4	0back/STIM_019.jpg	100
