onset	duration	accuracy	trial_type	learning_stage	stimulus
0.0	1.335	incorrect	2back	Block1	2back/STIM_000.jpg
4.185	0.998	correct	2back	Block1	2back/STIM_000.jpg
9.037	1.123	correct	2back	Block1	2back/STIM_000.jpg
12.781	1.228	incorrect	2back	Block1	2back/STIM_001.jpg
17.849	0.924	correct	2back	Block1	2back/STIM_001.jpg
22.527	0.786	incorrect	2back	Block1	2back/STIM_001.jpg
26.54	1.624	correct	2back	Block1	2back/STIM_002.jpg
32.037	1.197	correct	2back	Block1	2back/STIM_002.jpg
35.638	1.013	correct	2back	Block1	2back/STIM_002.jpg
40.461	1.507	correct	2back	Block1	2back/STIM_003.jpg
44.475	1.367	incorrect	2back	Block1	2back/STIM_003.jpg
48.124	0.778	correct	2back	Block1	2back/STIM_003.jpg
52.477	1.195	correct	2back	Block1	2back/STIM_004.jpg
57.116	1.56	incorrect	2back	Block1	2back/STIM_004.jpg
62.566	0.786	correct	2back	Block1	2back/STIM_004.jpg
65.862	1.311	correct	2back	Block1	2back/STIM_005.jpg
70.716	1.238	correct	2back	Block1	2back/STIM_005.jpg
75.409	0.71	correct	2back	Block1	2back/STIM_005.jpg
79.349	0.754	correct	2back	Block1	2back/STIM_006.jpg
82.728	1.127	correct	2back	Block1	2back/STIM_006.jpg
86.915	1.203	correct	2back	Block1	2back/STIM_006.jpg
90.52	1.589	correct	2back	Block1	2back/STIM_007.jpg
95.838	1.278	incorrect	2back	Block1	2back/STIM_007.jpg
100.548	1.53	correct	2back	Block1	2back/STIM_007.jpg
104.251	1.087	correct	2back	Block1	2back/STIM_008.jpg
107.827	1.184	correct	2back	Block1	2back/STIM_008.jpg
111.976	1.411	correct	2back	Block1	2back/STIM_008.jpg
115.691	1.367	correct	2back	Block1	2back/STIM_009.jpg
120.222	1.298	correct	2back	Block1	2back/STIM_009.jpg
123.569	1.369	incorrect	2back	Block1	2back/STIM_009.jpg
128.425	0.895	correct	2back	Block1	2back/STIM_010.jpg
132.646	0.701	incorrect	2back	Block1	2back/STIM_010.jpg
136.267	1.102	correct	2back	Block1	2back/STIM_010.jpg
139.626	1.45	correct	2back	Block1	2back/STIM_011.jpg
144.636	1.389	correct	2back	Block1	2back/STIM_011.jpg
148.551	1.156	correct	2back	Block1	2back/STIM_011.jpg
152.67	1.632	correct	2back	Block1	2back/STIM_012.jpg
157.018	0.736	incorrect	2back	Block1	2back/STIM_012.jpg
160.689	1.06	correct	2back	Block1	2back/STIM_012.jpg
165.604	1.432	correct	2back	Block1	2back/STIM_013.jpg
169.713	0.896	correct	2back	Block1	2back/STIM_013.jpg
174.044	1.293	correct	2back	Block1	2back/STIM_013.jpg
178.747	1.297	correct	2back	Block1	2back/STIM_014.jpg
182.904	1.596	correct	2back	Block1	2back/STIM_014.jpg
186.6	1.268	correct	2back	Block1	2back/STIM_014.jpg
190.193	1.371	correct	2back	Block1	2back/STIM_015.jpg
193.958	0.944	correct	2back	Block1	2back/STIM_015.jpg
198.133	1.296	correct	2back	Block1	2back/STIM_015.jpg
201.861	1.314	correct	2back	Block1	2back/STIM_016.jpg
205.879	1.122	correct	2back	Block1	2back/STIM_016.jpg
210.412	1.077	incorrect	2back	Block1	2back/STIM_016.jpg
215.036	1.01	correct	2back	Block1	2back/STIM_017.jpg
218.983	1.301	correct	2back	Block1	2back/STIM_017.jpg
222.683	0.9	incorrect	2back	Block1	2back/STIM_017.jpg
227.573	1.661	correct	2back	Block1	2back/STIM_018.jpg
232.888	1.374	correct	2back	Block1	2back/STIM_018.jpg
237.403	1.196	correct	2back	Block1	2back/STIM_018.jpg
241.141	1.209	incorrect	2back	Block1	2back/STIM_019.jpg
245.054	0.718	correct	2back	Block1	2back/STIM_019.jpg
248.807	1.152	incorrect	2back	Block1	2back/STIM_019.jpg
252.715	0.917	incorrect	2back	Block1	2back/STIM_020.jpg
256.089	0.724	correct	2back	Block1	2back/STIM_020.jpg
259.669	1.484	correct	2back	Block1	2back/STIM_020.jpg
264.578	1.227	correct	2back	Block1	2back/STIM_021.jpg
268.087	0.788	incorrect	2back	Block1	2back/STIM_021.jpg
271.925	1.534	correct	2back	Block1	2back/STIM_021.jpg
276.795	1.537	incorrect	2back	Block1	2back/STIM_022.jpg
280.979	1.242	correct	2back	Block1	2back/STIM_022.jpg
284.768	0.797	correct	2back	Block1	2back/STIM_022.jpg
288.508	1.523	correct	2back	Block1	2back/STIM_023.jpg
293.806	1.03	correct	2back	Block1	2back/STIM_023.jpg
298.436	1.005	correct	2back	Block1	2back/STIM_023.jpg
301.562	0.751	correct	2back	Block1	2back/STIM_024.jpg
305.528	0.913	correct	2back	Block1	2back/STIM_024.jpg
308.679	0.941	correct	2back	Block1	2back/STIM_024.jpg
313.022	1.219	correct	2back	Block1	2back/STIM_025.jpg
316.963	0.719	correct	2back	Block1	2back/STIM_025.jpg
320.33	0.798	correct	2back	Block1	2back/STIM_025.jpg
324.022	0.745	correct	2back	Block1	2back/STIM_026.jpg
328.589	1.432	correct	2back	Block1	2back/STIM_026.jpg
332.734	0.954	correct	2back	Block1	2back/STIM_026.jpg
336.458	1.658	incorrect	2back	Block1	2back/STIM_027.jpg
340.241	1.245	correct	2back	Block1	2back/STIM_027.jpg
344.292	1.356	incorrect	2back	Block1	2back/STIM_027.jpg
349.482	1.502	correct	2back	Block1	2back/STIM_028.jpg
353.878	1.309	correct	2back	Block1	2back/STIM_028.jpg
358.909	0.998	incorrect	2back	Block1	2back/STIM_028.jpg
362.249	1.071	incorrect	2back	Block1	2back/STIM_029.jpg
365.547	0.819	correct	2back	Block1	2back/STIM_029.jpg
368.563	1.457	correct	2back	Block1	2back/STIM_029.jpg
373.384	1.634	correct	2back	Block1	2back/STIM_030.jpg
377.064	1.043	correct	2back	Block1	2back/STIM_030.jpg
381.411	0.79	incorrect	2back	Block1	2back/STIM_030.jpg
385.636	1.26	correct	2back	Block1	2back/STIM_031.jpg
390.142	1.157	correct	2back	Block1	2back/STIM_031.jpg
393.934	0.972	incorrect	2back	Block1	2back/STIM_031.jpg
398.021	0.918	incorrect	2back	Block1	2back/STIM_032.jpg
401.373	1.545	incorrect	2back	Block1	2back/STIM_032.jpg
406.078	1.461	correct	2back	Block1	2back/STIM_032.jpg
410.518	1.676	incorrect	2back	Block1	2back/STIM_033.jpg
416.093	0.869	correct	2back	Block1	2back/STIM_033.jpg
420.821	0.918	correct	2back	Block1	2back/STIM_033.jpg
423.763	1.223	correct	2back	Block1	2back/STIM_034.jpg
428.891	1.466	correct	2back	Block1	2back/STIM_034.jpg
432.464	1.395	incorrect	2back	Block1	2back/STIM_034.jpg
436.027	1.171	correct	2back	Block1	2back/STIM_035.jpg
439.43	1.274	correct	2back	Block1	2back/STIM_035.jpg
444.28	1.031	correct	2back	Block1	2back/STIM_035.jpg
448.413	1.509	correct	2back	Block1	2back/STIM_036.jpg
453.143	0.918	correct	2back	Block1	2back/STIM_036.jpg
457.343	0.825	incorrect	2back	Block1	2back/STIM_036.jpg
461.344	1.252	correct	2back	Block1	2back/STIM_037.jpg
466.125	1.061	correct	2back	Block1	2back/STIM_037.jpg
470.043	1.352	correct	2back	Block1	2back/STIM_037.jpg
474.926	0.946	correct	2back	Block1	2back/STIM_038.jpg
478.726	1.139	incorrect	2back	Block1	2back/STIM_038.jpg
483.79	1.412	correct	2back	Block1	2back/STIM_038.jpg
487.397	1.517	correct	2back	Block1	2back/STIM_039.jpg
492.218	1.367	incorrect	2back	Block1	2back/STIM_039.jpg
495.908	1.528	incorrect	2back	Block1	2back/STIM_039.jpg
499.58	0.868	correct	0back	Block1	0back/STIM_000.jpg
503.967	0.907	correct	0back	Block1	0back/STIM_000.jpg
507.174	0.705	correct	0back	Block1	0back/STIM_000.jpg
510.623	0.53	correct	0back	Block1	0back/STIM_001.jpg
514.747	0.889	correct	0back	Block1	0back/STIM_001.jpg
518.363	0.76	correct	0back	Block1	0back/STIM_001.jpg
521.956	0.77	correct	0back	Block1	0back/STIM_002.jpg
524.994	0.664	correct	0back	Block1	0back/STIM_002.jpg
528.463	0.758	correct	0back	Block1	0back/STIM_002.jpg
532.253	0.561	correct	0back	Block1	0back/STIM_003.jpg
535.039	0.499	correct	0back	Block1	0back/STIM_003.jpg
539.456	0.819	correct	0back	Block1	0back/STIM_003.jpg
542.631	0.679	correct	0back	Block1	0back/STIM_004.jpg
545.987	0.767	incorrect	0back	Block1	0back/STIM_004.jpg
549.143	0.717	correct	0back	Block1	0back/STIM_004.jpg
553.402	0.921	correct	0back	Block1	0back/STIM_005.jpg
558.17	0.814	correct	0back	Block1	0back/STIM_005.jpg
561.866	0.598	correct	0back	Block1	0back/STIM_005.jpg
564.671	0.807	correct	0back	Block1	0back/STIM_006.jpg
569.477	0.722	correct	0back	Block1	0back/STIM_006.jpg
572.566	0.882	correct	0back	Block1	0back/STIM_006.jpg
577.078	0.951	correct	0back	Block1	0back/STIM_007.jpg
581.766	0.782	incorrect	0back	Block1	0back/STIM_007.jpg
585.721	0.627	correct	0back	Block1	0back/STIM_007.jpg
588.922	0.918	correct	0back	Block1	0back/STIM_008.jpg
592.7	0.673	correct	0back	Block1	0back/STIM_008.jpg
597.202	0.751	correct	0back	Block1	0back/STIM_008.jpg
601.819	0.851	correct	0back	Block1	0back/STIM_009.jpg
606.158	0.85	correct	0back	Block1	0back/STIM_009.jpg
609.607	0.746	correct	0back	Block1	0back/STIM_009.jpg
613.21	0.751	correct	0back	Block1	0back/STIM_010.jpg
616.616	0.54	correct	0back	Block1	0back/STIM_010.jpg
620.418	0.736	correct	0back	Block1	0back/STIM_010.jpg
623.835	0.702	correct	0back	Block1	0back/STIM_011.jpg
627.918	0.796	correct	0back	Block1	0back/STIM_011.jpg
631.381	0.921	correct	0back	Block1	0back/STIM_011.jpg
635.267	0.822	correct	0back	Block1	0back/STIM_012.jpg
639.364	0.812	correct	0back	Block1	0back/STIM_012.jpg
643.072	0.678	correct	0back	Block1	0back/STIM_012.jpg
646.727	0.536	correct	0back	Block1	0back/STIM_013.jpg
650.198	0.765	correct	0back	Block1	0back/STIM_013.jpg
654.039	0.887	correct	0back	Block1	0back/STIM_013.jpg
658.247	0.753	correct	0back	Block1	0back/STIM_014.jpg
662.68	0.972	correct	0back	Block1	0back/STIM_014.jpg
667.331	0.922	correct	0back	Block1	0back/STIM_014.jpg
671.074	0.896	correct	0back	Block1	0back/STIM_015.jpg
675.333	0.532	incorrect	0back	Block1	0back/STIM_015.jpg
679.04	0.606	correct	0back	Block1	0back/STIM_015.jpg
681.733	0.921	incorrect	0back	Block1	0back/STIM_016.jpg
685.699	0.86	correct	0back	Block1	0back/STIM_016.jpg
688.602	0.964	correct	0back	Block1	0back/STIM_016.jpg
692.79	0.647	incorrect	0back	Block1	0back/STIM_017.jpg
697.061	0.668	correct	0back	Block1	0back/STIM_017.jpg
701.659	0.495	correct	0back	Block1	0back/STIM_017.jpg
704.325	0.544	incorrect	0back	Block1	0back/STIM_018.jpg
707.488	0.958	correct	0back	Block1	0back/STIM_018.jpg
711.337	0.554	correct	0back	Block1	0back/STIM_018.jpg
714.519	0.777	incorrect	0back	Block1	0back/STIM_019.jpg
717.876	0.814	correct	0back	Block1	0back/STIM_019.jpg
720.743	0.947	correct	0back	Block1	0back/STIM_019.jpg
724.167	0.901	correct	2back	Block2	2back/STIM_000.jpg
729.026	1.064	incorrect	2back	Block2	2back/STIM_000.jpg
733.292	0.589	correct	2back	Block2	2back/STIM_000.jpg
736.819	1.141	correct	2back	Block2	2back/STIM_001.jpg
740.0	1.03	incorrect	2back	Block2	2back/STIM_001.jpg
744.502	0.605	incorrect	2back	Block2	2back/STIM_001.jpg
748.818	0.635	correct	2back	Block2	2back/STIM_002.jpg
751.731	1.362	correct	2back	Block2	2back/STIM_002.jpg
756.162	0.66	correct	2back	Block2	2back/STIM_002.jpg
759.899	0.626	correct	2back	Block2	2back/STIM_003.jpg
762.935	0.742	correct	2back	Block2	2back/STIM_003.jpg
767.441	0.963	correct	2back	Block2	2back/STIM_003.jpg
772.361	0.642	correct	2back	Block2	2back/STIM_004.jpg
776.668	0.679	correct	2back	Block2	2back/STIM_004.jpg
780.475	1.217	correct	2back	Block2	2back/STIM_004.jpg
785.559	1.027	correct	2back	Block2	2back/STIM_005.jpg
789.473	1.102	correct	2back	Block2	2back/STIM_005.jpg
793.853	1.273	correct	2back	Block2	2back/STIM_005.jpg
797.363	1.206	correct	2back	Block2	2back/STIM_006.jpg
801.85	1.347	correct	2back	Block2	2back/STIM_006.jpg
805.821	1.099	correct	2back	Block2	2back/STIM_006.jpg
809.218	0.995	correct	2back	Block2	2back/STIM_007.jpg
813.559	1.301	correct	2back	Block2	2back/STIM_007.jpg
817.231	0.835	incorrect	2back	Block2	2back/STIM_007.jpg
820.84	0.684	correct	2back	Block2	2back/STIM_008.jpg
823.929	0.802	correct	2back	Block2	2back/STIM_008.jpg
828.334	0.57	correct	2back	Block2	2back/STIM_008.jpg
831.671	0.976	correct	2back	Block2	2back/STIM_009.jpg
835.779	1.077	correct	2back	Block2	2back/STIM_009.jpg
840.476	0.938	correct	2back	Block2	2back/STIM_009.jpg
843.796	1.35	incorrect	2back	Block2	2back/STIM_010.jpg
848.675	0.669	correct	2back	Block2	2back/STIM_010.jpg
852.229	0.663	correct	2back	Block2	2back/STIM_010.jpg
856.801	0.742	correct	2back	Block2	2back/STIM_011.jpg
859.779	1.151	correct	2back	Block2	2back/STIM_011.jpg
863.23	0.55	correct	2back	Block2	2back/STIM_011.jpg
867.58	0.992	correct	2back	Block2	2back/STIM_012.jpg
871.347	1.095	correct	2back	Block2	2back/STIM_012.jpg
875.754	0.643	correct	2back	Block2	2back/STIM_012.jpg
878.819	1.018	correct	2back	Block2	2back/STIM_013.jpg
883.381	0.984	correct	2back	Block2	2back/STIM_013.jpg
886.92	0.971	incorrect	2back	Block2	2back/STIM_013.jpg
891.271	0.704	correct	2back	Block2	2back/STIM_014.jpg
894.887	0.586	correct	2back	Block2	2back/STIM_014.jpg
898.255	0.855	correct	2back	Block2	2back/STIM_014.jpg
901.939	1.206	correct	2back	Block2	2back/STIM_015.jpg
905.811	1.096	correct	2back	Block2	2back/STIM_015.jpg
909.579	0.903	correct	2back	Block2	2back/STIM_015.jpg
912.865	1.191	correct	2back	Block2	2back/STIM_016.jpg
916.313	1.244	correct	2back	Block2	2back/STIM_016.jpg
920.796	0.664	correct	2back	Block2	2back/STIM_016.jpg
924.232	1.438	correct	2back	Block2	2back/STIM_017.jpg
928.129	0.974	correct	2back	Block2	2back/STIM_017.jpg
932.071	0.999	correct	2back	Block2	2back/STIM_017.jpg
936.284	1.325	correct	2back	Block2	2back/STIM_018.jpg
940.083	1.179	correct	2back	Block2	2back/STIM_018.jpg
944.678	1.138	correct	2back	Block2	2back/STIM_018.jpg
948.448	1.123	correct	2back	Block2	2back/STIM_019.jpg
951.782	1.364	correct	2back	Block2	2back/STIM_019.jpg
957.079	0.954	correct	2back	Block2	2back/STIM_019.jpg
961.612	0.714	correct	2back	Block2	2back/STIM_020.jpg
965.01	0.934	correct	2back	Block2	2back/STIM_020.jpg
969.453	1.24	correct	2back	Block2	2back/STIM_020.jpg
972.858	0.697	incorrect	2back	Block2	2back/STIM_021.jpg
977.51	1.219	correct	2back	Block2	2back/STIM_021.jpg
981.739	0.879	correct	2back	Block2	2back/STIM_021.jpg
986.048	0.748	correct	2back	Block2	2back/STIM_022.jpg
989.157	0.859	correct	2back	Block2	2back/STIM_022.jpg
992.97	0.839	correct	2back	Block2	2back/STIM_022.jpg
996.737	1.064	correct	2back	Block2	2back/STIM_023.jpg
1000.594	0.726	correct	2back	Block2	2back/STIM_023.jpg
1005.127	1.182	correct	2back	Block2	2back/STIM_023.jpg
1009.972	1.04	correct	2back	Block2	2back/STIM_024.jpg
1014.297	0.768	correct	2back	Block2	2back/STIM_024.jpg
1018.266	0.662	correct	2back	Block2	2back/STIM_024.jpg
1022.454	1.256	correct	2back	Block2	2back/STIM_025.jpg
1025.863	0.97	correct	2back	Block2	2back/STIM_025.jpg
1030.126	1.067	incorrect	2back	Block2	2back/STIM_025.jpg
1033.802	0.841	correct	2back	Block2	2back/STIM_026.jpg
1036.928	1.16	correct	2back	Block2	2back/STIM_026.jpg
1041.154	0.883	correct	2back	Block2	2back/STIM_026.jpg
1044.501	1.314	correct	2back	Block2	2back/STIM_027.jpg
1048.703	0.823	correct	2back	Block2	2back/STIM_027.jpg
1053.255	1.263	correct	2back	Block2	2back/STIM_027.jpg
1057.628	1.075	correct	2back	Block2	2back/STIM_028.jpg
1061.129	1.175	correct	2back	Block2	2back/STIM_028.jpg
1064.563	1.0	correct	2back	Block2	2back/STIM_028.jpg
1068.837	1.03	correct	2back	Block2	2back/STIM_029.jpg
1072.677	0.927	correct	2back	Block2	2back/STIM_029.jpg
1076.672	1.272	correct	2back	Block2	2back/STIM_029.jpg
1081.887	0.806	correct	2back	Block2	2back/STIM_030.jpg
1086.647	1.184	correct	2back	Block2	2back/STIM_030.jpg
1090.319	0.716	incorrect	2back	Block2	2back/STIM_030.jpg
1093.764	1.154	correct	2back	Block2	2back/STIM_031.jpg
1098.506	0.591	correct	2back	Block2	2back/STIM_031.jpg
1102.787	1.136	correct	2back	Block2	2back/STIM_031.jpg
1106.625	1.067	correct	2back	Block2	2back/STIM_032.jpg
1110.302	0.709	correct	2back	Block2	2back/STIM_032.jpg
1114.223	0.748	correct	2back	Block2	2back/STIM_032.jpg
1118.489	0.698	incorrect	2back	Block2	2back/STIM_033.jpg
1121.355	1.132	correct	2back	Block2	2back/STIM_033.jpg
1124.535	0.935	correct	2back	Block2	2back/STIM_033.jpg
1128.969	1.105	correct	2back	Block2	2back/STIM_034.jpg
1133.521	0.789	correct	2back	Block2	2back/STIM_034.jpg
1136.887	0.708	correct	2back	Block2	2back/STIM_034.jpg
1141.424	0.694	correct	2back	Block2	2back/STIM_035.jpg
1144.821	0.786	correct	2back	Block2	2back/STIM_035.jpg
1148.951	0.729	correct	2back	Block2	2back/STIM_035.jpg
1153.126	0.972	correct	2back	Block2	2back/STIM_036.jpg
1157.975	0.651	incorrect	2back	Block2	2back/STIM_036.jpg
1161.787	1.078	correct	2back	Block2	2back/STIM_036.jpg
1165.828	1.141	correct	2back	Block2	2back/STIM_037.jpg
1170.454	1.356	correct	2back	Block2	2back/STIM_037.jpg
1174.717	1.138	correct	2back	Block2	2back/STIM_037.jpg
1178.031	0.625	correct	2back	Block2	2back/STIM_038.jpg
1182.093	1.298	incorrect	2back	Block2	2back/STIM_038.jpg
1186.511	1.113	incorrect	2back	Block2	2back/STIM_038.jpg
1190.198	1.123	correct	2back	Block2	2back/STIM_039.jpg
1194.884	0.835	correct	2back	Block2	2back/STIM_039.jpg
1198.051	0.692	incorrect	2back	Block2	2back/STIM_039.jpg
1201.301	0.506	correct	0back	Block2	0back/STIM_000.jpg
1204.186	0.768	incorrect	0back	Block2	0back/STIM_000.jpg
1207.865	0.765	correct	0back	Block2	0back/STIM_000.jpg
1212.422	0.947	correct	0back	Block2	0back/STIM_001.jpg
1217.136	0.549	incorrect	0back	Block2	0back/STIM_001.jpg
1220.669	0.551	correct	0back	Block2	0back/STIM_001.jpg
1224.855	0.729	correct	0back	Block2	0back/STIM_002.jpg
1228.492	0.954	correct	0back	Block2	0back/STIM_002.jpg
1232.19	0.758	correct	0back	Block2	0back/STIM_002.jpg
1235.383	0.786	correct	0back	Block2	0back/STIM_003.jpg
1239.942	0.529	correct	0back	Block2	0back/STIM_003.jpg
1244.013	0.848	correct	0back	Block2	0back/STIM_003.jpg
1247.826	0.883	correct	0back	Block2	0back/STIM_004.jpg
1252.405	0.602	correct	0back	Block2	0back/STIM_004.jpg
1256.709	0.809	correct	0back	Block2	0back/STIM_004.jpg
1259.856	0.773	correct	0back	Block2	0back/STIM_005.jpg
1264.214	0.77	correct	0back	Block2	0back/STIM_005.jpg
1268.066	0.848	correct	0back	Block2	0back/STIM_005.jpg
1272.581	0.919	correct	0back	Block2	0back/STIM_006.jpg
1276.891	0.63	correct	0back	Block2	0back/STIM_006.jpg
1280.081	0.508	correct	0back	Block2	0back/STIM_006.jpg
1284.114	0.961	incorrect	0back	Block2	0back/STIM_007.jpg
1288.638	0.537	incorrect	0back	Block2	0back/STIM_007.jpg
1291.524	0.813	correct	0back	Block2	0back/STIM_007.jpg
1294.763	0.948	correct	0back	Block2	0back/STIM_008.jpg
1298.257	0.804	correct	0back	Block2	0back/STIM_008.jpg
1301.57	0.598	correct	0back	Block2	0back/STIM_008.jpg
1305.92	0.712	correct	0back	Block2	0back/STIM_009.jpg
1310.42	0.967	incorrect	0back	Block2	0back/STIM_009.jpg
1313.918	0.905	correct	0back	Block2	0back/STIM_009.jpg
1317.83	0.893	incorrect	0back	Block2	0back/STIM_010.jpg
1320.871	0.903	correct	0back	Block2	0back/STIM_010.jpg
1323.991	0.848	correct	0back	Block2	0back/STIM_010.jpg
1326.972	0.6	correct	0back	Block2	0back/STIM_011.jpg
1330.871	0.509	correct	0back	Block2	0back/STIM_011.jpg
1333.554	0.617	correct	0back	Block2	0back/STIM_011.jpg
1338.082	0.561	correct	0back	Block2	0back/STIM_012.jpg
1340.856	0.802	correct	0back	Block2	0back/STIM_012.jpg
1343.687	0.602	correct	0back	Block2	0back/STIM_012.jpg
1347.338	0.598	correct	0back	Block2	0back/STIM_013.jpg
1350.366	0.65	correct	0back	Block2	0back/STIM_013.jpg
1354.471	0.635	correct	0back	Block2	0back/STIM_013.jpg
1357.726	0.797	correct	0back	Block2	0back/STIM_014.jpg
1362.221	0.786	correct	0back	Block2	0back/STIM_014.jpg
1366.608	0.715	correct	0back	Block2	0back/STIM_014.jpg
1369.655	0.799	correct	0back	Block2	0back/STIM_015.jpg
1372.596	0.564	correct	0back	Block2	0back/STIM_015.jpg
1375.227	0.632	correct	0back	Block2	0back/STIM_015.jpg
1378.662	0.792	correct	0back	Block2	0back/STIM_016.jpg
1383.446	0.522	correct	0back	Block2	0back/STIM_016.jpg
1387.063	0.648	correct	0back	Block2	0back/STIM_016.jpg
1389.843	0.942	correct	0back	Block2	0back/STIM_017.jpg
1394.785	0.898	correct	0back	Block2	0back/STIM_017.jpg
1399.635	0.817	correct	0back	Block2	0back/STIM_017.jpg
1404.131	0.908	correct	0back	Block2	0back/STIM_018.jpg
1409.011	0.722	correct	0back	Block2	0back/STIM_018.jpg
1412.01	0.91	incorrect	0back	Block2	0back/STIM_018.jpg
1416.475	0.661	correct	0back	Block2	0back/STIM_019.jpg
1421.005	0.567	correct	0back	Block2	0back/STIM_019.jpg
1424.721	0.87	correct	0back	Block2	0back/STIM_019.jpg
1429.569	1.042	correct	2back	Block3	2back/STIM_000.jpg
1433.222	1.04	correct	2back	Block3	2back/STIM_000.jpg
1436.993	0.937	correct	2back	Block3	2back/STIM_000.jpg
1441.592	0.582	correct	2back	Block3	2back/STIM_001.jpg
1444.193	0.898	correct	2back	Block3	2back/STIM_001.jpg
1447.53	0.623	correct	2back	Block3	2back/STIM_001.jpg
1450.313	1.109	correct	2back	Block3	2back/STIM_002.jpg
1454.505	0.733	correct	2back	Block3	2back/STIM_002.jpg
1459.165	0.824	correct	2back	Block3	2back/STIM_002.jpg
1463.128	1.138	correct	2back	Block3	2back/STIM_003.jpg
1467.461	0.75	correct	2back	Block3	2back/STIM_003.jpg
1470.939	1.017	correct	2back	Block3	2back/STIM_003.jpg
1474.984	0.796	correct	2back	Block3	2back/STIM_004.jpg
1478.241	0.563	correct	2back	Block3	2back/STIM_004.jpg
1481.775	0.538	correct	2back	Block3	2back/STIM_004.jpg
1485.579	0.537	correct	2back	Block3	2back/STIM_005.jpg
1489.327	0.71	correct	2back	Block3	2back/STIM_005.jpg
1492.665	0.861	correct	2back	Block3	2back/STIM_005.jpg
1495.969	0.663	correct	2back	Block3	2back/STIM_006.jpg
1499.837	1.003	correct	2back	Block3	2back/STIM_006.jpg
1504.502	0.754	correct	2back	Block3	2back/STIM_006.jpg
1508.935	0.69	correct	2back	Block3	2back/STIM_007.jpg
1513.415	1.096	correct	2back	Block3	2back/STIM_007.jpg
1517.627	0.899	correct	2back	Block3	2back/STIM_007.jpg
1521.62	0.617	correct	2back	Block3	2back/STIM_008.jpg
1524.871	0.663	correct	2back	Block3	2back/STIM_008.jpg
1529.354	0.914	correct	2back	Block3	2back/STIM_008.jpg
1532.656	0.545	correct	2back	Block3	2back/STIM_009.jpg
1536.257	1.124	correct	2back	Block3	2back/STIM_009.jpg
1539.964	0.563	correct	2back	Block3	2back/STIM_009.jpg
1543.105	1.068	correct	2back	Block3	2back/STIM_010.jpg
1546.701	0.67	correct	2back	Block3	2back/STIM_010.jpg
1550.515	0.811	correct	2back	Block3	2back/STIM_010.jpg
1553.51	0.529	incorrect	2back	Block3	2back/STIM_011.jpg
1556.131	0.882	correct	2back	Block3	2back/STIM_011.jpg
1561.01	1.087	correct	2back	Block3	2back/STIM_011.jpg
1565.379	1.027	correct	2back	Block3	2back/STIM_012.jpg
1570.012	0.876	correct	2back	Block3	2back/STIM_012.jpg
1574.009	0.641	correct	2back	Block3	2back/STIM_012.jpg
1578.395	0.865	correct	2back	Block3	2back/STIM_013.jpg
1581.399	1.145	correct	2back	Block3	2back/STIM_013.jpg
1585.486	1.169	correct	2back	Block3	2back/STIM_013.jpg
1589.458	1.176	correct	2back	Block3	2back/STIM_014.jpg
1593.519	0.951	correct	2back	Block3	2back/STIM_014.jpg
1598.192	1.007	correct	2back	Block3	2back/STIM_014.jpg
1602.164	1.152	correct	2back	Block3	2back/STIM_015.jpg
1606.655	0.76	correct	2back	Block3	2back/STIM_015.jpg
1610.249	0.888	correct	2back	Block3	2back/STIM_015.jpg
1614.582	0.722	correct	2back	Block3	2back/STIM_016.jpg
1618.935	0.679	correct	2back	Block3	2back/STIM_016.jpg
1623.323	0.553	correct	2back	Block3	2back/STIM_016.jpg
1627.279	0.914	incorrect	2back	Block3	2back/STIM_017.jpg
1630.368	0.624	correct	2back	Block3	2back/STIM_017.jpg
1632.993	0.876	correct	2back	Block3	2back/STIM_017.jpg
1637.022	0.97	incorrect	2back	Block3	2back/STIM_018.jpg
1640.336	1.02	correct	2back	Block3	2back/STIM_018.jpg
1644.306	0.957	correct	2back	Block3	2back/STIM_018.jpg
1649.258	0.845	correct	2back	Block3	2back/STIM_019.jpg
1652.487	0.637	correct	2back	Block3	2back/STIM_019.jpg
1656.564	0.705	correct	2back	Block3	2back/STIM_019.jpg
1659.397	0.954	correct	2back	Block3	2back/STIM_020.jpg
1664.168	0.883	correct	2back	Block3	2back/STIM_020.jpg
1668.087	1.044	correct	2back	Block3	2back/STIM_020.jpg
1672.118	0.948	correct	2back	Block3	2back/STIM_021.jpg
1675.799	0.597	correct	2back	Block3	2back/STIM_021.jpg
1680.393	0.874	correct	2back	Block3	2back/STIM_021.jpg
1684.638	1.175	correct	2back	Block3	2back/STIM_022.jpg
1689.512	0.686	correct	2back	Block3	2back/STIM_022.jpg
1692.548	0.517	correct	2back	Block3	2back/STIM_022.jpg
1695.713	0.57	incorrect	2back	Block3	2back/STIM_023.jpg
1698.88	0.773	correct	2back	Block3	2back/STIM_023.jpg
1703.502	1.186	correct	2back	Block3	2back/STIM_023.jpg
1708.085	0.906	correct	2back	Block3	2back/STIM_024.jpg
1711.828	0.972	correct	2back	Block3	2back/STIM_024.jpg
1715.459	0.728	correct	2back	Block3	2back/STIM_024.jpg
1719.945	0.547	correct	2back	Block3	2back/STIM_025.jpg
1724.102	0.785	correct	2back	Block3	2back/STIM_025.jpg
1727.851	0.672	correct	2back	Block3	2back/STIM_025.jpg
1731.315	0.519	correct	2back	Block3	2back/STIM_026.jpg
1734.174	0.798	correct	2back	Block3	2back/STIM_026.jpg
1737.631	1.184	correct	2back	Block3	2back/STIM_026.jpg
1741.607	0.947	correct	2back	Block3	2back/STIM_027.jpg
1745.709	0.838	correct	2back	Block3	2back/STIM_027.jpg
1749.92	1.178	correct	2back	Block3	2back/STIM_027.jpg
1754.884	1.023	correct	2back	Block3	2back/STIM_028.jpg
1759.523	0.674	correct	2back	Block3	2back/STIM_028.jpg
1763.632	0.937	correct	2back	Block3	2back/STIM_028.jpg
1767.698	1.027	correct	2back	Block3	2back/STIM_029.jpg
1771.768	1.059	correct	2back	Block3	2back/STIM_029.jpg
1775.531	1.115	correct	2back	Block3	2back/STIM_029.jpg
1778.685	1.165	correct	2back	Block3	2back/STIM_030.jpg
1783.847	0.589	correct	2back	Block3	2back/STIM_030.jpg
1787.775	0.853	correct	2back	Block3	2back/STIM_030.jpg
1790.835	1.176	correct	2back	Block3	2back/STIM_031.jpg
1795.35	0.706	correct	2back	Block3	2back/STIM_031.jpg
1798.693	0.627	correct	2back	Block3	2back/STIM_031.jpg
1802.432	1.024	correct	2back	Block3	2back/STIM_032.jpg
1806.081	0.902	correct	2back	Block3	2back/STIM_032.jpg
1809.658	0.584	correct	2back	Block3	2back/STIM_032.jpg
1812.438	1.143	correct	2back	Block3	2back/STIM_033.jpg
1816.33	0.806	correct	2back	Block3	2back/STIM_033.jpg
1820.335	1.17	correct	2back	Block3	2back/STIM_033.jpg
1823.567	0.63	correct	2back	Block3	2back/STIM_034.jpg
1826.39	1.044	correct	2back	Block3	2back/STIM_034.jpg
1829.752	0.636	incorrect	2back	Block3	2back/STIM_034.jpg
1833.746	0.663	correct	2back	Block3	2back/STIM_035.jpg
1837.898	0.556	correct	2back	Block3	2back/STIM_035.jpg
1841.687	0.92	correct	2back	Block3	2back/STIM_035.jpg
1845.588	0.634	correct	2back	Block3	2back/STIM_036.jpg
1849.226	0.698	correct	2back	Block3	2back/STIM_036.jpg
1852.577	0.865	incorrect	2back	Block3	2back/STIM_036.jpg
1856.984	1.079	correct	2back	Block3	2back/STIM_037.jpg
1861.259	0.819	correct	2back	Block3	2back/STIM_037.jpg
1864.225	0.876	correct	2back	Block3	2back/STIM_037.jpg
1868.419	0.526	correct	2back	Block3	2back/STIM_038.jpg
1871.39	1.146	correct	2back	Block3	2back/STIM_038.jpg
1875.83	1.193	correct	2back	Block3	2back/STIM_038.jpg
1879.701	0.752	correct	2back	Block3	2back/STIM_039.jpg
1883.852	0.888	correct	2back	Block3	2back/STIM_039.jpg
1887.291	0.766	correct	2back	Block3	2back/STIM_039.jpg
1891.795	0.969	correct	0back	Block3	0back/STIM_000.jpg
1896.526	0.577	correct	0back	Block3	0back/STIM_000.jpg
1899.853	0.516	correct	0back	Block3	0back/STIM_000.jpg
1902.44	0.742	correct	0back	Block3	0back/STIM_001.jpg
1905.964	0.69	correct	0back	Block3	0back/STIM_001.jpg
1910.016	0.648	correct	0back	Block3	0back/STIM_001.jpg
1914.548	0.963	correct	0back	Block3	0back/STIM_002.jpg
1918.029	0.818	correct	0back	Block3	0back/STIM_002.jpg
1922.384	0.942	correct	0back	Block3	0back/STIM_002.jpg
1926.987	0.9	correct	0back	Block3	0back/STIM_003.jpg
1930.509	0.614	correct	0back	Block3	0back/STIM_003.jpg
1934.231	0.586	correct	0back	Block3	0back/STIM_003.jpg
1938.745	0.636	correct	0back	Block3	0back/STIM_004.jpg
1942.281	0.807	correct	0back	Block3	0back/STIM_004.jpg
1945.433	0.71	correct	0back	Block3	0back/STIM_004.jpg
1949.684	0.611	correct	0back	Block3	0back/STIM_005.jpg
1953.828	0.585	correct	0back	Block3	0back/STIM_005.jpg
1958.36	0.605	correct	0back	Block3	0back/STIM_005.jpg
1962.359	0.665	correct	0back	Block3	0back/STIM_006.jpg
1966.875	0.939	correct	0back	Block3	0back/STIM_006.jpg
1970.322	0.728	correct	0back	Block3	0back/STIM_006.jpg
1973.889	0.61	correct	0back	Block3	0back/STIM_007.jpg
1976.709	0.807	incorrect	0back	Block3	0back/STIM_007.jpg
1980.418	0.563	correct	0back	Block3	0back/STIM_007.jpg
1984.372	0.637	correct	0back	Block3	0back/STIM_008.jpg
1987.977	0.859	correct	0back	Block3	0back/STIM_008.jpg
1990.91	0.783	correct	0back	Block3	0back/STIM_008.jpg
1994.178	0.704	correct	0back	Block3	0back/STIM_009.jpg
1996.944	0.94	correct	0back	Block3	0back/STIM_009.jpg
2001.517	0.66	incorrect	0back	Block3	0back/STIM_009.jpg
2005.788	0.735	correct	0back	Block3	0back/STIM_010.jpg
2010.013	0.56	correct	0back	Block3	0back/STIM_010.jpg
2014.525	0.846	correct	0back	Block3	0back/STIM_010.jpg
2018.459	0.661	correct	0back	Block3	0back/STIM_011.jpg
2021.741	0.676	correct	0back	Block3	0back/STIM_011.jpg
2025.139	0.545	correct	0back	Block3	0back/STIM_011.jpg
2028.462	0.801	correct	0back	Block3	0back/STIM_012.jpg
2031.968	0.709	correct	0back	Block3	0back/STIM_012.jpg
2035.657	0.777	incorrect	0back	Block3	0back/STIM_012.jpg
2038.523	0.874	correct	0back	Block3	0back/STIM_013.jpg
2041.914	0.498	correct	0back	Block3	0back/STIM_013.jpg
2044.784	0.64	correct	0back	Block3	0back/STIM_013.jpg
2048.104	0.963	correct	0back	Block3	0back/STIM_014.jpg
2051.335	0.617	incorrect	0back	Block3	0back/STIM_014.jpg
2055.335	0.571	correct	0back	Block3	0back/STIM_014.jpg
2059.505	0.633	correct	0back	Block3	0back/STIM_015.jpg
2062.615	0.804	correct	0back	Block3	0back/STIM_015.jpg
2067.353	0.908	correct	0back	Block3	0back/STIM_015.jpg
2072.08	0.898	incorrect	0back	Block3	0back/STIM_016.jpg
2076.522	0.808	correct	0back	Block3	0back/STIM_016.jpg
2080.376	0.639	correct	0back	Block3	0back/STIM_016.jpg
2083.867	0.693	correct	0back	Block3	0back/STIM_017.jpg
2087.576	0.52	correct	0back	Block3	0back/STIM_017.jpg
2090.985	0.573	correct	0back	Block3	0back/STIM_017.jpg
2095.417	0.806	incorrect	0back	Block3	0back/STIM_018.jpg
2099.327	0.878	correct	0back	Block3	0back/STIM_018.jpg
2102.843	0.648	correct	0back	Block3	0back/STIM_018.jpg
2106.829	0.861	correct	0back	Block3	0back/STIM_019.jpg
2109.972	0.643	correct	0back	Block3	0back/STIM_019.jpg
2114.143	0.93	incorrect	0back	Block3	0back/STIM_019.jpg
2117.918	0.922	correct	2back	Block4	2back/STIM_000.jpg
2121.555	0.712	incorrect	2back	Block4	2back/STIM_000.jpg
2125.931	1.054	incorrect	2back	Block4	2back/STIM_000.jpg
2129.757	0.531	correct	2back	Block4	2back/STIM_001.jpg
2134.234	1.071	correct	2back	Block4	2back/STIM_001.jpg
2137.425	1.005	correct	2back	Block4	2back/STIM_001.jpg
2141.003	0.745	correct	2back	Block4	2back/STIM_002.jpg
2145.197	0.989	correct	2back	Block4	2back/STIM_002.jpg
2149.354	0.849	correct	2back	Block4	2back/STIM_002.jpg
2153.255	0.746	correct	2back	Block4	2back/STIM_003.jpg
2157.379	0.978	correct	2back	Block4	2back/STIM_003.jpg
2161.957	0.888	correct	2back	Block4	2back/STIM_003.jpg
2165.391	1.038	correct	2back	Block4	2back/STIM_004.jpg
2169.925	1.149	correct	2back	Block4	2back/STIM_004.jpg
2174.104	0.785	correct	2back	Block4	2back/STIM_004.jpg
2177.47	1.164	correct	2back	Block4	2back/STIM_005.jpg
2181.807	0.855	correct	2back	Block4	2back/STIM_005.jpg
2186.069	0.888	correct	2back	Block4	2back/STIM_005.jpg
2189.46	0.818	correct	2back	Block4	2back/STIM_006.jpg
2193.215	1.013	correct	2back	Block4	2back/STIM_006.jpg
2196.476	0.696	correct	2back	Block4	2back/STIM_006.jpg
2199.969	0.874	correct	2back	Block4	2back/STIM_007.jpg
2203.127	0.87	correct	2back	Block4	2back/STIM_007.jpg
2206.104	0.869	correct	2back	Block4	2back/STIM_007.jpg
2210.596	0.722	correct	2back	Block4	2back/STIM_008.jpg
2215.127	0.638	correct	2back	Block4	2back/STIM_008.jpg
2218.934	0.768	correct	2back	Block4	2back/STIM_008.jpg
2223.337	0.786	correct	2back	Block4	2back/STIM_009.jpg
2227.244	1.088	correct	2back	Block4	2back/STIM_009.jpg
2231.035	0.999	correct	2back	Block4	2back/STIM_009.jpg
2235.816	1.161	correct	2back	Block4	2back/STIM_010.jpg
2239.606	0.835	correct	2back	Block4	2back/STIM_010.jpg
2242.704	0.918	correct	2back	Block4	2back/STIM_010.jpg
2246.566	0.603	correct	2back	Block4	2back/STIM_011.jpg
2250.699	0.582	correct	2back	Block4	2back/STIM_011.jpg
2254.875	0.809	correct	2back	Block4	2back/STIM_011.jpg
2259.02	0.974	correct	2back	Block4	2back/STIM_012.jpg
2262.193	1.181	correct	2back	Block4	2back/STIM_012.jpg
2266.391	1.064	correct	2back	Block4	2back/STIM_012.jpg
2270.323	0.766	correct	2back	Block4	2back/STIM_013.jpg
2273.92	0.92	correct	2back	Block4	2back/STIM_013.jpg
2277.999	0.772	correct	2back	Block4	2back/STIM_013.jpg
2281.173	0.983	correct	2back	Block4	2back/STIM_014.jpg
2284.271	0.828	correct	2back	Block4	2back/STIM_014.jpg
2288.184	1.108	incorrect	2back	Block4	2back/STIM_014.jpg
2291.431	1.043	correct	2back	Block4	2back/STIM_015.jpg
2296.052	0.749	correct	2back	Block4	2back/STIM_015.jpg
2299.967	0.733	incorrect	2back	Block4	2back/STIM_015.jpg
2303.167	0.54	correct	2back	Block4	2back/STIM_016.jpg
2306.944	0.578	correct	2back	Block4	2back/STIM_016.jpg
2311.259	0.63	correct	2back	Block4	2back/STIM_016.jpg
2313.925	1.018	correct	2back	Block4	2back/STIM_017.jpg
2317.418	0.586	correct	2back	Block4	2back/STIM_017.jpg
2321.225	0.965	correct	2back	Block4	2back/STIM_017.jpg
2325.864	1.127	correct	2back	Block4	2back/STIM_018.jpg
2330.853	1.172	correct	2back	Block4	2back/STIM_018.jpg
2335.575	0.679	correct	2back	Block4	2back/STIM_018.jpg
2338.577	0.882	correct	2back	Block4	2back/STIM_019.jpg
2342.463	1.113	correct	2back	Block4	2back/STIM_019.jpg
2346.954	0.615	correct	2back	Block4	2back/STIM_019.jpg
2351.135	0.726	correct	2back	Block4	2back/STIM_020.jpg
2355.621	0.85	correct	2back	Block4	2back/STIM_020.jpg
2359.513	0.754	correct	2back	Block4	2back/STIM_020.jpg
2363.298	0.526	correct	2back	Block4	2back/STIM_021.jpg
2367.696	0.634	correct	2back	Block4	2back/STIM_021.jpg
2371.913	0.672	correct	2back	Block4	2back/STIM_021.jpg
2375.542	0.647	correct	2back	Block4	2back/STIM_022.jpg
2378.611	0.512	correct	2back	Block4	2back/STIM_022.jpg
2381.964	0.733	correct	2back	Block4	2back/STIM_022.jpg
2386.113	1.002	correct	2back	Block4	2back/STIM_023.jpg
2390.865	1.118	correct	2back	Block4	2back/STIM_023.jpg
2395.07	1.028	correct	2back	Block4	2back/STIM_023.jpg
2400.009	0.569	correct	2back	Block4	2back/STIM_024.jpg
2404.44	1.005	correct	2back	Block4	2back/STIM_024.jpg
2407.951	0.843	correct	2back	Block4	2back/STIM_024.jpg
2410.973	1.154	correct	2back	Block4	2back/STIM_025.jpg
2414.415	0.555	correct	2back	Block4	2back/STIM_025.jpg
2418.621	1.109	correct	2back	Block4	2back/STIM_025.jpg
2422.132	0.67	correct	2back	Block4	2back/STIM_026.jpg
2425.963	0.58	correct	2back	Block4	2back/STIM_026.jpg
2428.653	1.029	correct	2back	Block4	2back/STIM_026.jpg
2433.471	1.011	correct	2back	Block4	2back/STIM_027.jpg
2438.416	0.894	correct	2back	Block4	2back/STIM_027.jpg
2443.122	0.694	correct	2back	Block4	2back/STIM_027.jpg
2447.702	0.657	correct	2back	Block4	2back/STIM_028.jpg
2450.895	0.753	correct	2back	Block4	2back/STIM_028.jpg
2454.347	0.856	correct	2back	Block4	2back/STIM_028.jpg
2457.85	0.968	incorrect	2back	Block4	2back/STIM_029.jpg
2461.773	1.117	correct	2back	Block4	2back/STIM_029.jpg
2466.517	0.874	correct	2back	Block4	2back/STIM_029.jpg
2470.453	0.714	correct	2back	Block4	2back/STIM_030.jpg
2474.155	0.973	correct	2back	Block4	2back/STIM_030.jpg
2478.734	0.775	correct	2back	Block4	2back/STIM_030.jpg
2483.231	1.157	correct	2back	Block4	2back/STIM_031.jpg
2486.796	0.822	correct	2back	Block4	2back/STIM_031.jpg
2490.467	0.652	correct	2back	Block4	2back/STIM_031.jpg
2494.294	0.887	correct	2back	Block4	2back/STIM_032.jpg
2498.964	1.039	correct	2back	Block4	2back/STIM_032.jpg
2503.339	0.778	correct	2back	Block4	2back/STIM_032.jpg
2507.057	0.894	correct	2back	Block4	2back/STIM_033.jpg
2511.077	0.532	correct	2back	Block4	2back/STIM_033.jpg
2514.763	0.669	correct	2back	Block4	2back/STIM_033.jpg
2518.047	1.088	correct	2back	Block4	2back/STIM_034.jpg
2522.431	0.871	correct	2back	Block4	2back/STIM_034.jpg
2526.393	1.064	incorrect	2back	Block4	2back/STIM_034.jpg
2530.328	0.956	correct	2back	Block4	2back/STIM_035.jpg
2534.86	1.132	correct	2back	Block4	2back/STIM_035.jpg
2539.944	1.193	correct	2back	Block4	2back/STIM_035.jpg
2543.941	0.95	correct	2back	Block4	2back/STIM_036.jpg
2548.107	0.68	correct	2back	Block4	2back/STIM_036.jpg
2552.771	0.999	correct	2back	Block4	2back/STIM_036.jpg
2555.873	0.956	correct	2back	Block4	2back/STIM_037.jpg
2560.749	1.08	correct	2back	Block4	2back/STIM_037.jpg
2565.643	0.584	correct	2back	Block4	2back/STIM_037.jpg
2569.534	0.701	correct	2back	Block4	2back/STIM_038.jpg
2573.462	1.087	correct	2back	Block4	2back/STIM_038.jpg
2577.553	0.88	correct	2back	Block4	2back/STIM_038.jpg
2581.232	0.799	correct	2back	Block4	2back/STIM_039.jpg
2584.257	1.123	correct	2back	Block4	2back/STIM_039.jpg
2588.103	1.19	correct	2back	Block4	2back/STIM_039.jpg
2591.374	0.851	correct	0back	Block4	0back/STIM_000.jpg
2594.24	0.93	correct	0back	Block4	0back/STIM_000.jpg
2597.965	0.73	correct	0back	Block4	0back/STIM_000.jpg
2600.726	0.87	correct	0back	Block4	0back/STIM_001.jpg
2604.662	0.835	correct	0back	Block4	0back/STIM_001.jpg
2609.033	0.498	correct	0back	Block4	0back/STIM_001.jpg
2612.308	0.615	correct	0back	Block4	0back/STIM_002.jpg
2616.099	0.93	correct	0back	Block4	0back/STIM_002.jpg
2619.27	0.622	correct	0back	Block4	0back/STIM_002.jpg
2622.593	0.651	correct	0back	Block4	0back/STIM_003.jpg
2627.166	0.962	correct	0back	Block4	0back/STIM_003.jpg
2631.992	0.833	correct	0back	Block4	0back/STIM_003.jpg
2635.495	0.79	correct	0back	Block4	0back/STIM_004.jpg
2639.403	0.844	correct	0back	Block4	0back/STIM_004.jpg
2643.693	0.634	correct	0back	Block4	0back/STIM_004.jpg
2647.697	0.946	correct	0back	Block4	0back/STIM_005.jpg
2651.069	0.54	correct	0back	Block4	0back/STIM_005.jpg
2655.556	0.919	correct	0back	Block4	0back/STIM_005.jpg
2659.994	0.686	correct	0back	Block4	0back/STIM_006.jpg
2663.076	0.966	correct	0back	Block4	0back/STIM_006.jpg
2667.874	0.493	correct	0back	Block4	0back/STIM_006.jpg
2671.939	0.89	correct	0back	Block4	0back/STIM_007.jpg
2674.913	0.822	correct	0back	Block4	0back/STIM_007.jpg
2678.789	0.897	correct	0back	Block4	0back/STIM_007.jpg
2683.02	0.817	correct	0back	Block4	0back/STIM_008.jpg
2686.515	0.611	correct	0back	Block4	0back/STIM_008.jpg
2690.094	0.853	correct	0back	Block4	0back/STIM_008.jpg
2693.108	0.574	correct	0back	Block4	0back/STIM_009.jpg
2697.566	0.852	correct	0back	Block4	0back/STIM_009.jpg
2701.402	0.72	incorrect	0back	Block4	0back/STIM_009.jpg
2704.439	0.576	correct	0back	Block4	0back/STIM_010.jpg
2708.021	0.717	correct	0back	Block4	0back/STIM_010.jpg
2712.412	0.859	correct	0back	Block4	0back/STIM_010.jpg
2716.931	0.952	correct	0back	Block4	0back/STIM_011.jpg
2720.821	0.93	correct	0back	Block4	0back/STIM_011.jpg
2724.473	0.772	correct	0back	Block4	0back/STIM_011.jpg
2727.356	0.926	incorrect	0back	Block4	0back/STIM_012.jpg
2731.608	0.49	correct	0back	Block4	0back/STIM_012.jpg
2735.581	0.546	correct	0back	Block4	0back/STIM_012.jpg
2738.414	0.854	correct	0back	Block4	0back/STIM_013.jpg
2741.722	0.621	correct	0back	Block4	0back/STIM_013.jpg
2744.654	0.785	correct	0back	Block4	0back/STIM_013.jpg
2748.096	0.739	correct	0back	Block4	0back/STIM_014.jpg
2750.95	0.583	correct	0back	Block4	0back/STIM_014.jpg
2754.158	0.881	correct	0back	Block4	0back/STIM_014.jpg
2759.034	0.947	correct	0back	Block4	0back/STIM_015.jpg
2763.896	0.607	correct	0back	Block4	0back/STIM_015.jpg
2767.832	0.63	correct	0back	Block4	0back/STIM_015.jpg
2770.681	0.926	correct	0back	Block4	0back/STIM_016.jpg
2773.891	0.548	correct	0back	Block4	0back/STIM_016.jpg
2776.468	0.922	correct	0back	Block4	0back/STIM_016.jpg
2780.921	0.907	correct	0back	Block4	0back/STIM_017.jpg
2784.205	0.528	correct	0back	Block4	0back/STIM_017.jpg
2787.912	0.936	correct	0back	Block4	0back/STIM_017.jpg
2790.868	0.8	correct	0back	Block4	0back/STIM_018.jpg
2795.162	0.809	correct	0back	Block4	0back/STIM_018.jpg
2799.292	0.767	correct	0back	Block4	0back/STIM_018.jpg
2803.893	0.708	correct	0back	Block4	0back/STIM_019.jpg
2808.568	0.585	correct	0back	Block4	0back/STIM_019.jpg
2812.733	0.585	correct	0back	Block4	0back/STIM_019.jpg
