onset	duration	accuracy	trial_type	learning_stage	stimulus
0.0	1.292	incorrect	2back	Block1	2back/STIM_000.jpg
4.707	0.961	correct	2back	Block1	2back/STIM_000.jpg
8.81	1.092	correct	2back	Block1	2back/STIM_000.jpg
11.888	1.415	incorrect	2back	Block1	2back/STIM_001.jpg
16.108	1.382	correct	2back	Block1	2back/STIM_001.jpg
20.109	1.237	incorrect	2back	Block1	2back/STIM_001.jpg
23.266	0.784	correct	2back	Block1	2back/STIM_002.jpg
26.106	1.042	correct	2back	Block1	2back/STIM_002.jpg
30.541	1.083	correct	2back	Block1	2back/STIM_002.jpg
34.397	1.327	correct	2back	Block1	2back/STIM_003.jpg
37.933	1.247	correct	2back	Block1	2back/STIM_003.jpg
41.71	1.06	correct	2back	Block1	2back/STIM_003.jpg
44.792	0.878	correct	2back	Block1	2back/STIM_004.jpg
48.122	0.613	incorrect	2back	Block1	2back/STIM_004.jpg
52.073	1.194	correct	2back	Block1	2back/STIM_004.jpg
56.47	0.648	correct	2back	Block1	2back/STIM_005.jpg
59.851	1.202	correct	2back	Block1	2back/STIM_005.jpg
63.421	0.989	correct	2back	Block1	2back/STIM_005.jpg
66.395	0.739	correct	2back	Block1	2back/STIM_006.jpg
70.745	1.154	correct	2back	Block1	2back/STIM_006.jpg
75.659	1.056	correct	2back	Block1	2back/STIM_006.jpg
79.797	0.804	correct	2back	Block1	2back/STIM_007.jpg
83.996	1.261	incorrect	2back	Block1	2back/STIM_007.jpg
88.722	0.95	correct	2back	Block1	2back/STIM_007.jpg
92.019	0.856	correct	2back	Block1	2back/STIM_008.jpg
96.48	0.574	correct	2back	Block1	2back/STIM_008.jpg
99.698	0.951	correct	2back	Block1	2back/STIM_008.jpg
103.486	0.77	correct	2back	Block1	2back/STIM_009.jpg
107.716	0.746	correct	2back	Block1	2back/STIM_009.jpg
111.881	0.723	incorrect	2back	Block1	2back/STIM_009.jpg
116.095	1.343	correct	2back	Block1	2back/STIM_010.jpg
120.24	0.8	correct	2back	Block1	2back/STIM_010.jpg
124.753	1.069	correct	2back	Block1	2back/STIM_010.jpg
128.07	1.18	correct	2back	Block1	2back/STIM_011.jpg
132.676	1.032	correct	2back	Block1	2back/STIM_011.jpg
136.564	0.753	correct	2back	Block1	2back/STIM_011.jpg
140.985	0.979	correct	2back	Block1	2back/STIM_012.jpg
144.592	0.914	incorrect	2back	Block1	2back/STIM_012.jpg
147.628	0.782	correct	2back	Block1	2back/STIM_012.jpg
151.084	1.219	correct	2back	Block1	2back/STIM_013.jpg
155.953	0.6	correct	2back	Block1	2back/STIM_013.jpg
160.452	0.942	correct	2back	Block1	2back/STIM_013.jpg
164.489	0.822	correct	2back	Block1	2back/STIM_014.jpg
168.124	1.331	correct	2back	Block1	2back/STIM_014.jpg
172.823	0.656	correct	2back	Block1	2back/STIM_014.jpg
175.983	0.897	correct	2back	Block1	2back/STIM_015.jpg
179.232	0.842	correct	2back	Block1	2back/STIM_015.jpg
182.487	1.309	correct	2back	Block1	2back/STIM_015.jpg
186.219	0.878	correct	2back	Block1	2back/STIM_016.jpg
189.548	1.42	correct	2back	Block1	2back/STIM_016.jpg
193.603	1.159	correct	2back	Block1	2back/STIM_016.jpg
197.103	0.891	correct	2back	Block1	2back/STIM_017.jpg
200.576	0.849	correct	2back	Block1	2back/STIM_017.jpg
204.089	0.88	incorrect	2back	Block1	2back/STIM_017.jpg
208.669	1.17	correct	2back	Block1	2back/STIM_018.jpg
212.124	0.887	correct	2back	Block1	2back/STIM_018.jpg
216.871	1.337	correct	2back	Block1	2back/STIM_018.jpg
221.856	1.382	correct	2back	Block1	2back/STIM_019.jpg
225.458	1.228	correct	2back	Block1	2back/STIM_019.jpg
230.414	0.778	correct	2back	Block1	2back/STIM_019.jpg
234.85	1.487	incorrect	2back	Block1	2back/STIM_020.jpg
239.74	0.557	correct	2back	Block1	2back/STIM_020.jpg
243.282	0.696	correct	2back	Block1	2back/STIM_020.jpg
247.356	1.191	correct	2back	Block1	2back/STIM_021.jpg
251.922	1.149	correct	2back	Block1	2back/STIM_021.jpg
255.173	1.186	correct	2back	Block1	2back/STIM_021.jpg
259.465	0.723	incorrect	2back	Block1	2back/STIM_022.jpg
262.375	0.872	correct	2back	Block1	2back/STIM_022.jpg
267.212	0.784	correct	2back	Block1	2back/STIM_022.jpg
270.342	1.227	correct	2back	Block1	2back/STIM_023.jpg
274.855	1.171	correct	2back	Block1	2back/STIM_023.jpg
278.124	0.547	correct	2back	Block1	2back/STIM_023.jpg
280.78	1.064	correct	2back	Block1	2back/STIM_024.jpg
284.7	1.169	correct	2back	Block1	2back/STIM_024.jpg
289.385	1.097	correct	2back	Block1	2back/STIM_024.jpg
293.582	1.102	correct	2back	Block1	2back/STIM_025.jpg
298.532	1.038	correct	2back	Block1	2back/STIM_025.jpg
301.96	0.672	correct	2back	Block1	2back/STIM_025.jpg
305.4	1.201	correct	2back	Block1	2back/STIM_026.jpg
309.759	0.87	correct	2back	Block1	2back/STIM_026.jpg
313.533	0.541	correct	2back	Block1	2back/STIM_026.jpg
317.003	0.822	incorrect	2back	Block1	2back/STIM_027.jpg
321.38	1.185	correct	2back	Block1	2back/STIM_027.jpg
326.038	0.551	correct	2back	Block1	2back/STIM_027.jpg
329.13	1.349	correct	2back	Block1	2back/STIM_028.jpg
333.754	0.709	correct	2back	Block1	2back/STIM_028.jpg
337.485	1.07	incorrect	2back	Block1	2back/STIM_028.jpg
341.564	0.837	correct	2back	Block1	2back/STIM_029.jpg
344.442	0.84	correct	2back	Block1	2back/STIM_029.jpg
347.864	0.935	correct	2back	Block1	2back/STIM_029.jpg
352.161	1.456	correct	2back	Block1	2back/STIM_030.jpg
356.78	1.384	correct	2back	Block1	2back/STIM_030.jpg
361.761	1.254	incorrect	2back	Block1	2back/STIM_030.jpg
365.749	1.124	correct	2back	Block1	2back/STIM_031.jpg
369.954	1.221	correct	2back	Block1	2back/STIM_031.jpg
374.954	1.147	incorrect	2back	Block1	2back/STIM_031.jpg
379.263	0.706	incorrect	2back	Block1	2back/STIM_032.jpg
383.524	1.227	incorrect	2back	Block1	2back/STIM_032.jpg
387.145	0.944	correct	2back	Block1	2back/STIM_032.jpg
390.341	0.647	incorrect	2back	Block1	2back/STIM_033.jpg
394.544	1.084	correct	2back	Block1	2back/STIM_033.jpg
398.954	1.136	correct	2back	Block1	2back/STIM_033.jpg
403.651	1.118	correct	2back	Block1	2back/STIM_034.jpg
407.47	1.344	correct	2back	Block1	2back/STIM_034.jpg
412.319	1.326	incorrect	2back	Block1	2back/STIM_034.jpg
417.127	0.883	correct	2back	Block1	2back/STIM_035.jpg
421.244	0.952	correct	2back	Block1	2back/STIM_035.jpg
425.609	0.969	correct	2back	Block1	2back/STIM_035.jpg
428.65	0.992	incorrect	2back	Block1	2back/STIM_036.jpg
433.357	0.698	correct	2back	Block1	2back/STIM_036.jpg
436.95	0.801	incorrect	2back	Block1	2back/STIM_036.jpg
440.956	1.136	correct	2back	Block1	2back/STIM_037.jpg
445.235	0.86	correct	2back	Block1	2back/STIM_037.jpg
449.2	1.29	correct	2back	Block1	2back/STIM_037.jpg
453.287	0.814	incorrect	2back	Block1	2back/STIM_038.jpg
456.715	1.36	incorrect	2back	Block1	2back/STIM_038.jpg
460.266	0.583	correct	2back	Block1	2back/STIM_038.jpg
463.314	0.868	correct	2back	Block1	2back/STIM_039.jpg
468.062	0.66	correct	2back	Block1	2back/STIM_039.jpg
470.892	1.199	incorrect	2back	Block1	2back/STIM_039.jpg
475.361	0.733	correct	0back	Block1	0back/STIM_000.jpg
479.684	0.531	correct	0back	Block1	0back/STIM_000.jpg
484.056	0.601	correct	0back	Block1	0back/STIM_000.jpg
487.526	0.65	correct	0back	Block1	0back/STIM_001.jpg
492.114	0.558	correct	0back	Block1	0back/STIM_001.jpg
494.647	0.505	correct	0back	Block1	0back/STIM_001.jpg
499.077	0.625	correct	0back	Block1	0back/STIM_002.jpg
501.97	0.528	correct	0back	Block1	0back/STIM_002.jpg
504.772	0.674	correct	0back	Block1	0back/STIM_002.jpg
509.028	0.537	correct	0back	Block1	0back/STIM_003.jpg
513.487	0.4	correct	0back	Block1	0back/STIM_003.jpg
517.715	0.538	correct	0back	Block1	0back/STIM_003.jpg
521.488	0.62	correct	0back	Block1	0back/STIM_004.jpg
524.836	0.572	correct	0back	Block1	0back/STIM_004.jpg
528.582	0.532	correct	0back	Block1	0back/STIM_004.jpg
532.137	0.546	correct	0back	Block1	0back/STIM_005.jpg
535.462	0.633	correct	0back	Block1	0back/STIM_005.jpg
539.478	0.484	correct	0back	Block1	0back/STIM_005.jpg
543.773	0.745	correct	0back	Block1	0back/STIM_006.jpg
547.011	0.729	correct	0back	Block1	0back/STIM_006.jpg
550.193	0.631	correct	0back	Block1	0back/STIM_006.jpg
553.997	0.666	correct	0back	Block1	0back/STIM_007.jpg
556.948	0.433	correct	0back	Block1	0back/STIM_007.jpg
560.167	0.801	correct	0back	Block1	0back/STIM_007.jpg
563.765	0.624	correct	0back	Block1	0back/STIM_008.jpg
567.181	0.403	correct	0back	Block1	0back/STIM_008.jpg
571.403	0.534	correct	0back	Block1	0back/STIM_008.jpg
575.755	0.587	correct	0back	Block1	0back/STIM_009.jpg
579.811	0.603	correct	0back	Block1	0back/STIM_009.jpg
584.041	0.476	correct	0back	Block1	0back/STIM_009.jpg
586.599	0.534	correct	0back	Block1	0back/STIM_010.jpg
589.981	0.551	correct	0back	Block1	0back/STIM_010.jpg
592.711	0.63	correct	0back	Block1	0back/STIM_010.jpg
597.304	0.822	correct	0back	Block1	0back/STIM_011.jpg
600.823	0.798	correct	0back	Block1	0back/STIM_011.jpg
604.311	0.561	correct	0back	Block1	0back/STIM_011.jpg
608.564	0.542	correct	0back	Block1	0back/STIM_012.jpg
611.926	0.61	correct	0back	Block1	0back/STIM_012.jpg
616.184	0.6	correct	0back	Block1	0back/STIM_012.jpg
620.703	0.77	correct	0back	Block1	0back/STIM_013.jpg
624.571	0.657	correct	0back	Block1	0back/STIM_013.jpg
627.873	0.686	correct	0back	Block1	0back/STIM_013.jpg
631.189	0.824	correct	0back	Block1	0back/STIM_014.jpg
634.741	0.757	correct	0back	Block1	0back/STIM_014.jpg
638.828	0.456	correct	0back	Block1	0back/STIM_014.jpg
643.229	0.445	correct	0back	Block1	0back/STIM_015.jpg
646.37	0.728	incorrect	0back	Block1	0back/STIM_015.jpg
650.6	0.543	correct	0back	Block1	0back/STIM_015.jpg
654.792	0.369	correct	0back	Block1	0back/STIM_016.jpg
659.118	0.825	correct	0back	Block1	0back/STIM_016.jpg
663.284	0.59	correct	0back	Block1	0back/STIM_016.jpg
667.59	0.543	correct	0back	Block1	0back/STIM_017.jpg
671.681	0.522	correct	0back	Block1	0back/STIM_017.jpg
674.96	0.814	correct	0back	Block1	0back/STIM_017.jpg
678.864	0.543	incorrect	0back	Block1	0back/STIM_018.jpg
683.415	0.415	correct	0back	Block1	0back/STIM_018.jpg
687.838	0.714	correct	0back	Block1	0back/STIM_018.jpg
690.538	0.732	correct	0back	Block1	0back/STIM_019.jpg
693.797	0.755	correct	0back	Block1	0back/STIM_019.jpg
696.994	0.652	correct	0back	Block1	0back/STIM_019.jpg
701.545	0.944	correct	2back	Block2	2back/STIM_000.jpg
704.821	0.499	incorrect	2back	Block2	2back/STIM_000.jpg
708.803	0.778	correct	2back	Block2	2back/STIM_000.jpg
711.951	0.967	incorrect	2back	Block2	2back/STIM_001.jpg
715.69	0.711	correct	2back	Block2	2back/STIM_001.jpg
719.963	0.671	correct	2back	Block2	2back/STIM_001.jpg
723.883	0.744	correct	2back	Block2	2back/STIM_002.jpg
728.446	1.03	correct	2back	Block2	2back/STIM_002.jpg
733.016	0.489	correct	2back	Block2	2back/STIM_002.jpg
736.016	1.253	correct	2back	Block2	2back/STIM_003.jpg
740.496	0.972	correct	2back	Block2	2back/STIM_003.jpg
743.47	0.987	correct	2back	Block2	2back/STIM_003.jpg
747.213	1.13	correct	2back	Block2	2back/STIM_004.jpg
751.86	0.799	correct	2back	Block2	2back/STIM_004.jpg
754.88	0.789	correct	2back	Block2	2back/STIM_004.jpg
758.843	0.581	correct	2back	Block2	2back/STIM_005.jpg
761.476	0.558	correct	2back	Block2	2back/STIM_005.jpg
764.298	0.967	correct	2back	Block2	2back/STIM_005.jpg
767.868	0.777	correct	2back	Block2	2back/STIM_006.jpg
771.16	0.947	correct	2back	Block2	2back/STIM_006.jpg
775.61	0.583	correct	2back	Block2	2back/STIM_006.jpg
779.966	0.861	correct	2back	Block2	2back/STIM_007.jpg
784.219	0.97	correct	2back	Block2	2back/STIM_007.jpg
787.757	0.485	incorrect	2back	Block2	2back/STIM_007.jpg
791.318	0.792	correct	2back	Block2	2back/STIM_008.jpg
795.864	0.677	correct	2back	Block2	2back/STIM_008.jpg
799.459	0.661	correct	2back	Block2	2back/STIM_008.jpg
803.248	1.079	correct	2back	Block2	2back/STIM_009.jpg
806.71	0.553	correct	2back	Block2	2back/STIM_009.jpg
809.297	0.976	correct	2back	Block2	2back/STIM_009.jpg
812.885	0.668	incorrect	2back	Block2	2back/STIM_010.jpg
815.617	0.581	correct	2back	Block2	2back/STIM_010.jpg
818.41	1.011	correct	2back	Block2	2back/STIM_010.jpg
821.412	0.865	correct	2back	Block2	2back/STIM_011.jpg
825.76	0.78	correct	2back	Block2	2back/STIM_011.jpg
829.655	0.614	correct	2back	Block2	2back/STIM_011.jpg
832.422	0.998	correct	2back	Block2	2back/STIM_012.jpg
835.956	0.758	correct	2back	Block2	2back/STIM_012.jpg
840.058	0.532	correct	2back	Block2	2back/STIM_012.jpg
844.573	0.511	correct	2back	Block2	2back/STIM_013.jpg
847.515	0.863	correct	2back	Block2	2back/STIM_013.jpg
851.461	1.11	correct	2back	Block2	2back/STIM_013.jpg
854.572	0.796	correct	2back	Block2	2back/STIM_014.jpg
859.129	1.119	correct	2back	Block2	2back/STIM_014.jpg
863.516	0.913	correct	2back	Block2	2back/STIM_014.jpg
866.906	1.209	correct	2back	Block2	2back/STIM_015.jpg
870.777	0.932	correct	2back	Block2	2back/STIM_015.jpg
875.318	0.979	correct	2back	Block2	2back/STIM_015.jpg
878.708	0.991	correct	2back	Block2	2back/STIM_016.jpg
882.325	1.072	correct	2back	Block2	2back/STIM_016.jpg
886.936	0.515	correct	2back	Block2	2back/STIM_016.jpg
890.974	0.594	correct	2back	Block2	2back/STIM_017.jpg
894.583	1.138	correct	2back	Block2	2back/STIM_017.jpg
899.162	0.74	correct	2back	Block2	2back/STIM_017.jpg
901.969	0.532	correct	2back	Block2	2back/STIM_018.jpg
905.669	0.618	correct	2back	Block2	2back/STIM_018.jpg
909.751	0.736	correct	2back	Block2	2back/STIM_018.jpg
913.512	1.223	correct	2back	Block2	2back/STIM_019.jpg
918.216	0.642	correct	2back	Block2	2back/STIM_019.jpg
922.012	0.756	correct	2back	Block2	2back/STIM_019.jpg
925.531	0.729	correct	2back	Block2	2back/STIM_020.jpg
928.805	0.869	correct	2back	Block2	2back/STIM_020.jpg
932.291	0.818	correct	2back	Block2	2back/STIM_020.jpg
935.742	0.852	incorrect	2back	Block2	2back/STIM_021.jpg
939.809	1.123	correct	2back	Block2	2back/STIM_021.jpg
944.007	0.971	correct	2back	Block2	2back/STIM_021.jpg
947.502	1.253	correct	2back	Block2	2back/STIM_022.jpg
952.187	0.552	correct	2back	Block2	2back/STIM_022.jpg
955.513	0.802	correct	2back	Block2	2back/STIM_022.jpg
959.414	0.56	correct	2back	Block2	2back/STIM_023.jpg
962.693	0.656	incorrect	2back	Block2	2back/STIM_023.jpg
966.77	0.591	correct	2back	Block2	2back/STIM_023.jpg
971.312	0.634	correct	2back	Block2	2back/STIM_024.jpg
974.92	0.985	correct	2back	Block2	2back/STIM_024.jpg
978.473	0.617	correct	2back	Block2	2back/STIM_024.jpg
981.05	0.856	correct	2back	Block2	2back/STIM_025.jpg
985.535	1.123	correct	2back	Block2	2back/STIM_025.jpg
989.325	0.854	incorrect	2back	Block2	2back/STIM_025.jpg
992.928	0.791	correct	2back	Block2	2back/STIM_026.jpg
996.973	0.552	correct	2back	Block2	2back/STIM_026.jpg
1001.049	1.028	correct	2back	Block2	2back/STIM_026.jpg
1005.678	0.625	correct	2back	Block2	2back/STIM_027.jpg
1008.665	0.914	correct	2back	Block2	2back/STIM_027.jpg
1012.985	0.672	correct	2back	Block2	2back/STIM_027.jpg
1017.635	0.89	correct	2back	Block2	2back/STIM_028.jpg
1021.812	1.022	correct	2back	Block2	2back/STIM_028.jpg
1026.363	0.804	correct	2back	Block2	2back/STIM_028.jpg
1030.087	0.729	correct	2back	Block2	2back/STIM_029.jpg
1033.82	0.636	correct	2back	Block2	2back/STIM_029.jpg
1037.051	0.868	correct	2back	Block2	2back/STIM_029.jpg
1040.86	0.717	correct	2back	Block2	2back/STIM_030.jpg
1044.913	1.067	correct	2back	Block2	2back/STIM_030.jpg
1048.911	0.73	correct	2back	Block2	2back/STIM_030.jpg
1052.856	1.089	correct	2back	Block2	2back/STIM_031.jpg
1055.907	1.165	correct	2back	Block2	2back/STIM_031.jpg
1059.949	0.984	correct	2back	Block2	2back/STIM_031.jpg
1063.746	1.203	correct	2back	Block2	2back/STIM_032.jpg
1068.75	0.434	correct	2back	Block2	2back/STIM_032.jpg
1072.309	0.944	correct	2back	Block2	2back/STIM_032.jpg
1075.612	1.014	incorrect	2back	Block2	2back/STIM_033.jpg
1078.749	0.659	correct	2back	Block2	2back/STIM_033.jpg
1082.417	1.062	correct	2back	Block2	2back/STIM_033.jpg
1086.777	1.239	correct	2back	Block2	2back/STIM_034.jpg
1090.761	0.736	correct	2back	Block2	2back/STIM_034.jpg
1095.241	0.848	correct	2back	Block2	2back/STIM_034.jpg
1098.351	1.209	correct	2back	Block2	2back/STIM_035.jpg
1103.034	1.069	correct	2back	Block2	2back/STIM_035.jpg
1107.844	1.083	correct	2back	Block2	2back/STIM_035.jpg
1111.926	1.024	correct	2back	Block2	2back/STIM_036.jpg
1116.174	0.513	correct	2back	Block2	2back/STIM_036.jpg
1120.175	0.83	correct	2back	Block2	2back/STIM_036.jpg
1123.998	1.093	correct	2back	Block2	2back/STIM_037.jpg
1127.402	1.022	correct	2back	Block2	2back/STIM_037.jpg
1132.062	0.584	correct	2back	Block2	2back/STIM_037.jpg
1136.274	0.721	correct	2back	Block2	2back/STIM_038.jpg
1139.86	1.131	correct	2back	Block2	2back/STIM_038.jpg
1143.478	0.724	incorrect	2back	Block2	2back/STIM_038.jpg
1147.156	0.626	correct	2back	Block2	2back/STIM_039.jpg
1150.013	0.667	correct	2back	Block2	2back/STIM_039.jpg
1153.611	0.603	incorrect	2back	Block2	2back/STIM_039.jpg
1156.811	0.784	correct	0back	Block2	0back/STIM_000.jpg
1159.807	0.808	incorrect	0back	Block2	0back/STIM_000.jpg
1162.782	0.606	correct	0back	Block2	0back/STIM_000.jpg
1167.023	0.805	correct	0back	Block2	0back/STIM_001.jpg
1170.065	0.666	incorrect	0back	Block2	0back/STIM_001.jpg
1173.614	0.606	correct	0back	Block2	0back/STIM_001.jpg
1177.995	0.57	correct	0back	Block2	0back/STIM_002.jpg
1182.179	0.836	correct	0back	Block2	0back/STIM_002.jpg
1186.196	0.558	correct	0back	Block2	0back/STIM_002.jpg
1188.96	0.639	correct	0back	Block2	0back/STIM_003.jpg
1193.545	0.776	correct	0back	Block2	0back/STIM_003.jpg
1197.461	0.657	correct	0back	Block2	0back/STIM_003.jpg
1201.944	0.773	correct	0back	Block2	0back/STIM_004.jpg
1205.806	0.659	correct	0back	Block2	0back/STIM_004.jpg
1208.641	0.563	correct	0back	Block2	0back/STIM_004.jpg
1211.89	0.688	correct	0back	Block2	0back/STIM_005.jpg
1214.716	0.489	correct	0back	Block2	0back/STIM_005.jpg
1218.234	0.784	correct	0back	Block2	0back/STIM_005.jpg
1221.268	0.591	correct	0back	Block2	0back/STIM_006.jpg
1224.255	0.518	correct	0back	Block2	0back/STIM_006.jpg
1228.203	0.622	correct	0back	Block2	0back/STIM_006.jpg
1231.795	0.63	incorrect	0back	Block2	0back/STIM_007.jpg
1236.257	0.7	correct	0back	Block2	0back/STIM_007.jpg
1240.663	0.591	correct	0back	Block2	0back/STIM_007.jpg
1243.356	0.852	correct	0back	Block2	0back/STIM_008.jpg
1247.13	0.791	correct	0back	Block2	0back/STIM_008.jpg
1251.323	0.747	correct	0back	Block2	0back/STIM_008.jpg
1255.739	0.432	correct	0back	Block2	0back/STIM_009.jpg
1259.145	0.536	correct	0back	Block2	0back/STIM_009.jpg
1262.831	0.492	correct	0back	Block2	0back/STIM_009.jpg
1265.838	0.746	correct	0back	Block2	0back/STIM_010.jpg
1269.261	0.75	correct	0back	Block2	0back/STIM_010.jpg
1273.426	0.636	correct	0back	Block2	0back/STIM_010.jpg
1276.862	0.49	correct	0back	Block2	0back/STIM_011.jpg
1281.248	0.722	correct	0back	Block2	0back/STIM_011.jpg
1285.727	0.628	correct	0back	Block2	0back/STIM_011.jpg
1289.616	0.692	correct	0back	Block2	0back/STIM_012.jpg
1292.776	0.65	correct	0back	Block2	0back/STIM_012.jpg
1296.902	0.724	correct	0back	Block2	0back/STIM_012.jpg
1301.424	0.527	correct	0back	Block2	0back/STIM_013.jpg
1304.43	0.541	correct	0back	Block2	0back/STIM_013.jpg
1307.501	0.533	correct	0back	Block2	0back/STIM_013.jpg
1310.8	0.476	correct	0back	Block2	0back/STIM_014.jpg
1313.282	0.788	correct	0back	Block2	0back/STIM_014.jpg
1317.29	0.741	correct	0back	Block2	0back/STIM_014.jpg
1320.402	0.493	correct	0back	Block2	0back/STIM_015.jpg
1324.392	0.638	correct	0back	Block2	0back/STIM_015.jpg
1328.088	0.689	correct	0back	Block2	0back/STIM_015.jpg
1331.108	0.566	correct	0back	Block2	0back/STIM_016.jpg
1334.456	0.641	correct	0back	Block2	0back/STIM_016.jpg
1337.483	0.659	correct	0back	Block2	0back/STIM_016.jpg
1341.703	0.601	correct	0back	Block2	0back/STIM_017.jpg
1344.784	0.888	correct	0back	Block2	0back/STIM_017.jpg
1348.612	0.565	correct	0back	Block2	0back/STIM_017.jpg
1352.992	0.778	correct	0back	Block2	0back/STIM_018.jpg
1356.301	0.541	correct	0back	Block2	0back/STIM_018.jpg
1360.398	0.663	incorrect	0back	Block2	0back/STIM_018.jpg
1364.456	0.493	correct	0back	Block2	0back/STIM_019.jpg
1367.277	0.437	correct	0back	Block2	0back/STIM_019.jpg
1369.895	0.726	correct	0back	Block2	0back/STIM_019.jpg
1372.82	0.566	correct	2back	Block3	2back/STIM_000.jpg
1377.061	0.726	correct	2back	Block3	2back/STIM_000.jpg
1380.884	0.553	correct	2back	Block3	2back/STIM_000.jpg
1385.276	0.555	correct	2back	Block3	2back/STIM_001.jpg
1387.862	0.491	correct	2back	Block3	2back/STIM_001.jpg
1392.116	0.737	correct	2back	Block3	2back/STIM_001.jpg
1396.434	0.814	correct	2back	Block3	2back/STIM_002.jpg
1400.043	0.812	correct	2back	Block3	2back/STIM_002.jpg
1403.121	0.777	correct	2back	Block3	2back/STIM_002.jpg
1407.343	0.743	correct	2back	Block3	2back/STIM_003.jpg
1410.521	0.445	correct	2back	Block3	2back/STIM_003.jpg
1413.955	1.002	correct	2back	Block3	2back/STIM_003.jpg
1417.959	0.853	correct	2back	Block3	2back/STIM_004.jpg
1421.3	0.694	correct	2back	Block3	2back/STIM_004.jpg
1424.301	0.566	correct	2back	Block3	2back/STIM_004.jpg
1428.44	0.612	correct	2back	Block3	2back/STIM_005.jpg
1432.609	0.922	correct	2back	Block3	2back/STIM_005.jpg
1436.905	0.626	correct	2back	Block3	2back/STIM_005.jpg
1439.72	0.54	correct	2back	Block3	2back/STIM_006.jpg
1442.649	0.875	correct	2back	Block3	2back/STIM_006.jpg
1446.574	0.49	correct	2back	Block3	2back/STIM_006.jpg
1449.338	0.724	correct	2back	Block3	2back/STIM_007.jpg
1453.179	0.959	correct	2back	Block3	2back/STIM_007.jpg
1457.471	1.012	correct	2back	Block3	2back/STIM_007.jpg
1460.88	0.944	incorrect	2back	Block3	2back/STIM_008.jpg
1464.364	0.662	correct	2back	Block3	2back/STIM_008.jpg
1468.32	0.514	correct	2back	Block3	2back/STIM_008.jpg
1470.779	0.811	correct	2back	Block3	2back/STIM_009.jpg
1475.536	0.936	correct	2back	Block3	2back/STIM_009.jpg
1478.48	0.837	correct	2back	Block3	2back/STIM_009.jpg
1482.079	0.43	correct	2back	Block3	2back/STIM_010.jpg
1485.774	1.041	correct	2back	Block3	2back/STIM_010.jpg
1490.69	0.72	correct	2back	Block3	2back/STIM_010.jpg
1494.996	0.631	correct	2back	Block3	2back/STIM_011.jpg
1499.246	0.502	correct	2back	Block3	2back/STIM_011.jpg
1502.142	0.881	correct	2back	Block3	2back/STIM_011.jpg
1505.002	0.748	correct	2back	Block3	2back/STIM_012.jpg
1509.201	0.986	correct	2back	Block3	2back/STIM_012.jpg
1513.673	0.508	correct	2back	Block3	2back/STIM_012.jpg
1517.863	0.63	correct	2back	Block3	2back/STIM_013.jpg
1521.006	0.816	correct	2back	Block3	2back/STIM_013.jpg
1524.33	0.757	correct	2back	Block3	2back/STIM_013.jpg
1528.468	0.696	correct	2back	Block3	2back/STIM_014.jpg
1531.406	0.922	correct	2back	Block3	2back/STIM_014.jpg
1536.039	0.595	correct	2back	Block3	2back/STIM_014.jpg
1539.88	0.596	correct	2back	Block3	2back/STIM_015.jpg
1542.86	0.617	correct	2back	Block3	2back/STIM_015.jpg
1545.595	0.82	correct	2back	Block3	2back/STIM_015.jpg
1550.399	0.7	correct	2back	Block3	2back/STIM_016.jpg
1554.441	0.624	correct	2back	Block3	2back/STIM_016.jpg
1557.051	0.536	correct	2back	Block3	2back/STIM_016.jpg
1559.698	0.503	correct	2back	Block3	2back/STIM_017.jpg
1562.629	0.679	correct	2back	Block3	2back/STIM_017.jpg
1566.988	0.68	correct	2back	Block3	2back/STIM_017.jpg
1571.657	0.332	incorrect	2back	Block3	2back/STIM_018.jpg
1575.757	0.655	correct	2back	Block3	2back/STIM_018.jpg
1579.392	0.88	correct	2back	Block3	2back/STIM_018.jpg
1582.267	0.636	correct	2back	Block3	2back/STIM_019.jpg
1586.22	0.749	correct	2back	Block3	2back/STIM_019.jpg
1590.833	1.05	correct	2back	Block3	2back/STIM_019.jpg
1595.43	0.458	correct	2back	Block3	2back/STIM_020.jpg
1598.405	0.501	correct	2back	Block3	2back/STIM_020.jpg
1600.886	0.772	correct	2back	Block3	2back/STIM_020.jpg
1605.144	0.51	correct	2back	Block3	2back/STIM_021.jpg
1608.399	0.755	correct	2back	Block3	2back/STIM_021.jpg
1613.085	0.565	correct	2back	Block3	2back/STIM_021.jpg
1616.585	0.488	correct	2back	Block3	2back/STIM_022.jpg
1619.269	0.544	correct	2back	Block3	2back/STIM_022.jpg
1623.419	0.879	correct	2back	Block3	2back/STIM_022.jpg
1627.918	0.657	incorrect	2back	Block3	2back/STIM_023.jpg
1632.419	0.94	correct	2back	Block3	2back/STIM_023.jpg
1636.355	0.687	correct	2back	Block3	2back/STIM_023.jpg
1640.887	0.694	correct	2back	Block3	2back/STIM_024.jpg
1644.366	0.467	correct	2back	Block3	2back/STIM_024.jpg
1647.003	0.548	correct	2back	Block3	2back/STIM_024.jpg
1650.81	0.443	correct	2back	Block3	2back/STIM_025.jpg
1655.124	0.905	correct	2back	Block3	2back/STIM_025.jpg
1658.019	0.547	correct	2back	Block3	2back/STIM_025.jpg
1661.901	0.848	correct	2back	Block3	2back/STIM_026.jpg
1666.318	0.7	correct	2back	Block3	2back/STIM_026.jpg
1670.963	0.912	correct	2back	Block3	2back/STIM_026.jpg
1674.718	0.79	correct	2back	Block3	2back/STIM_027.jpg
1679.255	0.926	correct	2back	Block3	2back/STIM_027.jpg
1684.123	0.69	correct	2back	Block3	2back/STIM_027.jpg
1686.936	0.719	correct	2back	Block3	2back/STIM_028.jpg
1690.744	0.813	correct	2back	Block3	2back/STIM_028.jpg
1695.544	0.423	correct	2back	Block3	2back/STIM_028.jpg
1699.157	0.689	correct	2back	Block3	2back/STIM_029.jpg
1702.992	0.899	correct	2back	Block3	2back/STIM_029.jpg
1707.787	0.94	correct	2back	Block3	2back/STIM_029.jpg
1711.905	0.651	correct	2back	Block3	2back/STIM_030.jpg
1715.971	0.638	correct	2back	Block3	2back/STIM_030.jpg
1719.655	0.782	correct	2back	Block3	2back/STIM_030.jpg
1722.904	0.767	correct	2back	Block3	2back/STIM_031.jpg
1726.871	0.769	correct	2back	Block3	2back/STIM_031.jpg
1731.103	0.908	correct	2back	Block3	2back/STIM_031.jpg
1735.876	0.811	correct	2back	Block3	2back/STIM_032.jpg
1738.919	0.729	correct	2back	Block3	2back/STIM_032.jpg
1743.075	0.509	correct	2back	Block3	2back/STIM_032.jpg
1745.612	0.54	correct	2back	Block3	2back/STIM_033.jpg
1749.423	0.668	correct	2back	Block3	2back/STIM_033.jpg
1753.009	0.551	correct	2back	Block3	2back/STIM_033.jpg
1756.523	0.386	correct	2back	Block3	2back/STIM_034.jpg
1760.458	0.485	correct	2back	Block3	2back/STIM_034.jpg
1764.467	0.619	correct	2back	Block3	2back/STIM_034.jpg
1768.224	0.957	correct	2back	Block3	2back/STIM_035.jpg
1772.221	0.726	correct	2back	Block3	2back/STIM_035.jpg
1776.802	0.823	correct	2back	Block3	2back/STIM_035.jpg
1780.948	0.94	correct	2back	Block3	2back/STIM_036.jpg
1785.762	0.826	correct	2back	Block3	2back/STIM_036.jpg
1789.708	0.849	incorrect	2back	Block3	2back/STIM_036.jpg
1793.594	0.837	correct	2back	Block3	2back/STIM_037.jpg
1797.603	0.766	correct	2back	Block3	2back/STIM_037.jpg
1801.111	0.618	correct	2back	Block3	2back/STIM_037.jpg
1804.012	0.863	correct	2back	Block3	2back/STIM_038.jpg
1808.752	0.844	correct	2back	Block3	2back/STIM_038.jpg
1812.019	0.649	correct	2back	Block3	2back/STIM_038.jpg
1815.366	0.554	correct	2back	Block3	2back/STIM_039.jpg
1817.952	0.66	correct	2back	Block3	2back/STIM_039.jpg
1821.758	0.968	correct	2back	Block3	2back/STIM_039.jpg
1824.942	0.627	correct	0back	Block3	0back/STIM_000.jpg
1827.67	0.773	correct	0back	Block3	0back/STIM_000.jpg
1831.526	0.655	correct	0back	Block3	0back/STIM_000.jpg
1834.272	0.508	correct	0back	Block3	0back/STIM_001.jpg
1838.028	0.548	correct	0back	Block3	0back/STIM_001.jpg
1841.715	0.846	correct	0back	Block3	0back/STIM_001.jpg
1845.098	0.536	correct	0back	Block3	0back/STIM_002.jpg
1847.791	0.693	correct	0back	Block3	0back/STIM_002.jpg
1850.751	0.613	correct	0back	Block3	0back/STIM_002.jpg
1854.053	0.771	correct	0back	Block3	0back/STIM_003.jpg
1858.67	0.752	correct	0back	Block3	0back/STIM_003.jpg
1863.087	0.464	correct	0back	Block3	0back/STIM_003.jpg
1867.108	0.807	correct	0back	Block3	0back/STIM_004.jpg
1871.636	0.754	correct	0back	Block3	0back/STIM_004.jpg
1876.07	0.461	correct	0back	Block3	0back/STIM_004.jpg
1879.4	0.559	correct	0back	Block3	0back/STIM_005.jpg
1883.144	0.616	correct	0back	Block3	0back/STIM_005.jpg
1887.189	0.56	correct	0back	Block3	0back/STIM_005.jpg
1891.202	0.439	correct	0back	Block3	0back/STIM_006.jpg
1894.736	0.546	correct	0back	Block3	0back/STIM_006.jpg
1898.396	0.831	correct	0back	Block3	0back/STIM_006.jpg
1902.344	0.851	correct	0back	Block3	0back/STIM_007.jpg
1905.514	0.717	correct	0back	Block3	0back/STIM_007.jpg
1910.16	0.638	correct	0back	Block3	0back/STIM_007.jpg
1912.971	0.43	correct	0back	Block3	0back/STIM_008.jpg
1916.364	0.771	correct	0back	Block3	0back/STIM_008.jpg
1920.02	0.723	correct	0back	Block3	0back/STIM_008.jpg
1923.682	0.485	correct	0back	Block3	0back/STIM_009.jpg
1928.077	0.689	correct	0back	Block3	0back/STIM_009.jpg
1932.003	0.763	incorrect	0back	Block3	0back/STIM_009.jpg
1936.082	0.693	correct	0back	Block3	0back/STIM_010.jpg
1939.939	0.776	correct	0back	Block3	0back/STIM_010.jpg
1944.496	0.611	correct	0back	Block3	0back/STIM_010.jpg
1947.401	0.545	correct	0back	Block3	0back/STIM_011.jpg
1951.451	0.508	correct	0back	Block3	0back/STIM_011.jpg
1955.828	0.559	correct	0back	Block3	0back/STIM_011.jpg
1960.302	0.572	correct	0back	Block3	0back/STIM_012.jpg
1964.812	0.79	correct	0back	Block3	0back/STIM_012.jpg
1968.262	0.581	correct	0back	Block3	0back/STIM_012.jpg
1971.726	0.808	correct	0back	Block3	0back/STIM_013.jpg
1975.26	0.579	correct	0back	Block3	0back/STIM_013.jpg
1979.485	0.576	correct	0back	Block3	0back/STIM_013.jpg
1983.407	0.56	correct	0back	Block3	0back/STIM_014.jpg
1986.466	0.657	incorrect	0back	Block3	0back/STIM_014.jpg
1991.043	0.386	correct	0back	Block3	0back/STIM_014.jpg
1995.024	0.793	correct	0back	Block3	0back/STIM_015.jpg
1998.498	0.721	correct	0back	Block3	0back/STIM_015.jpg
2001.484	0.476	correct	0back	Block3	0back/STIM_015.jpg
2004.428	0.798	correct	0back	Block3	0back/STIM_016.jpg
2008.24	0.72	correct	0back	Block3	0back/STIM_016.jpg
2012.032	0.756	correct	0back	Block3	0back/STIM_016.jpg
2015.198	0.462	correct	0back	Block3	0back/STIM_017.jpg
2017.831	0.812	correct	0back	Block3	0back/STIM_017.jpg
2021.723	0.475	correct	0back	Block3	0back/STIM_017.jpg
2025.044	0.443	correct	0back	Block3	0back/STIM_018.jpg
2028.278	0.85	correct	0back	Block3	0back/STIM_018.jpg
2032.235	0.742	correct	0back	Block3	0back/STIM_018.jpg
2036.059	0.448	correct	0back	Block3	0back/STIM_019.jpg
2039.214	0.658	correct	0back	Block3	0back/STIM_019.jpg
2042.165	0.865	incorrect	0back	Block3	0back/STIM_019.jpg
2046.698	0.881	correct	2back	Block4	2back/STIM_000.jpg
2050.719	0.766	incorrect	2back	Block4	2back/STIM_000.jpg
2054.681	0.901	incorrect	2back	Block4	2back/STIM_000.jpg
2059.29	0.46	correct	2back	Block4	2back/STIM_001.jpg
2062.577	0.592	correct	2back	Block4	2back/STIM_001.jpg
2066.302	0.84	correct	2back	Block4	2back/STIM_001.jpg
2070.282	0.662	correct	2back	Block4	2back/STIM_002.jpg
2073.81	0.544	correct	2back	Block4	2back/STIM_002.jpg
2077.102	0.54	correct	2back	Block4	2back/STIM_002.jpg
2079.721	0.641	correct	2back	Block4	2back/STIM_003.jpg
2082.537	0.511	correct	2back	Block4	2back/STIM_003.jpg
2085.053	0.914	correct	2back	Block4	2back/STIM_003.jpg
2088.219	0.578	correct	2back	Block4	2back/STIM_004.jpg
2091.97	0.607	correct	2back	Block4	2back/STIM_004.jpg
2095.365	0.816	correct	2back	Block4	2back/STIM_004.jpg
2099.222	0.74	correct	2back	Block4	2back/STIM_005.jpg
2103.368	0.64	correct	2back	Block4	2back/STIM_005.jpg
2107.009	0.987	correct	2back	Block4	2back/STIM_005.jpg
2110.176	0.656	correct	2back	Block4	2back/STIM_006.jpg
2113.537	0.678	correct	2back	Block4	2back/STIM_006.jpg
2117.765	0.563	correct	2back	Block4	2back/STIM_006.jpg
2121.253	0.767	correct	2back	Block4	2back/STIM_007.jpg
2125.542	0.704	correct	2back	Block4	2back/STIM_007.jpg
2128.54	0.526	correct	2back	Block4	2back/STIM_007.jpg
2131.953	0.413	correct	2back	Block4	2back/STIM_008.jpg
2135.798	0.59	correct	2back	Block4	2back/STIM_008.jpg
2138.96	0.694	correct	2back	Block4	2back/STIM_008.jpg
2143.127	0.599	correct	2back	Block4	2back/STIM_009.jpg
2147.01	0.643	correct	2back	Block4	2back/STIM_009.jpg
2150.02	0.526	correct	2back	Block4	2back/STIM_009.jpg
2152.629	0.94	correct	2back	Block4	2back/STIM_010.jpg
2157.422	0.992	correct	2back	Block4	2back/STIM_010.jpg
2161.06	0.89	correct	2back	Block4	2back/STIM_010.jpg
2164.929	0.633	correct	2back	Block4	2back/STIM_011.jpg
2169.177	0.455	correct	2back	Block4	2back/STIM_011.jpg
2171.757	0.84	correct	2back	Block4	2back/STIM_011.jpg
2175.454	0.964	correct	2back	Block4	2back/STIM_012.jpg
2180.278	0.911	correct	2back	Block4	2back/STIM_012.jpg
2183.902	0.954	correct	2back	Block4	2back/STIM_012.jpg
2187.502	0.513	correct	2back	Block4	2back/STIM_013.jpg
2190.628	0.68	correct	2back	Block4	2back/STIM_013.jpg
2194.626	0.788	correct	2back	Block4	2back/STIM_013.jpg
2198.781	0.858	correct	2back	Block4	2back/STIM_014.jpg
2201.694	0.528	correct	2back	Block4	2back/STIM_014.jpg
2204.582	0.671	correct	2back	Block4	2back/STIM_014.jpg
2208.787	1.034	correct	2back	Block4	2back/STIM_015.jpg
2212.977	0.771	correct	2back	Block4	2back/STIM_015.jpg
2217.627	0.522	incorrect	2back	Block4	2back/STIM_015.jpg
2220.357	0.664	correct	2back	Block4	2back/STIM_016.jpg
2223.034	0.484	correct	2back	Block4	2back/STIM_016.jpg
2226.453	0.713	correct	2back	Block4	2back/STIM_016.jpg
2230.749	0.75	correct	2back	Block4	2back/STIM_017.jpg
2233.972	0.744	correct	2back	Block4	2back/STIM_017.jpg
2238.074	0.636	correct	2back	Block4	2back/STIM_017.jpg
2241.239	0.673	correct	2back	Block4	2back/STIM_018.jpg
2245.459	0.943	correct	2back	Block4	2back/STIM_018.jpg
2250.067	0.684	correct	2back	Block4	2back/STIM_018.jpg
2253.141	0.538	correct	2back	Block4	2back/STIM_019.jpg
2256.593	0.669	correct	2back	Block4	2back/STIM_019.jpg
2260.192	0.929	correct	2back	Block4	2back/STIM_019.jpg
2264.518	0.952	correct	2back	Block4	2back/STIM_020.jpg
2267.46	0.541	correct	2back	Block4	2back/STIM_020.jpg
2270.854	0.727	correct	2back	Block4	2back/STIM_020.jpg
2273.832	0.625	correct	2back	Block4	2back/STIM_021.jpg
2277.18	0.798	correct	2back	Block4	2back/STIM_021.jpg
2280.641	0.984	correct	2back	Block4	2back/STIM_021.jpg
2284.474	0.617	correct	2back	Block4	2back/STIM_022.jpg
2288.073	0.448	correct	2back	Block4	2back/STIM_022.jpg
2292.398	0.686	correct	2back	Block4	2back/STIM_022.jpg
2296.016	0.976	correct	2back	Block4	2back/STIM_023.jpg
2299.152	0.803	correct	2back	Block4	2back/STIM_023.jpg
2303.276	0.936	correct	2back	Block4	2back/STIM_023.jpg
2307.819	0.405	correct	2back	Block4	2back/STIM_024.jpg
2311.568	1.014	correct	2back	Block4	2back/STIM_024.jpg
2316.294	0.645	correct	2back	Block4	2back/STIM_024.jpg
2319.604	0.67	correct	2back	Block4	2back/STIM_025.jpg
2323.959	0.767	correct	2back	Block4	2back/STIM_025.jpg
2327.61	1.05	correct	2back	Block4	2back/STIM_025.jpg
2332.259	0.786	correct	2back	Block4	2back/STIM_026.jpg
2335.746	0.609	correct	2back	Block4	2back/STIM_026.jpg
2338.486	0.798	correct	2back	Block4	2back/STIM_026.jpg
2342.329	0.881	correct	2back	Block4	2back/STIM_027.jpg
2345.923	0.78	correct	2back	Block4	2back/STIM_027.jpg
2349.82	0.728	correct	2back	Block4	2back/STIM_027.jpg
2353.811	0.823	correct	2back	Block4	2back/STIM_028.jpg
2357.747	0.698	correct	2back	Block4	2back/STIM_028.jpg
2360.783	0.712	correct	2back	Block4	2back/STIM_028.jpg
2364.062	0.454	correct	2back	Block4	2back/STIM_029.jpg
2367.431	0.996	correct	2back	Block4	2back/STIM_029.jpg
2371.28	0.414	correct	2back	Block4	2back/STIM_029.jpg
2374.285	1.004	correct	2back	Block4	2back/STIM_030.jpg
2377.92	0.48	correct	2back	Block4	2back/STIM_030.jpg
2381.331	0.556	correct	2back	Block4	2back/STIM_030.jpg
2384.591	0.439	correct	2back	Block4	2back/STIM_031.jpg
2387.215	0.98	correct	2back	Block4	2back/STIM_031.jpg
2390.272	0.834	correct	2back	Block4	2back/STIM_031.jpg
2393.519	0.694	correct	2back	Block4	2back/STIM_032.jpg
2396.595	0.751	correct	2back	Block4	2back/STIM_032.jpg
2399.625	0.705	correct	2back	Block4	2back/STIM_032.jpg
2403.59	0.86	correct	2back	Block4	2back/STIM_033.jpg
2408.273	0.578	correct	2back	Block4	2back/STIM_033.jpg
2411.344	0.574	correct	2back	Block4	2back/STIM_033.jpg
2414.88	0.945	correct	2back	Block4	2back/STIM_034.jpg
2419.459	0.609	correct	2back	Block4	2back/STIM_034.jpg
2423.994	0.967	incorrect	2back	Block4	2back/STIM_034.jpg
2427.185	0.751	correct	2back	Block4	2back/STIM_035.jpg
2429.914	0.458	correct	2back	Block4	2back/STIM_035.jpg
2434.061	0.977	correct	2back	Block4	2back/STIM_035.jpg
2437.065	0.526	correct	2back	Block4	2back/STIM_036.jpg
2440.715	1.034	correct	2back	Block4	2back/STIM_036.jpg
2445.616	0.949	correct	2back	Block4	2back/STIM_036.jpg
2450.031	0.651	correct	2back	Block4	2back/STIM_037.jpg
2453.203	0.697	correct	2back	Block4	2back/STIM_037.jpg
2457.424	0.602	correct	2back	Block4	2back/STIM_037.jpg
2461.006	0.738	correct	2back	Block4	2back/STIM_038.jpg
2464.254	0.453	correct	2back	Block4	2back/STIM_038.jpg
2467.634	0.985	correct	2back	Block4	2back/STIM_038.jpg
2471.202	1.011	correct	2back	Block4	2back/STIM_039.jpg
2474.832	0.682	correct	2back	Block4	2back/STIM_039.jpg
2478.111	0.866	correct	2back	Block4	2back/STIM_039.jpg
2482.82	0.439	correct	0back	Block4	0back/STIM_000.jpg
2486.037	0.552	correct	0back	Block4	0back/STIM_000.jpg
2488.788	0.665	correct	0back	Block4	0back/STIM_000.jpg
2493.079	0.694	correct	0back	Block4	0back/STIM_001.jpg
2497.427	0.708	correct	0back	Block4	0back/STIM_001.jpg
2500.162	0.635	correct	0back	Block4	0back/STIM_001.jpg
2503.854	0.544	correct	0back	Block4	0back/STIM_002.jpg
2507.214	0.676	correct	0back	Block4	0back/STIM_002.jpg
2511.512	0.656	correct	0back	Block4	0back/STIM_002.jpg
2516.055	0.707	correct	0back	Block4	0back/STIM_003.jpg
2519.721	0.661	correct	0back	Block4	0back/STIM_003.jpg
2524.283	0.896	correct	0back	Block4	0back/STIM_003.jpg
2528.215	0.75	correct	0back	Block4	0back/STIM_004.jpg
2531.23	0.561	correct	0back	Block4	0back/STIM_004.jpg
2535.129	0.449	correct	0back	Block4	0back/STIM_004.jpg
2537.593	0.446	correct	0back	Block4	0back/STIM_005.jpg
2541.237	0.472	correct	0back	Block4	0back/STIM_005.jpg
2545.436	0.582	correct	0back	Block4	0back/STIM_005.jpg
2548.743	0.403	correct	0back	Block4	0back/STIM_006.jpg
2551.231	0.747	correct	0back	Block4	0back/STIM_006.jpg
2555.634	0.531	correct	0back	Block4	0back/STIM_006.jpg
2559.62	0.449	correct	0back	Block4	0back/STIM_007.jpg
2563.128	0.658	correct	0back	Block4	0back/STIM_007.jpg
2567.478	0.495	correct	0back	Block4	0back/STIM_007.jpg
2570.915	0.663	correct	0back	Block4	0back/STIM_008.jpg
2574.655	0.574	correct	0back	Block4	0back/STIM_008.jpg
2579.083	0.656	correct	0back	Block4	0back/STIM_008.jpg
2582.136	0.548	correct	0back	Block4	0back/STIM_009.jpg
2585.993	0.644	correct	0back	Block4	0back/STIM_009.jpg
2589.524	0.434	correct	0back	Block4	0back/STIM_009.jpg
2593.548	0.383	correct	0back	Block4	0back/STIM_010.jpg
2597.659	0.658	correct	0back	Block4	0back/STIM_010.jpg
2601.753	0.826	correct	0back	Block4	0back/STIM_010.jpg
2604.531	0.513	correct	0back	Block4	0back/STIM_011.jpg
2607.873	0.415	correct	0back	Block4	0back/STIM_011.jpg
2612.245	0.772	correct	0back	Block4	0back/STIM_011.jpg
2615.945	0.867	incorrect	0back	Block4	0back/STIM_012.jpg
2620.437	0.651	correct	0back	Block4	0back/STIM_012.jpg
2623.986	0.68	correct	0back	Block4	0back/STIM_012.jpg
2627.741	0.542	correct	0back	Block4	0back/STIM_013.jpg
2630.998	0.533	correct	0back	Block4	0back/STIM_013.jpg
2634.73	0.564	correct	0back	Block4	0back/STIM_013.jpg
2638.651	0.76	correct	0back	Block4	0back/STIM_014.jpg
2642.134	0.626	correct	0back	Block4	0back/STIM_014.jpg
2645.302	0.805	correct	0back	Block4	0back/STIM_014.jpg
2648.383	0.734	correct	0back	Block4	0back/STIM_015.jpg
2652.426	0.799	correct	0back	Block4	0back/STIM_015.jpg
2655.2	0.713	correct	0back	Block4	0back/STIM_015.jpg
2658.845	0.739	correct	0back	Block4	0back/STIM_016.jpg
2662.805	0.486	correct	0back	Block4	0back/STIM_016.jpg
2666.721	0.742	correct	0back	Block4	0back/STIM_016.jpg
2671.346	0.678	correct	0back	Block4	0back/STIM_017.jpg
2675.383	0.662	correct	0back	Block4	0back/STIM_017.jpg
2678.425	0.467	correct	0back	Block4	0back/STIM_017.jpg
2682.289	0.755	correct	0back	Block4	0back/STIM_018.jpg
2686.412	0.8	correct	0back	Block4	0back/STIM_018.jpg
2690.382	0.834	correct	0back	Block4	0back/STIM_018.jpg
2695.152	0.827	correct	0back	Block4	0back/STIM_019.jpg
2699.108	0.495	correct	0back	Block4	0back/STIM_019.jpg
2702.81	0.568	correct	0back	Block4	0back/STIM_019.jpg
