onset	duration	response_time_ms	trial_type	learning_stage	stimulus	response_port
0.0	1.292	1292.2	2back	Block1	2back/STIM_000.jpg	100
4.707	0.961	961.1	2back	Block1	2back/STIM_000.jpg	99
8.81	1.092	1091.6	2back	Block1	2back/STIM_000.jpg	99
11.888	1.415	1415.0	2back	Block1	2back/STIM_001.jpg	99
16.108	1.382	1382.0	2back	Block1	2back/STIM_001.jpg	99
20.109	1.237	1236.7	2back	Block1	2back/STIM_001.jpg	100
23.266	0.784	783.6	2back	Block1	2back/STIM_002.jpg	100
26.106	1.042	1041.9	2back	Block1	2back/STIM_002.jpg	100
30.541	1.083	1083.2	2back	Block1	2back/STIM_002.jpg	99
34.397	1.327	1326.8	2back	Block1	2back/STIM_003.jpg	100
37.933	1.247	1247.3	2back	Block1	2back/STIM_003.jpg	100
41.71	1.06	1059.5	2back	Block1	2back/STIM_003.jpg	100
44.792	0.878	878.3	2back	Block1	2back/STIM_004.jpg	99
48.122	0.613	612.9	2back	Block1	2back/STIM_004.jpg	100
52.073	1.194	1194.5	2back	Block1	2back/STIM_004.jpg	100
56.47	0.648	648.2	2back	Block1	2back/STIM_005.jpg	99
59.851	1.202	1201.5	2back	Block1	2back/STIM_005.jpg	100
63.421	0.989	988.8	2back	Block1	2back/STIM_005.jpg	100
66.395	0.739	738.9	2back	Block1	2back/STIM_006.jpg	100
70.745	1.154	1153.5	2back	Block1	2back/STIM_006.jpg	100
75.659	1.056	1056.5	2back	Block1	2back/STIM_006.jpg	99
79.797	0.804	803.9	2back	Block1	2back/STIM_007.jpg	99
83.996	1.261	1261.4	2back	Block1	2back/STIM_007.jpg	100
88.722	0.95	949.6	2back	Block1	2back/STIM_007.jpg	99
92.019	0.856	855.7	2back	Block1	2back/STIM_008.jpg	99
96.48	0.574	573.7	2back	Block1	2back/STIM_008.jpg	100
99.698	0.951	951.0	2back	Block1	2back/STIM_008.jpg	99
103.486	0.77	769.8	2back	Block1	2back/STIM_009.jpg	100
107.716	0.746	746.2	2back	Block1	2back/STIM_009.jpg	100
111.881	0.723	723.2	2back	Block1	2back/STIM_009.jpg	99
116.095	1.343	1342.9	2back	Block1	2back/STIM_010.jpg	100
120.24	0.8	800.3	2back	Block1	2back/STIM_010.jpg	99
124.753	1.069	1068.7	2back	Block1	2back/STIM_010.jpg	99
128.07	1.18	1179.5	2back	Block1	2back/STIM_011.jpg	100
132.676	1.032	1032.1	2back	Block1	2back/STIM_011.jpg	99
136.564	0.753	753.4	2back	Block1	2back/STIM_011.jpg	100
140.985	0.979	978.8	2back	Block1	2back/STIM_012.jpg	100
144.592	0.914	914.0	2back	Block1	2back/STIM_012.jpg	99
147.628	0.782	781.6	2back	Block1	2back/STIM_012.jpg	99
151.084	1.219	1219.3	2back	Block1	2back/STIM_013.jpg	100
155.953	0.6	600.1	2back	Block1	2back/STIM_013.jpg	99
160.452	0.942	941.5	2back	Block1	2back/STIM_013.jpg	99
164.489	0.822	822.4	2back	Block1	2back/STIM_014.jpg	99
168.124	1.331	1331.4	2back	Block1	2back/STIM_014.jpg	100
172.823	0.656	656.4	2back	Block1	2back/STIM_014.jpg	99
175.983	0.897	897.1	2back	Block1	2back/STIM_015.jpg	99
179.232	0.842	841.7	2back	Block1	2back/STIM_015.jpg	100
182.487	1.309	1309.0	2back	Block1	2back/STIM_015.jpg	100
186.219	0.878	877.6	2back	Block1	2back/STIM_016.jpg	99
189.548	1.42	1420.2	2back	Block1	2back/STIM_016.jpg	99
193.603	1.159	1159.0	2back	Block1	2back/STIM_016.jpg	100
197.103	0.891	891.1	2back	Block1	2back/STIM_017.jpg	100
200.576	0.849	849.1	2back	Block1	2back/STIM_017.jpg	100
204.089	0.88	879.8	2back	Block1	2back/STIM_017.jpg	99
208.669	1.17	1170.1	2back	Block1	2back/STIM_018.jpg	99
212.124	0.887	887.0	2back	Block1	2back/STIM_018.jpg	99
216.871	1.337	1337.3	2back	Block1	2back/STIM_018.jpg	99
221.856	1.382	1381.7	2back	Block1	2back/STIM_019.jpg	100
225.458	1.228	1228.5	2back	Block1	2back/STIM_019.jpg	100
230.414	0.778	777.9	2back	Block1	2back/STIM_019.jpg	100
234.85	1.487	1487.3	2back	Block1	2back/STIM_020.jpg	100
239.74	0.557	557.1	2back	Block1	2back/STIM_020.jpg	99
243.282	0.696	696.5	2back	Block1	2back/STIM_020.jpg	100
247.356	1.191	1190.7	2back	Block1	2back/STIM_021.jpg	99
251.922	1.149	1149.4	2back	Block1	2back/STIM_021.jpg	100
255.173	1.186	1185.9	2back	Block1	2back/STIM_021.jpg	99
259.465	0.723	723.0	2back	Block1	2back/STIM_022.jpg	100
262.375	0.872	872.0	2back	Block1	2back/STIM_022.jpg	99
267.212	0.784	783.9	2back	Block1	2back/STIM_022.jpg	99
270.342	1.227	1227.2	2back	Block1	2back/STIM_023.jpg	100
274.855	1.171	1171.3	2back	Block1	2back/STIM_023.jpg	99
278.124	0.547	547.0	2back	Block1	2back/STIM_023.jpg	99
280.78	1.064	1064.5	2back	Block1	2back/STIM_024.jpg	99
284.7	1.169	1169.1	2back	Block1	2back/STIM_024.jpg	100
289.385	1.097	1097.3	2back	Block1	2back/STIM_024.jpg	100
293.582	1.102	1101.8	2back	Block1	2back/STIM_025.jpg	100
298.532	1.038	1038.1	2back	Block1	2back/STIM_025.jpg	99
301.96	0.672	672.0	2back	Block1	2back/STIM_025.jpg	100
305.4	1.201	1200.9	2back	Block1	2back/STIM_026.jpg	100
309.759	0.87	870.0	2back	Block1	2back/STIM_026.jpg	99
313.533	0.541	541.0	2back	Block1	2back/STIM_026.jpg	100
317.003	0.822	822.4	2back	Block1	2back/STIM_027.jpg	100
321.38	1.185	1184.7	2back	Block1	2back/STIM_027.jpg	100
326.038	0.551	550.6	2back	Block1	2back/STIM_027.jpg	99
329.13	1.349	1348.6	2back	Block1	2back/STIM_028.jpg	99
333.754	0.709	709.2	2back	Block1	2back/STIM_028.jpg	99
337.485	1.07	1070.4	2back	Block1	2back/STIM_028.jpg	99
341.564	0.837	836.8	2back	Block1	2back/STIM_029.jpg	99
344.442	0.84	840.5	2back	Block1	2back/STIM_029.jpg	99
347.864	0.935	935.2	2back	Block1	2back/STIM_029.jpg	100
352.161	1.456	1456.1	2back	Block1	2back/STIM_030.jpg	100
356.78	1.384	1384.5	2back	Block1	2back/STIM_030.jpg	100
361.761	1.254	1254.3	2back	Block1	2back/STIM_030.jpg	99
365.749	1.124	1124.5	2back	Block1	2back/STIM_031.jpg	100
369.954	1.221	1220.8	2back	Block1	2back/STIM_031.jpg	100
374.954	1.147	1147.0	2back	Block1	2back/STIM_031.jpg	99
379.263	0.706	705.9	2back	Block1	2back/STIM_032.jpg	99
383.524	1.227	1226.9	2back	Block1	2back/STIM_032.jpg	99
387.145	0.944	944.2	2back	Block1	2back/STIM_032.jpg	99
390.341	0.647	647.3	2back	Block1	2back/STIM_033.jpg	100
394.544	1.084	1084.3	2back	Block1	2back/STIM_033.jpg	100
398.954	1.136	1136.3	2back	Block1	2back/STIM_033.jpg	100
403.651	1.118	1117.6	2back	Block1	2back/STIM_034.jpg	100
407.47	1.344	1343.5	2back	Block1	2back/STIM_034.jpg	99
412.319	1.326	1326.5	2back	Block1	2back/STIM_034.jpg	100
417.127	0.883	882.6	2back	Block1	2back/STIM_035.jpg	100
421.244	0.952	952.0	2back	Block1	2back/STIM_035.jpg	100
425.609	0.969	969.4	2back	Block1	2back/STIM_035.jpg	99
428.65	0.992	991.8	2back	Block1	2back/STIM_036.jpg	100
433.357	0.698	698.2	2back	Block1	2back/STIM_036.jpg	100
436.95	0.801	800.7	2back	Block1	2back/STIM_036.jpg	99
440.956	1.136	1135.5	2back	Block1	2back/STIM_037.jpg	100
445.235	0.86	859.5	2back	Block1	2back/STIM_037.jpg	99
449.2	1.29	1290.4	2back	Block1	2back/STIM_037.jpg	99
453.287	0.814	813.6	2back	Block1	2back/STIM_038.jpg	99
456.715	1.36	1360.2	2back	Block1	2back/STIM_038.jpg	99
460.266	0.583	582.7	2back	Block1	2back/STIM_038.jpg	100
463.314	0.868	868.1	2back	Block1	2back/STIM_039.jpg	100
468.062	0.66	660.2	2back	Block1	2back/STIM_039.jpg	100
470.892	1.199	1199.4	2back	Block1	2back/STIM_039.jpg	100
475.361	0.733	733.1	0back	Block1	0back/STIM_000.jpg	100
479.684	0.531	530.9	0back	Block1	0back/STIM_000.jpg	99
484.056	0.601	600.6	0back	Block1	0back/STIM_000.jpg	100
487.526	0.65	649.9	0back	Block1	0back/STIM_001.jpg	100
492.114	0.558	558.1	0back	Block1	0back/STIM_001.jpg	100
494.647	0.505	504.9	0back	Block1	0back/STIM_001.jpg	100
499.077	0.625	625.1	0back	Block1	0back/STIM_002.jpg	100
501.97	0.528	528.0	0back	Block1	0back/STIM_002.jpg	100
504.772	0.674	673.9	0back	Block1	0back/STIM_002.jpg	99
509.028	0.537	537.1	0back	Block1	0back/STIM_003.jpg	100
513.487	0.4	399.8	0back	Block1	0back/STIM_003.jpg	99
517.715	0.538	537.8	0back	Block1	0back/STIM_003.jpg	100
521.488	0.62	620.5	0back	Block1	0back/STIM_004.jpg	100
524.836	0.572	571.8	0back	Block1	0back/STIM_004.jpg	99
528.582	0.532	532.0	0back	Block1	0back/STIM_004.jpg	100
532.137	0.546	546.3	0back	Block1	0back/STIM_005.jpg	100
535.462	0.633	633.2	0back	Block1	0back/STIM_005.jpg	99
539.478	0.484	484.3	0back	Block1	0back/STIM_005.jpg	100
543.773	0.745	745.1	0back	Block1	0back/STIM_006.jpg	100
547.011	0.729	729.3	0back	Block1	0back/STIM_006.jpg	99
550.193	0.631	631.2	0back	Block1	0back/STIM_006.jpg	99
553.997	0.666	666.3	0back	Block1	0back/STIM_007.jpg	100
556.948	0.433	433.4	0back	Block1	0back/STIM_007.jpg	100
560.167	0.801	801.1	0back	Block1	0back/STIM_007.jpg	99
563.765	0.624	624.1	0back	Block1	0back/STIM_008.jpg	100
567.181	0.403	402.6	0back	Block1	0back/STIM_008.jpg	100
571.403	0.534	533.5	0back	Block1	0back/STIM_008.jpg	100
575.755	0.587	587.0	0back	Block1	0back/STIM_009.jpg	100
579.811	0.603	603.2	0back	Block1	0back/STIM_009.jpg	100
584.041	0.476	476.4	0back	Block1	0back/STIM_009.jpg	100
586.599	0.534	533.6	0back	Block1	0back/STIM_010.jpg	99
589.981	0.551	550.7	0back	Block1	0back/STIM_010.jpg	100
592.711	0.63	629.7	0back	Block1	0back/STIM_010.jpg	99
597.304	0.822	822.0	0back	Block1	0back/STIM_011.jpg	99
600.823	0.798	797.7	0back	Block1	0back/STIM_011.jpg	100
604.311	0.561	561.1	0back	Block1	0back/STIM_011.jpg	99
608.564	0.542	542.1	0back	Block1	0back/STIM_012.jpg	100
611.926	0.61	610.4	0back	Block1	0back/STIM_012.jpg	100
616.184	0.6	600.4	0back	Block1	0back/STIM_012.jpg	100
620.703	0.77	770.2	0back	Block1	0back/STIM_013.jpg	99
624.571	0.657	656.9	0back	Block1	0back/STIM_013.jpg	99
627.873	0.686	686.0	0back	Block1	0back/STIM_013.jpg	99
631.189	0.824	823.7	0back	Block1	0back/STIM_014.jpg	100
634.741	0.757	756.9	0back	Block1	0back/STIM_014.jpg	100
638.828	0.456	456.5	0back	Block1	0back/STIM_014.jpg	100
643.229	0.445	444.8	0back	Block1	0back/STIM_015.jpg	100
646.37	0.728	728.2	0back	Block1	0back/STIM_015.jpg	99
650.6	0.543	543.0	0back	Block1	0back/STIM_015.jpg	99
654.792	0.369	369.0	0back	Block1	0back/STIM_016.jpg	100
659.118	0.825	825.3	0back	Block1	0back/STIM_016.jpg	100
663.284	0.59	590.2	0back	Block1	0back/STIM_016.jpg	100
667.59	0.543	542.9	0back	Block1	0back/STIM_017.jpg	100
671.681	0.522	521.5	0back	Block1	0back/STIM_017.jpg	100
674.96	0.814	814.1	0back	Block1	0back/STIM_017.jpg	99
678.864	0.543	543.3	0back	Block1	0back/STIM_018.jpg	100
683.415	0.415	415.2	0back	Block1	0back/STIM_018.jpg	100
687.838	0.714	713.6	0back	Block1	0back/STIM_018.jpg	100
690.538	0.732	732.1	0back	Block1	0back/STIM_019.jpg	100
693.797	0.755	755.4	0back	Block1	0back/STIM_019.jpg	99
696.994	0.652	652.4	0back	Block1	0back/STIM_019.jpg	100
701.545	0.944	944.1	2back	Block2	2back/STIM_000.jpg	99
704.821	0.499	499.1	2back	Block2	2back/STIM_000.jpg	99
708.803	0.778	777.8	2back	Block2	2back/STIM_000.jpg	99
711.951	0.967	967.0	2back	Block2	2back/STIM_001.jpg	100
715.69	0.711	710.6	2back	Block2	2back/STIM_001.jpg	100
719.963	0.671	671.4	2back	Block2	2back/STIM_001.jpg	100
723.883	0.744	744.2	2back	Block2	2back/STIM_002.jpg	99
728.446	1.03	1029.5	2back	Block2	2back/STIM_002.jpg	100
733.016	0.489	489.2	2back	Block2	2back/STIM_002.jpg	100
736.016	1.253	1252.8	2back	Block2	2back/STIM_003.jpg	100
740.496	0.972	972.3	2back	Block2	2back/STIM_003.jpg	100
743.47	0.987	986.6	2back	Block2	2back/STIM_003.jpg	99
747.213	1.13	1130.4	2back	Block2	2back/STIM_004.jpg	99
751.86	0.799	799.3	2back	Block2	2back/STIM_004.jpg	99
754.88	0.789	788.7	2back	Block2	2back/STIM_004.jpg	99
758.843	0.581	581.1	2back	Block2	2back/STIM_005.jpg	99
761.476	0.558	557.7	2back	Block2	2back/STIM_005.jpg	99
764.298	0.967	966.8	2back	Block2	2back/STIM_005.jpg	100
767.868	0.777	777.4	2back	Block2	2back/STIM_006.jpg	99
771.16	0.947	946.6	2back	Block2	2back/STIM_006.jpg	99
775.61	0.583	582.6	2back	Block2	2back/STIM_006.jpg	99
779.966	0.861	860.7	2back	Block2	2back/STIM_007.jpg	100
784.219	0.97	969.6	2back	Block2	2back/STIM_007.jpg	100
787.757	0.485	484.9	2back	Block2	2back/STIM_007.jpg	100
791.318	0.792	791.8	2back	Block2	2back/STIM_008.jpg	100
795.864	0.677	676.6	2back	Block2	2back/STIM_008.jpg	99
799.459	0.661	660.6	2back	Block2	2back/STIM_008.jpg	99
803.248	1.079	1079.4	2back	Block2	2back/STIM_009.jpg	99
806.71	0.553	553.1	2back	Block2	2back/STIM_009.jpg	99
809.297	0.976	975.7	2back	Block2	2back/STIM_009.jpg	99
812.885	0.668	668.2	2back	Block2	2back/STIM_010.jpg	100
815.617	0.581	581.0	2back	Block2	2back/STIM_010.jpg	99
818.41	1.011	1011.0	2back	Block2	2back/STIM_010.jpg	100
821.412	0.865	865.4	2back	Block2	2back/STIM_011.jpg	99
825.76	0.78	779.6	2back	Block2	2back/STIM_011.jpg	100
829.655	0.614	614.2	2back	Block2	2back/STIM_011.jpg	99
832.422	0.998	997.6	2back	Block2	2back/STIM_012.jpg	100
835.956	0.758	758.4	2back	Block2	2back/STIM_012.jpg	100
840.058	0.532	532.3	2back	Block2	2back/STIM_012.jpg	100
844.573	0.511	511.1	2back	Block2	2back/STIM_013.jpg	100
847.515	0.863	863.3	2back	Block2	2back/STIM_013.jpg	99
851.461	1.11	1109.9	2back	Block2	2back/STIM_013.jpg	100
854.572	0.796	796.4	2back	Block2	2back/STIM_014.jpg	100
859.129	1.119	1118.7	2back	Block2	2back/STIM_014.jpg	99
863.516	0.913	913.3	2back	Block2	2back/STIM_014.jpg	100
866.906	1.209	1208.6	2back	Block2	2back/STIM_015.jpg	99
870.777	0.932	931.5	2back	Block2	2back/STIM_015.jpg	100
875.318	0.979	979.2	2back	Block2	2back/STIM_015.jpg	99
878.708	0.991	991.3	2back	Block2	2back/STIM_016.jpg	100
882.325	1.072	1071.7	2back	Block2	2back/STIM_016.jpg	100
886.936	0.515	515.2	2back	Block2	2back/STIM_016.jpg	100
890.974	0.594	594.1	2back	Block2	2back/STIM_017.jpg	100
894.583	1.138	1137.7	2back	Block2	2back/STIM_017.jpg	99
899.162	0.74	739.9	2back	Block2	2back/STIM_017.jpg	99
901.969	0.532	531.5	2back	Block2	2back/STIM_018.jpg	99
905.669	0.618	617.9	2back	Block2	2back/STIM_018.jpg	100
909.751	0.736	735.7	2back	Block2	2back/STIM_018.jpg	99
913.512	1.223	1223.0	2back	Block2	2back/STIM_019.jpg	99
918.216	0.642	642.4	2back	Block2	2back/STIM_019.jpg	99
922.012	0.756	755.6	2back	Block2	2back/STIM_019.jpg	100
925.531	0.729	729.1	2back	Block2	2back/STIM_020.jpg	99
928.805	0.869	869.3	2back	Block2	2back/STIM_020.jpg	99
932.291	0.818	818.2	2back	Block2	2back/STIM_020.jpg	100
935.742	0.852	851.5	2back	Block2	2back/STIM_021.jpg	99
939.809	1.123	1122.6	2back	Block2	2back/STIM_021.jpg	99
944.007	0.971	970.6	2back	Block2	2back/STIM_021.jpg	99
947.502	1.253	1253.2	2back	Block2	2back/STIM_022.jpg	100
952.187	0.552	552.0	2back	Block2	2back/STIM_022.jpg	99
955.513	0.802	802.5	2back	Block2	2back/STIM_022.jpg	99
959.414	0.56	560.1	2back	Block2	2back/STIM_023.jpg	100
962.693	0.656	656.2	2back	Block2	2back/STIM_023.jpg	99
966.77	0.591	591.3	2back	Block2	2back/STIM_023.jpg	99
971.312	0.634	634.4	2back	Block2	2back/STIM_024.jpg	100
974.92	0.985	984.7	2back	Block2	2back/STIM_024.jpg	99
978.473	0.617	616.9	2back	Block2	2back/STIM_024.jpg	100
981.05	0.856	855.8	2back	Block2	2back/STIM_025.jpg	100
985.535	1.123	1122.7	2back	Block2	2back/STIM_025.jpg	99
989.325	0.854	853.9	2back	Block2	2back/STIM_025.jpg	99
992.928	0.791	791.1	2back	Block2	2back/STIM_026.jpg	99
996.973	0.552	552.0	2back	Block2	2back/STIM_026.jpg	100
1001.049	1.028	1027.9	2back	Block2	2back/STIM_026.jpg	100
1005.678	0.625	625.2	2back	Block2	2back/STIM_027.jpg	100
1008.665	0.914	914.3	2back	Block2	2back/STIM_027.jpg	99
1012.985	0.672	672.5	2back	Block2	2back/STIM_027.jpg	100
1017.635	0.89	890.0	2back	Block2	2back/STIM_028.jpg	99
1021.812	1.022	1022.5	2back	Block2	2back/STIM_028.jpg	100
1026.363	0.804	804.2	2back	Block2	2back/STIM_028.jpg	99
1030.087	0.729	729.2	2back	Block2	2back/STIM_029.jpg	99
1033.82	0.636	635.5	2back	Block2	2back/STIM_029.jpg	100
1037.051	0.868	867.6	2back	Block2	2back/STIM_029.jpg	99
1040.86	0.717	717.3	2back	Block2	2back/STIM_030.jpg	99
1044.913	1.067	1067.0	2back	Block2	2back/STIM_030.jpg	99
1048.911	0.73	730.4	2back	Block2	2back/STIM_030.jpg	100
1052.856	1.089	1088.8	2back	Block2	2back/STIM_031.jpg	100
1055.907	1.165	1165.0	2back	Block2	2back/STIM_031.jpg	100
1059.949	0.984	984.3	2back	Block2	2back/STIM_031.jpg	100
1063.746	1.203	1203.4	2back	Block2	2back/STIM_032.jpg	99
1068.75	0.434	433.9	2back	Block2	2back/STIM_032.jpg	100
1072.309	0.944	943.9	2back	Block2	2back/STIM_032.jpg	100
1075.612	1.014	1013.6	2back	Block2	2back/STIM_033.jpg	100
1078.749	0.659	658.6	2back	Block2	2back/STIM_033.jpg	100
1082.417	1.062	1062.1	2back	Block2	2back/STIM_033.jpg	100
1086.777	1.239	1239.2	2back	Block2	2back/STIM_034.jpg	99
1090.761	0.736	735.7	2back	Block2	2back/STIM_034.jpg	100
1095.241	0.848	847.6	2back	Block2	2back/STIM_034.jpg	99
1098.351	1.209	1209.0	2back	Block2	2back/STIM_035.jpg	100
1103.034	1.069	1069.4	2back	Block2	2back/STIM_035.jpg	99
1107.844	1.083	1082.6	2back	Block2	2back/STIM_035.jpg	99
1111.926	1.024	1024.4	2back	Block2	2back/STIM_036.jpg	99
1116.174	0.513	513.0	2back	Block2	2back/STIM_036.jpg	100
1120.175	0.83	829.8	2back	Block2	2back/STIM_036.jpg	99
1123.998	1.093	1092.6	2back	Block2	2back/STIM_037.jpg	99
1127.402	1.022	1021.8	2back	Block2	2back/STIM_037.jpg	99
1132.062	0.584	584.1	2back	Block2	2back/STIM_037.jpg	99
1136.274	0.721	720.8	2back	Block2	2back/STIM_038.jpg	100
1139.86	1.131	1131.2	2back	Block2	2back/STIM_038.jpg	100
1143.478	0.724	724.1	2back	Block2	2back/STIM_038.jpg	99
1147.156	0.626	625.6	2back	Block2	2back/STIM_039.jpg	100
1150.013	0.667	667.2	2back	Block2	2back/STIM_039.jpg	99
1153.611	0.603	602.6	2back	Block2	2back/STIM_039.jpg	99
1156.811	0.784	784.4	0back	Block2	0back/STIM_000.jpg	99
1159.807	0.808	807.8	0back	Block2	0back/STIM_000.jpg	99
1162.782	0.606	605.8	0back	Block2	0back/STIM_000.jpg	99
1167.023	0.805	805.3	0back	Block2	0back/STIM_001.jpg	99
1170.065	0.666	665.5	0back	Block2	0back/STIM_001.jpg	100
1173.614	0.606	605.8	0back	Block2	0back/STIM_001.jpg	99
1177.995	0.57	569.7	0back	Block2	0back/STIM_002.jpg	99
1182.179	0.836	835.7	0back	Block2	0back/STIM_002.jpg	100
1186.196	0.558	557.7	0back	Block2	0back/STIM_002.jpg	99
1188.96	0.639	639.0	0back	Block2	0back/STIM_003.jpg	100
1193.545	0.776	775.7	0back	Block2	0back/STIM_003.jpg	100
1197.461	0.657	657.4	0back	Block2	0back/STIM_003.jpg	100
1201.944	0.773	773.0	0back	Block2	0back/STIM_004.jpg	100
1205.806	0.659	659.4	0back	Block2	0back/STIM_004.jpg	100
1208.641	0.563	562.6	0back	Block2	0back/STIM_004.jpg	99
1211.89	0.688	688.4	0back	Block2	0back/STIM_005.jpg	100
1214.716	0.489	489.2	0back	Block2	0back/STIM_005.jpg	99
1218.234	0.784	783.6	0back	Block2	0back/STIM_005.jpg	100
1221.268	0.591	590.8	0back	Block2	0back/STIM_006.jpg	100
1224.255	0.518	517.6	0back	Block2	0back/STIM_006.jpg	99
1228.203	0.622	622.3	0back	Block2	0back/STIM_006.jpg	100
1231.795	0.63	629.6	0back	Block2	0back/STIM_007.jpg	99
1236.257	0.7	700.1	0back	Block2	0back/STIM_007.jpg	100
1240.663	0.591	591.1	0back	Block2	0back/STIM_007.jpg	100
1243.356	0.852	851.9	0back	Block2	0back/STIM_008.jpg	99
1247.13	0.791	790.6	0back	Block2	0back/STIM_008.jpg	100
1251.323	0.747	746.9	0back	Block2	0back/STIM_008.jpg	100
1255.739	0.432	431.6	0back	Block2	0back/STIM_009.jpg	100
1259.145	0.536	535.5	0back	Block2	0back/STIM_009.jpg	99
1262.831	0.492	492.0	0back	Block2	0back/STIM_009.jpg	100
1265.838	0.746	745.6	0back	Block2	0back/STIM_010.jpg	99
1269.261	0.75	749.7	0back	Block2	0back/STIM_010.jpg	99
1273.426	0.636	636.5	0back	Block2	0back/STIM_010.jpg	100
1276.862	0.49	489.5	0back	Block2	0back/STIM_011.jpg	99
1281.248	0.722	721.6	0back	Block2	0back/STIM_011.jpg	100
1285.727	0.628	628.3	0back	Block2	0back/STIM_011.jpg	99
1289.616	0.692	692.2	0back	Block2	0back/STIM_012.jpg	100
1292.776	0.65	649.5	0back	Block2	0back/STIM_012.jpg	100
1296.902	0.724	723.6	0back	Block2	0back/STIM_012.jpg	99
1301.424	0.527	526.8	0back	Block2	0back/STIM_013.jpg	99
1304.43	0.541	541.1	0back	Block2	0back/STIM_013.jpg	100
1307.501	0.533	533.0	0back	Block2	0back/STIM_013.jpg	100
1310.8	0.476	476.0	0back	Block2	0back/STIM_014.jpg	100
1313.282	0.788	787.7	0back	Block2	0back/STIM_014.jpg	99
1317.29	0.741	741.4	0back	Block2	0back/STIM_014.jpg	100
1320.402	0.493	493.1	0back	Block2	0back/STIM_015.jpg	100
1324.392	0.638	638.3	0back	Block2	0back/STIM_015.jpg	100
1328.088	0.689	688.6	0back	Block2	0back/STIM_015.jpg	100
1331.108	0.566	565.5	0back	Block2	0back/STIM_016.jpg	99
1334.456	0.641	641.0	0back	Block2	0back/STIM_016.jpg	100
1337.483	0.659	658.7	0back	Block2	0back/STIM_016.jpg	100
1341.703	0.601	601.1	0back	Block2	0back/STIM_017.jpg	99
1344.784	0.888	887.7	0back	Block2	0back/STIM_017.jpg	99
1348.612	0.565	565.3	0back	Block2	0back/STIM_017.jpg	99
1352.992	0.778	778.0	0back	Block2	0back/STIM_018.jpg	100
1356.301	0.541	541.4	0back	Block2	0back/STIM_018.jpg	100
1360.398	0.663	663.0	0back	Block2	0back/STIM_018.jpg	99
1364.456	0.493	492.9	0back	Block2	0back/STIM_019.jpg	99
1367.277	0.437	437.2	0back	Block2	0back/STIM_019.jpg	99
1369.895	0.726	726.4	0back	Block2	0back/STIM_019.jpg	99
1372.82	0.566	565.6	2back	Block3	2back/STIM_000.jpg	100
1377.061	0.726	725.6	2back	Block3	2back/STIM_000.jpg	100
1380.884	0.553	552.8	2back	Block3	2back/STIM_000.jpg	100
1385.276	0.555	555.3	2back	Block3	2back/STIM_001.jpg	100
1387.862	0.491	491.3	2back	Block3	2back/STIM_001.jpg	100
1392.116	0.737	736.6	2back	Block3	2back/STIM_001.jpg	99
1396.434	0.814	814.3	2back	Block3	2back/STIM_002.jpg	99
1400.043	0.812	812.5	2back	Block3	2back/STIM_002.jpg	100
1403.121	0.777	777.1	2back	Block3	2back/STIM_002.jpg	99
1407.343	0.743	743.0	2back	Block3	2back/STIM_003.jpg	99
1410.521	0.445	445.4	2back	Block3	2back/STIM_003.jpg	100
1413.955	1.002	1002.3	2back	Block3	2back/STIM_003.jpg	99
1417.959	0.853	853.1	2back	Block3	2back/STIM_004.jpg	99
1421.3	0.694	693.6	2back	Block3	2back/STIM_004.jpg	99
1424.301	0.566	566.4	2back	Block3	2back/STIM_004.jpg	100
1428.44	0.612	612.3	2back	Block3	2back/STIM_005.jpg	100
1432.609	0.922	921.5	2back	Block3	2back/STIM_005.jpg	100
1436.905	0.626	626.5	2back	Block3	2back/STIM_005.jpg	99
1439.72	0.54	539.7	2back	Block3	2back/STIM_006.jpg	100
1442.649	0.875	875.2	2back	Block3	2back/STIM_006.jpg	100
1446.574	0.49	490.4	2back	Block3	2back/STIM_006.jpg	100
1449.338	0.724	724.4	2back	Block3	2back/STIM_007.jpg	100
1453.179	0.959	959.4	2back	Block3	2back/STIM_007.jpg	99
1457.471	1.012	1012.3	2back	Block3	2back/STIM_007.jpg	99
1460.88	0.944	943.7	2back	Block3	2back/STIM_008.jpg	99
1464.364	0.662	661.9	2back	Block3	2back/STIM_008.jpg	99
1468.32	0.514	514.2	2back	Block3	2back/STIM_008.jpg	100
1470.779	0.811	811.2	2back	Block3	2back/STIM_009.jpg	100
1475.536	0.936	936.4	2back	Block3	2back/STIM_009.jpg	99
1478.48	0.837	837.3	2back	Block3	2back/STIM_009.jpg	100
1482.079	0.43	429.8	2back	Block3	2back/STIM_010.jpg	100
1485.774	1.041	1040.9	2back	Block3	2back/STIM_010.jpg	100
1490.69	0.72	719.5	2back	Block3	2back/STIM_010.jpg	100
1494.996	0.631	630.6	2back	Block3	2back/STIM_011.jpg	100
1499.246	0.502	502.2	2back	Block3	2back/STIM_011.jpg	100
1502.142	0.881	880.9	2back	Block3	2back/STIM_011.jpg	100
1505.002	0.748	747.7	2back	Block3	2back/STIM_012.jpg	100
1509.201	0.986	986.2	2back	Block3	2back/STIM_012.jpg	99
1513.673	0.508	507.9	2back	Block3	2back/STIM_012.jpg	99
1517.863	0.63	629.8	2back	Block3	2back/STIM_013.jpg	99
1521.006	0.816	815.7	2back	Block3	2back/STIM_013.jpg	100
1524.33	0.757	757.2	2back	Block3	2back/STIM_013.jpg	99
1528.468	0.696	695.6	2back	Block3	2back/STIM_014.jpg	100
1531.406	0.922	921.5	2back	Block3	2back/STIM_014.jpg	99
1536.039	0.595	595.0	2back	Block3	2back/STIM_014.jpg	100
1539.88	0.596	595.9	2back	Block3	2back/STIM_015.jpg	100
1542.86	0.617	616.9	2back	Block3	2back/STIM_015.jpg	100
1545.595	0.82	819.5	2back	Block3	2back/STIM_015.jpg	100
1550.399	0.7	700.5	2back	Block3	2back/STIM_016.jpg	99
1554.441	0.624	624.5	2back	Block3	2back/STIM_016.jpg	100
1557.051	0.536	536.4	2back	Block3	2back/STIM_016.jpg	100
1559.698	0.503	503.0	2back	Block3	2back/STIM_017.jpg	100
1562.629	0.679	679.0	2back	Block3	2back/STIM_017.jpg	100
1566.988	0.68	680.0	2back	Block3	2back/STIM_017.jpg	99
1571.657	0.332	332.0	2back	Block3	2back/STIM_018.jpg	99
1575.757	0.655	654.7	2back	Block3	2back/STIM_018.jpg	99
1579.392	0.88	879.7	2back	Block3	2back/STIM_018.jpg	99
1582.267	0.636	635.5	2back	Block3	2back/STIM_019.jpg	99
1586.22	0.749	749.1	2back	Block3	2back/STIM_019.jpg	100
1590.833	1.05	1050.1	2back	Block3	2back/STIM_019.jpg	99
1595.43	0.458	458.0	2back	Block3	2back/STIM_020.jpg	100
1598.405	0.501	500.8	2back	Block3	2back/STIM_020.jpg	99
1600.886	0.772	771.5	2back	Block3	2back/STIM_020.jpg	100
1605.144	0.51	509.8	2back	Block3	2back/STIM_021.jpg	99
1608.399	0.755	754.6	2back	Block3	2back/STIM_021.jpg	100
1613.085	0.565	565.3	2back	Block3	2back/STIM_021.jpg	100
1616.585	0.488	487.8	2back	Block3	2back/STIM_022.jpg	99
1619.269	0.544	543.9	2back	Block3	2back/STIM_022.jpg	100
1623.419	0.879	878.7	2back	Block3	2back/STIM_022.jpg	99
1627.918	0.657	657.4	2back	Block3	2back/STIM_023.jpg	99
1632.419	0.94	940.0	2back	Block3	2back/STIM_023.jpg	99
1636.355	0.687	687.2	2back	Block3	2back/STIM_023.jpg	100
1640.887	0.694	693.8	2back	Block3	2back/STIM_024.jpg	99
1644.366	0.467	466.8	2back	Block3	2back/STIM_024.jpg	100
1647.003	0.548	548.4	2back	Block3	2back/STIM_024.jpg	100
1650.81	0.443	443.4	2back	Block3	2back/STIM_025.jpg	99
1655.124	0.905	904.6	2back	Block3	2back/STIM_025.jpg	100
1658.019	0.547	546.9	2back	Block3	2back/STIM_025.jpg	99
1661.901	0.848	847.6	2back	Block3	2back/STIM_026.jpg	100
1666.318	0.7	700.2	2back	Block3	2back/STIM_026.jpg	100
1670.963	0.912	911.8	2back	Block3	2back/STIM_026.jpg	99
1674.718	0.79	790.3	2back	Block3	2back/STIM_027.jpg	100
1679.255	0.926	926.2	2back	Block3	2back/STIM_027.jpg	100
1684.123	0.69	690.4	2back	Block3	2back/STIM_027.jpg	100
1686.936	0.719	718.9	2back	Block3	2back/STIM_028.jpg	99
1690.744	0.813	812.9	2back	Block3	2back/STIM_028.jpg	99
1695.544	0.423	423.2	2back	Block3	2back/STIM_028.jpg	99
1699.157	0.689	689.2	2back	Block3	2back/STIM_029.jpg	99
1702.992	0.899	898.9	2back	Block3	2back/STIM_029.jpg	100
1707.787	0.94	939.8	2back	Block3	2back/STIM_029.jpg	100
1711.905	0.651	650.8	2back	Block3	2back/STIM_030.jpg	100
1715.971	0.638	637.5	2back	Block3	2back/STIM_030.jpg	100
1719.655	0.782	782.5	2back	Block3	2back/STIM_030.jpg	100
1722.904	0.767	767.3	2back	Block3	2back/STIM_031.jpg	99
1726.871	0.769	769.2	2back	Block3	2back/STIM_031.jpg	99
1731.103	0.908	908.0	2back	Block3	2back/STIM_031.jpg	100
1735.876	0.811	810.9	2back	Block3	2back/STIM_032.jpg	99
1738.919	0.729	728.6	2back	Block3	2back/STIM_032.jpg	100
1743.075	0.509	508.6	2back	Block3	2back/STIM_032.jpg	99
1745.612	0.54	540.1	2back	Block3	2back/STIM_033.jpg	100
1749.423	0.668	667.6	2back	Block3	2back/STIM_033.jpg	100
1753.009	0.551	551.4	2back	Block3	2back/STIM_033.jpg	100
1756.523	0.386	386.0	2back	Block3	2back/STIM_034.jpg	99
1760.458	0.485	484.8	2back	Block3	2back/STIM_034.jpg	100
1764.467	0.619	618.8	2back	Block3	2back/STIM_034.jpg	99
1768.224	0.957	956.9	2back	Block3	2back/STIM_035.jpg	99
1772.221	0.726	726.0	2back	Block3	2back/STIM_035.jpg	99
1776.802	0.823	822.9	2back	Block3	2back/STIM_035.jpg	100
1780.948	0.94	940.5	2back	Block3	2back/STIM_036.jpg	99
1785.762	0.826	826.2	2back	Block3	2back/STIM_036.jpg	99
1789.708	0.849	849.0	2back	Block3	2back/STIM_036.jpg	99
1793.594	0.837	836.8	2back	Block3	2back/STIM_037.jpg	99
1797.603	0.766	765.7	2back	Block3	2back/STIM_037.jpg	99
1801.111	0.618	617.5	2back	Block3	2back/STIM_037.jpg	99
1804.012	0.863	863.2	2back	Block3	2back/STIM_038.jpg	100
1808.752	0.844	844.5	2back	Block3	2back/STIM_038.jpg	99
1812.019	0.649	648.7	2back	Block3	2back/STIM_038.jpg	99
1815.366	0.554	554.5	2back	Block3	2back/STIM_039.jpg	99
1817.952	0.66	660.0	2back	Block3	2back/STIM_039.jpg	100
1821.758	0.968	968.1	2back	Block3	2back/STIM_039.jpg	100
1824.942	0.627	626.9	0back	Block3	0back/STIM_000.jpg	99
1827.67	0.773	773.1	0back	Block3	0back/STIM_000.jpg	100
1831.526	0.655	654.6	0back	Block3	0back/STIM_000.jpg	99
1834.272	0.508	508.5	0back	Block3	0back/STIM_001.jpg	100
1838.028	0.548	548.4	0back	Block3	0back/STIM_001.jpg	99
1841.715	0.846	846.3	0back	Block3	0back/STIM_001.jpg	99
1845.098	0.536	536.2	0back	Block3	0back/STIM_002.jpg	100
1847.791	0.693	693.0	0back	Block3	0back/STIM_002.jpg	100
1850.751	0.613	613.4	0back	Block3	0back/STIM_002.jpg	99
1854.053	0.771	771.3	0back	Block3	0back/STIM_003.jpg	100
1858.67	0.752	752.0	0back	Block3	0back/STIM_003.jpg	99
1863.087	0.464	464.3	0back	Block3	0back/STIM_003.jpg	99
1867.108	0.807	807.3	0back	Block3	0back/STIM_004.jpg	100
1871.636	0.754	754.1	0back	Block3	0back/STIM_004.jpg	100
1876.07	0.461	461.4	0back	Block3	0back/STIM_004.jpg	100
1879.4	0.559	558.8	0back	Block3	0back/STIM_005.jpg	99
1883.144	0.616	616.3	0back	Block3	0back/STIM_005.jpg	99
1887.189	0.56	560.4	0back	Block3	0back/STIM_005.jpg	100
1891.202	0.439	439.4	0back	Block3	0back/STIM_006.jpg	100
1894.736	0.546	546.2	0back	Block3	0back/STIM_006.jpg	100
1898.396	0.831	831.4	0back	Block3	0back/STIM_006.jpg	99
1902.344	0.851	851.4	0back	Block3	0back/STIM_007.jpg	99
1905.514	0.717	716.6	0back	Block3	0back/STIM_007.jpg	99
1910.16	0.638	637.8	0back	Block3	0back/STIM_007.jpg	99
1912.971	0.43	429.6	0back	Block3	0back/STIM_008.jpg	99
1916.364	0.771	771.2	0back	Block3	0back/STIM_008.jpg	99
1920.02	0.723	723.4	0back	Block3	0back/STIM_008.jpg	99
1923.682	0.485	484.7	0back	Block3	0back/STIM_009.jpg	100
1928.077	0.689	688.8	0back	Block3	0back/STIM_009.jpg	99
1932.003	0.763	763.2	0back	Block3	0back/STIM_009.jpg	99
1936.082	0.693	692.9	0back	Block3	0back/STIM_010.jpg	100
1939.939	0.776	776.1	0back	Block3	0back/STIM_010.jpg	99
1944.496	0.611	610.6	0back	Block3	0back/STIM_010.jpg	99
1947.401	0.545	545.4	0back	Block3	0back/STIM_011.jpg	99
1951.451	0.508	508.5	0back	Block3	0back/STIM_011.jpg	99
1955.828	0.559	558.8	0back	Block3	0back/STIM_011.jpg	99
1960.302	0.572	572.5	0back	Block3	0back/STIM_012.jpg	99
1964.812	0.79	789.6	0back	Block3	0back/STIM_012.jpg	100
1968.262	0.581	580.8	0back	Block3	0back/STIM_012.jpg	100
1971.726	0.808	807.9	0back	Block3	0back/STIM_013.jpg	100
1975.26	0.579	579.3	0back	Block3	0back/STIM_013.jpg	100
1979.485	0.576	576.3	0back	Block3	0back/STIM_013.jpg	99
1983.407	0.56	559.8	0back	Block3	0back/STIM_014.jpg	100
1986.466	0.657	656.8	0back	Block3	0back/STIM_014.jpg	100
1991.043	0.386	385.8	0back	Block3	0back/STIM_014.jpg	99
1995.024	0.793	793.4	0back	Block3	0back/STIM_015.jpg	99
1998.498	0.721	721.4	0back	Block3	0back/STIM_015.jpg	100
2001.484	0.476	475.7	0back	Block3	0back/STIM_015.jpg	99
2004.428	0.798	798.1	0back	Block3	0back/STIM_016.jpg	99
2008.24	0.72	720.1	0back	Block3	0back/STIM_016.jpg	99
2012.032	0.756	755.7	0back	Block3	0back/STIM_016.jpg	100
2015.198	0.462	462.5	0back	Block3	0back/STIM_017.jpg	100
2017.831	0.812	811.9	0back	Block3	0back/STIM_017.jpg	100
2021.723	0.475	475.0	0back	Block3	0back/STIM_017.jpg	100
2025.044	0.443	443.3	0back	Block3	0back/STIM_018.jpg	99
2028.278	0.85	850.5	0back	Block3	0back/STIM_018.jpg	100
2032.235	0.742	741.7	0back	Block3	0back/STIM_018.jpg	100
2036.059	0.448	448.1	0back	Block3	0back/STIM_019.jpg	99
2039.214	0.658	658.0	0back	Block3	0back/STIM_019.jpg	100
2042.165	0.865	864.9	0back	Block3	0back/STIM_019.jpg	99
2046.698	0.881	880.8	2back	Block4	2back/STIM_000.jpg	100
2050.719	0.766	766.2	2back	Block4	2back/STIM_000.jpg	100
2054.681	0.901	901.4	2back	Block4	2back/STIM_000.jpg	99
2059.29	0.46	460.3	2back	Block4	2back/STIM_001.jpg	100
2062.577	0.592	592.5	2back	Block4	2back/STIM_001.jpg	99
2066.302	0.84	839.8	2back	Block4	2back/STIM_001.jpg	99
2070.282	0.662	661.6	2back	Block4	2back/STIM_002.jpg	99
2073.81	0.544	543.6	2back	Block4	2back/STIM_002.jpg	99
2077.102	0.54	540.5	2back	Block4	2back/STIM_002.jpg	99
2079.721	0.641	641.3	2back	Block4	2back/STIM_003.jpg	99
2082.537	0.511	511.1	2back	Block4	2back/STIM_003.jpg	99
2085.053	0.914	913.9	2back	Block4	2back/STIM_003.jpg	100
2088.219	0.578	578.0	2back	Block4	2back/STIM_004.jpg	100
2091.97	0.607	606.6	2back	Block4	2back/STIM_004.jpg	99
2095.365	0.816	816.1	2back	Block4	2back/STIM_004.jpg	100
2099.222	0.74	740.2	2back	Block4	2back/STIM_005.jpg	100
2103.368	0.64	640.5	2back	Block4	2back/STIM_005.jpg	100
2107.009	0.987	986.6	2back	Block4	2back/STIM_005.jpg	100
2110.176	0.656	656.2	2back	Block4	2back/STIM_006.jpg	100
2113.537	0.678	678.5	2back	Block4	2back/STIM_006.jpg	100
2117.765	0.563	563.1	2back	Block4	2back/STIM_006.jpg	100
2121.253	0.767	766.7	2back	Block4	2back/STIM_007.jpg	100
2125.542	0.704	704.0	2back	Block4	2back/STIM_007.jpg	99
2128.54	0.526	526.3	2back	Block4	2back/STIM_007.jpg	100
2131.953	0.413	413.0	2back	Block4	2back/STIM_008.jpg	100
2135.798	0.59	589.9	2back	Block4	2back/STIM_008.jpg	99
2138.96	0.694	693.9	2back	Block4	2back/STIM_008.jpg	100
2143.127	0.599	599.2	2back	Block4	2back/STIM_009.jpg	100
2147.01	0.643	642.8	2back	Block4	2back/STIM_009.jpg	100
2150.02	0.526	526.3	2back	Block4	2back/STIM_009.jpg	99
2152.629	0.94	940.4	2back	Block4	2back/STIM_010.jpg	100
2157.422	0.992	992.2	2back	Block4	2back/STIM_010.jpg	99
2161.06	0.89	890.4	2back	Block4	2back/STIM_010.jpg	99
2164.929	0.633	633.3	2back	Block4	2back/STIM_011.jpg	99
2169.177	0.455	454.6	2back	Block4	2back/STIM_011.jpg	99
2171.757	0.84	840.3	2back	Block4	2back/STIM_011.jpg	100
2175.454	0.964	963.7	2back	Block4	2back/STIM_012.jpg	99
2180.278	0.911	910.8	2back	Block4	2back/STIM_012.jpg	100
2183.902	0.954	953.7	2back	Block4	2back/STIM_012.jpg	99
2187.502	0.513	512.9	2back	Block4	2back/STIM_013.jpg	100
2190.628	0.68	680.3	2back	Block4	2back/STIM_013.jpg	100
2194.626	0.788	788.5	2back	Block4	2back/STIM_013.jpg	99
2198.781	0.858	858.1	2back	Block4	2back/STIM_014.jpg	100
2201.694	0.528	527.6	2back	Block4	2back/STIM_014.jpg	99
2204.582	0.671	671.2	2back	Block4	2back/STIM_014.jpg	99
2208.787	1.034	1033.9	2back	Block4	2back/STIM_015.jpg	99
2212.977	0.771	771.4	2back	Block4	2back/STIM_015.jpg	99
2217.627	0.522	522.0	2back	Block4	2back/STIM_015.jpg	99
2220.357	0.664	664.3	2back	Block4	2back/STIM_016.jpg	99
2223.034	0.484	483.8	2back	Block4	2back/STIM_016.jpg	100
2226.453	0.713	712.6	2back	Block4	2back/STIM_016.jpg	100
2230.749	0.75	749.7	2back	Block4	2back/STIM_017.jpg	99
2233.972	0.744	743.8	2back	Block4	2back/STIM_017.jpg	100
2238.074	0.636	635.9	2back	Block4	2back/STIM_017.jpg	99
2241.239	0.673	672.8	2back	Block4	2back/STIM_018.jpg	99
2245.459	0.943	943.2	2back	Block4	2back/STIM_018.jpg	99
2250.067	0.684	684.5	2back	Block4	2back/STIM_018.jpg	99
2253.141	0.538	537.9	2back	Block4	2back/STIM_019.jpg	99
2256.593	0.669	669.2	2back	Block4	2back/STIM_019.jpg	99
2260.192	0.929	929.4	2back	Block4	2back/STIM_019.jpg	99
2264.518	0.952	952.0	2back	Block4	2back/STIM_020.jpg	100
2267.46	0.541	541.1	2back	Block4	2back/STIM_020.jpg	100
2270.854	0.727	726.7	2back	Block4	2back/STIM_020.jpg	99
2273.832	0.625	624.9	2back	Block4	2back/STIM_021.jpg	100
2277.18	0.798	797.6	2back	Block4	2back/STIM_021.jpg	99
2280.641	0.984	984.4	2back	Block4	2back/STIM_021.jpg	100
2284.474	0.617	617.2	2back	Block4	2back/STIM_022.jpg	99
2288.073	0.448	447.6	2back	Block4	2back/STIM_022.jpg	100
2292.398	0.686	686.1	2back	Block4	2back/STIM_022.jpg	100
2296.016	0.976	976.5	2back	Block4	2back/STIM_023.jpg	99
2299.152	0.803	803.1	2back	Block4	2back/STIM_023.jpg	99
2303.276	0.936	935.9	2back	Block4	2back/STIM_023.jpg	99
2307.819	0.405	405.0	2back	Block4	2back/STIM_024.jpg	99
2311.568	1.014	1013.7	2back	Block4	2back/STIM_024.jpg	99
2316.294	0.645	645.1	2back	Block4	2back/STIM_024.jpg	99
2319.604	0.67	670.4	2back	Block4	2back/STIM_025.jpg	99
2323.959	0.767	767.2	2back	Block4	2back/STIM_025.jpg	99
2327.61	1.05	1049.9	2back	Block4	2back/STIM_025.jpg	99
2332.259	0.786	786.1	2back	Block4	2back/STIM_026.jpg	99
2335.746	0.609	608.9	2back	Block4	2back/STIM_026.jpg	99
2338.486	0.798	798.1	2back	Block4	2back/STIM_026.jpg	100
2342.329	0.881	880.6	2back	Block4	2back/STIM_027.jpg	100
2345.923	0.78	779.7	2back	Block4	2back/STIM_027.jpg	100
2349.82	0.728	728.5	2back	Block4	2back/STIM_027.jpg	99
2353.811	0.823	822.8	2back	Block4	2back/STIM_028.jpg	99
2357.747	0.698	697.9	2back	Block4	2back/STIM_028.jpg	99
2360.783	0.712	711.6	2back	Block4	2back/STIM_028.jpg	99
2364.062	0.454	453.5	2back	Block4	2back/STIM_029.jpg	100
2367.431	0.996	995.6	2back	Block4	2back/STIM_029.jpg	100
2371.28	0.414	413.5	2back	Block4	2back/STIM_029.jpg	99
2374.285	1.004	1003.5	2back	Block4	2back/STIM_030.jpg	100
2377.92	0.48	479.6	2back	Block4	2back/STIM_030.jpg	100
2381.331	0.556	556.3	2back	Block4	2back/STIM_030.jpg	99
2384.591	0.439	439.3	2back	Block4	2back/STIM_031.jpg	100
2387.215	0.98	980.0	2back	Block4	2back/STIM_031.jpg	99
2390.272	0.834	833.6	2back	Block4	2back/STIM_031.jpg	100
2393.519	0.694	694.2	2back	Block4	2back/STIM_032.jpg	99
2396.595	0.751	751.1	2back	Block4	2back/STIM_032.jpg	100
2399.625	0.705	704.9	2back	Block4	2back/STIM_032.jpg	100
2403.59	0.86	859.9	2back	Block4	2back/STIM_033.jpg	100
2408.273	0.578	578.4	2back	Block4	2back/STIM_033.jpg	99
2411.344	0.574	574.1	2back	Block4	2back/STIM_033.jpg	99
2414.88	0.945	944.8	2back	Block4	2back/STIM_034.jpg	99
2419.459	0.609	608.6	2back	Block4	2back/STIM_034.jpg	99
2423.994	0.967	967.1	2back	Block4	2back/STIM_034.jpg	99
2427.185	0.751	750.9	2back	Block4	2back/STIM_035.jpg	100
2429.914	0.458	457.8	2back	Block4	2back/STIM_035.jpg	100
2434.061	0.977	977.4	2back	Block4	2back/STIM_035.jpg	100
2437.065	0.526	526.3	2back	Block4	2back/STIM_036.jpg	99
2440.715	1.034	1033.6	2back	Block4	2back/STIM_036.jpg	100
2445.616	0.949	949.0	2back	Block4	2back/STIM_036.jpg	99
2450.031	0.651	651.4	2back	Block4	2back/STIM_037.jpg	100
2453.203	0.697	696.9	2back	Block4	2back/STIM_037.jpg	99
2457.424	0.602	602.3	2back	Block4	2back/STIM_037.jpg	99
2461.006	0.738	738.0	2back	Block4	2back/STIM_038.jpg	100
2464.254	0.453	452.7	2back	Block4	2back/STIM_038.jpg	99
2467.634	0.985	985.1	2back	Block4	2back/STIM_038.jpg	99
2471.202	1.011	1011.3	2back	Block4	2back/STIM_039.jpg	99
2474.832	0.682	682.4	2back	Block4	2back/STIM_039.jpg	100
2478.111	0.866	866.5	2back	Block4	2back/STIM_039.jpg	99
2482.82	0.439	439.2	0back	Block4	0back/STIM_000.jpg	100
2486.037	0.552	551.9	0back	Block4	0back/STIM_000.jpg	100
2488.788	0.665	664.7	0back	Block4	0back/STIM_000.jpg	100
2493.079	0.694	694.5	0back	Block4	0back/STIM_001.jpg	100
2497.427	0.708	707.5	0back	Block4	0back/STIM_001.jpg	100
2500.162	0.635	634.9	0back	Block4	0back/STIM_001.jpg	100
2503.854	0.544	544.5	0back	Block4	0back/STIM_002.jpg	100
2507.214	0.676	676.4	0back	Block4	0back/STIM_002.jpg	99
2511.512	0.656	655.7	0back	Block4	0back/STIM_002.jpg	99
2516.055	0.707	706.8	0back	Block4	0back/STIM_003.jpg	100
2519.721	0.661	660.9	0back	Block4	0back/STIM_003.jpg	99
2524.283	0.896	896.5	0back	Block4	0back/STIM_003.jpg	99
2528.215	0.75	750.2	0back	Block4	0back/STIM_004.jpg	100
2531.23	0.561	561.0	0back	Block4	0back/STIM_004.jpg	99
2535.129	0.449	448.9	0back	Block4	0back/STIM_004.jpg	99
2537.593	0.446	445.5	0back	Block4	0back/STIM_005.jpg	100
2541.237	0.472	472.4	0back	Block4	0back/STIM_005.jpg	100
2545.436	0.582	581.8	0back	Block4	0back/STIM_005.jpg	100
2548.743	0.403	403.1	0back	Block4	0back/STIM_006.jpg	99
2551.231	0.747	747.1	0back	Block4	0back/STIM_006.jpg	99
2555.634	0.531	530.7	0back	Block4	0back/STIM_006.jpg	100
2559.62	0.449	448.8	0back	Block4	0back/STIM_007.jpg	100
2563.128	0.658	657.7	0back	Block4	0back/STIM_007.jpg	100
2567.478	0.495	495.1	0back	Block4	0back/STIM_007.jpg	99
2570.915	0.663	663.4	0back	Block4	0back/STIM_008.jpg	100
2574.655	0.574	573.7	0back	Block4	0back/STIM_008.jpg	100
2579.083	0.656	656.5	0back	Block4	0back/STIM_008.jpg	99
2582.136	0.548	547.8	0back	Block4	0back/STIM_009.jpg	99
2585.993	0.644	643.9	0back	Block4	0back/STIM_009.jpg	99
2589.524	0.434	434.2	0back	Block4	0back/STIM_009.jpg	100
2593.548	0.383	382.9	0back	Block4	0back/STIM_010.jpg	99
2597.659	0.658	657.7	0back	Block4	0back/STIM_010.jpg	99
2601.753	0.826	826.1	0back	Block4	0back/STIM_010.jpg	100
2604.531	0.513	512.9	0back	Block4	0back/STIM_011.jpg	100
2607.873	0.415	414.8	0back	Block4	0back/STIM_011.jpg	100
2612.245	0.772	772.5	0back	Block4	0back/STIM_011.jpg	99
2615.945	0.867	867.4	0back	Block4	0back/STIM_012.jpg	99
2620.437	0.651	650.6	0back	Block4	0back/STIM_012.jpg	100
2623.986	0.68	679.8	0back	Block4	0back/STIM_012.jpg	99
2627.741	0.542	542.2	0back	Block4	0back/STIM_013.jpg	99
2630.998	0.533	533.4	0back	Block4	0back/STIM_013.jpg	99
2634.73	0.564	564.2	0back	Block4	0back/STIM_013.jpg	100
2638.651	0.76	760.3	0back	Block4	0back/STIM_014.jpg	99
2642.134	0.626	625.5	0back	Block4	0back/STIM_014.jpg	100
2645.302	0.805	804.6	0back	Block4	0back/STIM_014.jpg	100
2648.383	0.734	733.9	0back	Block4	0back/STIM_015.jpg	100
2652.426	0.799	799.2	0back	Block4	0back/STIM_015.jpg	100
2655.2	0.713	713.2	0back	Block4	0back/STIM_015.jpg	100
2658.845	0.739	739.2	0back	Block4	0back/STIM_016.jpg	100
2662.805	0.486	486.1	0back	Block4	0back/STIM_016.jpg	99
2666.721	0.742	741.5	0back	Block4	0back/STIM_016.jpg	99
2671.346	0.678	678.4	0back	Block4	0back/STIM_017.jpg	100
2675.383	0.662	662.4	0back	Block4	0back/STIM_017.jpg	99
2678.425	0.467	467.0	0back	Block4	0back/STIM_017.jpg	99
2682.289	0.755	755.0	0back	Block4	0back/STIM_018.jpg	99
2686.412	0.8	799.9	0back	Block4	0back/STIM_018.jpg	100
2690.382	0.834	833.6	0back	Block4	0back/STIM_018.jpg	99
2695.152	0.827	826.8	0back	Block4	0back/STIM_019.jpg	100
2699.108	0.495	495.2	0back	Block4	0back/STIM_019.jpg	100
2702.81	0.568	567.8	0back	Block4	0back/STIM_019.jpg	100
