onset	duration	accuracy	trial_type	learning_stage	stimulus
0.0	1.888	correct	generate	Run1	generate/STIM_000.jpg
4.46	2.931	correct	generate	Run1	generate/STIM_000.jpg
10.682	1.882	correct	generate	Run1	generate/STIM_000.jpg
15.406	2.712	correct	generate	Run1	generate/STIM_000.jpg
20.551	2.289	correct	generate	Run1	generate/STIM_000.jpg
25.452	2.624	correct	generate	Run1	generate/STIM_001.jpg
30.801	2.13	correct	generate	Run1	generate/STIM_001.jpg
35.801	1.64	correct	generate	Run1	generate/STIM_001.jpg
39.519	2.232	correct	generate	Run1	generate/STIM_001.jpg
44.691	2.241	correct	generate	Run1	generate/STIM_001.jpg
50.253	3.059	incorrect	generate	Run1	generate/STIM_002.jpg
57.243	1.28	correct	generate	Run1	generate/STIM_002.jpg
62.17	2.754	correct	generate	Run1	generate/STIM_002.jpg
67.469	2.132	correct	generate	Run1	generate/STIM_002.jpg
72.636	2.464	correct	generate	Run1	generate/STIM_002.jpg
79.074	2.832	correct	generate	Run1	generate/STIM_003.jpg
84.274	1.824	correct	generate	Run1	generate/STIM_003.jpg
88.539	1.457	correct	generate	Run1	generate/STIM_003.jpg
92.367	1.921	correct	generate	Run1	generate/STIM_003.jpg
98.274	2.0	correct	generate	Run1	generate/STIM_003.jpg
102.93	2.168	correct	generate	Run1	generate/STIM_004.jpg
108.078	2.754	correct	generate	Run1	generate/STIM_004.jpg
114.356	2.605	correct	generate	Run1	generate/STIM_004.jpg
120.282	1.862	correct	generate	Run1	generate/STIM_004.jpg
124.695	2.141	correct	generate	Run1	generate/STIM_004.jpg
129.04	1.687	correct	generate	Run1	generate/STIM_005.jpg
134.417	2.261	correct	generate	Run1	generate/STIM_005.jpg
139.647	2.266	incorrect	generate	Run1	generate/STIM_005.jpg
143.973	2.239	correct	generate	Run1	generate/STIM_005.jpg
149.087	2.145	correct	generate	Run1	generate/STIM_005.jpg
154.044	3.025	incorrect	generate	Run1	generate/STIM_006.jpg
159.542	2.666	correct	generate	Run1	generate/STIM_006.jpg
164.256	1.767	correct	generate	Run1	generate/STIM_006.jpg
169.659	2.001	correct	generate	Run1	generate/STIM_006.jpg
173.985	1.13	incorrect	generate	Run1	generate/STIM_006.jpg
178.279	2.733	correct	generate	Run1	generate/STIM_007.jpg
184.503	1.287	correct	generate	Run1	generate/STIM_007.jpg
188.48	2.711	correct	generate	Run1	generate/STIM_007.jpg
193.485	2.583	correct	generate	Run1	generate/STIM_007.jpg
199.591	1.974	incorrect	generate	Run1	generate/STIM_007.jpg
203.826	2.637	incorrect	generate	Run1	generate/STIM_008.jpg
210.117	2.351	correct	generate	Run1	generate/STIM_008.jpg
215.664	2.03	incorrect	generate	Run1	generate/STIM_008.jpg
220.706	2.674	correct	generate	Run1	generate/STIM_008.jpg
227.287	2.324	correct	generate	Run1	generate/STIM_008.jpg
233.188	2.272	correct	generate	Run1	generate/STIM_009.jpg
239.353	1.971	correct	generate	Run1	generate/STIM_009.jpg
244.54	2.082	correct	generate	Run1	generate/STIM_009.jpg
250.467	1.772	incorrect	generate	Run1	generate/STIM_009.jpg
254.299	1.607	correct	generate	Run1	generate/STIM_009.jpg
259.767	2.609	correct	generate	Run1	generate/STIM_010.jpg
264.659	1.74	correct	generate	Run1	generate/STIM_010.jpg
270.136	2.417	correct	generate	Run1	generate/STIM_010.jpg
274.638	1.83	correct	generate	Run1	generate/STIM_010.jpg
279.031	1.301	correct	generate	Run1	generate/STIM_010.jpg
282.783	2.529	correct	generate	Run1	generate/STIM_011.jpg
289.168	2.236	correct	generate	Run1	generate/STIM_011.jpg
294.399	2.479	correct	generate	Run1	generate/STIM_011.jpg
299.331	2.063	correct	generate	Run1	generate/STIM_011.jpg
304.408	2.413	incorrect	generate	Run1	generate/STIM_011.jpg
309.869	2.049	correct	generate	Run1	generate/STIM_012.jpg
314.046	2.261	correct	generate	Run1	generate/STIM_012.jpg
319.359	2.773	correct	generate	Run1	generate/STIM_012.jpg
324.59	1.636	correct	generate	Run1	generate/STIM_012.jpg
328.483	1.696	correct	generate	Run1	generate/STIM_012.jpg
333.143	2.16	incorrect	generate	Run1	generate/STIM_013.jpg
338.747	2.014	correct	generate	Run1	generate/STIM_013.jpg
344.326	1.34	correct	generate	Run1	generate/STIM_013.jpg
349.142	2.674	correct	generate	Run1	generate/STIM_013.jpg
355.119	1.628	correct	generate	Run1	generate/STIM_013.jpg
360.696	1.532	correct	generate	Run1	generate/STIM_014.jpg
364.978	2.365	correct	generate	Run1	generate/STIM_014.jpg
370.751	2.313	correct	generate	Run1	generate/STIM_014.jpg
375.297	1.567	correct	generate	Run1	generate/STIM_014.jpg
379.386	1.799	correct	generate	Run1	generate/STIM_014.jpg
385.143	1.822	correct	generate	Run1	generate/STIM_015.jpg
390.824	1.35	correct	generate	Run1	generate/STIM_015.jpg
394.787	2.568	correct	generate	Run1	generate/STIM_015.jpg
399.767	1.404	incorrect	generate	Run1	generate/STIM_015.jpg
404.332	1.961	incorrect	generate	Run1	generate/STIM_015.jpg
408.38	1.465	correct	generate	Run1	generate/STIM_016.jpg
412.232	2.351	correct	generate	Run1	generate/STIM_016.jpg
418.3	2.379	correct	generate	Run1	generate/STIM_016.jpg
424.132	2.741	correct	generate	Run1	generate/STIM_016.jpg
429.711	1.946	incorrect	generate	Run1	generate/STIM_016.jpg
434.564	1.397	correct	generate	Run1	generate/STIM_017.jpg
438.809	2.988	correct	generate	Run1	generate/STIM_017.jpg
443.97	2.781	correct	generate	Run1	generate/STIM_017.jpg
450.499	1.76	correct	generate	Run1	generate/STIM_017.jpg
455.19	2.452	incorrect	generate	Run1	generate/STIM_017.jpg
461.29	3.211	correct	generate	Run1	generate/STIM_018.jpg
466.53	2.783	correct	generate	Run1	generate/STIM_018.jpg
471.847	1.246	correct	generate	Run1	generate/STIM_018.jpg
475.395	2.484	correct	generate	Run1	generate/STIM_018.jpg
480.039	2.602	correct	generate	Run1	generate/STIM_018.jpg
485.281	2.467	correct	generate	Run1	generate/STIM_019.jpg
489.804	2.826	correct	generate	Run1	generate/STIM_019.jpg
496.036	1.816	correct	generate	Run1	generate/STIM_019.jpg
501.164	1.383	incorrect	generate	Run1	generate/STIM_019.jpg
504.73	2.097	correct	generate	Run1	generate/STIM_019.jpg
510.281	3.178	correct	generate	Run1	generate/STIM_020.jpg
516.669	1.372	correct	generate	Run1	generate/STIM_020.jpg
521.319	1.304	correct	generate	Run1	generate/STIM_020.jpg
524.719	1.794	correct	generate	Run1	generate/STIM_020.jpg
530.203	1.485	correct	generate	Run1	generate/STIM_020.jpg
534.179	3.134	correct	generate	Run1	generate/STIM_021.jpg
541.024	1.241	correct	generate	Run1	generate/STIM_021.jpg
544.48	1.205	correct	generate	Run1	generate/STIM_021.jpg
547.971	2.471	correct	generate	Run1	generate/STIM_021.jpg
553.971	1.397	correct	generate	Run1	generate/STIM_021.jpg
558.28	1.446	correct	generate	Run1	generate/STIM_022.jpg
563.261	2.211	incorrect	generate	Run1	generate/STIM_022.jpg
567.701	2.112	correct	generate	Run1	generate/STIM_022.jpg
572.861	2.077	correct	generate	Run1	generate/STIM_022.jpg
577.188	1.842	correct	generate	Run1	generate/STIM_022.jpg
583.025	2.468	correct	generate	Run1	generate/STIM_023.jpg
588.488	1.929	correct	generate	Run1	generate/STIM_023.jpg
592.953	2.48	correct	generate	Run1	generate/STIM_023.jpg
597.702	1.309	correct	generate	Run1	generate/STIM_023.jpg
602.873	2.389	correct	generate	Run1	generate/STIM_023.jpg
608.065	1.601	correct	generate	Run1	generate/STIM_024.jpg
613.525	2.374	correct	generate	Run1	generate/STIM_024.jpg
618.113	2.415	correct	generate	Run1	generate/STIM_024.jpg
622.869	2.675	correct	generate	Run1	generate/STIM_024.jpg
627.775	2.343	correct	generate	Run1	generate/STIM_024.jpg
632.429	0.883	correct	repeat	Run1	repeat/STIM_000.jpg
636.169	0.842	incorrect	repeat	Run1	repeat/STIM_000.jpg
639.459	0.897	correct	repeat	Run1	repeat/STIM_000.jpg
643.635	0.842	correct	repeat	Run1	repeat/STIM_000.jpg
647.691	0.762	correct	repeat	Run1	repeat/STIM_000.jpg
651.046	0.938	correct	repeat	Run1	repeat/STIM_001.jpg
655.921	1.003	correct	repeat	Run1	repeat/STIM_001.jpg
660.457	0.772	correct	repeat	Run1	repeat/STIM_001.jpg
663.788	0.709	correct	repeat	Run1	repeat/STIM_001.jpg
667.645	0.585	correct	repeat	Run1	repeat/STIM_001.jpg
670.97	0.986	correct	repeat	Run1	repeat/STIM_002.jpg
674.221	0.9	correct	repeat	Run1	repeat/STIM_002.jpg
677.422	0.928	correct	repeat	Run1	repeat/STIM_002.jpg
681.182	0.996	correct	repeat	Run1	repeat/STIM_002.jpg
685.432	0.907	correct	repeat	Run1	repeat/STIM_002.jpg
689.997	0.572	correct	repeat	Run1	repeat/STIM_003.jpg
694.163	0.574	correct	repeat	Run1	repeat/STIM_003.jpg
697.68	0.84	correct	repeat	Run1	repeat/STIM_003.jpg
701.339	0.677	correct	repeat	Run1	repeat/STIM_003.jpg
704.2	0.939	correct	repeat	Run1	repeat/STIM_003.jpg
707.172	0.587	correct	repeat	Run1	repeat/STIM_004.jpg
710.36	0.929	correct	repeat	Run1	repeat/STIM_004.jpg
714.895	0.805	correct	repeat	Run1	repeat/STIM_004.jpg
719.303	1.01	correct	repeat	Run1	repeat/STIM_004.jpg
723.479	0.972	correct	repeat	Run1	repeat/STIM_004.jpg
727.347	0.696	correct	repeat	Run1	repeat/STIM_005.jpg
732.002	1.06	correct	repeat	Run1	repeat/STIM_005.jpg
736.918	0.739	correct	repeat	Run1	repeat/STIM_005.jpg
740.998	1.057	correct	repeat	Run1	repeat/STIM_005.jpg
744.324	0.702	correct	repeat	Run1	repeat/STIM_005.jpg
748.338	0.75	incorrect	repeat	Run1	repeat/STIM_006.jpg
752.973	0.678	correct	repeat	Run1	repeat/STIM_006.jpg
757.188	0.803	correct	repeat	Run1	repeat/STIM_006.jpg
761.148	0.855	correct	repeat	Run1	repeat/STIM_006.jpg
765.153	0.945	correct	repeat	Run1	repeat/STIM_006.jpg
768.634	1.011	correct	repeat	Run1	repeat/STIM_007.jpg
773.556	0.86	correct	repeat	Run1	repeat/STIM_007.jpg
777.547	0.872	correct	repeat	Run1	repeat/STIM_007.jpg
780.424	0.811	correct	repeat	Run1	repeat/STIM_007.jpg
784.305	0.713	correct	repeat	Run1	repeat/STIM_007.jpg
788.536	0.551	correct	repeat	Run1	repeat/STIM_008.jpg
791.78	0.922	correct	repeat	Run1	repeat/STIM_008.jpg
796.653	0.558	correct	repeat	Run1	repeat/STIM_008.jpg
799.772	0.58	correct	repeat	Run1	repeat/STIM_008.jpg
803.136	0.766	correct	repeat	Run1	repeat/STIM_008.jpg
807.088	1.014	correct	repeat	Run1	repeat/STIM_009.jpg
810.683	1.003	correct	repeat	Run1	repeat/STIM_009.jpg
815.124	0.574	correct	repeat	Run1	repeat/STIM_009.jpg
819.012	1.058	correct	repeat	Run1	repeat/STIM_009.jpg
822.486	0.944	correct	repeat	Run1	repeat/STIM_009.jpg
826.916	0.775	correct	repeat	Run1	repeat/STIM_010.jpg
829.872	0.708	correct	repeat	Run1	repeat/STIM_010.jpg
832.955	0.822	correct	repeat	Run1	repeat/STIM_010.jpg
836.601	1.054	correct	repeat	Run1	repeat/STIM_010.jpg
840.974	0.63	correct	repeat	Run1	repeat/STIM_010.jpg
844.618	0.957	correct	repeat	Run1	repeat/STIM_011.jpg
848.343	0.681	correct	repeat	Run1	repeat/STIM_011.jpg
851.829	0.885	correct	repeat	Run1	repeat/STIM_011.jpg
855.688	0.9	correct	repeat	Run1	repeat/STIM_011.jpg
860.21	0.975	correct	repeat	Run1	repeat/STIM_011.jpg
864.656	0.655	correct	repeat	Run1	repeat/STIM_012.jpg
868.618	0.61	correct	repeat	Run1	repeat/STIM_012.jpg
872.413	0.582	correct	repeat	Run1	repeat/STIM_012.jpg
875.577	0.889	correct	repeat	Run1	repeat/STIM_012.jpg
878.85	0.555	correct	repeat	Run1	repeat/STIM_012.jpg
882.25	0.66	correct	repeat	Run1	repeat/STIM_013.jpg
885.289	1.034	correct	repeat	Run1	repeat/STIM_013.jpg
890.172	0.554	correct	repeat	Run1	repeat/STIM_013.jpg
893.641	0.987	correct	repeat	Run1	repeat/STIM_013.jpg
898.401	0.579	correct	repeat	Run1	repeat/STIM_013.jpg
902.486	0.666	correct	repeat	Run1	repeat/STIM_014.jpg
906.347	0.647	correct	repeat	Run1	repeat/STIM_014.jpg
909.861	0.603	correct	repeat	Run1	repeat/STIM_014.jpg
914.44	0.79	correct	repeat	Run1	repeat/STIM_014.jpg
917.37	0.818	correct	repeat	Run1	repeat/STIM_014.jpg
920.812	2.285	correct	generate	Run2	generate/STIM_000.jpg
926.045	2.081	incorrect	generate	Run2	generate/STIM_000.jpg
930.622	2.439	correct	generate	Run2	generate/STIM_000.jpg
935.123	1.035	correct	generate	Run2	generate/STIM_000.jpg
938.47	2.092	correct	generate	Run2	generate/STIM_000.jpg
943.609	2.099	correct	generate	Run2	generate/STIM_001.jpg
948.855	2.588	incorrect	generate	Run2	generate/STIM_001.jpg
954.815	2.047	incorrect	generate	Run2	generate/STIM_001.jpg
959.349	2.216	correct	generate	Run2	generate/STIM_001.jpg
964.544	0.915	correct	generate	Run2	generate/STIM_001.jpg
967.622	2.334	correct	generate	Run2	generate/STIM_002.jpg
973.508	1.925	correct	generate	Run2	generate/STIM_002.jpg
978.786	1.889	correct	generate	Run2	generate/STIM_002.jpg
984.058	1.536	correct	generate	Run2	generate/STIM_002.jpg
988.682	1.298	correct	generate	Run2	generate/STIM_002.jpg
993.889	1.698	correct	generate	Run2	generate/STIM_003.jpg
998.726	1.705	correct	generate	Run2	generate/STIM_003.jpg
1003.645	1.177	correct	generate	Run2	generate/STIM_003.jpg
1008.084	0.941	correct	generate	Run2	generate/STIM_003.jpg
1012.632	1.742	correct	generate	Run2	generate/STIM_003.jpg
1016.958	1.699	correct	generate	Run2	generate/STIM_004.jpg
1021.203	1.295	correct	generate	Run2	generate/STIM_004.jpg
1026.129	1.253	correct	generate	Run2	generate/STIM_004.jpg
1030.364	1.91	correct	generate	Run2	generate/STIM_004.jpg
1035.825	2.003	correct	generate	Run2	generate/STIM_004.jpg
1039.924	1.196	correct	generate	Run2	generate/STIM_005.jpg
1044.683	2.097	correct	generate	Run2	generate/STIM_005.jpg
1050.742	1.349	correct	generate	Run2	generate/STIM_005.jpg
1055.749	1.152	incorrect	generate	Run2	generate/STIM_005.jpg
1060.46	1.323	correct	generate	Run2	generate/STIM_005.jpg
1064.309	1.13	correct	generate	Run2	generate/STIM_006.jpg
1068.366	2.195	incorrect	generate	Run2	generate/STIM_006.jpg
1074.297	0.987	correct	generate	Run2	generate/STIM_006.jpg
1078.4	1.325	correct	generate	Run2	generate/STIM_006.jpg
1082.257	2.057	correct	generate	Run2	generate/STIM_006.jpg
1087.803	1.118	correct	generate	Run2	generate/STIM_007.jpg
1090.967	1.296	correct	generate	Run2	generate/STIM_007.jpg
1095.332	1.49	incorrect	generate	Run2	generate/STIM_007.jpg
1098.909	1.932	correct	generate	Run2	generate/STIM_007.jpg
1103.412	1.249	correct	generate	Run2	generate/STIM_007.jpg
1108.336	2.526	correct	generate	Run2	generate/STIM_008.jpg
1114.623	2.449	correct	generate	Run2	generate/STIM_008.jpg
1119.376	1.837	correct	generate	Run2	generate/STIM_008.jpg
1123.496	0.98	correct	generate	Run2	generate/STIM_008.jpg
1127.012	1.608	correct	generate	Run2	generate/STIM_008.jpg
1131.103	2.407	correct	generate	Run2	generate/STIM_009.jpg
1136.401	1.051	correct	generate	Run2	generate/STIM_009.jpg
1141.112	2.395	correct	generate	Run2	generate/STIM_009.jpg
1146.379	1.835	correct	generate	Run2	generate/STIM_009.jpg
1151.588	2.182	correct	generate	Run2	generate/STIM_009.jpg
1157.106	2.52	correct	generate	Run2	generate/STIM_010.jpg
1162.897	1.372	incorrect	generate	Run2	generate/STIM_010.jpg
1167.444	1.262	correct	generate	Run2	generate/STIM_010.jpg
1171.51	1.45	correct	generate	Run2	generate/STIM_010.jpg
1175.654	1.563	correct	generate	Run2	generate/STIM_010.jpg
1180.873	1.157	correct	generate	Run2	generate/STIM_011.jpg
1185.06	2.249	correct	generate	Run2	generate/STIM_011.jpg
1189.894	1.009	correct	generate	Run2	generate/STIM_011.jpg
1193.404	1.468	correct	generate	Run2	generate/STIM_011.jpg
1198.726	1.227	correct	generate	Run2	generate/STIM_011.jpg
1202.408	1.467	correct	generate	Run2	generate/STIM_012.jpg
1207.872	1.227	incorrect	generate	Run2	generate/STIM_012.jpg
1212.745	1.774	correct	generate	Run2	generate/STIM_012.jpg
1218.334	1.119	correct	generate	Run2	generate/STIM_012.jpg
1221.562	1.935	correct	generate	Run2	generate/STIM_012.jpg
1226.774	2.178	correct	generate	Run2	generate/STIM_013.jpg
1230.988	1.808	correct	generate	Run2	generate/STIM_013.jpg
1236.78	1.961	correct	generate	Run2	generate/STIM_013.jpg
1242.095	1.664	correct	generate	Run2	generate/STIM_013.jpg
1247.409	1.81	correct	generate	Run2	generate/STIM_013.jpg
1251.761	2.079	incorrect	generate	Run2	generate/STIM_014.jpg
1257.613	2.388	correct	generate	Run2	generate/STIM_014.jpg
1262.014	1.787	correct	generate	Run2	generate/STIM_014.jpg
1266.567	1.197	incorrect	generate	Run2	generate/STIM_014.jpg
1270.524	1.649	correct	generate	Run2	generate/STIM_014.jpg
1275.592	1.21	correct	generate	Run2	generate/STIM_015.jpg
1279.651	1.857	correct	generate	Run2	generate/STIM_015.jpg
1283.933	2.397	correct	generate	Run2	generate/STIM_015.jpg
1289.713	1.308	incorrect	generate	Run2	generate/STIM_015.jpg
1294.688	1.677	correct	generate	Run2	generate/STIM_015.jpg
1299.559	1.874	correct	generate	Run2	generate/STIM_016.jpg
1304.871	2.177	correct	generate	Run2	generate/STIM_016.jpg
1310.156	2.373	incorrect	generate	Run2	generate/STIM_016.jpg
1315.61	0.947	correct	generate	Run2	generate/STIM_016.jpg
1320.151	1.435	correct	generate	Run2	generate/STIM_016.jpg
1324.894	1.179	correct	generate	Run2	generate/STIM_017.jpg
1328.955	1.815	incorrect	generate	Run2	generate/STIM_017.jpg
1333.661	1.874	correct	generate	Run2	generate/STIM_017.jpg
1338.113	1.381	correct	generate	Run2	generate/STIM_017.jpg
1342.645	1.117	correct	generate	Run2	generate/STIM_017.jpg
1347.236	2.222	incorrect	generate	Run2	generate/STIM_018.jpg
1353.242	2.27	incorrect	generate	Run2	generate/STIM_018.jpg
1359.49	1.396	correct	generate	Run2	generate/STIM_018.jpg
1364.35	2.123	correct	generate	Run2	generate/STIM_018.jpg
1369.942	1.814	correct	generate	Run2	generate/STIM_018.jpg
1374.098	2.444	incorrect	generate	Run2	generate/STIM_019.jpg
1379.452	1.372	correct	generate	Run2	generate/STIM_019.jpg
1384.173	2.42	correct	generate	Run2	generate/STIM_019.jpg
1389.12	1.93	correct	generate	Run2	generate/STIM_019.jpg
1394.852	1.691	correct	generate	Run2	generate/STIM_019.jpg
1398.749	2.51	correct	generate	Run2	generate/STIM_020.jpg
1405.071	1.174	correct	generate	Run2	generate/STIM_020.jpg
1408.614	1.506	correct	generate	Run2	generate/STIM_020.jpg
1412.433	1.133	correct	generate	Run2	generate/STIM_020.jpg
1416.25	2.022	correct	generate	Run2	generate/STIM_020.jpg
1421.587	2.082	correct	generate	Run2	generate/STIM_021.jpg
1427.657	2.294	correct	generate	Run2	generate/STIM_021.jpg
1432.504	2.197	correct	generate	Run2	generate/STIM_021.jpg
1436.989	1.909	correct	generate	Run2	generate/STIM_021.jpg
1441.131	1.272	correct	generate	Run2	generate/STIM_021.jpg
1444.525	1.776	correct	generate	Run2	generate/STIM_022.jpg
1449.423	1.877	correct	generate	Run2	generate/STIM_022.jpg
1454.447	2.236	correct	generate	Run2	generate/STIM_022.jpg
1459.232	2.042	incorrect	generate	Run2	generate/STIM_022.jpg
1465.214	1.878	correct	generate	Run2	generate/STIM_022.jpg
1470.9	1.253	correct	generate	Run2	generate/STIM_023.jpg
1475.673	1.89	correct	generate	Run2	generate/STIM_023.jpg
1480.865	1.052	correct	generate	Run2	generate/STIM_023.jpg
1484.394	2.097	correct	generate	Run2	generate/STIM_023.jpg
1489.468	2.009	correct	generate	Run2	generate/STIM_023.jpg
1494.58	2.436	correct	generate	Run2	generate/STIM_024.jpg
1500.604	1.584	incorrect	generate	Run2	generate/STIM_024.jpg
1505.336	1.933	correct	generate	Run2	generate/STIM_024.jpg
1510.757	2.272	correct	generate	Run2	generate/STIM_024.jpg
1516.62	2.176	correct	generate	Run2	generate/STIM_024.jpg
1521.746	0.668	correct	repeat	Run2	repeat/STIM_000.jpg
1525.856	0.554	correct	repeat	Run2	repeat/STIM_000.jpg
1528.752	0.613	correct	repeat	Run2	repeat/STIM_000.jpg
1532.859	0.994	correct	repeat	Run2	repeat/STIM_000.jpg
1536.087	0.926	correct	repeat	Run2	repeat/STIM_000.jpg
1539.251	0.547	correct	repeat	Run2	repeat/STIM_001.jpg
1543.293	0.624	incorrect	repeat	Run2	repeat/STIM_001.jpg
1546.901	0.764	correct	repeat	Run2	repeat/STIM_001.jpg
1551.075	0.784	correct	repeat	Run2	repeat/STIM_001.jpg
1555.015	0.884	correct	repeat	Run2	repeat/STIM_001.jpg
1558.923	1.015	correct	repeat	Run2	repeat/STIM_002.jpg
1562.998	0.632	correct	repeat	Run2	repeat/STIM_002.jpg
1566.678	0.697	correct	repeat	Run2	repeat/STIM_002.jpg
1571.008	1.064	correct	repeat	Run2	repeat/STIM_002.jpg
1575.153	0.794	correct	repeat	Run2	repeat/STIM_002.jpg
1578.553	0.704	correct	repeat	Run2	repeat/STIM_003.jpg
1582.695	0.985	correct	repeat	Run2	repeat/STIM_003.jpg
1586.517	0.73	correct	repeat	Run2	repeat/STIM_003.jpg
1589.809	0.797	correct	repeat	Run2	repeat/STIM_003.jpg
1594.259	0.722	correct	repeat	Run2	repeat/STIM_003.jpg
1597.41	1.032	correct	repeat	Run2	repeat/STIM_004.jpg
1601.597	1.009	correct	repeat	Run2	repeat/STIM_004.jpg
1605.461	0.985	correct	repeat	Run2	repeat/STIM_004.jpg
1609.845	0.946	correct	repeat	Run2	repeat/STIM_004.jpg
1614.728	1.068	correct	repeat	Run2	repeat/STIM_004.jpg
1618.117	1.032	correct	repeat	Run2	repeat/STIM_005.jpg
1622.068	0.693	correct	repeat	Run2	repeat/STIM_005.jpg
1625.27	1.02	correct	repeat	Run2	repeat/STIM_005.jpg
1629.978	0.809	correct	repeat	Run2	repeat/STIM_005.jpg
1633.259	0.601	correct	repeat	Run2	repeat/STIM_005.jpg
1635.871	1.054	correct	repeat	Run2	repeat/STIM_006.jpg
1640.502	0.86	correct	repeat	Run2	repeat/STIM_006.jpg
1644.663	1.077	correct	repeat	Run2	repeat/STIM_006.jpg
1647.872	0.606	correct	repeat	Run2	repeat/STIM_006.jpg
1650.559	0.901	correct	repeat	Run2	repeat/STIM_006.jpg
1654.654	0.718	correct	repeat	Run2	repeat/STIM_007.jpg
1658.168	0.918	correct	repeat	Run2	repeat/STIM_007.jpg
1662.305	0.989	correct	repeat	Run2	repeat/STIM_007.jpg
1666.928	0.854	correct	repeat	Run2	repeat/STIM_007.jpg
1671.321	0.594	correct	repeat	Run2	repeat/STIM_007.jpg
1673.99	1.058	correct	repeat	Run2	repeat/STIM_008.jpg
1677.839	0.946	correct	repeat	Run2	repeat/STIM_008.jpg
1682.368	0.699	correct	repeat	Run2	repeat/STIM_008.jpg
1686.844	0.56	correct	repeat	Run2	repeat/STIM_008.jpg
1690.491	0.688	correct	repeat	Run2	repeat/STIM_008.jpg
1693.908	0.683	correct	repeat	Run2	repeat/STIM_009.jpg
1697.15	1.069	correct	repeat	Run2	repeat/STIM_009.jpg
1701.043	0.874	correct	repeat	Run2	repeat/STIM_009.jpg
1704.944	0.785	correct	repeat	Run2	repeat/STIM_009.jpg
1709.417	0.652	correct	repeat	Run2	repeat/STIM_009.jpg
1713.356	0.808	correct	repeat	Run2	repeat/STIM_010.jpg
1716.303	0.581	correct	repeat	Run2	repeat/STIM_010.jpg
1719.582	0.877	correct	repeat	Run2	repeat/STIM_010.jpg
1724.399	0.566	correct	repeat	Run2	repeat/STIM_010.jpg
1728.166	0.73	correct	repeat	Run2	repeat/STIM_010.jpg
1731.865	0.646	correct	repeat	Run2	repeat/STIM_011.jpg
1736.397	1.079	correct	repeat	Run2	repeat/STIM_011.jpg
1740.33	0.909	correct	repeat	Run2	repeat/STIM_011.jpg
1745.211	0.67	correct	repeat	Run2	repeat/STIM_011.jpg
1749.61	0.655	correct	repeat	Run2	repeat/STIM_011.jpg
1753.834	0.679	correct	repeat	Run2	repeat/STIM_012.jpg
1758.061	0.857	correct	repeat	Run2	repeat/STIM_012.jpg
1762.193	0.565	correct	repeat	Run2	repeat/STIM_012.jpg
1765.194	0.721	correct	repeat	Run2	repeat/STIM_012.jpg
1769.815	0.897	correct	repeat	Run2	repeat/STIM_012.jpg
1774.135	0.605	correct	repeat	Run2	repeat/STIM_013.jpg
1776.801	0.597	correct	repeat	Run2	repeat/STIM_013.jpg
1780.256	0.687	correct	repeat	Run2	repeat/STIM_013.jpg
1784.629	0.706	correct	repeat	Run2	repeat/STIM_013.jpg
1787.491	0.946	correct	repeat	Run2	repeat/STIM_013.jpg
1792.211	0.545	correct	repeat	Run2	repeat/STIM_014.jpg
1795.164	0.582	correct	repeat	Run2	repeat/STIM_014.jpg
1799.478	0.984	correct	repeat	Run2	repeat/STIM_014.jpg
1803.992	0.995	correct	repeat	Run2	repeat/STIM_014.jpg
1808.292	0.834	correct	repeat	Run2	repeat/STIM_014.jpg
1811.711	1.544	correct	generate	Run3	generate/STIM_000.jpg
1815.267	1.5	correct	generate	Run3	generate/STIM_000.jpg
1820.732	1.613	correct	generate	Run3	generate/STIM_000.jpg
1824.996	1.969	correct	generate	Run3	generate/STIM_000.jpg
1830.418	1.381	correct	generate	Run3	generate/STIM_000.jpg
1835.77	0.912	correct	generate	Run3	generate/STIM_001.jpg
1840.217	1.936	correct	generate	Run3	generate/STIM_001.jpg
1844.763	1.034	correct	generate	Run3	generate/STIM_001.jpg
1848.534	1.23	correct	generate	Run3	generate/STIM_001.jpg
1853.48	1.664	incorrect	generate	Run3	generate/STIM_001.jpg
1857.759	2.202	correct	generate	Run3	generate/STIM_002.jpg
1863.86	1.45	correct	generate	Run3	generate/STIM_002.jpg
1867.593	1.749	correct	generate	Run3	generate/STIM_002.jpg
1871.525	2.223	correct	generate	Run3	generate/STIM_002.jpg
1876.49	1.429	correct	generate	Run3	generate/STIM_002.jpg
1881.184	2.198	correct	generate	Run3	generate/STIM_003.jpg
1885.795	2.271	correct	generate	Run3	generate/STIM_003.jpg
1890.879	1.385	correct	generate	Run3	generate/STIM_003.jpg
1895.767	1.803	correct	generate	Run3	generate/STIM_003.jpg
1901.553	1.952	correct	generate	Run3	generate/STIM_003.jpg
1905.518	1.03	correct	generate	Run3	generate/STIM_004.jpg
1908.567	1.18	correct	generate	Run3	generate/STIM_004.jpg
1912.215	1.757	correct	generate	Run3	generate/STIM_004.jpg
1916.085	2.133	correct	generate	Run3	generate/STIM_004.jpg
1921.761	1.892	correct	generate	Run3	generate/STIM_004.jpg
1925.875	1.285	correct	generate	Run3	generate/STIM_005.jpg
1930.631	1.868	correct	generate	Run3	generate/STIM_005.jpg
1936.053	1.982	correct	generate	Run3	generate/STIM_005.jpg
1940.322	1.883	correct	generate	Run3	generate/STIM_005.jpg
1944.392	1.893	correct	generate	Run3	generate/STIM_005.jpg
1948.533	1.638	correct	generate	Run3	generate/STIM_006.jpg
1953.012	1.518	correct	generate	Run3	generate/STIM_006.jpg
1958.198	1.032	correct	generate	Run3	generate/STIM_006.jpg
1962.801	1.457	correct	generate	Run3	generate/STIM_006.jpg
1967.684	1.758	correct	generate	Run3	generate/STIM_006.jpg
1971.484	2.145	correct	generate	Run3	generate/STIM_007.jpg
1976.194	2.071	correct	generate	Run3	generate/STIM_007.jpg
1980.897	1.076	correct	generate	Run3	generate/STIM_007.jpg
1985.313	1.24	correct	generate	Run3	generate/STIM_007.jpg
1988.783	0.969	correct	generate	Run3	generate/STIM_007.jpg
1993.63	1.259	correct	generate	Run3	generate/STIM_008.jpg
1997.27	1.936	correct	generate	Run3	generate/STIM_008.jpg
2003.161	2.113	correct	generate	Run3	generate/STIM_008.jpg
2007.879	1.217	correct	generate	Run3	generate/STIM_008.jpg
2011.205	2.127	correct	generate	Run3	generate/STIM_008.jpg
2016.969	1.149	correct	generate	Run3	generate/STIM_009.jpg
2021.328	2.084	correct	generate	Run3	generate/STIM_009.jpg
2026.272	2.112	correct	generate	Run3	generate/STIM_009.jpg
2032.323	1.064	correct	generate	Run3	generate/STIM_009.jpg
2035.558	1.58	correct	generate	Run3	generate/STIM_009.jpg
2039.337	1.839	incorrect	generate	Run3	generate/STIM_010.jpg
2043.317	1.239	correct	generate	Run3	generate/STIM_010.jpg
2047.986	1.655	correct	generate	Run3	generate/STIM_010.jpg
2051.931	2.218	correct	generate	Run3	generate/STIM_010.jpg
2056.471	0.924	correct	generate	Run3	generate/STIM_010.jpg
2060.648	1.43	correct	generate	Run3	generate/STIM_011.jpg
2064.196	1.601	correct	generate	Run3	generate/STIM_011.jpg
2067.821	1.153	correct	generate	Run3	generate/STIM_011.jpg
2071.232	1.751	correct	generate	Run3	generate/STIM_011.jpg
2076.039	2.267	incorrect	generate	Run3	generate/STIM_011.jpg
2080.642	1.653	correct	generate	Run3	generate/STIM_012.jpg
2085.086	1.265	correct	generate	Run3	generate/STIM_012.jpg
2088.423	2.237	correct	generate	Run3	generate/STIM_012.jpg
2094.232	2.182	correct	generate	Run3	generate/STIM_012.jpg
2099.136	1.308	correct	generate	Run3	generate/STIM_012.jpg
2102.512	1.037	correct	generate	Run3	generate/STIM_013.jpg
2107.399	1.85	correct	generate	Run3	generate/STIM_013.jpg
2113.159	1.569	correct	generate	Run3	generate/STIM_013.jpg
2116.753	1.753	correct	generate	Run3	generate/STIM_013.jpg
2120.793	0.913	correct	generate	Run3	generate/STIM_013.jpg
2124.085	1.399	correct	generate	Run3	generate/STIM_014.jpg
2127.772	1.575	correct	generate	Run3	generate/STIM_014.jpg
2132.855	1.737	correct	generate	Run3	generate/STIM_014.jpg
2137.051	2.141	correct	generate	Run3	generate/STIM_014.jpg
2141.309	1.628	correct	generate	Run3	generate/STIM_014.jpg
2146.784	1.345	correct	generate	Run3	generate/STIM_015.jpg
2151.241	1.128	correct	generate	Run3	generate/STIM_015.jpg
2155.803	1.946	incorrect	generate	Run3	generate/STIM_015.jpg
2160.006	2.148	incorrect	generate	Run3	generate/STIM_015.jpg
2164.66	0.952	correct	generate	Run3	generate/STIM_015.jpg
2168.055	1.782	correct	generate	Run3	generate/STIM_016.jpg
2173.728	1.973	correct	generate	Run3	generate/STIM_016.jpg
2179.602	1.357	correct	generate	Run3	generate/STIM_016.jpg
2184.181	1.0	correct	generate	Run3	generate/STIM_016.jpg
2188.2	1.018	correct	generate	Run3	generate/STIM_016.jpg
2192.665	2.25	correct	generate	Run3	generate/STIM_017.jpg
2198.705	1.494	correct	generate	Run3	generate/STIM_017.jpg
2203.748	2.217	correct	generate	Run3	generate/STIM_017.jpg
2209.566	1.54	correct	generate	Run3	generate/STIM_017.jpg
2214.339	1.81	correct	generate	Run3	generate/STIM_017.jpg
2218.999	1.697	correct	generate	Run3	generate/STIM_018.jpg
2223.352	1.57	correct	generate	Run3	generate/STIM_018.jpg
2228.126	1.931	correct	generate	Run3	generate/STIM_018.jpg
2232.713	1.649	correct	generate	Run3	generate/STIM_018.jpg
2236.939	2.269	correct	generate	Run3	generate/STIM_018.jpg
2241.61	1.214	correct	generate	Run3	generate/STIM_019.jpg
2245.459	2.059	correct	generate	Run3	generate/STIM_019.jpg
2250.459	1.344	correct	generate	Run3	generate/STIM_019.jpg
2254.75	1.847	correct	generate	Run3	generate/STIM_019.jpg
2259.193	1.225	correct	generate	Run3	generate/STIM_019.jpg
2262.606	0.967	correct	generate	Run3	generate/STIM_020.jpg
2266.87	1.848	incorrect	generate	Run3	generate/STIM_020.jpg
2272.074	1.606	correct	generate	Run3	generate/STIM_020.jpg
2276.699	1.892	correct	generate	Run3	generate/STIM_020.jpg
2281.147	1.367	correct	generate	Run3	generate/STIM_020.jpg
2285.688	1.362	correct	generate	Run3	generate/STIM_021.jpg
2289.196	2.122	correct	generate	Run3	generate/STIM_021.jpg
2294.883	1.255	correct	generate	Run3	generate/STIM_021.jpg
2298.998	2.075	correct	generate	Run3	generate/STIM_021.jpg
2303.731	1.761	correct	generate	Run3	generate/STIM_021.jpg
2309.474	1.33	correct	generate	Run3	generate/STIM_022.jpg
2313.047	1.42	correct	generate	Run3	generate/STIM_022.jpg
2318.064	1.573	correct	generate	Run3	generate/STIM_022.jpg
2322.037	1.921	correct	generate	Run3	generate/STIM_022.jpg
2327.122	1.916	correct	generate	Run3	generate/STIM_022.jpg
2333.011	1.566	correct	generate	Run3	generate/STIM_023.jpg
2338.438	2.203	correct	generate	Run3	generate/STIM_023.jpg
2344.161	1.564	correct	generate	Run3	generate/STIM_023.jpg
2348.462	1.048	correct	generate	Run3	generate/STIM_023.jpg
2353.188	1.045	correct	generate	Run3	generate/STIM_023.jpg
2356.741	1.608	correct	generate	Run3	generate/STIM_024.jpg
2360.744	1.66	correct	generate	Run3	generate/STIM_024.jpg
2365.718	2.206	correct	generate	Run3	generate/STIM_024.jpg
2371.182	1.512	correct	generate	Run3	generate/STIM_024.jpg
2375.981	1.981	correct	generate	Run3	generate/STIM_024.jpg
2381.162	0.799	correct	repeat	Run3	repeat/STIM_000.jpg
2385.776	1.064	correct	repeat	Run3	repeat/STIM_000.jpg
2389.207	1.071	correct	repeat	Run3	repeat/STIM_000.jpg
2393.84	0.68	correct	repeat	Run3	repeat/STIM_000.jpg
2398.185	0.819	correct	repeat	Run3	repeat/STIM_000.jpg
2402.304	0.929	correct	repeat	Run3	repeat/STIM_001.jpg
2405.94	0.684	correct	repeat	Run3	repeat/STIM_001.jpg
2410.232	0.834	correct	repeat	Run3	repeat/STIM_001.jpg
2414.074	0.934	correct	repeat	Run3	repeat/STIM_001.jpg
2417.327	0.898	correct	repeat	Run3	repeat/STIM_001.jpg
2421.126	0.976	correct	repeat	Run3	repeat/STIM_002.jpg
2424.424	0.676	correct	repeat	Run3	repeat/STIM_002.jpg
2428.358	0.809	correct	repeat	Run3	repeat/STIM_002.jpg
2431.83	0.775	correct	repeat	Run3	repeat/STIM_002.jpg
2435.597	0.857	correct	repeat	Run3	repeat/STIM_002.jpg
2439.137	1.06	correct	repeat	Run3	repeat/STIM_003.jpg
2442.46	0.868	correct	repeat	Run3	repeat/STIM_003.jpg
2446.549	0.951	correct	repeat	Run3	repeat/STIM_003.jpg
2449.653	0.711	correct	repeat	Run3	repeat/STIM_003.jpg
2454.258	1.005	correct	repeat	Run3	repeat/STIM_003.jpg
2459.138	1.018	correct	repeat	Run3	repeat/STIM_004.jpg
2463.798	0.762	correct	repeat	Run3	repeat/STIM_004.jpg
2466.7	0.715	correct	repeat	Run3	repeat/STIM_004.jpg
2471.243	0.9	correct	repeat	Run3	repeat/STIM_004.jpg
2476.048	0.821	correct	repeat	Run3	repeat/STIM_004.jpg
2480.008	0.823	correct	repeat	Run3	repeat/STIM_005.jpg
2483.913	0.793	correct	repeat	Run3	repeat/STIM_005.jpg
2487.816	0.706	correct	repeat	Run3	repeat/STIM_005.jpg
2491.702	0.83	correct	repeat	Run3	repeat/STIM_005.jpg
2495.45	0.686	correct	repeat	Run3	repeat/STIM_005.jpg
2500.036	0.644	correct	repeat	Run3	repeat/STIM_006.jpg
2502.954	0.677	correct	repeat	Run3	repeat/STIM_006.jpg
2505.867	0.55	correct	repeat	Run3	repeat/STIM_006.jpg
2508.705	0.993	correct	repeat	Run3	repeat/STIM_006.jpg
2512.482	0.59	correct	repeat	Run3	repeat/STIM_006.jpg
2515.687	0.755	correct	repeat	Run3	repeat/STIM_007.jpg
2518.951	0.553	correct	repeat	Run3	repeat/STIM_007.jpg
2523.332	0.752	correct	repeat	Run3	repeat/STIM_007.jpg
2527.819	0.897	correct	repeat	Run3	repeat/STIM_007.jpg
2532.148	0.837	correct	repeat	Run3	repeat/STIM_007.jpg
2535.77	0.6	correct	repeat	Run3	repeat/STIM_008.jpg
2539.932	0.662	correct	repeat	Run3	repeat/STIM_008.jpg
2542.86	0.9	correct	repeat	Run3	repeat/STIM_008.jpg
2546.189	0.564	correct	repeat	Run3	repeat/STIM_008.jpg
2549.809	0.883	correct	repeat	Run3	repeat/STIM_008.jpg
2552.707	0.855	correct	repeat	Run3	repeat/STIM_009.jpg
2557.022	0.64	correct	repeat	Run3	repeat/STIM_009.jpg
2560.19	0.724	correct	repeat	Run3	repeat/STIM_009.jpg
2564.64	0.617	correct	repeat	Run3	repeat/STIM_009.jpg
2567.905	0.732	correct	repeat	Run3	repeat/STIM_009.jpg
2571.506	0.717	correct	repeat	Run3	repeat/STIM_010.jpg
2574.745	0.888	correct	repeat	Run3	repeat/STIM_010.jpg
2578.863	0.618	correct	repeat	Run3	repeat/STIM_010.jpg
2582.821	0.689	correct	repeat	Run3	repeat/STIM_010.jpg
2586.209	0.576	correct	repeat	Run3	repeat/STIM_010.jpg
2589.222	0.556	correct	repeat	Run3	repeat/STIM_011.jpg
2592.996	0.76	correct	repeat	Run3	repeat/STIM_011.jpg
2596.15	0.915	incorrect	repeat	Run3	repeat/STIM_011.jpg
2599.187	0.585	correct	repeat	Run3	repeat/STIM_011.jpg
2603.02	1.071	correct	repeat	Run3	repeat/STIM_011.jpg
2607.12	0.958	correct	repeat	Run3	repeat/STIM_012.jpg
2611.961	0.728	correct	repeat	Run3	repeat/STIM_012.jpg
2616.073	1.012	correct	repeat	Run3	repeat/STIM_012.jpg
2620.953	0.864	correct	repeat	Run3	repeat/STIM_012.jpg
2625.568	0.941	correct	repeat	Run3	repeat/STIM_012.jpg
2630.455	0.852	correct	repeat	Run3	repeat/STIM_013.jpg
2634.618	1.043	correct	repeat	Run3	repeat/STIM_013.jpg
2639.585	0.57	correct	repeat	Run3	repeat/STIM_013.jpg
2643.058	0.546	correct	repeat	Run3	repeat/STIM_013.jpg
2647.597	0.733	correct	repeat	Run3	repeat/STIM_013.jpg
2651.548	0.919	correct	repeat	Run3	repeat/STIM_014.jpg
2656.027	1.039	correct	repeat	Run3	repeat/STIM_014.jpg
2659.788	0.792	correct	repeat	Run3	repeat/STIM_014.jpg
2664.394	0.783	correct	repeat	Run3	repeat/STIM_014.jpg
2667.628	0.732	correct	repeat	Run3	repeat/STIM_014.jpg
2671.808	0.946	correct	generate	Run4	generate/STIM_000.jpg
2674.791	1.972	correct	generate	Run4	generate/STIM_000.jpg
2678.815	1.07	correct	generate	Run4	generate/STIM_000.jpg
2683.687	0.956	correct	generate	Run4	generate/STIM_000.jpg
2687.379	2.268	correct	generate	Run4	generate/STIM_000.jpg
2693.58	1.984	correct	generate	Run4	generate/STIM_001.jpg
2699.528	1.507	correct	generate	Run4	generate/STIM_001.jpg
2703.051	1.471	correct	generate	Run4	generate/STIM_001.jpg
2706.692	2.21	correct	generate	Run4	generate/STIM_001.jpg
2711.819	2.273	correct	generate	Run4	generate/STIM_001.jpg
2716.284	1.127	correct	generate	Run4	generate/STIM_002.jpg
2719.762	1.123	correct	generate	Run4	generate/STIM_002.jpg
2724.67	1.313	correct	generate	Run4	generate/STIM_002.jpg
2728.783	2.023	correct	generate	Run4	generate/STIM_002.jpg
2733.002	1.974	correct	generate	Run4	generate/STIM_002.jpg
2737.25	2.158	correct	generate	Run4	generate/STIM_003.jpg
2741.722	1.538	correct	generate	Run4	generate/STIM_003.jpg
2746.103	2.245	correct	generate	Run4	generate/STIM_003.jpg
2751.897	1.446	correct	generate	Run4	generate/STIM_003.jpg
2755.497	2.134	correct	generate	Run4	generate/STIM_003.jpg
2760.62	2.11	correct	generate	Run4	generate/STIM_004.jpg
2765.153	1.81	incorrect	generate	Run4	generate/STIM_004.jpg
2770.899	2.099	correct	generate	Run4	generate/STIM_004.jpg
2776.686	1.427	correct	generate	Run4	generate/STIM_004.jpg
2780.256	1.194	correct	generate	Run4	generate/STIM_004.jpg
2783.654	0.944	correct	generate	Run4	generate/STIM_005.jpg
2786.785	1.612	correct	generate	Run4	generate/STIM_005.jpg
2790.498	0.989	correct	generate	Run4	generate/STIM_005.jpg
2794.629	1.479	correct	generate	Run4	generate/STIM_005.jpg
2799.218	2.082	correct	generate	Run4	generate/STIM_005.jpg
2803.947	1.38	correct	generate	Run4	generate/STIM_006.jpg
2808.873	1.133	correct	generate	Run4	generate/STIM_006.jpg
2813.267	1.083	correct	generate	Run4	generate/STIM_006.jpg
2816.946	1.44	correct	generate	Run4	generate/STIM_006.jpg
2822.15	1.034	correct	generate	Run4	generate/STIM_006.jpg
2826.353	1.484	correct	generate	Run4	generate/STIM_007.jpg
2830.725	1.192	correct	generate	Run4	generate/STIM_007.jpg
2835.126	1.8	incorrect	generate	Run4	generate/STIM_007.jpg
2839.951	1.82	correct	generate	Run4	generate/STIM_007.jpg
2845.258	1.48	correct	generate	Run4	generate/STIM_007.jpg
2849.017	1.519	correct	generate	Run4	generate/STIM_008.jpg
2852.556	1.965	correct	generate	Run4	generate/STIM_008.jpg
2858.067	1.078	correct	generate	Run4	generate/STIM_008.jpg
2862.583	1.895	correct	generate	Run4	generate/STIM_008.jpg
2867.189	1.3	correct	generate	Run4	generate/STIM_008.jpg
2870.909	1.14	correct	generate	Run4	generate/STIM_009.jpg
2875.318	2.087	correct	generate	Run4	generate/STIM_009.jpg
2879.535	1.398	correct	generate	Run4	generate/STIM_009.jpg
2883.191	1.222	correct	generate	Run4	generate/STIM_009.jpg
2887.996	0.932	correct	generate	Run4	generate/STIM_009.jpg
2891.263	1.469	correct	generate	Run4	generate/STIM_010.jpg
2894.967	2.027	correct	generate	Run4	generate/STIM_010.jpg
2900.498	2.229	correct	generate	Run4	generate/STIM_010.jpg
2906.333	1.546	correct	generate	Run4	generate/STIM_010.jpg
2910.938	1.722	correct	generate	Run4	generate/STIM_010.jpg
2916.306	1.799	correct	generate	Run4	generate/STIM_011.jpg
2921.889	1.253	correct	generate	Run4	generate/STIM_011.jpg
2927.132	2.051	correct	generate	Run4	generate/STIM_011.jpg
2932.27	2.215	correct	generate	Run4	generate/STIM_011.jpg
2937.6	1.188	correct	generate	Run4	generate/STIM_011.jpg
2941.556	1.571	correct	generate	Run4	generate/STIM_012.jpg
2945.174	1.904	correct	generate	Run4	generate/STIM_012.jpg
2950.343	1.563	correct	generate	Run4	generate/STIM_012.jpg
2953.964	2.256	correct	generate	Run4	generate/STIM_012.jpg
2959.338	1.527	correct	generate	Run4	generate/STIM_012.jpg
2962.944	1.362	correct	generate	Run4	generate/STIM_013.jpg
2967.784	1.748	correct	generate	Run4	generate/STIM_013.jpg
2971.936	1.076	correct	generate	Run4	generate/STIM_013.jpg
2975.126	1.655	incorrect	generate	Run4	generate/STIM_013.jpg
2979.939	1.532	correct	generate	Run4	generate/STIM_013.jpg
2983.862	1.966	correct	generate	Run4	generate/STIM_014.jpg
2988.458	1.811	correct	generate	Run4	generate/STIM_014.jpg
2993.947	1.32	correct	generate	Run4	generate/STIM_014.jpg
2998.555	2.193	correct	generate	Run4	generate/STIM_014.jpg
3003.993	1.71	correct	generate	Run4	generate/STIM_014.jpg
3007.768	1.322	correct	generate	Run4	generate/STIM_015.jpg
3011.321	1.601	incorrect	generate	Run4	generate/STIM_015.jpg
3015.765	1.548	correct	generate	Run4	generate/STIM_015.jpg
3019.882	0.95	correct	generate	Run4	generate/STIM_015.jpg
3023.518	1.711	correct	generate	Run4	generate/STIM_015.jpg
3028.353	1.862	correct	generate	Run4	generate/STIM_016.jpg
3033.483	2.138	correct	generate	Run4	generate/STIM_016.jpg
3037.754	1.168	correct	generate	Run4	generate/STIM_016.jpg
3041.685	1.807	correct	generate	Run4	generate/STIM_016.jpg
3046.657	0.981	correct	generate	Run4	generate/STIM_016.jpg
3050.371	2.032	incorrect	generate	Run4	generate/STIM_017.jpg
3055.864	2.124	correct	generate	Run4	generate/STIM_017.jpg
3061.34	1.453	correct	generate	Run4	generate/STIM_017.jpg
3065.773	2.22	incorrect	generate	Run4	generate/STIM_017.jpg
3070.174	1.581	correct	generate	Run4	generate/STIM_017.jpg
3075.126	1.646	correct	generate	Run4	generate/STIM_018.jpg
3079.492	1.257	correct	generate	Run4	generate/STIM_018.jpg
3084.128	1.054	correct	generate	Run4	generate/STIM_018.jpg
3089.107	2.021	correct	generate	Run4	generate/STIM_018.jpg
3095.079	1.656	correct	generate	Run4	generate/STIM_018.jpg
3100.133	1.969	correct	generate	Run4	generate/STIM_019.jpg
3105.688	1.285	correct	generate	Run4	generate/STIM_019.jpg
3110.579	1.848	correct	generate	Run4	generate/STIM_019.jpg
3116.158	1.495	correct	generate	Run4	generate/STIM_019.jpg
3120.699	1.856	correct	generate	Run4	generate/STIM_019.jpg
3125.574	1.066	correct	generate	Run4	generate/STIM_020.jpg
3130.336	0.911	correct	generate	Run4	generate/STIM_020.jpg
3134.843	2.111	correct	generate	Run4	generate/STIM_020.jpg
3140.469	1.002	correct	generate	Run4	generate/STIM_020.jpg
3144.156	1.604	correct	generate	Run4	generate/STIM_020.jpg
3149.728	1.402	correct	generate	Run4	generate/STIM_021.jpg
3154.599	1.538	correct	generate	Run4	generate/STIM_021.jpg
3158.896	2.26	correct	generate	Run4	generate/STIM_021.jpg
3164.473	1.126	correct	generate	Run4	generate/STIM_021.jpg
3168.865	1.105	correct	generate	Run4	generate/STIM_021.jpg
3172.587	1.546	correct	generate	Run4	generate/STIM_022.jpg
3176.918	0.982	correct	generate	Run4	generate/STIM_022.jpg
3180.755	2.013	correct	generate	Run4	generate/STIM_022.jpg
3185.197	1.095	correct	generate	Run4	generate/STIM_022.jpg
3189.084	0.986	correct	generate	Run4	generate/STIM_022.jpg
3192.744	2.143	correct	generate	Run4	generate/STIM_023.jpg
3198.625	1.217	correct	generate	Run4	generate/STIM_023.jpg
3203.537	2.035	correct	generate	Run4	generate/STIM_023.jpg
3208.591	1.26	correct	generate	Run4	generate/STIM_023.jpg
3211.974	1.393	incorrect	generate	Run4	generate/STIM_023.jpg
3215.677	2.228	correct	generate	Run4	generate/STIM_024.jpg
3221.037	1.789	correct	generate	Run4	generate/STIM_024.jpg
3226.085	2.201	correct	generate	Run4	generate/STIM_024.jpg
3230.929	1.284	correct	generate	Run4	generate/STIM_024.jpg
3234.767	2.107	correct	generate	Run4	generate/STIM_024.jpg
3239.676	0.665	correct	repeat	Run4	repeat/STIM_000.jpg
3242.807	0.981	correct	repeat	Run4	repeat/STIM_000.jpg
3247.174	0.89	correct	repeat	Run4	repeat/STIM_000.jpg
3250.445	0.732	correct	repeat	Run4	repeat/STIM_000.jpg
3254.528	0.754	correct	repeat	Run4	repeat/STIM_000.jpg
3257.918	0.8	correct	repeat	Run4	repeat/STIM_001.jpg
3260.725	0.624	correct	repeat	Run4	repeat/STIM_001.jpg
3263.654	0.79	correct	repeat	Run4	repeat/STIM_001.jpg
3268.073	0.568	correct	repeat	Run4	repeat/STIM_001.jpg
3272.544	0.664	correct	repeat	Run4	repeat/STIM_001.jpg
3276.237	1.005	correct	repeat	Run4	repeat/STIM_002.jpg
3280.677	0.664	correct	repeat	Run4	repeat/STIM_002.jpg
3284.705	0.622	correct	repeat	Run4	repeat/STIM_002.jpg
3287.99	1.023	correct	repeat	Run4	repeat/STIM_002.jpg
3292.582	1.001	correct	repeat	Run4	repeat/STIM_002.jpg
3296.434	1.048	correct	repeat	Run4	repeat/STIM_003.jpg
3299.968	0.664	correct	repeat	Run4	repeat/STIM_003.jpg
3304.575	0.806	correct	repeat	Run4	repeat/STIM_003.jpg
3307.71	0.729	correct	repeat	Run4	repeat/STIM_003.jpg
3310.632	0.553	correct	repeat	Run4	repeat/STIM_003.jpg
3313.85	0.823	correct	repeat	Run4	repeat/STIM_004.jpg
3317.946	0.925	correct	repeat	Run4	repeat/STIM_004.jpg
3321.332	0.786	correct	repeat	Run4	repeat/STIM_004.jpg
3324.537	0.621	correct	repeat	Run4	repeat/STIM_004.jpg
3329.108	0.794	correct	repeat	Run4	repeat/STIM_004.jpg
3332.886	0.836	correct	repeat	Run4	repeat/STIM_005.jpg
3337.458	1.054	correct	repeat	Run4	repeat/STIM_005.jpg
3341.03	0.85	correct	repeat	Run4	repeat/STIM_005.jpg
3345.473	0.99	correct	repeat	Run4	repeat/STIM_005.jpg
3348.67	1.002	correct	repeat	Run4	repeat/STIM_005.jpg
3352.164	0.606	correct	repeat	Run4	repeat/STIM_006.jpg
3355.616	0.603	correct	repeat	Run4	repeat/STIM_006.jpg
3359.394	0.637	correct	repeat	Run4	repeat/STIM_006.jpg
3363.025	1.015	correct	repeat	Run4	repeat/STIM_006.jpg
3368.011	0.852	correct	repeat	Run4	repeat/STIM_006.jpg
3372.822	0.822	correct	repeat	Run4	repeat/STIM_007.jpg
3377.179	0.998	correct	repeat	Run4	repeat/STIM_007.jpg
3380.539	0.584	correct	repeat	Run4	repeat/STIM_007.jpg
3383.822	0.813	correct	repeat	Run4	repeat/STIM_007.jpg
3387.658	0.695	correct	repeat	Run4	repeat/STIM_007.jpg
3392.299	0.969	correct	repeat	Run4	repeat/STIM_008.jpg
3395.596	0.563	correct	repeat	Run4	repeat/STIM_008.jpg
3399.847	0.544	correct	repeat	Run4	repeat/STIM_008.jpg
3403.321	0.89	correct	repeat	Run4	repeat/STIM_008.jpg
3407.882	0.918	correct	repeat	Run4	repeat/STIM_008.jpg
3412.664	1.074	correct	repeat	Run4	repeat/STIM_009.jpg
3416.216	0.555	correct	repeat	Run4	repeat/STIM_009.jpg
3419.244	0.668	correct	repeat	Run4	repeat/STIM_009.jpg
3423.486	0.696	correct	repeat	Run4	repeat/STIM_009.jpg
3426.846	0.578	correct	repeat	Run4	repeat/STIM_009.jpg
3429.46	1.01	correct	repeat	Run4	repeat/STIM_010.jpg
3433.423	0.581	correct	repeat	Run4	repeat/STIM_010.jpg
3436.597	0.877	correct	repeat	Run4	repeat/STIM_010.jpg
3440.902	0.604	correct	repeat	Run4	repeat/STIM_010.jpg
3445.227	0.762	correct	repeat	Run4	repeat/STIM_010.jpg
3448.684	0.785	correct	repeat	Run4	repeat/STIM_011.jpg
3452.457	0.586	correct	repeat	Run4	repeat/STIM_011.jpg
3455.498	0.62	correct	repeat	Run4	repeat/STIM_011.jpg
3459.197	0.831	correct	repeat	Run4	repeat/STIM_011.jpg
3463.001	0.809	correct	repeat	Run4	repeat/STIM_011.jpg
3467.608	0.729	correct	repeat	Run4	repeat/STIM_012.jpg
3471.533	0.838	correct	repeat	Run4	repeat/STIM_012.jpg
3474.453	0.943	correct	repeat	Run4	repeat/STIM_012.jpg
3479.281	0.622	correct	repeat	Run4	repeat/STIM_012.jpg
3483.239	0.87	correct	repeat	Run4	repeat/STIM_012.jpg
3487.235	0.91	correct	repeat	Run4	repeat/STIM_013.jpg
3491.483	0.917	correct	repeat	Run4	repeat/STIM_013.jpg
3496.365	0.891	correct	repeat	Run4	repeat/STIM_013.jpg
3501.208	0.786	correct	repeat	Run4	repeat/STIM_013.jpg
3504.069	0.616	correct	repeat	Run4	repeat/STIM_013.jpg
3508.674	0.759	correct	repeat	Run4	repeat/STIM_014.jpg
3512.656	1.024	correct	repeat	Run4	repeat/STIM_014.jpg
3515.966	0.591	incorrect	repeat	Run4	repeat/STIM_014.jpg
3519.114	0.813	correct	repeat	Run4	repeat/STIM_014.jpg
3523.655	0.662	correct	repeat	Run4	repeat/STIM_014.jpg
