onset	duration	accuracy	trial_type	learning_stage	stimulus
0.0	1.545	correct	generate	Run1	generate/STIM_000.jpg
5.146	2.318	correct	generate	Run1	generate/STIM_000.jpg
9.925	2.619	correct	generate	Run1	generate/STIM_000.jpg
15.709	2.246	correct	generate	Run1	generate/STIM_000.jpg
20.678	1.357	incorrect	generate	Run1	generate/STIM_000.jpg
24.876	2.351	incorrect	generate	Run1	generate/STIM_001.jpg
30.892	1.702	correct	generate	Run1	generate/STIM_001.jpg
35.656	1.776	correct	generate	Run1	generate/STIM_001.jpg
39.581	1.861	correct	generate	Run1	generate/STIM_001.jpg
44.762	1.023	correct	generate	Run1	generate/STIM_001.jpg
49.214	1.552	incorrect	generate	Run1	generate/STIM_002.jpg
54.026	1.577	incorrect	generate	Run1	generate/STIM_002.jpg
58.285	2.074	correct	generate	Run1	generate/STIM_002.jpg
62.931	2.26	correct	generate	Run1	generate/STIM_002.jpg
69.196	1.255	correct	generate	Run1	generate/STIM_002.jpg
72.916	2.294	correct	generate	Run1	generate/STIM_003.jpg
78.519	1.818	correct	generate	Run1	generate/STIM_003.jpg
82.54	2.059	correct	generate	Run1	generate/STIM_003.jpg
87.386	2.093	correct	generate	Run1	generate/STIM_003.jpg
91.455	2.303	correct	generate	Run1	generate/STIM_003.jpg
97.283	2.767	correct	generate	Run1	generate/STIM_004.jpg
102.616	1.187	correct	generate	Run1	generate/STIM_004.jpg
107.115	1.584	correct	generate	Run1	generate/STIM_004.jpg
112.092	2.401	incorrect	generate	Run1	generate/STIM_004.jpg
117.923	1.376	correct	generate	Run1	generate/STIM_004.jpg
122.984	1.688	correct	generate	Run1	generate/STIM_005.jpg
127.394	2.351	correct	generate	Run1	generate/STIM_005.jpg
132.273	2.319	incorrect	generate	Run1	generate/STIM_005.jpg
137.522	1.821	correct	generate	Run1	generate/STIM_005.jpg
142.14	1.954	correct	generate	Run1	generate/STIM_005.jpg
146.416	2.602	incorrect	generate	Run1	generate/STIM_006.jpg
152.83	1.979	correct	generate	Run1	generate/STIM_006.jpg
157.53	2.156	correct	generate	Run1	generate/STIM_006.jpg
162.423	1.45	correct	generate	Run1	generate/STIM_006.jpg
167.735	1.375	incorrect	generate	Run1	generate/STIM_006.jpg
172.58	2.02	correct	generate	Run1	generate/STIM_007.jpg
177.388	1.384	correct	generate	Run1	generate/STIM_007.jpg
181.711	1.651	correct	generate	Run1	generate/STIM_007.jpg
185.995	1.378	correct	generate	Run1	generate/STIM_007.jpg
191.331	2.168	incorrect	generate	Run1	generate/STIM_007.jpg
197.441	2.901	incorrect	generate	Run1	generate/STIM_008.jpg
203.719	2.765	correct	generate	Run1	generate/STIM_008.jpg
208.861	1.756	incorrect	generate	Run1	generate/STIM_008.jpg
213.873	2.164	correct	generate	Run1	generate/STIM_008.jpg
218.616	1.625	correct	generate	Run1	generate/STIM_008.jpg
222.177	1.535	correct	generate	Run1	generate/STIM_009.jpg
227.032	1.662	correct	generate	Run1	generate/STIM_009.jpg
232.394	2.262	correct	generate	Run1	generate/STIM_009.jpg
237.41	1.386	incorrect	generate	Run1	generate/STIM_009.jpg
242.32	1.824	correct	generate	Run1	generate/STIM_009.jpg
246.829	2.975	correct	generate	Run1	generate/STIM_010.jpg
252.055	2.761	incorrect	generate	Run1	generate/STIM_010.jpg
257.075	2.409	correct	generate	Run1	generate/STIM_010.jpg
262.326	2.432	correct	generate	Run1	generate/STIM_010.jpg
268.531	2.171	incorrect	generate	Run1	generate/STIM_010.jpg
273.694	2.156	correct	generate	Run1	generate/STIM_011.jpg
279.821	2.634	correct	generate	Run1	generate/STIM_011.jpg
285.178	1.728	correct	generate	Run1	generate/STIM_011.jpg
290.139	1.716	incorrect	generate	Run1	generate/STIM_011.jpg
295.305	1.022	incorrect	generate	Run1	generate/STIM_011.jpg
299.552	2.047	correct	generate	Run1	generate/STIM_012.jpg
303.755	1.609	correct	generate	Run1	generate/STIM_012.jpg
307.513	2.716	correct	generate	Run1	generate/STIM_012.jpg
312.889	2.432	correct	generate	Run1	generate/STIM_012.jpg
318.951	1.887	correct	generate	Run1	generate/STIM_012.jpg
323.354	2.341	incorrect	generate	Run1	generate/STIM_013.jpg
327.918	2.463	correct	generate	Run1	generate/STIM_013.jpg
332.556	2.456	correct	generate	Run1	generate/STIM_013.jpg
337.055	2.311	incorrect	generate	Run1	generate/STIM_013.jpg
342.143	2.206	correct	generate	Run1	generate/STIM_013.jpg
346.806	2.651	correct	generate	Run1	generate/STIM_014.jpg
353.343	2.494	correct	generate	Run1	generate/STIM_014.jpg
359.272	2.522	correct	generate	Run1	generate/STIM_014.jpg
364.449	1.044	correct	generate	Run1	generate/STIM_014.jpg
369.208	1.392	correct	generate	Run1	generate/STIM_014.jpg
373.919	3.026	correct	generate	Run1	generate/STIM_015.jpg
378.937	2.324	correct	generate	Run1	generate/STIM_015.jpg
383.862	1.968	correct	generate	Run1	generate/STIM_015.jpg
388.436	2.566	incorrect	generate	Run1	generate/STIM_015.jpg
393.093	2.017	correct	generate	Run1	generate/STIM_015.jpg
398.093	1.551	correct	generate	Run1	generate/STIM_016.jpg
402.649	1.829	correct	generate	Run1	generate/STIM_016.jpg
407.436	1.881	correct	generate	Run1	generate/STIM_016.jpg
412.28	1.731	correct	generate	Run1	generate/STIM_016.jpg
416.2	2.217	correct	generate	Run1	generate/STIM_016.jpg
422.387	1.94	correct	generate	Run1	generate/STIM_017.jpg
426.756	2.822	correct	generate	Run1	generate/STIM_017.jpg
432.937	1.945	correct	generate	Run1	generate/STIM_017.jpg
438.642	1.195	incorrect	generate	Run1	generate/STIM_017.jpg
443.349	1.717	correct	generate	Run1	generate/STIM_017.jpg
448.43	1.683	correct	generate	Run1	generate/STIM_018.jpg
452.16	2.359	correct	generate	Run1	generate/STIM_018.jpg
457.249	2.287	correct	generate	Run1	generate/STIM_018.jpg
461.948	2.166	correct	generate	Run1	generate/STIM_018.jpg
467.98	1.046	incorrect	generate	Run1	generate/STIM_018.jpg
472.634	1.443	correct	generate	Run1	generate/STIM_019.jpg
477.59	2.746	correct	generate	Run1	generate/STIM_019.jpg
482.743	1.697	incorrect	generate	Run1	generate/STIM_019.jpg
487.284	2.34	incorrect	generate	Run1	generate/STIM_019.jpg
493.032	1.932	correct	generate	Run1	generate/STIM_019.jpg
497.801	1.753	correct	generate	Run1	generate/STIM_020.jpg
503.281	2.313	correct	generate	Run1	generate/STIM_020.jpg
508.255	1.603	correct	generate	Run1	generate/STIM_020.jpg
512.373	2.154	correct	generate	Run1	generate/STIM_020.jpg
516.704	1.139	correct	generate	Run1	generate/STIM_020.jpg
520.226	2.98	correct	generate	Run1	generate/STIM_021.jpg
526.331	1.281	correct	generate	Run1	generate/STIM_021.jpg
529.843	1.3	correct	generate	Run1	generate/STIM_021.jpg
533.334	1.445	correct	generate	Run1	generate/STIM_021.jpg
538.055	1.412	correct	generate	Run1	generate/STIM_021.jpg
542.44	2.69	correct	generate	Run1	generate/STIM_022.jpg
547.174	1.795	incorrect	generate	Run1	generate/STIM_022.jpg
551.673	2.211	correct	generate	Run1	generate/STIM_022.jpg
556.896	1.463	incorrect	generate	Run1	generate/STIM_022.jpg
562.065	1.692	correct	generate	Run1	generate/STIM_022.jpg
567.56	2.262	incorrect	generate	Run1	generate/STIM_023.jpg
572.406	1.646	correct	generate	Run1	generate/STIM_023.jpg
577.121	2.036	correct	generate	Run1	generate/STIM_023.jpg
582.85	1.619	correct	generate	Run1	generate/STIM_023.jpg
587.943	1.706	correct	generate	Run1	generate/STIM_023.jpg
593.225	1.74	correct	generate	Run1	generate/STIM_024.jpg
597.632	1.901	correct	generate	Run1	generate/STIM_024.jpg
603.436	1.692	correct	generate	Run1	generate/STIM_024.jpg
608.614	2.448	incorrect	generate	Run1	generate/STIM_024.jpg
613.383	1.168	correct	generate	Run1	generate/STIM_024.jpg
617.932	0.759	correct	repeat	Run1	repeat/STIM_000.jpg
620.796	0.596	incorrect	repeat	Run1	repeat/STIM_000.jpg
624.656	0.71	correct	repeat	Run1	repeat/STIM_000.jpg
628.919	0.681	correct	repeat	Run1	repeat/STIM_000.jpg
632.456	0.568	correct	repeat	Run1	repeat/STIM_000.jpg
636.465	0.472	correct	repeat	Run1	repeat/STIM_001.jpg
639.069	0.613	correct	repeat	Run1	repeat/STIM_001.jpg
641.892	0.913	correct	repeat	Run1	repeat/STIM_001.jpg
645.722	0.54	correct	repeat	Run1	repeat/STIM_001.jpg
649.403	0.515	correct	repeat	Run1	repeat/STIM_001.jpg
652.622	0.535	correct	repeat	Run1	repeat/STIM_002.jpg
655.825	0.626	correct	repeat	Run1	repeat/STIM_002.jpg
659.549	0.76	correct	repeat	Run1	repeat/STIM_002.jpg
662.522	0.692	correct	repeat	Run1	repeat/STIM_002.jpg
665.945	0.528	correct	repeat	Run1	repeat/STIM_002.jpg
670.273	0.89	correct	repeat	Run1	repeat/STIM_003.jpg
673.335	0.714	correct	repeat	Run1	repeat/STIM_003.jpg
677.16	0.726	correct	repeat	Run1	repeat/STIM_003.jpg
680.956	0.584	correct	repeat	Run1	repeat/STIM_003.jpg
683.544	0.573	correct	repeat	Run1	repeat/STIM_003.jpg
687.293	0.835	correct	repeat	Run1	repeat/STIM_004.jpg
690.507	0.694	correct	repeat	Run1	repeat/STIM_004.jpg
694.517	0.706	correct	repeat	Run1	repeat/STIM_004.jpg
697.945	0.504	correct	repeat	Run1	repeat/STIM_004.jpg
701.655	0.759	correct	repeat	Run1	repeat/STIM_004.jpg
705.66	0.711	correct	repeat	Run1	repeat/STIM_005.jpg
708.99	0.746	correct	repeat	Run1	repeat/STIM_005.jpg
712.397	0.904	correct	repeat	Run1	repeat/STIM_005.jpg
716.399	0.635	correct	repeat	Run1	repeat/STIM_005.jpg
720.544	0.841	correct	repeat	Run1	repeat/STIM_005.jpg
724.251	0.916	incorrect	repeat	Run1	repeat/STIM_006.jpg
727.553	0.57	correct	repeat	Run1	repeat/STIM_006.jpg
731.261	0.525	correct	repeat	Run1	repeat/STIM_006.jpg
734.954	1.063	correct	repeat	Run1	repeat/STIM_006.jpg
738.267	0.859	correct	repeat	Run1	repeat/STIM_006.jpg
743.081	1.025	correct	repeat	Run1	repeat/STIM_007.jpg
746.687	0.927	correct	repeat	Run1	repeat/STIM_007.jpg
750.557	0.555	correct	repeat	Run1	repeat/STIM_007.jpg
754.732	0.538	correct	repeat	Run1	repeat/STIM_007.jpg
758.867	0.552	correct	repeat	Run1	repeat/STIM_007.jpg
762.436	0.564	correct	repeat	Run1	repeat/STIM_008.jpg
765.93	0.798	correct	repeat	Run1	repeat/STIM_008.jpg
770.532	0.876	correct	repeat	Run1	repeat/STIM_008.jpg
775.335	0.686	correct	repeat	Run1	repeat/STIM_008.jpg
780.002	0.626	correct	repeat	Run1	repeat/STIM_008.jpg
783.551	0.877	correct	repeat	Run1	repeat/STIM_009.jpg
786.883	0.659	correct	repeat	Run1	repeat/STIM_009.jpg
790.707	0.544	correct	repeat	Run1	repeat/STIM_009.jpg
794.669	1.02	correct	repeat	Run1	repeat/STIM_009.jpg
798.506	0.997	correct	repeat	Run1	repeat/STIM_009.jpg
802.219	0.862	correct	repeat	Run1	repeat/STIM_010.jpg
805.547	0.577	incorrect	repeat	Run1	repeat/STIM_010.jpg
810.118	0.545	correct	repeat	Run1	repeat/STIM_010.jpg
813.366	1.002	incorrect	repeat	Run1	repeat/STIM_010.jpg
817.754	0.463	correct	repeat	Run1	repeat/STIM_010.jpg
822.175	0.667	correct	repeat	Run1	repeat/STIM_011.jpg
826.659	0.646	correct	repeat	Run1	repeat/STIM_011.jpg
829.479	0.906	correct	repeat	Run1	repeat/STIM_011.jpg
833.535	0.88	correct	repeat	Run1	repeat/STIM_011.jpg
837.554	0.704	correct	repeat	Run1	repeat/STIM_011.jpg
840.897	0.62	correct	repeat	Run1	repeat/STIM_012.jpg
844.78	0.786	correct	repeat	Run1	repeat/STIM_012.jpg
848.879	0.758	correct	repeat	Run1	repeat/STIM_012.jpg
852.909	0.955	correct	repeat	Run1	repeat/STIM_012.jpg
857.676	0.982	correct	repeat	Run1	repeat/STIM_012.jpg
861.462	0.75	correct	repeat	Run1	repeat/STIM_013.jpg
866.009	0.818	correct	repeat	Run1	repeat/STIM_013.jpg
869.251	0.745	correct	repeat	Run1	repeat/STIM_013.jpg
872.056	0.545	correct	repeat	Run1	repeat/STIM_013.jpg
875.559	0.956	incorrect	repeat	Run1	repeat/STIM_013.jpg
880.151	0.887	correct	repeat	Run1	repeat/STIM_014.jpg
884.099	0.607	correct	repeat	Run1	repeat/STIM_014.jpg
888.588	0.625	correct	repeat	Run1	repeat/STIM_014.jpg
891.906	0.894	correct	repeat	Run1	repeat/STIM_014.jpg
894.849	0.588	correct	repeat	Run1	repeat/STIM_014.jpg
899.391	1.964	correct	generate	Run2	generate/STIM_000.jpg
904.606	1.664	correct	generate	Run2	generate/STIM_000.jpg
909.596	1.13	correct	generate	Run2	generate/STIM_000.jpg
913.455	0.994	correct	generate	Run2	generate/STIM_000.jpg
918.058	1.414	correct	generate	Run2	generate/STIM_000.jpg
922.511	1.36	correct	generate	Run2	generate/STIM_001.jpg
925.992	1.959	incorrect	generate	Run2	generate/STIM_001.jpg
930.995	1.759	incorrect	generate	Run2	generate/STIM_001.jpg
936.762	0.945	correct	generate	Run2	generate/STIM_001.jpg
939.993	0.983	correct	generate	Run2	generate/STIM_001.jpg
943.046	2.342	correct	generate	Run2	generate/STIM_002.jpg
949.118	1.801	correct	generate	Run2	generate/STIM_002.jpg
954.461	2.061	correct	generate	Run2	generate/STIM_002.jpg
959.909	2.027	correct	generate	Run2	generate/STIM_002.jpg
965.717	1.346	correct	generate	Run2	generate/STIM_002.jpg
970.31	1.252	correct	generate	Run2	generate/STIM_003.jpg
974.455	1.282	correct	generate	Run2	generate/STIM_003.jpg
979.29	1.817	correct	generate	Run2	generate/STIM_003.jpg
984.25	1.348	correct	generate	Run2	generate/STIM_003.jpg
989.294	0.962	incorrect	generate	Run2	generate/STIM_003.jpg
992.805	1.495	correct	generate	Run2	generate/STIM_004.jpg
997.46	1.299	correct	generate	Run2	generate/STIM_004.jpg
1000.977	1.472	correct	generate	Run2	generate/STIM_004.jpg
1004.938	1.95	incorrect	generate	Run2	generate/STIM_004.jpg
1009.165	1.617	correct	generate	Run2	generate/STIM_004.jpg
1013.177	1.535	incorrect	generate	Run2	generate/STIM_005.jpg
1017.832	2.004	correct	generate	Run2	generate/STIM_005.jpg
1022.966	1.03	correct	generate	Run2	generate/STIM_005.jpg
1026.344	0.82	correct	generate	Run2	generate/STIM_005.jpg
1030.986	1.317	correct	generate	Run2	generate/STIM_005.jpg
1034.91	1.786	correct	generate	Run2	generate/STIM_006.jpg
1039.606	1.045	incorrect	generate	Run2	generate/STIM_006.jpg
1042.782	2.17	correct	generate	Run2	generate/STIM_006.jpg
1048.796	1.091	correct	generate	Run2	generate/STIM_006.jpg
1052.643	1.502	correct	generate	Run2	generate/STIM_006.jpg
1056.948	2.562	incorrect	generate	Run2	generate/STIM_007.jpg
1061.741	2.163	correct	generate	Run2	generate/STIM_007.jpg
1067.407	1.959	incorrect	generate	Run2	generate/STIM_007.jpg
1071.945	1.208	correct	generate	Run2	generate/STIM_007.jpg
1076.421	1.61	correct	generate	Run2	generate/STIM_007.jpg
1080.829	1.935	correct	generate	Run2	generate/STIM_008.jpg
1085.607	1.402	correct	generate	Run2	generate/STIM_008.jpg
1090.651	0.972	correct	generate	Run2	generate/STIM_008.jpg
1093.929	1.487	correct	generate	Run2	generate/STIM_008.jpg
1098.883	0.998	correct	generate	Run2	generate/STIM_008.jpg
1102.663	1.292	correct	generate	Run2	generate/STIM_009.jpg
1106.88	1.625	correct	generate	Run2	generate/STIM_009.jpg
1111.61	1.762	correct	generate	Run2	generate/STIM_009.jpg
1117.353	0.994	correct	generate	Run2	generate/STIM_009.jpg
1120.925	1.159	correct	generate	Run2	generate/STIM_009.jpg
1124.491	2.09	correct	generate	Run2	generate/STIM_010.jpg
1128.772	2.223	incorrect	generate	Run2	generate/STIM_010.jpg
1134.914	1.261	correct	generate	Run2	generate/STIM_010.jpg
1138.372	1.954	correct	generate	Run2	generate/STIM_010.jpg
1143.281	1.924	correct	generate	Run2	generate/STIM_010.jpg
1147.995	1.561	correct	generate	Run2	generate/STIM_011.jpg
1152.907	1.898	correct	generate	Run2	generate/STIM_011.jpg
1157.738	1.364	correct	generate	Run2	generate/STIM_011.jpg
1161.369	1.053	correct	generate	Run2	generate/STIM_011.jpg
1164.732	1.663	correct	generate	Run2	generate/STIM_011.jpg
1169.551	2.208	correct	generate	Run2	generate/STIM_012.jpg
1174.015	2.224	incorrect	generate	Run2	generate/STIM_012.jpg
1179.319	0.902	correct	generate	Run2	generate/STIM_012.jpg
1183.171	0.822	incorrect	generate	Run2	generate/STIM_012.jpg
1186.948	1.954	correct	generate	Run2	generate/STIM_012.jpg
1192.318	2.474	correct	generate	Run2	generate/STIM_013.jpg
1198.236	1.287	correct	generate	Run2	generate/STIM_013.jpg
1202.446	0.979	correct	generate	Run2	generate/STIM_013.jpg
1207.149	1.362	correct	generate	Run2	generate/STIM_013.jpg
1212.252	2.038	correct	generate	Run2	generate/STIM_013.jpg
1217.729	1.166	incorrect	generate	Run2	generate/STIM_014.jpg
1222.46	1.459	correct	generate	Run2	generate/STIM_014.jpg
1227.36	0.934	correct	generate	Run2	generate/STIM_014.jpg
1231.55	1.639	incorrect	generate	Run2	generate/STIM_014.jpg
1235.569	2.035	correct	generate	Run2	generate/STIM_014.jpg
1241.493	1.81	correct	generate	Run2	generate/STIM_015.jpg
1246.95	2.202	correct	generate	Run2	generate/STIM_015.jpg
1251.719	1.925	correct	generate	Run2	generate/STIM_015.jpg
1257.364	0.951	incorrect	generate	Run2	generate/STIM_015.jpg
1261.333	1.093	incorrect	generate	Run2	generate/STIM_015.jpg
1265.914	1.328	correct	generate	Run2	generate/STIM_016.jpg
1270.017	1.204	correct	generate	Run2	generate/STIM_016.jpg
1274.2	1.985	incorrect	generate	Run2	generate/STIM_016.jpg
1279.186	1.535	correct	generate	Run2	generate/STIM_016.jpg
1284.34	1.761	correct	generate	Run2	generate/STIM_016.jpg
1289.674	2.214	incorrect	generate	Run2	generate/STIM_017.jpg
1294.48	1.528	correct	generate	Run2	generate/STIM_017.jpg
1298.991	1.272	correct	generate	Run2	generate/STIM_017.jpg
1303.357	1.513	correct	generate	Run2	generate/STIM_017.jpg
1308.706	0.794	correct	generate	Run2	generate/STIM_017.jpg
1311.833	2.285	incorrect	generate	Run2	generate/STIM_018.jpg
1316.773	1.816	correct	generate	Run2	generate/STIM_018.jpg
1322.406	1.148	correct	generate	Run2	generate/STIM_018.jpg
1325.712	1.503	correct	generate	Run2	generate/STIM_018.jpg
1329.971	1.511	correct	generate	Run2	generate/STIM_018.jpg
1334.946	1.52	incorrect	generate	Run2	generate/STIM_019.jpg
1338.55	1.474	correct	generate	Run2	generate/STIM_019.jpg
1343.692	1.076	correct	generate	Run2	generate/STIM_019.jpg
1348.358	1.72	correct	generate	Run2	generate/STIM_019.jpg
1353.414	1.371	correct	generate	Run2	generate/STIM_019.jpg
1358.429	1.37	correct	generate	Run2	generate/STIM_020.jpg
1363.492	1.264	correct	generate	Run2	generate/STIM_020.jpg
1368.57	1.793	correct	generate	Run2	generate/STIM_020.jpg
1373.086	1.235	correct	generate	Run2	generate/STIM_020.jpg
1377.645	1.487	correct	generate	Run2	generate/STIM_020.jpg
1382.771	2.21	correct	generate	Run2	generate/STIM_021.jpg
1388.654	2.377	correct	generate	Run2	generate/STIM_021.jpg
1393.86	2.036	correct	generate	Run2	generate/STIM_021.jpg
1398.777	1.105	correct	generate	Run2	generate/STIM_021.jpg
1402.618	1.198	incorrect	generate	Run2	generate/STIM_021.jpg
1407.827	1.56	incorrect	generate	Run2	generate/STIM_022.jpg
1411.546	2.036	correct	generate	Run2	generate/STIM_022.jpg
1417.268	1.404	correct	generate	Run2	generate/STIM_022.jpg
1422.352	1.965	incorrect	generate	Run2	generate/STIM_022.jpg
1426.827	1.308	correct	generate	Run2	generate/STIM_022.jpg
1430.253	2.026	correct	generate	Run2	generate/STIM_023.jpg
1435.903	1.275	correct	generate	Run2	generate/STIM_023.jpg
1440.541	1.42	correct	generate	Run2	generate/STIM_023.jpg
1445.945	1.499	correct	generate	Run2	generate/STIM_023.jpg
1451.385	2.02	correct	generate	Run2	generate/STIM_023.jpg
1457.078	2.069	correct	generate	Run2	generate/STIM_024.jpg
1462.822	2.057	incorrect	generate	Run2	generate/STIM_024.jpg
1467.013	1.575	correct	generate	Run2	generate/STIM_024.jpg
1472.154	1.76	correct	generate	Run2	generate/STIM_024.jpg
1477.67	1.956	correct	generate	Run2	generate/STIM_024.jpg
1482.355	0.851	correct	repeat	Run2	repeat/STIM_000.jpg
1486.228	0.832	correct	repeat	Run2	repeat/STIM_000.jpg
1490.202	0.864	correct	repeat	Run2	repeat/STIM_000.jpg
1493.744	0.782	correct	repeat	Run2	repeat/STIM_000.jpg
1497.756	0.557	correct	repeat	Run2	repeat/STIM_000.jpg
1500.404	0.563	correct	repeat	Run2	repeat/STIM_001.jpg
1503.128	0.57	incorrect	repeat	Run2	repeat/STIM_001.jpg
1507.484	0.981	correct	repeat	Run2	repeat/STIM_001.jpg
1511.113	0.953	correct	repeat	Run2	repeat/STIM_001.jpg
1514.545	0.922	correct	repeat	Run2	repeat/STIM_001.jpg
1518.777	0.537	correct	repeat	Run2	repeat/STIM_002.jpg
1522.882	0.676	correct	repeat	Run2	repeat/STIM_002.jpg
1527.296	0.799	correct	repeat	Run2	repeat/STIM_002.jpg
1530.797	0.878	correct	repeat	Run2	repeat/STIM_002.jpg
1533.733	1.034	correct	repeat	Run2	repeat/STIM_002.jpg
1537.709	0.475	correct	repeat	Run2	repeat/STIM_003.jpg
1540.382	0.668	correct	repeat	Run2	repeat/STIM_003.jpg
1543.989	0.601	correct	repeat	Run2	repeat/STIM_003.jpg
1547.916	0.969	correct	repeat	Run2	repeat/STIM_003.jpg
1552.55	0.487	correct	repeat	Run2	repeat/STIM_003.jpg
1556.635	0.577	correct	repeat	Run2	repeat/STIM_004.jpg
1560.474	0.603	incorrect	repeat	Run2	repeat/STIM_004.jpg
1564.595	0.589	incorrect	repeat	Run2	repeat/STIM_004.jpg
1568.099	0.864	correct	repeat	Run2	repeat/STIM_004.jpg
1571.613	0.737	correct	repeat	Run2	repeat/STIM_004.jpg
1575.285	0.855	correct	repeat	Run2	repeat/STIM_005.jpg
1578.679	0.522	correct	repeat	Run2	repeat/STIM_005.jpg
1582.886	0.875	correct	repeat	Run2	repeat/STIM_005.jpg
1585.958	0.714	correct	repeat	Run2	repeat/STIM_005.jpg
1589.038	0.875	correct	repeat	Run2	repeat/STIM_005.jpg
1592.535	0.651	correct	repeat	Run2	repeat/STIM_006.jpg
1595.151	0.999	correct	repeat	Run2	repeat/STIM_006.jpg
1598.98	0.547	correct	repeat	Run2	repeat/STIM_006.jpg
1602.665	0.63	correct	repeat	Run2	repeat/STIM_006.jpg
1606.011	0.899	correct	repeat	Run2	repeat/STIM_006.jpg
1610.772	0.816	incorrect	repeat	Run2	repeat/STIM_007.jpg
1614.846	0.928	correct	repeat	Run2	repeat/STIM_007.jpg
1619.308	0.675	correct	repeat	Run2	repeat/STIM_007.jpg
1622.495	1.095	correct	repeat	Run2	repeat/STIM_007.jpg
1626.696	0.552	correct	repeat	Run2	repeat/STIM_007.jpg
1629.336	0.585	correct	repeat	Run2	repeat/STIM_008.jpg
1633.048	0.618	correct	repeat	Run2	repeat/STIM_008.jpg
1636.672	0.96	correct	repeat	Run2	repeat/STIM_008.jpg
1640.322	0.868	correct	repeat	Run2	repeat/STIM_008.jpg
1644.222	0.62	correct	repeat	Run2	repeat/STIM_008.jpg
1648.213	0.69	correct	repeat	Run2	repeat/STIM_009.jpg
1651.95	0.563	correct	repeat	Run2	repeat/STIM_009.jpg
1655.058	0.554	correct	repeat	Run2	repeat/STIM_009.jpg
1658.107	0.598	correct	repeat	Run2	repeat/STIM_009.jpg
1662.19	0.559	correct	repeat	Run2	repeat/STIM_009.jpg
1666.634	0.688	correct	repeat	Run2	repeat/STIM_010.jpg
1670.865	0.604	correct	repeat	Run2	repeat/STIM_010.jpg
1674.302	0.928	correct	repeat	Run2	repeat/STIM_010.jpg
1677.586	0.683	correct	repeat	Run2	repeat/STIM_010.jpg
1680.721	0.74	correct	repeat	Run2	repeat/STIM_010.jpg
1685.2	0.682	correct	repeat	Run2	repeat/STIM_011.jpg
1688.97	0.825	correct	repeat	Run2	repeat/STIM_011.jpg
1693.624	0.619	correct	repeat	Run2	repeat/STIM_011.jpg
1698.166	0.544	correct	repeat	Run2	repeat/STIM_011.jpg
1701.763	0.86	correct	repeat	Run2	repeat/STIM_011.jpg
1705.071	0.69	correct	repeat	Run2	repeat/STIM_012.jpg
1709.159	0.518	correct	repeat	Run2	repeat/STIM_012.jpg
1712.131	0.584	correct	repeat	Run2	repeat/STIM_012.jpg
1716.452	0.706	correct	repeat	Run2	repeat/STIM_012.jpg
1719.808	0.802	correct	repeat	Run2	repeat/STIM_012.jpg
1722.999	0.694	incorrect	repeat	Run2	repeat/STIM_013.jpg
1727.339	0.705	correct	repeat	Run2	repeat/STIM_013.jpg
1730.901	0.574	correct	repeat	Run2	repeat/STIM_013.jpg
1733.603	1.016	correct	repeat	Run2	repeat/STIM_013.jpg
1738.569	0.627	correct	repeat	Run2	repeat/STIM_013.jpg
1743.1	0.601	correct	repeat	Run2	repeat/STIM_014.jpg
1746.008	0.768	correct	repeat	Run2	repeat/STIM_014.jpg
1750.762	0.814	correct	repeat	Run2	repeat/STIM_014.jpg
1755.391	0.943	correct	repeat	Run2	repeat/STIM_014.jpg
1758.406	0.88	correct	repeat	Run2	repeat/STIM_014.jpg
1761.584	1.568	correct	generate	Run3	generate/STIM_000.jpg
1765.745	1.501	correct	generate	Run3	generate/STIM_000.jpg
1770.036	0.992	correct	generate	Run3	generate/STIM_000.jpg
1774.098	1.794	correct	generate	Run3	generate/STIM_000.jpg
1779.475	1.322	correct	generate	Run3	generate/STIM_000.jpg
1784.58	1.29	correct	generate	Run3	generate/STIM_001.jpg
1789.62	1.825	correct	generate	Run3	generate/STIM_001.jpg
1793.909	1.711	correct	generate	Run3	generate/STIM_001.jpg
1798.729	1.604	correct	generate	Run3	generate/STIM_001.jpg
1802.415	0.87	incorrect	generate	Run3	generate/STIM_001.jpg
1806.843	1.542	correct	generate	Run3	generate/STIM_002.jpg
1811.094	1.197	correct	generate	Run3	generate/STIM_002.jpg
1815.039	1.216	correct	generate	Run3	generate/STIM_002.jpg
1819.42	1.354	correct	generate	Run3	generate/STIM_002.jpg
1824.582	1.109	correct	generate	Run3	generate/STIM_002.jpg
1828.776	1.988	incorrect	generate	Run3	generate/STIM_003.jpg
1833.199	1.282	correct	generate	Run3	generate/STIM_003.jpg
1837.331	2.092	correct	generate	Run3	generate/STIM_003.jpg
1842.195	1.837	correct	generate	Run3	generate/STIM_003.jpg
1846.358	1.241	correct	generate	Run3	generate/STIM_003.jpg
1850.35	1.13	correct	generate	Run3	generate/STIM_004.jpg
1853.953	2.078	correct	generate	Run3	generate/STIM_004.jpg
1858.752	1.339	correct	generate	Run3	generate/STIM_004.jpg
1862.287	0.926	correct	generate	Run3	generate/STIM_004.jpg
1867.069	1.228	correct	generate	Run3	generate/STIM_004.jpg
1871.646	1.595	correct	generate	Run3	generate/STIM_005.jpg
1875.801	1.239	correct	generate	Run3	generate/STIM_005.jpg
1879.355	1.027	correct	generate	Run3	generate/STIM_005.jpg
1883.006	1.852	correct	generate	Run3	generate/STIM_005.jpg
1888.262	2.03	correct	generate	Run3	generate/STIM_005.jpg
1892.824	2.178	correct	generate	Run3	generate/STIM_006.jpg
1898.054	2.098	correct	generate	Run3	generate/STIM_006.jpg
1903.197	1.886	correct	generate	Run3	generate/STIM_006.jpg
1908.514	1.32	correct	generate	Run3	generate/STIM_006.jpg
1912.805	0.868	correct	generate	Run3	generate/STIM_006.jpg
1917.541	1.067	correct	generate	Run3	generate/STIM_007.jpg
1920.9	1.077	incorrect	generate	Run3	generate/STIM_007.jpg
1924.754	1.436	correct	generate	Run3	generate/STIM_007.jpg
1928.699	1.707	correct	generate	Run3	generate/STIM_007.jpg
1932.903	1.583	incorrect	generate	Run3	generate/STIM_007.jpg
1937.727	1.73	correct	generate	Run3	generate/STIM_008.jpg
1942.098	2.039	correct	generate	Run3	generate/STIM_008.jpg
1946.682	1.86	correct	generate	Run3	generate/STIM_008.jpg
1951.432	1.753	correct	generate	Run3	generate/STIM_008.jpg
1956.337	0.982	correct	generate	Run3	generate/STIM_008.jpg
1960.578	1.45	correct	generate	Run3	generate/STIM_009.jpg
1964.671	1.746	correct	generate	Run3	generate/STIM_009.jpg
1970.212	1.645	correct	generate	Run3	generate/STIM_009.jpg
1974.33	0.866	incorrect	generate	Run3	generate/STIM_009.jpg
1977.568	1.686	correct	generate	Run3	generate/STIM_009.jpg
1981.803	1.92	incorrect	generate	Run3	generate/STIM_010.jpg
1986.87	1.87	correct	generate	Run3	generate/STIM_010.jpg
1990.897	1.299	correct	generate	Run3	generate/STIM_010.jpg
1995.96	1.599	correct	generate	Run3	generate/STIM_010.jpg
2001.106	1.432	correct	generate	Run3	generate/STIM_010.jpg
2006.559	1.435	correct	generate	Run3	generate/STIM_011.jpg
2010.113	1.524	correct	generate	Run3	generate/STIM_011.jpg
2014.353	1.52	correct	generate	Run3	generate/STIM_011.jpg
2019.446	0.75	correct	generate	Run3	generate/STIM_011.jpg
2022.455	1.198	incorrect	generate	Run3	generate/STIM_011.jpg
2026.096	1.879	correct	generate	Run3	generate/STIM_012.jpg
2030.4	1.216	correct	generate	Run3	generate/STIM_012.jpg
2034.28	0.876	incorrect	generate	Run3	generate/STIM_012.jpg
2037.822	1.71	correct	generate	Run3	generate/STIM_012.jpg
2042.42	1.714	correct	generate	Run3	generate/STIM_012.jpg
2047.592	0.953	correct	generate	Run3	generate/STIM_013.jpg
2051.658	1.8	correct	generate	Run3	generate/STIM_013.jpg
2057.427	1.89	incorrect	generate	Run3	generate/STIM_013.jpg
2062.087	1.116	correct	generate	Run3	generate/STIM_013.jpg
2066.425	1.368	correct	generate	Run3	generate/STIM_013.jpg
2070.962	2.062	correct	generate	Run3	generate/STIM_014.jpg
2076.002	1.241	correct	generate	Run3	generate/STIM_014.jpg
2080.965	1.304	correct	generate	Run3	generate/STIM_014.jpg
2084.815	1.183	correct	generate	Run3	generate/STIM_014.jpg
2089.445	1.939	correct	generate	Run3	generate/STIM_014.jpg
2094.266	1.56	correct	generate	Run3	generate/STIM_015.jpg
2098.233	2.042	correct	generate	Run3	generate/STIM_015.jpg
2102.847	1.797	incorrect	generate	Run3	generate/STIM_015.jpg
2107.442	1.008	incorrect	generate	Run3	generate/STIM_015.jpg
2111.889	1.669	correct	generate	Run3	generate/STIM_015.jpg
2117.439	1.722	correct	generate	Run3	generate/STIM_016.jpg
2122.451	1.282	correct	generate	Run3	generate/STIM_016.jpg
2126.109	1.056	correct	generate	Run3	generate/STIM_016.jpg
2130.138	0.993	correct	generate	Run3	generate/STIM_016.jpg
2134.153	1.545	correct	generate	Run3	generate/STIM_016.jpg
2137.96	1.033	correct	generate	Run3	generate/STIM_017.jpg
2142.494	2.047	correct	generate	Run3	generate/STIM_017.jpg
2147.577	1.491	correct	generate	Run3	generate/STIM_017.jpg
2151.21	2.08	correct	generate	Run3	generate/STIM_017.jpg
2155.312	1.024	correct	generate	Run3	generate/STIM_017.jpg
2159.514	1.957	correct	generate	Run3	generate/STIM_018.jpg
2164.6	1.15	correct	generate	Run3	generate/STIM_018.jpg
2169.275	1.185	correct	generate	Run3	generate/STIM_018.jpg
2174.125	2.011	correct	generate	Run3	generate/STIM_018.jpg
2179.229	1.531	correct	generate	Run3	generate/STIM_018.jpg
2184.196	2.059	correct	generate	Run3	generate/STIM_019.jpg
2188.806	1.554	correct	generate	Run3	generate/STIM_019.jpg
2192.922	0.997	correct	generate	Run3	generate/STIM_019.jpg
2196.736	1.422	correct	generate	Run3	generate/STIM_019.jpg
2202.142	1.153	correct	generate	Run3	generate/STIM_019.jpg
2205.896	1.551	correct	generate	Run3	generate/STIM_020.jpg
2210.821	1.092	incorrect	generate	Run3	generate/STIM_020.jpg
2215.736	2.071	correct	generate	Run3	generate/STIM_020.jpg
2220.569	2.028	correct	generate	Run3	generate/STIM_020.jpg
2225.655	0.842	correct	generate	Run3	generate/STIM_020.jpg
2230.241	2.088	correct	generate	Run3	generate/STIM_021.jpg
2235.551	1.244	correct	generate	Run3	generate/STIM_021.jpg
2238.972	1.594	correct	generate	Run3	generate/STIM_021.jpg
2243.946	1.069	correct	generate	Run3	generate/STIM_021.jpg
2247.713	0.974	correct	generate	Run3	generate/STIM_021.jpg
2251.813	1.08	correct	generate	Run3	generate/STIM_022.jpg
2256.432	2.014	correct	generate	Run3	generate/STIM_022.jpg
2261.696	1.521	correct	generate	Run3	generate/STIM_022.jpg
2265.924	1.632	correct	generate	Run3	generate/STIM_022.jpg
2270.611	1.016	correct	generate	Run3	generate/STIM_022.jpg
2275.37	0.935	correct	generate	Run3	generate/STIM_023.jpg
2279.3	1.999	correct	generate	Run3	generate/STIM_023.jpg
2283.921	1.156	incorrect	generate	Run3	generate/STIM_023.jpg
2288.238	2.033	correct	generate	Run3	generate/STIM_023.jpg
2292.645	1.488	correct	generate	Run3	generate/STIM_023.jpg
2297.81	1.063	correct	generate	Run3	generate/STIM_024.jpg
2301.33	1.061	correct	generate	Run3	generate/STIM_024.jpg
2304.606	1.657	correct	generate	Run3	generate/STIM_024.jpg
2308.26	1.395	incorrect	generate	Run3	generate/STIM_024.jpg
2313.592	2.03	correct	generate	Run3	generate/STIM_024.jpg
2318.12	0.54	correct	repeat	Run3	repeat/STIM_000.jpg
2322.577	0.589	correct	repeat	Run3	repeat/STIM_000.jpg
2326.003	0.687	correct	repeat	Run3	repeat/STIM_000.jpg
2330.426	0.755	correct	repeat	Run3	repeat/STIM_000.jpg
2333.137	0.834	correct	repeat	Run3	repeat/STIM_000.jpg
2337.241	0.978	correct	repeat	Run3	repeat/STIM_001.jpg
2342.119	0.959	correct	repeat	Run3	repeat/STIM_001.jpg
2346.044	0.514	correct	repeat	Run3	repeat/STIM_001.jpg
2350.181	0.741	correct	repeat	Run3	repeat/STIM_001.jpg
2353.041	0.735	correct	repeat	Run3	repeat/STIM_001.jpg
2356.112	0.883	correct	repeat	Run3	repeat/STIM_002.jpg
2360.448	0.906	correct	repeat	Run3	repeat/STIM_002.jpg
2364.959	0.728	correct	repeat	Run3	repeat/STIM_002.jpg
2368.769	0.686	correct	repeat	Run3	repeat/STIM_002.jpg
2372.142	0.6	correct	repeat	Run3	repeat/STIM_002.jpg
2376.306	0.93	correct	repeat	Run3	repeat/STIM_003.jpg
2379.303	0.786	correct	repeat	Run3	repeat/STIM_003.jpg
2382.54	0.777	correct	repeat	Run3	repeat/STIM_003.jpg
2386.333	0.71	correct	repeat	Run3	repeat/STIM_003.jpg
2389.868	0.585	correct	repeat	Run3	repeat/STIM_003.jpg
2393.316	0.434	correct	repeat	Run3	repeat/STIM_004.jpg
2396.075	0.936	correct	repeat	Run3	repeat/STIM_004.jpg
2400.192	0.93	correct	repeat	Run3	repeat/STIM_004.jpg
2404.842	0.592	correct	repeat	Run3	repeat/STIM_004.jpg
2409.12	0.857	correct	repeat	Run3	repeat/STIM_004.jpg
2413.532	0.554	correct	repeat	Run3	repeat/STIM_005.jpg
2416.178	0.778	correct	repeat	Run3	repeat/STIM_005.jpg
2420.914	0.845	correct	repeat	Run3	repeat/STIM_005.jpg
2424.242	0.688	correct	repeat	Run3	repeat/STIM_005.jpg
2428.67	0.597	correct	repeat	Run3	repeat/STIM_005.jpg
2432.782	0.644	correct	repeat	Run3	repeat/STIM_006.jpg
2437.198	0.894	correct	repeat	Run3	repeat/STIM_006.jpg
2441.769	0.597	correct	repeat	Run3	repeat/STIM_006.jpg
2444.44	0.504	correct	repeat	Run3	repeat/STIM_006.jpg
2448.375	0.983	correct	repeat	Run3	repeat/STIM_006.jpg
2453.134	0.619	correct	repeat	Run3	repeat/STIM_007.jpg
2456.267	0.97	correct	repeat	Run3	repeat/STIM_007.jpg
2461.11	0.863	correct	repeat	Run3	repeat/STIM_007.jpg
2465.485	0.489	correct	repeat	Run3	repeat/STIM_007.jpg
2470.017	0.667	correct	repeat	Run3	repeat/STIM_007.jpg
2473.25	0.773	correct	repeat	Run3	repeat/STIM_008.jpg
2476.415	0.542	correct	repeat	Run3	repeat/STIM_008.jpg
2480.297	0.7	correct	repeat	Run3	repeat/STIM_008.jpg
2483.851	0.643	correct	repeat	Run3	repeat/STIM_008.jpg
2488.223	0.997	incorrect	repeat	Run3	repeat/STIM_008.jpg
2491.985	0.759	correct	repeat	Run3	repeat/STIM_009.jpg
2496.47	0.899	correct	repeat	Run3	repeat/STIM_009.jpg
2500.439	0.699	correct	repeat	Run3	repeat/STIM_009.jpg
2503.457	0.541	correct	repeat	Run3	repeat/STIM_009.jpg
2506.469	0.891	correct	repeat	Run3	repeat/STIM_009.jpg
2510.171	0.96	correct	repeat	Run3	repeat/STIM_010.jpg
2513.555	0.695	correct	repeat	Run3	repeat/STIM_010.jpg
2516.517	0.602	correct	repeat	Run3	repeat/STIM_010.jpg
2519.601	0.664	correct	repeat	Run3	repeat/STIM_010.jpg
2523.22	0.806	correct	repeat	Run3	repeat/STIM_010.jpg
2526.555	1.004	correct	repeat	Run3	repeat/STIM_011.jpg
2530.39	0.574	correct	repeat	Run3	repeat/STIM_011.jpg
2533.065	0.796	incorrect	repeat	Run3	repeat/STIM_011.jpg
2537.611	0.818	correct	repeat	Run3	repeat/STIM_011.jpg
2540.46	0.801	correct	repeat	Run3	repeat/STIM_011.jpg
2544.375	0.764	correct	repeat	Run3	repeat/STIM_012.jpg
2548.974	0.625	correct	repeat	Run3	repeat/STIM_012.jpg
2552.746	0.889	correct	repeat	Run3	repeat/STIM_012.jpg
2557.02	0.587	correct	repeat	Run3	repeat/STIM_012.jpg
2560.484	0.761	correct	repeat	Run3	repeat/STIM_012.jpg
2564.76	0.834	correct	repeat	Run3	repeat/STIM_013.jpg
2569.216	0.557	correct	repeat	Run3	repeat/STIM_013.jpg
2572.846	0.746	correct	repeat	Run3	repeat/STIM_013.jpg
2575.852	0.85	correct	repeat	Run3	repeat/STIM_013.jpg
2580.101	0.503	correct	repeat	Run3	repeat/STIM_013.jpg
2582.848	0.532	correct	repeat	Run3	repeat/STIM_014.jpg
2586.114	1.006	correct	repeat	Run3	repeat/STIM_014.jpg
2590.122	0.796	correct	repeat	Run3	repeat/STIM_014.jpg
2593.934	0.961	correct	repeat	Run3	repeat/STIM_014.jpg
2598.445	0.581	correct	repeat	Run3	repeat/STIM_014.jpg
2602.712	1.479	correct	generate	Run4	generate/STIM_000.jpg
2607.578	1.026	correct	generate	Run4	generate/STIM_000.jpg
2610.658	1.818	incorrect	generate	Run4	generate/STIM_000.jpg
2614.931	1.445	correct	generate	Run4	generate/STIM_000.jpg
2619.581	1.739	correct	generate	Run4	generate/STIM_000.jpg
2624.797	0.93	correct	generate	Run4	generate/STIM_001.jpg
2628.785	1.824	correct	generate	Run4	generate/STIM_001.jpg
2632.979	1.343	correct	generate	Run4	generate/STIM_001.jpg
2637.294	1.486	correct	generate	Run4	generate/STIM_001.jpg
2642.825	0.849	correct	generate	Run4	generate/STIM_001.jpg
2645.815	1.324	correct	generate	Run4	generate/STIM_002.jpg
2649.682	1.89	correct	generate	Run4	generate/STIM_002.jpg
2655.3	1.646	correct	generate	Run4	generate/STIM_002.jpg
2660.141	1.198	correct	generate	Run4	generate/STIM_002.jpg
2663.485	1.57	correct	generate	Run4	generate/STIM_002.jpg
2667.919	1.299	correct	generate	Run4	generate/STIM_003.jpg
2671.465	1.561	correct	generate	Run4	generate/STIM_003.jpg
2675.163	1.632	correct	generate	Run4	generate/STIM_003.jpg
2680.558	1.22	correct	generate	Run4	generate/STIM_003.jpg
2684.2	0.928	correct	generate	Run4	generate/STIM_003.jpg
2689.075	1.458	correct	generate	Run4	generate/STIM_004.jpg
2693.146	1.194	incorrect	generate	Run4	generate/STIM_004.jpg
2698.241	0.994	correct	generate	Run4	generate/STIM_004.jpg
2702.082	1.06	correct	generate	Run4	generate/STIM_004.jpg
2706.579	1.95	correct	generate	Run4	generate/STIM_004.jpg
2711.182	1.946	correct	generate	Run4	generate/STIM_005.jpg
2715.756	1.129	correct	generate	Run4	generate/STIM_005.jpg
2720.149	1.549	correct	generate	Run4	generate/STIM_005.jpg
2724.154	0.93	correct	generate	Run4	generate/STIM_005.jpg
2728.504	1.185	correct	generate	Run4	generate/STIM_005.jpg
2733.614	1.862	correct	generate	Run4	generate/STIM_006.jpg
2738.75	1.272	correct	generate	Run4	generate/STIM_006.jpg
2742.618	1.965	correct	generate	Run4	generate/STIM_006.jpg
2746.914	1.107	correct	generate	Run4	generate/STIM_006.jpg
2751.572	1.341	correct	generate	Run4	generate/STIM_006.jpg
2755.739	1.483	correct	generate	Run4	generate/STIM_007.jpg
2759.597	1.777	correct	generate	Run4	generate/STIM_007.jpg
2764.864	1.429	incorrect	generate	Run4	generate/STIM_007.jpg
2768.777	1.575	correct	generate	Run4	generate/STIM_007.jpg
2772.324	1.958	correct	generate	Run4	generate/STIM_007.jpg
2778.086	1.328	correct	generate	Run4	generate/STIM_008.jpg
2783.299	1.603	correct	generate	Run4	generate/STIM_008.jpg
2786.962	1.688	correct	generate	Run4	generate/STIM_008.jpg
2791.753	1.144	correct	generate	Run4	generate/STIM_008.jpg
2795.505	2.026	correct	generate	Run4	generate/STIM_008.jpg
2800.453	0.833	correct	generate	Run4	generate/STIM_009.jpg
2803.999	1.597	correct	generate	Run4	generate/STIM_009.jpg
2809.363	1.688	correct	generate	Run4	generate/STIM_009.jpg
2814.334	1.62	correct	generate	Run4	generate/STIM_009.jpg
2818.739	1.205	correct	generate	Run4	generate/STIM_009.jpg
2823.725	1.314	correct	generate	Run4	generate/STIM_010.jpg
2828.015	2.054	correct	generate	Run4	generate/STIM_010.jpg
2833.791	1.014	correct	generate	Run4	generate/STIM_010.jpg
2838.469	1.396	correct	generate	Run4	generate/STIM_010.jpg
2843.04	0.899	correct	generate	Run4	generate/STIM_010.jpg
2847.063	1.588	correct	generate	Run4	generate/STIM_011.jpg
2851.681	1.933	correct	generate	Run4	generate/STIM_011.jpg
2856.078	1.803	correct	generate	Run4	generate/STIM_011.jpg
2860.67	1.111	correct	generate	Run4	generate/STIM_011.jpg
2865.47	1.799	correct	generate	Run4	generate/STIM_011.jpg
2869.989	1.47	correct	generate	Run4	generate/STIM_012.jpg
2875.03	2.041	correct	generate	Run4	generate/STIM_012.jpg
2879.731	1.847	correct	generate	Run4	generate/STIM_012.jpg
2884.447	1.784	correct	generate	Run4	generate/STIM_012.jpg
2888.625	1.047	correct	generate	Run4	generate/STIM_012.jpg
2891.895	1.788	correct	generate	Run4	generate/STIM_013.jpg
2896.343	1.507	correct	generate	Run4	generate/STIM_013.jpg
2901.007	1.177	correct	generate	Run4	generate/STIM_013.jpg
2905.372	1.11	incorrect	generate	Run4	generate/STIM_013.jpg
2909.785	1.737	correct	generate	Run4	generate/STIM_013.jpg
2913.596	0.887	correct	generate	Run4	generate/STIM_014.jpg
2918.038	1.535	correct	generate	Run4	generate/STIM_014.jpg
2921.809	0.826	correct	generate	Run4	generate/STIM_014.jpg
2926.65	2.072	correct	generate	Run4	generate/STIM_014.jpg
2932.461	1.58	correct	generate	Run4	generate/STIM_014.jpg
2936.217	1.782	correct	generate	Run4	generate/STIM_015.jpg
2940.283	1.182	incorrect	generate	Run4	generate/STIM_015.jpg
2945.035	1.447	correct	generate	Run4	generate/STIM_015.jpg
2948.575	1.298	correct	generate	Run4	generate/STIM_015.jpg
2953.302	1.315	correct	generate	Run4	generate/STIM_015.jpg
2958.067	0.883	correct	generate	Run4	generate/STIM_016.jpg
2961.641	1.834	correct	generate	Run4	generate/STIM_016.jpg
2966.337	1.916	correct	generate	Run4	generate/STIM_016.jpg
2970.972	0.979	correct	generate	Run4	generate/STIM_016.jpg
2976.012	1.729	correct	generate	Run4	generate/STIM_016.jpg
2981.2	1.424	incorrect	generate	Run4	generate/STIM_017.jpg
2985.463	1.529	incorrect	generate	Run4	generate/STIM_017.jpg
2990.641	2.024	correct	generate	Run4	generate/STIM_017.jpg
2996.48	1.638	incorrect	generate	Run4	generate/STIM_017.jpg
3002.027	1.134	correct	generate	Run4	generate/STIM_017.jpg
3006.73	1.218	correct	generate	Run4	generate/STIM_018.jpg
3010.718	2.02	correct	generate	Run4	generate/STIM_018.jpg
3015.899	1.419	correct	generate	Run4	generate/STIM_018.jpg
3020.293	2.005	correct	generate	Run4	generate/STIM_018.jpg
3025.256	1.823	correct	generate	Run4	generate/STIM_018.jpg
3030.764	1.832	correct	generate	Run4	generate/STIM_019.jpg
3035.507	1.718	correct	generate	Run4	generate/STIM_019.jpg
3040.87	1.981	correct	generate	Run4	generate/STIM_019.jpg
3045.844	1.606	correct	generate	Run4	generate/STIM_019.jpg
3051.406	1.463	correct	generate	Run4	generate/STIM_019.jpg
3055.507	1.732	correct	generate	Run4	generate/STIM_020.jpg
3061.168	1.598	correct	generate	Run4	generate/STIM_020.jpg
3066.371	1.486	correct	generate	Run4	generate/STIM_020.jpg
3071.544	0.874	correct	generate	Run4	generate/STIM_020.jpg
3074.482	1.053	correct	generate	Run4	generate/STIM_020.jpg
3078.989	0.955	correct	generate	Run4	generate/STIM_021.jpg
3082.785	1.135	correct	generate	Run4	generate/STIM_021.jpg
3087.174	1.154	correct	generate	Run4	generate/STIM_021.jpg
3091.004	1.334	correct	generate	Run4	generate/STIM_021.jpg
3094.679	1.458	correct	generate	Run4	generate/STIM_021.jpg
3098.43	1.031	correct	generate	Run4	generate/STIM_022.jpg
3103.471	1.818	correct	generate	Run4	generate/STIM_022.jpg
3108.847	0.818	correct	generate	Run4	generate/STIM_022.jpg
3113.17	1.11	correct	generate	Run4	generate/STIM_022.jpg
3117.321	1.284	correct	generate	Run4	generate/STIM_022.jpg
3122.451	1.433	correct	generate	Run4	generate/STIM_023.jpg
3126.109	1.73	correct	generate	Run4	generate/STIM_023.jpg
3130.334	1.683	correct	generate	Run4	generate/STIM_023.jpg
3134.349	1.066	correct	generate	Run4	generate/STIM_023.jpg
3137.979	2.032	incorrect	generate	Run4	generate/STIM_023.jpg
3142.107	1.593	correct	generate	Run4	generate/STIM_024.jpg
3147.235	1.191	correct	generate	Run4	generate/STIM_024.jpg
3151.024	1.804	correct	generate	Run4	generate/STIM_024.jpg
3155.487	1.985	correct	generate	Run4	generate/STIM_024.jpg
3159.507	1.702	correct	generate	Run4	generate/STIM_024.jpg
3163.71	0.521	correct	repeat	Run4	repeat/STIM_000.jpg
3167.4	0.808	correct	repeat	Run4	repeat/STIM_000.jpg
3170.941	0.898	correct	repeat	Run4	repeat/STIM_000.jpg
3175.716	1.036	correct	repeat	Run4	repeat/STIM_000.jpg
3178.793	0.578	correct	repeat	Run4	repeat/STIM_000.jpg
3182.341	0.579	correct	repeat	Run4	repeat/STIM_001.jpg
3185.669	0.927	correct	repeat	Run4	repeat/STIM_001.jpg
3189.132	0.659	correct	repeat	Run4	repeat/STIM_001.jpg
3192.252	0.793	correct	repeat	Run4	repeat/STIM_001.jpg
3195.618	0.783	correct	repeat	Run4	repeat/STIM_001.jpg
3200.248	0.655	correct	repeat	Run4	repeat/STIM_002.jpg
3204.242	0.736	correct	repeat	Run4	repeat/STIM_002.jpg
3208.962	0.791	correct	repeat	Run4	repeat/STIM_002.jpg
3212.218	0.91	correct	repeat	Run4	repeat/STIM_002.jpg
3216.291	0.684	correct	repeat	Run4	repeat/STIM_002.jpg
3219.008	0.995	correct	repeat	Run4	repeat/STIM_003.jpg
3222.166	0.604	correct	repeat	Run4	repeat/STIM_003.jpg
3224.879	0.839	correct	repeat	Run4	repeat/STIM_003.jpg
3228.191	0.682	correct	repeat	Run4	repeat/STIM_003.jpg
3231.316	0.819	correct	repeat	Run4	repeat/STIM_003.jpg
3235.728	0.734	correct	repeat	Run4	repeat/STIM_004.jpg
3239.901	0.862	correct	repeat	Run4	repeat/STIM_004.jpg
3244.431	0.829	correct	repeat	Run4	repeat/STIM_004.jpg
3248.756	0.968	correct	repeat	Run4	repeat/STIM_004.jpg
3252.312	0.538	correct	repeat	Run4	repeat/STIM_004.jpg
3255.85	0.592	correct	repeat	Run4	repeat/STIM_005.jpg
3258.58	0.864	correct	repeat	Run4	repeat/STIM_005.jpg
3262.176	0.858	correct	repeat	Run4	repeat/STIM_005.jpg
3266.346	0.604	correct	repeat	Run4	repeat/STIM_005.jpg
3271.061	0.859	correct	repeat	Run4	repeat/STIM_005.jpg
3274.5	0.611	correct	repeat	Run4	repeat/STIM_006.jpg
3277.698	0.813	correct	repeat	Run4	repeat/STIM_006.jpg
3281.604	0.589	correct	repeat	Run4	repeat/STIM_006.jpg
3284.658	0.742	correct	repeat	Run4	repeat/STIM_006.jpg
3289.016	0.712	correct	repeat	Run4	repeat/STIM_006.jpg
3293.683	0.71	correct	repeat	Run4	repeat/STIM_007.jpg
3297.722	0.982	correct	repeat	Run4	repeat/STIM_007.jpg
3301.736	0.712	correct	repeat	Run4	repeat/STIM_007.jpg
3305.777	0.641	correct	repeat	Run4	repeat/STIM_007.jpg
3309.989	0.873	correct	repeat	Run4	repeat/STIM_007.jpg
3314.726	0.568	correct	repeat	Run4	repeat/STIM_008.jpg
3317.781	0.939	correct	repeat	Run4	repeat/STIM_008.jpg
3321.188	0.815	correct	repeat	Run4	repeat/STIM_008.jpg
3325.387	0.499	correct	repeat	Run4	repeat/STIM_008.jpg
3328.389	0.926	correct	repeat	Run4	repeat/STIM_008.jpg
3333.065	0.985	correct	repeat	Run4	repeat/STIM_009.jpg
3337.538	0.562	correct	repeat	Run4	repeat/STIM_009.jpg
3340.695	0.526	correct	repeat	Run4	repeat/STIM_009.jpg
3344.693	0.787	correct	repeat	Run4	repeat/STIM_009.jpg
3347.589	0.573	correct	repeat	Run4	repeat/STIM_009.jpg
3350.679	0.53	correct	repeat	Run4	repeat/STIM_010.jpg
3354.465	0.852	correct	repeat	Run4	repeat/STIM_010.jpg
3359.087	0.633	correct	repeat	Run4	repeat/STIM_010.jpg
3362.469	0.935	correct	repeat	Run4	repeat/STIM_010.jpg
3365.626	0.618	correct	repeat	Run4	repeat/STIM_010.jpg
3369.857	0.752	correct	repeat	Run4	repeat/STIM_011.jpg
3373.488	0.879	correct	repeat	Run4	repeat/STIM_011.jpg
3378.301	0.702	correct	repeat	Run4	repeat/STIM_011.jpg
3381.972	0.89	correct	repeat	Run4	repeat/STIM_011.jpg
3385.113	0.768	correct	repeat	Run4	repeat/STIM_011.jpg
3389.375	0.706	correct	repeat	Run4	repeat/STIM_012.jpg
3393.756	0.847	correct	repeat	Run4	repeat/STIM_012.jpg
3398.045	0.537	correct	repeat	Run4	repeat/STIM_012.jpg
3402.455	0.922	correct	repeat	Run4	repeat/STIM_012.jpg
3406.416	0.79	correct	repeat	Run4	repeat/STIM_012.jpg
3410.439	0.728	correct	repeat	Run4	repeat/STIM_013.jpg
3413.274	0.672	correct	repeat	Run4	repeat/STIM_013.jpg
3416.9	0.801	correct	repeat	Run4	repeat/STIM_013.jpg
3420.045	0.443	correct	repeat	Run4	repeat/STIM_013.jpg
3423.877	0.583	correct	repeat	Run4	repeat/STIM_013.jpg
3426.99	0.625	correct	repeat	Run4	repeat/STIM_014.jpg
3429.998	0.574	correct	repeat	Run4	repeat/STIM_014.jpg
3432.749	0.568	incorrect	repeat	Run4	repeat/STIM_014.jpg
3436.221	0.942	correct	repeat	Run4	repeat/STIM_014.jpg
3440.205	0.557	correct	repeat	Run4	repeat/STIM_014.jpg
