onset	duration	response_time_ms	trial_type	learning_stage	stimulus	response_port
0.0	1.133	1133.1	2back	Block1	2back/STIM_000.jpg	99
4.702	0.65	650.0	2back	Block1	2back/STIM_000.jpg	99
7.862	0.842	841.7	2back	Block1	2back/STIM_000.jpg	99
11.705	1.295	1295.2	2back	Block1	2back/STIM_001.jpg	100
16.882	0.964	964.4	2back	Block1	2back/STIM_001.jpg	99
21.529	1.328	1327.8	2back	Block1	2back/STIM_001.jpg	100
26.534	1.374	1373.6	2back	Block1	2back/STIM_002.jpg	100
31.742	0.91	909.8	2back	Block1	2back/STIM_002.jpg	100
35.798	0.769	768.6	2back	Block1	2back/STIM_002.jpg	99
39.135	1.141	1140.6	2back	Block1	2back/STIM_003.jpg	100
43.286	1.193	1193.2	2back	Block1	2back/STIM_003.jpg	100
46.915	0.981	981.0	2back	Block1	2back/STIM_003.jpg	100
51.246	1.397	1396.9	2back	Block1	2back/STIM_004.jpg	100
56.102	0.77	770.0	2back	Block1	2back/STIM_004.jpg	100
59.469	1.312	1311.5	2back	Block1	2back/STIM_004.jpg	99
63.339	0.745	745.4	2back	Block1	2back/STIM_005.jpg	100
67.24	0.827	827.0	2back	Block1	2back/STIM_005.jpg	99
70.761	1.036	1036.3	2back	Block1	2back/STIM_005.jpg	99
75.29	0.975	975.0	2back	Block1	2back/STIM_006.jpg	99
78.371	1.183	1183.2	2back	Block1	2back/STIM_006.jpg	100
83.445	1.09	1090.3	2back	Block1	2back/STIM_006.jpg	100
88.502	1.437	1437.2	2back	Block1	2back/STIM_007.jpg	99
92.8	1.226	1226.5	2back	Block1	2back/STIM_007.jpg	99
97.916	0.966	966.5	2back	Block1	2back/STIM_007.jpg	100
102.439	1.172	1171.5	2back	Block1	2back/STIM_008.jpg	100
107.408	0.986	985.5	2back	Block1	2back/STIM_008.jpg	99
112.073	1.047	1047.3	2back	Block1	2back/STIM_008.jpg	100
116.085	1.421	1420.7	2back	Block1	2back/STIM_009.jpg	99
121.216	1.351	1351.3	2back	Block1	2back/STIM_009.jpg	99
125.2	1.147	1147.1	2back	Block1	2back/STIM_009.jpg	100
128.372	1.009	1009.4	2back	Block1	2back/STIM_010.jpg	100
133.021	1.372	1372.1	2back	Block1	2back/STIM_010.jpg	99
137.389	0.594	594.1	2back	Block1	2back/STIM_010.jpg	99
140.763	1.511	1511.3	2back	Block1	2back/STIM_011.jpg	100
145.697	1.325	1324.6	2back	Block1	2back/STIM_011.jpg	99
150.675	1.299	1299.2	2back	Block1	2back/STIM_011.jpg	100
154.472	0.736	735.5	2back	Block1	2back/STIM_012.jpg	99
157.357	1.217	1217.3	2back	Block1	2back/STIM_012.jpg	99
160.969	0.777	776.7	2back	Block1	2back/STIM_012.jpg	100
165.677	1.109	1108.6	2back	Block1	2back/STIM_013.jpg	99
169.131	0.67	669.8	2back	Block1	2back/STIM_013.jpg	99
172.646	0.988	987.8	2back	Block1	2back/STIM_013.jpg	100
176.91	1.524	1524.0	2back	Block1	2back/STIM_014.jpg	100
180.61	1.076	1076.5	2back	Block1	2back/STIM_014.jpg	99
185.654	1.027	1027.4	2back	Block1	2back/STIM_014.jpg	99
189.744	0.972	972.3	2back	Block1	2back/STIM_015.jpg	100
194.106	1.4	1400.1	2back	Block1	2back/STIM_015.jpg	100
199.227	1.332	1331.8	2back	Block1	2back/STIM_015.jpg	100
204.059	1.087	1087.2	2back	Block1	2back/STIM_016.jpg	99
207.242	1.237	1236.6	2back	Block1	2back/STIM_016.jpg	100
210.67	0.917	917.4	2back	Block1	2back/STIM_016.jpg	100
214.49	0.715	714.8	2back	Block1	2back/STIM_017.jpg	99
217.486	1.184	1183.6	2back	Block1	2back/STIM_017.jpg	100
222.201	0.609	608.9	2back	Block1	2back/STIM_017.jpg	99
224.814	1.066	1066.2	2back	Block1	2back/STIM_018.jpg	99
228.195	1.276	1275.6	2back	Block1	2back/STIM_018.jpg	99
232.119	0.878	878.4	2back	Block1	2back/STIM_018.jpg	99
235.32	1.048	1048.0	2back	Block1	2back/STIM_019.jpg	100
239.66	0.905	905.1	2back	Block1	2back/STIM_019.jpg	99
243.655	0.84	840.5	2back	Block1	2back/STIM_019.jpg	100
246.643	0.896	896.0	2back	Block1	2back/STIM_020.jpg	99
250.222	1.148	1147.8	2back	Block1	2back/STIM_020.jpg	100
255.084	1.213	1213.3	2back	Block1	2back/STIM_020.jpg	100
260.266	1.123	1123.4	2back	Block1	2back/STIM_021.jpg	100
263.695	0.864	864.4	2back	Block1	2back/STIM_021.jpg	100
267.827	1.271	1270.8	2back	Block1	2back/STIM_021.jpg	99
272.447	1.161	1161.4	2back	Block1	2back/STIM_022.jpg	100
276.588	1.198	1197.6	2back	Block1	2back/STIM_022.jpg	99
280.106	1.096	1096.5	2back	Block1	2back/STIM_022.jpg	99
284.87	0.738	738.5	2back	Block1	2back/STIM_023.jpg	99
289.068	1.254	1254.4	2back	Block1	2back/STIM_023.jpg	100
293.268	0.885	885.2	2back	Block1	2back/STIM_023.jpg	99
297.677	1.052	1051.6	2back	Block1	2back/STIM_024.jpg	100
302.02	1.177	1176.7	2back	Block1	2back/STIM_024.jpg	100
306.957	0.627	626.7	2back	Block1	2back/STIM_024.jpg	100
310.711	1.294	1293.9	2back	Block1	2back/STIM_025.jpg	99
315.176	0.898	898.3	2back	Block1	2back/STIM_025.jpg	100
319.253	0.707	706.8	2back	Block1	2back/STIM_025.jpg	100
322.535	1.242	1242.2	2back	Block1	2back/STIM_026.jpg	100
326.761	1.306	1306.5	2back	Block1	2back/STIM_026.jpg	100
331.451	1.204	1203.7	2back	Block1	2back/STIM_026.jpg	100
336.472	1.042	1041.9	2back	Block1	2back/STIM_027.jpg	99
340.331	1.066	1066.4	2back	Block1	2back/STIM_027.jpg	99
343.412	1.046	1045.5	2back	Block1	2back/STIM_027.jpg	100
347.656	0.71	710.3	2back	Block1	2back/STIM_028.jpg	100
352.227	0.792	792.1	2back	Block1	2back/STIM_028.jpg	99
355.959	0.644	644.4	2back	Block1	2back/STIM_028.jpg	100
359.128	1.117	1116.9	2back	Block1	2back/STIM_029.jpg	100
363.011	0.894	894.3	2back	Block1	2back/STIM_029.jpg	99
367.604	1.048	1047.8	2back	Block1	2back/STIM_029.jpg	100
371.214	1.22	1219.9	2back	Block1	2back/STIM_030.jpg	99
376.048	1.34	1340.2	2back	Block1	2back/STIM_030.jpg	100
381.002	1.134	1133.7	2back	Block1	2back/STIM_030.jpg	99
385.274	0.757	756.9	2back	Block1	2back/STIM_031.jpg	100
389.451	1.321	1320.9	2back	Block1	2back/STIM_031.jpg	100
393.838	0.645	644.6	2back	Block1	2back/STIM_031.jpg	99
397.033	1.109	1108.8	2back	Block1	2back/STIM_032.jpg	99
401.036	0.767	767.4	2back	Block1	2back/STIM_032.jpg	99
405.652	1.291	1291.0	2back	Block1	2back/STIM_032.jpg	99
410.413	0.704	704.5	2back	Block1	2back/STIM_033.jpg	99
413.158	1.136	1136.5	2back	Block1	2back/STIM_033.jpg	100
417.427	0.74	739.9	2back	Block1	2back/STIM_033.jpg	99
421.115	1.461	1460.9	2back	Block1	2back/STIM_034.jpg	100
426.297	1.166	1166.5	2back	Block1	2back/STIM_034.jpg	99
430.735	0.695	695.4	2back	Block1	2back/STIM_034.jpg	99
433.673	1.345	1345.0	2back	Block1	2back/STIM_035.jpg	99
438.138	1.397	1396.7	2back	Block1	2back/STIM_035.jpg	99
442.959	0.671	670.6	2back	Block1	2back/STIM_035.jpg	99
446.909	1.053	1053.2	2back	Block1	2back/STIM_036.jpg	100
451.512	0.645	645.4	2back	Block1	2back/STIM_036.jpg	99
454.353	1.306	1306.0	2back	Block1	2back/STIM_036.jpg	100
458.473	1.261	1260.6	2back	Block1	2back/STIM_037.jpg	100
461.793	1.354	1354.0	2back	Block1	2back/STIM_037.jpg	99
466.461	0.972	971.6	2back	Block1	2back/STIM_037.jpg	99
471.282	0.826	826.5	2back	Block1	2back/STIM_038.jpg	100
475.978	1.443	1443.1	2back	Block1	2back/STIM_038.jpg	100
480.756	0.946	946.4	2back	Block1	2back/STIM_038.jpg	99
484.263	1.371	1371.2	2back	Block1	2back/STIM_039.jpg	99
489.596	1.42	1420.5	2back	Block1	2back/STIM_039.jpg	100
493.94	0.828	828.0	2back	Block1	2back/STIM_039.jpg	100
497.753	0.459	459.4	0back	Block1	0back/STIM_000.jpg	100
501.16	0.677	676.7	0back	Block1	0back/STIM_000.jpg	100
504.643	0.803	803.0	0back	Block1	0back/STIM_000.jpg	99
507.984	0.656	656.0	0back	Block1	0back/STIM_001.jpg	99
511.037	0.732	731.9	0back	Block1	0back/STIM_001.jpg	100
514.658	0.691	691.2	0back	Block1	0back/STIM_001.jpg	99
518.431	0.619	618.7	0back	Block1	0back/STIM_002.jpg	100
522.513	0.489	488.8	0back	Block1	0back/STIM_002.jpg	100
526.873	0.572	571.8	0back	Block1	0back/STIM_002.jpg	99
531.09	0.535	535.4	0back	Block1	0back/STIM_003.jpg	100
534.06	0.654	653.5	0back	Block1	0back/STIM_003.jpg	100
537.356	0.52	519.8	0back	Block1	0back/STIM_003.jpg	99
541.788	0.768	768.0	0back	Block1	0back/STIM_004.jpg	99
545.201	0.474	474.1	0back	Block1	0back/STIM_004.jpg	100
548.231	0.663	663.1	0back	Block1	0back/STIM_004.jpg	100
551.405	0.819	819.2	0back	Block1	0back/STIM_005.jpg	99
554.484	0.501	501.0	0back	Block1	0back/STIM_005.jpg	100
557.79	0.576	576.5	0back	Block1	0back/STIM_005.jpg	100
561.589	0.578	578.5	0back	Block1	0back/STIM_006.jpg	99
564.937	0.451	450.9	0back	Block1	0back/STIM_006.jpg	99
568.661	0.705	705.2	0back	Block1	0back/STIM_006.jpg	100
572.322	0.512	512.4	0back	Block1	0back/STIM_007.jpg	99
575.97	0.618	618.3	0back	Block1	0back/STIM_007.jpg	100
579.679	0.499	499.4	0back	Block1	0back/STIM_007.jpg	100
583.485	0.537	536.6	0back	Block1	0back/STIM_008.jpg	100
586.7	0.513	513.2	0back	Block1	0back/STIM_008.jpg	99
589.812	0.449	448.8	0back	Block1	0back/STIM_008.jpg	100
594.006	0.825	825.4	0back	Block1	0back/STIM_009.jpg	100
598.784	0.863	863.2	0back	Block1	0back/STIM_009.jpg	100
603.297	0.612	611.8	0back	Block1	0back/STIM_009.jpg	100
606.882	0.747	746.6	0back	Block1	0back/STIM_010.jpg	100
611.364	0.655	654.9	0back	Block1	0back/STIM_010.jpg	99
614.631	0.738	738.2	0back	Block1	0back/STIM_010.jpg	99
617.564	0.82	820.2	0back	Block1	0back/STIM_011.jpg	100
621.684	0.523	523.3	0back	Block1	0back/STIM_011.jpg	99
625.306	0.753	753.4	0back	Block1	0back/STIM_011.jpg	99
629.578	0.646	645.7	0back	Block1	0back/STIM_012.jpg	99
633.514	0.543	543.0	0back	Block1	0back/STIM_012.jpg	100
636.72	0.629	628.7	0back	Block1	0back/STIM_012.jpg	99
639.679	0.516	516.3	0back	Block1	0back/STIM_013.jpg	100
643.66	0.772	772.2	0back	Block1	0back/STIM_013.jpg	100
648.337	0.647	646.8	0back	Block1	0back/STIM_013.jpg	100
651.281	0.594	594.5	0back	Block1	0back/STIM_014.jpg	99
655.623	0.617	616.6	0back	Block1	0back/STIM_014.jpg	100
660.15	0.639	638.9	0back	Block1	0back/STIM_014.jpg	99
663.665	0.86	860.3	0back	Block1	0back/STIM_015.jpg	99
667.684	0.839	839.1	0back	Block1	0back/STIM_015.jpg	100
671.886	0.476	476.5	0back	Block1	0back/STIM_015.jpg	100
674.884	0.745	745.1	0back	Block1	0back/STIM_016.jpg	99
679.03	0.642	642.4	0back	Block1	0back/STIM_016.jpg	99
683.002	0.461	461.0	0back	Block1	0back/STIM_016.jpg	99
685.488	0.839	839.0	0back	Block1	0back/STIM_017.jpg	100
688.94	0.663	663.4	0back	Block1	0back/STIM_017.jpg	99
692.013	0.548	547.6	0back	Block1	0back/STIM_017.jpg	99
694.84	0.683	682.6	0back	Block1	0back/STIM_018.jpg	99
697.733	0.655	655.3	0back	Block1	0back/STIM_018.jpg	100
700.979	0.818	817.6	0back	Block1	0back/STIM_018.jpg	100
704.414	0.864	863.5	0back	Block1	0back/STIM_019.jpg	100
707.395	0.764	764.3	0back	Block1	0back/STIM_019.jpg	100
710.313	0.443	443.0	0back	Block1	0back/STIM_019.jpg	99
713.4	0.908	908.0	2back	Block2	2back/STIM_000.jpg	99
716.865	0.979	978.9	2back	Block2	2back/STIM_000.jpg	100
720.04	0.962	961.5	2back	Block2	2back/STIM_000.jpg	100
723.054	1.048	1047.9	2back	Block2	2back/STIM_001.jpg	100
726.304	0.953	952.8	2back	Block2	2back/STIM_001.jpg	100
730.129	0.846	845.5	2back	Block2	2back/STIM_001.jpg	100
733.114	0.807	807.4	2back	Block2	2back/STIM_002.jpg	99
737.047	1.212	1212.5	2back	Block2	2back/STIM_002.jpg	100
741.276	0.6	600.1	2back	Block2	2back/STIM_002.jpg	100
745.377	0.698	698.5	2back	Block2	2back/STIM_003.jpg	99
749.871	0.621	621.4	2back	Block2	2back/STIM_003.jpg	100
752.703	1.006	1005.7	2back	Block2	2back/STIM_003.jpg	99
756.128	0.698	698.5	2back	Block2	2back/STIM_004.jpg	99
759.878	1.075	1074.7	2back	Block2	2back/STIM_004.jpg	99
763.207	0.95	950.3	2back	Block2	2back/STIM_004.jpg	100
767.169	1.229	1228.6	2back	Block2	2back/STIM_005.jpg	99
770.704	0.64	640.4	2back	Block2	2back/STIM_005.jpg	99
774.963	1.075	1074.7	2back	Block2	2back/STIM_005.jpg	99
779.732	0.711	710.9	2back	Block2	2back/STIM_006.jpg	100
783.097	0.867	866.6	2back	Block2	2back/STIM_006.jpg	100
786.073	0.754	754.0	2back	Block2	2back/STIM_006.jpg	99
790.22	0.847	846.6	2back	Block2	2back/STIM_007.jpg	99
794.919	0.73	730.5	2back	Block2	2back/STIM_007.jpg	100
798.365	0.955	954.6	2back	Block2	2back/STIM_007.jpg	100
803.079	1.153	1152.8	2back	Block2	2back/STIM_008.jpg	100
806.92	0.738	738.5	2back	Block2	2back/STIM_008.jpg	100
810.548	0.825	824.7	2back	Block2	2back/STIM_008.jpg	100
814.497	0.834	833.8	2back	Block2	2back/STIM_009.jpg	100
817.811	0.942	941.7	2back	Block2	2back/STIM_009.jpg	100
821.025	0.672	671.9	2back	Block2	2back/STIM_009.jpg	100
824.312	1.121	1121.2	2back	Block2	2back/STIM_010.jpg	99
828.961	0.912	912.4	2back	Block2	2back/STIM_010.jpg	100
832.3	0.904	904.0	2back	Block2	2back/STIM_010.jpg	100
836.095	1.093	1093.4	2back	Block2	2back/STIM_011.jpg	99
840.288	0.713	712.9	2back	Block2	2back/STIM_011.jpg	99
843.505	1.012	1012.5	2back	Block2	2back/STIM_011.jpg	99
848.083	0.786	786.5	2back	Block2	2back/STIM_012.jpg	99
851.957	0.97	969.5	2back	Block2	2back/STIM_012.jpg	99
856.913	0.962	961.6	2back	Block2	2back/STIM_012.jpg	99
860.074	0.672	672.1	2back	Block2	2back/STIM_013.jpg	99
864.423	0.674	673.9	2back	Block2	2back/STIM_013.jpg	100
869.07	1.047	1046.8	2back	Block2	2back/STIM_013.jpg	99
873.542	0.672	672.2	2back	Block2	2back/STIM_014.jpg	99
877.14	0.916	915.5	2back	Block2	2back/STIM_014.jpg	99
881.053	0.971	971.1	2back	Block2	2back/STIM_014.jpg	99
884.528	0.988	987.6	2back	Block2	2back/STIM_015.jpg	100
889.051	0.998	998.0	2back	Block2	2back/STIM_015.jpg	99
893.025	0.82	820.0	2back	Block2	2back/STIM_015.jpg	100
897.39	0.764	763.8	2back	Block2	2back/STIM_016.jpg	99
901.25	0.582	581.6	2back	Block2	2back/STIM_016.jpg	99
905.231	0.819	818.8	2back	Block2	2back/STIM_016.jpg	99
909.627	1.211	1210.7	2back	Block2	2back/STIM_017.jpg	99
913.232	0.552	552.5	2back	Block2	2back/STIM_017.jpg	100
917.096	0.66	660.2	2back	Block2	2back/STIM_017.jpg	99
919.799	1.261	1261.2	2back	Block2	2back/STIM_018.jpg	99
923.775	1.146	1145.8	2back	Block2	2back/STIM_018.jpg	99
927.846	0.54	539.7	2back	Block2	2back/STIM_018.jpg	99
930.482	0.731	730.7	2back	Block2	2back/STIM_019.jpg	100
934.968	0.701	701.2	2back	Block2	2back/STIM_019.jpg	99
939.268	0.52	520.4	2back	Block2	2back/STIM_019.jpg	100
942.257	0.628	628.5	2back	Block2	2back/STIM_020.jpg	99
946.125	1.16	1159.7	2back	Block2	2back/STIM_020.jpg	99
949.523	0.969	968.7	2back	Block2	2back/STIM_020.jpg	100
954.024	0.805	805.2	2back	Block2	2back/STIM_021.jpg	99
957.772	1.155	1155.1	2back	Block2	2back/STIM_021.jpg	100
961.307	0.766	765.8	2back	Block2	2back/STIM_021.jpg	99
964.923	0.907	907.0	2back	Block2	2back/STIM_022.jpg	100
969.016	0.671	670.9	2back	Block2	2back/STIM_022.jpg	99
972.463	0.597	596.8	2back	Block2	2back/STIM_022.jpg	99
975.818	0.856	856.5	2back	Block2	2back/STIM_023.jpg	100
980.193	0.982	982.5	2back	Block2	2back/STIM_023.jpg	100
983.379	0.702	701.7	2back	Block2	2back/STIM_023.jpg	99
986.728	1.21	1209.5	2back	Block2	2back/STIM_024.jpg	99
991.373	1.194	1193.7	2back	Block2	2back/STIM_024.jpg	100
996.454	0.846	846.1	2back	Block2	2back/STIM_024.jpg	99
1000.022	0.58	580.4	2back	Block2	2back/STIM_025.jpg	100
1004.25	0.94	940.2	2back	Block2	2back/STIM_025.jpg	100
1008.639	0.714	713.5	2back	Block2	2back/STIM_025.jpg	99
1013.028	0.998	998.0	2back	Block2	2back/STIM_026.jpg	100
1017.576	0.79	789.9	2back	Block2	2back/STIM_026.jpg	100
1021.443	1.08	1080.3	2back	Block2	2back/STIM_026.jpg	100
1025.48	0.571	570.9	2back	Block2	2back/STIM_027.jpg	100
1028.276	0.865	865.3	2back	Block2	2back/STIM_027.jpg	99
1032.699	0.76	759.5	2back	Block2	2back/STIM_027.jpg	99
1036.391	0.753	752.8	2back	Block2	2back/STIM_028.jpg	99
1039.276	1.067	1067.2	2back	Block2	2back/STIM_028.jpg	100
1042.6	0.763	763.2	2back	Block2	2back/STIM_028.jpg	99
1045.579	0.629	628.9	2back	Block2	2back/STIM_029.jpg	100
1049.771	0.697	696.6	2back	Block2	2back/STIM_029.jpg	99
1053.139	1.142	1142.5	2back	Block2	2back/STIM_029.jpg	100
1056.322	1.172	1171.8	2back	Block2	2back/STIM_030.jpg	100
1060.33	0.96	959.5	2back	Block2	2back/STIM_030.jpg	100
1064.317	0.951	950.7	2back	Block2	2back/STIM_030.jpg	99
1068.443	1.26	1260.4	2back	Block2	2back/STIM_031.jpg	99
1072.006	1.053	1052.7	2back	Block2	2back/STIM_031.jpg	99
1076.818	1.118	1118.3	2back	Block2	2back/STIM_031.jpg	100
1081.639	0.843	842.6	2back	Block2	2back/STIM_032.jpg	100
1086.077	1.117	1116.8	2back	Block2	2back/STIM_032.jpg	99
1089.599	0.899	899.3	2back	Block2	2back/STIM_032.jpg	99
1092.654	0.885	884.6	2back	Block2	2back/STIM_033.jpg	99
1097.217	0.699	699.3	2back	Block2	2back/STIM_033.jpg	99
1100.783	1.008	1008.4	2back	Block2	2back/STIM_033.jpg	99
1104.648	1.173	1172.9	2back	Block2	2back/STIM_034.jpg	99
1108.847	1.017	1016.8	2back	Block2	2back/STIM_034.jpg	100
1113.822	0.712	712.1	2back	Block2	2back/STIM_034.jpg	99
1118.176	1.04	1039.5	2back	Block2	2back/STIM_035.jpg	99
1121.566	0.913	912.7	2back	Block2	2back/STIM_035.jpg	99
1125.314	0.95	949.6	2back	Block2	2back/STIM_035.jpg	99
1129.424	1.122	1121.8	2back	Block2	2back/STIM_036.jpg	100
1132.948	0.794	793.9	2back	Block2	2back/STIM_036.jpg	99
1135.973	0.95	949.7	2back	Block2	2back/STIM_036.jpg	99
1140.156	0.722	722.5	2back	Block2	2back/STIM_037.jpg	100
1143.676	1.192	1191.7	2back	Block2	2back/STIM_037.jpg	99
1147.444	0.598	598.5	2back	Block2	2back/STIM_037.jpg	100
1150.836	1.13	1129.6	2back	Block2	2back/STIM_038.jpg	99
1154.775	0.742	741.8	2back	Block2	2back/STIM_038.jpg	99
1157.604	0.492	492.5	2back	Block2	2back/STIM_038.jpg	100
1160.383	1.212	1212.0	2back	Block2	2back/STIM_039.jpg	99
1164.621	0.815	815.1	2back	Block2	2back/STIM_039.jpg	100
1167.665	0.769	769.3	2back	Block2	2back/STIM_039.jpg	99
1172.387	0.48	480.3	0back	Block2	0back/STIM_000.jpg	100
1176.114	0.545	545.1	0back	Block2	0back/STIM_000.jpg	100
1179.225	0.808	808.4	0back	Block2	0back/STIM_000.jpg	99
1182.61	0.55	550.4	0back	Block2	0back/STIM_001.jpg	99
1185.888	0.521	520.9	0back	Block2	0back/STIM_001.jpg	100
1188.81	0.622	622.4	0back	Block2	0back/STIM_001.jpg	100
1192.748	0.546	546.1	0back	Block2	0back/STIM_002.jpg	99
1195.424	0.585	585.2	0back	Block2	0back/STIM_002.jpg	99
1199.858	0.726	725.7	0back	Block2	0back/STIM_002.jpg	100
1203.343	0.836	836.4	0back	Block2	0back/STIM_003.jpg	100
1208.094	0.54	540.5	0back	Block2	0back/STIM_003.jpg	99
1211.045	0.524	523.7	0back	Block2	0back/STIM_003.jpg	100
1214.956	0.558	558.1	0back	Block2	0back/STIM_004.jpg	100
1218.771	0.82	819.5	0back	Block2	0back/STIM_004.jpg	99
1221.97	0.529	529.0	0back	Block2	0back/STIM_004.jpg	99
1226.015	0.864	864.3	0back	Block2	0back/STIM_005.jpg	100
1229.625	0.714	713.6	0back	Block2	0back/STIM_005.jpg	100
1233.628	0.83	829.9	0back	Block2	0back/STIM_005.jpg	100
1236.877	0.532	532.3	0back	Block2	0back/STIM_006.jpg	99
1241.073	0.708	708.0	0back	Block2	0back/STIM_006.jpg	100
1245.672	0.76	759.6	0back	Block2	0back/STIM_006.jpg	100
1249.295	0.544	543.8	0back	Block2	0back/STIM_007.jpg	99
1253.477	0.492	492.4	0back	Block2	0back/STIM_007.jpg	99
1256.758	0.53	530.1	0back	Block2	0back/STIM_007.jpg	100
1260.46	0.537	536.6	0back	Block2	0back/STIM_008.jpg	100
1264.123	0.7	700.0	0back	Block2	0back/STIM_008.jpg	100
1267.004	0.489	489.0	0back	Block2	0back/STIM_008.jpg	100
1270.855	0.566	566.4	0back	Block2	0back/STIM_009.jpg	99
1274.7	0.837	837.0	0back	Block2	0back/STIM_009.jpg	100
1277.895	0.59	590.4	0back	Block2	0back/STIM_009.jpg	100
1282.377	0.496	496.0	0back	Block2	0back/STIM_010.jpg	100
1285.253	0.87	869.6	0back	Block2	0back/STIM_010.jpg	99
1289.495	0.796	796.3	0back	Block2	0back/STIM_010.jpg	100
1292.984	0.49	490.0	0back	Block2	0back/STIM_011.jpg	100
1296.089	0.664	664.0	0back	Block2	0back/STIM_011.jpg	100
1298.86	0.615	615.2	0back	Block2	0back/STIM_011.jpg	99
1302.945	0.665	665.1	0back	Block2	0back/STIM_012.jpg	99
1306.008	0.565	565.4	0back	Block2	0back/STIM_012.jpg	99
1310.091	0.751	750.7	0back	Block2	0back/STIM_012.jpg	99
1313.206	0.579	579.3	0back	Block2	0back/STIM_013.jpg	100
1315.882	0.696	696.3	0back	Block2	0back/STIM_013.jpg	100
1320.139	0.478	478.0	0back	Block2	0back/STIM_013.jpg	100
1323.112	0.666	665.9	0back	Block2	0back/STIM_014.jpg	99
1327.229	0.526	526.3	0back	Block2	0back/STIM_014.jpg	99
1331.125	0.495	495.3	0back	Block2	0back/STIM_014.jpg	99
1335.22	0.548	548.2	0back	Block2	0back/STIM_015.jpg	100
1337.929	0.867	867.2	0back	Block2	0back/STIM_015.jpg	99
1341.72	0.594	593.7	0back	Block2	0back/STIM_015.jpg	99
1345.284	0.66	660.4	0back	Block2	0back/STIM_016.jpg	99
1349.049	0.549	548.7	0back	Block2	0back/STIM_016.jpg	99
1353.408	0.478	477.7	0back	Block2	0back/STIM_016.jpg	99
1357.692	0.653	653.2	0back	Block2	0back/STIM_017.jpg	99
1360.642	0.63	629.6	0back	Block2	0back/STIM_017.jpg	100
1364.916	0.707	707.3	0back	Block2	0back/STIM_017.jpg	99
1367.633	0.516	515.6	0back	Block2	0back/STIM_018.jpg	99
1372.023	0.736	736.4	0back	Block2	0back/STIM_018.jpg	99
1376.18	0.484	483.8	0back	Block2	0back/STIM_018.jpg	100
1380.02	0.842	842.3	0back	Block2	0back/STIM_019.jpg	100
1383.317	0.794	794.4	0back	Block2	0back/STIM_019.jpg	100
1387.002	0.473	472.6	0back	Block2	0back/STIM_019.jpg	99
1390.97	0.464	463.8	2back	Block3	2back/STIM_000.jpg	100
1393.865	0.811	810.8	2back	Block3	2back/STIM_000.jpg	100
1398.257	0.929	928.8	2back	Block3	2back/STIM_000.jpg	100
1401.54	0.902	902.3	2back	Block3	2back/STIM_001.jpg	99
1404.899	0.673	672.6	2back	Block3	2back/STIM_001.jpg	99
1407.889	1.046	1046.3	2back	Block3	2back/STIM_001.jpg	100
1412.766	1.0	999.7	2back	Block3	2back/STIM_002.jpg	100
1415.96	0.949	949.1	2back	Block3	2back/STIM_002.jpg	100
1420.519	1.039	1038.8	2back	Block3	2back/STIM_002.jpg	99
1424.391	0.502	502.4	2back	Block3	2back/STIM_003.jpg	100
1428.446	0.638	637.6	2back	Block3	2back/STIM_003.jpg	99
1431.899	0.871	871.3	2back	Block3	2back/STIM_003.jpg	99
1435.739	0.591	590.9	2back	Block3	2back/STIM_004.jpg	100
1438.467	0.581	580.7	2back	Block3	2back/STIM_004.jpg	99
1442.304	0.977	976.6	2back	Block3	2back/STIM_004.jpg	99
1446.188	1.01	1009.5	2back	Block3	2back/STIM_005.jpg	99
1449.431	0.579	578.8	2back	Block3	2back/STIM_005.jpg	99
1452.03	0.466	465.5	2back	Block3	2back/STIM_005.jpg	100
1455.082	0.728	728.3	2back	Block3	2back/STIM_006.jpg	99
1459.435	1.035	1035.3	2back	Block3	2back/STIM_006.jpg	100
1463.758	0.551	551.2	2back	Block3	2back/STIM_006.jpg	100
1466.601	1.054	1053.9	2back	Block3	2back/STIM_007.jpg	99
1469.948	0.55	549.9	2back	Block3	2back/STIM_007.jpg	99
1472.954	0.695	695.0	2back	Block3	2back/STIM_007.jpg	100
1476.197	0.713	713.3	2back	Block3	2back/STIM_008.jpg	99
1479.357	0.52	520.0	2back	Block3	2back/STIM_008.jpg	100
1483.546	0.777	777.0	2back	Block3	2back/STIM_008.jpg	100
1488.015	0.762	762.5	2back	Block3	2back/STIM_009.jpg	99
1491.636	0.856	856.3	2back	Block3	2back/STIM_009.jpg	100
1495.773	0.902	902.4	2back	Block3	2back/STIM_009.jpg	100
1500.661	0.841	840.8	2back	Block3	2back/STIM_010.jpg	100
1504.012	0.52	520.2	2back	Block3	2back/STIM_010.jpg	99
1508.057	0.931	931.3	2back	Block3	2back/STIM_010.jpg	100
1512.279	0.699	698.6	2back	Block3	2back/STIM_011.jpg	100
1516.084	0.674	674.4	2back	Block3	2back/STIM_011.jpg	100
1520.382	1.032	1032.0	2back	Block3	2back/STIM_011.jpg	99
1524.527	0.783	782.7	2back	Block3	2back/STIM_012.jpg	99
1528.227	1.03	1029.9	2back	Block3	2back/STIM_012.jpg	99
1531.48	0.753	752.6	2back	Block3	2back/STIM_012.jpg	99
1534.628	0.474	473.6	2back	Block3	2back/STIM_013.jpg	99
1537.369	0.637	636.6	2back	Block3	2back/STIM_013.jpg	100
1540.875	0.648	648.3	2back	Block3	2back/STIM_013.jpg	100
1545.372	0.615	615.2	2back	Block3	2back/STIM_014.jpg	100
1548.805	0.852	852.2	2back	Block3	2back/STIM_014.jpg	99
1552.643	0.866	866.0	2back	Block3	2back/STIM_014.jpg	99
1556.756	0.681	680.7	2back	Block3	2back/STIM_015.jpg	99
1560.848	0.982	982.4	2back	Block3	2back/STIM_015.jpg	99
1565.096	0.645	644.6	2back	Block3	2back/STIM_015.jpg	100
1568.789	0.714	713.5	2back	Block3	2back/STIM_016.jpg	100
1571.94	1.036	1036.1	2back	Block3	2back/STIM_016.jpg	99
1576.842	0.877	877.2	2back	Block3	2back/STIM_016.jpg	100
1581.435	0.81	809.8	2back	Block3	2back/STIM_017.jpg	100
1585.978	0.635	635.1	2back	Block3	2back/STIM_017.jpg	99
1589.345	0.811	810.8	2back	Block3	2back/STIM_017.jpg	100
1592.28	0.473	473.2	2back	Block3	2back/STIM_018.jpg	100
1596.078	0.504	503.9	2back	Block3	2back/STIM_018.jpg	100
1599.937	0.83	830.0	2back	Block3	2back/STIM_018.jpg	100
1603.991	0.557	557.3	2back	Block3	2back/STIM_019.jpg	99
1607.708	0.657	657.4	2back	Block3	2back/STIM_019.jpg	99
1612.15	0.509	509.5	2back	Block3	2back/STIM_019.jpg	100
1615.134	0.685	685.0	2back	Block3	2back/STIM_020.jpg	100
1618.769	0.67	669.9	2back	Block3	2back/STIM_020.jpg	99
1622.847	0.995	995.3	2back	Block3	2back/STIM_020.jpg	100
1627.074	0.817	817.2	2back	Block3	2back/STIM_021.jpg	99
1631.337	0.497	496.7	2back	Block3	2back/STIM_021.jpg	100
1634.308	0.824	824.5	2back	Block3	2back/STIM_021.jpg	100
1637.615	1.059	1058.7	2back	Block3	2back/STIM_022.jpg	100
1641.098	0.752	752.2	2back	Block3	2back/STIM_022.jpg	100
1644.664	0.735	734.6	2back	Block3	2back/STIM_022.jpg	99
1648.641	0.73	730.2	2back	Block3	2back/STIM_023.jpg	99
1651.553	0.629	629.1	2back	Block3	2back/STIM_023.jpg	100
1654.449	0.464	464.5	2back	Block3	2back/STIM_023.jpg	100
1658.662	0.794	794.2	2back	Block3	2back/STIM_024.jpg	100
1663.064	0.552	551.9	2back	Block3	2back/STIM_024.jpg	100
1666.639	0.536	535.6	2back	Block3	2back/STIM_024.jpg	100
1669.582	0.541	541.3	2back	Block3	2back/STIM_025.jpg	99
1673.395	0.708	708.0	2back	Block3	2back/STIM_025.jpg	100
1676.494	0.778	777.9	2back	Block3	2back/STIM_025.jpg	99
1679.655	0.472	472.4	2back	Block3	2back/STIM_026.jpg	100
1683.652	0.658	658.4	2back	Block3	2back/STIM_026.jpg	100
1687.954	0.667	666.9	2back	Block3	2back/STIM_026.jpg	99
1691.48	0.478	478.4	2back	Block3	2back/STIM_027.jpg	99
1694.862	0.607	606.8	2back	Block3	2back/STIM_027.jpg	99
1698.856	0.761	761.2	2back	Block3	2back/STIM_027.jpg	100
1702.296	0.642	642.0	2back	Block3	2back/STIM_028.jpg	100
1706.121	1.03	1029.9	2back	Block3	2back/STIM_028.jpg	99
1711.143	0.995	994.6	2back	Block3	2back/STIM_028.jpg	100
1715.43	0.654	654.5	2back	Block3	2back/STIM_029.jpg	99
1719.755	0.548	548.3	2back	Block3	2back/STIM_029.jpg	100
1722.392	0.94	939.7	2back	Block3	2back/STIM_029.jpg	100
1725.362	0.495	494.8	2back	Block3	2back/STIM_030.jpg	99
1728.412	1.05	1050.5	2back	Block3	2back/STIM_030.jpg	99
1731.885	1.012	1012.1	2back	Block3	2back/STIM_030.jpg	100
1736.873	0.561	560.9	2back	Block3	2back/STIM_031.jpg	100
1739.953	0.987	987.1	2back	Block3	2back/STIM_031.jpg	99
1743.739	0.683	682.8	2back	Block3	2back/STIM_031.jpg	100
1746.62	0.776	776.4	2back	Block3	2back/STIM_032.jpg	100
1750.799	0.541	540.9	2back	Block3	2back/STIM_032.jpg	100
1753.443	0.647	647.1	2back	Block3	2back/STIM_032.jpg	99
1757.061	0.972	972.1	2back	Block3	2back/STIM_033.jpg	99
1760.713	0.609	608.6	2back	Block3	2back/STIM_033.jpg	100
1764.244	0.843	843.0	2back	Block3	2back/STIM_033.jpg	99
1768.921	0.86	859.5	2back	Block3	2back/STIM_034.jpg	99
1773.081	0.718	717.5	2back	Block3	2back/STIM_034.jpg	100
1776.802	0.498	497.6	2back	Block3	2back/STIM_034.jpg	100
1780.483	0.795	794.9	2back	Block3	2back/STIM_035.jpg	99
1785.254	0.923	923.3	2back	Block3	2back/STIM_035.jpg	99
1789.725	0.516	515.9	2back	Block3	2back/STIM_035.jpg	100
1792.916	0.749	748.8	2back	Block3	2back/STIM_036.jpg	99
1795.667	0.528	527.7	2back	Block3	2back/STIM_036.jpg	99
1798.326	0.859	859.1	2back	Block3	2back/STIM_036.jpg	100
1803.101	0.504	503.7	2back	Block3	2back/STIM_037.jpg	100
1806.02	0.946	945.7	2back	Block3	2back/STIM_037.jpg	99
1809.081	0.627	626.6	2back	Block3	2back/STIM_037.jpg	99
1813.332	0.762	762.4	2back	Block3	2back/STIM_038.jpg	99
1816.283	0.722	721.7	2back	Block3	2back/STIM_038.jpg	99
1820.875	0.489	488.8	2back	Block3	2back/STIM_038.jpg	100
1824.0	0.668	668.4	2back	Block3	2back/STIM_039.jpg	99
1826.906	0.526	525.8	2back	Block3	2back/STIM_039.jpg	99
1831.187	1.028	1027.8	2back	Block3	2back/STIM_039.jpg	100
1836.085	0.564	564.1	0back	Block3	0back/STIM_000.jpg	100
1840.248	0.761	761.2	0back	Block3	0back/STIM_000.jpg	100
1844.454	0.661	661.3	0back	Block3	0back/STIM_000.jpg	99
1847.62	0.661	660.6	0back	Block3	0back/STIM_001.jpg	99
1852.097	0.539	539.1	0back	Block3	0back/STIM_001.jpg	99
1855.572	0.603	602.7	0back	Block3	0back/STIM_001.jpg	100
1858.265	0.64	640.4	0back	Block3	0back/STIM_002.jpg	100
1862.244	0.67	670.3	0back	Block3	0back/STIM_002.jpg	99
1865.949	0.59	590.1	0back	Block3	0back/STIM_002.jpg	99
1868.589	0.724	724.4	0back	Block3	0back/STIM_003.jpg	100
1871.854	0.768	767.7	0back	Block3	0back/STIM_003.jpg	100
1875.755	0.755	755.3	0back	Block3	0back/STIM_003.jpg	100
1878.52	0.827	827.4	0back	Block3	0back/STIM_004.jpg	99
1882.05	0.535	534.9	0back	Block3	0back/STIM_004.jpg	100
1884.741	0.456	455.8	0back	Block3	0back/STIM_004.jpg	99
1888.391	0.581	581.2	0back	Block3	0back/STIM_005.jpg	99
1891.712	0.767	767.2	0back	Block3	0back/STIM_005.jpg	99
1896.386	0.65	649.9	0back	Block3	0back/STIM_005.jpg	99
1899.109	0.752	751.7	0back	Block3	0back/STIM_006.jpg	99
1903.394	0.783	782.9	0back	Block3	0back/STIM_006.jpg	100
1906.541	0.596	595.9	0back	Block3	0back/STIM_006.jpg	100
1909.247	0.558	557.5	0back	Block3	0back/STIM_007.jpg	100
1912.308	0.759	758.7	0back	Block3	0back/STIM_007.jpg	99
1916.541	0.562	562.5	0back	Block3	0back/STIM_007.jpg	100
1919.415	0.626	625.8	0back	Block3	0back/STIM_008.jpg	100
1922.934	0.551	550.8	0back	Block3	0back/STIM_008.jpg	99
1926.89	0.542	542.3	0back	Block3	0back/STIM_008.jpg	99
1930.354	0.618	618.2	0back	Block3	0back/STIM_009.jpg	100
1933.437	0.556	556.2	0back	Block3	0back/STIM_009.jpg	100
1936.416	0.659	658.9	0back	Block3	0back/STIM_009.jpg	100
1939.53	0.529	529.0	0back	Block3	0back/STIM_010.jpg	99
1942.369	0.62	619.5	0back	Block3	0back/STIM_010.jpg	99
1946.476	0.79	790.1	0back	Block3	0back/STIM_010.jpg	99
1949.818	0.79	790.0	0back	Block3	0back/STIM_011.jpg	100
1953.738	0.51	510.2	0back	Block3	0back/STIM_011.jpg	99
1956.283	0.868	867.8	0back	Block3	0back/STIM_011.jpg	99
1960.663	0.861	860.8	0back	Block3	0back/STIM_012.jpg	100
1964.981	0.755	754.6	0back	Block3	0back/STIM_012.jpg	99
1968.866	0.635	634.7	0back	Block3	0back/STIM_012.jpg	100
1972.498	0.791	791.1	0back	Block3	0back/STIM_013.jpg	100
1975.751	0.483	483.4	0back	Block3	0back/STIM_013.jpg	99
1979.17	0.791	791.2	0back	Block3	0back/STIM_013.jpg	100
1982.107	0.663	662.8	0back	Block3	0back/STIM_014.jpg	99
1985.927	0.656	655.6	0back	Block3	0back/STIM_014.jpg	100
1990.306	0.505	504.7	0back	Block3	0back/STIM_014.jpg	99
1993.967	0.789	788.7	0back	Block3	0back/STIM_015.jpg	100
1997.94	0.706	705.7	0back	Block3	0back/STIM_015.jpg	99
2001.333	0.684	684.3	0back	Block3	0back/STIM_015.jpg	100
2004.147	0.839	839.4	0back	Block3	0back/STIM_016.jpg	99
2007.884	0.64	640.1	0back	Block3	0back/STIM_016.jpg	100
2011.731	0.545	545.2	0back	Block3	0back/STIM_016.jpg	100
2015.289	0.661	661.3	0back	Block3	0back/STIM_017.jpg	100
2019.485	0.728	727.5	0back	Block3	0back/STIM_017.jpg	99
2023.836	0.765	765.0	0back	Block3	0back/STIM_017.jpg	99
2026.805	0.542	541.8	0back	Block3	0back/STIM_018.jpg	99
2030.717	0.869	868.6	0back	Block3	0back/STIM_018.jpg	100
2035.172	0.45	450.2	0back	Block3	0back/STIM_018.jpg	99
2039.594	0.857	856.7	0back	Block3	0back/STIM_019.jpg	99
2043.755	0.489	488.6	0back	Block3	0back/STIM_019.jpg	100
2047.368	0.714	713.6	0back	Block3	0back/STIM_019.jpg	99
2051.003	0.934	934.1	2back	Block4	2back/STIM_000.jpg	99
2055.819	0.58	580.3	2back	Block4	2back/STIM_000.jpg	99
2058.723	0.488	487.9	2back	Block4	2back/STIM_000.jpg	99
2062.857	0.649	648.9	2back	Block4	2back/STIM_001.jpg	100
2066.157	0.938	937.9	2back	Block4	2back/STIM_001.jpg	99
2069.15	0.957	956.8	2back	Block4	2back/STIM_001.jpg	99
2073.537	0.884	883.6	2back	Block4	2back/STIM_002.jpg	99
2076.897	0.941	940.7	2back	Block4	2back/STIM_002.jpg	100
2081.648	0.813	812.9	2back	Block4	2back/STIM_002.jpg	100
2086.25	0.549	548.7	2back	Block4	2back/STIM_003.jpg	100
2090.268	0.506	506.5	2back	Block4	2back/STIM_003.jpg	100
2092.792	0.548	547.7	2back	Block4	2back/STIM_003.jpg	100
2095.368	1.057	1056.8	2back	Block4	2back/STIM_004.jpg	99
2098.475	0.764	763.8	2back	Block4	2back/STIM_004.jpg	99
2101.633	0.463	463.0	2back	Block4	2back/STIM_004.jpg	99
2104.472	0.707	707.3	2back	Block4	2back/STIM_005.jpg	100
2108.014	0.721	721.2	2back	Block4	2back/STIM_005.jpg	100
2112.248	0.542	542.3	2back	Block4	2back/STIM_005.jpg	99
2116.591	0.651	650.7	2back	Block4	2back/STIM_006.jpg	99
2120.108	0.532	531.9	2back	Block4	2back/STIM_006.jpg	99
2123.131	0.79	790.5	2back	Block4	2back/STIM_006.jpg	100
2127.073	0.926	926.5	2back	Block4	2back/STIM_007.jpg	100
2130.953	0.624	624.4	2back	Block4	2back/STIM_007.jpg	100
2134.531	0.955	955.3	2back	Block4	2back/STIM_007.jpg	100
2138.61	0.599	599.2	2back	Block4	2back/STIM_008.jpg	100
2141.853	0.781	780.6	2back	Block4	2back/STIM_008.jpg	99
2146.235	0.842	841.5	2back	Block4	2back/STIM_008.jpg	100
2150.848	0.964	963.9	2back	Block4	2back/STIM_009.jpg	100
2154.984	0.48	479.7	2back	Block4	2back/STIM_009.jpg	99
2158.256	0.557	556.6	2back	Block4	2back/STIM_009.jpg	99
2162.147	0.778	778.1	2back	Block4	2back/STIM_010.jpg	100
2164.969	0.992	991.9	2back	Block4	2back/STIM_010.jpg	99
2168.12	0.53	530.1	2back	Block4	2back/STIM_010.jpg	99
2172.435	1.044	1043.7	2back	Block4	2back/STIM_011.jpg	100
2175.943	0.701	701.4	2back	Block4	2back/STIM_011.jpg	100
2179.4	0.556	556.4	2back	Block4	2back/STIM_011.jpg	99
2182.99	0.966	965.6	2back	Block4	2back/STIM_012.jpg	99
2187.423	0.947	946.6	2back	Block4	2back/STIM_012.jpg	100
2190.493	0.702	702.1	2back	Block4	2back/STIM_012.jpg	99
2193.99	0.746	745.7	2back	Block4	2back/STIM_013.jpg	100
2198.293	0.96	960.2	2back	Block4	2back/STIM_013.jpg	99
2202.851	0.564	564.4	2back	Block4	2back/STIM_013.jpg	100
2207.12	0.659	658.8	2back	Block4	2back/STIM_014.jpg	99
2211.482	0.637	637.4	2back	Block4	2back/STIM_014.jpg	100
2215.874	0.539	539.4	2back	Block4	2back/STIM_014.jpg	99
2218.8	0.467	466.8	2back	Block4	2back/STIM_015.jpg	100
2221.288	0.671	671.3	2back	Block4	2back/STIM_015.jpg	99
2224.787	0.506	505.8	2back	Block4	2back/STIM_015.jpg	100
2227.923	0.779	778.6	2back	Block4	2back/STIM_016.jpg	100
2231.1	0.513	512.7	2back	Block4	2back/STIM_016.jpg	99
2234.289	0.683	683.2	2back	Block4	2back/STIM_016.jpg	100
2238.95	0.51	509.8	2back	Block4	2back/STIM_017.jpg	100
2241.518	0.576	575.8	2back	Block4	2back/STIM_017.jpg	100
2244.349	0.508	508.5	2back	Block4	2back/STIM_017.jpg	99
2247.548	1.068	1067.6	2back	Block4	2back/STIM_018.jpg	99
2250.716	0.759	758.9	2back	Block4	2back/STIM_018.jpg	99
2255.466	0.671	671.3	2back	Block4	2back/STIM_018.jpg	99
2259.391	0.634	634.4	2back	Block4	2back/STIM_019.jpg	99
2263.781	0.944	944.3	2back	Block4	2back/STIM_019.jpg	100
2267.042	0.594	594.3	2back	Block4	2back/STIM_019.jpg	100
2270.717	1.006	1006.4	2back	Block4	2back/STIM_020.jpg	99
2274.814	0.923	923.1	2back	Block4	2back/STIM_020.jpg	99
2279.724	0.828	827.5	2back	Block4	2back/STIM_020.jpg	100
2282.884	0.86	860.4	2back	Block4	2back/STIM_021.jpg	100
2287.173	0.622	621.9	2back	Block4	2back/STIM_021.jpg	100
2291.077	0.999	999.4	2back	Block4	2back/STIM_021.jpg	99
2294.389	0.789	789.0	2back	Block4	2back/STIM_022.jpg	99
2297.608	1.049	1048.9	2back	Block4	2back/STIM_022.jpg	99
2300.876	0.609	609.0	2back	Block4	2back/STIM_022.jpg	99
2303.831	0.661	660.7	2back	Block4	2back/STIM_023.jpg	99
2307.809	0.824	823.9	2back	Block4	2back/STIM_023.jpg	100
2312.393	0.725	724.7	2back	Block4	2back/STIM_023.jpg	99
2316.85	0.879	879.0	2back	Block4	2back/STIM_024.jpg	100
2320.104	0.662	662.0	2back	Block4	2back/STIM_024.jpg	99
2323.909	0.688	687.8	2back	Block4	2back/STIM_024.jpg	99
2328.09	0.912	911.9	2back	Block4	2back/STIM_025.jpg	100
2332.121	1.056	1056.2	2back	Block4	2back/STIM_025.jpg	99
2336.336	0.804	803.8	2back	Block4	2back/STIM_025.jpg	99
2340.615	0.988	988.1	2back	Block4	2back/STIM_026.jpg	100
2345.292	0.692	692.5	2back	Block4	2back/STIM_026.jpg	100
2349.958	0.948	947.6	2back	Block4	2back/STIM_026.jpg	99
2354.213	0.716	715.7	2back	Block4	2back/STIM_027.jpg	99
2358.752	0.475	475.1	2back	Block4	2back/STIM_027.jpg	100
2362.775	0.987	986.7	2back	Block4	2back/STIM_027.jpg	100
2367.488	0.462	461.8	2back	Block4	2back/STIM_028.jpg	99
2370.74	0.563	563.3	2back	Block4	2back/STIM_028.jpg	99
2374.978	0.474	473.6	2back	Block4	2back/STIM_028.jpg	100
2377.513	0.888	887.5	2back	Block4	2back/STIM_029.jpg	100
2380.715	1.047	1047.3	2back	Block4	2back/STIM_029.jpg	99
2385.668	1.03	1030.3	2back	Block4	2back/STIM_029.jpg	100
2389.149	0.652	652.5	2back	Block4	2back/STIM_030.jpg	99
2393.471	1.036	1035.7	2back	Block4	2back/STIM_030.jpg	99
2397.747	0.69	689.8	2back	Block4	2back/STIM_030.jpg	99
2401.855	1.063	1063.0	2back	Block4	2back/STIM_031.jpg	99
2406.773	1.051	1051.0	2back	Block4	2back/STIM_031.jpg	100
2411.654	0.823	822.9	2back	Block4	2back/STIM_031.jpg	100
2416.196	0.947	947.2	2back	Block4	2back/STIM_032.jpg	99
2419.842	0.864	864.3	2back	Block4	2back/STIM_032.jpg	99
2423.259	0.607	607.1	2back	Block4	2back/STIM_032.jpg	99
2426.868	0.86	860.0	2back	Block4	2back/STIM_033.jpg	100
2431.582	0.602	602.4	2back	Block4	2back/STIM_033.jpg	99
2435.506	0.869	869.2	2back	Block4	2back/STIM_033.jpg	99
2440.206	0.548	548.2	2back	Block4	2back/STIM_034.jpg	99
2444.595	1.062	1062.5	2back	Block4	2back/STIM_034.jpg	100
2449.601	0.881	880.7	2back	Block4	2back/STIM_034.jpg	99
2452.932	0.501	501.3	2back	Block4	2back/STIM_035.jpg	99
2456.772	0.634	634.2	2back	Block4	2back/STIM_035.jpg	99
2459.496	0.885	885.1	2back	Block4	2back/STIM_035.jpg	99
2464.002	0.636	635.6	2back	Block4	2back/STIM_036.jpg	99
2468.605	1.014	1013.5	2back	Block4	2back/STIM_036.jpg	100
2471.772	0.576	576.5	2back	Block4	2back/STIM_036.jpg	99
2476.278	0.566	565.6	2back	Block4	2back/STIM_037.jpg	99
2479.987	0.661	661.0	2back	Block4	2back/STIM_037.jpg	99
2482.97	0.889	888.9	2back	Block4	2back/STIM_037.jpg	99
2486.203	0.631	631.0	2back	Block4	2back/STIM_038.jpg	99
2489.292	1.049	1049.3	2back	Block4	2back/STIM_038.jpg	99
2493.354	0.465	464.9	2back	Block4	2back/STIM_038.jpg	99
2497.13	0.777	777.3	2back	Block4	2back/STIM_039.jpg	100
2501.603	0.469	469.3	2back	Block4	2back/STIM_039.jpg	99
2505.426	0.994	994.5	2back	Block4	2back/STIM_039.jpg	99
2508.53	0.605	604.8	0back	Block4	0back/STIM_000.jpg	100
2511.7	0.647	647.1	0back	Block4	0back/STIM_000.jpg	100
2516.239	0.448	447.7	0back	Block4	0back/STIM_000.jpg	100
2520.257	0.795	794.7	0back	Block4	0back/STIM_001.jpg	99
2524.113	0.732	731.7	0back	Block4	0back/STIM_001.jpg	100
2527.04	0.76	759.9	0back	Block4	0back/STIM_001.jpg	100
2531.392	0.64	639.5	0back	Block4	0back/STIM_002.jpg	100
2535.127	0.846	846.3	0back	Block4	0back/STIM_002.jpg	100
2538.065	0.635	635.0	0back	Block4	0back/STIM_002.jpg	99
2542.149	0.696	695.8	0back	Block4	0back/STIM_003.jpg	99
2545.093	0.515	515.1	0back	Block4	0back/STIM_003.jpg	99
2547.685	0.588	587.8	0back	Block4	0back/STIM_003.jpg	100
2551.232	0.587	587.3	0back	Block4	0back/STIM_004.jpg	99
2555.451	0.54	540.4	0back	Block4	0back/STIM_004.jpg	99
2559.981	0.622	622.5	0back	Block4	0back/STIM_004.jpg	99
2562.823	0.79	790.4	0back	Block4	0back/STIM_005.jpg	100
2566.197	0.679	678.6	0back	Block4	0back/STIM_005.jpg	100
2569.317	0.746	746.1	0back	Block4	0back/STIM_005.jpg	100
2573.477	0.605	604.7	0back	Block4	0back/STIM_006.jpg	99
2577.092	0.477	476.9	0back	Block4	0back/STIM_006.jpg	100
2579.802	0.72	719.9	0back	Block4	0back/STIM_006.jpg	99
2582.837	0.856	855.9	0back	Block4	0back/STIM_007.jpg	99
2586.932	0.744	743.5	0back	Block4	0back/STIM_007.jpg	100
2590.306	0.868	868.1	0back	Block4	0back/STIM_007.jpg	100
2593.781	0.558	558.2	0back	Block4	0back/STIM_008.jpg	100
2598.261	0.714	714.1	0back	Block4	0back/STIM_008.jpg	100
2602.94	0.652	651.6	0back	Block4	0back/STIM_008.jpg	99
2606.642	0.666	666.1	0back	Block4	0back/STIM_009.jpg	100
2610.396	0.588	587.5	0back	Block4	0back/STIM_009.jpg	99
2613.491	0.662	661.7	0back	Block4	0back/STIM_009.jpg	99
2617.414	0.465	464.8	0back	Block4	0back/STIM_010.jpg	100
2620.955	0.702	701.5	0back	Block4	0back/STIM_010.jpg	99
2624.817	0.536	536.4	0back	Block4	0back/STIM_010.jpg	99
2628.063	0.671	671.2	0back	Block4	0back/STIM_011.jpg	100
2632.183	0.592	591.8	0back	Block4	0back/STIM_011.jpg	99
2635.72	0.512	512.3	0back	Block4	0back/STIM_011.jpg	99
2639.959	0.861	861.0	0back	Block4	0back/STIM_012.jpg	100
2643.376	0.846	845.5	0back	Block4	0back/STIM_012.jpg	100
2647.168	0.623	623.4	0back	Block4	0back/STIM_012.jpg	100
2651.074	0.448	448.0	0back	Block4	0back/STIM_013.jpg	99
2653.897	0.7	700.0	0back	Block4	0back/STIM_013.jpg	99
2656.845	0.813	813.4	0back	Block4	0back/STIM_013.jpg	99
2661.282	0.535	534.6	0back	Block4	0back/STIM_014.jpg	99
2665.422	0.656	656.3	0back	Block4	0back/STIM_014.jpg	100
2670.002	0.624	624.5	0back	Block4	0back/STIM_014.jpg	100
2674.183	0.441	440.8	0back	Block4	0back/STIM_015.jpg	100
2676.704	0.522	521.6	0back	Block4	0back/STIM_015.jpg	100
2681.075	0.872	872.5	0back	Block4	0back/STIM_015.jpg	99
2685.282	0.559	559.4	0back	Block4	0back/STIM_016.jpg	99
2689.752	0.496	496.5	0back	Block4	0back/STIM_016.jpg	100
2693.195	0.635	634.9	0back	Block4	0back/STIM_016.jpg	99
2696.428	0.663	663.4	0back	Block4	0back/STIM_017.jpg	100
2700.905	0.506	505.7	0back	Block4	0back/STIM_017.jpg	99
2703.458	0.489	489.2	0back	Block4	0back/STIM_017.jpg	99
2706.211	0.652	652.1	0back	Block4	0back/STIM_018.jpg	100
2709.16	0.594	594.4	0back	Block4	0back/STIM_018.jpg	99
2712.63	0.574	574.5	0back	Block4	0back/STIM_018.jpg	100
2716.238	0.734	733.9	0back	Block4	0back/STIM_019.jpg	99
2720.147	0.819	819.3	0back	Block4	0back/STIM_019.jpg	99
2723.539	0.605	605.4	0back	Block4	0back/STIM_019.jpg	99
