onset	duration	response_time_ms	trial_type	learning_stage	stimulus	response_port
0.0	1.957	1957.0	generate	Run1	generate/STIM_000.jpg	100
4.327	1.407	1407.0	generate	Run1	generate/STIM_000.jpg	99
8.893	2.337	2337.1	generate	Run1	generate/STIM_000.jpg	100
15.399	1.558	1558.4	generate	Run1	generate/STIM_000.jpg	100
20.591	2.002	2001.9	generate	Run1	generate/STIM_000.jpg	100
24.799	1.419	1418.8	generate	Run1	generate/STIM_001.jpg	99
29.023	2.543	2543.4	generate	Run1	generate/STIM_001.jpg	100
34.448	1.394	1394.2	generate	Run1	generate/STIM_001.jpg	100
38.511	1.311	1311.1	generate	Run1	generate/STIM_001.jpg	100
43.76	1.841	1841.1	generate	Run1	generate/STIM_001.jpg	100
49.724	1.586	1585.8	generate	Run1	generate/STIM_002.jpg	100
54.265	2.498	2498.4	generate	Run1	generate/STIM_002.jpg	100
59.257	1.228	1227.8	generate	Run1	generate/STIM_002.jpg	100
62.858	1.644	1644.1	generate	Run1	generate/STIM_002.jpg	99
67.627	1.84	1839.9	generate	Run1	generate/STIM_002.jpg	99
73.213	1.133	1133.0	generate	Run1	generate/STIM_003.jpg	100
76.891	2.454	2454.2	generate	Run1	generate/STIM_003.jpg	100
81.618	1.491	1491.1	generate	Run1	generate/STIM_003.jpg	99
87.053	1.551	1550.8	generate	Run1	generate/STIM_003.jpg	99
91.114	1.911	1910.6	generate	Run1	generate/STIM_003.jpg	99
97.086	2.129	2129.1	generate	Run1	generate/STIM_004.jpg	100
102.591	2.123	2123.1	generate	Run1	generate/STIM_004.jpg	99
108.611	1.537	1536.7	generate	Run1	generate/STIM_004.jpg	99
113.676	1.114	1114.1	generate	Run1	generate/STIM_004.jpg	99
117.08	1.175	1175.1	generate	Run1	generate/STIM_004.jpg	100
121.341	1.693	1693.4	generate	Run1	generate/STIM_005.jpg	99
125.921	2.017	2016.7	generate	Run1	generate/STIM_005.jpg	100
130.587	2.34	2339.6	generate	Run1	generate/STIM_005.jpg	99
136.739	2.392	2392.4	generate	Run1	generate/STIM_005.jpg	99
142.547	1.837	1837.2	generate	Run1	generate/STIM_005.jpg	100
147.569	1.359	1359.2	generate	Run1	generate/STIM_006.jpg	100
152.843	2.462	2461.8	generate	Run1	generate/STIM_006.jpg	100
158.59	2.122	2122.2	generate	Run1	generate/STIM_006.jpg	100
162.952	1.714	1713.6	generate	Run1	generate/STIM_006.jpg	100
167.649	2.191	2191.0	generate	Run1	generate/STIM_006.jpg	100
172.06	1.836	1835.5	generate	Run1	generate/STIM_007.jpg	99
176.353	2.298	2297.7	generate	Run1	generate/STIM_007.jpg	99
181.741	1.233	1233.2	generate	Run1	generate/STIM_007.jpg	99
186.96	1.099	1098.8	generate	Run1	generate/STIM_007.jpg	100
191.105	1.883	1883.1	generate	Run1	generate/STIM_007.jpg	99
195.629	2.438	2437.5	generate	Run1	generate/STIM_008.jpg	99
201.324	1.42	1420.1	generate	Run1	generate/STIM_008.jpg	99
205.007	2.174	2173.7	generate	Run1	generate/STIM_008.jpg	100
210.83	2.184	2184.5	generate	Run1	generate/STIM_008.jpg	99
215.584	1.968	1967.7	generate	Run1	generate/STIM_008.jpg	100
220.774	2.636	2635.9	generate	Run1	generate/STIM_009.jpg	99
227.374	2.342	2342.2	generate	Run1	generate/STIM_009.jpg	99
233.267	2.105	2104.8	generate	Run1	generate/STIM_009.jpg	99
238.09	1.007	1007.2	generate	Run1	generate/STIM_009.jpg	100
241.321	1.6	1599.9	generate	Run1	generate/STIM_009.jpg	100
245.362	1.259	1259.0	generate	Run1	generate/STIM_010.jpg	99
250.697	1.076	1075.7	generate	Run1	generate/STIM_010.jpg	100
255.197	1.281	1281.2	generate	Run1	generate/STIM_010.jpg	99
260.608	1.824	1823.9	generate	Run1	generate/STIM_010.jpg	99
266.414	0.934	934.3	generate	Run1	generate/STIM_010.jpg	99
269.61	1.309	1308.7	generate	Run1	generate/STIM_011.jpg	100
273.228	1.163	1162.7	generate	Run1	generate/STIM_011.jpg	100
277.426	1.747	1746.8	generate	Run1	generate/STIM_011.jpg	100
282.019	0.986	986.3	generate	Run1	generate/STIM_011.jpg	100
285.682	1.899	1898.7	generate	Run1	generate/STIM_011.jpg	100
290.098	1.99	1990.4	generate	Run1	generate/STIM_012.jpg	99
296.115	1.477	1476.8	generate	Run1	generate/STIM_012.jpg	99
300.906	1.171	1170.9	generate	Run1	generate/STIM_012.jpg	99
304.38	2.146	2145.8	generate	Run1	generate/STIM_012.jpg	99
309.992	1.119	1119.4	generate	Run1	generate/STIM_012.jpg	99
314.663	2.213	2212.9	generate	Run1	generate/STIM_013.jpg	100
320.726	1.504	1504.1	generate	Run1	generate/STIM_013.jpg	100
325.635	1.829	1829.2	generate	Run1	generate/STIM_013.jpg	99
331.291	2.191	2190.6	generate	Run1	generate/STIM_013.jpg	99
336.562	1.954	1953.6	generate	Run1	generate/STIM_013.jpg	99
342.066	1.167	1167.3	generate	Run1	generate/STIM_014.jpg	100
347.292	2.256	2255.8	generate	Run1	generate/STIM_014.jpg	99
352.91	1.493	1493.4	generate	Run1	generate/STIM_014.jpg	99
358.104	1.514	1513.9	generate	Run1	generate/STIM_014.jpg	99
362.741	1.109	1109.1	generate	Run1	generate/STIM_014.jpg	100
367.368	2.17	2170.5	generate	Run1	generate/STIM_015.jpg	100
372.287	1.349	1349.0	generate	Run1	generate/STIM_015.jpg	99
377.606	1.401	1401.1	generate	Run1	generate/STIM_015.jpg	99
382.533	1.524	1523.6	generate	Run1	generate/STIM_015.jpg	100
387.996	2.13	2129.9	generate	Run1	generate/STIM_015.jpg	100
393.748	2.185	2185.2	generate	Run1	generate/STIM_016.jpg	100
399.801	1.064	1063.5	generate	Run1	generate/STIM_016.jpg	99
404.739	1.41	1409.7	generate	Run1	generate/STIM_016.jpg	100
408.505	2.236	2235.8	generate	Run1	generate/STIM_016.jpg	100
413.973	2.082	2081.7	generate	Run1	generate/STIM_016.jpg	100
420.068	1.968	1968.2	generate	Run1	generate/STIM_017.jpg	99
426.124	1.885	1884.6	generate	Run1	generate/STIM_017.jpg	99
431.908	1.28	1279.8	generate	Run1	generate/STIM_017.jpg	100
436.641	2.004	2003.6	generate	Run1	generate/STIM_017.jpg	100
442.573	1.249	1248.6	generate	Run1	generate/STIM_017.jpg	99
446.729	1.161	1161.4	generate	Run1	generate/STIM_018.jpg	99
450.583	1.287	1286.9	generate	Run1	generate/STIM_018.jpg	99
455.921	1.452	1451.9	generate	Run1	generate/STIM_018.jpg	100
459.761	1.17	1169.9	generate	Run1	generate/STIM_018.jpg	99
463.434	1.547	1547.1	generate	Run1	generate/STIM_018.jpg	100
468.608	1.842	1842.3	generate	Run1	generate/STIM_019.jpg	99
473.193	1.093	1093.0	generate	Run1	generate/STIM_019.jpg	99
477.299	2.231	2230.8	generate	Run1	generate/STIM_019.jpg	99
483.177	1.757	1756.6	generate	Run1	generate/STIM_019.jpg	99
487.963	1.075	1075.4	generate	Run1	generate/STIM_019.jpg	99
491.962	1.203	1202.9	generate	Run1	generate/STIM_020.jpg	100
497.128	2.059	2058.7	generate	Run1	generate/STIM_020.jpg	99
503.336	2.392	2391.6	generate	Run1	generate/STIM_020.jpg	100
509.062	2.154	2154.2	generate	Run1	generate/STIM_020.jpg	99
513.553	1.015	1015.0	generate	Run1	generate/STIM_020.jpg	100
516.689	1.939	1939.2	generate	Run1	generate/STIM_021.jpg	99
522.606	2.388	2387.6	generate	Run1	generate/STIM_021.jpg	100
527.325	2.6	2599.7	generate	Run1	generate/STIM_021.jpg	100
533.931	2.21	2210.1	generate	Run1	generate/STIM_021.jpg	99
539.267	2.156	2156.1	generate	Run1	generate/STIM_021.jpg	99
544.163	1.115	1114.6	generate	Run1	generate/STIM_022.jpg	99
549.041	1.079	1078.9	generate	Run1	generate/STIM_022.jpg	100
553.707	1.443	1442.6	generate	Run1	generate/STIM_022.jpg	99
558.898	1.376	1375.8	generate	Run1	generate/STIM_022.jpg	99
562.548	1.075	1075.0	generate	Run1	generate/STIM_022.jpg	99
565.839	1.227	1226.9	generate	Run1	generate/STIM_023.jpg	100
569.947	2.318	2318.4	generate	Run1	generate/STIM_023.jpg	100
575.96	2.132	2132.1	generate	Run1	generate/STIM_023.jpg	100
580.486	1.662	1662.0	generate	Run1	generate/STIM_023.jpg	100
584.725	1.662	1662.0	generate	Run1	generate/STIM_023.jpg	99
589.235	1.523	1523.3	generate	Run1	generate/STIM_024.jpg	100
594.654	1.861	1861.1	generate	Run1	generate/STIM_024.jpg	99
600.007	2.406	2405.6	generate	Run1	generate/STIM_024.jpg	100
605.395	1.591	1590.6	generate	Run1	generate/STIM_024.jpg	100
609.384	1.283	1283.2	generate	Run1	generate/STIM_024.jpg	100
614.139	0.76	760.5	repeat	Run1	repeat/STIM_000.jpg	99
617.897	0.879	879.0	repeat	Run1	repeat/STIM_000.jpg	100
621.194	0.989	989.0	repeat	Run1	repeat/STIM_000.jpg	99
624.732	0.792	791.8	repeat	Run1	repeat/STIM_000.jpg	99
628.029	0.969	969.0	repeat	Run1	repeat/STIM_000.jpg	100
631.717	0.742	741.9	repeat	Run1	repeat/STIM_001.jpg	99
635.929	0.561	561.1	repeat	Run1	repeat/STIM_001.jpg	100
639.401	0.514	514.4	repeat	Run1	repeat/STIM_001.jpg	99
643.576	0.68	680.0	repeat	Run1	repeat/STIM_001.jpg	99
646.381	0.869	868.6	repeat	Run1	repeat/STIM_001.jpg	100
651.006	0.618	618.0	repeat	Run1	repeat/STIM_002.jpg	100
655.665	0.561	561.0	repeat	Run1	repeat/STIM_002.jpg	100
659.718	0.667	666.8	repeat	Run1	repeat/STIM_002.jpg	100
663.02	0.666	666.4	repeat	Run1	repeat/STIM_002.jpg	99
667.548	0.496	495.7	repeat	Run1	repeat/STIM_002.jpg	99
671.377	0.606	606.0	repeat	Run1	repeat/STIM_003.jpg	99
675.128	0.465	464.8	repeat	Run1	repeat/STIM_003.jpg	99
678.108	0.645	645.1	repeat	Run1	repeat/STIM_003.jpg	100
681.33	0.836	836.3	repeat	Run1	repeat/STIM_003.jpg	100
684.901	0.832	832.4	repeat	Run1	repeat/STIM_003.jpg	100
688.336	0.79	789.9	repeat	Run1	repeat/STIM_004.jpg	99
691.866	0.649	648.7	repeat	Run1	repeat/STIM_004.jpg	99
695.173	0.887	887.3	repeat	Run1	repeat/STIM_004.jpg	99
698.166	0.966	966.3	repeat	Run1	repeat/STIM_004.jpg	100
702.009	0.58	580.4	repeat	Run1	repeat/STIM_004.jpg	99
704.908	0.784	784.3	repeat	Run1	repeat/STIM_005.jpg	100
709.622	0.81	809.5	repeat	Run1	repeat/STIM_005.jpg	100
713.544	0.568	567.9	repeat	Run1	repeat/STIM_005.jpg	100
717.235	0.75	749.6	repeat	Run1	repeat/STIM_005.jpg	100
721.81	0.591	590.7	repeat	Run1	repeat/STIM_005.jpg	100
725.689	0.779	778.7	repeat	Run1	repeat/STIM_006.jpg	100
730.374	0.704	703.5	repeat	Run1	repeat/STIM_006.jpg	100
734.251	0.869	868.8	repeat	Run1	repeat/STIM_006.jpg	100
738.132	0.596	596.2	repeat	Run1	repeat/STIM_006.jpg	99
741.977	0.774	773.7	repeat	Run1	repeat/STIM_006.jpg	100
745.113	0.491	491.1	repeat	Run1	repeat/STIM_007.jpg	100
747.808	0.894	893.7	repeat	Run1	repeat/STIM_007.jpg	100
751.21	0.841	841.3	repeat	Run1	repeat/STIM_007.jpg	100
755.752	0.867	866.6	repeat	Run1	repeat/STIM_007.jpg	99
759.819	0.618	618.4	repeat	Run1	repeat/STIM_007.jpg	99
764.171	0.651	651.1	repeat	Run1	repeat/STIM_008.jpg	99
768.745	0.77	770.0	repeat	Run1	repeat/STIM_008.jpg	100
772.673	0.583	582.8	repeat	Run1	repeat/STIM_008.jpg	100
775.441	0.822	822.5	repeat	Run1	repeat/STIM_008.jpg	100
779.062	0.796	795.5	repeat	Run1	repeat/STIM_008.jpg	99
783.65	0.712	712.5	repeat	Run1	repeat/STIM_009.jpg	100
786.711	0.471	471.2	repeat	Run1	repeat/STIM_009.jpg	100
790.329	0.745	745.1	repeat	Run1	repeat/STIM_009.jpg	100
793.495	0.627	626.9	repeat	Run1	repeat/STIM_009.jpg	99
798.098	0.664	663.9	repeat	Run1	repeat/STIM_009.jpg	99
801.707	0.618	618.5	repeat	Run1	repeat/STIM_010.jpg	99
804.571	0.622	621.7	repeat	Run1	repeat/STIM_010.jpg	100
808.802	0.494	493.5	repeat	Run1	repeat/STIM_010.jpg	100
813.124	0.55	550.5	repeat	Run1	repeat/STIM_010.jpg	99
815.809	0.842	842.3	repeat	Run1	repeat/STIM_010.jpg	100
819.895	0.643	643.1	repeat	Run1	repeat/STIM_011.jpg	100
822.937	0.572	571.8	repeat	Run1	repeat/STIM_011.jpg	100
826.944	0.722	721.7	repeat	Run1	repeat/STIM_011.jpg	100
829.805	0.647	647.3	repeat	Run1	repeat/STIM_011.jpg	100
833.948	0.85	850.3	repeat	Run1	repeat/STIM_011.jpg	100
837.069	0.499	499.3	repeat	Run1	repeat/STIM_012.jpg	99
840.205	0.553	552.7	repeat	Run1	repeat/STIM_012.jpg	100
844.227	0.587	586.7	repeat	Run1	repeat/STIM_012.jpg	100
847.844	0.571	570.6	repeat	Run1	repeat/STIM_012.jpg	100
851.03	0.59	589.9	repeat	Run1	repeat/STIM_012.jpg	99
853.922	0.682	682.3	repeat	Run1	repeat/STIM_013.jpg	100
857.45	0.583	582.9	repeat	Run1	repeat/STIM_013.jpg	100
861.299	0.536	535.5	repeat	Run1	repeat/STIM_013.jpg	100
863.875	0.914	914.5	repeat	Run1	repeat/STIM_013.jpg	99
868.358	0.655	654.9	repeat	Run1	repeat/STIM_013.jpg	100
872.001	0.543	543.4	repeat	Run1	repeat/STIM_014.jpg	99
875.723	0.841	840.8	repeat	Run1	repeat/STIM_014.jpg	100
880.534	0.61	609.8	repeat	Run1	repeat/STIM_014.jpg	99
884.569	0.728	727.6	repeat	Run1	repeat/STIM_014.jpg	99
887.608	0.593	592.9	repeat	Run1	repeat/STIM_014.jpg	99
890.445	1.574	1573.8	generate	Run2	generate/STIM_000.jpg	99
894.676	1.47	1469.5	generate	Run2	generate/STIM_000.jpg	99
899.664	0.992	992.4	generate	Run2	generate/STIM_000.jpg	100
904.538	0.94	940.3	generate	Run2	generate/STIM_000.jpg	99
909.364	1.578	1577.6	generate	Run2	generate/STIM_000.jpg	99
914.527	1.214	1214.5	generate	Run2	generate/STIM_001.jpg	100
918.669	1.484	1484.1	generate	Run2	generate/STIM_001.jpg	100
922.56	2.023	2023.1	generate	Run2	generate/STIM_001.jpg	99
927.927	1.761	1760.7	generate	Run2	generate/STIM_001.jpg	100
933.336	1.263	1263.3	generate	Run2	generate/STIM_001.jpg	99
938.164	1.499	1498.7	generate	Run2	generate/STIM_002.jpg	100
943.324	1.63	1630.1	generate	Run2	generate/STIM_002.jpg	99
947.856	1.916	1916.0	generate	Run2	generate/STIM_002.jpg	100
951.973	0.817	817.2	generate	Run2	generate/STIM_002.jpg	100
954.926	1.061	1061.2	generate	Run2	generate/STIM_002.jpg	99
958.426	1.342	1342.3	generate	Run2	generate/STIM_003.jpg	100
963.281	1.918	1917.5	generate	Run2	generate/STIM_003.jpg	99
968.375	1.117	1117.1	generate	Run2	generate/STIM_003.jpg	99
972.536	1.295	1295.0	generate	Run2	generate/STIM_003.jpg	100
977.104	1.334	1334.5	generate	Run2	generate/STIM_003.jpg	100
982.286	2.238	2238.3	generate	Run2	generate/STIM_004.jpg	100
988.301	1.223	1222.6	generate	Run2	generate/STIM_004.jpg	99
993.548	1.599	1598.6	generate	Run2	generate/STIM_004.jpg	100
998.897	1.21	1210.3	generate	Run2	generate/STIM_004.jpg	100
1004.122	1.802	1802.4	generate	Run2	generate/STIM_004.jpg	99
1009.394	1.994	1993.5	generate	Run2	generate/STIM_005.jpg	99
1015.373	1.083	1083.3	generate	Run2	generate/STIM_005.jpg	99
1019.876	1.677	1677.4	generate	Run2	generate/STIM_005.jpg	100
1023.856	1.733	1733.4	generate	Run2	generate/STIM_005.jpg	100
1028.939	0.926	926.2	generate	Run2	generate/STIM_005.jpg	100
1033.673	2.29	2290.3	generate	Run2	generate/STIM_006.jpg	100
1039.634	1.616	1616.1	generate	Run2	generate/STIM_006.jpg	99
1043.895	1.028	1028.5	generate	Run2	generate/STIM_006.jpg	100
1049.075	1.545	1544.7	generate	Run2	generate/STIM_006.jpg	100
1053.537	1.011	1010.7	generate	Run2	generate/STIM_006.jpg	100
1057.587	1.994	1993.9	generate	Run2	generate/STIM_007.jpg	100
1063.824	1.751	1751.2	generate	Run2	generate/STIM_007.jpg	99
1068.957	1.724	1724.4	generate	Run2	generate/STIM_007.jpg	100
1073.15	1.7	1699.8	generate	Run2	generate/STIM_007.jpg	99
1078.055	1.661	1661.2	generate	Run2	generate/STIM_007.jpg	99
1083.36	1.757	1756.6	generate	Run2	generate/STIM_008.jpg	99
1087.802	2.078	2077.8	generate	Run2	generate/STIM_008.jpg	99
1092.98	1.567	1567.2	generate	Run2	generate/STIM_008.jpg	99
1098.642	1.151	1151.1	generate	Run2	generate/STIM_008.jpg	99
1101.95	1.782	1781.9	generate	Run2	generate/STIM_008.jpg	99
1106.372	1.036	1035.6	generate	Run2	generate/STIM_009.jpg	100
1110.482	1.313	1312.9	generate	Run2	generate/STIM_009.jpg	99
1113.91	1.065	1064.6	generate	Run2	generate/STIM_009.jpg	100
1117.838	1.476	1475.5	generate	Run2	generate/STIM_009.jpg	100
1122.633	0.935	934.9	generate	Run2	generate/STIM_009.jpg	99
1127.505	1.487	1487.1	generate	Run2	generate/STIM_010.jpg	100
1132.86	1.707	1706.6	generate	Run2	generate/STIM_010.jpg	99
1138.568	1.359	1359.0	generate	Run2	generate/STIM_010.jpg	100
1143.22	1.496	1496.5	generate	Run2	generate/STIM_010.jpg	100
1147.604	1.592	1592.4	generate	Run2	generate/STIM_010.jpg	99
1151.601	1.89	1889.5	generate	Run2	generate/STIM_011.jpg	99
1156.822	1.744	1743.8	generate	Run2	generate/STIM_011.jpg	100
1161.975	2.042	2041.7	generate	Run2	generate/STIM_011.jpg	99
1167.894	1.595	1595.2	generate	Run2	generate/STIM_011.jpg	99
1173.148	1.594	1593.5	generate	Run2	generate/STIM_011.jpg	100
1177.81	1.015	1014.7	generate	Run2	generate/STIM_012.jpg	100
1181.838	1.373	1372.7	generate	Run2	generate/STIM_012.jpg	99
1185.769	1.286	1286.0	generate	Run2	generate/STIM_012.jpg	99
1190.398	1.776	1776.1	generate	Run2	generate/STIM_012.jpg	100
1196.039	1.391	1391.1	generate	Run2	generate/STIM_012.jpg	100
1201.332	1.554	1553.8	generate	Run2	generate/STIM_013.jpg	99
1206.716	1.446	1446.5	generate	Run2	generate/STIM_013.jpg	99
1212.22	0.944	943.5	generate	Run2	generate/STIM_013.jpg	100
1217.178	1.164	1164.0	generate	Run2	generate/STIM_013.jpg	100
1222.04	1.096	1096.2	generate	Run2	generate/STIM_013.jpg	100
1227.228	1.182	1181.7	generate	Run2	generate/STIM_014.jpg	100
1232.378	0.885	884.7	generate	Run2	generate/STIM_014.jpg	100
1236.281	1.57	1569.8	generate	Run2	generate/STIM_014.jpg	99
1242.01	1.895	1895.0	generate	Run2	generate/STIM_014.jpg	99
1247.377	0.919	919.2	generate	Run2	generate/STIM_014.jpg	99
1251.236	2.162	2161.8	generate	Run2	generate/STIM_015.jpg	99
1255.963	1.447	1447.4	generate	Run2	generate/STIM_015.jpg	99
1261.433	1.128	1128.3	generate	Run2	generate/STIM_015.jpg	99
1264.742	1.109	1108.9	generate	Run2	generate/STIM_015.jpg	100
1268.359	1.849	1848.9	generate	Run2	generate/STIM_015.jpg	99
1274.128	1.278	1278.2	generate	Run2	generate/STIM_016.jpg	99
1278.334	1.947	1946.7	generate	Run2	generate/STIM_016.jpg	99
1284.286	0.877	876.8	generate	Run2	generate/STIM_016.jpg	99
1288.313	1.169	1169.1	generate	Run2	generate/STIM_016.jpg	99
1292.91	1.525	1524.6	generate	Run2	generate/STIM_016.jpg	100
1297.078	1.931	1931.2	generate	Run2	generate/STIM_017.jpg	99
1302.806	1.518	1518.1	generate	Run2	generate/STIM_017.jpg	99
1308.281	1.984	1984.1	generate	Run2	generate/STIM_017.jpg	100
1314.107	1.574	1573.5	generate	Run2	generate/STIM_017.jpg	99
1318.936	1.411	1410.7	generate	Run2	generate/STIM_017.jpg	100
1323.016	2.199	2198.8	generate	Run2	generate/STIM_018.jpg	99
1329.06	1.907	1907.0	generate	Run2	generate/STIM_018.jpg	99
1334.81	1.138	1137.9	generate	Run2	generate/STIM_018.jpg	100
1339.566	0.956	955.8	generate	Run2	generate/STIM_018.jpg	100
1343.248	1.729	1728.9	generate	Run2	generate/STIM_018.jpg	99
1348.729	1.694	1694.1	generate	Run2	generate/STIM_019.jpg	100
1352.64	1.495	1494.8	generate	Run2	generate/STIM_019.jpg	100
1357.89	1.12	1120.3	generate	Run2	generate/STIM_019.jpg	100
1362.578	1.81	1810.0	generate	Run2	generate/STIM_019.jpg	100
1367.057	1.39	1390.5	generate	Run2	generate/STIM_019.jpg	99
1371.323	2.263	2262.9	generate	Run2	generate/STIM_020.jpg	99
1376.258	1.197	1197.0	generate	Run2	generate/STIM_020.jpg	100
1379.792	1.555	1555.1	generate	Run2	generate/STIM_020.jpg	100
1384.832	1.295	1295.0	generate	Run2	generate/STIM_020.jpg	100
1390.093	1.084	1084.1	generate	Run2	generate/STIM_020.jpg	100
1394.828	2.256	2255.8	generate	Run2	generate/STIM_021.jpg	100
1400.505	1.575	1575.0	generate	Run2	generate/STIM_021.jpg	99
1405.424	0.998	997.6	generate	Run2	generate/STIM_021.jpg	100
1409.893	1.188	1188.5	generate	Run2	generate/STIM_021.jpg	99
1414.85	1.094	1094.2	generate	Run2	generate/STIM_021.jpg	100
1420.032	1.432	1432.2	generate	Run2	generate/STIM_022.jpg	99
1425.037	1.35	1350.0	generate	Run2	generate/STIM_022.jpg	100
1429.301	1.559	1559.0	generate	Run2	generate/STIM_022.jpg	100
1434.329	1.106	1105.6	generate	Run2	generate/STIM_022.jpg	100
1437.604	0.949	949.0	generate	Run2	generate/STIM_022.jpg	99
1440.924	2.11	2110.2	generate	Run2	generate/STIM_023.jpg	100
1446.508	1.269	1268.9	generate	Run2	generate/STIM_023.jpg	99
1450.432	0.947	947.1	generate	Run2	generate/STIM_023.jpg	99
1454.056	0.944	944.1	generate	Run2	generate/STIM_023.jpg	100
1458.866	1.885	1884.8	generate	Run2	generate/STIM_023.jpg	99
1463.729	2.26	2260.2	generate	Run2	generate/STIM_024.jpg	99
1469.303	1.723	1723.2	generate	Run2	generate/STIM_024.jpg	99
1473.386	0.927	926.7	generate	Run2	generate/STIM_024.jpg	100
1476.666	1.254	1254.1	generate	Run2	generate/STIM_024.jpg	100
1480.161	0.966	965.7	generate	Run2	generate/STIM_024.jpg	100
1483.811	0.813	813.4	repeat	Run2	repeat/STIM_000.jpg	99
1487.457	0.686	685.6	repeat	Run2	repeat/STIM_000.jpg	100
1491.025	0.567	566.9	repeat	Run2	repeat/STIM_000.jpg	100
1493.589	0.852	852.3	repeat	Run2	repeat/STIM_000.jpg	99
1498.096	0.841	841.0	repeat	Run2	repeat/STIM_000.jpg	99
1502.337	0.587	586.6	repeat	Run2	repeat/STIM_001.jpg	100
1505.798	0.65	649.8	repeat	Run2	repeat/STIM_001.jpg	99
1508.629	0.751	750.9	repeat	Run2	repeat/STIM_001.jpg	100
1512.406	0.53	530.2	repeat	Run2	repeat/STIM_001.jpg	100
1515.474	0.823	823.2	repeat	Run2	repeat/STIM_001.jpg	99
1518.767	0.756	755.5	repeat	Run2	repeat/STIM_002.jpg	100
1523.466	0.622	621.8	repeat	Run2	repeat/STIM_002.jpg	99
1526.187	0.794	794.1	repeat	Run2	repeat/STIM_002.jpg	99
1529.913	0.821	820.9	repeat	Run2	repeat/STIM_002.jpg	100
1533.223	0.817	817.0	repeat	Run2	repeat/STIM_002.jpg	100
1536.599	0.776	775.6	repeat	Run2	repeat/STIM_003.jpg	100
1540.452	0.63	630.0	repeat	Run2	repeat/STIM_003.jpg	99
1543.335	0.884	884.4	repeat	Run2	repeat/STIM_003.jpg	99
1546.927	0.512	511.8	repeat	Run2	repeat/STIM_003.jpg	99
1550.608	0.463	462.9	repeat	Run2	repeat/STIM_003.jpg	100
1553.586	0.627	627.1	repeat	Run2	repeat/STIM_004.jpg	100
1557.565	0.624	624.5	repeat	Run2	repeat/STIM_004.jpg	100
1562.01	0.451	451.1	repeat	Run2	repeat/STIM_004.jpg	100
1565.766	0.465	465.3	repeat	Run2	repeat/STIM_004.jpg	99
1568.384	0.62	620.2	repeat	Run2	repeat/STIM_004.jpg	100
1571.747	0.583	583.4	repeat	Run2	repeat/STIM_005.jpg	99
1576.125	0.536	536.0	repeat	Run2	repeat/STIM_005.jpg	100
1580.237	0.792	792.0	repeat	Run2	repeat/STIM_005.jpg	99
1583.837	0.508	508.4	repeat	Run2	repeat/STIM_005.jpg	99
1588.119	0.528	527.6	repeat	Run2	repeat/STIM_005.jpg	100
1591.052	0.961	960.9	repeat	Run2	repeat/STIM_006.jpg	99
1594.842	0.937	936.7	repeat	Run2	repeat/STIM_006.jpg	99
1598.364	0.835	834.7	repeat	Run2	repeat/STIM_006.jpg	100
1601.411	0.779	779.3	repeat	Run2	repeat/STIM_006.jpg	100
1605.998	0.483	483.1	repeat	Run2	repeat/STIM_006.jpg	99
1609.919	0.782	782.1	repeat	Run2	repeat/STIM_007.jpg	100
1614.553	0.48	479.7	repeat	Run2	repeat/STIM_007.jpg	99
1618.407	0.549	549.3	repeat	Run2	repeat/STIM_007.jpg	99
1621.982	0.755	754.9	repeat	Run2	repeat/STIM_007.jpg	100
1626.418	0.613	613.4	repeat	Run2	repeat/STIM_007.jpg	99
1630.449	0.671	671.2	repeat	Run2	repeat/STIM_008.jpg	99
1633.318	0.688	687.6	repeat	Run2	repeat/STIM_008.jpg	100
1637.388	0.598	597.8	repeat	Run2	repeat/STIM_008.jpg	99
1640.917	0.859	859.1	repeat	Run2	repeat/STIM_008.jpg	99
1644.538	0.577	577.1	repeat	Run2	repeat/STIM_008.jpg	100
1648.268	0.708	708.2	repeat	Run2	repeat/STIM_009.jpg	100
1652.695	0.766	765.6	repeat	Run2	repeat/STIM_009.jpg	99
1656.737	0.527	527.4	repeat	Run2	repeat/STIM_009.jpg	99
1660.269	0.849	849.0	repeat	Run2	repeat/STIM_009.jpg	99
1663.774	0.506	506.3	repeat	Run2	repeat/STIM_009.jpg	99
1667.742	0.921	921.2	repeat	Run2	repeat/STIM_010.jpg	99
1671.503	0.576	576.2	repeat	Run2	repeat/STIM_010.jpg	100
1674.253	0.816	816.0	repeat	Run2	repeat/STIM_010.jpg	99
1677.933	0.443	443.4	repeat	Run2	repeat/STIM_010.jpg	100
1681.292	0.821	821.4	repeat	Run2	repeat/STIM_010.jpg	99
1685.904	0.381	381.1	repeat	Run2	repeat/STIM_011.jpg	100
1689.944	0.438	437.5	repeat	Run2	repeat/STIM_011.jpg	99
1693.933	0.607	607.2	repeat	Run2	repeat/STIM_011.jpg	100
1697.991	0.578	577.6	repeat	Run2	repeat/STIM_011.jpg	99
1700.634	0.663	663.0	repeat	Run2	repeat/STIM_011.jpg	99
1704.252	0.672	672.0	repeat	Run2	repeat/STIM_012.jpg	99
1708.765	0.793	793.2	repeat	Run2	repeat/STIM_012.jpg	100
1712.32	0.873	873.4	repeat	Run2	repeat/STIM_012.jpg	100
1717.048	0.657	656.6	repeat	Run2	repeat/STIM_012.jpg	100
1721.73	0.471	471.4	repeat	Run2	repeat/STIM_012.jpg	100
1724.327	0.91	910.4	repeat	Run2	repeat/STIM_013.jpg	100
1729.118	0.896	896.4	repeat	Run2	repeat/STIM_013.jpg	99
1732.825	0.748	748.0	repeat	Run2	repeat/STIM_013.jpg	100
1736.608	0.798	798.1	repeat	Run2	repeat/STIM_013.jpg	100
1739.65	0.818	818.3	repeat	Run2	repeat/STIM_013.jpg	99
1743.934	0.71	710.1	repeat	Run2	repeat/STIM_014.jpg	100
1748.697	0.768	767.5	repeat	Run2	repeat/STIM_014.jpg	99
1751.757	0.767	767.0	repeat	Run2	repeat/STIM_014.jpg	100
1755.225	0.821	821.4	repeat	Run2	repeat/STIM_014.jpg	99
1758.298	0.493	493.1	repeat	Run2	repeat/STIM_014.jpg	99
1762.706	1.74	1740.3	generate	Run3	generate/STIM_000.jpg	100
1766.841	1.547	1546.6	generate	Run3	generate/STIM_000.jpg	100
1770.95	0.891	890.7	generate	Run3	generate/STIM_000.jpg	100
1775.035	1.814	1813.6	generate	Run3	generate/STIM_000.jpg	100
1779.34	1.905	1904.9	generate	Run3	generate/STIM_000.jpg	100
1785.095	0.878	878.4	generate	Run3	generate/STIM_001.jpg	99
1789.458	0.986	985.5	generate	Run3	generate/STIM_001.jpg	100
1793.219	1.228	1228.3	generate	Run3	generate/STIM_001.jpg	100
1798.349	0.748	747.9	generate	Run3	generate/STIM_001.jpg	99
1802.442	1.301	1300.9	generate	Run3	generate/STIM_001.jpg	100
1807.384	1.29	1289.5	generate	Run3	generate/STIM_002.jpg	100
1811.09	0.892	892.1	generate	Run3	generate/STIM_002.jpg	100
1815.838	0.848	847.6	generate	Run3	generate/STIM_002.jpg	99
1820.296	1.533	1533.2	generate	Run3	generate/STIM_002.jpg	100
1824.244	1.856	1856.1	generate	Run3	generate/STIM_002.jpg	99
1829.119	0.916	916.5	generate	Run3	generate/STIM_003.jpg	99
1832.534	1.286	1285.8	generate	Run3	generate/STIM_003.jpg	99
1836.295	1.762	1762.0	generate	Run3	generate/STIM_003.jpg	99
1841.747	1.201	1201.4	generate	Run3	generate/STIM_003.jpg	99
1845.37	1.502	1502.1	generate	Run3	generate/STIM_003.jpg	100
1850.19	1.476	1475.7	generate	Run3	generate/STIM_004.jpg	100
1854.194	1.514	1514.1	generate	Run3	generate/STIM_004.jpg	100
1858.316	1.568	1568.4	generate	Run3	generate/STIM_004.jpg	99
1863.178	1.237	1237.3	generate	Run3	generate/STIM_004.jpg	100
1867.2	1.627	1627.4	generate	Run3	generate/STIM_004.jpg	99
1872.13	1.34	1340.0	generate	Run3	generate/STIM_005.jpg	100
1875.799	1.557	1557.0	generate	Run3	generate/STIM_005.jpg	99
1881.351	1.506	1506.0	generate	Run3	generate/STIM_005.jpg	100
1886.331	1.497	1497.1	generate	Run3	generate/STIM_005.jpg	99
1891.935	1.887	1886.6	generate	Run3	generate/STIM_005.jpg	99
1897.928	1.062	1062.1	generate	Run3	generate/STIM_006.jpg	100
1901.877	1.35	1349.9	generate	Run3	generate/STIM_006.jpg	100
1906.352	1.013	1012.9	generate	Run3	generate/STIM_006.jpg	99
1910.365	1.074	1073.5	generate	Run3	generate/STIM_006.jpg	100
1915.405	1.413	1413.2	generate	Run3	generate/STIM_006.jpg	100
1919.496	1.786	1785.5	generate	Run3	generate/STIM_007.jpg	100
1924.809	1.319	1319.2	generate	Run3	generate/STIM_007.jpg	99
1929.155	1.391	1390.6	generate	Run3	generate/STIM_007.jpg	100
1934.554	0.84	840.2	generate	Run3	generate/STIM_007.jpg	100
1937.907	1.605	1605.0	generate	Run3	generate/STIM_007.jpg	100
1942.127	1.274	1273.7	generate	Run3	generate/STIM_008.jpg	100
1946.52	1.461	1461.2	generate	Run3	generate/STIM_008.jpg	100
1951.613	1.681	1681.1	generate	Run3	generate/STIM_008.jpg	100
1955.913	1.41	1409.5	generate	Run3	generate/STIM_008.jpg	100
1961.208	1.475	1474.7	generate	Run3	generate/STIM_008.jpg	99
1966.342	0.909	908.8	generate	Run3	generate/STIM_009.jpg	100
1970.91	1.774	1773.9	generate	Run3	generate/STIM_009.jpg	100
1975.644	1.144	1143.5	generate	Run3	generate/STIM_009.jpg	99
1979.081	1.455	1455.2	generate	Run3	generate/STIM_009.jpg	100
1984.272	0.882	881.6	generate	Run3	generate/STIM_009.jpg	99
1988.268	1.74	1740.3	generate	Run3	generate/STIM_010.jpg	99
1993.585	1.148	1147.5	generate	Run3	generate/STIM_010.jpg	100
1997.115	1.143	1143.0	generate	Run3	generate/STIM_010.jpg	99
2001.297	1.863	1863.0	generate	Run3	generate/STIM_010.jpg	100
2006.279	1.464	1463.6	generate	Run3	generate/STIM_010.jpg	99
2011.083	1.598	1598.4	generate	Run3	generate/STIM_011.jpg	99
2015.956	0.999	999.1	generate	Run3	generate/STIM_011.jpg	99
2020.638	1.523	1523.3	generate	Run3	generate/STIM_011.jpg	100
2025.109	1.034	1034.3	generate	Run3	generate/STIM_011.jpg	99
2028.848	1.423	1423.2	generate	Run3	generate/STIM_011.jpg	99
2033.906	1.077	1077.3	generate	Run3	generate/STIM_012.jpg	100
2037.933	0.826	825.9	generate	Run3	generate/STIM_012.jpg	99
2041.44	1.231	1230.9	generate	Run3	generate/STIM_012.jpg	99
2045.185	1.73	1730.5	generate	Run3	generate/STIM_012.jpg	99
2050.79	0.984	983.5	generate	Run3	generate/STIM_012.jpg	100
2054.728	1.265	1265.1	generate	Run3	generate/STIM_013.jpg	99
2059.008	1.379	1379.1	generate	Run3	generate/STIM_013.jpg	99
2063.708	1.203	1203.0	generate	Run3	generate/STIM_013.jpg	99
2068.638	0.918	917.5	generate	Run3	generate/STIM_013.jpg	100
2073.425	1.813	1813.3	generate	Run3	generate/STIM_013.jpg	100
2078.542	1.171	1171.1	generate	Run3	generate/STIM_014.jpg	99
2083.717	1.307	1307.4	generate	Run3	generate/STIM_014.jpg	100
2087.879	1.194	1194.3	generate	Run3	generate/STIM_014.jpg	99
2092.047	1.671	1671.3	generate	Run3	generate/STIM_014.jpg	100
2097.676	1.467	1466.7	generate	Run3	generate/STIM_014.jpg	100
2102.725	0.998	997.7	generate	Run3	generate/STIM_015.jpg	100
2106.947	1.47	1469.9	generate	Run3	generate/STIM_015.jpg	100
2111.997	0.846	845.5	generate	Run3	generate/STIM_015.jpg	100
2116.172	0.876	876.5	generate	Run3	generate/STIM_015.jpg	100
2120.037	0.945	945.3	generate	Run3	generate/STIM_015.jpg	99
2124.114	0.955	955.3	generate	Run3	generate/STIM_016.jpg	99
2128.11	1.429	1429.2	generate	Run3	generate/STIM_016.jpg	100
2133.039	1.674	1673.8	generate	Run3	generate/STIM_016.jpg	100
2136.966	1.054	1054.4	generate	Run3	generate/STIM_016.jpg	99
2141.979	1.146	1146.3	generate	Run3	generate/STIM_016.jpg	100
2145.681	0.907	907.1	generate	Run3	generate/STIM_017.jpg	100
2149.564	1.628	1627.8	generate	Run3	generate/STIM_017.jpg	99
2154.119	0.806	806.0	generate	Run3	generate/STIM_017.jpg	100
2157.22	0.953	953.3	generate	Run3	generate/STIM_017.jpg	100
2162.155	1.495	1495.1	generate	Run3	generate/STIM_017.jpg	99
2166.729	1.797	1797.3	generate	Run3	generate/STIM_018.jpg	99
2171.766	1.69	1690.0	generate	Run3	generate/STIM_018.jpg	99
2177.226	1.592	1591.7	generate	Run3	generate/STIM_018.jpg	99
2181.934	1.799	1799.0	generate	Run3	generate/STIM_018.jpg	99
2186.894	1.328	1328.3	generate	Run3	generate/STIM_018.jpg	99
2190.437	1.792	1791.6	generate	Run3	generate/STIM_019.jpg	99
2195.387	1.609	1609.4	generate	Run3	generate/STIM_019.jpg	100
2199.062	0.812	811.8	generate	Run3	generate/STIM_019.jpg	100
2202.869	1.612	1612.3	generate	Run3	generate/STIM_019.jpg	100
2206.83	1.546	1546.5	generate	Run3	generate/STIM_019.jpg	99
2211.67	1.454	1454.5	generate	Run3	generate/STIM_020.jpg	99
2216.308	1.663	1663.2	generate	Run3	generate/STIM_020.jpg	100
2220.963	1.079	1079.0	generate	Run3	generate/STIM_020.jpg	100
2225.408	1.862	1861.7	generate	Run3	generate/STIM_020.jpg	100
2231.064	1.556	1555.5	generate	Run3	generate/STIM_020.jpg	99
2235.036	1.174	1174.4	generate	Run3	generate/STIM_021.jpg	100
2239.231	1.97	1969.9	generate	Run3	generate/STIM_021.jpg	99
2244.902	1.513	1513.4	generate	Run3	generate/STIM_021.jpg	99
2249.355	1.253	1252.6	generate	Run3	generate/STIM_021.jpg	100
2254.785	1.945	1945.4	generate	Run3	generate/STIM_021.jpg	100
2259.147	1.852	1852.3	generate	Run3	generate/STIM_022.jpg	100
2265.037	1.253	1253.4	generate	Run3	generate/STIM_022.jpg	99
2268.9	0.983	982.6	generate	Run3	generate/STIM_022.jpg	99
2272.539	1.535	1534.6	generate	Run3	generate/STIM_022.jpg	99
2276.32	1.227	1226.6	generate	Run3	generate/STIM_022.jpg	100
2280.357	1.022	1022.0	generate	Run3	generate/STIM_023.jpg	100
2284.204	0.981	981.3	generate	Run3	generate/STIM_023.jpg	100
2288.032	0.999	998.8	generate	Run3	generate/STIM_023.jpg	99
2291.932	1.654	1654.4	generate	Run3	generate/STIM_023.jpg	99
2297.182	1.475	1475.4	generate	Run3	generate/STIM_023.jpg	99
2302.363	1.041	1041.4	generate	Run3	generate/STIM_024.jpg	100
2305.675	1.547	1547.4	generate	Run3	generate/STIM_024.jpg	99
2310.636	0.819	818.9	generate	Run3	generate/STIM_024.jpg	99
2315.45	1.938	1937.9	generate	Run3	generate/STIM_024.jpg	99
2319.618	1.658	1657.8	generate	Run3	generate/STIM_024.jpg	100
2324.759	0.565	564.8	repeat	Run3	repeat/STIM_000.jpg	99
2328.033	0.664	663.6	repeat	Run3	repeat/STIM_000.jpg	99
2331.644	0.696	696.5	repeat	Run3	repeat/STIM_000.jpg	100
2336.188	0.613	613.3	repeat	Run3	repeat/STIM_000.jpg	100
2339.575	0.587	587.0	repeat	Run3	repeat/STIM_000.jpg	100
2344.224	0.469	468.6	repeat	Run3	repeat/STIM_001.jpg	100
2348.744	0.52	519.6	repeat	Run3	repeat/STIM_001.jpg	100
2351.412	0.738	737.8	repeat	Run3	repeat/STIM_001.jpg	99
2355.941	0.774	774.0	repeat	Run3	repeat/STIM_001.jpg	99
2359.379	0.535	534.7	repeat	Run3	repeat/STIM_001.jpg	99
2362.793	0.54	540.3	repeat	Run3	repeat/STIM_002.jpg	99
2366.591	0.652	651.5	repeat	Run3	repeat/STIM_002.jpg	99
2371.165	0.698	697.7	repeat	Run3	repeat/STIM_002.jpg	100
2375.307	0.749	749.0	repeat	Run3	repeat/STIM_002.jpg	99
2378.168	0.439	439.1	repeat	Run3	repeat/STIM_002.jpg	100
2380.911	0.523	523.4	repeat	Run3	repeat/STIM_003.jpg	100
2383.845	0.458	458.5	repeat	Run3	repeat/STIM_003.jpg	99
2386.654	0.685	684.9	repeat	Run3	repeat/STIM_003.jpg	100
2391.083	0.503	502.9	repeat	Run3	repeat/STIM_003.jpg	100
2395.296	0.812	811.6	repeat	Run3	repeat/STIM_003.jpg	100
2398.907	0.606	606.0	repeat	Run3	repeat/STIM_004.jpg	99
2402.519	0.588	587.7	repeat	Run3	repeat/STIM_004.jpg	99
2405.474	0.605	605.1	repeat	Run3	repeat/STIM_004.jpg	100
2408.44	0.634	633.8	repeat	Run3	repeat/STIM_004.jpg	100
2412.295	0.723	722.7	repeat	Run3	repeat/STIM_004.jpg	100
2415.286	0.816	815.6	repeat	Run3	repeat/STIM_005.jpg	99
2419.185	0.485	485.3	repeat	Run3	repeat/STIM_005.jpg	100
2421.85	0.778	777.8	repeat	Run3	repeat/STIM_005.jpg	100
2425.591	0.675	675.2	repeat	Run3	repeat/STIM_005.jpg	100
2429.313	0.611	610.6	repeat	Run3	repeat/STIM_005.jpg	99
2432.487	0.503	503.3	repeat	Run3	repeat/STIM_006.jpg	100
2436.019	0.518	517.5	repeat	Run3	repeat/STIM_006.jpg	99
2440.564	0.677	676.7	repeat	Run3	repeat/STIM_006.jpg	100
2444.679	0.786	785.5	repeat	Run3	repeat/STIM_006.jpg	100
2448.344	0.884	883.9	repeat	Run3	repeat/STIM_006.jpg	100
2453.14	0.677	677.3	repeat	Run3	repeat/STIM_007.jpg	99
2457.914	0.507	506.9	repeat	Run3	repeat/STIM_007.jpg	99
2462.268	0.778	777.5	repeat	Run3	repeat/STIM_007.jpg	100
2465.788	0.937	936.9	repeat	Run3	repeat/STIM_007.jpg	99
2470.375	0.94	940.0	repeat	Run3	repeat/STIM_007.jpg	99
2473.546	0.709	708.7	repeat	Run3	repeat/STIM_008.jpg	99
2476.781	0.801	800.9	repeat	Run3	repeat/STIM_008.jpg	99
2481.529	0.554	554.1	repeat	Run3	repeat/STIM_008.jpg	100
2485.276	0.636	635.6	repeat	Run3	repeat/STIM_008.jpg	99
2488.926	0.561	560.8	repeat	Run3	repeat/STIM_008.jpg	99
2493.27	0.648	648.3	repeat	Run3	repeat/STIM_009.jpg	100
2497.231	0.703	703.3	repeat	Run3	repeat/STIM_009.jpg	100
2501.568	0.764	764.4	repeat	Run3	repeat/STIM_009.jpg	99
2505.988	0.688	687.5	repeat	Run3	repeat/STIM_009.jpg	100
2510.768	0.682	681.8	repeat	Run3	repeat/STIM_009.jpg	99
2514.577	0.706	706.0	repeat	Run3	repeat/STIM_010.jpg	99
2518.007	0.664	664.4	repeat	Run3	repeat/STIM_010.jpg	99
2522.747	0.708	708.5	repeat	Run3	repeat/STIM_010.jpg	100
2526.401	0.564	564.4	repeat	Run3	repeat/STIM_010.jpg	100
2529.651	0.779	778.8	repeat	Run3	repeat/STIM_010.jpg	99
2533.623	0.454	453.5	repeat	Run3	repeat/STIM_011.jpg	99
2537.677	0.571	571.2	repeat	Run3	repeat/STIM_011.jpg	100
2540.689	0.718	717.7	repeat	Run3	repeat/STIM_011.jpg	99
2544.56	0.543	542.7	repeat	Run3	repeat/STIM_011.jpg	99
2548.988	0.834	834.5	repeat	Run3	repeat/STIM_011.jpg	100
2552.04	0.625	625.4	repeat	Run3	repeat/STIM_012.jpg	100
2555.57	0.587	586.9	repeat	Run3	repeat/STIM_012.jpg	100
2558.671	0.8	800.2	repeat	Run3	repeat/STIM_012.jpg	100
2562.359	0.661	661.4	repeat	Run3	repeat/STIM_012.jpg	99
2565.148	0.691	691.0	repeat	Run3	repeat/STIM_012.jpg	99
2569.422	0.643	643.0	repeat	Run3	repeat/STIM_013.jpg	100
2573.48	0.825	825.2	repeat	Run3	repeat/STIM_013.jpg	99
2576.75	0.749	749.0	repeat	Run3	repeat/STIM_013.jpg	100
2580.332	0.635	635.4	repeat	Run3	repeat/STIM_013.jpg	99
2583.688	0.51	510.4	repeat	Run3	repeat/STIM_013.jpg	100
2587.003	0.584	584.0	repeat	Run3	repeat/STIM_014.jpg	100
2590.613	0.688	687.7	repeat	Run3	repeat/STIM_014.jpg	99
2594.175	0.949	949.2	repeat	Run3	repeat/STIM_014.jpg	99
2598.438	0.62	619.5	repeat	Run3	repeat/STIM_014.jpg	100
2601.298	0.538	538.2	repeat	Run3	repeat/STIM_014.jpg	100
2604.088	1.797	1797.3	generate	Run4	generate/STIM_000.jpg	99
2608.349	1.489	1488.9	generate	Run4	generate/STIM_000.jpg	99
2612.328	1.366	1365.7	generate	Run4	generate/STIM_000.jpg	100
2617.069	1.628	1628.2	generate	Run4	generate/STIM_000.jpg	100
2622.461	0.894	893.6	generate	Run4	generate/STIM_000.jpg	99
2626.592	1.34	1340.1	generate	Run4	generate/STIM_001.jpg	99
2630.673	1.192	1191.5	generate	Run4	generate/STIM_001.jpg	100
2634.899	1.166	1166.4	generate	Run4	generate/STIM_001.jpg	100
2638.865	0.894	894.1	generate	Run4	generate/STIM_001.jpg	100
2643.484	1.511	1510.9	generate	Run4	generate/STIM_001.jpg	99
2648.013	1.255	1255.2	generate	Run4	generate/STIM_002.jpg	99
2652.364	1.947	1947.1	generate	Run4	generate/STIM_002.jpg	99
2657.539	0.96	959.6	generate	Run4	generate/STIM_002.jpg	99
2662.645	0.764	764.0	generate	Run4	generate/STIM_002.jpg	99
2666.928	1.733	1733.3	generate	Run4	generate/STIM_002.jpg	100
2672.862	0.773	772.8	generate	Run4	generate/STIM_003.jpg	100
2676.616	0.763	763.0	generate	Run4	generate/STIM_003.jpg	99
2679.771	0.988	988.0	generate	Run4	generate/STIM_003.jpg	100
2683.489	1.536	1536.1	generate	Run4	generate/STIM_003.jpg	99
2687.775	1.431	1430.7	generate	Run4	generate/STIM_003.jpg	100
2692.26	1.086	1085.8	generate	Run4	generate/STIM_004.jpg	99
2697.318	1.618	1618.3	generate	Run4	generate/STIM_004.jpg	99
2701.43	0.815	814.8	generate	Run4	generate/STIM_004.jpg	100
2705.968	1.232	1231.5	generate	Run4	generate/STIM_004.jpg	100
2710.056	1.386	1386.1	generate	Run4	generate/STIM_004.jpg	100
2714.0	1.006	1005.6	generate	Run4	generate/STIM_005.jpg	99
2717.653	1.144	1144.1	generate	Run4	generate/STIM_005.jpg	100
2722.105	1.265	1265.1	generate	Run4	generate/STIM_005.jpg	99
2727.487	1.384	1383.8	generate	Run4	generate/STIM_005.jpg	100
2733.038	1.668	1668.2	generate	Run4	generate/STIM_005.jpg	99
2738.216	1.66	1660.3	generate	Run4	generate/STIM_006.jpg	100
2743.851	0.908	908.3	generate	Run4	generate/STIM_006.jpg	99
2748.558	1.225	1224.9	generate	Run4	generate/STIM_006.jpg	99
2752.93	0.873	872.9	generate	Run4	generate/STIM_006.jpg	100
2756.447	1.12	1119.6	generate	Run4	generate/STIM_006.jpg	100
2760.926	1.506	1506.1	generate	Run4	generate/STIM_007.jpg	99
2765.653	1.92	1919.7	generate	Run4	generate/STIM_007.jpg	100
2770.842	1.02	1020.3	generate	Run4	generate/STIM_007.jpg	99
2774.699	1.176	1176.2	generate	Run4	generate/STIM_007.jpg	100
2779.175	1.213	1213.4	generate	Run4	generate/STIM_007.jpg	100
2783.974	1.493	1492.7	generate	Run4	generate/STIM_008.jpg	100
2788.064	1.278	1278.3	generate	Run4	generate/STIM_008.jpg	100
2792.035	1.053	1053.0	generate	Run4	generate/STIM_008.jpg	100
2796.443	0.777	777.3	generate	Run4	generate/STIM_008.jpg	99
2801.27	0.915	914.6	generate	Run4	generate/STIM_008.jpg	99
2805.818	1.298	1298.0	generate	Run4	generate/STIM_009.jpg	100
2811.214	1.376	1375.5	generate	Run4	generate/STIM_009.jpg	99
2815.945	1.292	1292.4	generate	Run4	generate/STIM_009.jpg	99
2819.75	1.514	1514.4	generate	Run4	generate/STIM_009.jpg	100
2825.354	1.054	1053.6	generate	Run4	generate/STIM_009.jpg	99
2828.921	1.753	1753.3	generate	Run4	generate/STIM_010.jpg	100
2833.723	1.145	1144.9	generate	Run4	generate/STIM_010.jpg	99
2838.781	1.119	1119.3	generate	Run4	generate/STIM_010.jpg	100
2842.602	1.545	1544.9	generate	Run4	generate/STIM_010.jpg	100
2847.265	1.823	1823.2	generate	Run4	generate/STIM_010.jpg	100
2852.212	1.11	1110.4	generate	Run4	generate/STIM_011.jpg	100
2856.032	1.681	1681.3	generate	Run4	generate/STIM_011.jpg	100
2860.675	1.615	1615.2	generate	Run4	generate/STIM_011.jpg	100
2866.03	1.486	1485.7	generate	Run4	generate/STIM_011.jpg	99
2870.758	0.853	852.6	generate	Run4	generate/STIM_011.jpg	99
2873.969	1.325	1324.8	generate	Run4	generate/STIM_012.jpg	100
2879.174	1.96	1960.3	generate	Run4	generate/STIM_012.jpg	99
2885.168	1.468	1468.5	generate	Run4	generate/STIM_012.jpg	100
2889.864	1.475	1474.7	generate	Run4	generate/STIM_012.jpg	100
2895.402	0.865	865.3	generate	Run4	generate/STIM_012.jpg	99
2899.6	1.759	1758.7	generate	Run4	generate/STIM_013.jpg	100
2904.521	1.765	1764.6	generate	Run4	generate/STIM_013.jpg	99
2908.673	1.751	1751.0	generate	Run4	generate/STIM_013.jpg	99
2914.095	1.145	1144.8	generate	Run4	generate/STIM_013.jpg	99
2919.293	1.286	1285.8	generate	Run4	generate/STIM_013.jpg	99
2923.443	1.323	1323.3	generate	Run4	generate/STIM_014.jpg	100
2927.427	1.044	1044.3	generate	Run4	generate/STIM_014.jpg	99
2930.878	1.22	1220.5	generate	Run4	generate/STIM_014.jpg	99
2934.699	1.018	1017.9	generate	Run4	generate/STIM_014.jpg	99
2938.807	0.969	969.4	generate	Run4	generate/STIM_014.jpg	99
2943.199	1.136	1135.9	generate	Run4	generate/STIM_015.jpg	99
2946.698	1.604	1604.1	generate	Run4	generate/STIM_015.jpg	100
2950.905	1.9	1900.0	generate	Run4	generate/STIM_015.jpg	99
2956.437	0.795	794.6	generate	Run4	generate/STIM_015.jpg	99
2961.005	1.487	1487.4	generate	Run4	generate/STIM_015.jpg	99
2965.478	1.438	1438.3	generate	Run4	generate/STIM_016.jpg	100
2969.561	0.852	852.0	generate	Run4	generate/STIM_016.jpg	99
2972.826	1.322	1321.6	generate	Run4	generate/STIM_016.jpg	100
2978.119	1.3	1299.8	generate	Run4	generate/STIM_016.jpg	100
2982.259	1.649	1649.2	generate	Run4	generate/STIM_016.jpg	99
2987.864	1.836	1835.9	generate	Run4	generate/STIM_017.jpg	99
2993.685	1.015	1015.4	generate	Run4	generate/STIM_017.jpg	100
2997.884	0.963	963.2	generate	Run4	generate/STIM_017.jpg	99
3001.271	1.222	1222.4	generate	Run4	generate/STIM_017.jpg	99
3005.487	1.701	1701.3	generate	Run4	generate/STIM_017.jpg	99
3010.359	1.682	1681.6	generate	Run4	generate/STIM_018.jpg	99
3015.779	1.415	1414.6	generate	Run4	generate/STIM_018.jpg	99
3020.907	1.476	1476.5	generate	Run4	generate/STIM_018.jpg	99
3024.614	1.16	1160.5	generate	Run4	generate/STIM_018.jpg	100
3029.383	1.876	1876.4	generate	Run4	generate/STIM_018.jpg	99
3035.297	1.709	1708.8	generate	Run4	generate/STIM_019.jpg	99
3039.555	1.502	1502.3	generate	Run4	generate/STIM_019.jpg	99
3044.658	1.761	1760.7	generate	Run4	generate/STIM_019.jpg	100
3050.457	1.6	1599.9	generate	Run4	generate/STIM_019.jpg	99
3055.964	1.416	1416.2	generate	Run4	generate/STIM_019.jpg	99
3060.815	1.198	1198.5	generate	Run4	generate/STIM_020.jpg	100
3065.517	1.435	1435.2	generate	Run4	generate/STIM_020.jpg	99
3070.904	1.456	1455.7	generate	Run4	generate/STIM_020.jpg	99
3075.382	1.88	1880.3	generate	Run4	generate/STIM_020.jpg	99
3081.029	1.823	1823.1	generate	Run4	generate/STIM_020.jpg	99
3085.636	1.848	1847.5	generate	Run4	generate/STIM_021.jpg	100
3090.627	1.156	1156.4	generate	Run4	generate/STIM_021.jpg	99
3095.37	1.235	1235.0	generate	Run4	generate/STIM_021.jpg	100
3099.218	1.686	1686.4	generate	Run4	generate/STIM_021.jpg	99
3103.498	1.41	1410.2	generate	Run4	generate/STIM_021.jpg	99
3107.666	1.42	1420.3	generate	Run4	generate/STIM_022.jpg	100
3111.697	1.359	1359.0	generate	Run4	generate/STIM_022.jpg	100
3116.56	1.079	1079.3	generate	Run4	generate/STIM_022.jpg	100
3121.457	1.078	1077.8	generate	Run4	generate/STIM_022.jpg	100
3126.381	0.811	810.9	generate	Run4	generate/STIM_022.jpg	99
3130.415	1.873	1873.4	generate	Run4	generate/STIM_023.jpg	99
3134.849	1.16	1160.4	generate	Run4	generate/STIM_023.jpg	100
3139.98	1.66	1660.5	generate	Run4	generate/STIM_023.jpg	99
3145.523	1.806	1805.8	generate	Run4	generate/STIM_023.jpg	99
3150.588	1.648	1648.0	generate	Run4	generate/STIM_023.jpg	100
3155.14	1.605	1604.8	generate	Run4	generate/STIM_024.jpg	100
3160.195	1.007	1006.9	generate	Run4	generate/STIM_024.jpg	100
3163.973	1.391	1390.8	generate	Run4	generate/STIM_024.jpg	99
3168.915	1.808	1807.9	generate	Run4	generate/STIM_024.jpg	99
3174.542	1.651	1650.8	generate	Run4	generate/STIM_024.jpg	100
3178.695	0.529	528.9	repeat	Run4	repeat/STIM_000.jpg	99
3181.918	0.857	856.6	repeat	Run4	repeat/STIM_000.jpg	99
3185.434	0.769	769.3	repeat	Run4	repeat/STIM_000.jpg	99
3189.754	0.609	608.9	repeat	Run4	repeat/STIM_000.jpg	100
3193.185	0.61	610.3	repeat	Run4	repeat/STIM_000.jpg	100
3196.99	0.679	678.8	repeat	Run4	repeat/STIM_001.jpg	99
3201.035	0.974	973.6	repeat	Run4	repeat/STIM_001.jpg	100
3204.746	0.652	652.2	repeat	Run4	repeat/STIM_001.jpg	100
3208.585	0.801	800.7	repeat	Run4	repeat/STIM_001.jpg	99
3212.614	0.89	889.5	repeat	Run4	repeat/STIM_001.jpg	99
3216.295	0.851	850.8	repeat	Run4	repeat/STIM_002.jpg	100
3221.246	0.783	782.8	repeat	Run4	repeat/STIM_002.jpg	99
3225.448	0.509	509.1	repeat	Run4	repeat/STIM_002.jpg	99
3229.308	0.825	825.4	repeat	Run4	repeat/STIM_002.jpg	100
3234.115	0.499	499.1	repeat	Run4	repeat/STIM_002.jpg	100
3238.167	0.804	803.7	repeat	Run4	repeat/STIM_003.jpg	99
3242.786	0.715	715.2	repeat	Run4	repeat/STIM_003.jpg	99
3247.416	0.772	772.0	repeat	Run4	repeat/STIM_003.jpg	99
3252.006	0.623	622.7	repeat	Run4	repeat/STIM_003.jpg	100
3255.468	0.651	651.1	repeat	Run4	repeat/STIM_003.jpg	99
3258.595	0.772	772.4	repeat	Run4	repeat/STIM_004.jpg	99
3262.496	0.769	768.6	repeat	Run4	repeat/STIM_004.jpg	100
3265.854	0.577	576.8	repeat	Run4	repeat/STIM_004.jpg	99
3268.998	0.391	391.3	repeat	Run4	repeat/STIM_004.jpg	99
3271.978	0.614	613.8	repeat	Run4	repeat/STIM_004.jpg	99
3276.327	0.687	686.8	repeat	Run4	repeat/STIM_005.jpg	100
3280.091	0.584	584.4	repeat	Run4	repeat/STIM_005.jpg	99
3283.466	0.653	653.0	repeat	Run4	repeat/STIM_005.jpg	100
3287.88	0.697	696.7	repeat	Run4	repeat/STIM_005.jpg	99
3291.407	0.634	633.5	repeat	Run4	repeat/STIM_005.jpg	99
3294.899	0.678	677.9	repeat	Run4	repeat/STIM_006.jpg	99
3297.629	0.761	761.4	repeat	Run4	repeat/STIM_006.jpg	99
3300.624	0.558	557.8	repeat	Run4	repeat/STIM_006.jpg	100
3304.635	0.572	572.2	repeat	Run4	repeat/STIM_006.jpg	99
3307.74	0.847	847.2	repeat	Run4	repeat/STIM_006.jpg	99
3312.429	0.594	594.0	repeat	Run4	repeat/STIM_007.jpg	100
3315.327	0.516	516.4	repeat	Run4	repeat/STIM_007.jpg	99
3319.198	0.894	893.9	repeat	Run4	repeat/STIM_007.jpg	100
3323.86	0.893	893.3	repeat	Run4	repeat/STIM_007.jpg	99
3327.383	0.705	705.2	repeat	Run4	repeat/STIM_007.jpg	99
3331.393	0.704	704.4	repeat	Run4	repeat/STIM_008.jpg	99
3335.799	0.87	870.2	repeat	Run4	repeat/STIM_008.jpg	100
3339.465	0.47	470.2	repeat	Run4	repeat/STIM_008.jpg	99
3342.727	0.716	716.4	repeat	Run4	repeat/STIM_008.jpg	99
3346.622	0.805	805.4	repeat	Run4	repeat/STIM_008.jpg	99
3350.261	0.564	564.3	repeat	Run4	repeat/STIM_009.jpg	100
3353.225	0.535	535.1	repeat	Run4	repeat/STIM_009.jpg	99
3356.284	0.826	826.1	repeat	Run4	repeat/STIM_009.jpg	99
3360.147	0.885	884.9	repeat	Run4	repeat/STIM_009.jpg	100
3363.684	0.426	426.4	repeat	Run4	repeat/STIM_009.jpg	100
3368.157	0.824	823.5	repeat	Run4	repeat/STIM_010.jpg	100
3371.52	0.698	698.0	repeat	Run4	repeat/STIM_010.jpg	100
3375.782	0.885	884.8	repeat	Run4	repeat/STIM_010.jpg	99
3379.812	0.713	712.8	repeat	Run4	repeat/STIM_010.jpg	99
3382.649	0.87	869.8	repeat	Run4	repeat/STIM_010.jpg	100
3386.523	0.92	920.5	repeat	Run4	repeat/STIM_011.jpg	100
3390.789	0.778	778.4	repeat	Run4	repeat/STIM_011.jpg	99
3395.483	0.686	686.5	repeat	Run4	repeat/STIM_011.jpg	100
3399.632	0.623	622.9	repeat	Run4	repeat/STIM_011.jpg	99
3403.036	0.841	841.3	repeat	Run4	repeat/STIM_011.jpg	100
3407.455	0.716	716.0	repeat	Run4	repeat/STIM_012.jpg	99
3410.725	0.623	623.1	repeat	Run4	repeat/STIM_012.jpg	100
3414.458	0.534	534.2	repeat	Run4	repeat/STIM_012.jpg	99
3418.868	0.644	643.9	repeat	Run4	repeat/STIM_012.jpg	100
3422.568	0.564	564.5	repeat	Run4	repeat/STIM_012.jpg	99
3425.879	0.864	864.3	repeat	Run4	repeat/STIM_013.jpg	99
3429.023	0.878	877.7	repeat	Run4	repeat/STIM_013.jpg	99
3433.215	0.65	649.8	repeat	Run4	repeat/STIM_013.jpg	99
3437.447	0.764	764.3	repeat	Run4	repeat/STIM_013.jpg	99
3442.027	0.857	856.8	repeat	Run4	repeat/STIM_013.jpg	100
3446.099	0.892	891.9	repeat	Run4	repeat/STIM_014.jpg	99
3449.626	0.808	807.5	repeat	Run4	repeat/STIM_014.jpg	100
3453.17	0.855	854.7	repeat	Run4	repeat/STIM_014.jpg	100
3456.995	0.856	856.1	repeat	Run4	repeat/STIM_014.jpg	99
3460.606	0.485	484.7	repeat	Run4	repeat/STIM_014.jpg	99
