onset	duration	response_time_ms	trial_type	learning_stage	stimulus	response_port
0.0	1.979	1979.1	generate	Run1	generate/STIM_000.jpg	100
4.227	1.685	1685.0	generate	Run1	generate/STIM_000.jpg	99
9.552	1.286	1286.0	generate	Run1	generate/STIM_000.jpg	100
14.655	1.648	1647.5	generate	Run1	generate/STIM_000.jpg	100
20.228	1.596	1596.0	generate	Run1	generate/STIM_000.jpg	100
23.832	1.636	1636.1	generate	Run1	generate/STIM_001.jpg	99
29.259	2.066	2066.1	generate	Run1	generate/STIM_001.jpg	100
34.681	1.45	1450.4	generate	Run1	generate/STIM_001.jpg	100
39.047	1.201	1200.8	generate	Run1	generate/STIM_001.jpg	100
42.436	1.184	1184.1	generate	Run1	generate/STIM_001.jpg	100
46.724	0.992	991.9	generate	Run1	generate/STIM_002.jpg	100
50.795	1.348	1348.1	generate	Run1	generate/STIM_002.jpg	100
55.849	1.472	1471.7	generate	Run1	generate/STIM_002.jpg	100
60.585	0.863	863.2	generate	Run1	generate/STIM_002.jpg	99
64.541	0.806	806.1	generate	Run1	generate/STIM_002.jpg	99
69.261	2.067	2067.4	generate	Run1	generate/STIM_003.jpg	100
74.439	1.324	1324.2	generate	Run1	generate/STIM_003.jpg	100
79.421	1.036	1035.8	generate	Run1	generate/STIM_003.jpg	99
84.152	0.943	943.3	generate	Run1	generate/STIM_003.jpg	99
87.273	0.93	930.1	generate	Run1	generate/STIM_003.jpg	99
91.122	1.622	1622.3	generate	Run1	generate/STIM_004.jpg	100
96.386	1.198	1197.6	generate	Run1	generate/STIM_004.jpg	99
100.055	1.598	1597.6	generate	Run1	generate/STIM_004.jpg	99
105.026	1.622	1622.3	generate	Run1	generate/STIM_004.jpg	99
109.157	0.78	780.1	generate	Run1	generate/STIM_004.jpg	100
112.783	1.916	1915.9	generate	Run1	generate/STIM_005.jpg	99
118.605	1.691	1691.3	generate	Run1	generate/STIM_005.jpg	100
124.029	1.051	1050.6	generate	Run1	generate/STIM_005.jpg	99
128.856	1.419	1419.2	generate	Run1	generate/STIM_005.jpg	99
133.047	0.965	964.6	generate	Run1	generate/STIM_005.jpg	100
137.478	1.7	1700.1	generate	Run1	generate/STIM_006.jpg	100
142.1	1.27	1269.8	generate	Run1	generate/STIM_006.jpg	100
146.276	1.467	1466.9	generate	Run1	generate/STIM_006.jpg	100
151.153	1.629	1628.8	generate	Run1	generate/STIM_006.jpg	100
156.681	1.308	1308.1	generate	Run1	generate/STIM_006.jpg	100
161.538	1.88	1879.8	generate	Run1	generate/STIM_007.jpg	99
166.058	1.872	1871.9	generate	Run1	generate/STIM_007.jpg	99
170.396	1.86	1859.7	generate	Run1	generate/STIM_007.jpg	99
174.359	1.843	1843.0	generate	Run1	generate/STIM_007.jpg	100
179.6	1.095	1094.9	generate	Run1	generate/STIM_007.jpg	99
183.722	1.303	1303.0	generate	Run1	generate/STIM_008.jpg	99
188.753	0.993	992.7	generate	Run1	generate/STIM_008.jpg	99
191.954	1.996	1995.7	generate	Run1	generate/STIM_008.jpg	100
197.139	1.78	1780.0	generate	Run1	generate/STIM_008.jpg	99
201.267	1.222	1221.9	generate	Run1	generate/STIM_008.jpg	100
205.776	1.973	1973.0	generate	Run1	generate/STIM_009.jpg	99
211.66	1.87	1869.6	generate	Run1	generate/STIM_009.jpg	99
216.755	1.964	1963.7	generate	Run1	generate/STIM_009.jpg	99
222.659	1.003	1002.9	generate	Run1	generate/STIM_009.jpg	100
227.282	0.839	838.9	generate	Run1	generate/STIM_009.jpg	100
230.895	1.321	1320.6	generate	Run1	generate/STIM_010.jpg	99
234.771	1.405	1405.0	generate	Run1	generate/STIM_010.jpg	100
239.476	1.986	1985.6	generate	Run1	generate/STIM_010.jpg	99
243.541	1.232	1232.1	generate	Run1	generate/STIM_010.jpg	99
247.131	1.434	1434.5	generate	Run1	generate/STIM_010.jpg	99
250.888	1.481	1481.4	generate	Run1	generate/STIM_011.jpg	100
256.138	0.967	967.1	generate	Run1	generate/STIM_011.jpg	100
260.765	1.259	1259.2	generate	Run1	generate/STIM_011.jpg	100
264.729	0.841	841.2	generate	Run1	generate/STIM_011.jpg	100
269.376	1.212	1212.1	generate	Run1	generate/STIM_011.jpg	100
274.518	2.304	2304.4	generate	Run1	generate/STIM_012.jpg	99
280.021	1.747	1746.6	generate	Run1	generate/STIM_012.jpg	99
283.805	1.656	1656.3	generate	Run1	generate/STIM_012.jpg	99
288.568	1.811	1811.4	generate	Run1	generate/STIM_012.jpg	99
294.159	1.768	1767.7	generate	Run1	generate/STIM_012.jpg	99
299.088	1.179	1179.3	generate	Run1	generate/STIM_013.jpg	100
303.206	1.683	1682.8	generate	Run1	generate/STIM_013.jpg	100
307.401	1.98	1980.2	generate	Run1	generate/STIM_013.jpg	99
312.982	1.931	1930.7	generate	Run1	generate/STIM_013.jpg	99
317.403	1.645	1644.8	generate	Run1	generate/STIM_013.jpg	99
321.314	1.396	1395.7	generate	Run1	generate/STIM_014.jpg	100
325.275	2.101	2101.4	generate	Run1	generate/STIM_014.jpg	99
331.01	1.161	1160.7	generate	Run1	generate/STIM_014.jpg	99
335.76	1.553	1553.3	generate	Run1	generate/STIM_014.jpg	99
341.164	1.043	1042.8	generate	Run1	generate/STIM_014.jpg	100
344.867	1.379	1378.6	generate	Run1	generate/STIM_015.jpg	100
349.829	0.953	952.7	generate	Run1	generate/STIM_015.jpg	99
354.54	1.072	1072.2	generate	Run1	generate/STIM_015.jpg	99
359.163	1.474	1473.7	generate	Run1	generate/STIM_015.jpg	100
364.181	1.584	1584.2	generate	Run1	generate/STIM_015.jpg	100
368.697	1.196	1195.5	generate	Run1	generate/STIM_016.jpg	100
373.087	1.262	1262.2	generate	Run1	generate/STIM_016.jpg	99
376.43	1.61	1609.8	generate	Run1	generate/STIM_016.jpg	100
380.992	1.628	1628.3	generate	Run1	generate/STIM_016.jpg	100
386.114	1.071	1071.2	generate	Run1	generate/STIM_016.jpg	100
389.578	1.271	1271.0	generate	Run1	generate/STIM_017.jpg	99
393.058	1.439	1439.1	generate	Run1	generate/STIM_017.jpg	99
397.709	1.192	1192.5	generate	Run1	generate/STIM_017.jpg	100
400.932	1.816	1816.2	generate	Run1	generate/STIM_017.jpg	100
405.961	1.108	1108.0	generate	Run1	generate/STIM_017.jpg	99
410.723	2.183	2182.9	generate	Run1	generate/STIM_018.jpg	99
415.776	2.05	2050.0	generate	Run1	generate/STIM_018.jpg	99
419.845	2.05	2050.1	generate	Run1	generate/STIM_018.jpg	100
424.436	0.874	874.5	generate	Run1	generate/STIM_018.jpg	99
427.56	1.309	1309.1	generate	Run1	generate/STIM_018.jpg	100
431.258	1.918	1918.2	generate	Run1	generate/STIM_019.jpg	99
435.527	1.141	1141.4	generate	Run1	generate/STIM_019.jpg	99
439.469	0.852	852.0	generate	Run1	generate/STIM_019.jpg	99
442.476	0.838	837.8	generate	Run1	generate/STIM_019.jpg	99
445.646	1.758	1758.0	generate	Run1	generate/STIM_019.jpg	99
449.648	2.173	2172.7	generate	Run1	generate/STIM_020.jpg	100
455.669	0.923	922.8	generate	Run1	generate/STIM_020.jpg	99
458.856	0.867	866.8	generate	Run1	generate/STIM_020.jpg	100
462.287	1.792	1792.2	generate	Run1	generate/STIM_020.jpg	99
467.992	1.578	1578.2	generate	Run1	generate/STIM_020.jpg	100
472.825	2.022	2022.2	generate	Run1	generate/STIM_021.jpg	99
477.505	0.9	899.7	generate	Run1	generate/STIM_021.jpg	100
482.327	1.803	1802.8	generate	Run1	generate/STIM_021.jpg	100
486.62	1.345	1344.8	generate	Run1	generate/STIM_021.jpg	99
490.792	1.59	1589.5	generate	Run1	generate/STIM_021.jpg	99
495.589	2.304	2303.8	generate	Run1	generate/STIM_022.jpg	99
500.32	1.153	1153.4	generate	Run1	generate/STIM_022.jpg	100
504.17	0.938	938.0	generate	Run1	generate/STIM_022.jpg	99
508.486	1.398	1398.3	generate	Run1	generate/STIM_022.jpg	99
512.29	1.658	1657.7	generate	Run1	generate/STIM_022.jpg	99
516.102	1.477	1476.9	generate	Run1	generate/STIM_023.jpg	100
520.577	1.812	1812.1	generate	Run1	generate/STIM_023.jpg	100
525.628	1.655	1654.8	generate	Run1	generate/STIM_023.jpg	100
529.59	1.441	1440.6	generate	Run1	generate/STIM_023.jpg	100
534.964	1.11	1110.1	generate	Run1	generate/STIM_023.jpg	99
538.296	1.577	1576.7	generate	Run1	generate/STIM_024.jpg	100
542.722	1.613	1612.8	generate	Run1	generate/STIM_024.jpg	99
547.925	0.9	899.7	generate	Run1	generate/STIM_024.jpg	100
550.847	1.226	1226.1	generate	Run1	generate/STIM_024.jpg	100
555.574	1.691	1691.1	generate	Run1	generate/STIM_024.jpg	100
559.417	0.544	543.9	repeat	Run1	repeat/STIM_000.jpg	99
562.39	0.753	752.6	repeat	Run1	repeat/STIM_000.jpg	100
566.646	0.768	767.7	repeat	Run1	repeat/STIM_000.jpg	99
570.208	0.723	722.6	repeat	Run1	repeat/STIM_000.jpg	99
574.407	0.712	712.4	repeat	Run1	repeat/STIM_000.jpg	100
577.149	0.684	683.7	repeat	Run1	repeat/STIM_001.jpg	99
580.903	0.448	447.9	repeat	Run1	repeat/STIM_001.jpg	100
583.85	0.657	657.0	repeat	Run1	repeat/STIM_001.jpg	99
588.04	0.737	737.3	repeat	Run1	repeat/STIM_001.jpg	99
591.99	0.613	613.3	repeat	Run1	repeat/STIM_001.jpg	100
596.272	0.638	637.6	repeat	Run1	repeat/STIM_002.jpg	100
598.954	0.68	679.9	repeat	Run1	repeat/STIM_002.jpg	100
603.451	0.618	618.5	repeat	Run1	repeat/STIM_002.jpg	100
606.538	0.553	553.3	repeat	Run1	repeat/STIM_002.jpg	99
610.529	0.539	539.1	repeat	Run1	repeat/STIM_002.jpg	99
613.195	0.737	736.6	repeat	Run1	repeat/STIM_003.jpg	99
616.896	0.441	440.7	repeat	Run1	repeat/STIM_003.jpg	99
620.148	0.423	422.6	repeat	Run1	repeat/STIM_003.jpg	100
623.37	0.575	575.0	repeat	Run1	repeat/STIM_003.jpg	100
626.261	0.533	533.2	repeat	Run1	repeat/STIM_003.jpg	100
630.167	0.535	535.2	repeat	Run1	repeat/STIM_004.jpg	99
634.599	0.531	531.2	repeat	Run1	repeat/STIM_004.jpg	99
637.772	0.623	622.7	repeat	Run1	repeat/STIM_004.jpg	99
641.477	0.675	675.3	repeat	Run1	repeat/STIM_004.jpg	100
645.908	0.573	573.2	repeat	Run1	repeat/STIM_004.jpg	99
650.031	0.398	398.3	repeat	Run1	repeat/STIM_005.jpg	100
652.89	0.471	471.3	repeat	Run1	repeat/STIM_005.jpg	100
655.984	0.579	579.1	repeat	Run1	repeat/STIM_005.jpg	100
658.713	0.604	603.7	repeat	Run1	repeat/STIM_005.jpg	100
661.82	0.506	505.9	repeat	Run1	repeat/STIM_005.jpg	100
665.772	0.577	576.6	repeat	Run1	repeat/STIM_006.jpg	100
669.488	0.598	597.6	repeat	Run1	repeat/STIM_006.jpg	100
674.028	0.548	548.5	repeat	Run1	repeat/STIM_006.jpg	100
677.402	0.651	651.2	repeat	Run1	repeat/STIM_006.jpg	99
680.715	0.435	434.7	repeat	Run1	repeat/STIM_006.jpg	100
684.209	0.708	708.4	repeat	Run1	repeat/STIM_007.jpg	100
687.61	0.575	574.8	repeat	Run1	repeat/STIM_007.jpg	100
691.699	0.486	486.4	repeat	Run1	repeat/STIM_007.jpg	100
695.004	0.692	691.7	repeat	Run1	repeat/STIM_007.jpg	99
699.504	0.406	405.7	repeat	Run1	repeat/STIM_007.jpg	99
702.569	0.691	690.8	repeat	Run1	repeat/STIM_008.jpg	99
705.729	0.52	520.5	repeat	Run1	repeat/STIM_008.jpg	100
708.559	0.412	412.0	repeat	Run1	repeat/STIM_008.jpg	100
711.925	0.418	418.5	repeat	Run1	repeat/STIM_008.jpg	100
715.527	0.385	384.9	repeat	Run1	repeat/STIM_008.jpg	99
718.124	0.571	571.2	repeat	Run1	repeat/STIM_009.jpg	100
721.861	0.535	535.1	repeat	Run1	repeat/STIM_009.jpg	100
724.717	0.403	402.7	repeat	Run1	repeat/STIM_009.jpg	100
728.543	0.642	641.6	repeat	Run1	repeat/STIM_009.jpg	99
733.121	0.5	499.5	repeat	Run1	repeat/STIM_009.jpg	99
737.613	0.586	585.6	repeat	Run1	repeat/STIM_010.jpg	99
741.071	0.474	474.1	repeat	Run1	repeat/STIM_010.jpg	100
743.57	0.639	639.1	repeat	Run1	repeat/STIM_010.jpg	100
746.491	0.655	654.8	repeat	Run1	repeat/STIM_010.jpg	99
750.798	0.692	691.9	repeat	Run1	repeat/STIM_010.jpg	100
754.01	0.688	688.2	repeat	Run1	repeat/STIM_011.jpg	100
758.69	0.482	482.1	repeat	Run1	repeat/STIM_011.jpg	100
763.118	0.47	470.3	repeat	Run1	repeat/STIM_011.jpg	100
765.94	0.733	732.8	repeat	Run1	repeat/STIM_011.jpg	100
769.72	0.652	651.8	repeat	Run1	repeat/STIM_011.jpg	100
773.646	0.724	723.9	repeat	Run1	repeat/STIM_012.jpg	99
776.694	0.49	490.2	repeat	Run1	repeat/STIM_012.jpg	100
780.035	0.581	580.8	repeat	Run1	repeat/STIM_012.jpg	100
783.16	0.508	508.3	repeat	Run1	repeat/STIM_012.jpg	100
787.199	0.464	463.8	repeat	Run1	repeat/STIM_012.jpg	99
790.267	0.413	413.3	repeat	Run1	repeat/STIM_013.jpg	100
793.251	0.47	469.7	repeat	Run1	repeat/STIM_013.jpg	100
796.965	0.588	588.0	repeat	Run1	repeat/STIM_013.jpg	100
800.042	0.565	565.1	repeat	Run1	repeat/STIM_013.jpg	99
803.36	0.509	508.8	repeat	Run1	repeat/STIM_013.jpg	100
806.871	0.708	707.7	repeat	Run1	repeat/STIM_014.jpg	99
811.187	0.738	738.3	repeat	Run1	repeat/STIM_014.jpg	100
814.953	0.47	470.5	repeat	Run1	repeat/STIM_014.jpg	99
818.551	0.479	478.8	repeat	Run1	repeat/STIM_014.jpg	99
822.015	0.606	605.9	repeat	Run1	repeat/STIM_014.jpg	99
825.222	0.839	839.0	generate	Run2	generate/STIM_000.jpg	99
829.156	1.056	1055.9	generate	Run2	generate/STIM_000.jpg	99
834.0	0.824	823.9	generate	Run2	generate/STIM_000.jpg	100
837.368	1.519	1518.6	generate	Run2	generate/STIM_000.jpg	99
841.635	1.054	1054.1	generate	Run2	generate/STIM_000.jpg	99
845.431	1.28	1279.6	generate	Run2	generate/STIM_001.jpg	100
849.226	1.026	1026.2	generate	Run2	generate/STIM_001.jpg	100
853.832	1.728	1728.0	generate	Run2	generate/STIM_001.jpg	99
859.508	0.685	685.3	generate	Run2	generate/STIM_001.jpg	100
863.482	0.71	710.2	generate	Run2	generate/STIM_001.jpg	99
866.308	1.6	1599.5	generate	Run2	generate/STIM_002.jpg	100
871.012	0.947	946.7	generate	Run2	generate/STIM_002.jpg	99
875.534	1.469	1468.7	generate	Run2	generate/STIM_002.jpg	100
879.994	1.127	1126.8	generate	Run2	generate/STIM_002.jpg	100
884.13	0.836	836.2	generate	Run2	generate/STIM_002.jpg	99
888.757	1.472	1472.2	generate	Run2	generate/STIM_003.jpg	100
892.247	1.529	1529.2	generate	Run2	generate/STIM_003.jpg	99
896.145	0.898	897.6	generate	Run2	generate/STIM_003.jpg	99
899.39	0.687	687.2	generate	Run2	generate/STIM_003.jpg	100
902.296	1.527	1527.4	generate	Run2	generate/STIM_003.jpg	100
907.661	1.584	1583.5	generate	Run2	generate/STIM_004.jpg	100
912.61	1.441	1441.0	generate	Run2	generate/STIM_004.jpg	99
916.778	1.015	1015.1	generate	Run2	generate/STIM_004.jpg	100
920.036	1.572	1571.7	generate	Run2	generate/STIM_004.jpg	100
923.79	1.499	1498.8	generate	Run2	generate/STIM_004.jpg	99
928.149	1.36	1359.7	generate	Run2	generate/STIM_005.jpg	99
933.045	1.669	1668.7	generate	Run2	generate/STIM_005.jpg	99
938.55	1.171	1171.3	generate	Run2	generate/STIM_005.jpg	100
942.222	0.712	712.0	generate	Run2	generate/STIM_005.jpg	100
945.924	1.164	1164.4	generate	Run2	generate/STIM_005.jpg	100
950.382	1.436	1435.6	generate	Run2	generate/STIM_006.jpg	100
955.68	1.346	1345.8	generate	Run2	generate/STIM_006.jpg	99
960.053	1.291	1290.9	generate	Run2	generate/STIM_006.jpg	100
964.976	1.19	1189.5	generate	Run2	generate/STIM_006.jpg	100
969.111	1.543	1542.7	generate	Run2	generate/STIM_006.jpg	100
973.282	1.568	1567.7	generate	Run2	generate/STIM_007.jpg	100
977.51	1.01	1010.5	generate	Run2	generate/STIM_007.jpg	99
981.727	1.032	1031.7	generate	Run2	generate/STIM_007.jpg	100
984.784	1.094	1093.6	generate	Run2	generate/STIM_007.jpg	99
988.767	1.265	1264.8	generate	Run2	generate/STIM_007.jpg	99
992.552	0.972	971.7	generate	Run2	generate/STIM_008.jpg	99
997.214	1.282	1282.3	generate	Run2	generate/STIM_008.jpg	99
1001.03	1.504	1503.5	generate	Run2	generate/STIM_008.jpg	99
1006.441	0.843	843.3	generate	Run2	generate/STIM_008.jpg	99
1010.784	1.349	1348.8	generate	Run2	generate/STIM_008.jpg	99
1016.105	1.469	1469.0	generate	Run2	generate/STIM_009.jpg	100
1020.15	1.538	1537.9	generate	Run2	generate/STIM_009.jpg	99
1024.597	1.131	1130.8	generate	Run2	generate/STIM_009.jpg	100
1029.475	0.701	700.9	generate	Run2	generate/STIM_009.jpg	100
1033.69	1.56	1559.9	generate	Run2	generate/STIM_009.jpg	99
1038.264	1.362	1362.5	generate	Run2	generate/STIM_010.jpg	100
1042.403	1.102	1102.3	generate	Run2	generate/STIM_010.jpg	99
1047.4	1.664	1664.1	generate	Run2	generate/STIM_010.jpg	100
1052.289	0.837	836.9	generate	Run2	generate/STIM_010.jpg	100
1055.343	0.662	661.5	generate	Run2	generate/STIM_010.jpg	99
1059.369	1.008	1007.6	generate	Run2	generate/STIM_011.jpg	99
1064.129	1.029	1029.3	generate	Run2	generate/STIM_011.jpg	100
1068.661	0.97	969.8	generate	Run2	generate/STIM_011.jpg	99
1073.349	1.447	1446.7	generate	Run2	generate/STIM_011.jpg	99
1078.297	0.957	957.0	generate	Run2	generate/STIM_011.jpg	100
1081.8	1.806	1805.7	generate	Run2	generate/STIM_012.jpg	100
1086.461	1.15	1149.9	generate	Run2	generate/STIM_012.jpg	99
1089.729	1.394	1393.5	generate	Run2	generate/STIM_012.jpg	99
1094.985	0.896	895.5	generate	Run2	generate/STIM_012.jpg	100
1098.228	1.308	1307.8	generate	Run2	generate/STIM_012.jpg	100
1103.396	1.252	1252.5	generate	Run2	generate/STIM_013.jpg	99
1108.416	1.62	1620.4	generate	Run2	generate/STIM_013.jpg	99
1113.599	1.709	1708.8	generate	Run2	generate/STIM_013.jpg	100
1117.637	0.885	885.0	generate	Run2	generate/STIM_013.jpg	100
1122.514	1.38	1380.5	generate	Run2	generate/STIM_013.jpg	100
1126.217	1.917	1917.3	generate	Run2	generate/STIM_014.jpg	100
1131.674	1.013	1012.6	generate	Run2	generate/STIM_014.jpg	100
1135.933	1.222	1222.0	generate	Run2	generate/STIM_014.jpg	99
1140.571	1.078	1078.2	generate	Run2	generate/STIM_014.jpg	99
1145.572	1.095	1095.3	generate	Run2	generate/STIM_014.jpg	99
1149.782	1.89	1889.8	generate	Run2	generate/STIM_015.jpg	99
1155.554	1.473	1473.4	generate	Run2	generate/STIM_015.jpg	99
1160.311	1.582	1581.9	generate	Run2	generate/STIM_015.jpg	99
1165.8	1.494	1493.5	generate	Run2	generate/STIM_015.jpg	100
1170.984	1.514	1514.1	generate	Run2	generate/STIM_015.jpg	99
1175.068	1.801	1801.1	generate	Run2	generate/STIM_016.jpg	99
1179.422	1.566	1565.9	generate	Run2	generate/STIM_016.jpg	99
1184.65	1.475	1474.8	generate	Run2	generate/STIM_016.jpg	99
1188.368	1.489	1489.2	generate	Run2	generate/STIM_016.jpg	99
1192.768	1.02	1020.5	generate	Run2	generate/STIM_016.jpg	100
1197.495	1.117	1117.3	generate	Run2	generate/STIM_017.jpg	99
1202.153	1.281	1281.1	generate	Run2	generate/STIM_017.jpg	99
1206.161	1.659	1659.1	generate	Run2	generate/STIM_017.jpg	100
1211.069	0.771	771.0	generate	Run2	generate/STIM_017.jpg	99
1215.032	0.91	910.2	generate	Run2	generate/STIM_017.jpg	100
1218.908	1.412	1412.0	generate	Run2	generate/STIM_018.jpg	99
1224.087	1.787	1786.8	generate	Run2	generate/STIM_018.jpg	99
1228.053	1.642	1642.1	generate	Run2	generate/STIM_018.jpg	100
1232.467	0.742	742.0	generate	Run2	generate/STIM_018.jpg	100
1235.259	1.384	1383.9	generate	Run2	generate/STIM_018.jpg	99
1238.912	1.442	1441.8	generate	Run2	generate/STIM_019.jpg	100
1243.155	1.601	1600.9	generate	Run2	generate/STIM_019.jpg	100
1246.888	1.164	1164.4	generate	Run2	generate/STIM_019.jpg	100
1251.598	0.764	764.3	generate	Run2	generate/STIM_019.jpg	100
1255.053	1.153	1153.4	generate	Run2	generate/STIM_019.jpg	99
1259.783	0.878	878.2	generate	Run2	generate/STIM_020.jpg	99
1264.458	0.756	755.9	generate	Run2	generate/STIM_020.jpg	100
1267.423	0.692	691.7	generate	Run2	generate/STIM_020.jpg	100
1270.99	0.796	795.8	generate	Run2	generate/STIM_020.jpg	100
1274.307	0.814	813.5	generate	Run2	generate/STIM_020.jpg	100
1277.227	1.642	1641.5	generate	Run2	generate/STIM_021.jpg	100
1282.488	0.905	904.7	generate	Run2	generate/STIM_021.jpg	99
1285.825	1.113	1113.2	generate	Run2	generate/STIM_021.jpg	100
1289.389	0.959	959.4	generate	Run2	generate/STIM_021.jpg	99
1293.866	1.158	1157.6	generate	Run2	generate/STIM_021.jpg	100
1298.088	1.825	1825.1	generate	Run2	generate/STIM_022.jpg	99
1303.283	1.41	1410.3	generate	Run2	generate/STIM_022.jpg	100
1308.521	1.278	1278.2	generate	Run2	generate/STIM_022.jpg	100
1313.383	1.49	1489.9	generate	Run2	generate/STIM_022.jpg	100
1317.913	0.849	849.4	generate	Run2	generate/STIM_022.jpg	99
1320.942	1.029	1029.3	generate	Run2	generate/STIM_023.jpg	100
1324.737	0.893	893.1	generate	Run2	generate/STIM_023.jpg	99
1328.639	0.739	739.4	generate	Run2	generate/STIM_023.jpg	99
1332.804	1.391	1390.6	generate	Run2	generate/STIM_023.jpg	100
1336.563	1.146	1145.8	generate	Run2	generate/STIM_023.jpg	99
1340.858	1.719	1719.3	generate	Run2	generate/STIM_024.jpg	99
1346.361	0.83	830.4	generate	Run2	generate/STIM_024.jpg	99
1350.45	1.07	1069.9	generate	Run2	generate/STIM_024.jpg	100
1354.876	1.399	1399.0	generate	Run2	generate/STIM_024.jpg	100
1359.121	1.184	1184.5	generate	Run2	generate/STIM_024.jpg	100
1362.895	0.486	485.6	repeat	Run2	repeat/STIM_000.jpg	99
1367.081	0.398	397.9	repeat	Run2	repeat/STIM_000.jpg	100
1369.507	0.503	503.1	repeat	Run2	repeat/STIM_000.jpg	100
1372.875	0.462	461.5	repeat	Run2	repeat/STIM_000.jpg	99
1376.981	0.439	439.1	repeat	Run2	repeat/STIM_000.jpg	99
1379.437	0.542	542.3	repeat	Run2	repeat/STIM_001.jpg	100
1383.188	0.677	677.1	repeat	Run2	repeat/STIM_001.jpg	99
1386.645	0.637	637.3	repeat	Run2	repeat/STIM_001.jpg	100
1390.631	0.741	740.9	repeat	Run2	repeat/STIM_001.jpg	100
1393.864	0.587	586.8	repeat	Run2	repeat/STIM_001.jpg	99
1398.026	0.729	728.9	repeat	Run2	repeat/STIM_002.jpg	100
1401.212	0.632	631.9	repeat	Run2	repeat/STIM_002.jpg	99
1405.4	0.404	403.8	repeat	Run2	repeat/STIM_002.jpg	99
1408.836	0.702	701.6	repeat	Run2	repeat/STIM_002.jpg	100
1412.273	0.593	593.1	repeat	Run2	repeat/STIM_002.jpg	100
1414.954	0.548	547.7	repeat	Run2	repeat/STIM_003.jpg	100
1418.565	0.608	607.8	repeat	Run2	repeat/STIM_003.jpg	99
1422.992	0.66	660.0	repeat	Run2	repeat/STIM_003.jpg	99
1427.342	0.549	548.7	repeat	Run2	repeat/STIM_003.jpg	99
1430.801	0.586	585.6	repeat	Run2	repeat/STIM_003.jpg	100
1433.672	0.661	661.1	repeat	Run2	repeat/STIM_004.jpg	100
1438.314	0.764	764.1	repeat	Run2	repeat/STIM_004.jpg	100
1441.814	0.672	671.6	repeat	Run2	repeat/STIM_004.jpg	100
1445.409	0.765	764.9	repeat	Run2	repeat/STIM_004.jpg	99
1448.78	0.43	429.8	repeat	Run2	repeat/STIM_004.jpg	100
1452.384	0.639	638.8	repeat	Run2	repeat/STIM_005.jpg	99
1456.151	0.544	544.0	repeat	Run2	repeat/STIM_005.jpg	100
1459.777	0.659	658.9	repeat	Run2	repeat/STIM_005.jpg	99
1463.776	0.392	391.5	repeat	Run2	repeat/STIM_005.jpg	99
1467.851	0.438	438.5	repeat	Run2	repeat/STIM_005.jpg	100
1471.294	0.537	536.9	repeat	Run2	repeat/STIM_006.jpg	99
1474.624	0.665	664.7	repeat	Run2	repeat/STIM_006.jpg	99
1477.894	0.758	757.8	repeat	Run2	repeat/STIM_006.jpg	100
1482.148	0.664	663.9	repeat	Run2	repeat/STIM_006.jpg	100
1486.535	0.387	386.6	repeat	Run2	repeat/STIM_006.jpg	99
1490.787	0.582	582.3	repeat	Run2	repeat/STIM_007.jpg	100
1494.514	0.642	642.3	repeat	Run2	repeat/STIM_007.jpg	99
1498.347	0.697	696.7	repeat	Run2	repeat/STIM_007.jpg	99
1501.921	0.646	645.7	repeat	Run2	repeat/STIM_007.jpg	100
1505.475	0.728	728.5	repeat	Run2	repeat/STIM_007.jpg	99
1509.721	0.42	420.0	repeat	Run2	repeat/STIM_008.jpg	99
1513.7	0.478	478.2	repeat	Run2	repeat/STIM_008.jpg	100
1517.184	0.65	650.5	repeat	Run2	repeat/STIM_008.jpg	99
1521.393	0.56	559.7	repeat	Run2	repeat/STIM_008.jpg	99
1524.949	0.56	560.3	repeat	Run2	repeat/STIM_008.jpg	100
1527.658	0.614	613.6	repeat	Run2	repeat/STIM_009.jpg	100
1531.671	0.41	409.8	repeat	Run2	repeat/STIM_009.jpg	99
1534.655	0.64	639.6	repeat	Run2	repeat/STIM_009.jpg	99
1537.721	0.662	661.6	repeat	Run2	repeat/STIM_009.jpg	99
1541.728	0.688	687.7	repeat	Run2	repeat/STIM_009.jpg	99
1544.461	0.522	522.2	repeat	Run2	repeat/STIM_010.jpg	99
1547.067	0.533	533.3	repeat	Run2	repeat/STIM_010.jpg	100
1550.625	0.705	705.1	repeat	Run2	repeat/STIM_010.jpg	99
1555.232	0.699	699.3	repeat	Run2	repeat/STIM_010.jpg	100
1558.331	0.593	593.1	repeat	Run2	repeat/STIM_010.jpg	99
1561.858	0.548	547.6	repeat	Run2	repeat/STIM_011.jpg	100
1565.471	0.722	721.7	repeat	Run2	repeat/STIM_011.jpg	99
1569.627	0.567	566.9	repeat	Run2	repeat/STIM_011.jpg	100
1573.64	0.586	586.1	repeat	Run2	repeat/STIM_011.jpg	99
1577.786	0.534	533.9	repeat	Run2	repeat/STIM_011.jpg	99
1580.704	0.602	602.2	repeat	Run2	repeat/STIM_012.jpg	99
1583.725	0.655	654.9	repeat	Run2	repeat/STIM_012.jpg	100
1587.707	0.431	431.1	repeat	Run2	repeat/STIM_012.jpg	100
1591.178	0.579	579.4	repeat	Run2	repeat/STIM_012.jpg	100
1595.099	0.734	734.5	repeat	Run2	repeat/STIM_012.jpg	100
1598.865	0.618	617.5	repeat	Run2	repeat/STIM_013.jpg	100
1601.675	0.517	517.3	repeat	Run2	repeat/STIM_013.jpg	99
1605.25	0.529	528.8	repeat	Run2	repeat/STIM_013.jpg	100
1608.191	0.556	555.9	repeat	Run2	repeat/STIM_013.jpg	100
1611.63	0.494	494.0	repeat	Run2	repeat/STIM_013.jpg	99
1615.573	0.532	531.9	repeat	Run2	repeat/STIM_014.jpg	100
1618.207	0.454	454.3	repeat	Run2	repeat/STIM_014.jpg	99
1621.555	0.678	678.3	repeat	Run2	repeat/STIM_014.jpg	100
1624.68	0.468	468.0	repeat	Run2	repeat/STIM_014.jpg	99
1627.862	0.672	672.2	repeat	Run2	repeat/STIM_014.jpg	99
1632.012	0.896	896.4	generate	Run3	generate/STIM_000.jpg	100
1635.398	1.397	1397.2	generate	Run3	generate/STIM_000.jpg	100
1639.457	1.12	1119.8	generate	Run3	generate/STIM_000.jpg	100
1643.104	1.59	1590.1	generate	Run3	generate/STIM_000.jpg	100
1648.354	0.983	983.0	generate	Run3	generate/STIM_000.jpg	100
1652.932	0.758	757.9	generate	Run3	generate/STIM_001.jpg	99
1656.363	1.37	1370.5	generate	Run3	generate/STIM_001.jpg	100
1660.923	1.036	1036.3	generate	Run3	generate/STIM_001.jpg	100
1665.948	1.396	1396.1	generate	Run3	generate/STIM_001.jpg	99
1670.738	0.79	790.4	generate	Run3	generate/STIM_001.jpg	100
1674.083	1.168	1167.8	generate	Run3	generate/STIM_002.jpg	100
1677.311	0.696	695.9	generate	Run3	generate/STIM_002.jpg	100
1680.245	0.82	820.2	generate	Run3	generate/STIM_002.jpg	99
1683.769	1.393	1393.3	generate	Run3	generate/STIM_002.jpg	100
1688.381	1.058	1058.0	generate	Run3	generate/STIM_002.jpg	99
1691.856	0.931	931.0	generate	Run3	generate/STIM_003.jpg	99
1695.114	1.174	1173.7	generate	Run3	generate/STIM_003.jpg	99
1699.452	1.048	1047.8	generate	Run3	generate/STIM_003.jpg	99
1704.09	0.757	756.9	generate	Run3	generate/STIM_003.jpg	99
1708.788	1.307	1307.4	generate	Run3	generate/STIM_003.jpg	100
1712.823	1.491	1490.7	generate	Run3	generate/STIM_004.jpg	100
1717.256	0.755	755.1	generate	Run3	generate/STIM_004.jpg	100
1720.12	0.669	668.6	generate	Run3	generate/STIM_004.jpg	99
1722.963	1.125	1125.0	generate	Run3	generate/STIM_004.jpg	100
1726.412	0.886	886.1	generate	Run3	generate/STIM_004.jpg	99
1730.728	1.115	1114.8	generate	Run3	generate/STIM_005.jpg	100
1734.558	0.793	793.2	generate	Run3	generate/STIM_005.jpg	99
1738.052	1.309	1309.3	generate	Run3	generate/STIM_005.jpg	100
1742.987	0.866	865.6	generate	Run3	generate/STIM_005.jpg	99
1747.319	1.338	1337.5	generate	Run3	generate/STIM_005.jpg	99
1752.283	0.881	881.3	generate	Run3	generate/STIM_006.jpg	100
1755.417	1.191	1191.3	generate	Run3	generate/STIM_006.jpg	100
1759.054	1.578	1577.5	generate	Run3	generate/STIM_006.jpg	99
1763.305	1.463	1462.6	generate	Run3	generate/STIM_006.jpg	100
1766.954	1.225	1225.1	generate	Run3	generate/STIM_006.jpg	100
1771.579	0.916	915.7	generate	Run3	generate/STIM_007.jpg	100
1774.517	1.443	1443.2	generate	Run3	generate/STIM_007.jpg	99
1778.048	0.73	729.6	generate	Run3	generate/STIM_007.jpg	100
1781.06	0.871	870.6	generate	Run3	generate/STIM_007.jpg	100
1784.83	0.939	939.0	generate	Run3	generate/STIM_007.jpg	100
1788.103	0.838	838.3	generate	Run3	generate/STIM_008.jpg	100
1792.827	1.434	1434.1	generate	Run3	generate/STIM_008.jpg	100
1797.074	1.417	1417.3	generate	Run3	generate/STIM_008.jpg	100
1801.339	0.794	794.4	generate	Run3	generate/STIM_008.jpg	100
1806.095	0.935	935.0	generate	Run3	generate/STIM_008.jpg	99
1809.291	1.141	1140.6	generate	Run3	generate/STIM_009.jpg	100
1814.138	1.288	1287.9	generate	Run3	generate/STIM_009.jpg	100
1818.047	0.938	937.9	generate	Run3	generate/STIM_009.jpg	99
1822.091	0.929	929.1	generate	Run3	generate/STIM_009.jpg	100
1825.498	1.555	1555.2	generate	Run3	generate/STIM_009.jpg	99
1830.783	0.658	657.9	generate	Run3	generate/STIM_010.jpg	99
1834.734	1.499	1499.0	generate	Run3	generate/STIM_010.jpg	100
1839.416	1.325	1325.4	generate	Run3	generate/STIM_010.jpg	99
1844.056	0.909	909.2	generate	Run3	generate/STIM_010.jpg	100
1848.286	1.063	1062.8	generate	Run3	generate/STIM_010.jpg	99
1853.232	1.55	1550.2	generate	Run3	generate/STIM_011.jpg	99
1858.384	0.984	983.9	generate	Run3	generate/STIM_011.jpg	99
1862.746	0.762	761.5	generate	Run3	generate/STIM_011.jpg	100
1866.546	0.883	883.4	generate	Run3	generate/STIM_011.jpg	99
1871.326	1.541	1541.1	generate	Run3	generate/STIM_011.jpg	99
1876.161	1.193	1193.3	generate	Run3	generate/STIM_012.jpg	100
1880.9	1.162	1161.7	generate	Run3	generate/STIM_012.jpg	99
1884.656	1.591	1591.3	generate	Run3	generate/STIM_012.jpg	99
1889.001	1.201	1201.3	generate	Run3	generate/STIM_012.jpg	99
1893.922	1.199	1199.0	generate	Run3	generate/STIM_012.jpg	100
1898.444	1.175	1174.7	generate	Run3	generate/STIM_013.jpg	99
1902.574	1.551	1550.6	generate	Run3	generate/STIM_013.jpg	99
1906.585	1.336	1335.6	generate	Run3	generate/STIM_013.jpg	99
1911.226	1.04	1039.5	generate	Run3	generate/STIM_013.jpg	100
1914.734	0.909	909.1	generate	Run3	generate/STIM_013.jpg	100
1917.795	0.855	855.3	generate	Run3	generate/STIM_014.jpg	99
1921.376	1.557	1557.0	generate	Run3	generate/STIM_014.jpg	100
1926.683	0.717	717.1	generate	Run3	generate/STIM_014.jpg	99
1929.732	1.143	1142.6	generate	Run3	generate/STIM_014.jpg	100
1933.121	1.276	1275.5	generate	Run3	generate/STIM_014.jpg	100
1937.823	0.744	744.5	generate	Run3	generate/STIM_015.jpg	100
1942.256	0.662	661.5	generate	Run3	generate/STIM_015.jpg	100
1946.449	0.883	882.7	generate	Run3	generate/STIM_015.jpg	100
1950.265	1.044	1044.0	generate	Run3	generate/STIM_015.jpg	100
1954.257	1.588	1587.7	generate	Run3	generate/STIM_015.jpg	99
1958.559	0.676	676.2	generate	Run3	generate/STIM_016.jpg	99
1961.338	0.878	877.7	generate	Run3	generate/STIM_016.jpg	100
1965.694	1.106	1106.3	generate	Run3	generate/STIM_016.jpg	100
1968.942	0.949	949.3	generate	Run3	generate/STIM_016.jpg	99
1972.579	1.347	1347.4	generate	Run3	generate/STIM_016.jpg	100
1977.018	0.782	782.4	generate	Run3	generate/STIM_017.jpg	100
1980.657	0.989	988.8	generate	Run3	generate/STIM_017.jpg	99
1985.016	1.172	1171.8	generate	Run3	generate/STIM_017.jpg	100
1988.987	0.775	774.7	generate	Run3	generate/STIM_017.jpg	100
1991.81	0.665	665.2	generate	Run3	generate/STIM_017.jpg	99
1994.897	1.216	1215.9	generate	Run3	generate/STIM_018.jpg	99
1998.438	1.458	1457.7	generate	Run3	generate/STIM_018.jpg	99
2002.094	1.274	1273.6	generate	Run3	generate/STIM_018.jpg	99
2006.085	0.919	919.3	generate	Run3	generate/STIM_018.jpg	99
2010.045	1.576	1575.5	generate	Run3	generate/STIM_018.jpg	99
2013.925	1.254	1254.3	generate	Run3	generate/STIM_019.jpg	99
2017.227	1.528	1527.5	generate	Run3	generate/STIM_019.jpg	100
2021.27	0.963	963.3	generate	Run3	generate/STIM_019.jpg	100
2024.684	0.697	697.2	generate	Run3	generate/STIM_019.jpg	100
2029.006	0.736	736.4	generate	Run3	generate/STIM_019.jpg	99
2032.444	1.535	1535.2	generate	Run3	generate/STIM_020.jpg	99
2036.67	1.154	1154.4	generate	Run3	generate/STIM_020.jpg	100
2040.946	0.854	853.7	generate	Run3	generate/STIM_020.jpg	100
2045.234	0.84	839.8	generate	Run3	generate/STIM_020.jpg	100
2049.943	0.96	960.5	generate	Run3	generate/STIM_020.jpg	99
2053.252	1.176	1176.3	generate	Run3	generate/STIM_021.jpg	100
2058.269	0.728	728.4	generate	Run3	generate/STIM_021.jpg	99
2062.304	1.079	1079.2	generate	Run3	generate/STIM_021.jpg	99
2066.291	1.304	1303.6	generate	Run3	generate/STIM_021.jpg	100
2071.283	1.524	1523.8	generate	Run3	generate/STIM_021.jpg	100
2076.723	0.776	775.8	generate	Run3	generate/STIM_022.jpg	100
2080.675	1.355	1355.3	generate	Run3	generate/STIM_022.jpg	99
2085.628	1.21	1210.0	generate	Run3	generate/STIM_022.jpg	99
2090.227	0.89	889.9	generate	Run3	generate/STIM_022.jpg	99
2095.068	1.382	1381.8	generate	Run3	generate/STIM_022.jpg	100
2099.928	1.143	1143.2	generate	Run3	generate/STIM_023.jpg	100
2104.705	1.101	1101.1	generate	Run3	generate/STIM_023.jpg	100
2109.607	1.171	1170.9	generate	Run3	generate/STIM_023.jpg	99
2113.837	1.48	1479.5	generate	Run3	generate/STIM_023.jpg	99
2118.149	0.821	820.8	generate	Run3	generate/STIM_023.jpg	99
2122.654	1.473	1472.6	generate	Run3	generate/STIM_024.jpg	100
2126.145	0.763	763.2	generate	Run3	generate/STIM_024.jpg	99
2129.515	1.158	1158.2	generate	Run3	generate/STIM_024.jpg	99
2133.697	0.897	896.9	generate	Run3	generate/STIM_024.jpg	99
2138.436	0.781	781.0	generate	Run3	generate/STIM_024.jpg	100
2141.325	0.721	720.7	repeat	Run3	repeat/STIM_000.jpg	99
2144.961	0.552	551.9	repeat	Run3	repeat/STIM_000.jpg	99
2148.407	0.665	664.8	repeat	Run3	repeat/STIM_000.jpg	100
2152.091	0.755	754.9	repeat	Run3	repeat/STIM_000.jpg	100
2155.333	0.738	738.2	repeat	Run3	repeat/STIM_000.jpg	100
2159.575	0.644	643.5	repeat	Run3	repeat/STIM_001.jpg	100
2162.612	0.617	617.0	repeat	Run3	repeat/STIM_001.jpg	100
2165.583	0.521	521.2	repeat	Run3	repeat/STIM_001.jpg	99
2169.935	0.443	443.0	repeat	Run3	repeat/STIM_001.jpg	99
2173.558	0.508	508.5	repeat	Run3	repeat/STIM_001.jpg	99
2177.527	0.467	467.2	repeat	Run3	repeat/STIM_002.jpg	99
2180.285	0.751	750.9	repeat	Run3	repeat/STIM_002.jpg	99
2183.998	0.632	632.1	repeat	Run3	repeat/STIM_002.jpg	100
2188.177	0.742	742.2	repeat	Run3	repeat/STIM_002.jpg	99
2191.07	0.725	724.8	repeat	Run3	repeat/STIM_002.jpg	100
2193.894	0.66	660.4	repeat	Run3	repeat/STIM_003.jpg	100
2198.053	0.508	508.4	repeat	Run3	repeat/STIM_003.jpg	99
2201.99	0.615	614.6	repeat	Run3	repeat/STIM_003.jpg	100
2204.759	0.475	474.7	repeat	Run3	repeat/STIM_003.jpg	100
2207.676	0.575	574.7	repeat	Run3	repeat/STIM_003.jpg	100
2211.276	0.612	611.5	repeat	Run3	repeat/STIM_004.jpg	99
2215.591	0.712	711.8	repeat	Run3	repeat/STIM_004.jpg	99
2219.346	0.48	480.5	repeat	Run3	repeat/STIM_004.jpg	100
2223.159	0.704	703.6	repeat	Run3	repeat/STIM_004.jpg	100
2227.239	0.432	432.4	repeat	Run3	repeat/STIM_004.jpg	100
2231.592	0.69	689.8	repeat	Run3	repeat/STIM_005.jpg	99
2235.396	0.681	681.1	repeat	Run3	repeat/STIM_005.jpg	100
2238.195	0.741	741.1	repeat	Run3	repeat/STIM_005.jpg	100
2242.473	0.586	586.2	repeat	Run3	repeat/STIM_005.jpg	100
2245.987	0.519	518.9	repeat	Run3	repeat/STIM_005.jpg	99
2250.48	0.451	450.6	repeat	Run3	repeat/STIM_006.jpg	100
2253.879	0.735	734.6	repeat	Run3	repeat/STIM_006.jpg	99
2256.818	0.561	560.7	repeat	Run3	repeat/STIM_006.jpg	100
2261.305	0.421	421.3	repeat	Run3	repeat/STIM_006.jpg	100
2264.768	0.4	399.8	repeat	Run3	repeat/STIM_006.jpg	100
2268.329	0.712	712.3	repeat	Run3	repeat/STIM_007.jpg	99
2271.895	0.693	692.7	repeat	Run3	repeat/STIM_007.jpg	99
2276.045	0.47	470.1	repeat	Run3	repeat/STIM_007.jpg	100
2279.028	0.505	505.2	repeat	Run3	repeat/STIM_007.jpg	99
2282.934	0.636	635.8	repeat	Run3	repeat/STIM_007.jpg	99
2285.683	0.644	643.6	repeat	Run3	repeat/STIM_008.jpg	99
2289.73	0.552	552.2	repeat	Run3	repeat/STIM_008.jpg	99
2293.597	0.632	631.5	repeat	Run3	repeat/STIM_008.jpg	100
2296.324	0.61	609.9	repeat	Run3	repeat/STIM_008.jpg	99
2300.89	0.481	480.6	repeat	Run3	repeat/STIM_008.jpg	99
2303.619	0.474	474.4	repeat	Run3	repeat/STIM_009.jpg	100
2306.225	0.696	695.7	repeat	Run3	repeat/STIM_009.jpg	100
2309.449	0.616	616.3	repeat	Run3	repeat/STIM_009.jpg	99
2312.88	0.664	664.5	repeat	Run3	repeat/STIM_009.jpg	100
2316.102	0.625	624.9	repeat	Run3	repeat/STIM_009.jpg	99
2320.308	0.444	443.8	repeat	Run3	repeat/STIM_010.jpg	99
2323.402	0.58	580.5	repeat	Run3	repeat/STIM_010.jpg	99
2326.71	0.415	414.6	repeat	Run3	repeat/STIM_010.jpg	100
2330.057	0.456	456.5	repeat	Run3	repeat/STIM_010.jpg	100
2333.287	0.651	651.4	repeat	Run3	repeat/STIM_010.jpg	99
2336.833	0.527	527.1	repeat	Run3	repeat/STIM_011.jpg	99
2341.262	0.52	520.5	repeat	Run3	repeat/STIM_011.jpg	100
2345.319	0.536	535.7	repeat	Run3	repeat/STIM_011.jpg	99
2349.489	0.634	633.5	repeat	Run3	repeat/STIM_011.jpg	99
2353.648	0.529	529.3	repeat	Run3	repeat/STIM_011.jpg	100
2357.144	0.415	414.6	repeat	Run3	repeat/STIM_012.jpg	100
2360.684	0.63	630.1	repeat	Run3	repeat/STIM_012.jpg	100
2364.093	0.622	621.7	repeat	Run3	repeat/STIM_012.jpg	100
2367.62	0.546	546.3	repeat	Run3	repeat/STIM_012.jpg	99
2370.802	0.755	755.4	repeat	Run3	repeat/STIM_012.jpg	99
2374.447	0.424	423.9	repeat	Run3	repeat/STIM_013.jpg	100
2378.085	0.698	697.9	repeat	Run3	repeat/STIM_013.jpg	99
2381.952	0.699	699.1	repeat	Run3	repeat/STIM_013.jpg	100
2384.676	0.742	742.3	repeat	Run3	repeat/STIM_013.jpg	99
2387.58	0.627	627.1	repeat	Run3	repeat/STIM_013.jpg	100
2390.52	0.587	586.8	repeat	Run3	repeat/STIM_014.jpg	100
2395.074	0.648	648.3	repeat	Run3	repeat/STIM_014.jpg	99
2398.024	0.67	670.1	repeat	Run3	repeat/STIM_014.jpg	99
2401.037	0.661	661.2	repeat	Run3	repeat/STIM_014.jpg	100
2405.272	0.752	751.5	repeat	Run3	repeat/STIM_014.jpg	100
2408.816	0.742	741.7	generate	Run4	generate/STIM_000.jpg	99
2412.07	1.396	1395.6	generate	Run4	generate/STIM_000.jpg	99
2416.895	0.832	831.7	generate	Run4	generate/STIM_000.jpg	100
2419.81	0.73	730.0	generate	Run4	generate/STIM_000.jpg	100
2422.959	1.466	1465.7	generate	Run4	generate/STIM_000.jpg	99
2426.879	1.365	1364.6	generate	Run4	generate/STIM_001.jpg	99
2431.974	0.737	737.1	generate	Run4	generate/STIM_001.jpg	100
2435.613	1.505	1505.2	generate	Run4	generate/STIM_001.jpg	100
2440.534	0.742	741.5	generate	Run4	generate/STIM_001.jpg	100
2444.022	1.296	1296.0	generate	Run4	generate/STIM_001.jpg	99
2448.26	1.325	1325.1	generate	Run4	generate/STIM_002.jpg	99
2453.198	1.169	1168.8	generate	Run4	generate/STIM_002.jpg	99
2457.125	1.606	1605.5	generate	Run4	generate/STIM_002.jpg	99
2462.398	0.874	873.8	generate	Run4	generate/STIM_002.jpg	99
2466.677	0.654	654.3	generate	Run4	generate/STIM_002.jpg	100
2469.641	0.981	980.9	generate	Run4	generate/STIM_003.jpg	100
2474.216	1.149	1148.6	generate	Run4	generate/STIM_003.jpg	99
2478.489	1.015	1015.1	generate	Run4	generate/STIM_003.jpg	100
2482.298	0.97	969.6	generate	Run4	generate/STIM_003.jpg	99
2485.558	1.131	1130.9	generate	Run4	generate/STIM_003.jpg	100
2490.068	1.099	1098.8	generate	Run4	generate/STIM_004.jpg	99
2494.017	1.099	1098.9	generate	Run4	generate/STIM_004.jpg	99
2497.976	1.359	1359.4	generate	Run4	generate/STIM_004.jpg	100
2501.673	1.157	1157.4	generate	Run4	generate/STIM_004.jpg	100
2506.21	0.674	673.7	generate	Run4	generate/STIM_004.jpg	100
2510.034	1.023	1023.0	generate	Run4	generate/STIM_005.jpg	99
2514.914	1.344	1344.4	generate	Run4	generate/STIM_005.jpg	100
2519.11	0.917	917.3	generate	Run4	generate/STIM_005.jpg	99
2523.488	0.885	885.3	generate	Run4	generate/STIM_005.jpg	100
2527.757	1.121	1120.9	generate	Run4	generate/STIM_005.jpg	99
2532.131	0.804	803.5	generate	Run4	generate/STIM_006.jpg	100
2536.624	0.793	793.0	generate	Run4	generate/STIM_006.jpg	99
2540.627	0.67	669.9	generate	Run4	generate/STIM_006.jpg	99
2544.515	1.445	1444.9	generate	Run4	generate/STIM_006.jpg	100
2548.394	1.326	1326.2	generate	Run4	generate/STIM_006.jpg	100
2552.583	0.969	969.1	generate	Run4	generate/STIM_007.jpg	99
2556.714	1.454	1453.8	generate	Run4	generate/STIM_007.jpg	100
2561.805	1.603	1603.1	generate	Run4	generate/STIM_007.jpg	99
2567.045	1.341	1340.9	generate	Run4	generate/STIM_007.jpg	100
2571.121	1.2	1200.3	generate	Run4	generate/STIM_007.jpg	100
2574.823	0.7	699.6	generate	Run4	generate/STIM_008.jpg	100
2578.352	1.463	1462.8	generate	Run4	generate/STIM_008.jpg	100
2582.711	1.092	1092.1	generate	Run4	generate/STIM_008.jpg	100
2587.366	1.198	1197.8	generate	Run4	generate/STIM_008.jpg	99
2592.239	1.202	1201.6	generate	Run4	generate/STIM_008.jpg	99
2596.762	0.948	948.0	generate	Run4	generate/STIM_009.jpg	100
2601.624	1.556	1556.1	generate	Run4	generate/STIM_009.jpg	99
2605.632	1.467	1467.2	generate	Run4	generate/STIM_009.jpg	99
2609.893	1.354	1353.6	generate	Run4	generate/STIM_009.jpg	100
2614.818	1.11	1110.1	generate	Run4	generate/STIM_009.jpg	99
2618.258	0.976	975.5	generate	Run4	generate/STIM_010.jpg	100
2621.347	1.548	1548.5	generate	Run4	generate/STIM_010.jpg	99
2626.412	1.097	1097.2	generate	Run4	generate/STIM_010.jpg	100
2630.435	1.433	1432.8	generate	Run4	generate/STIM_010.jpg	100
2634.693	1.574	1574.4	generate	Run4	generate/STIM_010.jpg	100
2638.715	0.663	663.3	generate	Run4	generate/STIM_011.jpg	100
2642.009	1.464	1463.5	generate	Run4	generate/STIM_011.jpg	100
2647.233	0.958	958.4	generate	Run4	generate/STIM_011.jpg	100
2652.008	1.157	1156.9	generate	Run4	generate/STIM_011.jpg	99
2656.367	1.08	1080.0	generate	Run4	generate/STIM_011.jpg	99
2660.155	0.958	958.0	generate	Run4	generate/STIM_012.jpg	100
2664.8	0.829	828.6	generate	Run4	generate/STIM_012.jpg	99
2668.123	1.167	1166.8	generate	Run4	generate/STIM_012.jpg	100
2673.009	1.234	1233.6	generate	Run4	generate/STIM_012.jpg	100
2677.929	1.584	1584.4	generate	Run4	generate/STIM_012.jpg	99
2683.406	0.674	674.5	generate	Run4	generate/STIM_013.jpg	100
2687.288	1.02	1019.9	generate	Run4	generate/STIM_013.jpg	99
2690.48	1.321	1320.6	generate	Run4	generate/STIM_013.jpg	99
2695.148	1.012	1012.0	generate	Run4	generate/STIM_013.jpg	99
2698.298	1.178	1178.5	generate	Run4	generate/STIM_013.jpg	99
2702.925	1.01	1010.2	generate	Run4	generate/STIM_014.jpg	100
2706.567	0.924	924.5	generate	Run4	generate/STIM_014.jpg	99
2709.694	1.43	1430.5	generate	Run4	generate/STIM_014.jpg	99
2715.116	0.935	934.8	generate	Run4	generate/STIM_014.jpg	99
2719.995	1.603	1603.1	generate	Run4	generate/STIM_014.jpg	99
2723.744	1.508	1508.1	generate	Run4	generate/STIM_015.jpg	99
2727.257	1.578	1578.2	generate	Run4	generate/STIM_015.jpg	100
2731.287	1.254	1254.0	generate	Run4	generate/STIM_015.jpg	99
2734.746	1.34	1340.5	generate	Run4	generate/STIM_015.jpg	99
2739.203	0.878	877.5	generate	Run4	generate/STIM_015.jpg	99
2742.785	0.748	747.7	generate	Run4	generate/STIM_016.jpg	100
2745.993	1.504	1503.7	generate	Run4	generate/STIM_016.jpg	99
2750.576	0.802	801.7	generate	Run4	generate/STIM_016.jpg	100
2754.133	1.016	1015.8	generate	Run4	generate/STIM_016.jpg	100
2757.418	1.265	1265.2	generate	Run4	generate/STIM_016.jpg	99
2761.859	0.703	702.7	generate	Run4	generate/STIM_017.jpg	99
2765.568	0.68	679.5	generate	Run4	generate/STIM_017.jpg	100
2769.221	0.992	991.7	generate	Run4	generate/STIM_017.jpg	99
2773.388	1.566	1565.9	generate	Run4	generate/STIM_017.jpg	99
2777.337	1.403	1403.0	generate	Run4	generate/STIM_017.jpg	99
2780.775	0.972	972.1	generate	Run4	generate/STIM_018.jpg	99
2784.207	0.88	880.3	generate	Run4	generate/STIM_018.jpg	99
2789.039	1.171	1170.8	generate	Run4	generate/STIM_018.jpg	99
2794.171	1.211	1210.7	generate	Run4	generate/STIM_018.jpg	100
2797.816	1.335	1335.3	generate	Run4	generate/STIM_018.jpg	99
2802.726	1.418	1417.9	generate	Run4	generate/STIM_019.jpg	99
2807.14	1.099	1098.8	generate	Run4	generate/STIM_019.jpg	99
2810.807	0.923	923.1	generate	Run4	generate/STIM_019.jpg	100
2815.365	1.53	1530.5	generate	Run4	generate/STIM_019.jpg	99
2819.643	1.204	1204.5	generate	Run4	generate/STIM_019.jpg	99
2823.052	1.508	1507.8	generate	Run4	generate/STIM_020.jpg	100
2827.321	0.925	925.3	generate	Run4	generate/STIM_020.jpg	99
2832.133	1.45	1450.3	generate	Run4	generate/STIM_020.jpg	99
2836.288	1.302	1302.3	generate	Run4	generate/STIM_020.jpg	99
2840.063	1.026	1025.9	generate	Run4	generate/STIM_020.jpg	99
2843.538	1.589	1589.2	generate	Run4	generate/STIM_021.jpg	100
2848.408	1.571	1570.6	generate	Run4	generate/STIM_021.jpg	99
2852.974	1.053	1053.0	generate	Run4	generate/STIM_021.jpg	100
2857.686	1.579	1579.3	generate	Run4	generate/STIM_021.jpg	99
2862.945	1.069	1069.3	generate	Run4	generate/STIM_021.jpg	99
2867.261	0.842	842.3	generate	Run4	generate/STIM_022.jpg	100
2871.6	0.894	893.8	generate	Run4	generate/STIM_022.jpg	100
2875.185	1.044	1044.5	generate	Run4	generate/STIM_022.jpg	100
2879.58	1.307	1307.1	generate	Run4	generate/STIM_022.jpg	100
2883.012	1.345	1344.6	generate	Run4	generate/STIM_022.jpg	99
2886.897	1.415	1415.4	generate	Run4	generate/STIM_023.jpg	99
2891.96	1.262	1262.3	generate	Run4	generate/STIM_023.jpg	100
2897.207	1.528	1527.6	generate	Run4	generate/STIM_023.jpg	99
2902.288	1.072	1072.4	generate	Run4	generate/STIM_023.jpg	99
2905.651	1.586	1585.9	generate	Run4	generate/STIM_023.jpg	100
2909.609	1.277	1277.2	generate	Run4	generate/STIM_024.jpg	100
2914.779	1.023	1023.0	generate	Run4	generate/STIM_024.jpg	100
2918.236	0.888	887.5	generate	Run4	generate/STIM_024.jpg	99
2921.934	0.666	666.5	generate	Run4	generate/STIM_024.jpg	99
2925.628	0.904	904.5	generate	Run4	generate/STIM_024.jpg	100
2930.213	0.429	429.4	repeat	Run4	repeat/STIM_000.jpg	99
2933.44	0.748	748.2	repeat	Run4	repeat/STIM_000.jpg	99
2938.09	0.518	518.4	repeat	Run4	repeat/STIM_000.jpg	99
2941.529	0.75	750.4	repeat	Run4	repeat/STIM_000.jpg	100
2944.724	0.695	695.3	repeat	Run4	repeat/STIM_000.jpg	100
2948.154	0.719	719.2	repeat	Run4	repeat/STIM_001.jpg	99
2952.628	0.475	474.9	repeat	Run4	repeat/STIM_001.jpg	100
2955.422	0.52	520.4	repeat	Run4	repeat/STIM_001.jpg	100
2959.459	0.403	403.3	repeat	Run4	repeat/STIM_001.jpg	99
2963.417	0.658	658.3	repeat	Run4	repeat/STIM_001.jpg	99
2967.879	0.553	553.1	repeat	Run4	repeat/STIM_002.jpg	100
2970.824	0.634	634.1	repeat	Run4	repeat/STIM_002.jpg	99
2974.947	0.503	503.0	repeat	Run4	repeat/STIM_002.jpg	99
2978.636	0.408	407.8	repeat	Run4	repeat/STIM_002.jpg	100
2982.464	0.732	731.7	repeat	Run4	repeat/STIM_002.jpg	100
2986.955	0.524	523.7	repeat	Run4	repeat/STIM_003.jpg	99
2989.644	0.502	501.6	repeat	Run4	repeat/STIM_003.jpg	99
2993.802	0.524	524.2	repeat	Run4	repeat/STIM_003.jpg	99
2996.593	0.546	546.0	repeat	Run4	repeat/STIM_003.jpg	100
2999.14	0.715	715.3	repeat	Run4	repeat/STIM_003.jpg	99
3003.583	0.728	728.2	repeat	Run4	repeat/STIM_004.jpg	99
3006.553	0.638	637.8	repeat	Run4	repeat/STIM_004.jpg	100
3009.602	0.5	499.9	repeat	Run4	repeat/STIM_004.jpg	99
3012.464	0.764	763.5	repeat	Run4	repeat/STIM_004.jpg	99
3017.197	0.623	623.3	repeat	Run4	repeat/STIM_004.jpg	99
3021.66	0.669	669.1	repeat	Run4	repeat/STIM_005.jpg	100
3025.16	0.528	527.6	repeat	Run4	repeat/STIM_005.jpg	99
3029.552	0.422	422.0	repeat	Run4	repeat/STIM_005.jpg	100
3033.899	0.662	661.6	repeat	Run4	repeat/STIM_005.jpg	99
3037.477	0.538	538.1	repeat	Run4	repeat/STIM_005.jpg	99
3041.532	0.436	435.6	repeat	Run4	repeat/STIM_006.jpg	99
3044.719	0.546	545.6	repeat	Run4	repeat/STIM_006.jpg	99
3047.903	0.479	478.7	repeat	Run4	repeat/STIM_006.jpg	100
3050.41	0.67	669.5	repeat	Run4	repeat/STIM_006.jpg	99
3054.438	0.556	555.9	repeat	Run4	repeat/STIM_006.jpg	99
3058.538	0.668	667.9	repeat	Run4	repeat/STIM_007.jpg	100
3062.573	0.565	565.1	repeat	Run4	repeat/STIM_007.jpg	99
3066.662	0.585	585.1	repeat	Run4	repeat/STIM_007.jpg	100
3071.147	0.681	681.3	repeat	Run4	repeat/STIM_007.jpg	99
3075.699	0.528	527.7	repeat	Run4	repeat/STIM_007.jpg	99
3079.55	0.585	584.9	repeat	Run4	repeat/STIM_008.jpg	99
3083.631	0.64	640.0	repeat	Run4	repeat/STIM_008.jpg	100
3088.074	0.484	484.1	repeat	Run4	repeat/STIM_008.jpg	99
3092.411	0.491	490.7	repeat	Run4	repeat/STIM_008.jpg	99
3095.27	0.5	500.5	repeat	Run4	repeat/STIM_008.jpg	99
3098.038	0.606	606.4	repeat	Run4	repeat/STIM_009.jpg	100
3100.772	0.589	588.9	repeat	Run4	repeat/STIM_009.jpg	99
3103.807	0.613	613.0	repeat	Run4	repeat/STIM_009.jpg	99
3107.241	0.426	425.8	repeat	Run4	repeat/STIM_009.jpg	100
3111.368	0.537	537.0	repeat	Run4	repeat/STIM_009.jpg	100
3115.326	0.768	767.8	repeat	Run4	repeat/STIM_010.jpg	100
3119.947	0.655	655.2	repeat	Run4	repeat/STIM_010.jpg	100
3123.879	0.508	507.9	repeat	Run4	repeat/STIM_010.jpg	99
3126.406	0.518	518.0	repeat	Run4	repeat/STIM_010.jpg	99
3130.379	0.706	705.6	repeat	Run4	repeat/STIM_010.jpg	100
3133.141	0.746	746.2	repeat	Run4	repeat/STIM_011.jpg	100
3136.5	0.469	468.7	repeat	Run4	repeat/STIM_011.jpg	99
3140.348	0.442	441.8	repeat	Run4	repeat/STIM_011.jpg	100
3143.004	0.665	664.9	repeat	Run4	repeat/STIM_011.jpg	99
3147.374	0.592	591.7	repeat	Run4	repeat/STIM_011.jpg	100
3151.526	0.502	502.2	repeat	Run4	repeat/STIM_012.jpg	99
3155.969	0.68	679.7	repeat	Run4	repeat/STIM_012.jpg	100
3158.657	0.567	566.7	repeat	Run4	repeat/STIM_012.jpg	99
3162.007	0.669	669.3	repeat	Run4	repeat/STIM_012.jpg	100
3165.566	0.637	637.1	repeat	Run4	repeat/STIM_012.jpg	99
3169.474	0.68	680.2	repeat	Run4	repeat/STIM_013.jpg	99
3173.92	0.477	477.1	repeat	Run4	repeat/STIM_013.jpg	99
3178.194	0.481	481.0	repeat	Run4	repeat/STIM_013.jpg	99
3180.974	0.598	597.5	repeat	Run4	repeat/STIM_013.jpg	99
3183.822	0.626	626.2	repeat	Run4	repeat/STIM_013.jpg	100
3187.454	0.693	693.0	repeat	Run4	repeat/STIM_014.jpg	99
3190.59	0.444	443.9	repeat	Run4	repeat/STIM_014.jpg	100
3194.815	0.552	552.2	repeat	Run4	repeat/STIM_014.jpg	100
3198.512	0.568	568.1	repeat	Run4	repeat/STIM_014.jpg	99
3202.573	0.445	444.6	repeat	Run4	repeat/STIM_014.jpg	99
