onset	duration	accuracy_binary	trial_type	learning_stage	stimulus
0.0	1.979	1	generate	Run1	generate/STIM_000.jpg
4.227	1.685	1	generate	Run1	generate/STIM_000.jpg
9.552	1.286	0	generate	Run1	generate/STIM_000.jpg
14.655	1.648	1	generate	Run1	generate/STIM_000.jpg
20.228	1.596	1	generate	Run1	generate/STIM_000.jpg
23.832	1.636	1	generate	Run1	generate/STIM_001.jpg
29.259	2.066	1	generate	Run1	generate/STIM_001.jpg
34.681	1.45	0	generate	Run1	generate/STIM_001.jpg
39.047	1.201	1	generate	Run1	generate/STIM_001.jpg
42.436	1.184	1	generate	Run1	generate/STIM_001.jpg
46.724	0.992	1	generate	Run1	generate/STIM_002.jpg
50.795	1.348	1	generate	Run1	generate/STIM_002.jpg
55.849	1.472	1	generate	Run1	generate/STIM_002.jpg
60.585	0.863	1	generate	Run1	generate/STIM_002.jpg
64.541	0.806	0	generate	Run1	generate/STIM_002.jpg
69.261	2.067	0	generate	Run1	generate/STIM_003.jpg
74.439	1.324	1	generate	Run1	generate/STIM_003.jpg
79.421	1.036	1	generate	Run1	generate/STIM_003.jpg
84.152	0.943	0	generate	Run1	generate/STIM_003.jpg
87.273	0.93	1	generate	Run1	generate/STIM_003.jpg
91.122	1.622	1	generate	Run1	generate/STIM_004.jpg
96.386	1.198	0	generate	Run1	generate/STIM_004.jpg
100.055	1.598	1	generate	Run1	generate/STIM_004.jpg
105.026	1.622	1	generate	Run1	generate/STIM_004.jpg
109.157	0.78	0	generate	Run1	generate/STIM_004.jpg
112.783	1.916	1	generate	Run1	generate/STIM_005.jpg
118.605	1.691	1	generate	Run1	generate/STIM_005.jpg
124.029	1.051	0	generate	Run1	generate/STIM_005.jpg
128.856	1.419	1	generate	Run1	generate/STIM_005.jpg
133.047	0.965	1	generate	Run1	generate/STIM_005.jpg
137.478	1.7	0	generate	Run1	generate/STIM_006.jpg
142.1	1.27	1	generate	Run1	generate/STIM_006.jpg
146.276	1.467	1	generate	Run1	generate/STIM_006.jpg
151.153	1.629	1	generate	Run1	generate/STIM_006.jpg
156.681	1.308	1	generate	Run1	generate/STIM_006.jpg
161.538	1.88	0	generate	Run1	generate/STIM_007.jpg
166.058	1.872	1	generate	Run1	generate/STIM_007.jpg
170.396	1.86	1	generate	Run1	generate/STIM_007.jpg
174.359	1.843	1	generate	Run1	generate/STIM_007.jpg
179.6	1.095	1	generate	Run1	generate/STIM_007.jpg
183.722	1.303	1	generate	Run1	generate/STIM_008.jpg
188.753	0.993	1	generate	Run1	generate/STIM_008.jpg
191.954	1.996	1	generate	Run1	generate/STIM_008.jpg
197.139	1.78	0	generate	Run1	generate/STIM_008.jpg
201.267	1.222	1	generate	Run1	generate/STIM_008.jpg
205.776	1.973	0	generate	Run1	generate/STIM_009.jpg
211.66	1.87	1	generate	Run1	generate/STIM_009.jpg
216.755	1.964	0	generate	Run1	generate/STIM_009.jpg
222.659	1.003	1	generate	Run1	generate/STIM_009.jpg
227.282	0.839	1	generate	Run1	generate/STIM_009.jpg
230.895	1.321	1	generate	Run1	generate/STIM_010.jpg
234.771	1.405	1	generate	Run1	generate/STIM_010.jpg
239.476	1.986	1	generate	Run1	generate/STIM_010.jpg
243.541	1.232	0	generate	Run1	generate/STIM_010.jpg
247.131	1.434	1	generate	Run1	generate/STIM_010.jpg
250.888	1.481	1	generate	Run1	generate/STIM_011.jpg
256.138	0.967	0	generate	Run1	generate/STIM_011.jpg
260.765	1.259	1	generate	Run1	generate/STIM_011.jpg
264.729	0.841	1	generate	Run1	generate/STIM_011.jpg
269.376	1.212	1	generate	Run1	generate/STIM_011.jpg
274.518	2.304	1	generate	Run1	generate/STIM_012.jpg
280.021	1.747	1	generate	Run1	generate/STIM_012.jpg
283.805	1.656	1	generate	Run1	generate/STIM_012.jpg
288.568	1.811	1	generate	Run1	generate/STIM_012.jpg
294.159	1.768	1	generate	Run1	generate/STIM_012.jpg
299.088	1.179	0	generate	Run1	generate/STIM_013.jpg
303.206	1.683	1	generate	Run1	generate/STIM_013.jpg
307.401	1.98	0	generate	Run1	generate/STIM_013.jpg
312.982	1.931	0	generate	Run1	generate/STIM_013.jpg
317.403	1.645	1	generate	Run1	generate/STIM_013.jpg
321.314	1.396	0	generate	Run1	generate/STIM_014.jpg
325.275	2.101	1	generate	Run1	generate/STIM_014.jpg
331.01	1.161	0	generate	Run1	generate/STIM_014.jpg
335.76	1.553	1	generate	Run1	generate/STIM_014.jpg
341.164	1.043	1	generate	Run1	generate/STIM_014.jpg
344.867	1.379	0	generate	Run1	generate/STIM_015.jpg
349.829	0.953	1	generate	Run1	generate/STIM_015.jpg
354.54	1.072	0	generate	Run1	generate/STIM_015.jpg
359.163	1.474	0	generate	Run1	generate/STIM_015.jpg
364.181	1.584	1	generate	Run1	generate/STIM_015.jpg
368.697	1.196	0	generate	Run1	generate/STIM_016.jpg
373.087	1.262	1	generate	Run1	generate/STIM_016.jpg
376.43	1.61	1	generate	Run1	generate/STIM_016.jpg
380.992	1.628	0	generate	Run1	generate/STIM_016.jpg
386.114	1.071	1	generate	Run1	generate/STIM_016.jpg
389.578	1.271	1	generate	Run1	generate/STIM_017.jpg
393.058	1.439	1	generate	Run1	generate/STIM_017.jpg
397.709	1.192	1	generate	Run1	generate/STIM_017.jpg
400.932	1.816	1	generate	Run1	generate/STIM_017.jpg
405.961	1.108	1	generate	Run1	generate/STIM_017.jpg
410.723	2.183	1	generate	Run1	generate/STIM_018.jpg
415.776	2.05	1	generate	Run1	generate/STIM_018.jpg
419.845	2.05	1	generate	Run1	generate/STIM_018.jpg
424.436	0.874	1	generate	Run1	generate/STIM_018.jpg
427.56	1.309	0	generate	Run1	generate/STIM_018.jpg
431.258	1.918	1	generate	Run1	generate/STIM_019.jpg
435.527	1.141	0	generate	Run1	generate/STIM_019.jpg
439.469	0.852	1	generate	Run1	generate/STIM_019.jpg
442.476	0.838	0	generate	Run1	generate/STIM_019.jpg
445.646	1.758	1	generate	Run1	generate/STIM_019.jpg
449.648	2.173	0	generate	Run1	generate/STIM_020.jpg
455.669	0.923	1	generate	Run1	generate/STIM_020.jpg
458.856	0.867	1	generate	Run1	generate/STIM_020.jpg
462.287	1.792	1	generate	Run1	generate/STIM_020.jpg
467.992	1.578	1	generate	Run1	generate/STIM_020.jpg
472.825	2.022	1	generate	Run1	generate/STIM_021.jpg
477.505	0.9	0	generate	Run1	generate/STIM_021.jpg
482.327	1.803	0	generate	Run1	generate/STIM_021.jpg
486.62	1.345	1	generate	Run1	generate/STIM_021.jpg
490.792	1.59	1	generate	Run1	generate/STIM_021.jpg
495.589	2.304	1	generate	Run1	generate/STIM_022.jpg
500.32	1.153	1	generate	Run1	generate/STIM_022.jpg
504.17	0.938	1	generate	Run1	generate/STIM_022.jpg
508.486	1.398	0	generate	Run1	generate/STIM_022.jpg
512.29	1.658	1	generate	Run1	generate/STIM_022.jpg
516.102	1.477	1	generate	Run1	generate/STIM_023.jpg
520.577	1.812	1	generate	Run1	generate/STIM_023.jpg
525.628	1.655	1	generate	Run1	generate/STIM_023.jpg
529.59	1.441	0	generate	Run1	generate/STIM_023.jpg
534.964	1.11	0	generate	Run1	generate/STIM_023.jpg
538.296	1.577	1	generate	Run1	generate/STIM_024.jpg
542.722	1.613	1	generate	Run1	generate/STIM_024.jpg
547.925	0.9	1	generate	Run1	generate/STIM_024.jpg
550.847	1.226	1	generate	Run1	generate/STIM_024.jpg
555.574	1.691	1	generate	Run1	generate/STIM_024.jpg
559.417	0.544	1	repeat	Run1	repeat/STIM_000.jpg
562.39	0.753	1	repeat	Run1	repeat/STIM_000.jpg
566.646	0.768	1	repeat	Run1	repeat/STIM_000.jpg
570.208	0.723	1	repeat	Run1	repeat/STIM_000.jpg
574.407	0.712	1	repeat	Run1	repeat/STIM_000.jpg
577.149	0.684	1	repeat	Run1	repeat/STIM_001.jpg
580.903	0.448	1	repeat	Run1	repeat/STIM_001.jpg
583.85	0.657	1	repeat	Run1	repeat/STIM_001.jpg
588.04	0.737	1	repeat	Run1	repeat/STIM_001.jpg
591.99	0.613	1	repeat	Run1	repeat/STIM_001.jpg
596.272	0.638	1	repeat	Run1	repeat/STIM_002.jpg
598.954	0.68	1	repeat	Run1	repeat/STIM_002.jpg
603.451	0.618	1	repeat	Run1	repeat/STIM_002.jpg
606.538	0.553	1	repeat	Run1	repeat/STIM_002.jpg
610.529	0.539	1	repeat	Run1	repeat/STIM_002.jpg
613.195	0.737	1	repeat	Run1	repeat/STIM_003.jpg
616.896	0.441	1	repeat	Run1	repeat/STIM_003.jpg
620.148	0.423	1	repeat	Run1	repeat/STIM_003.jpg
623.37	0.575	1	repeat	Run1	repeat/STIM_003.jpg
626.261	0.533	1	repeat	Run1	repeat/STIM_003.jpg
630.167	0.535	1	repeat	Run1	repeat/STIM_004.jpg
634.599	0.531	1	repeat	Run1	repeat/STIM_004.jpg
637.772	0.623	1	repeat	Run1	repeat/STIM_004.jpg
641.477	0.675	1	repeat	Run1	repeat/STIM_004.jpg
645.908	0.573	1	repeat	Run1	repeat/STIM_004.jpg
650.031	0.398	1	repeat	Run1	repeat/STIM_005.jpg
652.89	0.471	1	repeat	Run1	repeat/STIM_005.jpg
655.984	0.579	1	repeat	Run1	repeat/STIM_005.jpg
658.713	0.604	1	repeat	Run1	repeat/STIM_005.jpg
661.82	0.506	1	repeat	Run1	repeat/STIM_005.jpg
665.772	0.577	1	repeat	Run1	repeat/STIM_006.jpg
669.488	0.598	1	repeat	Run1	repeat/STIM_006.jpg
674.028	0.548	1	repeat	Run1	repeat/STIM_006.jpg
677.402	0.651	1	repeat	Run1	repeat/STIM_006.jpg
680.715	0.435	1	repeat	Run1	repeat/STIM_006.jpg
684.209	0.708	0	repeat	Run1	repeat/STIM_007.jpg
687.61	0.575	1	repeat	Run1	repeat/STIM_007.jpg
691.699	0.486	1	repeat	Run1	repeat/STIM_007.jpg
695.004	0.692	1	repeat	Run1	repeat/STIM_007.jpg
699.504	0.406	1	repeat	Run1	repeat/STIM_007.jpg
702.569	0.691	1	repeat	Run1	repeat/STIM_008.jpg
705.729	0.52	1	repeat	Run1	repeat/STIM_008.jpg
708.559	0.412	1	repeat	Run1	repeat/STIM_008.jpg
711.925	0.418	1	repeat	Run1	repeat/STIM_008.jpg
715.527	0.385	1	repeat	Run1	repeat/STIM_008.jpg
718.124	0.571	1	repeat	Run1	repeat/STIM_009.jpg
721.861	0.535	1	repeat	Run1	repeat/STIM_009.jpg
724.717	0.403	1	repeat	Run1	repeat/STIM_009.jpg
728.543	0.642	1	repeat	Run1	repeat/STIM_009.jpg
733.121	0.5	1	repeat	Run1	repeat/STIM_009.jpg
737.613	0.586	1	repeat	Run1	repeat/STIM_010.jpg
741.071	0.474	1	repeat	Run1	repeat/STIM_010.jpg
743.57	0.639	1	repeat	Run1	repeat/STIM_010.jpg
746.491	0.655	1	repeat	Run1	repeat/STIM_010.jpg
750.798	0.692	1	repeat	Run1	repeat/STIM_010.jpg
754.01	0.688	1	repeat	Run1	repeat/STIM_011.jpg
758.69	0.482	1	repeat	Run1	repeat/STIM_011.jpg
763.118	0.47	1	repeat	Run1	repeat/STIM_011.jpg
765.94	0.733	1	repeat	Run1	repeat/STIM_011.jpg
769.72	0.652	1	repeat	Run1	repeat/STIM_011.jpg
773.646	0.724	1	repeat	Run1	repeat/STIM_012.jpg
776.694	0.49	1	repeat	Run1	repeat/STIM_012.jpg
780.035	0.581	1	repeat	Run1	repeat/STIM_012.jpg
783.16	0.508	1	repeat	Run1	repeat/STIM_012.jpg
787.199	0.464	1	repeat	Run1	repeat/STIM_012.jpg
790.267	0.413	1	repeat	Run1	repeat/STIM_013.jpg
793.251	0.47	1	repeat	Run1	repeat/STIM_013.jpg
796.965	0.588	1	repeat	Run1	repeat/STIM_013.jpg
800.042	0.565	1	repeat	Run1	repeat/STIM_013.jpg
803.36	0.509	1	repeat	Run1	repeat/STIM_013.jpg
806.871	0.708	0	repeat	Run1	repeat/STIM_014.jpg
811.187	0.738	1	repeat	Run1	repeat/STIM_014.jpg
814.953	0.47	1	repeat	Run1	repeat/STIM_014.jpg
818.551	0.479	0	repeat	Run1	repeat/STIM_014.jpg
822.015	0.606	1	repeat	Run1	repeat/STIM_014.jpg
825.222	0.839	1	generate	Run2	generate/STIM_000.jpg
829.156	1.056	1	generate	Run2	generate/STIM_000.jpg
834.0	0.824	1	generate	Run2	generate/STIM_000.jpg
837.368	1.519	1	generate	Run2	generate/STIM_000.jpg
841.635	1.054	1	generate	Run2	generate/STIM_000.jpg
845.431	1.28	1	generate	Run2	generate/STIM_001.jpg
849.226	1.026	1	generate	Run2	generate/STIM_001.jpg
853.832	1.728	1	generate	Run2	generate/STIM_001.jpg
859.508	0.685	1	generate	Run2	generate/STIM_001.jpg
863.482	0.71	1	generate	Run2	generate/STIM_001.jpg
866.308	1.6	1	generate	Run2	generate/STIM_002.jpg
871.012	0.947	1	generate	Run2	generate/STIM_002.jpg
875.534	1.469	1	generate	Run2	generate/STIM_002.jpg
879.994	1.127	0	generate	Run2	generate/STIM_002.jpg
884.13	0.836	1	generate	Run2	generate/STIM_002.jpg
888.757	1.472	1	generate	Run2	generate/STIM_003.jpg
892.247	1.529	0	generate	Run2	generate/STIM_003.jpg
896.145	0.898	1	generate	Run2	generate/STIM_003.jpg
899.39	0.687	0	generate	Run2	generate/STIM_003.jpg
902.296	1.527	1	generate	Run2	generate/STIM_003.jpg
907.661	1.584	1	generate	Run2	generate/STIM_004.jpg
912.61	1.441	0	generate	Run2	generate/STIM_004.jpg
916.778	1.015	1	generate	Run2	generate/STIM_004.jpg
920.036	1.572	1	generate	Run2	generate/STIM_004.jpg
923.79	1.499	1	generate	Run2	generate/STIM_004.jpg
928.149	1.36	1	generate	Run2	generate/STIM_005.jpg
933.045	1.669	1	generate	Run2	generate/STIM_005.jpg
938.55	1.171	1	generate	Run2	generate/STIM_005.jpg
942.222	0.712	1	generate	Run2	generate/STIM_005.jpg
945.924	1.164	1	generate	Run2	generate/STIM_005.jpg
950.382	1.436	0	generate	Run2	generate/STIM_006.jpg
955.68	1.346	1	generate	Run2	generate/STIM_006.jpg
960.053	1.291	1	generate	Run2	generate/STIM_006.jpg
964.976	1.19	1	generate	Run2	generate/STIM_006.jpg
969.111	1.543	1	generate	Run2	generate/STIM_006.jpg
973.282	1.568	1	generate	Run2	generate/STIM_007.jpg
977.51	1.01	1	generate	Run2	generate/STIM_007.jpg
981.727	1.032	1	generate	Run2	generate/STIM_007.jpg
984.784	1.094	1	generate	Run2	generate/STIM_007.jpg
988.767	1.265	1	generate	Run2	generate/STIM_007.jpg
992.552	0.972	1	generate	Run2	generate/STIM_008.jpg
997.214	1.282	1	generate	Run2	generate/STIM_008.jpg
1001.03	1.504	1	generate	Run2	generate/STIM_008.jpg
1006.441	0.843	1	generate	Run2	generate/STIM_008.jpg
1010.784	1.349	1	generate	Run2	generate/STIM_008.jpg
1016.105	1.469	1	generate	Run2	generate/STIM_009.jpg
1020.15	1.538	1	generate	Run2	generate/STIM_009.jpg
1024.597	1.131	0	generate	Run2	generate/STIM_009.jpg
1029.475	0.701	1	generate	Run2	generate/STIM_009.jpg
1033.69	1.56	1	generate	Run2	generate/STIM_009.jpg
1038.264	1.362	0	generate	Run2	generate/STIM_010.jpg
1042.403	1.102	1	generate	Run2	generate/STIM_010.jpg
1047.4	1.664	1	generate	Run2	generate/STIM_010.jpg
1052.289	0.837	1	generate	Run2	generate/STIM_010.jpg
1055.343	0.662	1	generate	Run2	generate/STIM_010.jpg
1059.369	1.008	1	generate	Run2	generate/STIM_011.jpg
1064.129	1.029	0	generate	Run2	generate/STIM_011.jpg
1068.661	0.97	1	generate	Run2	generate/STIM_011.jpg
1073.349	1.447	1	generate	Run2	generate/STIM_011.jpg
1078.297	0.957	0	generate	Run2	generate/STIM_011.jpg
1081.8	1.806	0	generate	Run2	generate/STIM_012.jpg
1086.461	1.15	0	generate	Run2	generate/STIM_012.jpg
1089.729	1.394	1	generate	Run2	generate/STIM_012.jpg
1094.985	0.896	1	generate	Run2	generate/STIM_012.jpg
1098.228	1.308	1	generate	Run2	generate/STIM_012.jpg
1103.396	1.252	1	generate	Run2	generate/STIM_013.jpg
1108.416	1.62	1	generate	Run2	generate/STIM_013.jpg
1113.599	1.709	0	generate	Run2	generate/STIM_013.jpg
1117.637	0.885	1	generate	Run2	generate/STIM_013.jpg
1122.514	1.38	0	generate	Run2	generate/STIM_013.jpg
1126.217	1.917	1	generate	Run2	generate/STIM_014.jpg
1131.674	1.013	1	generate	Run2	generate/STIM_014.jpg
1135.933	1.222	1	generate	Run2	generate/STIM_014.jpg
1140.571	1.078	1	generate	Run2	generate/STIM_014.jpg
1145.572	1.095	1	generate	Run2	generate/STIM_014.jpg
1149.782	1.89	1	generate	Run2	generate/STIM_015.jpg
1155.554	1.473	1	generate	Run2	generate/STIM_015.jpg
1160.311	1.582	0	generate	Run2	generate/STIM_015.jpg
1165.8	1.494	1	generate	Run2	generate/STIM_015.jpg
1170.984	1.514	1	generate	Run2	generate/STIM_015.jpg
1175.068	1.801	1	generate	Run2	generate/STIM_016.jpg
1179.422	1.566	1	generate	Run2	generate/STIM_016.jpg
1184.65	1.475	1	generate	Run2	generate/STIM_016.jpg
1188.368	1.489	1	generate	Run2	generate/STIM_016.jpg
1192.768	1.02	1	generate	Run2	generate/STIM_016.jpg
1197.495	1.117	0	generate	Run2	generate/STIM_017.jpg
1202.153	1.281	1	generate	Run2	generate/STIM_017.jpg
1206.161	1.659	1	generate	Run2	generate/STIM_017.jpg
1211.069	0.771	1	generate	Run2	generate/STIM_017.jpg
1215.032	0.91	1	generate	Run2	generate/STIM_017.jpg
1218.908	1.412	1	generate	Run2	generate/STIM_018.jpg
1224.087	1.787	1	generate	Run2	generate/STIM_018.jpg
1228.053	1.642	1	generate	Run2	generate/STIM_018.jpg
1232.467	0.742	1	generate	Run2	generate/STIM_018.jpg
1235.259	1.384	1	generate	Run2	generate/STIM_018.jpg
1238.912	1.442	0	generate	Run2	generate/STIM_019.jpg
1243.155	1.601	1	generate	Run2	generate/STIM_019.jpg
1246.888	1.164	1	generate	Run2	generate/STIM_019.jpg
1251.598	0.764	1	generate	Run2	generate/STIM_019.jpg
1255.053	1.153	1	generate	Run2	generate/STIM_019.jpg
1259.783	0.878	1	generate	Run2	generate/STIM_020.jpg
1264.458	0.756	1	generate	Run2	generate/STIM_020.jpg
1267.423	0.692	1	generate	Run2	generate/STIM_020.jpg
1270.99	0.796	1	generate	Run2	generate/STIM_020.jpg
1274.307	0.814	1	generate	Run2	generate/STIM_020.jpg
1277.227	1.642	1	generate	Run2	generate/STIM_021.jpg
1282.488	0.905	1	generate	Run2	generate/STIM_021.jpg
1285.825	1.113	1	generate	Run2	generate/STIM_021.jpg
1289.389	0.959	1	generate	Run2	generate/STIM_021.jpg
1293.866	1.158	1	generate	Run2	generate/STIM_021.jpg
1298.088	1.825	1	generate	Run2	generate/STIM_022.jpg
1303.283	1.41	0	generate	Run2	generate/STIM_022.jpg
1308.521	1.278	1	generate	Run2	generate/STIM_022.jpg
1313.383	1.49	0	generate	Run2	generate/STIM_022.jpg
1317.913	0.849	1	generate	Run2	generate/STIM_022.jpg
1320.942	1.029	1	generate	Run2	generate/STIM_023.jpg
1324.737	0.893	1	generate	Run2	generate/STIM_023.jpg
1328.639	0.739	1	generate	Run2	generate/STIM_023.jpg
1332.804	1.391	1	generate	Run2	generate/STIM_023.jpg
1336.563	1.146	1	generate	Run2	generate/STIM_023.jpg
1340.858	1.719	1	generate	Run2	generate/STIM_024.jpg
1346.361	0.83	1	generate	Run2	generate/STIM_024.jpg
1350.45	1.07	1	generate	Run2	generate/STIM_024.jpg
1354.876	1.399	1	generate	Run2	generate/STIM_024.jpg
1359.121	1.184	1	generate	Run2	generate/STIM_024.jpg
1362.895	0.486	1	repeat	Run2	repeat/STIM_000.jpg
1367.081	0.398	1	repeat	Run2	repeat/STIM_000.jpg
1369.507	0.503	1	repeat	Run2	repeat/STIM_000.jpg
1372.875	0.462	1	repeat	Run2	repeat/STIM_000.jpg
1376.981	0.439	1	repeat	Run2	repeat/STIM_000.jpg
1379.437	0.542	1	repeat	Run2	repeat/STIM_001.jpg
1383.188	0.677	1	repeat	Run2	repeat/STIM_001.jpg
1386.645	0.637	1	repeat	Run2	repeat/STIM_001.jpg
1390.631	0.741	1	repeat	Run2	repeat/STIM_001.jpg
1393.864	0.587	1	repeat	Run2	repeat/STIM_001.jpg
1398.026	0.729	1	repeat	Run2	repeat/STIM_002.jpg
1401.212	0.632	1	repeat	Run2	repeat/STIM_002.jpg
1405.4	0.404	1	repeat	Run2	repeat/STIM_002.jpg
1408.836	0.702	1	repeat	Run2	repeat/STIM_002.jpg
1412.273	0.593	1	repeat	Run2	repeat/STIM_002.jpg
1414.954	0.548	1	repeat	Run2	repeat/STIM_003.jpg
1418.565	0.608	1	repeat	Run2	repeat/STIM_003.jpg
1422.992	0.66	1	repeat	Run2	repeat/STIM_003.jpg
1427.342	0.549	1	repeat	Run2	repeat/STIM_003.jpg
1430.801	0.586	1	repeat	Run2	repeat/STIM_003.jpg
1433.672	0.661	1	repeat	Run2	repeat/STIM_004.jpg
1438.314	0.764	1	repeat	Run2	repeat/STIM_004.jpg
1441.814	0.672	1	repeat	Run2	repeat/STIM_004.jpg
1445.409	0.765	1	repeat	Run2	repeat/STIM_004.jpg
1448.78	0.43	0	repeat	Run2	repeat/STIM_004.jpg
1452.384	0.639	1	repeat	Run2	repeat/STIM_005.jpg
1456.151	0.544	1	repeat	Run2	repeat/STIM_005.jpg
1459.777	0.659	1	repeat	Run2	repeat/STIM_005.jpg
1463.776	0.392	1	repeat	Run2	repeat/STIM_005.jpg
1467.851	0.438	1	repeat	Run2	repeat/STIM_005.jpg
1471.294	0.537	1	repeat	Run2	repeat/STIM_006.jpg
1474.624	0.665	1	repeat	Run2	repeat/STIM_006.jpg
1477.894	0.758	1	repeat	Run2	repeat/STIM_006.jpg
1482.148	0.664	1	repeat	Run2	repeat/STIM_006.jpg
1486.535	0.387	1	repeat	Run2	repeat/STIM_006.jpg
1490.787	0.582	1	repeat	Run2	repeat/STIM_007.jpg
1494.514	0.642	1	repeat	Run2	repeat/STIM_007.jpg
1498.347	0.697	1	repeat	Run2	repeat/STIM_007.jpg
1501.921	0.646	1	repeat	Run2	repeat/STIM_007.jpg
1505.475	0.728	1	repeat	Run2	repeat/STIM_007.jpg
1509.721	0.42	1	repeat	Run2	repeat/STIM_008.jpg
1513.7	0.478	1	repeat	Run2	repeat/STIM_008.jpg
1517.184	0.65	1	repeat	Run2	repeat/STIM_008.jpg
1521.393	0.56	1	repeat	Run2	repeat/STIM_008.jpg
1524.949	0.56	1	repeat	Run2	repeat/STIM_008.jpg
1527.658	0.614	1	repeat	Run2	repeat/STIM_009.jpg
1531.671	0.41	1	repeat	Run2	repeat/STIM_009.jpg
1534.655	0.64	1	repeat	Run2	repeat/STIM_009.jpg
1537.721	0.662	1	repeat	Run2	repeat/STIM_009.jpg
1541.728	0.688	1	repeat	Run2	repeat/STIM_009.jpg
1544.461	0.522	1	repeat	Run2	repeat/STIM_010.jpg
1547.067	0.533	1	repeat	Run2	repeat/STIM_010.jpg
1550.625	0.705	1	repeat	Run2	repeat/STIM_010.jpg
1555.232	0.699	1	repeat	Run2	repeat/STIM_010.jpg
1558.331	0.593	1	repeat	Run2	repeat/STIM_010.jpg
1561.858	0.548	1	repeat	Run2	repeat/STIM_011.jpg
1565.471	0.722	1	repeat	Run2	repeat/STIM_011.jpg
1569.627	0.567	1	repeat	Run2	repeat/STIM_011.jpg
1573.64	0.586	1	repeat	Run2	repeat/STIM_011.jpg
1577.786	0.534	1	repeat	Run2	repeat/STIM_011.jpg
1580.704	0.602	1	repeat	Run2	repeat/STIM_012.jpg
1583.725	0.655	1	repeat	Run2	repeat/STIM_012.jpg
1587.707	0.431	1	repeat	Run2	repeat/STIM_012.jpg
1591.178	0.579	1	repeat	Run2	repeat/STIM_012.jpg
1595.099	0.734	1	repeat	Run2	repeat/STIM_012.jpg
1598.865	0.618	0	repeat	Run2	repeat/STIM_013.jpg
1601.675	0.517	1	repeat	Run2	repeat/STIM_013.jpg
1605.25	0.529	1	repeat	Run2	repeat/STIM_013.jpg
1608.191	0.556	1	repeat	Run2	repeat/STIM_013.jpg
1611.63	0.494	1	repeat	Run2	repeat/STIM_013.jpg
1615.573	0.532	1	repeat	Run2	repeat/STIM_014.jpg
1618.207	0.454	1	repeat	Run2	repeat/STIM_014.jpg
1621.555	0.678	1	repeat	Run2	repeat/STIM_014.jpg
1624.68	0.468	1	repeat	Run2	repeat/STIM_014.jpg
1627.862	0.672	1	repeat	Run2	repeat/STIM_014.jpg
1632.012	0.896	1	generate	Run3	generate/STIM_000.jpg
1635.398	1.397	1	generate	Run3	generate/STIM_000.jpg
1639.457	1.12	1	generate	Run3	generate/STIM_000.jpg
1643.104	1.59	1	generate	Run3	generate/STIM_000.jpg
1648.354	0.983	1	generate	Run3	generate/STIM_000.jpg
1652.932	0.758	1	generate	Run3	generate/STIM_001.jpg
1656.363	1.37	1	generate	Run3	generate/STIM_001.jpg
1660.923	1.036	1	generate	Run3	generate/STIM_001.jpg
1665.948	1.396	1	generate	Run3	generate/STIM_001.jpg
1670.738	0.79	1	generate	Run3	generate/STIM_001.jpg
1674.083	1.168	1	generate	Run3	generate/STIM_002.jpg
1677.311	0.696	1	generate	Run3	generate/STIM_002.jpg
1680.245	0.82	1	generate	Run3	generate/STIM_002.jpg
1683.769	1.393	1	generate	Run3	generate/STIM_002.jpg
1688.381	1.058	1	generate	Run3	generate/STIM_002.jpg
1691.856	0.931	1	generate	Run3	generate/STIM_003.jpg
1695.114	1.174	1	generate	Run3	generate/STIM_003.jpg
1699.452	1.048	1	generate	Run3	generate/STIM_003.jpg
1704.09	0.757	0	generate	Run3	generate/STIM_003.jpg
1708.788	1.307	1	generate	Run3	generate/STIM_003.jpg
1712.823	1.491	1	generate	Run3	generate/STIM_004.jpg
1717.256	0.755	1	generate	Run3	generate/STIM_004.jpg
1720.12	0.669	1	generate	Run3	generate/STIM_004.jpg
1722.963	1.125	1	generate	Run3	generate/STIM_004.jpg
1726.412	0.886	1	generate	Run3	generate/STIM_004.jpg
1730.728	1.115	1	generate	Run3	generate/STIM_005.jpg
1734.558	0.793	1	generate	Run3	generate/STIM_005.jpg
1738.052	1.309	1	generate	Run3	generate/STIM_005.jpg
1742.987	0.866	1	generate	Run3	generate/STIM_005.jpg
1747.319	1.338	1	generate	Run3	generate/STIM_005.jpg
1752.283	0.881	1	generate	Run3	generate/STIM_006.jpg
1755.417	1.191	1	generate	Run3	generate/STIM_006.jpg
1759.054	1.578	1	generate	Run3	generate/STIM_006.jpg
1763.305	1.463	1	generate	Run3	generate/STIM_006.jpg
1766.954	1.225	1	generate	Run3	generate/STIM_006.jpg
1771.579	0.916	1	generate	Run3	generate/STIM_007.jpg
1774.517	1.443	1	generate	Run3	generate/STIM_007.jpg
1778.048	0.73	1	generate	Run3	generate/STIM_007.jpg
1781.06	0.871	1	generate	Run3	generate/STIM_007.jpg
1784.83	0.939	1	generate	Run3	generate/STIM_007.jpg
1788.103	0.838	1	generate	Run3	generate/STIM_008.jpg
1792.827	1.434	1	generate	Run3	generate/STIM_008.jpg
1797.074	1.417	1	generate	Run3	generate/STIM_008.jpg
1801.339	0.794	1	generate	Run3	generate/STIM_008.jpg
1806.095	0.935	1	generate	Run3	generate/STIM_008.jpg
1809.291	1.141	1	generate	Run3	generate/STIM_009.jpg
1814.138	1.288	1	generate	Run3	generate/STIM_009.jpg
1818.047	0.938	1	generate	Run3	generate/STIM_009.jpg
1822.091	0.929	1	generate	Run3	generate/STIM_009.jpg
1825.498	1.555	1	generate	Run3	generate/STIM_009.jpg
1830.783	0.658	1	generate	Run3	generate/STIM_010.jpg
1834.734	1.499	0	generate	Run3	generate/STIM_010.jpg
1839.416	1.325	1	generate	Run3	generate/STIM_010.jpg
1844.056	0.909	1	generate	Run3	generate/STIM_010.jpg
1848.286	1.063	1	generate	Run3	generate/STIM_010.jpg
1853.232	1.55	0	generate	Run3	generate/STIM_011.jpg
1858.384	0.984	0	generate	Run3	generate/STIM_011.jpg
1862.746	0.762	1	generate	Run3	generate/STIM_011.jpg
1866.546	0.883	1	generate	Run3	generate/STIM_011.jpg
1871.326	1.541	1	generate	Run3	generate/STIM_011.jpg
1876.161	1.193	1	generate	Run3	generate/STIM_012.jpg
1880.9	1.162	1	generate	Run3	generate/STIM_012.jpg
1884.656	1.591	1	generate	Run3	generate/STIM_012.jpg
1889.001	1.201	1	generate	Run3	generate/STIM_012.jpg
1893.922	1.199	1	generate	Run3	generate/STIM_012.jpg
1898.444	1.175	0	generate	Run3	generate/STIM_013.jpg
1902.574	1.551	1	generate	Run3	generate/STIM_013.jpg
1906.585	1.336	0	generate	Run3	generate/STIM_013.jpg
1911.226	1.04	1	generate	Run3	generate/STIM_013.jpg
1914.734	0.909	1	generate	Run3	generate/STIM_013.jpg
1917.795	0.855	1	generate	Run3	generate/STIM_014.jpg
1921.376	1.557	1	generate	Run3	generate/STIM_014.jpg
1926.683	0.717	1	generate	Run3	generate/STIM_014.jpg
1929.732	1.143	1	generate	Run3	generate/STIM_014.jpg
1933.121	1.276	0	generate	Run3	generate/STIM_014.jpg
1937.823	0.744	1	generate	Run3	generate/STIM_015.jpg
1942.256	0.662	1	generate	Run3	generate/STIM_015.jpg
1946.449	0.883	1	generate	Run3	generate/STIM_015.jpg
1950.265	1.044	1	generate	Run3	generate/STIM_015.jpg
1954.257	1.588	1	generate	Run3	generate/STIM_015.jpg
1958.559	0.676	1	generate	Run3	generate/STIM_016.jpg
1961.338	0.878	1	generate	Run3	generate/STIM_016.jpg
1965.694	1.106	1	generate	Run3	generate/STIM_016.jpg
1968.942	0.949	1	generate	Run3	generate/STIM_016.jpg
1972.579	1.347	1	generate	Run3	generate/STIM_016.jpg
1977.018	0.782	1	generate	Run3	generate/STIM_017.jpg
1980.657	0.989	1	generate	Run3	generate/STIM_017.jpg
1985.016	1.172	1	generate	Run3	generate/STIM_017.jpg
1988.987	0.775	1	generate	Run3	generate/STIM_017.jpg
1991.81	0.665	1	generate	Run3	generate/STIM_017.jpg
1994.897	1.216	1	generate	Run3	generate/STIM_018.jpg
1998.438	1.458	1	generate	Run3	generate/STIM_018.jpg
2002.094	1.274	1	generate	Run3	generate/STIM_018.jpg
2006.085	0.919	1	generate	Run3	generate/STIM_018.jpg
2010.045	1.576	1	generate	Run3	generate/STIM_018.jpg
2013.925	1.254	1	generate	Run3	generate/STIM_019.jpg
2017.227	1.528	1	generate	Run3	generate/STIM_019.jpg
2021.27	0.963	1	generate	Run3	generate/STIM_019.jpg
2024.684	0.697	1	generate	Run3	generate/STIM_019.jpg
2029.006	0.736	1	generate	Run3	generate/STIM_019.jpg
2032.444	1.535	1	generate	Run3	generate/STIM_020.jpg
2036.67	1.154	1	generate	Run3	generate/STIM_020.jpg
2040.946	0.854	1	generate	Run3	generate/STIM_020.jpg
2045.234	0.84	1	generate	Run3	generate/STIM_020.jpg
2049.943	0.96	1	generate	Run3	generate/STIM_020.jpg
2053.252	1.176	1	generate	Run3	generate/STIM_021.jpg
2058.269	0.728	1	generate	Run3	generate/STIM_021.jpg
2062.304	1.079	1	generate	Run3	generate/STIM_021.jpg
2066.291	1.304	1	generate	Run3	generate/STIM_021.jpg
2071.283	1.524	1	generate	Run3	generate/STIM_021.jpg
2076.723	0.776	0	generate	Run3	generate/STIM_022.jpg
2080.675	1.355	1	generate	Run3	generate/STIM_022.jpg
2085.628	1.21	1	generate	Run3	generate/STIM_022.jpg
2090.227	0.89	1	generate	Run3	generate/STIM_022.jpg
2095.068	1.382	1	generate	Run3	generate/STIM_022.jpg
2099.928	1.143	1	generate	Run3	generate/STIM_023.jpg
2104.705	1.101	1	generate	Run3	generate/STIM_023.jpg
2109.607	1.171	1	generate	Run3	generate/STIM_023.jpg
2113.837	1.48	1	generate	Run3	generate/STIM_023.jpg
2118.149	0.821	1	generate	Run3	generate/STIM_023.jpg
2122.654	1.473	1	generate	Run3	generate/STIM_024.jpg
2126.145	0.763	1	generate	Run3	generate/STIM_024.jpg
2129.515	1.158	1	generate	Run3	generate/STIM_024.jpg
2133.697	0.897	0	generate	Run3	generate/STIM_024.jpg
2138.436	0.781	1	generate	Run3	generate/STIM_024.jpg
2141.325	0.721	1	repeat	Run3	repeat/STIM_000.jpg
2144.961	0.552	1	repeat	Run3	repeat/STIM_000.jpg
2148.407	0.665	1	repeat	Run3	repeat/STIM_000.jpg
2152.091	0.755	1	repeat	Run3	repeat/STIM_000.jpg
2155.333	0.738	1	repeat	Run3	repeat/STIM_000.jpg
2159.575	0.644	1	repeat	Run3	repeat/STIM_001.jpg
2162.612	0.617	1	repeat	Run3	repeat/STIM_001.jpg
2165.583	0.521	1	repeat	Run3	repeat/STIM_001.jpg
2169.935	0.443	1	repeat	Run3	repeat/STIM_001.jpg
2173.558	0.508	1	repeat	Run3	repeat/STIM_001.jpg
2177.527	0.467	1	repeat	Run3	repeat/STIM_002.jpg
2180.285	0.751	1	repeat	Run3	repeat/STIM_002.jpg
2183.998	0.632	1	repeat	Run3	repeat/STIM_002.jpg
2188.177	0.742	1	repeat	Run3	repeat/STIM_002.jpg
2191.07	0.725	1	repeat	Run3	repeat/STIM_002.jpg
2193.894	0.66	1	repeat	Run3	repeat/STIM_003.jpg
2198.053	0.508	1	repeat	Run3	repeat/STIM_003.jpg
2201.99	0.615	1	repeat	Run3	repeat/STIM_003.jpg
2204.759	0.475	1	repeat	Run3	repeat/STIM_003.jpg
2207.676	0.575	1	repeat	Run3	repeat/STIM_003.jpg
2211.276	0.612	1	repeat	Run3	repeat/STIM_004.jpg
2215.591	0.712	1	repeat	Run3	repeat/STIM_004.jpg
2219.346	0.48	1	repeat	Run3	repeat/STIM_004.jpg
2223.159	0.704	1	repeat	Run3	repeat/STIM_004.jpg
2227.239	0.432	1	repeat	Run3	repeat/STIM_004.jpg
2231.592	0.69	1	repeat	Run3	repeat/STIM_005.jpg
2235.396	0.681	1	repeat	Run3	repeat/STIM_005.jpg
2238.195	0.741	0	repeat	Run3	repeat/STIM_005.jpg
2242.473	0.586	1	repeat	Run3	repeat/STIM_005.jpg
2245.987	0.519	1	repeat	Run3	repeat/STIM_005.jpg
2250.48	0.451	1	repeat	Run3	repeat/STIM_006.jpg
2253.879	0.735	1	repeat	Run3	repeat/STIM_006.jpg
2256.818	0.561	1	repeat	Run3	repeat/STIM_006.jpg
2261.305	0.421	1	repeat	Run3	repeat/STIM_006.jpg
2264.768	0.4	1	repeat	Run3	repeat/STIM_006.jpg
2268.329	0.712	1	repeat	Run3	repeat/STIM_007.jpg
2271.895	0.693	1	repeat	Run3	repeat/STIM_007.jpg
2276.045	0.47	1	repeat	Run3	repeat/STIM_007.jpg
2279.028	0.505	1	repeat	Run3	repeat/STIM_007.jpg
2282.934	0.636	1	repeat	Run3	repeat/STIM_007.jpg
2285.683	0.644	1	repeat	Run3	repeat/STIM_008.jpg
2289.73	0.552	1	repeat	Run3	repeat/STIM_008.jpg
2293.597	0.632	1	repeat	Run3	repeat/STIM_008.jpg
2296.324	0.61	1	repeat	Run3	repeat/STIM_008.jpg
2300.89	0.481	1	repeat	Run3	repeat/STIM_008.jpg
2303.619	0.474	1	repeat	Run3	repeat/STIM_009.jpg
2306.225	0.696	1	repeat	Run3	repeat/STIM_009.jpg
2309.449	0.616	1	repeat	Run3	repeat/STIM_009.jpg
2312.88	0.664	1	repeat	Run3	repeat/STIM_009.jpg
2316.102	0.625	1	repeat	Run3	repeat/STIM_009.jpg
2320.308	0.444	1	repeat	Run3	repeat/STIM_010.jpg
2323.402	0.58	1	repeat	Run3	repeat/STIM_010.jpg
2326.71	0.415	1	repeat	Run3	repeat/STIM_010.jpg
2330.057	0.456	1	repeat	Run3	repeat/STIM_010.jpg
2333.287	0.651	1	repeat	Run3	repeat/STIM_010.jpg
2336.833	0.527	1	repeat	Run3	repeat/STIM_011.jpg
2341.262	0.52	1	repeat	Run3	repeat/STIM_011.jpg
2345.319	0.536	1	repeat	Run3	repeat/STIM_011.jpg
2349.489	0.634	1	repeat	Run3	repeat/STIM_011.jpg
2353.648	0.529	1	repeat	Run3	repeat/STIM_011.jpg
2357.144	0.415	1	repeat	Run3	repeat/STIM_012.jpg
2360.684	0.63	1	repeat	Run3	repeat/STIM_012.jpg
2364.093	0.622	1	repeat	Run3	repeat/STIM_012.jpg
2367.62	0.546	1	repeat	Run3	repeat/STIM_012.jpg
2370.802	0.755	1	repeat	Run3	repeat/STIM_012.jpg
2374.447	0.424	1	repeat	Run3	repeat/STIM_013.jpg
2378.085	0.698	1	repeat	Run3	repeat/STIM_013.jpg
2381.952	0.699	1	repeat	Run3	repeat/STIM_013.jpg
2384.676	0.742	1	repeat	Run3	repeat/STIM_013.jpg
2387.58	0.627	1	repeat	Run3	repeat/STIM_013.jpg
2390.52	0.587	1	repeat	Run3	repeat/STIM_014.jpg
2395.074	0.648	1	repeat	Run3	repeat/STIM_014.jpg
2398.024	0.67	1	repeat	Run3	repeat/STIM_014.jpg
2401.037	0.661	1	repeat	Run3	repeat/STIM_014.jpg
2405.272	0.752	1	repeat	Run3	repeat/STIM_014.jpg
2408.816	0.742	1	generate	Run4	generate/STIM_000.jpg
2412.07	1.396	1	generate	Run4	generate/STIM_000.jpg
2416.895	0.832	1	generate	Run4	generate/STIM_000.jpg
2419.81	0.73	1	generate	Run4	generate/STIM_000.jpg
2422.959	1.466	1	generate	Run4	generate/STIM_000.jpg
2426.879	1.365	1	generate	Run4	generate/STIM_001.jpg
2431.974	0.737	1	generate	Run4	generate/STIM_001.jpg
2435.613	1.505	1	generate	Run4	generate/STIM_001.jpg
2440.534	0.742	1	generate	Run4	generate/STIM_001.jpg
2444.022	1.296	1	generate	Run4	generate/STIM_001.jpg
2448.26	1.325	1	generate	Run4	generate/STIM_002.jpg
2453.198	1.169	1	generate	Run4	generate/STIM_002.jpg
2457.125	1.606	1	generate	Run4	generate/STIM_002.jpg
2462.398	0.874	1	generate	Run4	generate/STIM_002.jpg
2466.677	0.654	1	generate	Run4	generate/STIM_002.jpg
2469.641	0.981	1	generate	Run4	generate/STIM_003.jpg
2474.216	1.149	1	generate	Run4	generate/STIM_003.jpg
2478.489	1.015	1	generate	Run4	generate/STIM_003.jpg
2482.298	0.97	1	generate	Run4	generate/STIM_003.jpg
2485.558	1.131	1	generate	Run4	generate/STIM_003.jpg
2490.068	1.099	1	generate	Run4	generate/STIM_004.jpg
2494.017	1.099	1	generate	Run4	generate/STIM_004.jpg
2497.976	1.359	1	generate	Run4	generate/STIM_004.jpg
2501.673	1.157	1	generate	Run4	generate/STIM_004.jpg
2506.21	0.674	1	generate	Run4	generate/STIM_004.jpg
2510.034	1.023	1	generate	Run4	generate/STIM_005.jpg
2514.914	1.344	1	generate	Run4	generate/STIM_005.jpg
2519.11	0.917	1	generate	Run4	generate/STIM_005.jpg
2523.488	0.885	1	generate	Run4	generate/STIM_005.jpg
2527.757	1.121	1	generate	Run4	generate/STIM_005.jpg
2532.131	0.804	1	generate	Run4	generate/STIM_006.jpg
2536.624	0.793	1	generate	Run4	generate/STIM_006.jpg
2540.627	0.67	1	generate	Run4	generate/STIM_006.jpg
2544.515	1.445	1	generate	Run4	generate/STIM_006.jpg
2548.394	1.326	1	generate	Run4	generate/STIM_006.jpg
2552.583	0.969	1	generate	Run4	generate/STIM_007.jpg
2556.714	1.454	1	generate	Run4	generate/STIM_007.jpg
2561.805	1.603	1	generate	Run4	generate/STIM_007.jpg
2567.045	1.341	1	generate	Run4	generate/STIM_007.jpg
2571.121	1.2	1	generate	Run4	generate/STIM_007.jpg
2574.823	0.7	1	generate	Run4	generate/STIM_008.jpg
2578.352	1.463	1	generate	Run4	generate/STIM_008.jpg
2582.711	1.092	1	generate	Run4	generate/STIM_008.jpg
2587.366	1.198	1	generate	Run4	generate/STIM_008.jpg
2592.239	1.202	1	generate	Run4	generate/STIM_008.jpg
2596.762	0.948	1	generate	Run4	generate/STIM_009.jpg
2601.624	1.556	1	generate	Run4	generate/STIM_009.jpg
2605.632	1.467	1	generate	Run4	generate/STIM_009.jpg
2609.893	1.354	1	generate	Run4	generate/STIM_009.jpg
2614.818	1.11	1	generate	Run4	generate/STIM_009.jpg
2618.258	0.976	1	generate	Run4	generate/STIM_010.jpg
2621.347	1.548	1	generate	Run4	generate/STIM_010.jpg
2626.412	1.097	1	generate	Run4	generate/STIM_010.jpg
2630.435	1.433	1	generate	Run4	generate/STIM_010.jpg
2634.693	1.574	1	generate	Run4	generate/STIM_010.jpg
2638.715	0.663	1	generate	Run4	generate/STIM_011.jpg
2642.009	1.464	1	generate	Run4	generate/STIM_011.jpg
2647.233	0.958	1	generate	Run4	generate/STIM_011.jpg
2652.008	1.157	1	generate	Run4	generate/STIM_011.jpg
2656.367	1.08	1	generate	Run4	generate/STIM_011.jpg
2660.155	0.958	1	generate	Run4	generate/STIM_012.jpg
2664.8	0.829	1	generate	Run4	generate/STIM_012.jpg
2668.123	1.167	1	generate	Run4	generate/STIM_012.jpg
2673.009	1.234	1	generate	Run4	generate/STIM_012.jpg
2677.929	1.584	1	generate	Run4	generate/STIM_012.jpg
2683.406	0.674	1	generate	Run4	generate/STIM_013.jpg
2687.288	1.02	1	generate	Run4	generate/STIM_013.jpg
2690.48	1.321	0	generate	Run4	generate/STIM_013.jpg
2695.148	1.012	1	generate	Run4	generate/STIM_013.jpg
2698.298	1.178	1	generate	Run4	generate/STIM_013.jpg
2702.925	1.01	1	generate	Run4	generate/STIM_014.jpg
2706.567	0.924	1	generate	Run4	generate/STIM_014.jpg
2709.694	1.43	1	generate	Run4	generate/STIM_014.jpg
2715.116	0.935	1	generate	Run4	generate/STIM_014.jpg
2719.995	1.603	1	generate	Run4	generate/STIM_014.jpg
2723.744	1.508	0	generate	Run4	generate/STIM_015.jpg
2727.257	1.578	1	generate	Run4	generate/STIM_015.jpg
2731.287	1.254	1	generate	Run4	generate/STIM_015.jpg
2734.746	1.34	1	generate	Run4	generate/STIM_015.jpg
2739.203	0.878	1	generate	Run4	generate/STIM_015.jpg
2742.785	0.748	1	generate	Run4	generate/STIM_016.jpg
2745.993	1.504	1	generate	Run4	generate/STIM_016.jpg
2750.576	0.802	1	generate	Run4	generate/STIM_016.jpg
2754.133	1.016	0	generate	Run4	generate/STIM_016.jpg
2757.418	1.265	1	generate	Run4	generate/STIM_016.jpg
2761.859	0.703	1	generate	Run4	generate/STIM_017.jpg
2765.568	0.68	1	generate	Run4	generate/STIM_017.jpg
2769.221	0.992	1	generate	Run4	generate/STIM_017.jpg
2773.388	1.566	1	generate	Run4	generate/STIM_017.jpg
2777.337	1.403	1	generate	Run4	generate/STIM_017.jpg
2780.775	0.972	1	generate	Run4	generate/STIM_018.jpg
2784.207	0.88	1	generate	Run4	generate/STIM_018.jpg
2789.039	1.171	1	generate	Run4	generate/STIM_018.jpg
2794.171	1.211	1	generate	Run4	generate/STIM_018.jpg
2797.816	1.335	1	generate	Run4	generate/STIM_018.jpg
2802.726	1.418	1	generate	Run4	generate/STIM_019.jpg
2807.14	1.099	1	generate	Run4	generate/STIM_019.jpg
2810.807	0.923	1	generate	Run4	generate/STIM_019.jpg
2815.365	1.53	1	generate	Run4	generate/STIM_019.jpg
2819.643	1.204	1	generate	Run4	generate/STIM_019.jpg
2823.052	1.508	1	generate	Run4	generate/STIM_020.jpg
2827.321	0.925	1	generate	Run4	generate/STIM_020.jpg
2832.133	1.45	1	generate	Run4	generate/STIM_020.jpg
2836.288	1.302	1	generate	Run4	generate/STIM_020.jpg
2840.063	1.026	1	generate	Run4	generate/STIM_020.jpg
2843.538	1.589	1	generate	Run4	generate/STIM_021.jpg
2848.408	1.571	1	generate	Run4	generate/STIM_021.jpg
2852.974	1.053	1	generate	Run4	generate/STIM_021.jpg
2857.686	1.579	0	generate	Run4	generate/STIM_021.jpg
2862.945	1.069	1	generate	Run4	generate/STIM_021.jpg
2867.261	0.842	1	generate	Run4	generate/STIM_022.jpg
2871.6	0.894	1	generate	Run4	generate/STIM_022.jpg
2875.185	1.044	1	generate	Run4	generate/STIM_022.jpg
2879.58	1.307	1	generate	Run4	generate/STIM_022.jpg
2883.012	1.345	1	generate	Run4	generate/STIM_022.jpg
2886.897	1.415	1	generate	Run4	generate/STIM_023.jpg
2891.96	1.262	1	generate	Run4	generate/STIM_023.jpg
2897.207	1.528	1	generate	Run4	generate/STIM_023.jpg
2902.288	1.072	1	generate	Run4	generate/STIM_023.jpg
2905.651	1.586	1	generate	Run4	generate/STIM_023.jpg
2909.609	1.277	1	generate	Run4	generate/STIM_024.jpg
2914.779	1.023	1	generate	Run4	generate/STIM_024.jpg
2918.236	0.888	1	generate	Run4	generate/STIM_024.jpg
2921.934	0.666	1	generate	Run4	generate/STIM_024.jpg
2925.628	0.904	1	generate	Run4	generate/STIM_024.jpg
2930.213	0.429	1	repeat	Run4	repeat/STIM_000.jpg
2933.44	0.748	1	repeat	Run4	repeat/STIM_000.jpg
2938.09	0.518	1	repeat	Run4	repeat/STIM_000.jpg
2941.529	0.75	1	repeat	Run4	repeat/STIM_000.jpg
2944.724	0.695	1	repeat	Run4	repeat/STIM_000.jpg
2948.154	0.719	1	repeat	Run4	repeat/STIM_001.jpg
2952.628	0.475	1	repeat	Run4	repeat/STIM_001.jpg
2955.422	0.52	1	repeat	Run4	repeat/STIM_001.jpg
2959.459	0.403	1	repeat	Run4	repeat/STIM_001.jpg
2963.417	0.658	1	repeat	Run4	repeat/STIM_001.jpg
2967.879	0.553	1	repeat	Run4	repeat/STIM_002.jpg
2970.824	0.634	1	repeat	Run4	repeat/STIM_002.jpg
2974.947	0.503	1	repeat	Run4	repeat/STIM_002.jpg
2978.636	0.408	1	repeat	Run4	repeat/STIM_002.jpg
2982.464	0.732	1	repeat	Run4	repeat/STIM_002.jpg
2986.955	0.524	1	repeat	Run4	repeat/STIM_003.jpg
2989.644	0.502	1	repeat	Run4	repeat/STIM_003.jpg
2993.802	0.524	1	repeat	Run4	repeat/STIM_003.jpg
2996.593	0.546	1	repeat	Run4	repeat/STIM_003.jpg
2999.14	0.715	1	repeat	Run4	repeat/STIM_003.jpg
3003.583	0.728	1	repeat	Run4	repeat/STIM_004.jpg
3006.553	0.638	1	repeat	Run4	repeat/STIM_004.jpg
3009.602	0.5	1	repeat	Run4	repeat/STIM_004.jpg
3012.464	0.764	1	repeat	Run4	repeat/STIM_004.jpg
3017.197	0.623	1	repeat	Run4	repeat/STIM_004.jpg
3021.66	0.669	1	repeat	Run4	repeat/STIM_005.jpg
3025.16	0.528	1	repeat	Run4	repeat/STIM_005.jpg
3029.552	0.422	1	repeat	Run4	repeat/STIM_005.jpg
3033.899	0.662	1	repeat	Run4	repeat/STIM_005.jpg
3037.477	0.538	1	repeat	Run4	repeat/STIM_005.jpg
3041.532	0.436	1	repeat	Run4	repeat/STIM_006.jpg
3044.719	0.546	1	repeat	Run4	repeat/STIM_006.jpg
3047.903	0.479	1	repeat	Run4	repeat/STIM_006.jpg
3050.41	0.67	1	repeat	Run4	repeat/STIM_006.jpg
3054.438	0.556	1	repeat	Run4	repeat/STIM_006.jpg
3058.538	0.668	1	repeat	Run4	repeat/STIM_007.jpg
3062.573	0.565	1	repeat	Run4	repeat/STIM_007.jpg
3066.662	0.585	1	repeat	Run4	repeat/STIM_007.jpg
3071.147	0.681	1	repeat	Run4	repeat/STIM_007.jpg
3075.699	0.528	1	repeat	Run4	repeat/STIM_007.jpg
3079.55	0.585	1	repeat	Run4	repeat/STIM_008.jpg
3083.631	0.64	1	repeat	Run4	repeat/STIM_008.jpg
3088.074	0.484	1	repeat	Run4	repeat/STIM_008.jpg
3092.411	0.491	1	repeat	Run4	repeat/STIM_008.jpg
3095.27	0.5	1	repeat	Run4	repeat/STIM_008.jpg
3098.038	0.606	1	repeat	Run4	repeat/STIM_009.jpg
3100.772	0.589	1	repeat	Run4	repeat/STIM_009.jpg
3103.807	0.613	1	repeat	Run4	repeat/STIM_009.jpg
3107.241	0.426	1	repeat	Run4	repeat/STIM_009.jpg
3111.368	0.537	1	repeat	Run4	repeat/STIM_009.jpg
3115.326	0.768	1	repeat	Run4	repeat/STIM_010.jpg
3119.947	0.655	1	repeat	Run4	repeat/STIM_010.jpg
3123.879	0.508	1	repeat	Run4	repeat/STIM_010.jpg
3126.406	0.518	1	repeat	Run4	repeat/STIM_010.jpg
3130.379	0.706	1	repeat	Run4	repeat/STIM_010.jpg
3133.141	0.746	1	repeat	Run4	repeat/STIM_011.jpg
3136.5	0.469	1	repeat	Run4	repeat/STIM_011.jpg
3140.348	0.442	1	repeat	Run4	repeat/STIM_011.jpg
3143.004	0.665	1	repeat	Run4	repeat/STIM_011.jpg
3147.374	0.592	1	repeat	Run4	repeat/STIM_011.jpg
3151.526	0.502	0	repeat	Run4	repeat/STIM_012.jpg
3155.969	0.68	1	repeat	Run4	repeat/STIM_012.jpg
3158.657	0.567	1	repeat	Run4	repeat/STIM_012.jpg
3162.007	0.669	1	repeat	Run4	repeat/STIM_012.jpg
3165.566	0.637	1	repeat	Run4	repeat/STIM_012.jpg
3169.474	0.68	1	repeat	Run4	repeat/STIM_013.jpg
3173.92	0.477	1	repeat	Run4	repeat/STIM_013.jpg
3178.194	0.481	1	repeat	Run4	repeat/STIM_013.jpg
3180.974	0.598	0	repeat	Run4	repeat/STIM_013.jpg
3183.822	0.626	1	repeat	Run4	repeat/STIM_013.jpg
3187.454	0.693	1	repeat	Run4	repeat/STIM_014.jpg
3190.59	0.444	1	repeat	Run4	repeat/STIM_014.jpg
3194.815	0.552	1	repeat	Run4	repeat/STIM_014.jpg
3198.512	0.568	1	repeat	Run4	repeat/STIM_014.jpg
3202.573	0.445	1	repeat	Run4	repeat/STIM_014.jpg
