onset	duration	accuracy	trial_type	learning_stage	stimulus
0.0	1.957	correct	generate	Run1	generate/STIM_000.jpg
4.327	1.407	correct	generate	Run1	generate/STIM_000.jpg
8.893	2.337	incorrect	generate	Run1	generate/STIM_000.jpg
15.399	1.558	correct	generate	Run1	generate/STIM_000.jpg
20.591	2.002	correct	generate	Run1	generate/STIM_000.jpg
24.799	1.419	correct	generate	Run1	generate/STIM_001.jpg
29.023	2.543	correct	generate	Run1	generate/STIM_001.jpg
34.448	1.394	incorrect	generate	Run1	generate/STIM_001.jpg
38.511	1.311	correct	generate	Run1	generate/STIM_001.jpg
43.76	1.841	correct	generate	Run1	generate/STIM_001.jpg
49.724	1.586	correct	generate	Run1	generate/STIM_002.jpg
54.265	2.498	correct	generate	Run1	generate/STIM_002.jpg
59.257	1.228	correct	generate	Run1	generate/STIM_002.jpg
62.858	1.644	correct	generate	Run1	generate/STIM_002.jpg
67.627	1.84	incorrect	generate	Run1	generate/STIM_002.jpg
73.213	1.133	incorrect	generate	Run1	generate/STIM_003.jpg
76.891	2.454	correct	generate	Run1	generate/STIM_003.jpg
81.618	1.491	correct	generate	Run1	generate/STIM_003.jpg
87.053	1.551	correct	generate	Run1	generate/STIM_003.jpg
91.114	1.911	correct	generate	Run1	generate/STIM_003.jpg
97.086	2.129	correct	generate	Run1	generate/STIM_004.jpg
102.591	2.123	incorrect	generate	Run1	generate/STIM_004.jpg
108.611	1.537	correct	generate	Run1	generate/STIM_004.jpg
113.676	1.114	incorrect	generate	Run1	generate/STIM_004.jpg
117.08	1.175	incorrect	generate	Run1	generate/STIM_004.jpg
121.341	1.693	incorrect	generate	Run1	generate/STIM_005.jpg
125.921	2.017	correct	generate	Run1	generate/STIM_005.jpg
130.587	2.34	incorrect	generate	Run1	generate/STIM_005.jpg
136.739	2.392	correct	generate	Run1	generate/STIM_005.jpg
142.547	1.837	correct	generate	Run1	generate/STIM_005.jpg
147.569	1.359	correct	generate	Run1	generate/STIM_006.jpg
152.843	2.462	correct	generate	Run1	generate/STIM_006.jpg
158.59	2.122	correct	generate	Run1	generate/STIM_006.jpg
162.952	1.714	correct	generate	Run1	generate/STIM_006.jpg
167.649	2.191	correct	generate	Run1	generate/STIM_006.jpg
172.06	1.836	incorrect	generate	Run1	generate/STIM_007.jpg
176.353	2.298	correct	generate	Run1	generate/STIM_007.jpg
181.741	1.233	correct	generate	Run1	generate/STIM_007.jpg
186.96	1.099	correct	generate	Run1	generate/STIM_007.jpg
191.105	1.883	correct	generate	Run1	generate/STIM_007.jpg
195.629	2.438	correct	generate	Run1	generate/STIM_008.jpg
201.324	1.42	correct	generate	Run1	generate/STIM_008.jpg
205.007	2.174	correct	generate	Run1	generate/STIM_008.jpg
210.83	2.184	incorrect	generate	Run1	generate/STIM_008.jpg
215.584	1.968	correct	generate	Run1	generate/STIM_008.jpg
220.774	2.636	incorrect	generate	Run1	generate/STIM_009.jpg
227.374	2.342	correct	generate	Run1	generate/STIM_009.jpg
233.267	2.105	incorrect	generate	Run1	generate/STIM_009.jpg
238.09	1.007	correct	generate	Run1	generate/STIM_009.jpg
241.321	1.6	correct	generate	Run1	generate/STIM_009.jpg
245.362	1.259	correct	generate	Run1	generate/STIM_010.jpg
250.697	1.076	correct	generate	Run1	generate/STIM_010.jpg
255.197	1.281	correct	generate	Run1	generate/STIM_010.jpg
260.608	1.824	incorrect	generate	Run1	generate/STIM_010.jpg
266.414	0.934	correct	generate	Run1	generate/STIM_010.jpg
269.61	1.309	correct	generate	Run1	generate/STIM_011.jpg
273.228	1.163	incorrect	generate	Run1	generate/STIM_011.jpg
277.426	1.747	correct	generate	Run1	generate/STIM_011.jpg
282.019	0.986	correct	generate	Run1	generate/STIM_011.jpg
285.682	1.899	correct	generate	Run1	generate/STIM_011.jpg
290.098	1.99	correct	generate	Run1	generate/STIM_012.jpg
296.115	1.477	correct	generate	Run1	generate/STIM_012.jpg
300.906	1.171	correct	generate	Run1	generate/STIM_012.jpg
304.38	2.146	incorrect	generate	Run1	generate/STIM_012.jpg
309.992	1.119	correct	generate	Run1	generate/STIM_012.jpg
314.663	2.213	incorrect	generate	Run1	generate/STIM_013.jpg
320.726	1.504	correct	generate	Run1	generate/STIM_013.jpg
325.635	1.829	incorrect	generate	Run1	generate/STIM_013.jpg
331.291	2.191	incorrect	generate	Run1	generate/STIM_013.jpg
336.562	1.954	correct	generate	Run1	generate/STIM_013.jpg
342.066	1.167	correct	generate	Run1	generate/STIM_014.jpg
347.292	2.256	correct	generate	Run1	generate/STIM_014.jpg
352.91	1.493	incorrect	generate	Run1	generate/STIM_014.jpg
358.104	1.514	incorrect	generate	Run1	generate/STIM_014.jpg
362.741	1.109	correct	generate	Run1	generate/STIM_014.jpg
367.368	2.17	incorrect	generate	Run1	generate/STIM_015.jpg
372.287	1.349	correct	generate	Run1	generate/STIM_015.jpg
377.606	1.401	incorrect	generate	Run1	generate/STIM_015.jpg
382.533	1.524	incorrect	generate	Run1	generate/STIM_015.jpg
387.996	2.13	correct	generate	Run1	generate/STIM_015.jpg
393.748	2.185	incorrect	generate	Run1	generate/STIM_016.jpg
399.801	1.064	correct	generate	Run1	generate/STIM_016.jpg
404.739	1.41	correct	generate	Run1	generate/STIM_016.jpg
408.505	2.236	incorrect	generate	Run1	generate/STIM_016.jpg
413.973	2.082	correct	generate	Run1	generate/STIM_016.jpg
420.068	1.968	correct	generate	Run1	generate/STIM_017.jpg
426.124	1.885	correct	generate	Run1	generate/STIM_017.jpg
431.908	1.28	correct	generate	Run1	generate/STIM_017.jpg
436.641	2.004	correct	generate	Run1	generate/STIM_017.jpg
442.573	1.249	correct	generate	Run1	generate/STIM_017.jpg
446.729	1.161	correct	generate	Run1	generate/STIM_018.jpg
450.583	1.287	correct	generate	Run1	generate/STIM_018.jpg
455.921	1.452	correct	generate	Run1	generate/STIM_018.jpg
459.761	1.17	correct	generate	Run1	generate/STIM_018.jpg
463.434	1.547	incorrect	generate	Run1	generate/STIM_018.jpg
468.608	1.842	correct	generate	Run1	generate/STIM_019.jpg
473.193	1.093	correct	generate	Run1	generate/STIM_019.jpg
477.299	2.231	correct	generate	Run1	generate/STIM_019.jpg
483.177	1.757	incorrect	generate	Run1	generate/STIM_019.jpg
487.963	1.075	correct	generate	Run1	generate/STIM_019.jpg
491.962	1.203	incorrect	generate	Run1	generate/STIM_020.jpg
497.128	2.059	correct	generate	Run1	generate/STIM_020.jpg
503.336	2.392	correct	generate	Run1	generate/STIM_020.jpg
509.062	2.154	correct	generate	Run1	generate/STIM_020.jpg
513.553	1.015	correct	generate	Run1	generate/STIM_020.jpg
516.689	1.939	correct	generate	Run1	generate/STIM_021.jpg
522.606	2.388	incorrect	generate	Run1	generate/STIM_021.jpg
527.325	2.6	incorrect	generate	Run1	generate/STIM_021.jpg
533.931	2.21	correct	generate	Run1	generate/STIM_021.jpg
539.267	2.156	correct	generate	Run1	generate/STIM_021.jpg
544.163	1.115	correct	generate	Run1	generate/STIM_022.jpg
549.041	1.079	correct	generate	Run1	generate/STIM_022.jpg
553.707	1.443	correct	generate	Run1	generate/STIM_022.jpg
558.898	1.376	incorrect	generate	Run1	generate/STIM_022.jpg
562.548	1.075	correct	generate	Run1	generate/STIM_022.jpg
565.839	1.227	correct	generate	Run1	generate/STIM_023.jpg
569.947	2.318	incorrect	generate	Run1	generate/STIM_023.jpg
575.96	2.132	correct	generate	Run1	generate/STIM_023.jpg
580.486	1.662	correct	generate	Run1	generate/STIM_023.jpg
584.725	1.662	incorrect	generate	Run1	generate/STIM_023.jpg
589.235	1.523	correct	generate	Run1	generate/STIM_024.jpg
594.654	1.861	correct	generate	Run1	generate/STIM_024.jpg
600.007	2.406	correct	generate	Run1	generate/STIM_024.jpg
605.395	1.591	correct	generate	Run1	generate/STIM_024.jpg
609.384	1.283	correct	generate	Run1	generate/STIM_024.jpg
614.139	0.76	correct	repeat	Run1	repeat/STIM_000.jpg
617.897	0.879	correct	repeat	Run1	repeat/STIM_000.jpg
621.194	0.989	correct	repeat	Run1	repeat/STIM_000.jpg
624.732	0.792	correct	repeat	Run1	repeat/STIM_000.jpg
628.029	0.969	correct	repeat	Run1	repeat/STIM_000.jpg
631.717	0.742	correct	repeat	Run1	repeat/STIM_001.jpg
635.929	0.561	correct	repeat	Run1	repeat/STIM_001.jpg
639.401	0.514	correct	repeat	Run1	repeat/STIM_001.jpg
643.576	0.68	correct	repeat	Run1	repeat/STIM_001.jpg
646.381	0.869	correct	repeat	Run1	repeat/STIM_001.jpg
651.006	0.618	correct	repeat	Run1	repeat/STIM_002.jpg
655.665	0.561	correct	repeat	Run1	repeat/STIM_002.jpg
659.718	0.667	correct	repeat	Run1	repeat/STIM_002.jpg
663.02	0.666	correct	repeat	Run1	repeat/STIM_002.jpg
667.548	0.496	correct	repeat	Run1	repeat/STIM_002.jpg
671.377	0.606	correct	repeat	Run1	repeat/STIM_003.jpg
675.128	0.465	correct	repeat	Run1	repeat/STIM_003.jpg
678.108	0.645	correct	repeat	Run1	repeat/STIM_003.jpg
681.33	0.836	correct	repeat	Run1	repeat/STIM_003.jpg
684.901	0.832	correct	repeat	Run1	repeat/STIM_003.jpg
688.336	0.79	correct	repeat	Run1	repeat/STIM_004.jpg
691.866	0.649	correct	repeat	Run1	repeat/STIM_004.jpg
695.173	0.887	correct	repeat	Run1	repeat/STIM_004.jpg
698.166	0.966	correct	repeat	Run1	repeat/STIM_004.jpg
702.009	0.58	correct	repeat	Run1	repeat/STIM_004.jpg
704.908	0.784	correct	repeat	Run1	repeat/STIM_005.jpg
709.622	0.81	correct	repeat	Run1	repeat/STIM_005.jpg
713.544	0.568	correct	repeat	Run1	repeat/STIM_005.jpg
717.235	0.75	correct	repeat	Run1	repeat/STIM_005.jpg
721.81	0.591	correct	repeat	Run1	repeat/STIM_005.jpg
725.689	0.779	correct	repeat	Run1	repeat/STIM_006.jpg
730.374	0.704	correct	repeat	Run1	repeat/STIM_006.jpg
734.251	0.869	correct	repeat	Run1	repeat/STIM_006.jpg
738.132	0.596	correct	repeat	Run1	repeat/STIM_006.jpg
741.977	0.774	correct	repeat	Run1	repeat/STIM_006.jpg
745.113	0.491	incorrect	repeat	Run1	repeat/STIM_007.jpg
747.808	0.894	correct	repeat	Run1	repeat/STIM_007.jpg
751.21	0.841	correct	repeat	Run1	repeat/STIM_007.jpg
755.752	0.867	correct	repeat	Run1	repeat/STIM_007.jpg
759.819	0.618	correct	repeat	Run1	repeat/STIM_007.jpg
764.171	0.651	correct	repeat	Run1	repeat/STIM_008.jpg
768.745	0.77	correct	repeat	Run1	repeat/STIM_008.jpg
772.673	0.583	correct	repeat	Run1	repeat/STIM_008.jpg
775.441	0.822	correct	repeat	Run1	repeat/STIM_008.jpg
779.062	0.796	correct	repeat	Run1	repeat/STIM_008.jpg
783.65	0.712	correct	repeat	Run1	repeat/STIM_009.jpg
786.711	0.471	correct	repeat	Run1	repeat/STIM_009.jpg
790.329	0.745	correct	repeat	Run1	repeat/STIM_009.jpg
793.495	0.627	correct	repeat	Run1	repeat/STIM_009.jpg
798.098	0.664	correct	repeat	Run1	repeat/STIM_009.jpg
801.707	0.618	correct	repeat	Run1	repeat/STIM_010.jpg
804.571	0.622	correct	repeat	Run1	repeat/STIM_010.jpg
808.802	0.494	correct	repeat	Run1	repeat/STIM_010.jpg
813.124	0.55	correct	repeat	Run1	repeat/STIM_010.jpg
815.809	0.842	correct	repeat	Run1	repeat/STIM_010.jpg
819.895	0.643	correct	repeat	Run1	repeat/STIM_011.jpg
822.937	0.572	correct	repeat	Run1	repeat/STIM_011.jpg
826.944	0.722	correct	repeat	Run1	repeat/STIM_011.jpg
829.805	0.647	correct	repeat	Run1	repeat/STIM_011.jpg
833.948	0.85	correct	repeat	Run1	repeat/STIM_011.jpg
837.069	0.499	correct	repeat	Run1	repeat/STIM_012.jpg
840.205	0.553	correct	repeat	Run1	repeat/STIM_012.jpg
844.227	0.587	correct	repeat	Run1	repeat/STIM_012.jpg
847.844	0.571	correct	repeat	Run1	repeat/STIM_012.jpg
851.03	0.59	correct	repeat	Run1	repeat/STIM_012.jpg
853.922	0.682	correct	repeat	Run1	repeat/STIM_013.jpg
857.45	0.583	correct	repeat	Run1	repeat/STIM_013.jpg
861.299	0.536	correct	repeat	Run1	repeat/STIM_013.jpg
863.875	0.914	correct	repeat	Run1	repeat/STIM_013.jpg
868.358	0.655	correct	repeat	Run1	repeat/STIM_013.jpg
872.001	0.543	incorrect	repeat	Run1	repeat/STIM_014.jpg
875.723	0.841	correct	repeat	Run1	repeat/STIM_014.jpg
880.534	0.61	correct	repeat	Run1	repeat/STIM_014.jpg
884.569	0.728	incorrect	repeat	Run1	repeat/STIM_014.jpg
887.608	0.593	correct	repeat	Run1	repeat/STIM_014.jpg
890.445	1.574	correct	generate	Run2	generate/STIM_000.jpg
894.676	1.47	correct	generate	Run2	generate/STIM_000.jpg
899.664	0.992	correct	generate	Run2	generate/STIM_000.jpg
904.538	0.94	correct	generate	Run2	generate/STIM_000.jpg
909.364	1.578	correct	generate	Run2	generate/STIM_000.jpg
914.527	1.214	correct	generate	Run2	generate/STIM_001.jpg
918.669	1.484	correct	generate	Run2	generate/STIM_001.jpg
922.56	2.023	correct	generate	Run2	generate/STIM_001.jpg
927.927	1.761	correct	generate	Run2	generate/STIM_001.jpg
933.336	1.263	correct	generate	Run2	generate/STIM_001.jpg
938.164	1.499	correct	generate	Run2	generate/STIM_002.jpg
943.324	1.63	incorrect	generate	Run2	generate/STIM_002.jpg
947.856	1.916	correct	generate	Run2	generate/STIM_002.jpg
951.973	0.817	correct	generate	Run2	generate/STIM_002.jpg
954.926	1.061	correct	generate	Run2	generate/STIM_002.jpg
958.426	1.342	correct	generate	Run2	generate/STIM_003.jpg
963.281	1.918	incorrect	generate	Run2	generate/STIM_003.jpg
968.375	1.117	correct	generate	Run2	generate/STIM_003.jpg
972.536	1.295	incorrect	generate	Run2	generate/STIM_003.jpg
977.104	1.334	correct	generate	Run2	generate/STIM_003.jpg
982.286	2.238	correct	generate	Run2	generate/STIM_004.jpg
988.301	1.223	incorrect	generate	Run2	generate/STIM_004.jpg
993.548	1.599	incorrect	generate	Run2	generate/STIM_004.jpg
998.897	1.21	correct	generate	Run2	generate/STIM_004.jpg
1004.122	1.802	correct	generate	Run2	generate/STIM_004.jpg
1009.394	1.994	correct	generate	Run2	generate/STIM_005.jpg
1015.373	1.083	correct	generate	Run2	generate/STIM_005.jpg
1019.876	1.677	correct	generate	Run2	generate/STIM_005.jpg
1023.856	1.733	correct	generate	Run2	generate/STIM_005.jpg
1028.939	0.926	correct	generate	Run2	generate/STIM_005.jpg
1033.673	2.29	correct	generate	Run2	generate/STIM_006.jpg
1039.634	1.616	correct	generate	Run2	generate/STIM_006.jpg
1043.895	1.028	correct	generate	Run2	generate/STIM_006.jpg
1049.075	1.545	incorrect	generate	Run2	generate/STIM_006.jpg
1053.537	1.011	correct	generate	Run2	generate/STIM_006.jpg
1057.587	1.994	correct	generate	Run2	generate/STIM_007.jpg
1063.824	1.751	correct	generate	Run2	generate/STIM_007.jpg
1068.957	1.724	correct	generate	Run2	generate/STIM_007.jpg
1073.15	1.7	correct	generate	Run2	generate/STIM_007.jpg
1078.055	1.661	correct	generate	Run2	generate/STIM_007.jpg
1083.36	1.757	correct	generate	Run2	generate/STIM_008.jpg
1087.802	2.078	correct	generate	Run2	generate/STIM_008.jpg
1092.98	1.567	incorrect	generate	Run2	generate/STIM_008.jpg
1098.642	1.151	correct	generate	Run2	generate/STIM_008.jpg
1101.95	1.782	correct	generate	Run2	generate/STIM_008.jpg
1106.372	1.036	correct	generate	Run2	generate/STIM_009.jpg
1110.482	1.313	correct	generate	Run2	generate/STIM_009.jpg
1113.91	1.065	incorrect	generate	Run2	generate/STIM_009.jpg
1117.838	1.476	correct	generate	Run2	generate/STIM_009.jpg
1122.633	0.935	correct	generate	Run2	generate/STIM_009.jpg
1127.505	1.487	incorrect	generate	Run2	generate/STIM_010.jpg
1132.86	1.707	incorrect	generate	Run2	generate/STIM_010.jpg
1138.568	1.359	correct	generate	Run2	generate/STIM_010.jpg
1143.22	1.496	correct	generate	Run2	generate/STIM_010.jpg
1147.604	1.592	correct	generate	Run2	generate/STIM_010.jpg
1151.601	1.89	correct	generate	Run2	generate/STIM_011.jpg
1156.822	1.744	incorrect	generate	Run2	generate/STIM_011.jpg
1161.975	2.042	correct	generate	Run2	generate/STIM_011.jpg
1167.894	1.595	correct	generate	Run2	generate/STIM_011.jpg
1173.148	1.594	incorrect	generate	Run2	generate/STIM_011.jpg
1177.81	1.015	incorrect	generate	Run2	generate/STIM_012.jpg
1181.838	1.373	incorrect	generate	Run2	generate/STIM_012.jpg
1185.769	1.286	correct	generate	Run2	generate/STIM_012.jpg
1190.398	1.776	correct	generate	Run2	generate/STIM_012.jpg
1196.039	1.391	correct	generate	Run2	generate/STIM_012.jpg
1201.332	1.554	correct	generate	Run2	generate/STIM_013.jpg
1206.716	1.446	correct	generate	Run2	generate/STIM_013.jpg
1212.22	0.944	incorrect	generate	Run2	generate/STIM_013.jpg
1217.178	1.164	correct	generate	Run2	generate/STIM_013.jpg
1222.04	1.096	incorrect	generate	Run2	generate/STIM_013.jpg
1227.228	1.182	correct	generate	Run2	generate/STIM_014.jpg
1232.378	0.885	correct	generate	Run2	generate/STIM_014.jpg
1236.281	1.57	correct	generate	Run2	generate/STIM_014.jpg
1242.01	1.895	correct	generate	Run2	generate/STIM_014.jpg
1247.377	0.919	correct	generate	Run2	generate/STIM_014.jpg
1251.236	2.162	correct	generate	Run2	generate/STIM_015.jpg
1255.963	1.447	correct	generate	Run2	generate/STIM_015.jpg
1261.433	1.128	incorrect	generate	Run2	generate/STIM_015.jpg
1264.742	1.109	correct	generate	Run2	generate/STIM_015.jpg
1268.359	1.849	correct	generate	Run2	generate/STIM_015.jpg
1274.128	1.278	correct	generate	Run2	generate/STIM_016.jpg
1278.334	1.947	correct	generate	Run2	generate/STIM_016.jpg
1284.286	0.877	correct	generate	Run2	generate/STIM_016.jpg
1288.313	1.169	correct	generate	Run2	generate/STIM_016.jpg
1292.91	1.525	correct	generate	Run2	generate/STIM_016.jpg
1297.078	1.931	correct	generate	Run2	generate/STIM_017.jpg
1302.806	1.518	correct	generate	Run2	generate/STIM_017.jpg
1308.281	1.984	correct	generate	Run2	generate/STIM_017.jpg
1314.107	1.574	correct	generate	Run2	generate/STIM_017.jpg
1318.936	1.411	correct	generate	Run2	generate/STIM_017.jpg
1323.016	2.199	correct	generate	Run2	generate/STIM_018.jpg
1329.06	1.907	correct	generate	Run2	generate/STIM_018.jpg
1334.81	1.138	correct	generate	Run2	generate/STIM_018.jpg
1339.566	0.956	correct	generate	Run2	generate/STIM_018.jpg
1343.248	1.729	correct	generate	Run2	generate/STIM_018.jpg
1348.729	1.694	correct	generate	Run2	generate/STIM_019.jpg
1352.64	1.495	correct	generate	Run2	generate/STIM_019.jpg
1357.89	1.12	correct	generate	Run2	generate/STIM_019.jpg
1362.578	1.81	correct	generate	Run2	generate/STIM_019.jpg
1367.057	1.39	correct	generate	Run2	generate/STIM_019.jpg
1371.323	2.263	correct	generate	Run2	generate/STIM_020.jpg
1376.258	1.197	correct	generate	Run2	generate/STIM_020.jpg
1379.792	1.555	correct	generate	Run2	generate/STIM_020.jpg
1384.832	1.295	correct	generate	Run2	generate/STIM_020.jpg
1390.093	1.084	correct	generate	Run2	generate/STIM_020.jpg
1394.828	2.256	correct	generate	Run2	generate/STIM_021.jpg
1400.505	1.575	correct	generate	Run2	generate/STIM_021.jpg
1405.424	0.998	correct	generate	Run2	generate/STIM_021.jpg
1409.893	1.188	correct	generate	Run2	generate/STIM_021.jpg
1414.85	1.094	correct	generate	Run2	generate/STIM_021.jpg
1420.032	1.432	correct	generate	Run2	generate/STIM_022.jpg
1425.037	1.35	incorrect	generate	Run2	generate/STIM_022.jpg
1429.301	1.559	correct	generate	Run2	generate/STIM_022.jpg
1434.329	1.106	incorrect	generate	Run2	generate/STIM_022.jpg
1437.604	0.949	correct	generate	Run2	generate/STIM_022.jpg
1440.924	2.11	correct	generate	Run2	generate/STIM_023.jpg
1446.508	1.269	incorrect	generate	Run2	generate/STIM_023.jpg
1450.432	0.947	correct	generate	Run2	generate/STIM_023.jpg
1454.056	0.944	correct	generate	Run2	generate/STIM_023.jpg
1458.866	1.885	correct	generate	Run2	generate/STIM_023.jpg
1463.729	2.26	correct	generate	Run2	generate/STIM_024.jpg
1469.303	1.723	correct	generate	Run2	generate/STIM_024.jpg
1473.386	0.927	incorrect	generate	Run2	generate/STIM_024.jpg
1476.666	1.254	correct	generate	Run2	generate/STIM_024.jpg
1480.161	0.966	correct	generate	Run2	generate/STIM_024.jpg
1483.811	0.813	correct	repeat	Run2	repeat/STIM_000.jpg
1487.457	0.686	correct	repeat	Run2	repeat/STIM_000.jpg
1491.025	0.567	correct	repeat	Run2	repeat/STIM_000.jpg
1493.589	0.852	correct	repeat	Run2	repeat/STIM_000.jpg
1498.096	0.841	correct	repeat	Run2	repeat/STIM_000.jpg
1502.337	0.587	correct	repeat	Run2	repeat/STIM_001.jpg
1505.798	0.65	correct	repeat	Run2	repeat/STIM_001.jpg
1508.629	0.751	correct	repeat	Run2	repeat/STIM_001.jpg
1512.406	0.53	correct	repeat	Run2	repeat/STIM_001.jpg
1515.474	0.823	correct	repeat	Run2	repeat/STIM_001.jpg
1518.767	0.756	correct	repeat	Run2	repeat/STIM_002.jpg
1523.466	0.622	correct	repeat	Run2	repeat/STIM_002.jpg
1526.187	0.794	correct	repeat	Run2	repeat/STIM_002.jpg
1529.913	0.821	correct	repeat	Run2	repeat/STIM_002.jpg
1533.223	0.817	correct	repeat	Run2	repeat/STIM_002.jpg
1536.599	0.776	correct	repeat	Run2	repeat/STIM_003.jpg
1540.452	0.63	correct	repeat	Run2	repeat/STIM_003.jpg
1543.335	0.884	correct	repeat	Run2	repeat/STIM_003.jpg
1546.927	0.512	correct	repeat	Run2	repeat/STIM_003.jpg
1550.608	0.463	correct	repeat	Run2	repeat/STIM_003.jpg
1553.586	0.627	correct	repeat	Run2	repeat/STIM_004.jpg
1557.565	0.624	correct	repeat	Run2	repeat/STIM_004.jpg
1562.01	0.451	correct	repeat	Run2	repeat/STIM_004.jpg
1565.766	0.465	correct	repeat	Run2	repeat/STIM_004.jpg
1568.384	0.62	incorrect	repeat	Run2	repeat/STIM_004.jpg
1571.747	0.583	correct	repeat	Run2	repeat/STIM_005.jpg
1576.125	0.536	correct	repeat	Run2	repeat/STIM_005.jpg
1580.237	0.792	correct	repeat	Run2	repeat/STIM_005.jpg
1583.837	0.508	correct	repeat	Run2	repeat/STIM_005.jpg
1588.119	0.528	correct	repeat	Run2	repeat/STIM_005.jpg
1591.052	0.961	correct	repeat	Run2	repeat/STIM_006.jpg
1594.842	0.937	correct	repeat	Run2	repeat/STIM_006.jpg
1598.364	0.835	correct	repeat	Run2	repeat/STIM_006.jpg
1601.411	0.779	correct	repeat	Run2	repeat/STIM_006.jpg
1605.998	0.483	correct	repeat	Run2	repeat/STIM_006.jpg
1609.919	0.782	correct	repeat	Run2	repeat/STIM_007.jpg
1614.553	0.48	correct	repeat	Run2	repeat/STIM_007.jpg
1618.407	0.549	correct	repeat	Run2	repeat/STIM_007.jpg
1621.982	0.755	correct	repeat	Run2	repeat/STIM_007.jpg
1626.418	0.613	correct	repeat	Run2	repeat/STIM_007.jpg
1630.449	0.671	correct	repeat	Run2	repeat/STIM_008.jpg
1633.318	0.688	correct	repeat	Run2	repeat/STIM_008.jpg
1637.388	0.598	correct	repeat	Run2	repeat/STIM_008.jpg
1640.917	0.859	correct	repeat	Run2	repeat/STIM_008.jpg
1644.538	0.577	correct	repeat	Run2	repeat/STIM_008.jpg
1648.268	0.708	correct	repeat	Run2	repeat/STIM_009.jpg
1652.695	0.766	correct	repeat	Run2	repeat/STIM_009.jpg
1656.737	0.527	correct	repeat	Run2	repeat/STIM_009.jpg
1660.269	0.849	incorrect	repeat	Run2	repeat/STIM_009.jpg
1663.774	0.506	correct	repeat	Run2	repeat/STIM_009.jpg
1667.742	0.921	correct	repeat	Run2	repeat/STIM_010.jpg
1671.503	0.576	correct	repeat	Run2	repeat/STIM_010.jpg
1674.253	0.816	correct	repeat	Run2	repeat/STIM_010.jpg
1677.933	0.443	correct	repeat	Run2	repeat/STIM_010.jpg
1681.292	0.821	correct	repeat	Run2	repeat/STIM_010.jpg
1685.904	0.381	correct	repeat	Run2	repeat/STIM_011.jpg
1689.944	0.438	correct	repeat	Run2	repeat/STIM_011.jpg
1693.933	0.607	correct	repeat	Run2	repeat/STIM_011.jpg
1697.991	0.578	correct	repeat	Run2	repeat/STIM_011.jpg
1700.634	0.663	correct	repeat	Run2	repeat/STIM_011.jpg
1704.252	0.672	correct	repeat	Run2	repeat/STIM_012.jpg
1708.765	0.793	correct	repeat	Run2	repeat/STIM_012.jpg
1712.32	0.873	correct	repeat	Run2	repeat/STIM_012.jpg
1717.048	0.657	correct	repeat	Run2	repeat/STIM_012.jpg
1721.73	0.471	correct	repeat	Run2	repeat/STIM_012.jpg
1724.327	0.91	correct	repeat	Run2	repeat/STIM_013.jpg
1729.118	0.896	correct	repeat	Run2	repeat/STIM_013.jpg
1732.825	0.748	correct	repeat	Run2	repeat/STIM_013.jpg
1736.608	0.798	correct	repeat	Run2	repeat/STIM_013.jpg
1739.65	0.818	correct	repeat	Run2	repeat/STIM_013.jpg
1743.934	0.71	correct	repeat	Run2	repeat/STIM_014.jpg
1748.697	0.768	correct	repeat	Run2	repeat/STIM_014.jpg
1751.757	0.767	correct	repeat	Run2	repeat/STIM_014.jpg
1755.225	0.821	correct	repeat	Run2	repeat/STIM_014.jpg
1758.298	0.493	correct	repeat	Run2	repeat/STIM_014.jpg
1762.706	1.74	correct	generate	Run3	generate/STIM_000.jpg
1766.841	1.547	correct	generate	Run3	generate/STIM_000.jpg
1770.95	0.891	correct	generate	Run3	generate/STIM_000.jpg
1775.035	1.814	correct	generate	Run3	generate/STIM_000.jpg
1779.34	1.905	correct	generate	Run3	generate/STIM_000.jpg
1785.095	0.878	correct	generate	Run3	generate/STIM_001.jpg
1789.458	0.986	correct	generate	Run3	generate/STIM_001.jpg
1793.219	1.228	correct	generate	Run3	generate/STIM_001.jpg
1798.349	0.748	correct	generate	Run3	generate/STIM_001.jpg
1802.442	1.301	correct	generate	Run3	generate/STIM_001.jpg
1807.384	1.29	correct	generate	Run3	generate/STIM_002.jpg
1811.09	0.892	correct	generate	Run3	generate/STIM_002.jpg
1815.838	0.848	correct	generate	Run3	generate/STIM_002.jpg
1820.296	1.533	correct	generate	Run3	generate/STIM_002.jpg
1824.244	1.856	correct	generate	Run3	generate/STIM_002.jpg
1829.119	0.916	correct	generate	Run3	generate/STIM_003.jpg
1832.534	1.286	correct	generate	Run3	generate/STIM_003.jpg
1836.295	1.762	correct	generate	Run3	generate/STIM_003.jpg
1841.747	1.201	correct	generate	Run3	generate/STIM_003.jpg
1845.37	1.502	correct	generate	Run3	generate/STIM_003.jpg
1850.19	1.476	incorrect	generate	Run3	generate/STIM_004.jpg
1854.194	1.514	correct	generate	Run3	generate/STIM_004.jpg
1858.316	1.568	correct	generate	Run3	generate/STIM_004.jpg
1863.178	1.237	correct	generate	Run3	generate/STIM_004.jpg
1867.2	1.627	correct	generate	Run3	generate/STIM_004.jpg
1872.13	1.34	correct	generate	Run3	generate/STIM_005.jpg
1875.799	1.557	correct	generate	Run3	generate/STIM_005.jpg
1881.351	1.506	correct	generate	Run3	generate/STIM_005.jpg
1886.331	1.497	correct	generate	Run3	generate/STIM_005.jpg
1891.935	1.887	correct	generate	Run3	generate/STIM_005.jpg
1897.928	1.062	incorrect	generate	Run3	generate/STIM_006.jpg
1901.877	1.35	correct	generate	Run3	generate/STIM_006.jpg
1906.352	1.013	correct	generate	Run3	generate/STIM_006.jpg
1910.365	1.074	correct	generate	Run3	generate/STIM_006.jpg
1915.405	1.413	correct	generate	Run3	generate/STIM_006.jpg
1919.496	1.786	correct	generate	Run3	generate/STIM_007.jpg
1924.809	1.319	correct	generate	Run3	generate/STIM_007.jpg
1929.155	1.391	correct	generate	Run3	generate/STIM_007.jpg
1934.554	0.84	correct	generate	Run3	generate/STIM_007.jpg
1937.907	1.605	correct	generate	Run3	generate/STIM_007.jpg
1942.127	1.274	correct	generate	Run3	generate/STIM_008.jpg
1946.52	1.461	correct	generate	Run3	generate/STIM_008.jpg
1951.613	1.681	correct	generate	Run3	generate/STIM_008.jpg
1955.913	1.41	correct	generate	Run3	generate/STIM_008.jpg
1961.208	1.475	correct	generate	Run3	generate/STIM_008.jpg
1966.342	0.909	correct	generate	Run3	generate/STIM_009.jpg
1970.91	1.774	correct	generate	Run3	generate/STIM_009.jpg
1975.644	1.144	correct	generate	Run3	generate/STIM_009.jpg
1979.081	1.455	correct	generate	Run3	generate/STIM_009.jpg
1984.272	0.882	correct	generate	Run3	generate/STIM_009.jpg
1988.268	1.74	correct	generate	Run3	generate/STIM_010.jpg
1993.585	1.148	incorrect	generate	Run3	generate/STIM_010.jpg
1997.115	1.143	correct	generate	Run3	generate/STIM_010.jpg
2001.297	1.863	correct	generate	Run3	generate/STIM_010.jpg
2006.279	1.464	correct	generate	Run3	generate/STIM_010.jpg
2011.083	1.598	correct	generate	Run3	generate/STIM_011.jpg
2015.956	0.999	correct	generate	Run3	generate/STIM_011.jpg
2020.638	1.523	correct	generate	Run3	generate/STIM_011.jpg
2025.109	1.034	correct	generate	Run3	generate/STIM_011.jpg
2028.848	1.423	correct	generate	Run3	generate/STIM_011.jpg
2033.906	1.077	correct	generate	Run3	generate/STIM_012.jpg
2037.933	0.826	correct	generate	Run3	generate/STIM_012.jpg
2041.44	1.231	correct	generate	Run3	generate/STIM_012.jpg
2045.185	1.73	correct	generate	Run3	generate/STIM_012.jpg
2050.79	0.984	correct	generate	Run3	generate/STIM_012.jpg
2054.728	1.265	incorrect	generate	Run3	generate/STIM_013.jpg
2059.008	1.379	correct	generate	Run3	generate/STIM_013.jpg
2063.708	1.203	incorrect	generate	Run3	generate/STIM_013.jpg
2068.638	0.918	correct	generate	Run3	generate/STIM_013.jpg
2073.425	1.813	correct	generate	Run3	generate/STIM_013.jpg
2078.542	1.171	correct	generate	Run3	generate/STIM_014.jpg
2083.717	1.307	correct	generate	Run3	generate/STIM_014.jpg
2087.879	1.194	correct	generate	Run3	generate/STIM_014.jpg
2092.047	1.671	correct	generate	Run3	generate/STIM_014.jpg
2097.676	1.467	incorrect	generate	Run3	generate/STIM_014.jpg
2102.725	0.998	correct	generate	Run3	generate/STIM_015.jpg
2106.947	1.47	correct	generate	Run3	generate/STIM_015.jpg
2111.997	0.846	correct	generate	Run3	generate/STIM_015.jpg
2116.172	0.876	correct	generate	Run3	generate/STIM_015.jpg
2120.037	0.945	correct	generate	Run3	generate/STIM_015.jpg
2124.114	0.955	incorrect	generate	Run3	generate/STIM_016.jpg
2128.11	1.429	correct	generate	Run3	generate/STIM_016.jpg
2133.039	1.674	correct	generate	Run3	generate/STIM_016.jpg
2136.966	1.054	correct	generate	Run3	generate/STIM_016.jpg
2141.979	1.146	correct	generate	Run3	generate/STIM_016.jpg
2145.681	0.907	correct	generate	Run3	generate/STIM_017.jpg
2149.564	1.628	correct	generate	Run3	generate/STIM_017.jpg
2154.119	0.806	correct	generate	Run3	generate/STIM_017.jpg
2157.22	0.953	correct	generate	Run3	generate/STIM_017.jpg
2162.155	1.495	correct	generate	Run3	generate/STIM_017.jpg
2166.729	1.797	incorrect	generate	Run3	generate/STIM_018.jpg
2171.766	1.69	incorrect	generate	Run3	generate/STIM_018.jpg
2177.226	1.592	correct	generate	Run3	generate/STIM_018.jpg
2181.934	1.799	correct	generate	Run3	generate/STIM_018.jpg
2186.894	1.328	correct	generate	Run3	generate/STIM_018.jpg
2190.437	1.792	correct	generate	Run3	generate/STIM_019.jpg
2195.387	1.609	correct	generate	Run3	generate/STIM_019.jpg
2199.062	0.812	incorrect	generate	Run3	generate/STIM_019.jpg
2202.869	1.612	correct	generate	Run3	generate/STIM_019.jpg
2206.83	1.546	correct	generate	Run3	generate/STIM_019.jpg
2211.67	1.454	correct	generate	Run3	generate/STIM_020.jpg
2216.308	1.663	correct	generate	Run3	generate/STIM_020.jpg
2220.963	1.079	correct	generate	Run3	generate/STIM_020.jpg
2225.408	1.862	correct	generate	Run3	generate/STIM_020.jpg
2231.064	1.556	incorrect	generate	Run3	generate/STIM_020.jpg
2235.036	1.174	correct	generate	Run3	generate/STIM_021.jpg
2239.231	1.97	correct	generate	Run3	generate/STIM_021.jpg
2244.902	1.513	correct	generate	Run3	generate/STIM_021.jpg
2249.355	1.253	correct	generate	Run3	generate/STIM_021.jpg
2254.785	1.945	correct	generate	Run3	generate/STIM_021.jpg
2259.147	1.852	incorrect	generate	Run3	generate/STIM_022.jpg
2265.037	1.253	correct	generate	Run3	generate/STIM_022.jpg
2268.9	0.983	correct	generate	Run3	generate/STIM_022.jpg
2272.539	1.535	correct	generate	Run3	generate/STIM_022.jpg
2276.32	1.227	correct	generate	Run3	generate/STIM_022.jpg
2280.357	1.022	correct	generate	Run3	generate/STIM_023.jpg
2284.204	0.981	correct	generate	Run3	generate/STIM_023.jpg
2288.032	0.999	correct	generate	Run3	generate/STIM_023.jpg
2291.932	1.654	correct	generate	Run3	generate/STIM_023.jpg
2297.182	1.475	correct	generate	Run3	generate/STIM_023.jpg
2302.363	1.041	correct	generate	Run3	generate/STIM_024.jpg
2305.675	1.547	correct	generate	Run3	generate/STIM_024.jpg
2310.636	0.819	correct	generate	Run3	generate/STIM_024.jpg
2315.45	1.938	incorrect	generate	Run3	generate/STIM_024.jpg
2319.618	1.658	correct	generate	Run3	generate/STIM_024.jpg
2324.759	0.565	correct	repeat	Run3	repeat/STIM_000.jpg
2328.033	0.664	correct	repeat	Run3	repeat/STIM_000.jpg
2331.644	0.696	correct	repeat	Run3	repeat/STIM_000.jpg
2336.188	0.613	correct	repeat	Run3	repeat/STIM_000.jpg
2339.575	0.587	correct	repeat	Run3	repeat/STIM_000.jpg
2344.224	0.469	correct	repeat	Run3	repeat/STIM_001.jpg
2348.744	0.52	correct	repeat	Run3	repeat/STIM_001.jpg
2351.412	0.738	correct	repeat	Run3	repeat/STIM_001.jpg
2355.941	0.774	correct	repeat	Run3	repeat/STIM_001.jpg
2359.379	0.535	correct	repeat	Run3	repeat/STIM_001.jpg
2362.793	0.54	correct	repeat	Run3	repeat/STIM_002.jpg
2366.591	0.652	correct	repeat	Run3	repeat/STIM_002.jpg
2371.165	0.698	correct	repeat	Run3	repeat/STIM_002.jpg
2375.307	0.749	correct	repeat	Run3	repeat/STIM_002.jpg
2378.168	0.439	correct	repeat	Run3	repeat/STIM_002.jpg
2380.911	0.523	correct	repeat	Run3	repeat/STIM_003.jpg
2383.845	0.458	correct	repeat	Run3	repeat/STIM_003.jpg
2386.654	0.685	correct	repeat	Run3	repeat/STIM_003.jpg
2391.083	0.503	correct	repeat	Run3	repeat/STIM_003.jpg
2395.296	0.812	correct	repeat	Run3	repeat/STIM_003.jpg
2398.907	0.606	correct	repeat	Run3	repeat/STIM_004.jpg
2402.519	0.588	correct	repeat	Run3	repeat/STIM_004.jpg
2405.474	0.605	correct	repeat	Run3	repeat/STIM_004.jpg
2408.44	0.634	correct	repeat	Run3	repeat/STIM_004.jpg
2412.295	0.723	correct	repeat	Run3	repeat/STIM_004.jpg
2415.286	0.816	correct	repeat	Run3	repeat/STIM_005.jpg
2419.185	0.485	correct	repeat	Run3	repeat/STIM_005.jpg
2421.85	0.778	incorrect	repeat	Run3	repeat/STIM_005.jpg
2425.591	0.675	correct	repeat	Run3	repeat/STIM_005.jpg
2429.313	0.611	correct	repeat	Run3	repeat/STIM_005.jpg
2432.487	0.503	correct	repeat	Run3	repeat/STIM_006.jpg
2436.019	0.518	correct	repeat	Run3	repeat/STIM_006.jpg
2440.564	0.677	correct	repeat	Run3	repeat/STIM_006.jpg
2444.679	0.786	correct	repeat	Run3	repeat/STIM_006.jpg
2448.344	0.884	correct	repeat	Run3	repeat/STIM_006.jpg
2453.14	0.677	correct	repeat	Run3	repeat/STIM_007.jpg
2457.914	0.507	correct	repeat	Run3	repeat/STIM_007.jpg
2462.268	0.778	correct	repeat	Run3	repeat/STIM_007.jpg
2465.788	0.937	correct	repeat	Run3	repeat/STIM_007.jpg
2470.375	0.94	correct	repeat	Run3	repeat/STIM_007.jpg
2473.546	0.709	correct	repeat	Run3	repeat/STIM_008.jpg
2476.781	0.801	correct	repeat	Run3	repeat/STIM_008.jpg
2481.529	0.554	correct	repeat	Run3	repeat/STIM_008.jpg
2485.276	0.636	correct	repeat	Run3	repeat/STIM_008.jpg
2488.926	0.561	correct	repeat	Run3	repeat/STIM_008.jpg
2493.27	0.648	correct	repeat	Run3	repeat/STIM_009.jpg
2497.231	0.703	correct	repeat	Run3	repeat/STIM_009.jpg
2501.568	0.764	correct	repeat	Run3	repeat/STIM_009.jpg
2505.988	0.688	correct	repeat	Run3	repeat/STIM_009.jpg
2510.768	0.682	correct	repeat	Run3	repeat/STIM_009.jpg
2514.577	0.706	correct	repeat	Run3	repeat/STIM_010.jpg
2518.007	0.664	correct	repeat	Run3	repeat/STIM_010.jpg
2522.747	0.708	correct	repeat	Run3	repeat/STIM_010.jpg
2526.401	0.564	correct	repeat	Run3	repeat/STIM_010.jpg
2529.651	0.779	correct	repeat	Run3	repeat/STIM_010.jpg
2533.623	0.454	correct	repeat	Run3	repeat/STIM_011.jpg
2537.677	0.571	correct	repeat	Run3	repeat/STIM_011.jpg
2540.689	0.718	correct	repeat	Run3	repeat/STIM_011.jpg
2544.56	0.543	correct	repeat	Run3	repeat/STIM_011.jpg
2548.988	0.834	correct	repeat	Run3	repeat/STIM_011.jpg
2552.04	0.625	correct	repeat	Run3	repeat/STIM_012.jpg
2555.57	0.587	correct	repeat	Run3	repeat/STIM_012.jpg
2558.671	0.8	correct	repeat	Run3	repeat/STIM_012.jpg
2562.359	0.661	correct	repeat	Run3	repeat/STIM_012.jpg
2565.148	0.691	correct	repeat	Run3	repeat/STIM_012.jpg
2569.422	0.643	correct	repeat	Run3	repeat/STIM_013.jpg
2573.48	0.825	correct	repeat	Run3	repeat/STIM_013.jpg
2576.75	0.749	correct	repeat	Run3	repeat/STIM_013.jpg
2580.332	0.635	correct	repeat	Run3	repeat/STIM_013.jpg
2583.688	0.51	correct	repeat	Run3	repeat/STIM_013.jpg
2587.003	0.584	correct	repeat	Run3	repeat/STIM_014.jpg
2590.613	0.688	correct	repeat	Run3	repeat/STIM_014.jpg
2594.175	0.949	correct	repeat	Run3	repeat/STIM_014.jpg
2598.438	0.62	correct	repeat	Run3	repeat/STIM_014.jpg
2601.298	0.538	correct	repeat	Run3	repeat/STIM_014.jpg
2604.088	1.797	correct	generate	Run4	generate/STIM_000.jpg
2608.349	1.489	correct	generate	Run4	generate/STIM_000.jpg
2612.328	1.366	correct	generate	Run4	generate/STIM_000.jpg
2617.069	1.628	correct	generate	Run4	generate/STIM_000.jpg
2622.461	0.894	correct	generate	Run4	generate/STIM_000.jpg
2626.592	1.34	correct	generate	Run4	generate/STIM_001.jpg
2630.673	1.192	correct	generate	Run4	generate/STIM_001.jpg
2634.899	1.166	correct	generate	Run4	generate/STIM_001.jpg
2638.865	0.894	correct	generate	Run4	generate/STIM_001.jpg
2643.484	1.511	correct	generate	Run4	generate/STIM_001.jpg
2648.013	1.255	correct	generate	Run4	generate/STIM_002.jpg
2652.364	1.947	incorrect	generate	Run4	generate/STIM_002.jpg
2657.539	0.96	correct	generate	Run4	generate/STIM_002.jpg
2662.645	0.764	correct	generate	Run4	generate/STIM_002.jpg
2666.928	1.733	correct	generate	Run4	generate/STIM_002.jpg
2672.862	0.773	correct	generate	Run4	generate/STIM_003.jpg
2676.616	0.763	correct	generate	Run4	generate/STIM_003.jpg
2679.771	0.988	correct	generate	Run4	generate/STIM_003.jpg
2683.489	1.536	correct	generate	Run4	generate/STIM_003.jpg
2687.775	1.431	correct	generate	Run4	generate/STIM_003.jpg
2692.26	1.086	incorrect	generate	Run4	generate/STIM_004.jpg
2697.318	1.618	correct	generate	Run4	generate/STIM_004.jpg
2701.43	0.815	correct	generate	Run4	generate/STIM_004.jpg
2705.968	1.232	correct	generate	Run4	generate/STIM_004.jpg
2710.056	1.386	correct	generate	Run4	generate/STIM_004.jpg
2714.0	1.006	correct	generate	Run4	generate/STIM_005.jpg
2717.653	1.144	correct	generate	Run4	generate/STIM_005.jpg
2722.105	1.265	correct	generate	Run4	generate/STIM_005.jpg
2727.487	1.384	correct	generate	Run4	generate/STIM_005.jpg
2733.038	1.668	correct	generate	Run4	generate/STIM_005.jpg
2738.216	1.66	correct	generate	Run4	generate/STIM_006.jpg
2743.851	0.908	correct	generate	Run4	generate/STIM_006.jpg
2748.558	1.225	correct	generate	Run4	generate/STIM_006.jpg
2752.93	0.873	correct	generate	Run4	generate/STIM_006.jpg
2756.447	1.12	correct	generate	Run4	generate/STIM_006.jpg
2760.926	1.506	correct	generate	Run4	generate/STIM_007.jpg
2765.653	1.92	correct	generate	Run4	generate/STIM_007.jpg
2770.842	1.02	correct	generate	Run4	generate/STIM_007.jpg
2774.699	1.176	correct	generate	Run4	generate/STIM_007.jpg
2779.175	1.213	correct	generate	Run4	generate/STIM_007.jpg
2783.974	1.493	correct	generate	Run4	generate/STIM_008.jpg
2788.064	1.278	correct	generate	Run4	generate/STIM_008.jpg
2792.035	1.053	correct	generate	Run4	generate/STIM_008.jpg
2796.443	0.777	correct	generate	Run4	generate/STIM_008.jpg
2801.27	0.915	correct	generate	Run4	generate/STIM_008.jpg
2805.818	1.298	correct	generate	Run4	generate/STIM_009.jpg
2811.214	1.376	correct	generate	Run4	generate/STIM_009.jpg
2815.945	1.292	correct	generate	Run4	generate/STIM_009.jpg
2819.75	1.514	correct	generate	Run4	generate/STIM_009.jpg
2825.354	1.054	correct	generate	Run4	generate/STIM_009.jpg
2828.921	1.753	correct	generate	Run4	generate/STIM_010.jpg
2833.723	1.145	correct	generate	Run4	generate/STIM_010.jpg
2838.781	1.119	correct	generate	Run4	generate/STIM_010.jpg
2842.602	1.545	correct	generate	Run4	generate/STIM_010.jpg
2847.265	1.823	correct	generate	Run4	generate/STIM_010.jpg
2852.212	1.11	correct	generate	Run4	generate/STIM_011.jpg
2856.032	1.681	correct	generate	Run4	generate/STIM_011.jpg
2860.675	1.615	correct	generate	Run4	generate/STIM_011.jpg
2866.03	1.486	correct	generate	Run4	generate/STIM_011.jpg
2870.758	0.853	correct	generate	Run4	generate/STIM_011.jpg
2873.969	1.325	correct	generate	Run4	generate/STIM_012.jpg
2879.174	1.96	correct	generate	Run4	generate/STIM_012.jpg
2885.168	1.468	correct	generate	Run4	generate/STIM_012.jpg
2889.864	1.475	correct	generate	Run4	generate/STIM_012.jpg
2895.402	0.865	correct	generate	Run4	generate/STIM_012.jpg
2899.6	1.759	correct	generate	Run4	generate/STIM_013.jpg
2904.521	1.765	correct	generate	Run4	generate/STIM_013.jpg
2908.673	1.751	incorrect	generate	Run4	generate/STIM_013.jpg
2914.095	1.145	correct	generate	Run4	generate/STIM_013.jpg
2919.293	1.286	correct	generate	Run4	generate/STIM_013.jpg
2923.443	1.323	correct	generate	Run4	generate/STIM_014.jpg
2927.427	1.044	correct	generate	Run4	generate/STIM_014.jpg
2930.878	1.22	incorrect	generate	Run4	generate/STIM_014.jpg
2934.699	1.018	correct	generate	Run4	generate/STIM_014.jpg
2938.807	0.969	correct	generate	Run4	generate/STIM_014.jpg
2943.199	1.136	correct	generate	Run4	generate/STIM_015.jpg
2946.698	1.604	correct	generate	Run4	generate/STIM_015.jpg
2950.905	1.9	correct	generate	Run4	generate/STIM_015.jpg
2956.437	0.795	correct	generate	Run4	generate/STIM_015.jpg
2961.005	1.487	correct	generate	Run4	generate/STIM_015.jpg
2965.478	1.438	correct	generate	Run4	generate/STIM_016.jpg
2969.561	0.852	correct	generate	Run4	generate/STIM_016.jpg
2972.826	1.322	correct	generate	Run4	generate/STIM_016.jpg
2978.119	1.3	incorrect	generate	Run4	generate/STIM_016.jpg
2982.259	1.649	correct	generate	Run4	generate/STIM_016.jpg
2987.864	1.836	correct	generate	Run4	generate/STIM_017.jpg
2993.685	1.015	correct	generate	Run4	generate/STIM_017.jpg
2997.884	0.963	correct	generate	Run4	generate/STIM_017.jpg
3001.271	1.222	correct	generate	Run4	generate/STIM_017.jpg
3005.487	1.701	correct	generate	Run4	generate/STIM_017.jpg
3010.359	1.682	correct	generate	Run4	generate/STIM_018.jpg
3015.779	1.415	correct	generate	Run4	generate/STIM_018.jpg
3020.907	1.476	correct	generate	Run4	generate/STIM_018.jpg
3024.614	1.16	correct	generate	Run4	generate/STIM_018.jpg
3029.383	1.876	correct	generate	Run4	generate/STIM_018.jpg
3035.297	1.709	correct	generate	Run4	generate/STIM_019.jpg
3039.555	1.502	correct	generate	Run4	generate/STIM_019.jpg
3044.658	1.761	correct	generate	Run4	generate/STIM_019.jpg
3050.457	1.6	correct	generate	Run4	generate/STIM_019.jpg
3055.964	1.416	correct	generate	Run4	generate/STIM_019.jpg
3060.815	1.198	correct	generate	Run4	generate/STIM_020.jpg
3065.517	1.435	correct	generate	Run4	generate/STIM_020.jpg
3070.904	1.456	correct	generate	Run4	generate/STIM_020.jpg
3075.382	1.88	correct	generate	Run4	generate/STIM_020.jpg
3081.029	1.823	correct	generate	Run4	generate/STIM_020.jpg
3085.636	1.848	correct	generate	Run4	generate/STIM_021.jpg
3090.627	1.156	correct	generate	Run4	generate/STIM_021.jpg
3095.37	1.235	correct	generate	Run4	generate/STIM_021.jpg
3099.218	1.686	incorrect	generate	Run4	generate/STIM_021.jpg
3103.498	1.41	correct	generate	Run4	generate/STIM_021.jpg
3107.666	1.42	correct	generate	Run4	generate/STIM_022.jpg
3111.697	1.359	correct	generate	Run4	generate/STIM_022.jpg
3116.56	1.079	correct	generate	Run4	generate/STIM_022.jpg
3121.457	1.078	correct	generate	Run4	generate/STIM_022.jpg
3126.381	0.811	correct	generate	Run4	generate/STIM_022.jpg
3130.415	1.873	correct	generate	Run4	generate/STIM_023.jpg
3134.849	1.16	correct	generate	Run4	generate/STIM_023.jpg
3139.98	1.66	correct	generate	Run4	generate/STIM_023.jpg
3145.523	1.806	correct	generate	Run4	generate/STIM_023.jpg
3150.588	1.648	correct	generate	Run4	generate/STIM_023.jpg
3155.14	1.605	correct	generate	Run4	generate/STIM_024.jpg
3160.195	1.007	correct	generate	Run4	generate/STIM_024.jpg
3163.973	1.391	correct	generate	Run4	generate/STIM_024.jpg
3168.915	1.808	correct	generate	Run4	generate/STIM_024.jpg
3174.542	1.651	correct	generate	Run4	generate/STIM_024.jpg
3178.695	0.529	correct	repeat	Run4	repeat/STIM_000.jpg
3181.918	0.857	correct	repeat	Run4	repeat/STIM_000.jpg
3185.434	0.769	correct	repeat	Run4	repeat/STIM_000.jpg
3189.754	0.609	correct	repeat	Run4	repeat/STIM_000.jpg
3193.185	0.61	correct	repeat	Run4	repeat/STIM_000.jpg
3196.99	0.679	correct	repeat	Run4	repeat/STIM_001.jpg
3201.035	0.974	correct	repeat	Run4	repeat/STIM_001.jpg
3204.746	0.652	correct	repeat	Run4	repeat/STIM_001.jpg
3208.585	0.801	correct	repeat	Run4	repeat/STIM_001.jpg
3212.614	0.89	correct	repeat	Run4	repeat/STIM_001.jpg
3216.295	0.851	correct	repeat	Run4	repeat/STIM_002.jpg
3221.246	0.783	correct	repeat	Run4	repeat/STIM_002.jpg
3225.448	0.509	correct	repeat	Run4	repeat/STIM_002.jpg
3229.308	0.825	correct	repeat	Run4	repeat/STIM_002.jpg
3234.115	0.499	correct	repeat	Run4	repeat/STIM_002.jpg
3238.167	0.804	correct	repeat	Run4	repeat/STIM_003.jpg
3242.786	0.715	correct	repeat	Run4	repeat/STIM_003.jpg
3247.416	0.772	correct	repeat	Run4	repeat/STIM_003.jpg
3252.006	0.623	correct	repeat	Run4	repeat/STIM_003.jpg
3255.468	0.651	correct	repeat	Run4	repeat/STIM_003.jpg
3258.595	0.772	correct	repeat	Run4	repeat/STIM_004.jpg
3262.496	0.769	correct	repeat	Run4	repeat/STIM_004.jpg
3265.854	0.577	correct	repeat	Run4	repeat/STIM_004.jpg
3268.998	0.391	correct	repeat	Run4	repeat/STIM_004.jpg
3271.978	0.614	incorrect	repeat	Run4	repeat/STIM_004.jpg
3276.327	0.687	correct	repeat	Run4	repeat/STIM_005.jpg
3280.091	0.584	correct	repeat	Run4	repeat/STIM_005.jpg
3283.466	0.653	correct	repeat	Run4	repeat/STIM_005.jpg
3287.88	0.697	correct	repeat	Run4	repeat/STIM_005.jpg
3291.407	0.634	correct	repeat	Run4	repeat/STIM_005.jpg
3294.899	0.678	correct	repeat	Run4	repeat/STIM_006.jpg
3297.629	0.761	correct	repeat	Run4	repeat/STIM_006.jpg
3300.624	0.558	correct	repeat	Run4	repeat/STIM_006.jpg
3304.635	0.572	correct	repeat	Run4	repeat/STIM_006.jpg
3307.74	0.847	correct	repeat	Run4	repeat/STIM_006.jpg
3312.429	0.594	correct	repeat	Run4	repeat/STIM_007.jpg
3315.327	0.516	correct	repeat	Run4	repeat/STIM_007.jpg
3319.198	0.894	correct	repeat	Run4	repeat/STIM_007.jpg
3323.86	0.893	correct	repeat	Run4	repeat/STIM_007.jpg
3327.383	0.705	correct	repeat	Run4	repeat/STIM_007.jpg
3331.393	0.704	correct	repeat	Run4	repeat/STIM_008.jpg
3335.799	0.87	correct	repeat	Run4	repeat/STIM_008.jpg
3339.465	0.47	correct	repeat	Run4	repeat/STIM_008.jpg
3342.727	0.716	correct	repeat	Run4	repeat/STIM_008.jpg
3346.622	0.805	correct	repeat	Run4	repeat/STIM_008.jpg
3350.261	0.564	correct	repeat	Run4	repeat/STIM_009.jpg
3353.225	0.535	correct	repeat	Run4	repeat/STIM_009.jpg
3356.284	0.826	correct	repeat	Run4	repeat/STIM_009.jpg
3360.147	0.885	correct	repeat	Run4	repeat/STIM_009.jpg
3363.684	0.426	correct	repeat	Run4	repeat/STIM_009.jpg
3368.157	0.824	correct	repeat	Run4	repeat/STIM_010.jpg
3371.52	0.698	correct	repeat	Run4	repeat/STIM_010.jpg
3375.782	0.885	correct	repeat	Run4	repeat/STIM_010.jpg
3379.812	0.713	correct	repeat	Run4	repeat/STIM_010.jpg
3382.649	0.87	correct	repeat	Run4	repeat/STIM_010.jpg
3386.523	0.92	incorrect	repeat	Run4	repeat/STIM_011.jpg
3390.789	0.778	correct	repeat	Run4	repeat/STIM_011.jpg
3395.483	0.686	correct	repeat	Run4	repeat/STIM_011.jpg
3399.632	0.623	correct	repeat	Run4	repeat/STIM_011.jpg
3403.036	0.841	correct	repeat	Run4	repeat/STIM_011.jpg
3407.455	0.716	incorrect	repeat	Run4	repeat/STIM_012.jpg
3410.725	0.623	correct	repeat	Run4	repeat/STIM_012.jpg
3414.458	0.534	incorrect	repeat	Run4	repeat/STIM_012.jpg
3418.868	0.644	correct	repeat	Run4	repeat/STIM_012.jpg
3422.568	0.564	correct	repeat	Run4	repeat/STIM_012.jpg
3425.879	0.864	correct	repeat	Run4	repeat/STIM_013.jpg
3429.023	0.878	correct	repeat	Run4	repeat/STIM_013.jpg
3433.215	0.65	correct	repeat	Run4	repeat/STIM_013.jpg
3437.447	0.764	correct	repeat	Run4	repeat/STIM_013.jpg
3442.027	0.857	incorrect	repeat	Run4	repeat/STIM_013.jpg
3446.099	0.892	correct	repeat	Run4	repeat/STIM_014.jpg
3449.626	0.808	correct	repeat	Run4	repeat/STIM_014.jpg
3453.17	0.855	correct	repeat	Run4	repeat/STIM_014.jpg
3456.995	0.856	correct	repeat	Run4	repeat/STIM_014.jpg
3460.606	0.485	correct	repeat	Run4	repeat/STIM_014.jpg
