onset	duration	accuracy	trial_type	learning_stage	stimulus
0.0	2.001	correct	generate	Run1	generate/STIM_000.jpg
5.462	2.04	correct	generate	Run1	generate/STIM_000.jpg
10.739	1.404	correct	generate	Run1	generate/STIM_000.jpg
15.226	1.551	correct	generate	Run1	generate/STIM_000.jpg
19.63	1.155	correct	generate	Run1	generate/STIM_000.jpg
23.496	1.908	correct	generate	Run1	generate/STIM_001.jpg
29.416	1.77	correct	generate	Run1	generate/STIM_001.jpg
34.195	2.167	correct	generate	Run1	generate/STIM_001.jpg
39.794	2.055	incorrect	generate	Run1	generate/STIM_001.jpg
44.778	0.977	correct	generate	Run1	generate/STIM_001.jpg
48.912	1.124	correct	generate	Run1	generate/STIM_002.jpg
52.842	1.434	correct	generate	Run1	generate/STIM_002.jpg
56.642	1.588	incorrect	generate	Run1	generate/STIM_002.jpg
60.818	1.536	correct	generate	Run1	generate/STIM_002.jpg
65.415	0.884	correct	generate	Run1	generate/STIM_002.jpg
69.359	2.351	correct	generate	Run1	generate/STIM_003.jpg
75.899	2.193	correct	generate	Run1	generate/STIM_003.jpg
82.373	1.373	correct	generate	Run1	generate/STIM_003.jpg
87.322	1.172	incorrect	generate	Run1	generate/STIM_003.jpg
91.943	1.615	correct	generate	Run1	generate/STIM_003.jpg
97.675	2.111	correct	generate	Run1	generate/STIM_004.jpg
103.105	2.328	correct	generate	Run1	generate/STIM_004.jpg
109.687	2.135	incorrect	generate	Run1	generate/STIM_004.jpg
115.841	1.412	correct	generate	Run1	generate/STIM_004.jpg
121.237	1.544	correct	generate	Run1	generate/STIM_004.jpg
126.058	1.309	incorrect	generate	Run1	generate/STIM_005.jpg
130.205	2.457	correct	generate	Run1	generate/STIM_005.jpg
135.329	2.253	correct	generate	Run1	generate/STIM_005.jpg
141.458	2.103	correct	generate	Run1	generate/STIM_005.jpg
147.678	1.285	incorrect	generate	Run1	generate/STIM_005.jpg
152.043	2.493	correct	generate	Run1	generate/STIM_006.jpg
158.83	2.481	correct	generate	Run1	generate/STIM_006.jpg
164.044	1.233	correct	generate	Run1	generate/STIM_006.jpg
168.267	1.285	correct	generate	Run1	generate/STIM_006.jpg
172.547	1.794	correct	generate	Run1	generate/STIM_006.jpg
178.207	2.296	incorrect	generate	Run1	generate/STIM_007.jpg
182.977	2.434	correct	generate	Run1	generate/STIM_007.jpg
188.507	1.48	incorrect	generate	Run1	generate/STIM_007.jpg
193.449	2.166	incorrect	generate	Run1	generate/STIM_007.jpg
197.992	1.046	correct	generate	Run1	generate/STIM_007.jpg
201.803	1.581	correct	generate	Run1	generate/STIM_008.jpg
205.985	1.929	correct	generate	Run1	generate/STIM_008.jpg
210.702	2.103	correct	generate	Run1	generate/STIM_008.jpg
216.433	1.99	incorrect	generate	Run1	generate/STIM_008.jpg
221.112	1.526	correct	generate	Run1	generate/STIM_008.jpg
225.763	1.652	correct	generate	Run1	generate/STIM_009.jpg
230.93	2.333	correct	generate	Run1	generate/STIM_009.jpg
236.815	1.803	correct	generate	Run1	generate/STIM_009.jpg
242.575	2.114	correct	generate	Run1	generate/STIM_009.jpg
247.714	1.378	incorrect	generate	Run1	generate/STIM_009.jpg
252.754	2.122	correct	generate	Run1	generate/STIM_010.jpg
258.973	1.366	correct	generate	Run1	generate/STIM_010.jpg
263.467	1.852	correct	generate	Run1	generate/STIM_010.jpg
268.377	1.702	correct	generate	Run1	generate/STIM_010.jpg
272.61	0.87	correct	generate	Run1	generate/STIM_010.jpg
276.883	1.308	correct	generate	Run1	generate/STIM_011.jpg
281.257	1.218	incorrect	generate	Run1	generate/STIM_011.jpg
285.624	2.287	correct	generate	Run1	generate/STIM_011.jpg
290.231	1.204	correct	generate	Run1	generate/STIM_011.jpg
295.269	0.917	correct	generate	Run1	generate/STIM_011.jpg
299.591	1.358	correct	generate	Run1	generate/STIM_012.jpg
304.796	1.877	incorrect	generate	Run1	generate/STIM_012.jpg
310.799	2.247	correct	generate	Run1	generate/STIM_012.jpg
315.894	2.081	correct	generate	Run1	generate/STIM_012.jpg
320.553	2.027	correct	generate	Run1	generate/STIM_012.jpg
326.021	2.223	correct	generate	Run1	generate/STIM_013.jpg
331.456	2.21	incorrect	generate	Run1	generate/STIM_013.jpg
336.818	1.83	correct	generate	Run1	generate/STIM_013.jpg
341.177	2.048	correct	generate	Run1	generate/STIM_013.jpg
346.084	1.027	correct	generate	Run1	generate/STIM_013.jpg
350.518	2.34	correct	generate	Run1	generate/STIM_014.jpg
356.911	1.02	correct	generate	Run1	generate/STIM_014.jpg
360.681	1.464	correct	generate	Run1	generate/STIM_014.jpg
364.91	2.125	correct	generate	Run1	generate/STIM_014.jpg
370.087	1.358	correct	generate	Run1	generate/STIM_014.jpg
374.877	1.194	incorrect	generate	Run1	generate/STIM_015.jpg
379.433	1.037	correct	generate	Run1	generate/STIM_015.jpg
384.551	2.34	correct	generate	Run1	generate/STIM_015.jpg
389.979	1.445	correct	generate	Run1	generate/STIM_015.jpg
394.753	1.998	correct	generate	Run1	generate/STIM_015.jpg
400.996	2.516	correct	generate	Run1	generate/STIM_016.jpg
406.107	1.4	correct	generate	Run1	generate/STIM_016.jpg
410.667	1.38	incorrect	generate	Run1	generate/STIM_016.jpg
415.588	1.917	correct	generate	Run1	generate/STIM_016.jpg
420.907	1.34	incorrect	generate	Run1	generate/STIM_016.jpg
425.531	1.603	correct	generate	Run1	generate/STIM_017.jpg
429.388	1.945	correct	generate	Run1	generate/STIM_017.jpg
434.733	1.071	correct	generate	Run1	generate/STIM_017.jpg
439.885	1.146	correct	generate	Run1	generate/STIM_017.jpg
444.014	1.933	correct	generate	Run1	generate/STIM_017.jpg
448.264	1.104	correct	generate	Run1	generate/STIM_018.jpg
452.05	2.437	correct	generate	Run1	generate/STIM_018.jpg
458.333	1.547	correct	generate	Run1	generate/STIM_018.jpg
463.583	1.005	correct	generate	Run1	generate/STIM_018.jpg
467.348	1.061	correct	generate	Run1	generate/STIM_018.jpg
471.569	1.104	correct	generate	Run1	generate/STIM_019.jpg
476.353	1.581	correct	generate	Run1	generate/STIM_019.jpg
480.919	1.95	correct	generate	Run1	generate/STIM_019.jpg
486.812	0.937	correct	generate	Run1	generate/STIM_019.jpg
491.186	1.728	correct	generate	Run1	generate/STIM_019.jpg
496.224	1.582	correct	generate	Run1	generate/STIM_020.jpg
501.151	1.842	correct	generate	Run1	generate/STIM_020.jpg
506.049	1.653	correct	generate	Run1	generate/STIM_020.jpg
510.513	1.014	incorrect	generate	Run1	generate/STIM_020.jpg
514.193	1.809	correct	generate	Run1	generate/STIM_020.jpg
520.123	1.246	incorrect	generate	Run1	generate/STIM_021.jpg
524.962	1.051	correct	generate	Run1	generate/STIM_021.jpg
528.43	1.202	correct	generate	Run1	generate/STIM_021.jpg
533.563	1.387	correct	generate	Run1	generate/STIM_021.jpg
538.929	2.084	correct	generate	Run1	generate/STIM_021.jpg
543.556	1.625	correct	generate	Run1	generate/STIM_022.jpg
549.114	2.129	correct	generate	Run1	generate/STIM_022.jpg
553.799	1.592	correct	generate	Run1	generate/STIM_022.jpg
558.544	0.914	correct	generate	Run1	generate/STIM_022.jpg
562.946	1.719	incorrect	generate	Run1	generate/STIM_022.jpg
568.369	1.675	incorrect	generate	Run1	generate/STIM_023.jpg
574.25	1.897	correct	generate	Run1	generate/STIM_023.jpg
578.497	1.693	incorrect	generate	Run1	generate/STIM_023.jpg
583.842	1.161	correct	generate	Run1	generate/STIM_023.jpg
588.091	1.236	correct	generate	Run1	generate/STIM_023.jpg
592.326	2.422	incorrect	generate	Run1	generate/STIM_024.jpg
598.606	2.088	incorrect	generate	Run1	generate/STIM_024.jpg
603.488	2.162	incorrect	generate	Run1	generate/STIM_024.jpg
608.536	1.387	correct	generate	Run1	generate/STIM_024.jpg
613.814	1.873	correct	generate	Run1	generate/STIM_024.jpg
618.796	0.475	correct	repeat	Run1	repeat/STIM_000.jpg
623.174	0.836	correct	repeat	Run1	repeat/STIM_000.jpg
627.156	0.716	correct	repeat	Run1	repeat/STIM_000.jpg
631.57	0.737	correct	repeat	Run1	repeat/STIM_000.jpg
634.405	0.858	correct	repeat	Run1	repeat/STIM_000.jpg
638.104	0.781	correct	repeat	Run1	repeat/STIM_001.jpg
642.476	0.492	correct	repeat	Run1	repeat/STIM_001.jpg
646.25	0.464	correct	repeat	Run1	repeat/STIM_001.jpg
650.757	0.444	correct	repeat	Run1	repeat/STIM_001.jpg
654.197	0.53	correct	repeat	Run1	repeat/STIM_001.jpg
657.668	0.558	correct	repeat	Run1	repeat/STIM_002.jpg
661.453	0.839	correct	repeat	Run1	repeat/STIM_002.jpg
665.116	0.55	correct	repeat	Run1	repeat/STIM_002.jpg
669.482	0.622	correct	repeat	Run1	repeat/STIM_002.jpg
672.722	0.707	correct	repeat	Run1	repeat/STIM_002.jpg
676.288	0.877	correct	repeat	Run1	repeat/STIM_003.jpg
680.967	0.62	incorrect	repeat	Run1	repeat/STIM_003.jpg
685.338	0.628	correct	repeat	Run1	repeat/STIM_003.jpg
688.21	0.644	incorrect	repeat	Run1	repeat/STIM_003.jpg
692.0	0.456	correct	repeat	Run1	repeat/STIM_003.jpg
696.434	0.752	correct	repeat	Run1	repeat/STIM_004.jpg
699.313	0.6	correct	repeat	Run1	repeat/STIM_004.jpg
702.079	0.719	correct	repeat	Run1	repeat/STIM_004.jpg
706.491	0.557	correct	repeat	Run1	repeat/STIM_004.jpg
709.22	0.868	correct	repeat	Run1	repeat/STIM_004.jpg
712.447	0.652	correct	repeat	Run1	repeat/STIM_005.jpg
715.689	0.607	correct	repeat	Run1	repeat/STIM_005.jpg
719.527	0.642	correct	repeat	Run1	repeat/STIM_005.jpg
722.597	0.786	correct	repeat	Run1	repeat/STIM_005.jpg
725.68	0.771	correct	repeat	Run1	repeat/STIM_005.jpg
730.432	0.629	correct	repeat	Run1	repeat/STIM_006.jpg
734.457	0.496	correct	repeat	Run1	repeat/STIM_006.jpg
738.517	0.684	correct	repeat	Run1	repeat/STIM_006.jpg
742.439	0.53	correct	repeat	Run1	repeat/STIM_006.jpg
745.719	0.675	correct	repeat	Run1	repeat/STIM_006.jpg
748.533	0.588	correct	repeat	Run1	repeat/STIM_007.jpg
751.394	0.449	correct	repeat	Run1	repeat/STIM_007.jpg
754.563	0.576	correct	repeat	Run1	repeat/STIM_007.jpg
757.443	0.636	correct	repeat	Run1	repeat/STIM_007.jpg
762.035	0.774	correct	repeat	Run1	repeat/STIM_007.jpg
765.702	0.583	correct	repeat	Run1	repeat/STIM_008.jpg
769.946	0.471	correct	repeat	Run1	repeat/STIM_008.jpg
772.859	0.84	correct	repeat	Run1	repeat/STIM_008.jpg
777.014	0.848	correct	repeat	Run1	repeat/STIM_008.jpg
780.247	0.884	correct	repeat	Run1	repeat/STIM_008.jpg
784.116	0.829	correct	repeat	Run1	repeat/STIM_009.jpg
788.779	0.591	correct	repeat	Run1	repeat/STIM_009.jpg
792.684	0.749	correct	repeat	Run1	repeat/STIM_009.jpg
795.685	0.521	correct	repeat	Run1	repeat/STIM_009.jpg
798.36	0.839	correct	repeat	Run1	repeat/STIM_009.jpg
802.165	0.677	correct	repeat	Run1	repeat/STIM_010.jpg
806.361	0.482	correct	repeat	Run1	repeat/STIM_010.jpg
809.491	0.631	correct	repeat	Run1	repeat/STIM_010.jpg
812.431	0.647	correct	repeat	Run1	repeat/STIM_010.jpg
817.062	0.655	correct	repeat	Run1	repeat/STIM_010.jpg
821.436	0.718	correct	repeat	Run1	repeat/STIM_011.jpg
825.634	0.712	incorrect	repeat	Run1	repeat/STIM_011.jpg
830.305	0.7	correct	repeat	Run1	repeat/STIM_011.jpg
834.655	0.819	correct	repeat	Run1	repeat/STIM_011.jpg
838.852	0.685	correct	repeat	Run1	repeat/STIM_011.jpg
842.186	0.551	correct	repeat	Run1	repeat/STIM_012.jpg
844.949	0.56	correct	repeat	Run1	repeat/STIM_012.jpg
848.12	0.823	correct	repeat	Run1	repeat/STIM_012.jpg
852.864	0.838	correct	repeat	Run1	repeat/STIM_012.jpg
856.225	0.818	correct	repeat	Run1	repeat/STIM_012.jpg
859.885	0.523	correct	repeat	Run1	repeat/STIM_013.jpg
863.246	0.546	correct	repeat	Run1	repeat/STIM_013.jpg
867.526	0.722	correct	repeat	Run1	repeat/STIM_013.jpg
870.599	0.681	correct	repeat	Run1	repeat/STIM_013.jpg
873.4	0.664	correct	repeat	Run1	repeat/STIM_013.jpg
878.108	0.625	correct	repeat	Run1	repeat/STIM_014.jpg
882.291	0.554	correct	repeat	Run1	repeat/STIM_014.jpg
886.856	0.527	correct	repeat	Run1	repeat/STIM_014.jpg
890.28	0.868	correct	repeat	Run1	repeat/STIM_014.jpg
894.422	0.757	correct	repeat	Run1	repeat/STIM_014.jpg
898.372	0.967	incorrect	generate	Run2	generate/STIM_000.jpg
902.977	2.09	correct	generate	Run2	generate/STIM_000.jpg
907.901	1.536	incorrect	generate	Run2	generate/STIM_000.jpg
912.487	0.913	correct	generate	Run2	generate/STIM_000.jpg
916.324	1.714	correct	generate	Run2	generate/STIM_000.jpg
920.314	2.048	correct	generate	Run2	generate/STIM_001.jpg
926.319	1.456	correct	generate	Run2	generate/STIM_001.jpg
930.271	1.883	correct	generate	Run2	generate/STIM_001.jpg
934.89	1.463	correct	generate	Run2	generate/STIM_001.jpg
940.245	1.111	correct	generate	Run2	generate/STIM_001.jpg
944.108	1.469	correct	generate	Run2	generate/STIM_002.jpg
948.93	1.735	correct	generate	Run2	generate/STIM_002.jpg
954.035	1.509	incorrect	generate	Run2	generate/STIM_002.jpg
958.539	1.321	correct	generate	Run2	generate/STIM_002.jpg
962.622	1.562	incorrect	generate	Run2	generate/STIM_002.jpg
966.772	1.763	correct	generate	Run2	generate/STIM_003.jpg
972.417	1.015	incorrect	generate	Run2	generate/STIM_003.jpg
977.221	1.823	correct	generate	Run2	generate/STIM_003.jpg
983.262	1.658	correct	generate	Run2	generate/STIM_003.jpg
988.413	1.282	correct	generate	Run2	generate/STIM_003.jpg
993.812	1.567	incorrect	generate	Run2	generate/STIM_004.jpg
998.956	1.522	incorrect	generate	Run2	generate/STIM_004.jpg
1003.288	1.793	correct	generate	Run2	generate/STIM_004.jpg
1008.616	1.023	correct	generate	Run2	generate/STIM_004.jpg
1012.622	1.644	correct	generate	Run2	generate/STIM_004.jpg
1017.849	1.292	correct	generate	Run2	generate/STIM_005.jpg
1021.625	2.062	correct	generate	Run2	generate/STIM_005.jpg
1026.571	1.899	correct	generate	Run2	generate/STIM_005.jpg
1031.473	0.859	correct	generate	Run2	generate/STIM_005.jpg
1036.421	1.205	correct	generate	Run2	generate/STIM_005.jpg
1040.745	1.91	correct	generate	Run2	generate/STIM_006.jpg
1046.197	1.552	correct	generate	Run2	generate/STIM_006.jpg
1051.103	1.644	correct	generate	Run2	generate/STIM_006.jpg
1056.86	1.532	correct	generate	Run2	generate/STIM_006.jpg
1062.042	1.062	correct	generate	Run2	generate/STIM_006.jpg
1066.672	1.352	incorrect	generate	Run2	generate/STIM_007.jpg
1072.194	1.637	correct	generate	Run2	generate/STIM_007.jpg
1076.349	1.196	incorrect	generate	Run2	generate/STIM_007.jpg
1080.192	1.852	correct	generate	Run2	generate/STIM_007.jpg
1085.649	0.798	correct	generate	Run2	generate/STIM_007.jpg
1089.611	1.815	incorrect	generate	Run2	generate/STIM_008.jpg
1093.964	2.047	correct	generate	Run2	generate/STIM_008.jpg
1099.478	1.847	correct	generate	Run2	generate/STIM_008.jpg
1105.462	0.855	correct	generate	Run2	generate/STIM_008.jpg
1109.087	1.418	correct	generate	Run2	generate/STIM_008.jpg
1114.346	1.78	incorrect	generate	Run2	generate/STIM_009.jpg
1119.883	1.985	correct	generate	Run2	generate/STIM_009.jpg
1125.371	1.832	incorrect	generate	Run2	generate/STIM_009.jpg
1129.946	1.134	correct	generate	Run2	generate/STIM_009.jpg
1134.287	1.82	correct	generate	Run2	generate/STIM_009.jpg
1139.791	2.031	correct	generate	Run2	generate/STIM_010.jpg
1145.682	1.594	correct	generate	Run2	generate/STIM_010.jpg
1150.872	1.849	incorrect	generate	Run2	generate/STIM_010.jpg
1155.752	1.766	correct	generate	Run2	generate/STIM_010.jpg
1160.171	1.212	correct	generate	Run2	generate/STIM_010.jpg
1164.948	2.102	incorrect	generate	Run2	generate/STIM_011.jpg
1170.482	1.238	correct	generate	Run2	generate/STIM_011.jpg
1174.013	1.768	correct	generate	Run2	generate/STIM_011.jpg
1179.208	1.666	incorrect	generate	Run2	generate/STIM_011.jpg
1183.715	0.933	incorrect	generate	Run2	generate/STIM_011.jpg
1187.587	1.879	incorrect	generate	Run2	generate/STIM_012.jpg
1193.29	1.268	correct	generate	Run2	generate/STIM_012.jpg
1196.939	1.721	correct	generate	Run2	generate/STIM_012.jpg
1202.394	0.973	correct	generate	Run2	generate/STIM_012.jpg
1206.296	1.226	correct	generate	Run2	generate/STIM_012.jpg
1210.695	2.04	correct	generate	Run2	generate/STIM_013.jpg
1215.659	2.057	correct	generate	Run2	generate/STIM_013.jpg
1220.543	0.904	correct	generate	Run2	generate/STIM_013.jpg
1224.832	1.216	correct	generate	Run2	generate/STIM_013.jpg
1229.081	0.976	correct	generate	Run2	generate/STIM_013.jpg
1233.26	0.933	incorrect	generate	Run2	generate/STIM_014.jpg
1237.585	1.126	incorrect	generate	Run2	generate/STIM_014.jpg
1242.469	1.204	correct	generate	Run2	generate/STIM_014.jpg
1247.56	1.739	correct	generate	Run2	generate/STIM_014.jpg
1252.623	1.589	correct	generate	Run2	generate/STIM_014.jpg
1258.312	1.357	correct	generate	Run2	generate/STIM_015.jpg
1263.681	1.282	correct	generate	Run2	generate/STIM_015.jpg
1267.191	1.171	correct	generate	Run2	generate/STIM_015.jpg
1271.419	1.414	correct	generate	Run2	generate/STIM_015.jpg
1276.243	0.955	correct	generate	Run2	generate/STIM_015.jpg
1281.231	1.91	correct	generate	Run2	generate/STIM_016.jpg
1287.158	1.358	correct	generate	Run2	generate/STIM_016.jpg
1292.039	1.841	correct	generate	Run2	generate/STIM_016.jpg
1297.014	1.586	incorrect	generate	Run2	generate/STIM_016.jpg
1301.705	1.637	correct	generate	Run2	generate/STIM_016.jpg
1305.639	1.342	correct	generate	Run2	generate/STIM_017.jpg
1310.535	1.867	incorrect	generate	Run2	generate/STIM_017.jpg
1315.479	0.945	correct	generate	Run2	generate/STIM_017.jpg
1320.211	0.93	correct	generate	Run2	generate/STIM_017.jpg
1324.325	1.088	correct	generate	Run2	generate/STIM_017.jpg
1328.363	1.808	correct	generate	Run2	generate/STIM_018.jpg
1333.698	1.672	correct	generate	Run2	generate/STIM_018.jpg
1339.063	0.894	correct	generate	Run2	generate/STIM_018.jpg
1342.859	1.069	correct	generate	Run2	generate/STIM_018.jpg
1347.58	0.839	correct	generate	Run2	generate/STIM_018.jpg
1350.532	1.933	incorrect	generate	Run2	generate/STIM_019.jpg
1355.049	1.461	incorrect	generate	Run2	generate/STIM_019.jpg
1360.302	0.974	incorrect	generate	Run2	generate/STIM_019.jpg
1364.011	1.011	correct	generate	Run2	generate/STIM_019.jpg
1369.123	1.077	correct	generate	Run2	generate/STIM_019.jpg
1373.473	1.066	correct	generate	Run2	generate/STIM_020.jpg
1377.308	2.078	correct	generate	Run2	generate/STIM_020.jpg
1382.694	1.072	correct	generate	Run2	generate/STIM_020.jpg
1386.763	1.397	correct	generate	Run2	generate/STIM_020.jpg
1391.274	1.308	correct	generate	Run2	generate/STIM_020.jpg
1395.971	0.955	correct	generate	Run2	generate/STIM_021.jpg
1399.485	0.926	correct	generate	Run2	generate/STIM_021.jpg
1403.097	1.81	incorrect	generate	Run2	generate/STIM_021.jpg
1407.384	1.229	correct	generate	Run2	generate/STIM_021.jpg
1410.805	1.168	correct	generate	Run2	generate/STIM_021.jpg
1416.039	1.041	correct	generate	Run2	generate/STIM_022.jpg
1419.288	1.962	correct	generate	Run2	generate/STIM_022.jpg
1425.375	1.487	correct	generate	Run2	generate/STIM_022.jpg
1430.529	1.628	correct	generate	Run2	generate/STIM_022.jpg
1435.473	1.588	correct	generate	Run2	generate/STIM_022.jpg
1439.83	1.819	incorrect	generate	Run2	generate/STIM_023.jpg
1444.351	1.718	correct	generate	Run2	generate/STIM_023.jpg
1448.51	1.746	correct	generate	Run2	generate/STIM_023.jpg
1454.12	0.972	correct	generate	Run2	generate/STIM_023.jpg
1457.323	1.617	correct	generate	Run2	generate/STIM_023.jpg
1461.327	1.167	incorrect	generate	Run2	generate/STIM_024.jpg
1466.129	1.322	correct	generate	Run2	generate/STIM_024.jpg
1471.428	1.273	correct	generate	Run2	generate/STIM_024.jpg
1476.351	1.532	correct	generate	Run2	generate/STIM_024.jpg
1480.501	0.908	correct	generate	Run2	generate/STIM_024.jpg
1483.752	0.67	correct	repeat	Run2	repeat/STIM_000.jpg
1488.339	0.845	correct	repeat	Run2	repeat/STIM_000.jpg
1492.62	0.452	correct	repeat	Run2	repeat/STIM_000.jpg
1495.422	0.488	correct	repeat	Run2	repeat/STIM_000.jpg
1498.828	0.814	correct	repeat	Run2	repeat/STIM_000.jpg
1502.878	0.588	correct	repeat	Run2	repeat/STIM_001.jpg
1506.016	0.682	correct	repeat	Run2	repeat/STIM_001.jpg
1510.266	0.489	correct	repeat	Run2	repeat/STIM_001.jpg
1512.889	0.824	correct	repeat	Run2	repeat/STIM_001.jpg
1516.629	0.456	correct	repeat	Run2	repeat/STIM_001.jpg
1520.922	0.675	correct	repeat	Run2	repeat/STIM_002.jpg
1525.509	0.601	correct	repeat	Run2	repeat/STIM_002.jpg
1528.818	0.482	correct	repeat	Run2	repeat/STIM_002.jpg
1532.516	0.458	correct	repeat	Run2	repeat/STIM_002.jpg
1536.851	0.686	correct	repeat	Run2	repeat/STIM_002.jpg
1539.87	0.852	correct	repeat	Run2	repeat/STIM_003.jpg
1542.888	0.87	correct	repeat	Run2	repeat/STIM_003.jpg
1546.332	0.646	correct	repeat	Run2	repeat/STIM_003.jpg
1549.303	0.451	correct	repeat	Run2	repeat/STIM_003.jpg
1552.596	0.747	correct	repeat	Run2	repeat/STIM_003.jpg
1556.007	0.742	correct	repeat	Run2	repeat/STIM_004.jpg
1559.423	0.714	correct	repeat	Run2	repeat/STIM_004.jpg
1562.904	0.526	correct	repeat	Run2	repeat/STIM_004.jpg
1565.909	0.731	correct	repeat	Run2	repeat/STIM_004.jpg
1569.057	0.627	correct	repeat	Run2	repeat/STIM_004.jpg
1571.907	0.484	correct	repeat	Run2	repeat/STIM_005.jpg
1574.801	0.818	correct	repeat	Run2	repeat/STIM_005.jpg
1579.538	0.466	correct	repeat	Run2	repeat/STIM_005.jpg
1583.027	0.465	correct	repeat	Run2	repeat/STIM_005.jpg
1586.152	0.456	correct	repeat	Run2	repeat/STIM_005.jpg
1588.764	0.753	correct	repeat	Run2	repeat/STIM_006.jpg
1592.618	0.74	correct	repeat	Run2	repeat/STIM_006.jpg
1596.884	0.664	correct	repeat	Run2	repeat/STIM_006.jpg
1600.234	0.537	correct	repeat	Run2	repeat/STIM_006.jpg
1602.957	0.621	correct	repeat	Run2	repeat/STIM_006.jpg
1607.364	0.714	correct	repeat	Run2	repeat/STIM_007.jpg
1611.359	0.504	correct	repeat	Run2	repeat/STIM_007.jpg
1615.856	0.506	correct	repeat	Run2	repeat/STIM_007.jpg
1620.086	0.666	correct	repeat	Run2	repeat/STIM_007.jpg
1623.54	0.792	correct	repeat	Run2	repeat/STIM_007.jpg
1627.661	0.75	correct	repeat	Run2	repeat/STIM_008.jpg
1631.305	0.462	correct	repeat	Run2	repeat/STIM_008.jpg
1635.224	0.717	correct	repeat	Run2	repeat/STIM_008.jpg
1639.196	0.878	correct	repeat	Run2	repeat/STIM_008.jpg
1643.19	0.759	correct	repeat	Run2	repeat/STIM_008.jpg
1646.735	0.458	correct	repeat	Run2	repeat/STIM_009.jpg
1649.924	0.814	incorrect	repeat	Run2	repeat/STIM_009.jpg
1654.737	0.565	correct	repeat	Run2	repeat/STIM_009.jpg
1658.425	0.758	correct	repeat	Run2	repeat/STIM_009.jpg
1661.518	0.765	correct	repeat	Run2	repeat/STIM_009.jpg
1666.153	0.818	correct	repeat	Run2	repeat/STIM_010.jpg
1669.14	0.585	correct	repeat	Run2	repeat/STIM_010.jpg
1673.498	0.729	correct	repeat	Run2	repeat/STIM_010.jpg
1677.816	0.669	correct	repeat	Run2	repeat/STIM_010.jpg
1681.64	0.813	correct	repeat	Run2	repeat/STIM_010.jpg
1685.926	0.659	correct	repeat	Run2	repeat/STIM_011.jpg
1689.52	0.47	correct	repeat	Run2	repeat/STIM_011.jpg
1692.838	0.579	correct	repeat	Run2	repeat/STIM_011.jpg
1697.06	0.704	correct	repeat	Run2	repeat/STIM_011.jpg
1700.018	0.742	correct	repeat	Run2	repeat/STIM_011.jpg
1704.311	0.793	correct	repeat	Run2	repeat/STIM_012.jpg
1707.374	0.761	correct	repeat	Run2	repeat/STIM_012.jpg
1711.727	0.468	correct	repeat	Run2	repeat/STIM_012.jpg
1715.582	0.664	correct	repeat	Run2	repeat/STIM_012.jpg
1719.381	0.604	incorrect	repeat	Run2	repeat/STIM_012.jpg
1724.007	0.616	correct	repeat	Run2	repeat/STIM_013.jpg
1728.326	0.687	correct	repeat	Run2	repeat/STIM_013.jpg
1732.506	0.811	correct	repeat	Run2	repeat/STIM_013.jpg
1736.081	0.793	correct	repeat	Run2	repeat/STIM_013.jpg
1740.724	0.855	correct	repeat	Run2	repeat/STIM_013.jpg
1745.135	0.507	correct	repeat	Run2	repeat/STIM_014.jpg
1748.801	0.841	correct	repeat	Run2	repeat/STIM_014.jpg
1752.556	0.804	correct	repeat	Run2	repeat/STIM_014.jpg
1756.421	0.628	correct	repeat	Run2	repeat/STIM_014.jpg
1760.198	0.883	correct	repeat	Run2	repeat/STIM_014.jpg
1764.059	1.03	incorrect	generate	Run3	generate/STIM_000.jpg
1767.364	1.324	correct	generate	Run3	generate/STIM_000.jpg
1771.245	0.962	correct	generate	Run3	generate/STIM_000.jpg
1774.74	0.772	correct	generate	Run3	generate/STIM_000.jpg
1778.36	1.805	correct	generate	Run3	generate/STIM_000.jpg
1784.164	1.847	correct	generate	Run3	generate/STIM_001.jpg
1788.633	0.788	correct	generate	Run3	generate/STIM_001.jpg
1792.292	1.441	correct	generate	Run3	generate/STIM_001.jpg
1796.777	0.975	correct	generate	Run3	generate/STIM_001.jpg
1801.782	0.854	correct	generate	Run3	generate/STIM_001.jpg
1805.114	1.115	correct	generate	Run3	generate/STIM_002.jpg
1809.764	1.299	correct	generate	Run3	generate/STIM_002.jpg
1814.069	0.939	correct	generate	Run3	generate/STIM_002.jpg
1817.971	1.631	correct	generate	Run3	generate/STIM_002.jpg
1823.614	0.827	correct	generate	Run3	generate/STIM_002.jpg
1827.984	1.094	correct	generate	Run3	generate/STIM_003.jpg
1832.845	0.752	correct	generate	Run3	generate/STIM_003.jpg
1836.197	1.628	correct	generate	Run3	generate/STIM_003.jpg
1840.436	1.598	correct	generate	Run3	generate/STIM_003.jpg
1845.973	1.299	correct	generate	Run3	generate/STIM_003.jpg
1850.122	1.043	incorrect	generate	Run3	generate/STIM_004.jpg
1855.239	1.263	correct	generate	Run3	generate/STIM_004.jpg
1858.753	1.226	correct	generate	Run3	generate/STIM_004.jpg
1864.089	1.349	incorrect	generate	Run3	generate/STIM_004.jpg
1868.741	0.984	correct	generate	Run3	generate/STIM_004.jpg
1873.376	1.477	correct	generate	Run3	generate/STIM_005.jpg
1878.646	1.201	incorrect	generate	Run3	generate/STIM_005.jpg
1882.832	1.472	correct	generate	Run3	generate/STIM_005.jpg
1886.628	0.973	correct	generate	Run3	generate/STIM_005.jpg
1891.068	1.196	correct	generate	Run3	generate/STIM_005.jpg
1896.23	1.262	correct	generate	Run3	generate/STIM_006.jpg
1899.985	1.341	correct	generate	Run3	generate/STIM_006.jpg
1905.108	1.68	correct	generate	Run3	generate/STIM_006.jpg
1910.889	0.945	correct	generate	Run3	generate/STIM_006.jpg
1915.044	1.014	correct	generate	Run3	generate/STIM_006.jpg
1920.033	1.757	correct	generate	Run3	generate/STIM_007.jpg
1925.554	1.14	correct	generate	Run3	generate/STIM_007.jpg
1929.907	1.32	incorrect	generate	Run3	generate/STIM_007.jpg
1934.091	1.341	incorrect	generate	Run3	generate/STIM_007.jpg
1937.952	1.042	correct	generate	Run3	generate/STIM_007.jpg
1941.784	0.914	correct	generate	Run3	generate/STIM_008.jpg
1945.741	1.109	correct	generate	Run3	generate/STIM_008.jpg
1949.647	1.16	correct	generate	Run3	generate/STIM_008.jpg
1954.577	0.794	correct	generate	Run3	generate/STIM_008.jpg
1957.92	1.683	correct	generate	Run3	generate/STIM_008.jpg
1963.692	0.819	correct	generate	Run3	generate/STIM_009.jpg
1968.543	1.335	correct	generate	Run3	generate/STIM_009.jpg
1972.343	0.952	correct	generate	Run3	generate/STIM_009.jpg
1975.673	1.81	correct	generate	Run3	generate/STIM_009.jpg
1981.071	1.594	correct	generate	Run3	generate/STIM_009.jpg
1985.239	1.466	correct	generate	Run3	generate/STIM_010.jpg
1989.094	0.863	correct	generate	Run3	generate/STIM_010.jpg
1992.395	1.499	correct	generate	Run3	generate/STIM_010.jpg
1997.568	0.774	correct	generate	Run3	generate/STIM_010.jpg
2000.711	1.048	correct	generate	Run3	generate/STIM_010.jpg
2004.625	1.181	correct	generate	Run3	generate/STIM_011.jpg
2008.448	1.781	correct	generate	Run3	generate/STIM_011.jpg
2013.136	0.833	correct	generate	Run3	generate/STIM_011.jpg
2017.681	1.341	correct	generate	Run3	generate/STIM_011.jpg
2021.594	0.912	correct	generate	Run3	generate/STIM_011.jpg
2025.877	1.32	correct	generate	Run3	generate/STIM_012.jpg
2030.833	1.719	correct	generate	Run3	generate/STIM_012.jpg
2036.283	0.785	correct	generate	Run3	generate/STIM_012.jpg
2039.933	1.402	correct	generate	Run3	generate/STIM_012.jpg
2044.271	1.702	correct	generate	Run3	generate/STIM_012.jpg
2048.299	1.626	correct	generate	Run3	generate/STIM_013.jpg
2052.952	1.71	correct	generate	Run3	generate/STIM_013.jpg
2058.414	1.408	correct	generate	Run3	generate/STIM_013.jpg
2063.67	1.054	correct	generate	Run3	generate/STIM_013.jpg
2067.234	1.678	correct	generate	Run3	generate/STIM_013.jpg
2072.857	1.493	correct	generate	Run3	generate/STIM_014.jpg
2077.193	1.718	correct	generate	Run3	generate/STIM_014.jpg
2082.776	1.636	correct	generate	Run3	generate/STIM_014.jpg
2086.939	1.488	correct	generate	Run3	generate/STIM_014.jpg
2092.389	1.106	correct	generate	Run3	generate/STIM_014.jpg
2096.019	1.822	correct	generate	Run3	generate/STIM_015.jpg
2100.87	1.672	correct	generate	Run3	generate/STIM_015.jpg
2105.86	0.816	correct	generate	Run3	generate/STIM_015.jpg
2110.333	1.822	correct	generate	Run3	generate/STIM_015.jpg
2116.27	1.345	correct	generate	Run3	generate/STIM_015.jpg
2120.376	1.431	correct	generate	Run3	generate/STIM_016.jpg
2124.158	1.793	correct	generate	Run3	generate/STIM_016.jpg
2130.009	0.777	correct	generate	Run3	generate/STIM_016.jpg
2133.294	0.874	correct	generate	Run3	generate/STIM_016.jpg
2137.92	1.667	correct	generate	Run3	generate/STIM_016.jpg
2143.223	1.263	correct	generate	Run3	generate/STIM_017.jpg
2146.998	1.39	correct	generate	Run3	generate/STIM_017.jpg
2152.529	1.413	correct	generate	Run3	generate/STIM_017.jpg
2156.831	1.228	correct	generate	Run3	generate/STIM_017.jpg
2160.388	1.347	correct	generate	Run3	generate/STIM_017.jpg
2164.009	1.092	correct	generate	Run3	generate/STIM_018.jpg
2167.655	1.392	correct	generate	Run3	generate/STIM_018.jpg
2172.905	1.651	correct	generate	Run3	generate/STIM_018.jpg
2177.427	1.559	correct	generate	Run3	generate/STIM_018.jpg
2182.218	1.037	correct	generate	Run3	generate/STIM_018.jpg
2186.926	0.919	correct	generate	Run3	generate/STIM_019.jpg
2190.179	1.149	incorrect	generate	Run3	generate/STIM_019.jpg
2193.634	0.905	correct	generate	Run3	generate/STIM_019.jpg
2198.458	1.612	correct	generate	Run3	generate/STIM_019.jpg
2202.662	1.673	correct	generate	Run3	generate/STIM_019.jpg
2208.04	1.214	correct	generate	Run3	generate/STIM_020.jpg
2212.667	1.056	correct	generate	Run3	generate/STIM_020.jpg
2217.326	1.109	correct	generate	Run3	generate/STIM_020.jpg
2222.158	1.096	correct	generate	Run3	generate/STIM_020.jpg
2226.067	1.838	correct	generate	Run3	generate/STIM_020.jpg
2231.275	1.705	correct	generate	Run3	generate/STIM_021.jpg
2235.297	1.574	correct	generate	Run3	generate/STIM_021.jpg
2239.946	1.295	correct	generate	Run3	generate/STIM_021.jpg
2245.111	1.684	correct	generate	Run3	generate/STIM_021.jpg
2249.978	1.553	correct	generate	Run3	generate/STIM_021.jpg
2254.007	1.528	correct	generate	Run3	generate/STIM_022.jpg
2257.924	0.834	correct	generate	Run3	generate/STIM_022.jpg
2262.845	1.11	correct	generate	Run3	generate/STIM_022.jpg
2267.764	1.027	correct	generate	Run3	generate/STIM_022.jpg
2271.052	1.29	incorrect	generate	Run3	generate/STIM_022.jpg
2274.836	1.256	correct	generate	Run3	generate/STIM_023.jpg
2280.067	1.734	correct	generate	Run3	generate/STIM_023.jpg
2284.649	1.306	correct	generate	Run3	generate/STIM_023.jpg
2288.399	1.544	correct	generate	Run3	generate/STIM_023.jpg
2292.326	1.622	correct	generate	Run3	generate/STIM_023.jpg
2297.569	1.465	correct	generate	Run3	generate/STIM_024.jpg
2302.979	1.794	correct	generate	Run3	generate/STIM_024.jpg
2307.145	0.915	correct	generate	Run3	generate/STIM_024.jpg
2311.013	1.796	correct	generate	Run3	generate/STIM_024.jpg
2315.052	0.786	correct	generate	Run3	generate/STIM_024.jpg
2318.992	0.448	correct	repeat	Run3	repeat/STIM_000.jpg
2322.766	0.505	correct	repeat	Run3	repeat/STIM_000.jpg
2326.22	0.658	correct	repeat	Run3	repeat/STIM_000.jpg
2328.97	0.663	correct	repeat	Run3	repeat/STIM_000.jpg
2333.549	0.518	correct	repeat	Run3	repeat/STIM_000.jpg
2336.961	0.669	correct	repeat	Run3	repeat/STIM_001.jpg
2340.559	0.635	correct	repeat	Run3	repeat/STIM_001.jpg
2344.786	0.696	incorrect	repeat	Run3	repeat/STIM_001.jpg
2347.654	0.805	correct	repeat	Run3	repeat/STIM_001.jpg
2351.19	0.746	correct	repeat	Run3	repeat/STIM_001.jpg
2355.827	0.791	correct	repeat	Run3	repeat/STIM_002.jpg
2360.114	0.763	correct	repeat	Run3	repeat/STIM_002.jpg
2364.453	0.621	correct	repeat	Run3	repeat/STIM_002.jpg
2367.863	0.75	correct	repeat	Run3	repeat/STIM_002.jpg
2372.237	0.799	correct	repeat	Run3	repeat/STIM_002.jpg
2376.568	0.843	correct	repeat	Run3	repeat/STIM_003.jpg
2381.08	0.469	correct	repeat	Run3	repeat/STIM_003.jpg
2384.813	0.721	correct	repeat	Run3	repeat/STIM_003.jpg
2389.114	0.481	incorrect	repeat	Run3	repeat/STIM_003.jpg
2392.76	0.843	correct	repeat	Run3	repeat/STIM_003.jpg
2397.074	0.805	correct	repeat	Run3	repeat/STIM_004.jpg
2400.568	0.836	correct	repeat	Run3	repeat/STIM_004.jpg
2403.906	0.481	incorrect	repeat	Run3	repeat/STIM_004.jpg
2408.359	0.594	correct	repeat	Run3	repeat/STIM_004.jpg
2412.049	0.69	correct	repeat	Run3	repeat/STIM_004.jpg
2416.539	0.724	correct	repeat	Run3	repeat/STIM_005.jpg
2421.024	0.669	correct	repeat	Run3	repeat/STIM_005.jpg
2425.393	0.5	correct	repeat	Run3	repeat/STIM_005.jpg
2429.756	0.528	correct	repeat	Run3	repeat/STIM_005.jpg
2434.202	0.616	correct	repeat	Run3	repeat/STIM_005.jpg
2437.671	0.643	correct	repeat	Run3	repeat/STIM_006.jpg
2441.397	0.826	correct	repeat	Run3	repeat/STIM_006.jpg
2445.267	0.809	incorrect	repeat	Run3	repeat/STIM_006.jpg
2449.527	0.754	correct	repeat	Run3	repeat/STIM_006.jpg
2454.001	0.773	correct	repeat	Run3	repeat/STIM_006.jpg
2457.643	0.532	correct	repeat	Run3	repeat/STIM_007.jpg
2461.171	0.498	correct	repeat	Run3	repeat/STIM_007.jpg
2464.802	0.642	correct	repeat	Run3	repeat/STIM_007.jpg
2468.567	0.787	correct	repeat	Run3	repeat/STIM_007.jpg
2472.385	0.533	correct	repeat	Run3	repeat/STIM_007.jpg
2475.61	0.538	correct	repeat	Run3	repeat/STIM_008.jpg
2480.145	0.623	correct	repeat	Run3	repeat/STIM_008.jpg
2483.601	0.659	correct	repeat	Run3	repeat/STIM_008.jpg
2486.761	0.498	correct	repeat	Run3	repeat/STIM_008.jpg
2489.933	0.726	correct	repeat	Run3	repeat/STIM_008.jpg
2493.614	0.733	correct	repeat	Run3	repeat/STIM_009.jpg
2496.83	0.486	correct	repeat	Run3	repeat/STIM_009.jpg
2499.811	0.495	incorrect	repeat	Run3	repeat/STIM_009.jpg
2504.238	0.497	correct	repeat	Run3	repeat/STIM_009.jpg
2507.64	0.595	correct	repeat	Run3	repeat/STIM_009.jpg
2511.949	0.534	correct	repeat	Run3	repeat/STIM_010.jpg
2516.296	0.645	correct	repeat	Run3	repeat/STIM_010.jpg
2519.583	0.577	correct	repeat	Run3	repeat/STIM_010.jpg
2522.346	0.536	correct	repeat	Run3	repeat/STIM_010.jpg
2525.106	0.866	correct	repeat	Run3	repeat/STIM_010.jpg
2528.399	0.57	incorrect	repeat	Run3	repeat/STIM_011.jpg
2531.741	0.853	correct	repeat	Run3	repeat/STIM_011.jpg
2534.766	0.502	correct	repeat	Run3	repeat/STIM_011.jpg
2537.445	0.815	correct	repeat	Run3	repeat/STIM_011.jpg
2540.393	0.74	correct	repeat	Run3	repeat/STIM_011.jpg
2545.138	0.644	correct	repeat	Run3	repeat/STIM_012.jpg
2549.665	0.543	correct	repeat	Run3	repeat/STIM_012.jpg
2552.527	0.881	correct	repeat	Run3	repeat/STIM_012.jpg
2555.639	0.738	correct	repeat	Run3	repeat/STIM_012.jpg
2559.513	0.734	correct	repeat	Run3	repeat/STIM_012.jpg
2562.992	0.738	correct	repeat	Run3	repeat/STIM_013.jpg
2566.03	0.584	correct	repeat	Run3	repeat/STIM_013.jpg
2569.624	0.685	correct	repeat	Run3	repeat/STIM_013.jpg
2572.678	0.662	correct	repeat	Run3	repeat/STIM_013.jpg
2576.795	0.767	correct	repeat	Run3	repeat/STIM_013.jpg
2581.655	0.621	correct	repeat	Run3	repeat/STIM_014.jpg
2584.682	0.857	correct	repeat	Run3	repeat/STIM_014.jpg
2589.47	0.742	correct	repeat	Run3	repeat/STIM_014.jpg
2592.684	0.727	correct	repeat	Run3	repeat/STIM_014.jpg
2595.671	0.582	correct	repeat	Run3	repeat/STIM_014.jpg
2599.884	0.977	correct	generate	Run4	generate/STIM_000.jpg
2604.889	1.337	correct	generate	Run4	generate/STIM_000.jpg
2608.775	1.258	correct	generate	Run4	generate/STIM_000.jpg
2612.367	1.668	correct	generate	Run4	generate/STIM_000.jpg
2617.425	1.84	correct	generate	Run4	generate/STIM_000.jpg
2622.862	1.153	correct	generate	Run4	generate/STIM_001.jpg
2627.483	0.747	correct	generate	Run4	generate/STIM_001.jpg
2630.552	1.566	correct	generate	Run4	generate/STIM_001.jpg
2636.26	1.126	correct	generate	Run4	generate/STIM_001.jpg
2640.674	0.863	correct	generate	Run4	generate/STIM_001.jpg
2643.994	1.752	correct	generate	Run4	generate/STIM_002.jpg
2648.191	1.447	correct	generate	Run4	generate/STIM_002.jpg
2653.099	0.946	correct	generate	Run4	generate/STIM_002.jpg
2657.105	1.053	correct	generate	Run4	generate/STIM_002.jpg
2661.951	0.791	incorrect	generate	Run4	generate/STIM_002.jpg
2665.845	0.916	correct	generate	Run4	generate/STIM_003.jpg
2668.996	1.06	correct	generate	Run4	generate/STIM_003.jpg
2673.756	1.39	correct	generate	Run4	generate/STIM_003.jpg
2678.837	1.275	correct	generate	Run4	generate/STIM_003.jpg
2684.166	0.81	correct	generate	Run4	generate/STIM_003.jpg
2687.357	1.14	correct	generate	Run4	generate/STIM_004.jpg
2691.102	0.77	correct	generate	Run4	generate/STIM_004.jpg
2695.418	1.156	correct	generate	Run4	generate/STIM_004.jpg
2699.087	1.791	correct	generate	Run4	generate/STIM_004.jpg
2704.202	0.799	correct	generate	Run4	generate/STIM_004.jpg
2707.686	1.106	correct	generate	Run4	generate/STIM_005.jpg
2712.58	1.667	correct	generate	Run4	generate/STIM_005.jpg
2716.825	1.079	correct	generate	Run4	generate/STIM_005.jpg
2721.304	1.587	correct	generate	Run4	generate/STIM_005.jpg
2725.183	1.481	correct	generate	Run4	generate/STIM_005.jpg
2728.875	1.594	correct	generate	Run4	generate/STIM_006.jpg
2734.428	1.123	correct	generate	Run4	generate/STIM_006.jpg
2739.059	0.981	correct	generate	Run4	generate/STIM_006.jpg
2743.996	0.912	correct	generate	Run4	generate/STIM_006.jpg
2747.135	1.156	correct	generate	Run4	generate/STIM_006.jpg
2750.739	1.579	correct	generate	Run4	generate/STIM_007.jpg
2756.385	0.802	correct	generate	Run4	generate/STIM_007.jpg
2759.874	1.62	correct	generate	Run4	generate/STIM_007.jpg
2764.285	1.316	correct	generate	Run4	generate/STIM_007.jpg
2769.141	0.836	correct	generate	Run4	generate/STIM_007.jpg
2772.179	1.734	correct	generate	Run4	generate/STIM_008.jpg
2776.4	1.151	correct	generate	Run4	generate/STIM_008.jpg
2780.44	1.804	correct	generate	Run4	generate/STIM_008.jpg
2786.178	1.42	correct	generate	Run4	generate/STIM_008.jpg
2790.763	1.241	correct	generate	Run4	generate/STIM_008.jpg
2795.391	1.021	correct	generate	Run4	generate/STIM_009.jpg
2799.044	1.176	correct	generate	Run4	generate/STIM_009.jpg
2803.959	1.529	correct	generate	Run4	generate/STIM_009.jpg
2808.498	0.966	correct	generate	Run4	generate/STIM_009.jpg
2813.566	1.294	correct	generate	Run4	generate/STIM_009.jpg
2818.489	1.512	correct	generate	Run4	generate/STIM_010.jpg
2823.532	1.604	incorrect	generate	Run4	generate/STIM_010.jpg
2829.236	1.085	correct	generate	Run4	generate/STIM_010.jpg
2834.433	1.625	correct	generate	Run4	generate/STIM_010.jpg
2838.936	1.046	correct	generate	Run4	generate/STIM_010.jpg
2842.8	1.117	correct	generate	Run4	generate/STIM_011.jpg
2847.465	0.839	correct	generate	Run4	generate/STIM_011.jpg
2851.837	1.421	correct	generate	Run4	generate/STIM_011.jpg
2857.053	1.137	correct	generate	Run4	generate/STIM_011.jpg
2860.511	0.84	correct	generate	Run4	generate/STIM_011.jpg
2864.618	1.415	correct	generate	Run4	generate/STIM_012.jpg
2868.428	1.476	correct	generate	Run4	generate/STIM_012.jpg
2873.456	0.795	correct	generate	Run4	generate/STIM_012.jpg
2876.791	0.748	correct	generate	Run4	generate/STIM_012.jpg
2881.298	1.312	correct	generate	Run4	generate/STIM_012.jpg
2885.385	1.088	correct	generate	Run4	generate/STIM_013.jpg
2889.942	0.763	correct	generate	Run4	generate/STIM_013.jpg
2893.577	1.404	correct	generate	Run4	generate/STIM_013.jpg
2897.844	1.827	correct	generate	Run4	generate/STIM_013.jpg
2903.251	0.874	correct	generate	Run4	generate/STIM_013.jpg
2906.496	1.111	correct	generate	Run4	generate/STIM_014.jpg
2911.703	0.909	correct	generate	Run4	generate/STIM_014.jpg
2916.176	1.075	correct	generate	Run4	generate/STIM_014.jpg
2919.604	1.59	correct	generate	Run4	generate/STIM_014.jpg
2925.238	1.231	correct	generate	Run4	generate/STIM_014.jpg
2928.776	1.026	correct	generate	Run4	generate/STIM_015.jpg
2933.651	1.555	incorrect	generate	Run4	generate/STIM_015.jpg
2939.036	1.181	correct	generate	Run4	generate/STIM_015.jpg
2943.695	1.58	incorrect	generate	Run4	generate/STIM_015.jpg
2948.517	1.104	correct	generate	Run4	generate/STIM_015.jpg
2953.571	1.282	correct	generate	Run4	generate/STIM_016.jpg
2957.075	0.848	correct	generate	Run4	generate/STIM_016.jpg
2961.79	1.346	correct	generate	Run4	generate/STIM_016.jpg
2965.411	1.794	correct	generate	Run4	generate/STIM_016.jpg
2970.496	1.046	correct	generate	Run4	generate/STIM_016.jpg
2974.296	0.945	correct	generate	Run4	generate/STIM_017.jpg
2977.507	1.762	correct	generate	Run4	generate/STIM_017.jpg
2982.335	1.373	correct	generate	Run4	generate/STIM_017.jpg
2987.176	1.286	correct	generate	Run4	generate/STIM_017.jpg
2990.888	1.302	correct	generate	Run4	generate/STIM_017.jpg
2994.475	0.853	correct	generate	Run4	generate/STIM_018.jpg
2999.41	1.444	correct	generate	Run4	generate/STIM_018.jpg
3004.292	1.782	correct	generate	Run4	generate/STIM_018.jpg
3008.815	1.8	correct	generate	Run4	generate/STIM_018.jpg
3014.236	1.147	correct	generate	Run4	generate/STIM_018.jpg
3019.396	1.024	correct	generate	Run4	generate/STIM_019.jpg
3022.879	1.828	correct	generate	Run4	generate/STIM_019.jpg
3027.467	1.29	correct	generate	Run4	generate/STIM_019.jpg
3032.461	1.215	correct	generate	Run4	generate/STIM_019.jpg
3037.014	1.097	correct	generate	Run4	generate/STIM_019.jpg
3040.906	1.645	correct	generate	Run4	generate/STIM_020.jpg
3045.504	1.639	correct	generate	Run4	generate/STIM_020.jpg
3049.994	1.842	correct	generate	Run4	generate/STIM_020.jpg
3055.258	1.724	correct	generate	Run4	generate/STIM_020.jpg
3060.944	1.345	correct	generate	Run4	generate/STIM_020.jpg
3066.366	1.043	correct	generate	Run4	generate/STIM_021.jpg
3070.98	1.475	correct	generate	Run4	generate/STIM_021.jpg
3074.727	1.364	correct	generate	Run4	generate/STIM_021.jpg
3079.734	1.216	correct	generate	Run4	generate/STIM_021.jpg
3084.441	1.568	correct	generate	Run4	generate/STIM_021.jpg
3089.221	1.446	correct	generate	Run4	generate/STIM_022.jpg
3093.059	1.752	correct	generate	Run4	generate/STIM_022.jpg
3097.917	0.945	correct	generate	Run4	generate/STIM_022.jpg
3102.389	1.157	correct	generate	Run4	generate/STIM_022.jpg
3105.804	1.35	correct	generate	Run4	generate/STIM_022.jpg
3110.419	1.124	correct	generate	Run4	generate/STIM_023.jpg
3114.837	0.839	correct	generate	Run4	generate/STIM_023.jpg
3119.235	1.068	correct	generate	Run4	generate/STIM_023.jpg
3123.213	1.015	correct	generate	Run4	generate/STIM_023.jpg
3126.868	0.883	correct	generate	Run4	generate/STIM_023.jpg
3130.254	1.344	correct	generate	Run4	generate/STIM_024.jpg
3134.252	0.884	correct	generate	Run4	generate/STIM_024.jpg
3137.435	1.575	correct	generate	Run4	generate/STIM_024.jpg
3142.102	1.622	correct	generate	Run4	generate/STIM_024.jpg
3146.608	1.359	correct	generate	Run4	generate/STIM_024.jpg
3150.154	0.734	correct	repeat	Run4	repeat/STIM_000.jpg
3153.199	0.594	correct	repeat	Run4	repeat/STIM_000.jpg
3156.261	0.858	correct	repeat	Run4	repeat/STIM_000.jpg
3160.598	0.611	correct	repeat	Run4	repeat/STIM_000.jpg
3165.224	0.451	correct	repeat	Run4	repeat/STIM_000.jpg
3168.505	0.803	correct	repeat	Run4	repeat/STIM_001.jpg
3172.774	0.825	correct	repeat	Run4	repeat/STIM_001.jpg
3176.269	0.646	correct	repeat	Run4	repeat/STIM_001.jpg
3179.911	0.743	incorrect	repeat	Run4	repeat/STIM_001.jpg
3183.071	0.748	correct	repeat	Run4	repeat/STIM_001.jpg
3187.478	0.465	correct	repeat	Run4	repeat/STIM_002.jpg
3190.969	0.546	incorrect	repeat	Run4	repeat/STIM_002.jpg
3194.901	0.772	correct	repeat	Run4	repeat/STIM_002.jpg
3199.323	0.783	correct	repeat	Run4	repeat/STIM_002.jpg
3203.728	0.72	correct	repeat	Run4	repeat/STIM_002.jpg
3206.954	0.781	correct	repeat	Run4	repeat/STIM_003.jpg
3211.085	0.86	correct	repeat	Run4	repeat/STIM_003.jpg
3215.94	0.644	correct	repeat	Run4	repeat/STIM_003.jpg
3219.206	0.864	correct	repeat	Run4	repeat/STIM_003.jpg
3222.859	0.811	correct	repeat	Run4	repeat/STIM_003.jpg
3225.884	0.761	correct	repeat	Run4	repeat/STIM_004.jpg
3228.917	0.512	correct	repeat	Run4	repeat/STIM_004.jpg
3232.546	0.543	correct	repeat	Run4	repeat/STIM_004.jpg
3236.635	0.778	correct	repeat	Run4	repeat/STIM_004.jpg
3241.368	0.615	correct	repeat	Run4	repeat/STIM_004.jpg
3245.827	0.449	correct	repeat	Run4	repeat/STIM_005.jpg
3250.06	0.562	correct	repeat	Run4	repeat/STIM_005.jpg
3253.203	0.623	correct	repeat	Run4	repeat/STIM_005.jpg
3256.944	0.696	correct	repeat	Run4	repeat/STIM_005.jpg
3260.518	0.754	correct	repeat	Run4	repeat/STIM_005.jpg
3263.705	0.611	correct	repeat	Run4	repeat/STIM_006.jpg
3266.75	0.596	correct	repeat	Run4	repeat/STIM_006.jpg
3270.057	0.451	incorrect	repeat	Run4	repeat/STIM_006.jpg
3274.565	0.83	incorrect	repeat	Run4	repeat/STIM_006.jpg
3279.159	0.854	correct	repeat	Run4	repeat/STIM_006.jpg
3283.692	0.656	correct	repeat	Run4	repeat/STIM_007.jpg
3286.832	0.699	correct	repeat	Run4	repeat/STIM_007.jpg
3289.805	0.762	correct	repeat	Run4	repeat/STIM_007.jpg
3293.301	0.66	correct	repeat	Run4	repeat/STIM_007.jpg
3296.146	0.836	correct	repeat	Run4	repeat/STIM_007.jpg
3299.872	0.801	correct	repeat	Run4	repeat/STIM_008.jpg
3303.214	0.5	correct	repeat	Run4	repeat/STIM_008.jpg
3306.549	0.511	correct	repeat	Run4	repeat/STIM_008.jpg
3309.597	0.465	correct	repeat	Run4	repeat/STIM_008.jpg
3313.942	0.799	incorrect	repeat	Run4	repeat/STIM_008.jpg
3318.561	0.519	correct	repeat	Run4	repeat/STIM_009.jpg
3321.51	0.468	correct	repeat	Run4	repeat/STIM_009.jpg
3325.292	0.827	correct	repeat	Run4	repeat/STIM_009.jpg
3329.905	0.797	correct	repeat	Run4	repeat/STIM_009.jpg
3332.811	0.873	correct	repeat	Run4	repeat/STIM_009.jpg
3335.841	0.527	correct	repeat	Run4	repeat/STIM_010.jpg
3338.592	0.656	correct	repeat	Run4	repeat/STIM_010.jpg
3343.153	0.83	correct	repeat	Run4	repeat/STIM_010.jpg
3346.857	0.81	incorrect	repeat	Run4	repeat/STIM_010.jpg
3350.097	0.685	correct	repeat	Run4	repeat/STIM_010.jpg
3353.531	0.473	correct	repeat	Run4	repeat/STIM_011.jpg
3357.491	0.448	correct	repeat	Run4	repeat/STIM_011.jpg
3360.283	0.451	correct	repeat	Run4	repeat/STIM_011.jpg
3364.101	0.607	correct	repeat	Run4	repeat/STIM_011.jpg
3368.781	0.77	correct	repeat	Run4	repeat/STIM_011.jpg
3372.115	0.716	correct	repeat	Run4	repeat/STIM_012.jpg
3375.396	0.459	correct	repeat	Run4	repeat/STIM_012.jpg
3378.904	0.587	correct	repeat	Run4	repeat/STIM_012.jpg
3383.419	0.548	correct	repeat	Run4	repeat/STIM_012.jpg
3386.638	0.775	correct	repeat	Run4	repeat/STIM_012.jpg
3389.519	0.831	correct	repeat	Run4	repeat/STIM_013.jpg
3394.207	0.717	correct	repeat	Run4	repeat/STIM_013.jpg
3397.607	0.884	correct	repeat	Run4	repeat/STIM_013.jpg
3402.023	0.667	correct	repeat	Run4	repeat/STIM_013.jpg
3405.124	0.668	correct	repeat	Run4	repeat/STIM_013.jpg
3409.304	0.534	correct	repeat	Run4	repeat/STIM_014.jpg
3412.824	0.562	correct	repeat	Run4	repeat/STIM_014.jpg
3415.558	0.71	correct	repeat	Run4	repeat/STIM_014.jpg
3419.146	0.552	correct	repeat	Run4	repeat/STIM_014.jpg
3423.097	0.57	correct	repeat	Run4	repeat/STIM_014.jpg
