onset	duration	response_time_ms	trial_type	learning_stage	stimulus	response_port
0.0	2.237	2236.9	generate	Run1	generate/STIM_000.jpg	99
4.885	1.774	1774.0	generate	Run1	generate/STIM_000.jpg	100
10.156	2.444	2443.6	generate	Run1	generate/STIM_000.jpg	100
16.202	2.282	2281.9	generate	Run1	generate/STIM_000.jpg	100
21.558	2.445	2445.2	generate	Run1	generate/STIM_000.jpg	100
27.778	3.195	3194.6	generate	Run1	generate/STIM_001.jpg	100
33.174	2.305	2305.2	generate	Run1	generate/STIM_001.jpg	99
37.651	2.193	2192.7	generate	Run1	generate/STIM_001.jpg	99
43.442	1.878	1878.5	generate	Run1	generate/STIM_001.jpg	100
48.383	1.687	1687.0	generate	Run1	generate/STIM_001.jpg	99
53.757	1.493	1493.1	generate	Run1	generate/STIM_002.jpg	100
57.609	1.295	1295.2	generate	Run1	generate/STIM_002.jpg	99
61.794	1.441	1441.1	generate	Run1	generate/STIM_002.jpg	100
65.816	2.405	2405.1	generate	Run1	generate/STIM_002.jpg	100
71.762	1.7	1699.8	generate	Run1	generate/STIM_002.jpg	100
76.53	2.477	2477.0	generate	Run1	generate/STIM_003.jpg	99
81.054	1.992	1991.7	generate	Run1	generate/STIM_003.jpg	99
85.676	1.843	1842.8	generate	Run1	generate/STIM_003.jpg	99
90.533	1.994	1994.2	generate	Run1	generate/STIM_003.jpg	100
96.192	1.81	1810.2	generate	Run1	generate/STIM_003.jpg	100
101.505	2.501	2501.4	generate	Run1	generate/STIM_004.jpg	99
107.391	1.676	1676.1	generate	Run1	generate/STIM_004.jpg	100
112.863	2.378	2378.0	generate	Run1	generate/STIM_004.jpg	100
117.874	1.834	1834.2	generate	Run1	generate/STIM_004.jpg	99
122.199	2.144	2143.7	generate	Run1	generate/STIM_004.jpg	99
127.422	2.14	2140.5	generate	Run1	generate/STIM_005.jpg	99
131.654	3.038	3038.4	generate	Run1	generate/STIM_005.jpg	100
138.463	1.791	1790.6	generate	Run1	generate/STIM_005.jpg	99
142.321	2.428	2428.3	generate	Run1	generate/STIM_005.jpg	100
148.249	1.416	1416.3	generate	Run1	generate/STIM_005.jpg	99
153.652	1.45	1449.5	generate	Run1	generate/STIM_006.jpg	99
158.525	2.426	2425.9	generate	Run1	generate/STIM_006.jpg	99
164.049	2.331	2330.7	generate	Run1	generate/STIM_006.jpg	100
169.835	2.669	2668.6	generate	Run1	generate/STIM_006.jpg	100
175.761	1.073	1073.0	generate	Run1	generate/STIM_006.jpg	99
179.859	2.073	2073.3	generate	Run1	generate/STIM_007.jpg	100
184.519	1.466	1466.0	generate	Run1	generate/STIM_007.jpg	100
188.856	2.575	2574.6	generate	Run1	generate/STIM_007.jpg	99
194.59	1.81	1810.5	generate	Run1	generate/STIM_007.jpg	100
199.519	2.454	2453.9	generate	Run1	generate/STIM_007.jpg	100
205.456	2.891	2890.6	generate	Run1	generate/STIM_008.jpg	99
211.907	2.363	2363.2	generate	Run1	generate/STIM_008.jpg	99
216.508	2.267	2267.0	generate	Run1	generate/STIM_008.jpg	99
221.597	1.338	1338.0	generate	Run1	generate/STIM_008.jpg	100
225.888	1.398	1398.3	generate	Run1	generate/STIM_008.jpg	100
229.479	1.735	1734.6	generate	Run1	generate/STIM_009.jpg	99
233.261	2.442	2441.7	generate	Run1	generate/STIM_009.jpg	100
238.336	1.708	1708.3	generate	Run1	generate/STIM_009.jpg	99
243.047	1.436	1435.9	generate	Run1	generate/STIM_009.jpg	99
248.322	1.508	1508.5	generate	Run1	generate/STIM_009.jpg	100
253.622	2.59	2590.2	generate	Run1	generate/STIM_010.jpg	99
258.592	1.62	1620.1	generate	Run1	generate/STIM_010.jpg	99
263.196	2.408	2408.1	generate	Run1	generate/STIM_010.jpg	99
268.08	1.294	1293.8	generate	Run1	generate/STIM_010.jpg	99
272.206	1.102	1101.9	generate	Run1	generate/STIM_010.jpg	100
276.519	1.49	1489.7	generate	Run1	generate/STIM_011.jpg	100
281.543	2.827	2827.2	generate	Run1	generate/STIM_011.jpg	100
287.21	2.771	2770.8	generate	Run1	generate/STIM_011.jpg	99
293.075	1.835	1835.0	generate	Run1	generate/STIM_011.jpg	100
297.871	1.973	1972.6	generate	Run1	generate/STIM_011.jpg	100
301.885	2.417	2416.9	generate	Run1	generate/STIM_012.jpg	100
306.705	2.555	2554.7	generate	Run1	generate/STIM_012.jpg	99
311.554	1.189	1189.2	generate	Run1	generate/STIM_012.jpg	99
315.709	1.183	1182.9	generate	Run1	generate/STIM_012.jpg	99
320.652	2.376	2376.0	generate	Run1	generate/STIM_012.jpg	99
325.821	1.949	1948.9	generate	Run1	generate/STIM_013.jpg	99
330.145	3.001	3001.2	generate	Run1	generate/STIM_013.jpg	100
336.245	2.006	2005.9	generate	Run1	generate/STIM_013.jpg	99
341.623	2.334	2333.6	generate	Run1	generate/STIM_013.jpg	99
347.385	1.945	1945.3	generate	Run1	generate/STIM_013.jpg	99
352.088	2.671	2670.6	generate	Run1	generate/STIM_014.jpg	99
356.781	2.232	2232.5	generate	Run1	generate/STIM_014.jpg	100
361.843	1.458	1457.9	generate	Run1	generate/STIM_014.jpg	100
366.494	2.126	2125.5	generate	Run1	generate/STIM_014.jpg	99
370.827	1.904	1904.1	generate	Run1	generate/STIM_014.jpg	100
375.581	2.332	2332.3	generate	Run1	generate/STIM_015.jpg	99
380.411	2.02	2020.2	generate	Run1	generate/STIM_015.jpg	100
384.935	1.97	1969.6	generate	Run1	generate/STIM_015.jpg	99
390.404	1.923	1923.3	generate	Run1	generate/STIM_015.jpg	99
395.482	2.15	2149.9	generate	Run1	generate/STIM_015.jpg	100
401.158	1.691	1690.6	generate	Run1	generate/STIM_016.jpg	99
405.432	2.145	2145.4	generate	Run1	generate/STIM_016.jpg	99
410.699	2.333	2332.9	generate	Run1	generate/STIM_016.jpg	100
415.047	2.643	2643.3	generate	Run1	generate/STIM_016.jpg	99
420.306	1.794	1793.7	generate	Run1	generate/STIM_016.jpg	100
424.263	2.541	2540.9	generate	Run1	generate/STIM_017.jpg	100
430.02	1.617	1616.9	generate	Run1	generate/STIM_017.jpg	99
434.427	2.342	2341.7	generate	Run1	generate/STIM_017.jpg	100
440.338	1.1	1100.0	generate	Run1	generate/STIM_017.jpg	100
443.742	2.073	2073.4	generate	Run1	generate/STIM_017.jpg	99
448.48	1.849	1848.6	generate	Run1	generate/STIM_018.jpg	100
454.229	2.735	2734.6	generate	Run1	generate/STIM_018.jpg	100
459.917	2.1	2100.5	generate	Run1	generate/STIM_018.jpg	100
464.932	2.591	2591.0	generate	Run1	generate/STIM_018.jpg	99
470.913	1.323	1322.7	generate	Run1	generate/STIM_018.jpg	100
475.944	1.521	1520.8	generate	Run1	generate/STIM_019.jpg	99
479.814	2.04	2039.6	generate	Run1	generate/STIM_019.jpg	99
484.634	2.535	2535.3	generate	Run1	generate/STIM_019.jpg	100
490.315	1.599	1599.0	generate	Run1	generate/STIM_019.jpg	100
494.841	1.275	1274.9	generate	Run1	generate/STIM_019.jpg	99
499.281	1.682	1682.5	generate	Run1	generate/STIM_020.jpg	99
503.78	1.987	1986.7	generate	Run1	generate/STIM_020.jpg	99
509.021	2.751	2751.1	generate	Run1	generate/STIM_020.jpg	99
515.234	1.972	1972.1	generate	Run1	generate/STIM_020.jpg	100
520.228	2.169	2168.7	generate	Run1	generate/STIM_020.jpg	100
525.432	1.394	1393.6	generate	Run1	generate/STIM_021.jpg	99
530.335	2.025	2024.5	generate	Run1	generate/STIM_021.jpg	99
535.586	1.949	1949.0	generate	Run1	generate/STIM_021.jpg	99
539.85	1.494	1494.1	generate	Run1	generate/STIM_021.jpg	100
545.263	1.868	1867.8	generate	Run1	generate/STIM_021.jpg	99
549.255	1.887	1887.0	generate	Run1	generate/STIM_022.jpg	99
553.472	1.453	1453.2	generate	Run1	generate/STIM_022.jpg	100
557.603	1.939	1939.2	generate	Run1	generate/STIM_022.jpg	99
562.476	1.856	1855.5	generate	Run1	generate/STIM_022.jpg	99
567.982	1.104	1104.3	generate	Run1	generate/STIM_022.jpg	99
571.132	2.317	2316.9	generate	Run1	generate/STIM_023.jpg	100
575.891	1.583	1583.3	generate	Run1	generate/STIM_023.jpg	100
580.423	1.548	1548.0	generate	Run1	generate/STIM_023.jpg	99
585.192	1.354	1354.4	generate	Run1	generate/STIM_023.jpg	99
589.311	1.595	1595.2	generate	Run1	generate/STIM_023.jpg	99
593.252	2.533	2533.1	generate	Run1	generate/STIM_024.jpg	100
598.66	1.524	1523.6	generate	Run1	generate/STIM_024.jpg	99
603.396	2.628	2627.7	generate	Run1	generate/STIM_024.jpg	100
608.951	2.467	2466.9	generate	Run1	generate/STIM_024.jpg	99
614.365	2.236	2236.2	generate	Run1	generate/STIM_024.jpg	100
619.659	0.66	659.9	repeat	Run1	repeat/STIM_000.jpg	99
623.472	0.662	661.8	repeat	Run1	repeat/STIM_000.jpg	99
626.165	0.755	755.4	repeat	Run1	repeat/STIM_000.jpg	100
630.187	0.665	665.3	repeat	Run1	repeat/STIM_000.jpg	100
633.358	0.658	657.6	repeat	Run1	repeat/STIM_000.jpg	99
637.116	0.748	748.2	repeat	Run1	repeat/STIM_001.jpg	99
641.235	0.541	540.7	repeat	Run1	repeat/STIM_001.jpg	100
644.497	0.931	931.3	repeat	Run1	repeat/STIM_001.jpg	100
649.353	0.535	535.4	repeat	Run1	repeat/STIM_001.jpg	99
652.088	0.666	666.1	repeat	Run1	repeat/STIM_001.jpg	99
655.994	0.938	938.3	repeat	Run1	repeat/STIM_002.jpg	100
659.715	0.57	570.5	repeat	Run1	repeat/STIM_002.jpg	99
664.197	0.926	925.5	repeat	Run1	repeat/STIM_002.jpg	100
667.25	0.786	785.5	repeat	Run1	repeat/STIM_002.jpg	99
670.566	0.765	764.9	repeat	Run1	repeat/STIM_002.jpg	99
673.774	1.062	1061.8	repeat	Run1	repeat/STIM_003.jpg	99
678.116	0.971	971.1	repeat	Run1	repeat/STIM_003.jpg	100
682.877	0.714	714.3	repeat	Run1	repeat/STIM_003.jpg	100
687.063	0.812	811.6	repeat	Run1	repeat/STIM_003.jpg	99
690.854	0.992	991.9	repeat	Run1	repeat/STIM_003.jpg	100
695.338	0.939	938.9	repeat	Run1	repeat/STIM_004.jpg	100
699.663	0.768	768.3	repeat	Run1	repeat/STIM_004.jpg	99
703.402	0.745	744.9	repeat	Run1	repeat/STIM_004.jpg	99
706.175	0.673	673.1	repeat	Run1	repeat/STIM_004.jpg	100
710.774	0.739	738.6	repeat	Run1	repeat/STIM_004.jpg	99
715.177	0.937	936.6	repeat	Run1	repeat/STIM_005.jpg	100
719.336	0.788	787.5	repeat	Run1	repeat/STIM_005.jpg	100
722.891	0.716	716.2	repeat	Run1	repeat/STIM_005.jpg	100
725.905	0.708	708.4	repeat	Run1	repeat/STIM_005.jpg	100
729.167	0.601	600.8	repeat	Run1	repeat/STIM_005.jpg	100
733.737	0.83	829.9	repeat	Run1	repeat/STIM_006.jpg	99
737.702	0.765	764.9	repeat	Run1	repeat/STIM_006.jpg	100
742.108	0.846	845.5	repeat	Run1	repeat/STIM_006.jpg	99
745.3	0.564	564.1	repeat	Run1	repeat/STIM_006.jpg	99
747.961	0.951	951.3	repeat	Run1	repeat/STIM_006.jpg	99
752.409	0.73	729.9	repeat	Run1	repeat/STIM_007.jpg	100
756.976	0.593	593.3	repeat	Run1	repeat/STIM_007.jpg	99
760.696	0.8	799.9	repeat	Run1	repeat/STIM_007.jpg	100
764.72	1.033	1033.4	repeat	Run1	repeat/STIM_007.jpg	99
768.99	0.538	537.8	repeat	Run1	repeat/STIM_007.jpg	99
771.764	0.917	917.2	repeat	Run1	repeat/STIM_008.jpg	100
775.359	0.886	886.5	repeat	Run1	repeat/STIM_008.jpg	100
779.482	0.614	614.3	repeat	Run1	repeat/STIM_008.jpg	99
783.048	0.678	678.0	repeat	Run1	repeat/STIM_008.jpg	100
785.993	0.884	883.8	repeat	Run1	repeat/STIM_008.jpg	99
789.649	0.597	597.0	repeat	Run1	repeat/STIM_009.jpg	100
792.865	1.033	1033.4	repeat	Run1	repeat/STIM_009.jpg	99
796.205	0.787	786.6	repeat	Run1	repeat/STIM_009.jpg	99
799.716	0.829	829.2	repeat	Run1	repeat/STIM_009.jpg	99
803.609	0.842	842.3	repeat	Run1	repeat/STIM_009.jpg	99
806.48	0.734	733.6	repeat	Run1	repeat/STIM_010.jpg	99
811.204	0.892	892.2	repeat	Run1	repeat/STIM_010.jpg	99
815.586	0.974	973.5	repeat	Run1	repeat/STIM_010.jpg	100
820.436	0.549	548.7	repeat	Run1	repeat/STIM_010.jpg	100
823.546	1.017	1016.7	repeat	Run1	repeat/STIM_010.jpg	99
827.958	1.049	1049.4	repeat	Run1	repeat/STIM_011.jpg	100
831.128	1.02	1020.5	repeat	Run1	repeat/STIM_011.jpg	100
834.56	0.826	826.5	repeat	Run1	repeat/STIM_011.jpg	99
839.084	1.035	1035.4	repeat	Run1	repeat/STIM_011.jpg	100
843.724	0.861	861.0	repeat	Run1	repeat/STIM_011.jpg	100
846.779	0.988	988.0	repeat	Run1	repeat/STIM_012.jpg	99
851.484	0.717	716.8	repeat	Run1	repeat/STIM_012.jpg	99
855.626	1.006	1006.0	repeat	Run1	repeat/STIM_012.jpg	100
858.639	0.81	810.0	repeat	Run1	repeat/STIM_012.jpg	100
862.702	0.691	691.2	repeat	Run1	repeat/STIM_012.jpg	99
865.908	0.958	958.3	repeat	Run1	repeat/STIM_013.jpg	99
869.804	0.645	645.1	repeat	Run1	repeat/STIM_013.jpg	100
872.723	0.601	600.7	repeat	Run1	repeat/STIM_013.jpg	99
875.641	0.831	831.0	repeat	Run1	repeat/STIM_013.jpg	100
880.012	0.766	766.0	repeat	Run1	repeat/STIM_013.jpg	99
883.89	0.538	538.1	repeat	Run1	repeat/STIM_014.jpg	99
888.31	0.789	789.1	repeat	Run1	repeat/STIM_014.jpg	100
891.573	0.665	664.7	repeat	Run1	repeat/STIM_014.jpg	100
895.486	0.949	948.6	repeat	Run1	repeat/STIM_014.jpg	99
899.91	0.535	535.2	repeat	Run1	repeat/STIM_014.jpg	100
902.623	2.234	2233.5	generate	Run2	generate/STIM_000.jpg	99
907.902	1.878	1878.5	generate	Run2	generate/STIM_000.jpg	100
913.13	1.799	1799.1	generate	Run2	generate/STIM_000.jpg	99
916.963	1.017	1016.7	generate	Run2	generate/STIM_000.jpg	100
920.725	1.506	1506.0	generate	Run2	generate/STIM_000.jpg	99
926.089	2.636	2636.4	generate	Run2	generate/STIM_001.jpg	99
930.823	1.978	1977.8	generate	Run2	generate/STIM_001.jpg	100
935.204	1.136	1135.7	generate	Run2	generate/STIM_001.jpg	99
939.933	1.174	1173.7	generate	Run2	generate/STIM_001.jpg	99
943.557	1.568	1567.6	generate	Run2	generate/STIM_001.jpg	100
947.566	2.567	2566.6	generate	Run2	generate/STIM_002.jpg	99
953.495	1.253	1253.1	generate	Run2	generate/STIM_002.jpg	100
957.167	1.681	1681.4	generate	Run2	generate/STIM_002.jpg	99
961.431	1.714	1714.2	generate	Run2	generate/STIM_002.jpg	100
966.572	2.167	2167.1	generate	Run2	generate/STIM_002.jpg	100
971.587	1.215	1215.3	generate	Run2	generate/STIM_003.jpg	99
976.475	1.222	1222.4	generate	Run2	generate/STIM_003.jpg	99
980.991	2.091	2091.3	generate	Run2	generate/STIM_003.jpg	99
985.557	1.421	1420.7	generate	Run2	generate/STIM_003.jpg	100
989.632	1.377	1377.0	generate	Run2	generate/STIM_003.jpg	100
993.897	2.399	2399.4	generate	Run2	generate/STIM_004.jpg	99
999.133	2.409	2409.1	generate	Run2	generate/STIM_004.jpg	99
1004.757	1.651	1650.7	generate	Run2	generate/STIM_004.jpg	100
1009.742	1.177	1177.2	generate	Run2	generate/STIM_004.jpg	99
1013.513	1.344	1344.1	generate	Run2	generate/STIM_004.jpg	99
1017.768	1.615	1615.0	generate	Run2	generate/STIM_005.jpg	99
1021.785	2.241	2240.8	generate	Run2	generate/STIM_005.jpg	99
1026.881	2.066	2066.2	generate	Run2	generate/STIM_005.jpg	100
1031.471	1.957	1957.4	generate	Run2	generate/STIM_005.jpg	100
1036.167	1.21	1209.8	generate	Run2	generate/STIM_005.jpg	99
1040.997	2.094	2093.5	generate	Run2	generate/STIM_006.jpg	100
1046.212	1.858	1858.4	generate	Run2	generate/STIM_006.jpg	100
1051.805	1.282	1282.4	generate	Run2	generate/STIM_006.jpg	100
1055.988	1.364	1363.7	generate	Run2	generate/STIM_006.jpg	100
1060.688	1.533	1532.9	generate	Run2	generate/STIM_006.jpg	99
1065.436	1.779	1779.0	generate	Run2	generate/STIM_007.jpg	100
1069.239	2.006	2005.5	generate	Run2	generate/STIM_007.jpg	100
1075.098	1.26	1259.6	generate	Run2	generate/STIM_007.jpg	99
1079.886	1.845	1844.9	generate	Run2	generate/STIM_007.jpg	100
1085.262	1.949	1949.2	generate	Run2	generate/STIM_007.jpg	99
1090.412	1.476	1475.7	generate	Run2	generate/STIM_008.jpg	100
1095.703	2.205	2205.2	generate	Run2	generate/STIM_008.jpg	100
1100.247	2.364	2363.6	generate	Run2	generate/STIM_008.jpg	99
1106.605	1.421	1420.7	generate	Run2	generate/STIM_008.jpg	99
1111.04	1.402	1402.5	generate	Run2	generate/STIM_008.jpg	100
1115.837	1.526	1525.8	generate	Run2	generate/STIM_009.jpg	99
1119.492	1.654	1654.2	generate	Run2	generate/STIM_009.jpg	99
1124.838	1.449	1449.2	generate	Run2	generate/STIM_009.jpg	100
1128.428	1.935	1935.1	generate	Run2	generate/STIM_009.jpg	100
1132.675	1.151	1151.3	generate	Run2	generate/STIM_009.jpg	99
1136.483	1.794	1793.9	generate	Run2	generate/STIM_010.jpg	99
1141.2	1.38	1380.3	generate	Run2	generate/STIM_010.jpg	100
1146.429	1.002	1002.3	generate	Run2	generate/STIM_010.jpg	100
1150.326	1.608	1608.0	generate	Run2	generate/STIM_010.jpg	99
1154.83	2.223	2222.8	generate	Run2	generate/STIM_010.jpg	100
1159.841	2.228	2228.1	generate	Run2	generate/STIM_011.jpg	99
1164.194	1.135	1135.2	generate	Run2	generate/STIM_011.jpg	99
1167.568	2.089	2089.4	generate	Run2	generate/STIM_011.jpg	100
1172.854	0.918	918.0	generate	Run2	generate/STIM_011.jpg	100
1177.443	1.128	1127.8	generate	Run2	generate/STIM_011.jpg	99
1180.659	2.588	2588.1	generate	Run2	generate/STIM_012.jpg	100
1185.253	1.418	1418.2	generate	Run2	generate/STIM_012.jpg	100
1190.213	1.625	1625.4	generate	Run2	generate/STIM_012.jpg	100
1195.814	1.257	1256.6	generate	Run2	generate/STIM_012.jpg	99
1199.99	1.938	1938.1	generate	Run2	generate/STIM_012.jpg	100
1204.626	2.497	2496.8	generate	Run2	generate/STIM_013.jpg	99
1210.614	2.538	2538.0	generate	Run2	generate/STIM_013.jpg	100
1215.867	2.214	2213.8	generate	Run2	generate/STIM_013.jpg	100
1221.465	1.236	1236.1	generate	Run2	generate/STIM_013.jpg	100
1224.788	2.052	2051.5	generate	Run2	generate/STIM_013.jpg	99
1229.063	2.088	2087.7	generate	Run2	generate/STIM_014.jpg	99
1234.756	2.202	2202.2	generate	Run2	generate/STIM_014.jpg	99
1239.054	1.839	1838.8	generate	Run2	generate/STIM_014.jpg	99
1244.146	1.87	1870.1	generate	Run2	generate/STIM_014.jpg	99
1248.796	2.069	2068.6	generate	Run2	generate/STIM_014.jpg	99
1254.272	2.693	2692.6	generate	Run2	generate/STIM_015.jpg	100
1260.246	2.525	2525.1	generate	Run2	generate/STIM_015.jpg	99
1264.801	2.242	2242.4	generate	Run2	generate/STIM_015.jpg	100
1269.946	2.056	2055.8	generate	Run2	generate/STIM_015.jpg	100
1274.887	1.774	1774.2	generate	Run2	generate/STIM_015.jpg	100
1280.248	2.421	2421.4	generate	Run2	generate/STIM_016.jpg	100
1284.968	2.275	2275.1	generate	Run2	generate/STIM_016.jpg	99
1290.801	1.333	1332.9	generate	Run2	generate/STIM_016.jpg	100
1295.471	1.699	1699.4	generate	Run2	generate/STIM_016.jpg	100
1299.51	2.18	2180.4	generate	Run2	generate/STIM_016.jpg	99
1305.001	1.761	1761.3	generate	Run2	generate/STIM_017.jpg	100
1309.749	2.246	2245.8	generate	Run2	generate/STIM_017.jpg	99
1314.409	2.085	2084.8	generate	Run2	generate/STIM_017.jpg	99
1320.223	1.054	1054.1	generate	Run2	generate/STIM_017.jpg	100
1323.493	2.079	2078.8	generate	Run2	generate/STIM_017.jpg	100
1328.243	2.548	2547.8	generate	Run2	generate/STIM_018.jpg	100
1333.699	1.257	1257.2	generate	Run2	generate/STIM_018.jpg	99
1338.646	2.124	2123.7	generate	Run2	generate/STIM_018.jpg	99
1342.972	1.601	1600.6	generate	Run2	generate/STIM_018.jpg	99
1348.014	1.871	1871.0	generate	Run2	generate/STIM_018.jpg	100
1352.615	2.506	2505.8	generate	Run2	generate/STIM_019.jpg	99
1358.523	1.451	1450.9	generate	Run2	generate/STIM_019.jpg	99
1363.637	2.189	2189.3	generate	Run2	generate/STIM_019.jpg	100
1367.9	2.132	2131.6	generate	Run2	generate/STIM_019.jpg	99
1372.588	1.346	1345.6	generate	Run2	generate/STIM_019.jpg	100
1377.171	1.169	1168.9	generate	Run2	generate/STIM_020.jpg	100
1380.979	2.326	2326.4	generate	Run2	generate/STIM_020.jpg	100
1385.939	1.67	1670.0	generate	Run2	generate/STIM_020.jpg	99
1390.796	1.21	1209.6	generate	Run2	generate/STIM_020.jpg	100
1395.73	1.991	1990.7	generate	Run2	generate/STIM_020.jpg	99
1401.0	1.744	1743.5	generate	Run2	generate/STIM_021.jpg	99
1405.999	1.993	1993.4	generate	Run2	generate/STIM_021.jpg	100
1410.339	1.132	1132.2	generate	Run2	generate/STIM_021.jpg	99
1414.638	0.956	955.8	generate	Run2	generate/STIM_021.jpg	100
1417.616	1.468	1468.5	generate	Run2	generate/STIM_021.jpg	100
1421.533	2.43	2429.9	generate	Run2	generate/STIM_022.jpg	99
1427.578	2.058	2057.9	generate	Run2	generate/STIM_022.jpg	99
1432.821	2.15	2149.7	generate	Run2	generate/STIM_022.jpg	99
1437.37	0.962	962.2	generate	Run2	generate/STIM_022.jpg	99
1440.592	1.55	1550.2	generate	Run2	generate/STIM_022.jpg	100
1445.588	2.047	2047.5	generate	Run2	generate/STIM_023.jpg	99
1450.35	2.33	2329.5	generate	Run2	generate/STIM_023.jpg	100
1456.267	2.358	2358.1	generate	Run2	generate/STIM_023.jpg	100
1462.579	1.033	1033.3	generate	Run2	generate/STIM_023.jpg	99
1467.574	1.001	1001.1	generate	Run2	generate/STIM_023.jpg	100
1471.8	1.882	1882.2	generate	Run2	generate/STIM_024.jpg	100
1477.098	1.496	1495.5	generate	Run2	generate/STIM_024.jpg	100
1481.278	1.369	1369.2	generate	Run2	generate/STIM_024.jpg	99
1486.547	1.477	1476.8	generate	Run2	generate/STIM_024.jpg	100
1491.589	1.732	1732.1	generate	Run2	generate/STIM_024.jpg	99
1495.457	0.676	675.7	repeat	Run2	repeat/STIM_000.jpg	100
1499.864	0.608	607.7	repeat	Run2	repeat/STIM_000.jpg	99
1503.075	0.681	681.1	repeat	Run2	repeat/STIM_000.jpg	99
1505.856	0.987	986.7	repeat	Run2	repeat/STIM_000.jpg	99
1509.656	0.651	651.4	repeat	Run2	repeat/STIM_000.jpg	99
1513.902	0.562	562.4	repeat	Run2	repeat/STIM_001.jpg	99
1516.774	0.727	727.2	repeat	Run2	repeat/STIM_001.jpg	99
1520.883	0.679	678.6	repeat	Run2	repeat/STIM_001.jpg	99
1524.453	0.703	703.0	repeat	Run2	repeat/STIM_001.jpg	99
1527.774	0.889	889.0	repeat	Run2	repeat/STIM_001.jpg	100
1531.071	0.938	937.6	repeat	Run2	repeat/STIM_002.jpg	100
1534.626	1.024	1023.7	repeat	Run2	repeat/STIM_002.jpg	99
1539.482	0.629	628.9	repeat	Run2	repeat/STIM_002.jpg	99
1543.859	0.955	955.1	repeat	Run2	repeat/STIM_002.jpg	99
1547.312	0.937	936.8	repeat	Run2	repeat/STIM_002.jpg	100
1550.365	1.047	1047.4	repeat	Run2	repeat/STIM_003.jpg	99
1553.826	0.765	765.4	repeat	Run2	repeat/STIM_003.jpg	100
1556.993	0.705	704.8	repeat	Run2	repeat/STIM_003.jpg	100
1560.136	1.04	1040.2	repeat	Run2	repeat/STIM_003.jpg	100
1564.44	0.56	560.2	repeat	Run2	repeat/STIM_003.jpg	99
1567.195	0.792	792.4	repeat	Run2	repeat/STIM_004.jpg	100
1570.642	1.032	1031.6	repeat	Run2	repeat/STIM_004.jpg	99
1574.92	0.547	547.3	repeat	Run2	repeat/STIM_004.jpg	99
1578.33	0.882	882.2	repeat	Run2	repeat/STIM_004.jpg	99
1581.448	0.619	618.7	repeat	Run2	repeat/STIM_004.jpg	99
1584.759	1.046	1045.8	repeat	Run2	repeat/STIM_005.jpg	99
1589.537	0.657	657.3	repeat	Run2	repeat/STIM_005.jpg	99
1593.244	0.661	661.4	repeat	Run2	repeat/STIM_005.jpg	100
1597.468	0.699	699.4	repeat	Run2	repeat/STIM_005.jpg	100
1600.828	0.586	585.6	repeat	Run2	repeat/STIM_005.jpg	100
1604.059	0.97	969.7	repeat	Run2	repeat/STIM_006.jpg	99
1607.051	0.747	746.7	repeat	Run2	repeat/STIM_006.jpg	100
1611.458	0.648	648.5	repeat	Run2	repeat/STIM_006.jpg	100
1614.895	0.934	933.9	repeat	Run2	repeat/STIM_006.jpg	100
1618.722	0.817	816.7	repeat	Run2	repeat/STIM_006.jpg	99
1623.219	0.627	626.7	repeat	Run2	repeat/STIM_007.jpg	100
1626.047	0.741	741.3	repeat	Run2	repeat/STIM_007.jpg	100
1629.586	0.604	604.0	repeat	Run2	repeat/STIM_007.jpg	100
1632.721	1.043	1042.8	repeat	Run2	repeat/STIM_007.jpg	99
1637.157	0.917	917.0	repeat	Run2	repeat/STIM_007.jpg	99
1640.218	1.035	1035.4	repeat	Run2	repeat/STIM_008.jpg	100
1644.949	1.033	1033.0	repeat	Run2	repeat/STIM_008.jpg	100
1648.898	0.656	656.3	repeat	Run2	repeat/STIM_008.jpg	99
1652.951	0.554	554.1	repeat	Run2	repeat/STIM_008.jpg	100
1656.958	0.951	951.2	repeat	Run2	repeat/STIM_008.jpg	100
1660.867	0.595	595.0	repeat	Run2	repeat/STIM_009.jpg	99
1664.956	1.02	1019.7	repeat	Run2	repeat/STIM_009.jpg	100
1669.11	0.99	990.4	repeat	Run2	repeat/STIM_009.jpg	99
1673.123	0.87	870.0	repeat	Run2	repeat/STIM_009.jpg	99
1676.815	0.957	956.6	repeat	Run2	repeat/STIM_009.jpg	99
1680.496	0.853	853.3	repeat	Run2	repeat/STIM_010.jpg	99
1684.764	0.614	613.9	repeat	Run2	repeat/STIM_010.jpg	100
1689.147	0.718	718.0	repeat	Run2	repeat/STIM_010.jpg	100
1691.884	0.71	709.5	repeat	Run2	repeat/STIM_010.jpg	99
1695.937	0.705	704.7	repeat	Run2	repeat/STIM_010.jpg	100
1699.468	0.54	540.0	repeat	Run2	repeat/STIM_011.jpg	100
1702.096	0.66	659.7	repeat	Run2	repeat/STIM_011.jpg	99
1706.386	0.615	614.8	repeat	Run2	repeat/STIM_011.jpg	99
1709.133	0.711	710.8	repeat	Run2	repeat/STIM_011.jpg	100
1712.063	0.829	829.2	repeat	Run2	repeat/STIM_011.jpg	99
1715.06	0.878	877.5	repeat	Run2	repeat/STIM_012.jpg	99
1718.293	0.63	629.7	repeat	Run2	repeat/STIM_012.jpg	100
1721.167	0.62	619.6	repeat	Run2	repeat/STIM_012.jpg	100
1725.242	0.549	549.2	repeat	Run2	repeat/STIM_012.jpg	99
1729.626	1.041	1041.4	repeat	Run2	repeat/STIM_012.jpg	99
1734.581	0.996	996.4	repeat	Run2	repeat/STIM_013.jpg	99
1738.719	0.868	868.3	repeat	Run2	repeat/STIM_013.jpg	99
1741.759	1.037	1037.1	repeat	Run2	repeat/STIM_013.jpg	99
1746.296	0.965	965.4	repeat	Run2	repeat/STIM_013.jpg	100
1750.419	0.587	587.1	repeat	Run2	repeat/STIM_013.jpg	99
1753.977	0.679	678.7	repeat	Run2	repeat/STIM_014.jpg	100
1757.724	0.534	534.0	repeat	Run2	repeat/STIM_014.jpg	100
1761.833	0.709	708.8	repeat	Run2	repeat/STIM_014.jpg	99
1764.698	1.011	1010.6	repeat	Run2	repeat/STIM_014.jpg	100
1768.462	0.718	718.5	repeat	Run2	repeat/STIM_014.jpg	99
1771.355	1.51	1510.2	generate	Run3	generate/STIM_000.jpg	99
1774.914	1.114	1114.0	generate	Run3	generate/STIM_000.jpg	99
1778.388	1.45	1450.5	generate	Run3	generate/STIM_000.jpg	99
1782.594	1.295	1294.9	generate	Run3	generate/STIM_000.jpg	100
1787.693	2.158	2158.3	generate	Run3	generate/STIM_000.jpg	100
1792.365	1.118	1117.7	generate	Run3	generate/STIM_001.jpg	99
1796.197	2.059	2059.3	generate	Run3	generate/STIM_001.jpg	99
1802.024	1.924	1923.7	generate	Run3	generate/STIM_001.jpg	99
1806.432	2.107	2106.6	generate	Run3	generate/STIM_001.jpg	100
1811.715	1.918	1917.8	generate	Run3	generate/STIM_001.jpg	100
1817.3	1.081	1081.1	generate	Run3	generate/STIM_002.jpg	99
1821.171	2.103	2102.8	generate	Run3	generate/STIM_002.jpg	99
1826.616	1.482	1482.2	generate	Run3	generate/STIM_002.jpg	100
1831.466	0.962	962.1	generate	Run3	generate/STIM_002.jpg	100
1835.098	1.934	1934.3	generate	Run3	generate/STIM_002.jpg	99
1840.126	1.861	1860.9	generate	Run3	generate/STIM_003.jpg	100
1844.089	1.998	1998.1	generate	Run3	generate/STIM_003.jpg	100
1849.051	1.827	1826.6	generate	Run3	generate/STIM_003.jpg	100
1852.925	1.214	1213.5	generate	Run3	generate/STIM_003.jpg	100
1857.246	1.849	1849.4	generate	Run3	generate/STIM_003.jpg	100
1862.88	1.995	1995.1	generate	Run3	generate/STIM_004.jpg	99
1867.448	0.91	909.6	generate	Run3	generate/STIM_004.jpg	100
1870.719	1.777	1777.0	generate	Run3	generate/STIM_004.jpg	100
1874.898	1.264	1264.5	generate	Run3	generate/STIM_004.jpg	99
1878.605	1.25	1249.5	generate	Run3	generate/STIM_004.jpg	100
1882.927	1.508	1507.8	generate	Run3	generate/STIM_005.jpg	100
1887.77	1.935	1934.9	generate	Run3	generate/STIM_005.jpg	99
1893.271	1.249	1249.1	generate	Run3	generate/STIM_005.jpg	100
1897.59	1.198	1197.5	generate	Run3	generate/STIM_005.jpg	100
1901.816	1.768	1767.7	generate	Run3	generate/STIM_005.jpg	99
1906.011	2.226	2225.7	generate	Run3	generate/STIM_006.jpg	99
1911.31	1.279	1279.1	generate	Run3	generate/STIM_006.jpg	99
1915.144	1.007	1006.7	generate	Run3	generate/STIM_006.jpg	100
1918.238	1.85	1849.5	generate	Run3	generate/STIM_006.jpg	99
1922.983	1.61	1609.5	generate	Run3	generate/STIM_006.jpg	99
1927.752	1.054	1053.8	generate	Run3	generate/STIM_007.jpg	99
1931.79	0.972	971.6	generate	Run3	generate/STIM_007.jpg	99
1935.676	1.004	1003.9	generate	Run3	generate/STIM_007.jpg	99
1940.258	2.005	2004.5	generate	Run3	generate/STIM_007.jpg	99
1945.498	1.406	1406.0	generate	Run3	generate/STIM_007.jpg	100
1949.716	1.404	1403.7	generate	Run3	generate/STIM_008.jpg	99
1954.542	1.545	1544.6	generate	Run3	generate/STIM_008.jpg	99
1958.137	2.165	2164.7	generate	Run3	generate/STIM_008.jpg	100
1963.845	2.185	2185.2	generate	Run3	generate/STIM_008.jpg	100
1969.592	1.702	1702.3	generate	Run3	generate/STIM_008.jpg	99
1974.349	1.305	1304.6	generate	Run3	generate/STIM_009.jpg	100
1978.265	1.132	1131.6	generate	Run3	generate/STIM_009.jpg	100
1981.433	1.132	1131.5	generate	Run3	generate/STIM_009.jpg	100
1984.66	1.39	1390.3	generate	Run3	generate/STIM_009.jpg	99
1989.805	1.915	1915.1	generate	Run3	generate/STIM_009.jpg	99
1995.272	2.152	2152.5	generate	Run3	generate/STIM_010.jpg	99
2001.016	2.112	2111.5	generate	Run3	generate/STIM_010.jpg	99
2005.882	1.512	1511.8	generate	Run3	generate/STIM_010.jpg	100
2009.439	0.948	947.5	generate	Run3	generate/STIM_010.jpg	99
2013.738	1.296	1296.0	generate	Run3	generate/STIM_010.jpg	100
2018.47	2.064	2063.9	generate	Run3	generate/STIM_011.jpg	99
2022.949	1.687	1687.2	generate	Run3	generate/STIM_011.jpg	99
2027.624	1.133	1133.0	generate	Run3	generate/STIM_011.jpg	100
2031.47	0.996	995.8	generate	Run3	generate/STIM_011.jpg	100
2035.489	1.288	1288.4	generate	Run3	generate/STIM_011.jpg	99
2040.173	1.542	1542.0	generate	Run3	generate/STIM_012.jpg	99
2045.36	1.592	1592.0	generate	Run3	generate/STIM_012.jpg	100
2050.228	1.627	1627.2	generate	Run3	generate/STIM_012.jpg	99
2054.151	1.127	1126.6	generate	Run3	generate/STIM_012.jpg	99
2058.901	1.047	1047.2	generate	Run3	generate/STIM_012.jpg	99
2063.548	1.687	1687.4	generate	Run3	generate/STIM_013.jpg	100
2068.211	1.698	1698.3	generate	Run3	generate/STIM_013.jpg	99
2072.912	1.96	1960.1	generate	Run3	generate/STIM_013.jpg	100
2078.686	1.327	1327.2	generate	Run3	generate/STIM_013.jpg	100
2082.4	1.532	1531.6	generate	Run3	generate/STIM_013.jpg	100
2087.519	0.955	954.6	generate	Run3	generate/STIM_014.jpg	100
2091.336	1.636	1635.7	generate	Run3	generate/STIM_014.jpg	99
2096.948	1.752	1751.5	generate	Run3	generate/STIM_014.jpg	100
2102.088	1.516	1516.2	generate	Run3	generate/STIM_014.jpg	99
2107.024	2.007	2007.2	generate	Run3	generate/STIM_014.jpg	100
2111.168	1.589	1588.9	generate	Run3	generate/STIM_015.jpg	99
2116.25	1.237	1236.7	generate	Run3	generate/STIM_015.jpg	100
2120.877	2.226	2226.0	generate	Run3	generate/STIM_015.jpg	100
2125.21	1.732	1732.2	generate	Run3	generate/STIM_015.jpg	100
2129.396	1.345	1344.7	generate	Run3	generate/STIM_015.jpg	99
2132.822	2.067	2066.7	generate	Run3	generate/STIM_016.jpg	99
2138.435	1.954	1954.5	generate	Run3	generate/STIM_016.jpg	99
2142.778	1.028	1028.2	generate	Run3	generate/STIM_016.jpg	100
2146.832	2.12	2120.4	generate	Run3	generate/STIM_016.jpg	99
2151.349	1.358	1358.0	generate	Run3	generate/STIM_016.jpg	99
2155.202	1.417	1416.9	generate	Run3	generate/STIM_017.jpg	100
2159.153	2.138	2137.6	generate	Run3	generate/STIM_017.jpg	100
2163.291	1.146	1146.0	generate	Run3	generate/STIM_017.jpg	99
2166.872	1.256	1255.6	generate	Run3	generate/STIM_017.jpg	100
2171.548	1.617	1617.1	generate	Run3	generate/STIM_017.jpg	99
2176.743	1.53	1529.9	generate	Run3	generate/STIM_018.jpg	99
2181.222	1.386	1386.5	generate	Run3	generate/STIM_018.jpg	100
2185.876	1.532	1531.9	generate	Run3	generate/STIM_018.jpg	99
2189.761	1.086	1085.6	generate	Run3	generate/STIM_018.jpg	100
2193.79	1.804	1804.1	generate	Run3	generate/STIM_018.jpg	100
2198.858	1.521	1521.3	generate	Run3	generate/STIM_019.jpg	100
2203.784	1.84	1839.8	generate	Run3	generate/STIM_019.jpg	100
2207.974	1.092	1092.0	generate	Run3	generate/STIM_019.jpg	99
2212.753	2.074	2073.9	generate	Run3	generate/STIM_019.jpg	99
2216.971	1.154	1154.3	generate	Run3	generate/STIM_019.jpg	100
2220.445	1.773	1772.6	generate	Run3	generate/STIM_020.jpg	100
2225.458	1.653	1652.7	generate	Run3	generate/STIM_020.jpg	100
2229.423	1.824	1824.4	generate	Run3	generate/STIM_020.jpg	99
2234.329	2.154	2153.9	generate	Run3	generate/STIM_020.jpg	99
2238.65	1.298	1298.2	generate	Run3	generate/STIM_020.jpg	100
2242.147	1.693	1692.7	generate	Run3	generate/STIM_021.jpg	99
2247.018	1.267	1266.9	generate	Run3	generate/STIM_021.jpg	100
2251.111	1.229	1228.9	generate	Run3	generate/STIM_021.jpg	100
2255.643	1.691	1691.3	generate	Run3	generate/STIM_021.jpg	100
2260.596	1.49	1489.6	generate	Run3	generate/STIM_021.jpg	99
2265.206	2.038	2037.5	generate	Run3	generate/STIM_022.jpg	99
2269.733	1.11	1110.1	generate	Run3	generate/STIM_022.jpg	99
2273.042	1.738	1737.9	generate	Run3	generate/STIM_022.jpg	100
2278.051	2.037	2037.2	generate	Run3	generate/STIM_022.jpg	100
2283.89	1.153	1153.3	generate	Run3	generate/STIM_022.jpg	99
2288.908	1.264	1263.5	generate	Run3	generate/STIM_023.jpg	99
2293.258	1.427	1426.8	generate	Run3	generate/STIM_023.jpg	99
2296.932	2.053	2053.4	generate	Run3	generate/STIM_023.jpg	99
2302.592	1.393	1392.6	generate	Run3	generate/STIM_023.jpg	100
2306.699	1.906	1906.1	generate	Run3	generate/STIM_023.jpg	99
2310.721	1.479	1479.1	generate	Run3	generate/STIM_024.jpg	100
2314.546	1.872	1872.1	generate	Run3	generate/STIM_024.jpg	99
2320.184	2.206	2205.9	generate	Run3	generate/STIM_024.jpg	99
2325.469	1.272	1272.1	generate	Run3	generate/STIM_024.jpg	100
2329.881	1.924	1924.5	generate	Run3	generate/STIM_024.jpg	100
2335.153	0.554	554.3	repeat	Run3	repeat/STIM_000.jpg	99
2338.613	0.998	998.2	repeat	Run3	repeat/STIM_000.jpg	99
2341.929	0.653	653.2	repeat	Run3	repeat/STIM_000.jpg	100
2346.492	0.98	979.8	repeat	Run3	repeat/STIM_000.jpg	99
2349.811	0.836	835.6	repeat	Run3	repeat/STIM_000.jpg	99
2353.169	1.018	1018.4	repeat	Run3	repeat/STIM_001.jpg	100
2357.086	0.811	811.0	repeat	Run3	repeat/STIM_001.jpg	99
2360.832	1.042	1042.1	repeat	Run3	repeat/STIM_001.jpg	100
2364.069	0.6	600.2	repeat	Run3	repeat/STIM_001.jpg	99
2367.462	0.617	616.7	repeat	Run3	repeat/STIM_001.jpg	100
2370.129	1.026	1026.0	repeat	Run3	repeat/STIM_002.jpg	100
2374.719	0.85	849.6	repeat	Run3	repeat/STIM_002.jpg	100
2378.47	0.72	719.7	repeat	Run3	repeat/STIM_002.jpg	99
2381.895	0.593	592.7	repeat	Run3	repeat/STIM_002.jpg	99
2384.977	0.839	838.7	repeat	Run3	repeat/STIM_002.jpg	99
2388.219	0.615	615.2	repeat	Run3	repeat/STIM_003.jpg	99
2390.932	0.957	956.7	repeat	Run3	repeat/STIM_003.jpg	100
2395.104	0.763	762.7	repeat	Run3	repeat/STIM_003.jpg	99
2399.562	0.908	907.6	repeat	Run3	repeat/STIM_003.jpg	100
2404.146	0.648	648.3	repeat	Run3	repeat/STIM_003.jpg	100
2407.13	1.039	1038.8	repeat	Run3	repeat/STIM_004.jpg	100
2411.59	0.75	749.6	repeat	Run3	repeat/STIM_004.jpg	99
2414.785	0.76	759.5	repeat	Run3	repeat/STIM_004.jpg	99
2418.425	0.757	756.7	repeat	Run3	repeat/STIM_004.jpg	100
2422.523	1.014	1014.4	repeat	Run3	repeat/STIM_004.jpg	100
2427.536	0.625	625.1	repeat	Run3	repeat/STIM_005.jpg	100
2431.901	0.536	536.4	repeat	Run3	repeat/STIM_005.jpg	99
2435.863	0.629	629.2	repeat	Run3	repeat/STIM_005.jpg	99
2440.229	0.922	921.5	repeat	Run3	repeat/STIM_005.jpg	99
2443.936	0.812	812.5	repeat	Run3	repeat/STIM_005.jpg	100
2447.405	0.617	617.1	repeat	Run3	repeat/STIM_006.jpg	100
2450.914	1.05	1050.2	repeat	Run3	repeat/STIM_006.jpg	99
2455.503	0.738	737.9	repeat	Run3	repeat/STIM_006.jpg	100
2459.464	0.802	801.6	repeat	Run3	repeat/STIM_006.jpg	100
2463.674	0.728	727.6	repeat	Run3	repeat/STIM_006.jpg	100
2466.419	0.573	573.1	repeat	Run3	repeat/STIM_007.jpg	99
2469.853	1.043	1043.3	repeat	Run3	repeat/STIM_007.jpg	100
2473.706	0.675	675.4	repeat	Run3	repeat/STIM_007.jpg	99
2477.077	0.803	802.6	repeat	Run3	repeat/STIM_007.jpg	99
2480.183	0.858	858.2	repeat	Run3	repeat/STIM_007.jpg	100
2484.076	0.738	738.1	repeat	Run3	repeat/STIM_008.jpg	100
2488.306	0.893	893.3	repeat	Run3	repeat/STIM_008.jpg	99
2491.992	0.905	905.4	repeat	Run3	repeat/STIM_008.jpg	99
2496.806	0.86	860.5	repeat	Run3	repeat/STIM_008.jpg	99
2500.963	0.67	670.0	repeat	Run3	repeat/STIM_008.jpg	99
2503.749	0.699	699.4	repeat	Run3	repeat/STIM_009.jpg	100
2506.93	1.009	1009.2	repeat	Run3	repeat/STIM_009.jpg	100
2510.411	0.739	738.9	repeat	Run3	repeat/STIM_009.jpg	100
2514.584	0.839	839.0	repeat	Run3	repeat/STIM_009.jpg	99
2518.501	0.69	690.4	repeat	Run3	repeat/STIM_009.jpg	100
2522.205	0.875	875.3	repeat	Run3	repeat/STIM_010.jpg	99
2525.527	0.852	852.1	repeat	Run3	repeat/STIM_010.jpg	100
2530.323	0.87	869.7	repeat	Run3	repeat/STIM_010.jpg	99
2534.962	0.72	720.3	repeat	Run3	repeat/STIM_010.jpg	99
2539.293	0.552	551.7	repeat	Run3	repeat/STIM_010.jpg	99
2543.486	0.903	903.0	repeat	Run3	repeat/STIM_011.jpg	100
2547.767	0.634	634.4	repeat	Run3	repeat/STIM_011.jpg	100
2551.313	0.746	745.8	repeat	Run3	repeat/STIM_011.jpg	100
2554.76	0.864	863.5	repeat	Run3	repeat/STIM_011.jpg	100
2559.368	0.891	891.1	repeat	Run3	repeat/STIM_011.jpg	99
2564.113	0.826	826.1	repeat	Run3	repeat/STIM_012.jpg	99
2568.477	0.795	794.6	repeat	Run3	repeat/STIM_012.jpg	100
2571.833	0.852	852.0	repeat	Run3	repeat/STIM_012.jpg	100
2576.103	1.009	1008.9	repeat	Run3	repeat/STIM_012.jpg	99
2580.157	0.854	853.8	repeat	Run3	repeat/STIM_012.jpg	99
2583.122	0.915	914.9	repeat	Run3	repeat/STIM_013.jpg	100
2587.484	1.014	1014.5	repeat	Run3	repeat/STIM_013.jpg	99
2590.636	0.981	980.7	repeat	Run3	repeat/STIM_013.jpg	99
2594.736	0.652	651.9	repeat	Run3	repeat/STIM_013.jpg	100
2598.309	0.93	930.5	repeat	Run3	repeat/STIM_013.jpg	99
2601.595	0.631	631.2	repeat	Run3	repeat/STIM_014.jpg	100
2606.156	0.678	677.5	repeat	Run3	repeat/STIM_014.jpg	100
2609.42	0.7	699.9	repeat	Run3	repeat/STIM_014.jpg	99
2612.741	0.639	639.0	repeat	Run3	repeat/STIM_014.jpg	99
2617.266	0.955	954.9	repeat	Run3	repeat/STIM_014.jpg	99
2621.264	1.189	1189.3	generate	Run4	generate/STIM_000.jpg	100
2625.472	1.76	1760.1	generate	Run4	generate/STIM_000.jpg	99
2630.271	1.234	1233.6	generate	Run4	generate/STIM_000.jpg	99
2633.874	1.599	1598.6	generate	Run4	generate/STIM_000.jpg	100
2638.619	1.403	1402.8	generate	Run4	generate/STIM_000.jpg	99
2643.617	0.898	897.8	generate	Run4	generate/STIM_001.jpg	99
2648.24	1.772	1772.4	generate	Run4	generate/STIM_001.jpg	99
2653.23	1.909	1908.9	generate	Run4	generate/STIM_001.jpg	100
2658.008	1.274	1274.4	generate	Run4	generate/STIM_001.jpg	100
2662.394	1.837	1837.0	generate	Run4	generate/STIM_001.jpg	99
2668.175	1.059	1058.7	generate	Run4	generate/STIM_002.jpg	99
2672.783	1.959	1959.2	generate	Run4	generate/STIM_002.jpg	99
2678.002	1.302	1302.0	generate	Run4	generate/STIM_002.jpg	100
2681.824	2.062	2062.3	generate	Run4	generate/STIM_002.jpg	100
2685.939	0.976	976.0	generate	Run4	generate/STIM_002.jpg	100
2690.534	1.974	1974.3	generate	Run4	generate/STIM_003.jpg	100
2695.857	2.134	2133.7	generate	Run4	generate/STIM_003.jpg	100
2701.128	1.047	1047.3	generate	Run4	generate/STIM_003.jpg	100
2705.394	2.238	2238.1	generate	Run4	generate/STIM_003.jpg	100
2710.765	2.095	2095.3	generate	Run4	generate/STIM_003.jpg	100
2715.126	1.311	1310.9	generate	Run4	generate/STIM_004.jpg	99
2718.527	2.149	2148.6	generate	Run4	generate/STIM_004.jpg	99
2724.394	1.397	1396.7	generate	Run4	generate/STIM_004.jpg	100
2728.419	1.686	1685.6	generate	Run4	generate/STIM_004.jpg	99
2732.348	2.026	2025.5	generate	Run4	generate/STIM_004.jpg	100
2738.237	1.564	1564.2	generate	Run4	generate/STIM_005.jpg	99
2743.729	1.928	1928.0	generate	Run4	generate/STIM_005.jpg	100
2748.306	1.218	1218.4	generate	Run4	generate/STIM_005.jpg	100
2753.374	2.06	2060.1	generate	Run4	generate/STIM_005.jpg	100
2758.006	1.78	1779.8	generate	Run4	generate/STIM_005.jpg	99
2763.509	1.941	1941.4	generate	Run4	generate/STIM_006.jpg	99
2768.071	1.295	1295.3	generate	Run4	generate/STIM_006.jpg	100
2772.681	2.205	2205.4	generate	Run4	generate/STIM_006.jpg	100
2777.169	0.984	983.7	generate	Run4	generate/STIM_006.jpg	100
2780.608	1.855	1855.3	generate	Run4	generate/STIM_006.jpg	99
2786.355	1.319	1318.7	generate	Run4	generate/STIM_007.jpg	100
2790.253	1.238	1238.3	generate	Run4	generate/STIM_007.jpg	99
2794.199	1.754	1753.5	generate	Run4	generate/STIM_007.jpg	100
2798.355	1.656	1656.5	generate	Run4	generate/STIM_007.jpg	100
2803.01	1.702	1701.9	generate	Run4	generate/STIM_007.jpg	99
2807.434	1.174	1174.5	generate	Run4	generate/STIM_008.jpg	99
2812.15	1.582	1581.8	generate	Run4	generate/STIM_008.jpg	99
2816.679	1.133	1132.6	generate	Run4	generate/STIM_008.jpg	100
2820.918	2.147	2147.3	generate	Run4	generate/STIM_008.jpg	99
2825.65	0.984	983.5	generate	Run4	generate/STIM_008.jpg	100
2829.655	1.24	1239.5	generate	Run4	generate/STIM_009.jpg	99
2834.619	1.859	1859.4	generate	Run4	generate/STIM_009.jpg	100
2839.035	1.284	1284.2	generate	Run4	generate/STIM_009.jpg	100
2842.472	1.711	1711.4	generate	Run4	generate/STIM_009.jpg	100
2847.393	1.244	1244.3	generate	Run4	generate/STIM_009.jpg	100
2851.571	1.174	1174.3	generate	Run4	generate/STIM_010.jpg	100
2855.528	1.306	1305.7	generate	Run4	generate/STIM_010.jpg	99
2859.397	2.216	2215.7	generate	Run4	generate/STIM_010.jpg	99
2864.892	1.199	1199.3	generate	Run4	generate/STIM_010.jpg	99
2869.819	1.66	1659.9	generate	Run4	generate/STIM_010.jpg	100
2874.17	2.014	2013.8	generate	Run4	generate/STIM_011.jpg	99
2879.876	2.124	2124.2	generate	Run4	generate/STIM_011.jpg	100
2884.828	1.036	1036.3	generate	Run4	generate/STIM_011.jpg	99
2888.819	0.958	958.3	generate	Run4	generate/STIM_011.jpg	100
2892.674	1.336	1335.9	generate	Run4	generate/STIM_011.jpg	100
2896.397	1.979	1978.8	generate	Run4	generate/STIM_012.jpg	100
2901.584	1.551	1551.3	generate	Run4	generate/STIM_012.jpg	100
2906.579	1.071	1070.9	generate	Run4	generate/STIM_012.jpg	99
2910.628	2.015	2014.9	generate	Run4	generate/STIM_012.jpg	100
2916.314	1.216	1216.2	generate	Run4	generate/STIM_012.jpg	99
2920.294	1.151	1151.0	generate	Run4	generate/STIM_013.jpg	99
2925.064	1.219	1219.4	generate	Run4	generate/STIM_013.jpg	100
2930.113	1.778	1777.7	generate	Run4	generate/STIM_013.jpg	100
2935.826	1.962	1961.6	generate	Run4	generate/STIM_013.jpg	100
2940.557	1.402	1402.3	generate	Run4	generate/STIM_013.jpg	99
2944.87	2.022	2021.5	generate	Run4	generate/STIM_014.jpg	99
2949.701	0.975	974.9	generate	Run4	generate/STIM_014.jpg	100
2953.982	0.908	907.7	generate	Run4	generate/STIM_014.jpg	100
2958.101	1.377	1376.8	generate	Run4	generate/STIM_014.jpg	99
2961.838	1.613	1613.2	generate	Run4	generate/STIM_014.jpg	99
2965.534	1.6	1599.9	generate	Run4	generate/STIM_015.jpg	100
2970.578	1.58	1580.4	generate	Run4	generate/STIM_015.jpg	99
2975.828	2.126	2125.5	generate	Run4	generate/STIM_015.jpg	100
2980.284	1.588	1588.0	generate	Run4	generate/STIM_015.jpg	99
2984.492	1.951	1951.4	generate	Run4	generate/STIM_015.jpg	100
2989.007	2.143	2142.6	generate	Run4	generate/STIM_016.jpg	100
2993.837	1.494	1493.9	generate	Run4	generate/STIM_016.jpg	100
2998.823	1.733	1733.2	generate	Run4	generate/STIM_016.jpg	99
3004.459	1.556	1555.8	generate	Run4	generate/STIM_016.jpg	100
3009.091	2.081	2081.1	generate	Run4	generate/STIM_016.jpg	100
3014.069	2.117	2116.8	generate	Run4	generate/STIM_017.jpg	99
3019.725	1.531	1530.6	generate	Run4	generate/STIM_017.jpg	99
3023.892	1.955	1955.2	generate	Run4	generate/STIM_017.jpg	100
3028.559	1.703	1703.2	generate	Run4	generate/STIM_017.jpg	99
3033.999	1.43	1430.5	generate	Run4	generate/STIM_017.jpg	99
3038.657	1.886	1886.3	generate	Run4	generate/STIM_018.jpg	99
3042.833	1.723	1722.8	generate	Run4	generate/STIM_018.jpg	100
3047.805	1.097	1096.7	generate	Run4	generate/STIM_018.jpg	100
3051.577	1.461	1461.4	generate	Run4	generate/STIM_018.jpg	99
3056.232	1.876	1875.8	generate	Run4	generate/STIM_018.jpg	100
3060.574	0.903	903.3	generate	Run4	generate/STIM_019.jpg	99
3063.515	1.563	1563.4	generate	Run4	generate/STIM_019.jpg	99
3068.284	1.937	1937.2	generate	Run4	generate/STIM_019.jpg	99
3073.106	1.587	1587.1	generate	Run4	generate/STIM_019.jpg	100
3077.327	1.482	1482.2	generate	Run4	generate/STIM_019.jpg	100
3081.193	1.408	1408.0	generate	Run4	generate/STIM_020.jpg	99
3084.763	1.243	1243.4	generate	Run4	generate/STIM_020.jpg	100
3089.688	1.299	1298.7	generate	Run4	generate/STIM_020.jpg	100
3094.259	1.244	1243.8	generate	Run4	generate/STIM_020.jpg	99
3097.741	2.081	2081.1	generate	Run4	generate/STIM_020.jpg	99
3102.052	1.309	1309.2	generate	Run4	generate/STIM_021.jpg	99
3106.486	1.964	1963.5	generate	Run4	generate/STIM_021.jpg	99
3111.463	0.901	901.3	generate	Run4	generate/STIM_021.jpg	99
3114.795	1.548	1547.7	generate	Run4	generate/STIM_021.jpg	99
3119.937	1.476	1475.7	generate	Run4	generate/STIM_021.jpg	100
3124.252	1.138	1137.7	generate	Run4	generate/STIM_022.jpg	100
3128.213	1.923	1923.4	generate	Run4	generate/STIM_022.jpg	100
3133.583	1.785	1784.7	generate	Run4	generate/STIM_022.jpg	100
3137.813	1.996	1996.0	generate	Run4	generate/STIM_022.jpg	100
3143.087	1.928	1928.2	generate	Run4	generate/STIM_022.jpg	100
3148.036	1.264	1264.0	generate	Run4	generate/STIM_023.jpg	99
3152.967	1.718	1718.4	generate	Run4	generate/STIM_023.jpg	100
3157.156	1.096	1095.8	generate	Run4	generate/STIM_023.jpg	100
3160.91	1.261	1260.6	generate	Run4	generate/STIM_023.jpg	100
3166.02	1.885	1884.9	generate	Run4	generate/STIM_023.jpg	99
3171.25	1.21	1210.4	generate	Run4	generate/STIM_024.jpg	100
3174.561	1.215	1214.9	generate	Run4	generate/STIM_024.jpg	100
3178.406	1.713	1712.8	generate	Run4	generate/STIM_024.jpg	99
3182.327	1.333	1333.3	generate	Run4	generate/STIM_024.jpg	99
3186.193	1.884	1883.5	generate	Run4	generate/STIM_024.jpg	99
3191.898	0.623	623.1	repeat	Run4	repeat/STIM_000.jpg	99
3195.025	0.687	686.9	repeat	Run4	repeat/STIM_000.jpg	99
3198.106	0.685	685.2	repeat	Run4	repeat/STIM_000.jpg	99
3202.094	0.947	947.2	repeat	Run4	repeat/STIM_000.jpg	99
3205.432	0.596	595.8	repeat	Run4	repeat/STIM_000.jpg	99
3208.27	0.724	724.0	repeat	Run4	repeat/STIM_001.jpg	99
3211.339	0.849	849.0	repeat	Run4	repeat/STIM_001.jpg	99
3214.814	0.772	772.5	repeat	Run4	repeat/STIM_001.jpg	100
3218.411	1.009	1008.8	repeat	Run4	repeat/STIM_001.jpg	100
3223.358	0.719	718.7	repeat	Run4	repeat/STIM_001.jpg	99
3226.295	0.65	650.5	repeat	Run4	repeat/STIM_002.jpg	99
3229.179	0.812	811.6	repeat	Run4	repeat/STIM_002.jpg	99
3232.397	0.808	808.5	repeat	Run4	repeat/STIM_002.jpg	100
3236.004	0.802	801.7	repeat	Run4	repeat/STIM_002.jpg	100
3239.446	0.696	696.4	repeat	Run4	repeat/STIM_002.jpg	99
3242.765	0.576	576.0	repeat	Run4	repeat/STIM_003.jpg	99
3246.003	1.012	1011.8	repeat	Run4	repeat/STIM_003.jpg	100
3249.757	0.838	838.3	repeat	Run4	repeat/STIM_003.jpg	99
3254.477	1.039	1039.1	repeat	Run4	repeat/STIM_003.jpg	100
3258.699	0.612	612.2	repeat	Run4	repeat/STIM_003.jpg	99
3262.282	0.872	872.5	repeat	Run4	repeat/STIM_004.jpg	100
3266.87	0.687	686.6	repeat	Run4	repeat/STIM_004.jpg	99
3271.423	0.966	965.7	repeat	Run4	repeat/STIM_004.jpg	99
3276.078	0.779	778.7	repeat	Run4	repeat/STIM_004.jpg	99
3279.685	1.058	1058.2	repeat	Run4	repeat/STIM_004.jpg	100
3284.586	0.827	826.6	repeat	Run4	repeat/STIM_005.jpg	100
3287.897	0.726	726.1	repeat	Run4	repeat/STIM_005.jpg	100
3291.874	0.908	908.0	repeat	Run4	repeat/STIM_005.jpg	100
3295.191	0.768	767.8	repeat	Run4	repeat/STIM_005.jpg	100
3299.362	0.852	852.1	repeat	Run4	repeat/STIM_005.jpg	100
3303.933	0.915	914.7	repeat	Run4	repeat/STIM_006.jpg	100
3307.515	0.975	974.8	repeat	Run4	repeat/STIM_006.jpg	99
3312.372	0.537	536.9	repeat	Run4	repeat/STIM_006.jpg	99
3315.918	0.929	929.1	repeat	Run4	repeat/STIM_006.jpg	99
3319.761	0.693	693.4	repeat	Run4	repeat/STIM_006.jpg	99
3323.437	0.747	747.3	repeat	Run4	repeat/STIM_007.jpg	99
3327.093	0.598	598.5	repeat	Run4	repeat/STIM_007.jpg	100
3331.482	0.724	724.2	repeat	Run4	repeat/STIM_007.jpg	100
3335.188	0.541	540.9	repeat	Run4	repeat/STIM_007.jpg	100
3338.213	0.98	980.5	repeat	Run4	repeat/STIM_007.jpg	100
3342.187	0.957	957.2	repeat	Run4	repeat/STIM_008.jpg	99
3346.499	0.586	585.8	repeat	Run4	repeat/STIM_008.jpg	100
3350.646	0.738	737.5	repeat	Run4	repeat/STIM_008.jpg	99
3354.607	0.854	853.7	repeat	Run4	repeat/STIM_008.jpg	100
3358.81	0.696	696.3	repeat	Run4	repeat/STIM_008.jpg	99
3361.631	0.826	826.1	repeat	Run4	repeat/STIM_009.jpg	99
3366.192	0.63	629.5	repeat	Run4	repeat/STIM_009.jpg	99
3369.463	0.822	822.1	repeat	Run4	repeat/STIM_009.jpg	100
3373.739	0.746	746.5	repeat	Run4	repeat/STIM_009.jpg	99
3376.584	0.603	603.4	repeat	Run4	repeat/STIM_009.jpg	99
3379.526	0.897	896.7	repeat	Run4	repeat/STIM_010.jpg	99
3383.818	0.645	644.6	repeat	Run4	repeat/STIM_010.jpg	99
3386.887	0.813	813.4	repeat	Run4	repeat/STIM_010.jpg	99
3390.643	1.066	1066.5	repeat	Run4	repeat/STIM_010.jpg	99
3394.102	0.639	639.3	repeat	Run4	repeat/STIM_010.jpg	100
3398.692	0.871	871.3	repeat	Run4	repeat/STIM_011.jpg	99
3401.886	0.793	793.4	repeat	Run4	repeat/STIM_011.jpg	99
3406.175	0.639	639.3	repeat	Run4	repeat/STIM_011.jpg	99
3408.955	0.545	545.1	repeat	Run4	repeat/STIM_011.jpg	100
3411.737	0.813	813.1	repeat	Run4	repeat/STIM_011.jpg	100
3416.404	0.936	935.8	repeat	Run4	repeat/STIM_012.jpg	100
3420.15	0.831	830.7	repeat	Run4	repeat/STIM_012.jpg	100
3423.241	0.855	854.8	repeat	Run4	repeat/STIM_012.jpg	100
3426.228	0.941	940.6	repeat	Run4	repeat/STIM_012.jpg	100
3429.479	0.596	596.5	repeat	Run4	repeat/STIM_012.jpg	100
3433.996	1.034	1034.0	repeat	Run4	repeat/STIM_013.jpg	99
3438.149	0.649	649.2	repeat	Run4	repeat/STIM_013.jpg	100
3442.751	0.662	661.7	repeat	Run4	repeat/STIM_013.jpg	99
3445.562	0.789	788.9	repeat	Run4	repeat/STIM_013.jpg	100
3449.946	0.796	795.6	repeat	Run4	repeat/STIM_013.jpg	100
3454.706	0.584	583.5	repeat	Run4	repeat/STIM_014.jpg	99
3459.22	0.6	599.5	repeat	Run4	repeat/STIM_014.jpg	99
3463.135	0.982	982.0	repeat	Run4	repeat/STIM_014.jpg	99
3467.877	0.82	819.6	repeat	Run4	repeat/STIM_014.jpg	99
3470.863	1.065	1065.1	repeat	Run4	repeat/STIM_014.jpg	100
