onset	duration	accuracy	trial_type	learning_stage	stimulus
0.0	2.237	correct	generate	Run1	generate/STIM_000.jpg
4.885	1.774	correct	generate	Run1	generate/STIM_000.jpg
10.156	2.444	correct	generate	Run1	generate/STIM_000.jpg
16.202	2.282	correct	generate	Run1	generate/STIM_000.jpg
21.558	2.445	correct	generate	Run1	generate/STIM_000.jpg
27.778	3.195	correct	generate	Run1	generate/STIM_001.jpg
33.174	2.305	correct	generate	Run1	generate/STIM_001.jpg
37.651	2.193	correct	generate	Run1	generate/STIM_001.jpg
43.442	1.878	incorrect	generate	Run1	generate/STIM_001.jpg
48.383	1.687	correct	generate	Run1	generate/STIM_001.jpg
53.757	1.493	correct	generate	Run1	generate/STIM_002.jpg
57.609	1.295	correct	generate	Run1	generate/STIM_002.jpg
61.794	1.441	incorrect	generate	Run1	generate/STIM_002.jpg
65.816	2.405	correct	generate	Run1	generate/STIM_002.jpg
71.762	1.7	correct	generate	Run1	generate/STIM_002.jpg
76.53	2.477	correct	generate	Run1	generate/STIM_003.jpg
81.054	1.992	correct	generate	Run1	generate/STIM_003.jpg
85.676	1.843	correct	generate	Run1	generate/STIM_003.jpg
90.533	1.994	incorrect	generate	Run1	generate/STIM_003.jpg
96.192	1.81	correct	generate	Run1	generate/STIM_003.jpg
101.505	2.501	correct	generate	Run1	generate/STIM_004.jpg
107.391	1.676	correct	generate	Run1	generate/STIM_004.jpg
112.863	2.378	incorrect	generate	Run1	generate/STIM_004.jpg
117.874	1.834	correct	generate	Run1	generate/STIM_004.jpg
122.199	2.144	incorrect	generate	Run1	generate/STIM_004.jpg
127.422	2.14	correct	generate	Run1	generate/STIM_005.jpg
131.654	3.038	correct	generate	Run1	generate/STIM_005.jpg
138.463	1.791	correct	generate	Run1	generate/STIM_005.jpg
142.321	2.428	correct	generate	Run1	generate/STIM_005.jpg
148.249	1.416	incorrect	generate	Run1	generate/STIM_005.jpg
153.652	1.45	correct	generate	Run1	generate/STIM_006.jpg
158.525	2.426	correct	generate	Run1	generate/STIM_006.jpg
164.049	2.331	correct	generate	Run1	generate/STIM_006.jpg
169.835	2.669	correct	generate	Run1	generate/STIM_006.jpg
175.761	1.073	correct	generate	Run1	generate/STIM_006.jpg
179.859	2.073	incorrect	generate	Run1	generate/STIM_007.jpg
184.519	1.466	correct	generate	Run1	generate/STIM_007.jpg
188.856	2.575	incorrect	generate	Run1	generate/STIM_007.jpg
194.59	1.81	incorrect	generate	Run1	generate/STIM_007.jpg
199.519	2.454	correct	generate	Run1	generate/STIM_007.jpg
205.456	2.891	correct	generate	Run1	generate/STIM_008.jpg
211.907	2.363	correct	generate	Run1	generate/STIM_008.jpg
216.508	2.267	correct	generate	Run1	generate/STIM_008.jpg
221.597	1.338	incorrect	generate	Run1	generate/STIM_008.jpg
225.888	1.398	correct	generate	Run1	generate/STIM_008.jpg
229.479	1.735	correct	generate	Run1	generate/STIM_009.jpg
233.261	2.442	correct	generate	Run1	generate/STIM_009.jpg
238.336	1.708	correct	generate	Run1	generate/STIM_009.jpg
243.047	1.436	incorrect	generate	Run1	generate/STIM_009.jpg
248.322	1.508	correct	generate	Run1	generate/STIM_009.jpg
253.622	2.59	correct	generate	Run1	generate/STIM_010.jpg
258.592	1.62	correct	generate	Run1	generate/STIM_010.jpg
263.196	2.408	correct	generate	Run1	generate/STIM_010.jpg
268.08	1.294	correct	generate	Run1	generate/STIM_010.jpg
272.206	1.102	correct	generate	Run1	generate/STIM_010.jpg
276.519	1.49	correct	generate	Run1	generate/STIM_011.jpg
281.543	2.827	correct	generate	Run1	generate/STIM_011.jpg
287.21	2.771	correct	generate	Run1	generate/STIM_011.jpg
293.075	1.835	correct	generate	Run1	generate/STIM_011.jpg
297.871	1.973	correct	generate	Run1	generate/STIM_011.jpg
301.885	2.417	correct	generate	Run1	generate/STIM_012.jpg
306.705	2.555	incorrect	generate	Run1	generate/STIM_012.jpg
311.554	1.189	correct	generate	Run1	generate/STIM_012.jpg
315.709	1.183	correct	generate	Run1	generate/STIM_012.jpg
320.652	2.376	correct	generate	Run1	generate/STIM_012.jpg
325.821	1.949	correct	generate	Run1	generate/STIM_013.jpg
330.145	3.001	incorrect	generate	Run1	generate/STIM_013.jpg
336.245	2.006	correct	generate	Run1	generate/STIM_013.jpg
341.623	2.334	correct	generate	Run1	generate/STIM_013.jpg
347.385	1.945	correct	generate	Run1	generate/STIM_013.jpg
352.088	2.671	correct	generate	Run1	generate/STIM_014.jpg
356.781	2.232	correct	generate	Run1	generate/STIM_014.jpg
361.843	1.458	correct	generate	Run1	generate/STIM_014.jpg
366.494	2.126	correct	generate	Run1	generate/STIM_014.jpg
370.827	1.904	correct	generate	Run1	generate/STIM_014.jpg
375.581	2.332	incorrect	generate	Run1	generate/STIM_015.jpg
380.411	2.02	correct	generate	Run1	generate/STIM_015.jpg
384.935	1.97	correct	generate	Run1	generate/STIM_015.jpg
390.404	1.923	correct	generate	Run1	generate/STIM_015.jpg
395.482	2.15	correct	generate	Run1	generate/STIM_015.jpg
401.158	1.691	correct	generate	Run1	generate/STIM_016.jpg
405.432	2.145	correct	generate	Run1	generate/STIM_016.jpg
410.699	2.333	correct	generate	Run1	generate/STIM_016.jpg
415.047	2.643	correct	generate	Run1	generate/STIM_016.jpg
420.306	1.794	incorrect	generate	Run1	generate/STIM_016.jpg
424.263	2.541	correct	generate	Run1	generate/STIM_017.jpg
430.02	1.617	correct	generate	Run1	generate/STIM_017.jpg
434.427	2.342	correct	generate	Run1	generate/STIM_017.jpg
440.338	1.1	correct	generate	Run1	generate/STIM_017.jpg
443.742	2.073	correct	generate	Run1	generate/STIM_017.jpg
448.48	1.849	correct	generate	Run1	generate/STIM_018.jpg
454.229	2.735	correct	generate	Run1	generate/STIM_018.jpg
459.917	2.1	correct	generate	Run1	generate/STIM_018.jpg
464.932	2.591	correct	generate	Run1	generate/STIM_018.jpg
470.913	1.323	correct	generate	Run1	generate/STIM_018.jpg
475.944	1.521	correct	generate	Run1	generate/STIM_019.jpg
479.814	2.04	correct	generate	Run1	generate/STIM_019.jpg
484.634	2.535	correct	generate	Run1	generate/STIM_019.jpg
490.315	1.599	correct	generate	Run1	generate/STIM_019.jpg
494.841	1.275	correct	generate	Run1	generate/STIM_019.jpg
499.281	1.682	correct	generate	Run1	generate/STIM_020.jpg
503.78	1.987	correct	generate	Run1	generate/STIM_020.jpg
509.021	2.751	correct	generate	Run1	generate/STIM_020.jpg
515.234	1.972	incorrect	generate	Run1	generate/STIM_020.jpg
520.228	2.169	correct	generate	Run1	generate/STIM_020.jpg
525.432	1.394	correct	generate	Run1	generate/STIM_021.jpg
530.335	2.025	correct	generate	Run1	generate/STIM_021.jpg
535.586	1.949	correct	generate	Run1	generate/STIM_021.jpg
539.85	1.494	correct	generate	Run1	generate/STIM_021.jpg
545.263	1.868	correct	generate	Run1	generate/STIM_021.jpg
549.255	1.887	correct	generate	Run1	generate/STIM_022.jpg
553.472	1.453	correct	generate	Run1	generate/STIM_022.jpg
557.603	1.939	correct	generate	Run1	generate/STIM_022.jpg
562.476	1.856	correct	generate	Run1	generate/STIM_022.jpg
567.982	1.104	incorrect	generate	Run1	generate/STIM_022.jpg
571.132	2.317	incorrect	generate	Run1	generate/STIM_023.jpg
575.891	1.583	correct	generate	Run1	generate/STIM_023.jpg
580.423	1.548	correct	generate	Run1	generate/STIM_023.jpg
585.192	1.354	correct	generate	Run1	generate/STIM_023.jpg
589.311	1.595	correct	generate	Run1	generate/STIM_023.jpg
593.252	2.533	incorrect	generate	Run1	generate/STIM_024.jpg
598.66	1.524	incorrect	generate	Run1	generate/STIM_024.jpg
603.396	2.628	incorrect	generate	Run1	generate/STIM_024.jpg
608.951	2.467	correct	generate	Run1	generate/STIM_024.jpg
614.365	2.236	correct	generate	Run1	generate/STIM_024.jpg
619.659	0.66	correct	repeat	Run1	repeat/STIM_000.jpg
623.472	0.662	correct	repeat	Run1	repeat/STIM_000.jpg
626.165	0.755	correct	repeat	Run1	repeat/STIM_000.jpg
630.187	0.665	correct	repeat	Run1	repeat/STIM_000.jpg
633.358	0.658	correct	repeat	Run1	repeat/STIM_000.jpg
637.116	0.748	correct	repeat	Run1	repeat/STIM_001.jpg
641.235	0.541	correct	repeat	Run1	repeat/STIM_001.jpg
644.497	0.931	correct	repeat	Run1	repeat/STIM_001.jpg
649.353	0.535	correct	repeat	Run1	repeat/STIM_001.jpg
652.088	0.666	correct	repeat	Run1	repeat/STIM_001.jpg
655.994	0.938	correct	repeat	Run1	repeat/STIM_002.jpg
659.715	0.57	correct	repeat	Run1	repeat/STIM_002.jpg
664.197	0.926	correct	repeat	Run1	repeat/STIM_002.jpg
667.25	0.786	correct	repeat	Run1	repeat/STIM_002.jpg
670.566	0.765	correct	repeat	Run1	repeat/STIM_002.jpg
673.774	1.062	correct	repeat	Run1	repeat/STIM_003.jpg
678.116	0.971	correct	repeat	Run1	repeat/STIM_003.jpg
682.877	0.714	correct	repeat	Run1	repeat/STIM_003.jpg
687.063	0.812	incorrect	repeat	Run1	repeat/STIM_003.jpg
690.854	0.992	correct	repeat	Run1	repeat/STIM_003.jpg
695.338	0.939	correct	repeat	Run1	repeat/STIM_004.jpg
699.663	0.768	correct	repeat	Run1	repeat/STIM_004.jpg
703.402	0.745	correct	repeat	Run1	repeat/STIM_004.jpg
706.175	0.673	correct	repeat	Run1	repeat/STIM_004.jpg
710.774	0.739	correct	repeat	Run1	repeat/STIM_004.jpg
715.177	0.937	correct	repeat	Run1	repeat/STIM_005.jpg
719.336	0.788	correct	repeat	Run1	repeat/STIM_005.jpg
722.891	0.716	correct	repeat	Run1	repeat/STIM_005.jpg
725.905	0.708	correct	repeat	Run1	repeat/STIM_005.jpg
729.167	0.601	correct	repeat	Run1	repeat/STIM_005.jpg
733.737	0.83	correct	repeat	Run1	repeat/STIM_006.jpg
737.702	0.765	correct	repeat	Run1	repeat/STIM_006.jpg
742.108	0.846	correct	repeat	Run1	repeat/STIM_006.jpg
745.3	0.564	correct	repeat	Run1	repeat/STIM_006.jpg
747.961	0.951	correct	repeat	Run1	repeat/STIM_006.jpg
752.409	0.73	correct	repeat	Run1	repeat/STIM_007.jpg
756.976	0.593	correct	repeat	Run1	repeat/STIM_007.jpg
760.696	0.8	correct	repeat	Run1	repeat/STIM_007.jpg
764.72	1.033	correct	repeat	Run1	repeat/STIM_007.jpg
768.99	0.538	incorrect	repeat	Run1	repeat/STIM_007.jpg
771.764	0.917	correct	repeat	Run1	repeat/STIM_008.jpg
775.359	0.886	correct	repeat	Run1	repeat/STIM_008.jpg
779.482	0.614	correct	repeat	Run1	repeat/STIM_008.jpg
783.048	0.678	correct	repeat	Run1	repeat/STIM_008.jpg
785.993	0.884	correct	repeat	Run1	repeat/STIM_008.jpg
789.649	0.597	correct	repeat	Run1	repeat/STIM_009.jpg
792.865	1.033	correct	repeat	Run1	repeat/STIM_009.jpg
796.205	0.787	correct	repeat	Run1	repeat/STIM_009.jpg
799.716	0.829	correct	repeat	Run1	repeat/STIM_009.jpg
803.609	0.842	correct	repeat	Run1	repeat/STIM_009.jpg
806.48	0.734	correct	repeat	Run1	repeat/STIM_010.jpg
811.204	0.892	correct	repeat	Run1	repeat/STIM_010.jpg
815.586	0.974	incorrect	repeat	Run1	repeat/STIM_010.jpg
820.436	0.549	correct	repeat	Run1	repeat/STIM_010.jpg
823.546	1.017	correct	repeat	Run1	repeat/STIM_010.jpg
827.958	1.049	correct	repeat	Run1	repeat/STIM_011.jpg
831.128	1.02	incorrect	repeat	Run1	repeat/STIM_011.jpg
834.56	0.826	incorrect	repeat	Run1	repeat/STIM_011.jpg
839.084	1.035	correct	repeat	Run1	repeat/STIM_011.jpg
843.724	0.861	correct	repeat	Run1	repeat/STIM_011.jpg
846.779	0.988	correct	repeat	Run1	repeat/STIM_012.jpg
851.484	0.717	correct	repeat	Run1	repeat/STIM_012.jpg
855.626	1.006	correct	repeat	Run1	repeat/STIM_012.jpg
858.639	0.81	correct	repeat	Run1	repeat/STIM_012.jpg
862.702	0.691	correct	repeat	Run1	repeat/STIM_012.jpg
865.908	0.958	correct	repeat	Run1	repeat/STIM_013.jpg
869.804	0.645	correct	repeat	Run1	repeat/STIM_013.jpg
872.723	0.601	correct	repeat	Run1	repeat/STIM_013.jpg
875.641	0.831	correct	repeat	Run1	repeat/STIM_013.jpg
880.012	0.766	correct	repeat	Run1	repeat/STIM_013.jpg
883.89	0.538	correct	repeat	Run1	repeat/STIM_014.jpg
888.31	0.789	correct	repeat	Run1	repeat/STIM_014.jpg
891.573	0.665	correct	repeat	Run1	repeat/STIM_014.jpg
895.486	0.949	correct	repeat	Run1	repeat/STIM_014.jpg
899.91	0.535	incorrect	repeat	Run1	repeat/STIM_014.jpg
902.623	2.234	incorrect	generate	Run2	generate/STIM_000.jpg
907.902	1.878	correct	generate	Run2	generate/STIM_000.jpg
913.13	1.799	incorrect	generate	Run2	generate/STIM_000.jpg
916.963	1.017	correct	generate	Run2	generate/STIM_000.jpg
920.725	1.506	incorrect	generate	Run2	generate/STIM_000.jpg
926.089	2.636	correct	generate	Run2	generate/STIM_001.jpg
930.823	1.978	correct	generate	Run2	generate/STIM_001.jpg
935.204	1.136	correct	generate	Run2	generate/STIM_001.jpg
939.933	1.174	correct	generate	Run2	generate/STIM_001.jpg
943.557	1.568	correct	generate	Run2	generate/STIM_001.jpg
947.566	2.567	correct	generate	Run2	generate/STIM_002.jpg
953.495	1.253	correct	generate	Run2	generate/STIM_002.jpg
957.167	1.681	incorrect	generate	Run2	generate/STIM_002.jpg
961.431	1.714	correct	generate	Run2	generate/STIM_002.jpg
966.572	2.167	incorrect	generate	Run2	generate/STIM_002.jpg
971.587	1.215	incorrect	generate	Run2	generate/STIM_003.jpg
976.475	1.222	incorrect	generate	Run2	generate/STIM_003.jpg
980.991	2.091	correct	generate	Run2	generate/STIM_003.jpg
985.557	1.421	correct	generate	Run2	generate/STIM_003.jpg
989.632	1.377	correct	generate	Run2	generate/STIM_003.jpg
993.897	2.399	incorrect	generate	Run2	generate/STIM_004.jpg
999.133	2.409	incorrect	generate	Run2	generate/STIM_004.jpg
1004.757	1.651	correct	generate	Run2	generate/STIM_004.jpg
1009.742	1.177	incorrect	generate	Run2	generate/STIM_004.jpg
1013.513	1.344	incorrect	generate	Run2	generate/STIM_004.jpg
1017.768	1.615	correct	generate	Run2	generate/STIM_005.jpg
1021.785	2.241	correct	generate	Run2	generate/STIM_005.jpg
1026.881	2.066	correct	generate	Run2	generate/STIM_005.jpg
1031.471	1.957	correct	generate	Run2	generate/STIM_005.jpg
1036.167	1.21	correct	generate	Run2	generate/STIM_005.jpg
1040.997	2.094	correct	generate	Run2	generate/STIM_006.jpg
1046.212	1.858	correct	generate	Run2	generate/STIM_006.jpg
1051.805	1.282	correct	generate	Run2	generate/STIM_006.jpg
1055.988	1.364	correct	generate	Run2	generate/STIM_006.jpg
1060.688	1.533	incorrect	generate	Run2	generate/STIM_006.jpg
1065.436	1.779	incorrect	generate	Run2	generate/STIM_007.jpg
1069.239	2.006	correct	generate	Run2	generate/STIM_007.jpg
1075.098	1.26	correct	generate	Run2	generate/STIM_007.jpg
1079.886	1.845	correct	generate	Run2	generate/STIM_007.jpg
1085.262	1.949	correct	generate	Run2	generate/STIM_007.jpg
1090.412	1.476	incorrect	generate	Run2	generate/STIM_008.jpg
1095.703	2.205	correct	generate	Run2	generate/STIM_008.jpg
1100.247	2.364	correct	generate	Run2	generate/STIM_008.jpg
1106.605	1.421	correct	generate	Run2	generate/STIM_008.jpg
1111.04	1.402	correct	generate	Run2	generate/STIM_008.jpg
1115.837	1.526	incorrect	generate	Run2	generate/STIM_009.jpg
1119.492	1.654	correct	generate	Run2	generate/STIM_009.jpg
1124.838	1.449	incorrect	generate	Run2	generate/STIM_009.jpg
1128.428	1.935	correct	generate	Run2	generate/STIM_009.jpg
1132.675	1.151	correct	generate	Run2	generate/STIM_009.jpg
1136.483	1.794	correct	generate	Run2	generate/STIM_010.jpg
1141.2	1.38	correct	generate	Run2	generate/STIM_010.jpg
1146.429	1.002	correct	generate	Run2	generate/STIM_010.jpg
1150.326	1.608	correct	generate	Run2	generate/STIM_010.jpg
1154.83	2.223	correct	generate	Run2	generate/STIM_010.jpg
1159.841	2.228	correct	generate	Run2	generate/STIM_011.jpg
1164.194	1.135	correct	generate	Run2	generate/STIM_011.jpg
1167.568	2.089	correct	generate	Run2	generate/STIM_011.jpg
1172.854	0.918	incorrect	generate	Run2	generate/STIM_011.jpg
1177.443	1.128	incorrect	generate	Run2	generate/STIM_011.jpg
1180.659	2.588	incorrect	generate	Run2	generate/STIM_012.jpg
1185.253	1.418	incorrect	generate	Run2	generate/STIM_012.jpg
1190.213	1.625	correct	generate	Run2	generate/STIM_012.jpg
1195.814	1.257	correct	generate	Run2	generate/STIM_012.jpg
1199.99	1.938	incorrect	generate	Run2	generate/STIM_012.jpg
1204.626	2.497	incorrect	generate	Run2	generate/STIM_013.jpg
1210.614	2.538	correct	generate	Run2	generate/STIM_013.jpg
1215.867	2.214	correct	generate	Run2	generate/STIM_013.jpg
1221.465	1.236	correct	generate	Run2	generate/STIM_013.jpg
1224.788	2.052	correct	generate	Run2	generate/STIM_013.jpg
1229.063	2.088	incorrect	generate	Run2	generate/STIM_014.jpg
1234.756	2.202	incorrect	generate	Run2	generate/STIM_014.jpg
1239.054	1.839	correct	generate	Run2	generate/STIM_014.jpg
1244.146	1.87	correct	generate	Run2	generate/STIM_014.jpg
1248.796	2.069	correct	generate	Run2	generate/STIM_014.jpg
1254.272	2.693	incorrect	generate	Run2	generate/STIM_015.jpg
1260.246	2.525	correct	generate	Run2	generate/STIM_015.jpg
1264.801	2.242	correct	generate	Run2	generate/STIM_015.jpg
1269.946	2.056	correct	generate	Run2	generate/STIM_015.jpg
1274.887	1.774	correct	generate	Run2	generate/STIM_015.jpg
1280.248	2.421	correct	generate	Run2	generate/STIM_016.jpg
1284.968	2.275	incorrect	generate	Run2	generate/STIM_016.jpg
1290.801	1.333	correct	generate	Run2	generate/STIM_016.jpg
1295.471	1.699	incorrect	generate	Run2	generate/STIM_016.jpg
1299.51	2.18	correct	generate	Run2	generate/STIM_016.jpg
1305.001	1.761	incorrect	generate	Run2	generate/STIM_017.jpg
1309.749	2.246	incorrect	generate	Run2	generate/STIM_017.jpg
1314.409	2.085	incorrect	generate	Run2	generate/STIM_017.jpg
1320.223	1.054	correct	generate	Run2	generate/STIM_017.jpg
1323.493	2.079	correct	generate	Run2	generate/STIM_017.jpg
1328.243	2.548	incorrect	generate	Run2	generate/STIM_018.jpg
1333.699	1.257	correct	generate	Run2	generate/STIM_018.jpg
1338.646	2.124	correct	generate	Run2	generate/STIM_018.jpg
1342.972	1.601	correct	generate	Run2	generate/STIM_018.jpg
1348.014	1.871	correct	generate	Run2	generate/STIM_018.jpg
1352.615	2.506	incorrect	generate	Run2	generate/STIM_019.jpg
1358.523	1.451	incorrect	generate	Run2	generate/STIM_019.jpg
1363.637	2.189	incorrect	generate	Run2	generate/STIM_019.jpg
1367.9	2.132	correct	generate	Run2	generate/STIM_019.jpg
1372.588	1.346	correct	generate	Run2	generate/STIM_019.jpg
1377.171	1.169	correct	generate	Run2	generate/STIM_020.jpg
1380.979	2.326	correct	generate	Run2	generate/STIM_020.jpg
1385.939	1.67	correct	generate	Run2	generate/STIM_020.jpg
1390.796	1.21	correct	generate	Run2	generate/STIM_020.jpg
1395.73	1.991	correct	generate	Run2	generate/STIM_020.jpg
1401.0	1.744	correct	generate	Run2	generate/STIM_021.jpg
1405.999	1.993	correct	generate	Run2	generate/STIM_021.jpg
1410.339	1.132	incorrect	generate	Run2	generate/STIM_021.jpg
1414.638	0.956	correct	generate	Run2	generate/STIM_021.jpg
1417.616	1.468	correct	generate	Run2	generate/STIM_021.jpg
1421.533	2.43	correct	generate	Run2	generate/STIM_022.jpg
1427.578	2.058	correct	generate	Run2	generate/STIM_022.jpg
1432.821	2.15	correct	generate	Run2	generate/STIM_022.jpg
1437.37	0.962	correct	generate	Run2	generate/STIM_022.jpg
1440.592	1.55	correct	generate	Run2	generate/STIM_022.jpg
1445.588	2.047	incorrect	generate	Run2	generate/STIM_023.jpg
1450.35	2.33	correct	generate	Run2	generate/STIM_023.jpg
1456.267	2.358	correct	generate	Run2	generate/STIM_023.jpg
1462.579	1.033	correct	generate	Run2	generate/STIM_023.jpg
1467.574	1.001	correct	generate	Run2	generate/STIM_023.jpg
1471.8	1.882	incorrect	generate	Run2	generate/STIM_024.jpg
1477.098	1.496	correct	generate	Run2	generate/STIM_024.jpg
1481.278	1.369	correct	generate	Run2	generate/STIM_024.jpg
1486.547	1.477	correct	generate	Run2	generate/STIM_024.jpg
1491.589	1.732	correct	generate	Run2	generate/STIM_024.jpg
1495.457	0.676	correct	repeat	Run2	repeat/STIM_000.jpg
1499.864	0.608	correct	repeat	Run2	repeat/STIM_000.jpg
1503.075	0.681	correct	repeat	Run2	repeat/STIM_000.jpg
1505.856	0.987	correct	repeat	Run2	repeat/STIM_000.jpg
1509.656	0.651	correct	repeat	Run2	repeat/STIM_000.jpg
1513.902	0.562	correct	repeat	Run2	repeat/STIM_001.jpg
1516.774	0.727	correct	repeat	Run2	repeat/STIM_001.jpg
1520.883	0.679	correct	repeat	Run2	repeat/STIM_001.jpg
1524.453	0.703	correct	repeat	Run2	repeat/STIM_001.jpg
1527.774	0.889	correct	repeat	Run2	repeat/STIM_001.jpg
1531.071	0.938	correct	repeat	Run2	repeat/STIM_002.jpg
1534.626	1.024	correct	repeat	Run2	repeat/STIM_002.jpg
1539.482	0.629	correct	repeat	Run2	repeat/STIM_002.jpg
1543.859	0.955	correct	repeat	Run2	repeat/STIM_002.jpg
1547.312	0.937	correct	repeat	Run2	repeat/STIM_002.jpg
1550.365	1.047	correct	repeat	Run2	repeat/STIM_003.jpg
1553.826	0.765	correct	repeat	Run2	repeat/STIM_003.jpg
1556.993	0.705	correct	repeat	Run2	repeat/STIM_003.jpg
1560.136	1.04	correct	repeat	Run2	repeat/STIM_003.jpg
1564.44	0.56	correct	repeat	Run2	repeat/STIM_003.jpg
1567.195	0.792	correct	repeat	Run2	repeat/STIM_004.jpg
1570.642	1.032	correct	repeat	Run2	repeat/STIM_004.jpg
1574.92	0.547	correct	repeat	Run2	repeat/STIM_004.jpg
1578.33	0.882	correct	repeat	Run2	repeat/STIM_004.jpg
1581.448	0.619	correct	repeat	Run2	repeat/STIM_004.jpg
1584.759	1.046	correct	repeat	Run2	repeat/STIM_005.jpg
1589.537	0.657	incorrect	repeat	Run2	repeat/STIM_005.jpg
1593.244	0.661	correct	repeat	Run2	repeat/STIM_005.jpg
1597.468	0.699	correct	repeat	Run2	repeat/STIM_005.jpg
1600.828	0.586	correct	repeat	Run2	repeat/STIM_005.jpg
1604.059	0.97	correct	repeat	Run2	repeat/STIM_006.jpg
1607.051	0.747	correct	repeat	Run2	repeat/STIM_006.jpg
1611.458	0.648	correct	repeat	Run2	repeat/STIM_006.jpg
1614.895	0.934	correct	repeat	Run2	repeat/STIM_006.jpg
1618.722	0.817	correct	repeat	Run2	repeat/STIM_006.jpg
1623.219	0.627	correct	repeat	Run2	repeat/STIM_007.jpg
1626.047	0.741	correct	repeat	Run2	repeat/STIM_007.jpg
1629.586	0.604	correct	repeat	Run2	repeat/STIM_007.jpg
1632.721	1.043	correct	repeat	Run2	repeat/STIM_007.jpg
1637.157	0.917	correct	repeat	Run2	repeat/STIM_007.jpg
1640.218	1.035	correct	repeat	Run2	repeat/STIM_008.jpg
1644.949	1.033	correct	repeat	Run2	repeat/STIM_008.jpg
1648.898	0.656	correct	repeat	Run2	repeat/STIM_008.jpg
1652.951	0.554	correct	repeat	Run2	repeat/STIM_008.jpg
1656.958	0.951	correct	repeat	Run2	repeat/STIM_008.jpg
1660.867	0.595	correct	repeat	Run2	repeat/STIM_009.jpg
1664.956	1.02	incorrect	repeat	Run2	repeat/STIM_009.jpg
1669.11	0.99	correct	repeat	Run2	repeat/STIM_009.jpg
1673.123	0.87	correct	repeat	Run2	repeat/STIM_009.jpg
1676.815	0.957	correct	repeat	Run2	repeat/STIM_009.jpg
1680.496	0.853	correct	repeat	Run2	repeat/STIM_010.jpg
1684.764	0.614	correct	repeat	Run2	repeat/STIM_010.jpg
1689.147	0.718	correct	repeat	Run2	repeat/STIM_010.jpg
1691.884	0.71	correct	repeat	Run2	repeat/STIM_010.jpg
1695.937	0.705	correct	repeat	Run2	repeat/STIM_010.jpg
1699.468	0.54	correct	repeat	Run2	repeat/STIM_011.jpg
1702.096	0.66	correct	repeat	Run2	repeat/STIM_011.jpg
1706.386	0.615	correct	repeat	Run2	repeat/STIM_011.jpg
1709.133	0.711	correct	repeat	Run2	repeat/STIM_011.jpg
1712.063	0.829	correct	repeat	Run2	repeat/STIM_011.jpg
1715.06	0.878	correct	repeat	Run2	repeat/STIM_012.jpg
1718.293	0.63	correct	repeat	Run2	repeat/STIM_012.jpg
1721.167	0.62	correct	repeat	Run2	repeat/STIM_012.jpg
1725.242	0.549	correct	repeat	Run2	repeat/STIM_012.jpg
1729.626	1.041	incorrect	repeat	Run2	repeat/STIM_012.jpg
1734.581	0.996	correct	repeat	Run2	repeat/STIM_013.jpg
1738.719	0.868	correct	repeat	Run2	repeat/STIM_013.jpg
1741.759	1.037	correct	repeat	Run2	repeat/STIM_013.jpg
1746.296	0.965	correct	repeat	Run2	repeat/STIM_013.jpg
1750.419	0.587	correct	repeat	Run2	repeat/STIM_013.jpg
1753.977	0.679	correct	repeat	Run2	repeat/STIM_014.jpg
1757.724	0.534	correct	repeat	Run2	repeat/STIM_014.jpg
1761.833	0.709	correct	repeat	Run2	repeat/STIM_014.jpg
1764.698	1.011	correct	repeat	Run2	repeat/STIM_014.jpg
1768.462	0.718	correct	repeat	Run2	repeat/STIM_014.jpg
1771.355	1.51	incorrect	generate	Run3	generate/STIM_000.jpg
1774.914	1.114	correct	generate	Run3	generate/STIM_000.jpg
1778.388	1.45	incorrect	generate	Run3	generate/STIM_000.jpg
1782.594	1.295	correct	generate	Run3	generate/STIM_000.jpg
1787.693	2.158	correct	generate	Run3	generate/STIM_000.jpg
1792.365	1.118	correct	generate	Run3	generate/STIM_001.jpg
1796.197	2.059	correct	generate	Run3	generate/STIM_001.jpg
1802.024	1.924	correct	generate	Run3	generate/STIM_001.jpg
1806.432	2.107	correct	generate	Run3	generate/STIM_001.jpg
1811.715	1.918	correct	generate	Run3	generate/STIM_001.jpg
1817.3	1.081	correct	generate	Run3	generate/STIM_002.jpg
1821.171	2.103	correct	generate	Run3	generate/STIM_002.jpg
1826.616	1.482	correct	generate	Run3	generate/STIM_002.jpg
1831.466	0.962	correct	generate	Run3	generate/STIM_002.jpg
1835.098	1.934	correct	generate	Run3	generate/STIM_002.jpg
1840.126	1.861	correct	generate	Run3	generate/STIM_003.jpg
1844.089	1.998	correct	generate	Run3	generate/STIM_003.jpg
1849.051	1.827	correct	generate	Run3	generate/STIM_003.jpg
1852.925	1.214	correct	generate	Run3	generate/STIM_003.jpg
1857.246	1.849	correct	generate	Run3	generate/STIM_003.jpg
1862.88	1.995	correct	generate	Run3	generate/STIM_004.jpg
1867.448	0.91	correct	generate	Run3	generate/STIM_004.jpg
1870.719	1.777	correct	generate	Run3	generate/STIM_004.jpg
1874.898	1.264	correct	generate	Run3	generate/STIM_004.jpg
1878.605	1.25	correct	generate	Run3	generate/STIM_004.jpg
1882.927	1.508	correct	generate	Run3	generate/STIM_005.jpg
1887.77	1.935	correct	generate	Run3	generate/STIM_005.jpg
1893.271	1.249	correct	generate	Run3	generate/STIM_005.jpg
1897.59	1.198	correct	generate	Run3	generate/STIM_005.jpg
1901.816	1.768	correct	generate	Run3	generate/STIM_005.jpg
1906.011	2.226	incorrect	generate	Run3	generate/STIM_006.jpg
1911.31	1.279	correct	generate	Run3	generate/STIM_006.jpg
1915.144	1.007	correct	generate	Run3	generate/STIM_006.jpg
1918.238	1.85	correct	generate	Run3	generate/STIM_006.jpg
1922.983	1.61	correct	generate	Run3	generate/STIM_006.jpg
1927.752	1.054	correct	generate	Run3	generate/STIM_007.jpg
1931.79	0.972	correct	generate	Run3	generate/STIM_007.jpg
1935.676	1.004	incorrect	generate	Run3	generate/STIM_007.jpg
1940.258	2.005	incorrect	generate	Run3	generate/STIM_007.jpg
1945.498	1.406	correct	generate	Run3	generate/STIM_007.jpg
1949.716	1.404	correct	generate	Run3	generate/STIM_008.jpg
1954.542	1.545	correct	generate	Run3	generate/STIM_008.jpg
1958.137	2.165	correct	generate	Run3	generate/STIM_008.jpg
1963.845	2.185	correct	generate	Run3	generate/STIM_008.jpg
1969.592	1.702	correct	generate	Run3	generate/STIM_008.jpg
1974.349	1.305	correct	generate	Run3	generate/STIM_009.jpg
1978.265	1.132	correct	generate	Run3	generate/STIM_009.jpg
1981.433	1.132	correct	generate	Run3	generate/STIM_009.jpg
1984.66	1.39	correct	generate	Run3	generate/STIM_009.jpg
1989.805	1.915	correct	generate	Run3	generate/STIM_009.jpg
1995.272	2.152	correct	generate	Run3	generate/STIM_010.jpg
2001.016	2.112	correct	generate	Run3	generate/STIM_010.jpg
2005.882	1.512	correct	generate	Run3	generate/STIM_010.jpg
2009.439	0.948	correct	generate	Run3	generate/STIM_010.jpg
2013.738	1.296	correct	generate	Run3	generate/STIM_010.jpg
2018.47	2.064	correct	generate	Run3	generate/STIM_011.jpg
2022.949	1.687	correct	generate	Run3	generate/STIM_011.jpg
2027.624	1.133	correct	generate	Run3	generate/STIM_011.jpg
2031.47	0.996	correct	generate	Run3	generate/STIM_011.jpg
2035.489	1.288	correct	generate	Run3	generate/STIM_011.jpg
2040.173	1.542	correct	generate	Run3	generate/STIM_012.jpg
2045.36	1.592	correct	generate	Run3	generate/STIM_012.jpg
2050.228	1.627	correct	generate	Run3	generate/STIM_012.jpg
2054.151	1.127	correct	generate	Run3	generate/STIM_012.jpg
2058.901	1.047	correct	generate	Run3	generate/STIM_012.jpg
2063.548	1.687	correct	generate	Run3	generate/STIM_013.jpg
2068.211	1.698	correct	generate	Run3	generate/STIM_013.jpg
2072.912	1.96	correct	generate	Run3	generate/STIM_013.jpg
2078.686	1.327	correct	generate	Run3	generate/STIM_013.jpg
2082.4	1.532	correct	generate	Run3	generate/STIM_013.jpg
2087.519	0.955	correct	generate	Run3	generate/STIM_014.jpg
2091.336	1.636	correct	generate	Run3	generate/STIM_014.jpg
2096.948	1.752	correct	generate	Run3	generate/STIM_014.jpg
2102.088	1.516	incorrect	generate	Run3	generate/STIM_014.jpg
2107.024	2.007	incorrect	generate	Run3	generate/STIM_014.jpg
2111.168	1.589	correct	generate	Run3	generate/STIM_015.jpg
2116.25	1.237	correct	generate	Run3	generate/STIM_015.jpg
2120.877	2.226	correct	generate	Run3	generate/STIM_015.jpg
2125.21	1.732	incorrect	generate	Run3	generate/STIM_015.jpg
2129.396	1.345	correct	generate	Run3	generate/STIM_015.jpg
2132.822	2.067	correct	generate	Run3	generate/STIM_016.jpg
2138.435	1.954	correct	generate	Run3	generate/STIM_016.jpg
2142.778	1.028	correct	generate	Run3	generate/STIM_016.jpg
2146.832	2.12	correct	generate	Run3	generate/STIM_016.jpg
2151.349	1.358	correct	generate	Run3	generate/STIM_016.jpg
2155.202	1.417	correct	generate	Run3	generate/STIM_017.jpg
2159.153	2.138	correct	generate	Run3	generate/STIM_017.jpg
2163.291	1.146	correct	generate	Run3	generate/STIM_017.jpg
2166.872	1.256	correct	generate	Run3	generate/STIM_017.jpg
2171.548	1.617	correct	generate	Run3	generate/STIM_017.jpg
2176.743	1.53	correct	generate	Run3	generate/STIM_018.jpg
2181.222	1.386	correct	generate	Run3	generate/STIM_018.jpg
2185.876	1.532	correct	generate	Run3	generate/STIM_018.jpg
2189.761	1.086	correct	generate	Run3	generate/STIM_018.jpg
2193.79	1.804	correct	generate	Run3	generate/STIM_018.jpg
2198.858	1.521	correct	generate	Run3	generate/STIM_019.jpg
2203.784	1.84	correct	generate	Run3	generate/STIM_019.jpg
2207.974	1.092	correct	generate	Run3	generate/STIM_019.jpg
2212.753	2.074	incorrect	generate	Run3	generate/STIM_019.jpg
2216.971	1.154	correct	generate	Run3	generate/STIM_019.jpg
2220.445	1.773	correct	generate	Run3	generate/STIM_020.jpg
2225.458	1.653	correct	generate	Run3	generate/STIM_020.jpg
2229.423	1.824	correct	generate	Run3	generate/STIM_020.jpg
2234.329	2.154	correct	generate	Run3	generate/STIM_020.jpg
2238.65	1.298	correct	generate	Run3	generate/STIM_020.jpg
2242.147	1.693	correct	generate	Run3	generate/STIM_021.jpg
2247.018	1.267	correct	generate	Run3	generate/STIM_021.jpg
2251.111	1.229	correct	generate	Run3	generate/STIM_021.jpg
2255.643	1.691	correct	generate	Run3	generate/STIM_021.jpg
2260.596	1.49	correct	generate	Run3	generate/STIM_021.jpg
2265.206	2.038	correct	generate	Run3	generate/STIM_022.jpg
2269.733	1.11	correct	generate	Run3	generate/STIM_022.jpg
2273.042	1.738	correct	generate	Run3	generate/STIM_022.jpg
2278.051	2.037	correct	generate	Run3	generate/STIM_022.jpg
2283.89	1.153	incorrect	generate	Run3	generate/STIM_022.jpg
2288.908	1.264	correct	generate	Run3	generate/STIM_023.jpg
2293.258	1.427	correct	generate	Run3	generate/STIM_023.jpg
2296.932	2.053	correct	generate	Run3	generate/STIM_023.jpg
2302.592	1.393	correct	generate	Run3	generate/STIM_023.jpg
2306.699	1.906	correct	generate	Run3	generate/STIM_023.jpg
2310.721	1.479	correct	generate	Run3	generate/STIM_024.jpg
2314.546	1.872	correct	generate	Run3	generate/STIM_024.jpg
2320.184	2.206	correct	generate	Run3	generate/STIM_024.jpg
2325.469	1.272	correct	generate	Run3	generate/STIM_024.jpg
2329.881	1.924	correct	generate	Run3	generate/STIM_024.jpg
2335.153	0.554	correct	repeat	Run3	repeat/STIM_000.jpg
2338.613	0.998	correct	repeat	Run3	repeat/STIM_000.jpg
2341.929	0.653	correct	repeat	Run3	repeat/STIM_000.jpg
2346.492	0.98	correct	repeat	Run3	repeat/STIM_000.jpg
2349.811	0.836	correct	repeat	Run3	repeat/STIM_000.jpg
2353.169	1.018	correct	repeat	Run3	repeat/STIM_001.jpg
2357.086	0.811	correct	repeat	Run3	repeat/STIM_001.jpg
2360.832	1.042	incorrect	repeat	Run3	repeat/STIM_001.jpg
2364.069	0.6	incorrect	repeat	Run3	repeat/STIM_001.jpg
2367.462	0.617	correct	repeat	Run3	repeat/STIM_001.jpg
2370.129	1.026	correct	repeat	Run3	repeat/STIM_002.jpg
2374.719	0.85	correct	repeat	Run3	repeat/STIM_002.jpg
2378.47	0.72	correct	repeat	Run3	repeat/STIM_002.jpg
2381.895	0.593	correct	repeat	Run3	repeat/STIM_002.jpg
2384.977	0.839	correct	repeat	Run3	repeat/STIM_002.jpg
2388.219	0.615	correct	repeat	Run3	repeat/STIM_003.jpg
2390.932	0.957	correct	repeat	Run3	repeat/STIM_003.jpg
2395.104	0.763	correct	repeat	Run3	repeat/STIM_003.jpg
2399.562	0.908	incorrect	repeat	Run3	repeat/STIM_003.jpg
2404.146	0.648	correct	repeat	Run3	repeat/STIM_003.jpg
2407.13	1.039	correct	repeat	Run3	repeat/STIM_004.jpg
2411.59	0.75	correct	repeat	Run3	repeat/STIM_004.jpg
2414.785	0.76	incorrect	repeat	Run3	repeat/STIM_004.jpg
2418.425	0.757	correct	repeat	Run3	repeat/STIM_004.jpg
2422.523	1.014	correct	repeat	Run3	repeat/STIM_004.jpg
2427.536	0.625	correct	repeat	Run3	repeat/STIM_005.jpg
2431.901	0.536	correct	repeat	Run3	repeat/STIM_005.jpg
2435.863	0.629	correct	repeat	Run3	repeat/STIM_005.jpg
2440.229	0.922	correct	repeat	Run3	repeat/STIM_005.jpg
2443.936	0.812	correct	repeat	Run3	repeat/STIM_005.jpg
2447.405	0.617	correct	repeat	Run3	repeat/STIM_006.jpg
2450.914	1.05	correct	repeat	Run3	repeat/STIM_006.jpg
2455.503	0.738	incorrect	repeat	Run3	repeat/STIM_006.jpg
2459.464	0.802	correct	repeat	Run3	repeat/STIM_006.jpg
2463.674	0.728	incorrect	repeat	Run3	repeat/STIM_006.jpg
2466.419	0.573	correct	repeat	Run3	repeat/STIM_007.jpg
2469.853	1.043	correct	repeat	Run3	repeat/STIM_007.jpg
2473.706	0.675	correct	repeat	Run3	repeat/STIM_007.jpg
2477.077	0.803	correct	repeat	Run3	repeat/STIM_007.jpg
2480.183	0.858	correct	repeat	Run3	repeat/STIM_007.jpg
2484.076	0.738	correct	repeat	Run3	repeat/STIM_008.jpg
2488.306	0.893	correct	repeat	Run3	repeat/STIM_008.jpg
2491.992	0.905	correct	repeat	Run3	repeat/STIM_008.jpg
2496.806	0.86	correct	repeat	Run3	repeat/STIM_008.jpg
2500.963	0.67	correct	repeat	Run3	repeat/STIM_008.jpg
2503.749	0.699	correct	repeat	Run3	repeat/STIM_009.jpg
2506.93	1.009	correct	repeat	Run3	repeat/STIM_009.jpg
2510.411	0.739	incorrect	repeat	Run3	repeat/STIM_009.jpg
2514.584	0.839	correct	repeat	Run3	repeat/STIM_009.jpg
2518.501	0.69	correct	repeat	Run3	repeat/STIM_009.jpg
2522.205	0.875	correct	repeat	Run3	repeat/STIM_010.jpg
2525.527	0.852	correct	repeat	Run3	repeat/STIM_010.jpg
2530.323	0.87	correct	repeat	Run3	repeat/STIM_010.jpg
2534.962	0.72	correct	repeat	Run3	repeat/STIM_010.jpg
2539.293	0.552	incorrect	repeat	Run3	repeat/STIM_010.jpg
2543.486	0.903	incorrect	repeat	Run3	repeat/STIM_011.jpg
2547.767	0.634	incorrect	repeat	Run3	repeat/STIM_011.jpg
2551.313	0.746	correct	repeat	Run3	repeat/STIM_011.jpg
2554.76	0.864	correct	repeat	Run3	repeat/STIM_011.jpg
2559.368	0.891	correct	repeat	Run3	repeat/STIM_011.jpg
2564.113	0.826	correct	repeat	Run3	repeat/STIM_012.jpg
2568.477	0.795	correct	repeat	Run3	repeat/STIM_012.jpg
2571.833	0.852	correct	repeat	Run3	repeat/STIM_012.jpg
2576.103	1.009	correct	repeat	Run3	repeat/STIM_012.jpg
2580.157	0.854	correct	repeat	Run3	repeat/STIM_012.jpg
2583.122	0.915	correct	repeat	Run3	repeat/STIM_013.jpg
2587.484	1.014	correct	repeat	Run3	repeat/STIM_013.jpg
2590.636	0.981	correct	repeat	Run3	repeat/STIM_013.jpg
2594.736	0.652	correct	repeat	Run3	repeat/STIM_013.jpg
2598.309	0.93	correct	repeat	Run3	repeat/STIM_013.jpg
2601.595	0.631	correct	repeat	Run3	repeat/STIM_014.jpg
2606.156	0.678	correct	repeat	Run3	repeat/STIM_014.jpg
2609.42	0.7	correct	repeat	Run3	repeat/STIM_014.jpg
2612.741	0.639	incorrect	repeat	Run3	repeat/STIM_014.jpg
2617.266	0.955	correct	repeat	Run3	repeat/STIM_014.jpg
2621.264	1.189	correct	generate	Run4	generate/STIM_000.jpg
2625.472	1.76	correct	generate	Run4	generate/STIM_000.jpg
2630.271	1.234	correct	generate	Run4	generate/STIM_000.jpg
2633.874	1.599	correct	generate	Run4	generate/STIM_000.jpg
2638.619	1.403	correct	generate	Run4	generate/STIM_000.jpg
2643.617	0.898	correct	generate	Run4	generate/STIM_001.jpg
2648.24	1.772	correct	generate	Run4	generate/STIM_001.jpg
2653.23	1.909	correct	generate	Run4	generate/STIM_001.jpg
2658.008	1.274	correct	generate	Run4	generate/STIM_001.jpg
2662.394	1.837	correct	generate	Run4	generate/STIM_001.jpg
2668.175	1.059	correct	generate	Run4	generate/STIM_002.jpg
2672.783	1.959	correct	generate	Run4	generate/STIM_002.jpg
2678.002	1.302	correct	generate	Run4	generate/STIM_002.jpg
2681.824	2.062	correct	generate	Run4	generate/STIM_002.jpg
2685.939	0.976	incorrect	generate	Run4	generate/STIM_002.jpg
2690.534	1.974	correct	generate	Run4	generate/STIM_003.jpg
2695.857	2.134	incorrect	generate	Run4	generate/STIM_003.jpg
2701.128	1.047	correct	generate	Run4	generate/STIM_003.jpg
2705.394	2.238	correct	generate	Run4	generate/STIM_003.jpg
2710.765	2.095	correct	generate	Run4	generate/STIM_003.jpg
2715.126	1.311	correct	generate	Run4	generate/STIM_004.jpg
2718.527	2.149	correct	generate	Run4	generate/STIM_004.jpg
2724.394	1.397	correct	generate	Run4	generate/STIM_004.jpg
2728.419	1.686	correct	generate	Run4	generate/STIM_004.jpg
2732.348	2.026	correct	generate	Run4	generate/STIM_004.jpg
2738.237	1.564	correct	generate	Run4	generate/STIM_005.jpg
2743.729	1.928	correct	generate	Run4	generate/STIM_005.jpg
2748.306	1.218	correct	generate	Run4	generate/STIM_005.jpg
2753.374	2.06	correct	generate	Run4	generate/STIM_005.jpg
2758.006	1.78	correct	generate	Run4	generate/STIM_005.jpg
2763.509	1.941	correct	generate	Run4	generate/STIM_006.jpg
2768.071	1.295	correct	generate	Run4	generate/STIM_006.jpg
2772.681	2.205	correct	generate	Run4	generate/STIM_006.jpg
2777.169	0.984	correct	generate	Run4	generate/STIM_006.jpg
2780.608	1.855	correct	generate	Run4	generate/STIM_006.jpg
2786.355	1.319	correct	generate	Run4	generate/STIM_007.jpg
2790.253	1.238	correct	generate	Run4	generate/STIM_007.jpg
2794.199	1.754	correct	generate	Run4	generate/STIM_007.jpg
2798.355	1.656	correct	generate	Run4	generate/STIM_007.jpg
2803.01	1.702	correct	generate	Run4	generate/STIM_007.jpg
2807.434	1.174	correct	generate	Run4	generate/STIM_008.jpg
2812.15	1.582	correct	generate	Run4	generate/STIM_008.jpg
2816.679	1.133	correct	generate	Run4	generate/STIM_008.jpg
2820.918	2.147	correct	generate	Run4	generate/STIM_008.jpg
2825.65	0.984	correct	generate	Run4	generate/STIM_008.jpg
2829.655	1.24	correct	generate	Run4	generate/STIM_009.jpg
2834.619	1.859	correct	generate	Run4	generate/STIM_009.jpg
2839.035	1.284	correct	generate	Run4	generate/STIM_009.jpg
2842.472	1.711	correct	generate	Run4	generate/STIM_009.jpg
2847.393	1.244	correct	generate	Run4	generate/STIM_009.jpg
2851.571	1.174	correct	generate	Run4	generate/STIM_010.jpg
2855.528	1.306	incorrect	generate	Run4	generate/STIM_010.jpg
2859.397	2.216	correct	generate	Run4	generate/STIM_010.jpg
2864.892	1.199	correct	generate	Run4	generate/STIM_010.jpg
2869.819	1.66	correct	generate	Run4	generate/STIM_010.jpg
2874.17	2.014	correct	generate	Run4	generate/STIM_011.jpg
2879.876	2.124	correct	generate	Run4	generate/STIM_011.jpg
2884.828	1.036	correct	generate	Run4	generate/STIM_011.jpg
2888.819	0.958	correct	generate	Run4	generate/STIM_011.jpg
2892.674	1.336	correct	generate	Run4	generate/STIM_011.jpg
2896.397	1.979	correct	generate	Run4	generate/STIM_012.jpg
2901.584	1.551	correct	generate	Run4	generate/STIM_012.jpg
2906.579	1.071	correct	generate	Run4	generate/STIM_012.jpg
2910.628	2.015	correct	generate	Run4	generate/STIM_012.jpg
2916.314	1.216	correct	generate	Run4	generate/STIM_012.jpg
2920.294	1.151	incorrect	generate	Run4	generate/STIM_013.jpg
2925.064	1.219	correct	generate	Run4	generate/STIM_013.jpg
2930.113	1.778	correct	generate	Run4	generate/STIM_013.jpg
2935.826	1.962	correct	generate	Run4	generate/STIM_013.jpg
2940.557	1.402	correct	generate	Run4	generate/STIM_013.jpg
2944.87	2.022	correct	generate	Run4	generate/STIM_014.jpg
2949.701	0.975	correct	generate	Run4	generate/STIM_014.jpg
2953.982	0.908	correct	generate	Run4	generate/STIM_014.jpg
2958.101	1.377	correct	generate	Run4	generate/STIM_014.jpg
2961.838	1.613	correct	generate	Run4	generate/STIM_014.jpg
2965.534	1.6	correct	generate	Run4	generate/STIM_015.jpg
2970.578	1.58	incorrect	generate	Run4	generate/STIM_015.jpg
2975.828	2.126	correct	generate	Run4	generate/STIM_015.jpg
2980.284	1.588	incorrect	generate	Run4	generate/STIM_015.jpg
2984.492	1.951	incorrect	generate	Run4	generate/STIM_015.jpg
2989.007	2.143	incorrect	generate	Run4	generate/STIM_016.jpg
2993.837	1.494	correct	generate	Run4	generate/STIM_016.jpg
2998.823	1.733	correct	generate	Run4	generate/STIM_016.jpg
3004.459	1.556	correct	generate	Run4	generate/STIM_016.jpg
3009.091	2.081	correct	generate	Run4	generate/STIM_016.jpg
3014.069	2.117	correct	generate	Run4	generate/STIM_017.jpg
3019.725	1.531	correct	generate	Run4	generate/STIM_017.jpg
3023.892	1.955	correct	generate	Run4	generate/STIM_017.jpg
3028.559	1.703	correct	generate	Run4	generate/STIM_017.jpg
3033.999	1.43	correct	generate	Run4	generate/STIM_017.jpg
3038.657	1.886	correct	generate	Run4	generate/STIM_018.jpg
3042.833	1.723	correct	generate	Run4	generate/STIM_018.jpg
3047.805	1.097	correct	generate	Run4	generate/STIM_018.jpg
3051.577	1.461	correct	generate	Run4	generate/STIM_018.jpg
3056.232	1.876	correct	generate	Run4	generate/STIM_018.jpg
3060.574	0.903	correct	generate	Run4	generate/STIM_019.jpg
3063.515	1.563	correct	generate	Run4	generate/STIM_019.jpg
3068.284	1.937	correct	generate	Run4	generate/STIM_019.jpg
3073.106	1.587	correct	generate	Run4	generate/STIM_019.jpg
3077.327	1.482	correct	generate	Run4	generate/STIM_019.jpg
3081.193	1.408	correct	generate	Run4	generate/STIM_020.jpg
3084.763	1.243	correct	generate	Run4	generate/STIM_020.jpg
3089.688	1.299	correct	generate	Run4	generate/STIM_020.jpg
3094.259	1.244	correct	generate	Run4	generate/STIM_020.jpg
3097.741	2.081	correct	generate	Run4	generate/STIM_020.jpg
3102.052	1.309	correct	generate	Run4	generate/STIM_021.jpg
3106.486	1.964	correct	generate	Run4	generate/STIM_021.jpg
3111.463	0.901	correct	generate	Run4	generate/STIM_021.jpg
3114.795	1.548	correct	generate	Run4	generate/STIM_021.jpg
3119.937	1.476	correct	generate	Run4	generate/STIM_021.jpg
3124.252	1.138	correct	generate	Run4	generate/STIM_022.jpg
3128.213	1.923	correct	generate	Run4	generate/STIM_022.jpg
3133.583	1.785	correct	generate	Run4	generate/STIM_022.jpg
3137.813	1.996	correct	generate	Run4	generate/STIM_022.jpg
3143.087	1.928	correct	generate	Run4	generate/STIM_022.jpg
3148.036	1.264	correct	generate	Run4	generate/STIM_023.jpg
3152.967	1.718	incorrect	generate	Run4	generate/STIM_023.jpg
3157.156	1.096	correct	generate	Run4	generate/STIM_023.jpg
3160.91	1.261	correct	generate	Run4	generate/STIM_023.jpg
3166.02	1.885	correct	generate	Run4	generate/STIM_023.jpg
3171.25	1.21	correct	generate	Run4	generate/STIM_024.jpg
3174.561	1.215	correct	generate	Run4	generate/STIM_024.jpg
3178.406	1.713	correct	generate	Run4	generate/STIM_024.jpg
3182.327	1.333	correct	generate	Run4	generate/STIM_024.jpg
3186.193	1.884	correct	generate	Run4	generate/STIM_024.jpg
3191.898	0.623	correct	repeat	Run4	repeat/STIM_000.jpg
3195.025	0.687	correct	repeat	Run4	repeat/STIM_000.jpg
3198.106	0.685	correct	repeat	Run4	repeat/STIM_000.jpg
3202.094	0.947	incorrect	repeat	Run4	repeat/STIM_000.jpg
3205.432	0.596	correct	repeat	Run4	repeat/STIM_000.jpg
3208.27	0.724	incorrect	repeat	Run4	repeat/STIM_001.jpg
3211.339	0.849	correct	repeat	Run4	repeat/STIM_001.jpg
3214.814	0.772	correct	repeat	Run4	repeat/STIM_001.jpg
3218.411	1.009	correct	repeat	Run4	repeat/STIM_001.jpg
3223.358	0.719	incorrect	repeat	Run4	repeat/STIM_001.jpg
3226.295	0.65	incorrect	repeat	Run4	repeat/STIM_002.jpg
3229.179	0.812	incorrect	repeat	Run4	repeat/STIM_002.jpg
3232.397	0.808	correct	repeat	Run4	repeat/STIM_002.jpg
3236.004	0.802	correct	repeat	Run4	repeat/STIM_002.jpg
3239.446	0.696	correct	repeat	Run4	repeat/STIM_002.jpg
3242.765	0.576	correct	repeat	Run4	repeat/STIM_003.jpg
3246.003	1.012	correct	repeat	Run4	repeat/STIM_003.jpg
3249.757	0.838	correct	repeat	Run4	repeat/STIM_003.jpg
3254.477	1.039	correct	repeat	Run4	repeat/STIM_003.jpg
3258.699	0.612	correct	repeat	Run4	repeat/STIM_003.jpg
3262.282	0.872	correct	repeat	Run4	repeat/STIM_004.jpg
3266.87	0.687	correct	repeat	Run4	repeat/STIM_004.jpg
3271.423	0.966	correct	repeat	Run4	repeat/STIM_004.jpg
3276.078	0.779	correct	repeat	Run4	repeat/STIM_004.jpg
3279.685	1.058	correct	repeat	Run4	repeat/STIM_004.jpg
3284.586	0.827	correct	repeat	Run4	repeat/STIM_005.jpg
3287.897	0.726	correct	repeat	Run4	repeat/STIM_005.jpg
3291.874	0.908	correct	repeat	Run4	repeat/STIM_005.jpg
3295.191	0.768	correct	repeat	Run4	repeat/STIM_005.jpg
3299.362	0.852	correct	repeat	Run4	repeat/STIM_005.jpg
3303.933	0.915	correct	repeat	Run4	repeat/STIM_006.jpg
3307.515	0.975	correct	repeat	Run4	repeat/STIM_006.jpg
3312.372	0.537	incorrect	repeat	Run4	repeat/STIM_006.jpg
3315.918	0.929	incorrect	repeat	Run4	repeat/STIM_006.jpg
3319.761	0.693	correct	repeat	Run4	repeat/STIM_006.jpg
3323.437	0.747	correct	repeat	Run4	repeat/STIM_007.jpg
3327.093	0.598	correct	repeat	Run4	repeat/STIM_007.jpg
3331.482	0.724	correct	repeat	Run4	repeat/STIM_007.jpg
3335.188	0.541	correct	repeat	Run4	repeat/STIM_007.jpg
3338.213	0.98	correct	repeat	Run4	repeat/STIM_007.jpg
3342.187	0.957	correct	repeat	Run4	repeat/STIM_008.jpg
3346.499	0.586	correct	repeat	Run4	repeat/STIM_008.jpg
3350.646	0.738	correct	repeat	Run4	repeat/STIM_008.jpg
3354.607	0.854	correct	repeat	Run4	repeat/STIM_008.jpg
3358.81	0.696	incorrect	repeat	Run4	repeat/STIM_008.jpg
3361.631	0.826	correct	repeat	Run4	repeat/STIM_009.jpg
3366.192	0.63	correct	repeat	Run4	repeat/STIM_009.jpg
3369.463	0.822	correct	repeat	Run4	repeat/STIM_009.jpg
3373.739	0.746	correct	repeat	Run4	repeat/STIM_009.jpg
3376.584	0.603	incorrect	repeat	Run4	repeat/STIM_009.jpg
3379.526	0.897	correct	repeat	Run4	repeat/STIM_010.jpg
3383.818	0.645	correct	repeat	Run4	repeat/STIM_010.jpg
3386.887	0.813	correct	repeat	Run4	repeat/STIM_010.jpg
3390.643	1.066	incorrect	repeat	Run4	repeat/STIM_010.jpg
3394.102	0.639	correct	repeat	Run4	repeat/STIM_010.jpg
3398.692	0.871	correct	repeat	Run4	repeat/STIM_011.jpg
3401.886	0.793	correct	repeat	Run4	repeat/STIM_011.jpg
3406.175	0.639	correct	repeat	Run4	repeat/STIM_011.jpg
3408.955	0.545	correct	repeat	Run4	repeat/STIM_011.jpg
3411.737	0.813	correct	repeat	Run4	repeat/STIM_011.jpg
3416.404	0.936	correct	repeat	Run4	repeat/STIM_012.jpg
3420.15	0.831	correct	repeat	Run4	repeat/STIM_012.jpg
3423.241	0.855	correct	repeat	Run4	repeat/STIM_012.jpg
3426.228	0.941	correct	repeat	Run4	repeat/STIM_012.jpg
3429.479	0.596	correct	repeat	Run4	repeat/STIM_012.jpg
3433.996	1.034	correct	repeat	Run4	repeat/STIM_013.jpg
3438.149	0.649	incorrect	repeat	Run4	repeat/STIM_013.jpg
3442.751	0.662	correct	repeat	Run4	repeat/STIM_013.jpg
3445.562	0.789	correct	repeat	Run4	repeat/STIM_013.jpg
3449.946	0.796	correct	repeat	Run4	repeat/STIM_013.jpg
3454.706	0.584	correct	repeat	Run4	repeat/STIM_014.jpg
3459.22	0.6	incorrect	repeat	Run4	repeat/STIM_014.jpg
3463.135	0.982	correct	repeat	Run4	repeat/STIM_014.jpg
3467.877	0.82	correct	repeat	Run4	repeat/STIM_014.jpg
3470.863	1.065	correct	repeat	Run4	repeat/STIM_014.jpg
