onset	duration	response_time_ms	trial_type	learning_stage	stimulus	response_port
0.0	1.493	1493.0	study	Phase1	study/STIM_000.jpg	100
4.102	1.074	1074.1	study	Phase1	study/STIM_000.jpg	100
7.711	1.145	1145.0	study	Phase1	study/STIM_000.jpg	100
12.611	1.612	1611.9	study	Phase1	study/STIM_001.jpg	99
17.244	1.175	1174.8	study	Phase1	study/STIM_001.jpg	99
21.959	0.867	867.1	study	Phase1	study/STIM_001.jpg	99
25.487	1.498	1498.1	study	Phase1	study/STIM_002.jpg	99
30.444	0.763	763.0	study	Phase1	study/STIM_002.jpg	100
33.837	0.872	872.5	study	Phase1	study/STIM_002.jpg	100
36.916	1.393	1393.3	study	Phase1	study/STIM_003.jpg	99
42.144	1.415	1414.6	study	Phase1	study/STIM_003.jpg	100
46.161	1.514	1514.5	study	Phase1	study/STIM_003.jpg	99
50.097	1.549	1549.4	study	Phase1	study/STIM_004.jpg	100
55.451	1.059	1058.8	study	Phase1	study/STIM_004.jpg	99
59.695	1.273	1272.8	study	Phase1	study/STIM_004.jpg	99
63.477	1.566	1566.1	study	Phase1	study/STIM_005.jpg	99
67.207	1.222	1221.9	study	Phase1	study/STIM_005.jpg	99
71.609	0.844	844.0	study	Phase1	study/STIM_005.jpg	99
74.799	1.161	1161.4	study	Phase1	study/STIM_006.jpg	100
79.256	0.807	807.4	study	Phase1	study/STIM_006.jpg	99
83.404	1.043	1043.4	study	Phase1	study/STIM_006.jpg	100
88.122	1.005	1005.0	study	Phase1	study/STIM_007.jpg	100
92.274	1.379	1378.7	study	Phase1	study/STIM_007.jpg	99
97.415	0.887	887.3	study	Phase1	study/STIM_007.jpg	99
101.507	1.522	1522.0	study	Phase1	study/STIM_008.jpg	100
105.035	0.749	749.0	study	Phase1	study/STIM_008.jpg	99
108.41	1.022	1022.4	study	Phase1	study/STIM_008.jpg	100
111.53	1.62	1620.3	study	Phase1	study/STIM_009.jpg	99
116.23	1.542	1541.5	study	Phase1	study/STIM_009.jpg	100
120.51	1.289	1288.6	study	Phase1	study/STIM_009.jpg	99
125.002	1.375	1375.3	study	Phase1	study/STIM_010.jpg	100
128.904	1.442	1441.5	study	Phase1	study/STIM_010.jpg	100
132.822	1.118	1118.5	study	Phase1	study/STIM_010.jpg	100
136.298	1.451	1451.2	study	Phase1	study/STIM_011.jpg	99
139.881	0.977	976.8	study	Phase1	study/STIM_011.jpg	100
144.347	0.794	794.2	study	Phase1	study/STIM_011.jpg	99
147.787	0.904	904.5	study	Phase1	study/STIM_012.jpg	99
152.546	1.233	1232.9	study	Phase1	study/STIM_012.jpg	100
156.639	1.317	1317.2	study	Phase1	study/STIM_012.jpg	99
161.858	1.554	1553.9	study	Phase1	study/STIM_013.jpg	99
166.746	1.257	1257.3	study	Phase1	study/STIM_013.jpg	100
170.605	0.761	761.3	study	Phase1	study/STIM_013.jpg	99
173.475	0.932	931.7	study	Phase1	study/STIM_014.jpg	99
177.977	0.818	818.3	study	Phase1	study/STIM_014.jpg	100
181.676	1.507	1507.2	study	Phase1	study/STIM_014.jpg	100
186.299	1.373	1373.1	study	Phase1	study/STIM_015.jpg	99
190.814	1.362	1361.6	study	Phase1	study/STIM_015.jpg	99
196.019	1.275	1274.6	study	Phase1	study/STIM_015.jpg	99
200.382	0.986	985.9	study	Phase1	study/STIM_016.jpg	99
205.094	1.305	1305.2	study	Phase1	study/STIM_016.jpg	100
209.554	1.254	1253.9	study	Phase1	study/STIM_016.jpg	100
213.822	1.619	1619.0	study	Phase1	study/STIM_017.jpg	100
218.717	1.44	1439.5	study	Phase1	study/STIM_017.jpg	100
223.121	1.418	1417.5	study	Phase1	study/STIM_017.jpg	99
227.835	0.991	991.3	study	Phase1	study/STIM_018.jpg	99
232.763	1.427	1426.7	study	Phase1	study/STIM_018.jpg	99
236.337	0.735	735.3	study	Phase1	study/STIM_018.jpg	100
240.647	1.395	1394.7	study	Phase1	study/STIM_019.jpg	100
245.879	1.126	1125.5	study	Phase1	study/STIM_019.jpg	99
249.495	1.542	1541.5	study	Phase1	study/STIM_019.jpg	100
253.505	0.978	978.0	study	Phase1	study/STIM_020.jpg	100
256.855	0.906	905.7	study	Phase1	study/STIM_020.jpg	100
260.949	0.925	924.9	study	Phase1	study/STIM_020.jpg	100
264.217	1.326	1325.7	study	Phase1	study/STIM_021.jpg	100
268.181	1.599	1599.2	study	Phase1	study/STIM_021.jpg	99
272.475	1.478	1477.8	study	Phase1	study/STIM_021.jpg	100
277.403	1.074	1074.4	study	Phase1	study/STIM_022.jpg	99
281.424	1.227	1226.7	study	Phase1	study/STIM_022.jpg	99
286.316	1.278	1278.1	study	Phase1	study/STIM_022.jpg	99
290.36	1.276	1276.4	study	Phase1	study/STIM_023.jpg	99
294.185	1.4	1400.3	study	Phase1	study/STIM_023.jpg	100
298.769	0.91	909.8	study	Phase1	study/STIM_023.jpg	99
303.542	0.8	800.0	study	Phase1	study/STIM_024.jpg	99
307.723	0.887	887.1	study	Phase1	study/STIM_024.jpg	100
312.416	1.379	1379.2	study	Phase1	study/STIM_024.jpg	100
316.628	1.348	1348.3	study	Phase1	study/STIM_025.jpg	100
321.705	0.86	860.5	study	Phase1	study/STIM_025.jpg	99
326.195	0.992	991.7	study	Phase1	study/STIM_025.jpg	99
331.133	1.087	1086.6	study	Phase1	study/STIM_026.jpg	99
334.742	1.423	1423.2	study	Phase1	study/STIM_026.jpg	100
339.713	0.891	891.3	study	Phase1	study/STIM_026.jpg	99
344.049	0.861	860.7	study	Phase1	study/STIM_027.jpg	100
347.68	1.513	1512.9	study	Phase1	study/STIM_027.jpg	99
352.614	1.194	1193.5	study	Phase1	study/STIM_027.jpg	100
356.083	0.988	988.2	study	Phase1	study/STIM_028.jpg	99
359.142	1.535	1534.8	study	Phase1	study/STIM_028.jpg	100
362.829	1.186	1186.1	study	Phase1	study/STIM_028.jpg	99
366.191	0.783	783.3	study	Phase1	study/STIM_029.jpg	100
369.918	1.228	1227.7	study	Phase1	study/STIM_029.jpg	100
374.441	1.35	1350.4	study	Phase1	study/STIM_029.jpg	100
378.632	0.669	668.6	test	Phase1	test/STIM_000.jpg	99
382.644	1.114	1113.9	test	Phase1	test/STIM_000.jpg	100
387.751	0.616	616.4	test	Phase1	test/STIM_000.jpg	100
392.232	1.197	1196.9	test	Phase1	test/STIM_001.jpg	100
396.748	1.145	1144.6	test	Phase1	test/STIM_001.jpg	99
401.045	0.878	878.5	test	Phase1	test/STIM_001.jpg	99
404.706	0.772	771.9	test	Phase1	test/STIM_002.jpg	99
408.945	0.575	575.4	test	Phase1	test/STIM_002.jpg	100
411.584	1.185	1185.4	test	Phase1	test/STIM_002.jpg	99
415.136	0.706	706.0	test	Phase1	test/STIM_003.jpg	99
418.778	0.682	682.4	test	Phase1	test/STIM_003.jpg	99
422.213	0.949	949.2	test	Phase1	test/STIM_003.jpg	99
426.713	0.597	597.4	test	Phase1	test/STIM_004.jpg	99
429.342	0.951	950.8	test	Phase1	test/STIM_004.jpg	99
434.015	0.826	826.5	test	Phase1	test/STIM_004.jpg	100
438.671	0.837	837.4	test	Phase1	test/STIM_005.jpg	100
443.372	0.734	734.5	test	Phase1	test/STIM_005.jpg	100
447.142	0.938	938.0	test	Phase1	test/STIM_005.jpg	100
452.018	0.852	851.8	test	Phase1	test/STIM_006.jpg	99
454.987	0.6	600.1	test	Phase1	test/STIM_006.jpg	100
459.422	1.119	1118.8	test	Phase1	test/STIM_006.jpg	99
463.543	1.08	1080.3	test	Phase1	test/STIM_007.jpg	100
467.42	0.636	635.9	test	Phase1	test/STIM_007.jpg	100
471.604	0.892	891.6	test	Phase1	test/STIM_007.jpg	100
475.428	0.806	805.9	test	Phase1	test/STIM_008.jpg	99
479.744	0.704	703.9	test	Phase1	test/STIM_008.jpg	100
483.74	1.114	1113.9	test	Phase1	test/STIM_008.jpg	100
487.632	0.657	657.4	test	Phase1	test/STIM_009.jpg	99
491.801	1.222	1222.3	test	Phase1	test/STIM_009.jpg	100
495.242	1.181	1180.7	test	Phase1	test/STIM_009.jpg	100
500.133	1.016	1015.5	test	Phase1	test/STIM_010.jpg	99
503.3	0.624	623.7	test	Phase1	test/STIM_010.jpg	99
506.147	1.048	1048.4	test	Phase1	test/STIM_010.jpg	99
511.138	0.909	909.3	test	Phase1	test/STIM_011.jpg	100
514.667	0.861	860.6	test	Phase1	test/STIM_011.jpg	100
518.227	0.696	695.8	test	Phase1	test/STIM_011.jpg	99
521.577	0.685	684.9	test	Phase1	test/STIM_012.jpg	100
524.475	1.036	1036.0	test	Phase1	test/STIM_012.jpg	100
527.533	1.088	1088.3	test	Phase1	test/STIM_012.jpg	99
531.458	1.053	1053.4	test	Phase1	test/STIM_013.jpg	99
534.564	0.59	589.6	test	Phase1	test/STIM_013.jpg	100
538.902	1.171	1171.4	test	Phase1	test/STIM_013.jpg	99
542.401	1.066	1065.5	test	Phase1	test/STIM_014.jpg	100
547.417	1.09	1090.2	test	Phase1	test/STIM_014.jpg	99
552.084	1.132	1132.4	test	Phase1	test/STIM_014.jpg	100
555.472	0.92	920.0	test	Phase1	test/STIM_015.jpg	99
560.387	1.175	1174.6	test	Phase1	test/STIM_015.jpg	99
565.058	1.088	1088.3	test	Phase1	test/STIM_015.jpg	99
568.401	1.236	1236.0	test	Phase1	test/STIM_016.jpg	99
572.683	1.009	1008.9	test	Phase1	test/STIM_016.jpg	99
576.709	0.887	887.2	test	Phase1	test/STIM_016.jpg	100
580.528	0.95	949.6	test	Phase1	test/STIM_017.jpg	100
584.264	1.205	1205.3	test	Phase1	test/STIM_017.jpg	99
589.4	0.807	807.1	test	Phase1	test/STIM_017.jpg	99
592.246	1.173	1172.9	test	Phase1	test/STIM_018.jpg	99
595.942	1.17	1170.0	test	Phase1	test/STIM_018.jpg	99
599.988	1.203	1203.4	test	Phase1	test/STIM_018.jpg	100
605.118	0.732	731.9	test	Phase1	test/STIM_019.jpg	99
609.202	1.233	1232.6	test	Phase1	test/STIM_019.jpg	99
613.882	0.692	692.2	test	Phase1	test/STIM_019.jpg	99
618.009	0.882	881.7	test	Phase1	test/STIM_020.jpg	99
622.138	0.625	624.9	test	Phase1	test/STIM_020.jpg	99
625.984	0.942	942.2	test	Phase1	test/STIM_020.jpg	100
630.884	1.177	1176.6	test	Phase1	test/STIM_021.jpg	99
634.13	1.08	1079.9	test	Phase1	test/STIM_021.jpg	99
637.495	1.236	1236.5	test	Phase1	test/STIM_021.jpg	100
642.217	0.783	783.0	test	Phase1	test/STIM_022.jpg	100
645.46	0.62	619.9	test	Phase1	test/STIM_022.jpg	99
649.675	1.188	1188.0	test	Phase1	test/STIM_022.jpg	100
653.659	0.761	760.7	test	Phase1	test/STIM_023.jpg	100
657.355	1.118	1118.4	test	Phase1	test/STIM_023.jpg	99
662.398	0.795	795.0	test	Phase1	test/STIM_023.jpg	99
666.278	0.895	895.0	test	Phase1	test/STIM_024.jpg	100
669.834	1.054	1054.4	test	Phase1	test/STIM_024.jpg	99
672.92	0.619	618.6	test	Phase1	test/STIM_024.jpg	99
676.354	1.027	1027.3	test	Phase1	test/STIM_025.jpg	100
681.007	1.198	1198.0	test	Phase1	test/STIM_025.jpg	100
684.256	0.583	583.3	test	Phase1	test/STIM_025.jpg	99
688.089	0.776	775.6	test	Phase1	test/STIM_026.jpg	100
690.96	0.741	740.7	test	Phase1	test/STIM_026.jpg	99
693.909	0.946	946.5	test	Phase1	test/STIM_026.jpg	99
698.176	1.026	1026.5	test	Phase1	test/STIM_027.jpg	100
702.692	1.233	1233.4	test	Phase1	test/STIM_027.jpg	100
706.844	0.764	764.5	test	Phase1	test/STIM_027.jpg	100
711.294	1.093	1092.8	test	Phase1	test/STIM_028.jpg	100
716.273	0.924	924.5	test	Phase1	test/STIM_028.jpg	100
721.131	0.849	848.8	test	Phase1	test/STIM_028.jpg	99
725.363	0.801	800.9	test	Phase1	test/STIM_029.jpg	99
729.495	0.81	810.0	test	Phase1	test/STIM_029.jpg	100
733.841	0.593	592.8	test	Phase1	test/STIM_029.jpg	100
738.088	0.657	657.3	study	Phase2	study/STIM_000.jpg	99
742.125	1.25	1249.7	study	Phase2	study/STIM_000.jpg	99
747.034	1.178	1178.2	study	Phase2	study/STIM_000.jpg	100
750.851	0.842	842.2	study	Phase2	study/STIM_001.jpg	100
754.841	0.632	632.0	study	Phase2	study/STIM_001.jpg	100
758.218	0.686	686.3	study	Phase2	study/STIM_001.jpg	100
761.524	0.939	938.9	study	Phase2	study/STIM_002.jpg	99
765.172	0.787	786.6	study	Phase2	study/STIM_002.jpg	100
768.314	0.918	917.7	study	Phase2	study/STIM_002.jpg	99
772.728	1.367	1366.6	study	Phase2	study/STIM_003.jpg	99
776.861	0.747	746.9	study	Phase2	study/STIM_003.jpg	100
780.947	1.031	1031.2	study	Phase2	study/STIM_003.jpg	100
784.382	0.658	657.7	study	Phase2	study/STIM_004.jpg	99
787.334	0.63	630.4	study	Phase2	study/STIM_004.jpg	99
791.323	0.955	954.8	study	Phase2	study/STIM_004.jpg	100
794.666	0.994	994.5	study	Phase2	study/STIM_005.jpg	99
798.252	1.26	1260.3	study	Phase2	study/STIM_005.jpg	100
802.762	1.174	1174.5	study	Phase2	study/STIM_005.jpg	100
806.314	0.656	656.5	study	Phase2	study/STIM_006.jpg	99
809.382	1.074	1073.7	study	Phase2	study/STIM_006.jpg	99
812.71	0.871	871.4	study	Phase2	study/STIM_006.jpg	99
816.053	1.326	1325.5	study	Phase2	study/STIM_007.jpg	99
819.891	0.806	806.5	study	Phase2	study/STIM_007.jpg	100
824.121	0.659	658.6	study	Phase2	study/STIM_007.jpg	100
827.813	1.131	1130.9	study	Phase2	study/STIM_008.jpg	100
831.146	1.268	1268.3	study	Phase2	study/STIM_008.jpg	100
835.786	1.12	1119.6	study	Phase2	study/STIM_008.jpg	100
839.941	0.848	848.3	study	Phase2	study/STIM_009.jpg	100
844.376	0.899	898.9	study	Phase2	study/STIM_009.jpg	99
848.317	0.937	937.0	study	Phase2	study/STIM_009.jpg	99
852.426	0.782	781.7	study	Phase2	study/STIM_010.jpg	99
856.066	0.952	952.0	study	Phase2	study/STIM_010.jpg	99
860.521	1.084	1083.7	study	Phase2	study/STIM_010.jpg	100
864.002	1.051	1051.1	study	Phase2	study/STIM_011.jpg	100
867.255	1.322	1322.3	study	Phase2	study/STIM_011.jpg	100
870.66	0.709	708.9	study	Phase2	study/STIM_011.jpg	99
873.911	1.013	1013.3	study	Phase2	study/STIM_012.jpg	100
878.909	1.03	1030.0	study	Phase2	study/STIM_012.jpg	100
882.125	1.001	1000.9	study	Phase2	study/STIM_012.jpg	100
885.653	1.452	1451.9	study	Phase2	study/STIM_013.jpg	100
890.848	0.96	960.0	study	Phase2	study/STIM_013.jpg	100
894.09	1.044	1044.2	study	Phase2	study/STIM_013.jpg	99
898.373	1.321	1321.3	study	Phase2	study/STIM_014.jpg	99
901.896	0.645	645.2	study	Phase2	study/STIM_014.jpg	99
904.791	1.266	1265.6	study	Phase2	study/STIM_014.jpg	99
909.808	0.669	669.1	study	Phase2	study/STIM_015.jpg	100
913.398	0.794	794.4	study	Phase2	study/STIM_015.jpg	100
916.75	1.058	1057.8	study	Phase2	study/STIM_015.jpg	100
920.806	1.006	1005.5	study	Phase2	study/STIM_016.jpg	100
924.406	0.775	774.7	study	Phase2	study/STIM_016.jpg	99
928.123	1.124	1124.4	study	Phase2	study/STIM_016.jpg	99
932.352	1.432	1432.1	study	Phase2	study/STIM_017.jpg	99
937.535	0.972	972.1	study	Phase2	study/STIM_017.jpg	99
941.782	0.924	923.8	study	Phase2	study/STIM_017.jpg	99
946.401	0.701	701.1	study	Phase2	study/STIM_018.jpg	100
950.564	0.746	746.1	study	Phase2	study/STIM_018.jpg	99
954.035	0.806	805.7	study	Phase2	study/STIM_018.jpg	99
957.92	0.895	895.2	study	Phase2	study/STIM_019.jpg	100
962.061	0.861	861.3	study	Phase2	study/STIM_019.jpg	100
966.528	0.672	672.4	study	Phase2	study/STIM_019.jpg	100
969.562	0.741	740.9	study	Phase2	study/STIM_020.jpg	100
973.403	1.27	1270.4	study	Phase2	study/STIM_020.jpg	100
978.563	1.213	1213.4	study	Phase2	study/STIM_020.jpg	100
983.461	0.958	957.8	study	Phase2	study/STIM_021.jpg	100
987.749	1.254	1253.6	study	Phase2	study/STIM_021.jpg	100
992.96	0.58	579.7	study	Phase2	study/STIM_021.jpg	99
996.137	0.738	737.8	study	Phase2	study/STIM_022.jpg	99
1000.468	0.913	913.1	study	Phase2	study/STIM_022.jpg	99
1004.697	0.819	818.9	study	Phase2	study/STIM_022.jpg	100
1008.531	0.998	998.0	study	Phase2	study/STIM_023.jpg	99
1012.451	0.666	665.7	study	Phase2	study/STIM_023.jpg	99
1016.101	1.141	1140.6	study	Phase2	study/STIM_023.jpg	100
1020.042	1.39	1390.3	study	Phase2	study/STIM_024.jpg	99
1025.258	0.912	911.6	study	Phase2	study/STIM_024.jpg	99
1029.156	0.711	711.0	study	Phase2	study/STIM_024.jpg	99
1033.203	1.217	1216.7	study	Phase2	study/STIM_025.jpg	100
1037.428	0.789	789.1	study	Phase2	study/STIM_025.jpg	99
1040.332	0.844	843.7	study	Phase2	study/STIM_025.jpg	99
1044.966	0.679	678.7	study	Phase2	study/STIM_026.jpg	99
1048.667	1.213	1213.4	study	Phase2	study/STIM_026.jpg	100
1053.68	0.82	820.4	study	Phase2	study/STIM_026.jpg	100
1058.031	1.333	1333.0	study	Phase2	study/STIM_027.jpg	100
1061.38	0.752	751.5	study	Phase2	study/STIM_027.jpg	100
1065.353	1.137	1136.8	study	Phase2	study/STIM_027.jpg	99
1070.142	1.451	1451.3	study	Phase2	study/STIM_028.jpg	99
1074.604	0.896	895.9	study	Phase2	study/STIM_028.jpg	100
1078.801	1.077	1077.4	study	Phase2	study/STIM_028.jpg	99
1082.444	1.231	1230.8	study	Phase2	study/STIM_029.jpg	99
1086.718	0.713	712.8	study	Phase2	study/STIM_029.jpg	99
1091.225	0.835	835.1	study	Phase2	study/STIM_029.jpg	100
1095.292	1.236	1236.5	test	Phase2	test/STIM_000.jpg	100
1099.348	1.226	1226.0	test	Phase2	test/STIM_000.jpg	100
1102.787	1.227	1226.9	test	Phase2	test/STIM_000.jpg	100
1107.294	1.215	1215.1	test	Phase2	test/STIM_001.jpg	99
1110.886	0.76	760.2	test	Phase2	test/STIM_001.jpg	99
1114.094	0.756	756.3	test	Phase2	test/STIM_001.jpg	100
1117.664	1.097	1096.6	test	Phase2	test/STIM_002.jpg	99
1121.982	1.22	1219.7	test	Phase2	test/STIM_002.jpg	99
1125.345	0.755	755.3	test	Phase2	test/STIM_002.jpg	99
1130.026	0.824	823.8	test	Phase2	test/STIM_003.jpg	100
1134.15	1.225	1224.8	test	Phase2	test/STIM_003.jpg	99
1138.637	1.086	1085.6	test	Phase2	test/STIM_003.jpg	99
1142.136	0.979	978.7	test	Phase2	test/STIM_004.jpg	99
1145.851	1.141	1141.3	test	Phase2	test/STIM_004.jpg	100
1149.957	0.806	806.0	test	Phase2	test/STIM_004.jpg	99
1153.253	1.039	1038.9	test	Phase2	test/STIM_005.jpg	100
1156.852	0.909	908.8	test	Phase2	test/STIM_005.jpg	100
1160.784	0.967	967.2	test	Phase2	test/STIM_005.jpg	99
1165.131	0.875	875.0	test	Phase2	test/STIM_006.jpg	99
1169.97	0.675	675.4	test	Phase2	test/STIM_006.jpg	99
1174.114	0.832	831.6	test	Phase2	test/STIM_006.jpg	100
1177.539	0.817	817.2	test	Phase2	test/STIM_007.jpg	100
1181.136	1.076	1076.0	test	Phase2	test/STIM_007.jpg	99
1185.709	1.205	1204.9	test	Phase2	test/STIM_007.jpg	99
1189.577	0.785	784.6	test	Phase2	test/STIM_008.jpg	100
1193.175	0.758	757.6	test	Phase2	test/STIM_008.jpg	99
1197.752	0.774	773.9	test	Phase2	test/STIM_008.jpg	100
1201.352	1.164	1163.6	test	Phase2	test/STIM_009.jpg	100
1205.304	1.103	1102.6	test	Phase2	test/STIM_009.jpg	99
1209.746	1.036	1035.8	test	Phase2	test/STIM_009.jpg	100
1212.919	0.885	884.7	test	Phase2	test/STIM_010.jpg	99
1217.63	0.643	642.8	test	Phase2	test/STIM_010.jpg	99
1222.145	0.892	892.1	test	Phase2	test/STIM_010.jpg	99
1226.146	1.17	1170.1	test	Phase2	test/STIM_011.jpg	99
1229.419	0.876	876.1	test	Phase2	test/STIM_011.jpg	99
1233.497	1.038	1037.6	test	Phase2	test/STIM_011.jpg	99
1236.826	0.987	987.3	test	Phase2	test/STIM_012.jpg	100
1241.385	1.082	1082.3	test	Phase2	test/STIM_012.jpg	100
1246.355	0.835	834.9	test	Phase2	test/STIM_012.jpg	100
1249.664	1.174	1174.5	test	Phase2	test/STIM_013.jpg	100
1254.189	0.871	870.9	test	Phase2	test/STIM_013.jpg	99
1258.359	1.236	1236.3	test	Phase2	test/STIM_013.jpg	99
1262.038	0.753	752.9	test	Phase2	test/STIM_014.jpg	100
1266.68	1.205	1205.4	test	Phase2	test/STIM_014.jpg	100
1269.899	0.782	781.7	test	Phase2	test/STIM_014.jpg	100
1274.319	0.849	849.3	test	Phase2	test/STIM_015.jpg	100
1277.421	0.952	952.5	test	Phase2	test/STIM_015.jpg	100
1280.65	0.782	782.2	test	Phase2	test/STIM_015.jpg	99
1285.2	0.952	952.1	test	Phase2	test/STIM_016.jpg	99
1288.975	0.832	831.9	test	Phase2	test/STIM_016.jpg	99
1292.307	1.213	1213.2	test	Phase2	test/STIM_016.jpg	100
1296.207	0.81	810.2	test	Phase2	test/STIM_017.jpg	100
1299.373	0.707	707.1	test	Phase2	test/STIM_017.jpg	100
1302.109	1.058	1057.5	test	Phase2	test/STIM_017.jpg	100
1306.741	0.8	799.7	test	Phase2	test/STIM_018.jpg	100
1311.062	0.875	875.3	test	Phase2	test/STIM_018.jpg	99
1315.158	0.973	973.0	test	Phase2	test/STIM_018.jpg	99
1318.686	0.573	573.4	test	Phase2	test/STIM_019.jpg	99
1321.287	0.775	774.9	test	Phase2	test/STIM_019.jpg	100
1324.525	0.815	814.8	test	Phase2	test/STIM_019.jpg	99
1328.89	0.656	655.6	test	Phase2	test/STIM_020.jpg	100
1331.8	1.102	1101.8	test	Phase2	test/STIM_020.jpg	99
1335.02	1.196	1196.4	test	Phase2	test/STIM_020.jpg	99
1339.095	0.657	657.0	test	Phase2	test/STIM_021.jpg	100
1343.214	1.198	1198.0	test	Phase2	test/STIM_021.jpg	99
1347.381	0.768	768.3	test	Phase2	test/STIM_021.jpg	99
1350.797	1.113	1112.7	test	Phase2	test/STIM_022.jpg	99
1355.787	0.699	698.6	test	Phase2	test/STIM_022.jpg	100
1359.666	1.037	1037.0	test	Phase2	test/STIM_022.jpg	99
1363.958	1.083	1082.7	test	Phase2	test/STIM_023.jpg	99
1367.465	0.958	957.5	test	Phase2	test/STIM_023.jpg	99
1371.639	0.868	868.3	test	Phase2	test/STIM_023.jpg	99
1375.317	1.136	1135.9	test	Phase2	test/STIM_024.jpg	100
1378.64	0.698	697.8	test	Phase2	test/STIM_024.jpg	99
1381.947	0.744	743.8	test	Phase2	test/STIM_024.jpg	99
1384.83	1.205	1205.2	test	Phase2	test/STIM_025.jpg	100
1389.325	1.055	1055.2	test	Phase2	test/STIM_025.jpg	100
1394.128	1.046	1046.1	test	Phase2	test/STIM_025.jpg	100
1398.815	0.718	717.6	test	Phase2	test/STIM_026.jpg	100
1403.513	0.744	744.3	test	Phase2	test/STIM_026.jpg	99
1407.81	1.054	1053.8	test	Phase2	test/STIM_026.jpg	100
1412.656	1.138	1137.6	test	Phase2	test/STIM_027.jpg	99
1416.553	0.795	795.0	test	Phase2	test/STIM_027.jpg	99
1419.579	1.027	1027.1	test	Phase2	test/STIM_027.jpg	100
1423.839	1.091	1090.9	test	Phase2	test/STIM_028.jpg	100
1428.359	1.053	1053.1	test	Phase2	test/STIM_028.jpg	100
1432.036	1.097	1097.3	test	Phase2	test/STIM_028.jpg	100
1437.057	0.681	680.6	test	Phase2	test/STIM_029.jpg	99
1439.92	0.969	969.4	test	Phase2	test/STIM_029.jpg	100
1444.69	1.077	1077.1	test	Phase2	test/STIM_029.jpg	100
1449.001	1.0	1000.2	study	Phase3	study/STIM_000.jpg	100
1453.317	0.594	593.8	study	Phase3	study/STIM_000.jpg	100
1456.634	0.664	663.5	study	Phase3	study/STIM_000.jpg	100
1460.54	0.841	841.2	study	Phase3	study/STIM_001.jpg	99
1463.806	0.928	928.0	study	Phase3	study/STIM_001.jpg	100
1467.23	0.56	560.2	study	Phase3	study/STIM_001.jpg	100
1471.743	0.71	710.0	study	Phase3	study/STIM_002.jpg	100
1475.327	0.894	893.7	study	Phase3	study/STIM_002.jpg	99
1478.485	0.698	698.3	study	Phase3	study/STIM_002.jpg	99
1482.38	0.579	578.8	study	Phase3	study/STIM_003.jpg	100
1485.759	0.963	963.3	study	Phase3	study/STIM_003.jpg	99
1489.89	1.132	1132.0	study	Phase3	study/STIM_003.jpg	99
1493.975	1.019	1018.6	study	Phase3	study/STIM_004.jpg	100
1497.69	0.547	547.1	study	Phase3	study/STIM_004.jpg	99
1502.1	0.784	784.5	study	Phase3	study/STIM_004.jpg	100
1505.415	0.533	532.9	study	Phase3	study/STIM_005.jpg	100
1507.981	0.907	906.7	study	Phase3	study/STIM_005.jpg	99
1511.604	0.801	801.3	study	Phase3	study/STIM_005.jpg	100
1514.938	0.749	748.7	study	Phase3	study/STIM_006.jpg	99
1518.81	1.023	1023.0	study	Phase3	study/STIM_006.jpg	100
1523.751	0.881	881.3	study	Phase3	study/STIM_006.jpg	99
1526.755	0.773	773.4	study	Phase3	study/STIM_007.jpg	99
1529.723	0.645	644.9	study	Phase3	study/STIM_007.jpg	100
1533.345	0.797	796.8	study	Phase3	study/STIM_007.jpg	100
1536.165	0.537	536.9	study	Phase3	study/STIM_008.jpg	99
1539.56	1.054	1054.3	study	Phase3	study/STIM_008.jpg	100
1542.614	0.872	871.5	study	Phase3	study/STIM_008.jpg	99
1545.877	1.196	1195.7	study	Phase3	study/STIM_009.jpg	100
1549.843	0.885	885.1	study	Phase3	study/STIM_009.jpg	100
1553.452	1.132	1132.1	study	Phase3	study/STIM_009.jpg	100
1557.5	0.864	864.4	study	Phase3	study/STIM_010.jpg	100
1561.116	1.153	1153.1	study	Phase3	study/STIM_010.jpg	99
1564.751	1.173	1172.6	study	Phase3	study/STIM_010.jpg	99
1569.637	1.001	1000.9	study	Phase3	study/STIM_011.jpg	99
1573.977	0.81	810.4	study	Phase3	study/STIM_011.jpg	99
1576.802	0.899	898.8	study	Phase3	study/STIM_011.jpg	100
1580.845	1.157	1156.7	study	Phase3	study/STIM_012.jpg	100
1584.634	1.158	1157.5	study	Phase3	study/STIM_012.jpg	99
1588.75	0.621	621.0	study	Phase3	study/STIM_012.jpg	99
1593.165	0.971	971.1	study	Phase3	study/STIM_013.jpg	100
1596.85	0.636	635.7	study	Phase3	study/STIM_013.jpg	100
1600.859	0.793	793.4	study	Phase3	study/STIM_013.jpg	99
1604.587	0.639	639.4	study	Phase3	study/STIM_014.jpg	99
1609.098	1.063	1063.1	study	Phase3	study/STIM_014.jpg	100
1613.023	1.105	1105.1	study	Phase3	study/STIM_014.jpg	100
1617.806	0.926	926.5	study	Phase3	study/STIM_015.jpg	100
1622.5	1.13	1130.3	study	Phase3	study/STIM_015.jpg	100
1626.684	1.018	1018.3	study	Phase3	study/STIM_015.jpg	99
1631.424	1.165	1165.0	study	Phase3	study/STIM_016.jpg	100
1635.112	0.697	697.3	study	Phase3	study/STIM_016.jpg	100
1637.966	1.06	1060.3	study	Phase3	study/STIM_016.jpg	100
1641.187	1.192	1191.7	study	Phase3	study/STIM_017.jpg	100
1646.015	0.861	861.0	study	Phase3	study/STIM_017.jpg	100
1650.212	1.107	1107.0	study	Phase3	study/STIM_017.jpg	100
1653.408	1.189	1189.0	study	Phase3	study/STIM_018.jpg	99
1656.706	0.752	751.8	study	Phase3	study/STIM_018.jpg	99
1660.362	1.12	1120.1	study	Phase3	study/STIM_018.jpg	99
1664.106	0.85	849.9	study	Phase3	study/STIM_019.jpg	100
1667.46	0.645	644.6	study	Phase3	study/STIM_019.jpg	99
1670.915	1.132	1131.6	study	Phase3	study/STIM_019.jpg	100
1675.374	0.722	722.0	study	Phase3	study/STIM_020.jpg	99
1678.451	0.713	712.8	study	Phase3	study/STIM_020.jpg	100
1682.266	1.078	1077.6	study	Phase3	study/STIM_020.jpg	99
1686.165	0.931	931.3	study	Phase3	study/STIM_021.jpg	99
1690.894	1.097	1096.6	study	Phase3	study/STIM_021.jpg	99
1694.762	0.615	614.9	study	Phase3	study/STIM_021.jpg	100
1697.64	0.739	739.4	study	Phase3	study/STIM_022.jpg	99
1701.652	0.964	964.0	study	Phase3	study/STIM_022.jpg	100
1706.103	1.054	1054.2	study	Phase3	study/STIM_022.jpg	99
1709.273	0.63	630.2	study	Phase3	study/STIM_023.jpg	100
1712.776	0.751	751.1	study	Phase3	study/STIM_023.jpg	100
1716.13	0.811	811.1	study	Phase3	study/STIM_023.jpg	100
1719.65	0.995	995.2	study	Phase3	study/STIM_024.jpg	100
1724.091	0.939	938.8	study	Phase3	study/STIM_024.jpg	99
1727.569	0.604	603.9	study	Phase3	study/STIM_024.jpg	100
1730.71	0.916	916.1	study	Phase3	study/STIM_025.jpg	100
1733.702	1.176	1176.1	study	Phase3	study/STIM_025.jpg	99
1738.526	0.98	979.9	study	Phase3	study/STIM_025.jpg	99
1741.678	1.129	1129.3	study	Phase3	study/STIM_026.jpg	100
1746.592	0.66	660.0	study	Phase3	study/STIM_026.jpg	99
1750.497	1.09	1090.1	study	Phase3	study/STIM_026.jpg	100
1754.78	0.746	745.7	study	Phase3	study/STIM_027.jpg	99
1759.331	1.01	1010.5	study	Phase3	study/STIM_027.jpg	100
1764.013	0.865	865.4	study	Phase3	study/STIM_027.jpg	100
1768.208	0.686	686.0	study	Phase3	study/STIM_028.jpg	100
1770.975	1.189	1188.7	study	Phase3	study/STIM_028.jpg	99
1776.135	1.118	1118.2	study	Phase3	study/STIM_028.jpg	100
1779.424	0.674	674.5	study	Phase3	study/STIM_029.jpg	100
1782.504	0.566	565.7	study	Phase3	study/STIM_029.jpg	99
1786.926	1.196	1196.2	study	Phase3	study/STIM_029.jpg	99
1791.343	0.802	801.9	test	Phase3	test/STIM_000.jpg	99
1796.004	1.05	1050.2	test	Phase3	test/STIM_000.jpg	100
1799.549	1.05	1049.8	test	Phase3	test/STIM_000.jpg	99
1803.589	1.11	1110.2	test	Phase3	test/STIM_001.jpg	100
1808.591	1.124	1123.8	test	Phase3	test/STIM_001.jpg	100
1812.821	0.747	747.2	test	Phase3	test/STIM_001.jpg	100
1817.058	0.827	827.4	test	Phase3	test/STIM_002.jpg	100
1821.227	0.846	846.4	test	Phase3	test/STIM_002.jpg	99
1824.767	0.873	873.3	test	Phase3	test/STIM_002.jpg	100
1828.83	0.616	615.5	test	Phase3	test/STIM_003.jpg	99
1831.472	0.706	706.2	test	Phase3	test/STIM_003.jpg	99
1834.322	1.03	1030.4	test	Phase3	test/STIM_003.jpg	100
1838.41	1.001	1001.0	test	Phase3	test/STIM_004.jpg	99
1841.877	0.873	872.9	test	Phase3	test/STIM_004.jpg	100
1846.395	0.776	775.7	test	Phase3	test/STIM_004.jpg	100
1849.554	0.592	592.0	test	Phase3	test/STIM_005.jpg	100
1853.759	1.102	1102.4	test	Phase3	test/STIM_005.jpg	100
1857.133	0.971	971.1	test	Phase3	test/STIM_005.jpg	100
1860.595	1.088	1087.9	test	Phase3	test/STIM_006.jpg	99
1865.327	1.196	1195.5	test	Phase3	test/STIM_006.jpg	99
1869.867	0.805	804.7	test	Phase3	test/STIM_006.jpg	99
1873.115	0.803	803.3	test	Phase3	test/STIM_007.jpg	100
1877.736	0.86	859.8	test	Phase3	test/STIM_007.jpg	100
1881.078	1.113	1112.9	test	Phase3	test/STIM_007.jpg	100
1884.585	0.656	655.7	test	Phase3	test/STIM_008.jpg	100
1887.919	0.737	737.3	test	Phase3	test/STIM_008.jpg	99
1892.143	0.628	627.9	test	Phase3	test/STIM_008.jpg	99
1895.297	1.1	1100.5	test	Phase3	test/STIM_009.jpg	100
1898.832	1.13	1130.4	test	Phase3	test/STIM_009.jpg	100
1902.94	0.844	843.7	test	Phase3	test/STIM_009.jpg	99
1906.271	1.195	1194.8	test	Phase3	test/STIM_010.jpg	99
1910.939	1.095	1094.7	test	Phase3	test/STIM_010.jpg	100
1915.528	0.759	759.0	test	Phase3	test/STIM_010.jpg	100
1919.503	1.182	1182.0	test	Phase3	test/STIM_011.jpg	100
1923.804	1.186	1185.7	test	Phase3	test/STIM_011.jpg	100
1927.577	1.187	1186.7	test	Phase3	test/STIM_011.jpg	100
1931.313	0.684	683.7	test	Phase3	test/STIM_012.jpg	100
1935.285	0.97	969.8	test	Phase3	test/STIM_012.jpg	100
1940.22	0.659	659.1	test	Phase3	test/STIM_012.jpg	100
1944.317	0.878	878.3	test	Phase3	test/STIM_013.jpg	99
1948.442	1.052	1052.5	test	Phase3	test/STIM_013.jpg	100
1952.002	1.051	1050.9	test	Phase3	test/STIM_013.jpg	99
1955.44	0.97	970.3	test	Phase3	test/STIM_014.jpg	100
1959.627	1.11	1109.6	test	Phase3	test/STIM_014.jpg	100
1963.9	1.147	1147.1	test	Phase3	test/STIM_014.jpg	100
1968.098	1.001	1000.7	test	Phase3	test/STIM_015.jpg	99
1972.939	1.225	1225.0	test	Phase3	test/STIM_015.jpg	100
1977.789	1.235	1235.2	test	Phase3	test/STIM_015.jpg	99
1982.793	1.155	1155.4	test	Phase3	test/STIM_016.jpg	100
1986.291	0.799	799.4	test	Phase3	test/STIM_016.jpg	100
1990.163	0.745	744.9	test	Phase3	test/STIM_016.jpg	100
1993.284	1.066	1066.2	test	Phase3	test/STIM_017.jpg	100
1997.346	1.167	1167.0	test	Phase3	test/STIM_017.jpg	100
2000.905	0.854	854.0	test	Phase3	test/STIM_017.jpg	99
2004.809	1.082	1081.5	test	Phase3	test/STIM_018.jpg	100
2008.57	0.677	676.9	test	Phase3	test/STIM_018.jpg	99
2011.687	1.103	1102.8	test	Phase3	test/STIM_018.jpg	99
2016.586	0.632	632.0	test	Phase3	test/STIM_019.jpg	99
2019.481	0.787	787.0	test	Phase3	test/STIM_019.jpg	100
2024.209	0.782	782.3	test	Phase3	test/STIM_019.jpg	100
2028.275	0.789	788.6	test	Phase3	test/STIM_020.jpg	99
2032.984	0.716	715.6	test	Phase3	test/STIM_020.jpg	100
2037.511	0.993	993.0	test	Phase3	test/STIM_020.jpg	100
2041.9	0.84	840.5	test	Phase3	test/STIM_021.jpg	99
2046.262	0.942	942.1	test	Phase3	test/STIM_021.jpg	100
2051.1	0.843	843.1	test	Phase3	test/STIM_021.jpg	99
2054.156	0.635	634.8	test	Phase3	test/STIM_022.jpg	99
2057.416	0.916	916.5	test	Phase3	test/STIM_022.jpg	100
2061.697	0.574	573.7	test	Phase3	test/STIM_022.jpg	99
2064.47	0.588	588.1	test	Phase3	test/STIM_023.jpg	100
2068.772	0.671	671.0	test	Phase3	test/STIM_023.jpg	99
2072.553	0.658	657.8	test	Phase3	test/STIM_023.jpg	99
2076.242	0.95	950.4	test	Phase3	test/STIM_024.jpg	99
2080.895	1.107	1107.3	test	Phase3	test/STIM_024.jpg	100
2085.244	1.218	1217.7	test	Phase3	test/STIM_024.jpg	99
2090.178	0.713	713.1	test	Phase3	test/STIM_025.jpg	99
2094.238	0.633	632.6	test	Phase3	test/STIM_025.jpg	100
2097.664	1.069	1069.0	test	Phase3	test/STIM_025.jpg	99
2101.07	0.799	799.3	test	Phase3	test/STIM_026.jpg	100
2104.554	0.593	592.9	test	Phase3	test/STIM_026.jpg	99
2108.74	1.21	1209.5	test	Phase3	test/STIM_026.jpg	99
2112.68	1.223	1223.2	test	Phase3	test/STIM_027.jpg	100
2117.292	0.812	811.9	test	Phase3	test/STIM_027.jpg	100
2121.088	0.727	727.3	test	Phase3	test/STIM_027.jpg	99
2124.456	0.646	645.8	test	Phase3	test/STIM_028.jpg	100
2128.713	1.202	1202.3	test	Phase3	test/STIM_028.jpg	100
2133.84	1.042	1042.4	test	Phase3	test/STIM_028.jpg	100
2137.724	1.21	1210.3	test	Phase3	test/STIM_029.jpg	100
2141.112	0.764	763.5	test	Phase3	test/STIM_029.jpg	100
2145.523	0.895	895.2	test	Phase3	test/STIM_029.jpg	100
