onset	duration	accuracy	trial_type	learning_stage	stimulus
0.0	1.493	correct	study	Phase1	study/STIM_000.jpg
4.102	1.074	incorrect	study	Phase1	study/STIM_000.jpg
7.711	1.145	correct	study	Phase1	study/STIM_000.jpg
12.611	1.612	correct	study	Phase1	study/STIM_001.jpg
17.244	1.175	correct	study	Phase1	study/STIM_001.jpg
21.959	0.867	correct	study	Phase1	study/STIM_001.jpg
25.487	1.498	correct	study	Phase1	study/STIM_002.jpg
30.444	0.763	correct	study	Phase1	study/STIM_002.jpg
33.837	0.872	correct	study	Phase1	study/STIM_002.jpg
36.916	1.393	correct	study	Phase1	study/STIM_003.jpg
42.144	1.415	incorrect	study	Phase1	study/STIM_003.jpg
46.161	1.514	correct	study	Phase1	study/STIM_003.jpg
50.097	1.549	incorrect	study	Phase1	study/STIM_004.jpg
55.451	1.059	incorrect	study	Phase1	study/STIM_004.jpg
59.695	1.273	incorrect	study	Phase1	study/STIM_004.jpg
63.477	1.566	correct	study	Phase1	study/STIM_005.jpg
67.207	1.222	incorrect	study	Phase1	study/STIM_005.jpg
71.609	0.844	correct	study	Phase1	study/STIM_005.jpg
74.799	1.161	incorrect	study	Phase1	study/STIM_006.jpg
79.256	0.807	correct	study	Phase1	study/STIM_006.jpg
83.404	1.043	correct	study	Phase1	study/STIM_006.jpg
88.122	1.005	incorrect	study	Phase1	study/STIM_007.jpg
92.274	1.379	incorrect	study	Phase1	study/STIM_007.jpg
97.415	0.887	correct	study	Phase1	study/STIM_007.jpg
101.507	1.522	correct	study	Phase1	study/STIM_008.jpg
105.035	0.749	correct	study	Phase1	study/STIM_008.jpg
108.41	1.022	correct	study	Phase1	study/STIM_008.jpg
111.53	1.62	incorrect	study	Phase1	study/STIM_009.jpg
116.23	1.542	incorrect	study	Phase1	study/STIM_009.jpg
120.51	1.289	correct	study	Phase1	study/STIM_009.jpg
125.002	1.375	incorrect	study	Phase1	study/STIM_010.jpg
128.904	1.442	correct	study	Phase1	study/STIM_010.jpg
132.822	1.118	correct	study	Phase1	study/STIM_010.jpg
136.298	1.451	incorrect	study	Phase1	study/STIM_011.jpg
139.881	0.977	correct	study	Phase1	study/STIM_011.jpg
144.347	0.794	correct	study	Phase1	study/STIM_011.jpg
147.787	0.904	incorrect	study	Phase1	study/STIM_012.jpg
152.546	1.233	incorrect	study	Phase1	study/STIM_012.jpg
156.639	1.317	correct	study	Phase1	study/STIM_012.jpg
161.858	1.554	correct	study	Phase1	study/STIM_013.jpg
166.746	1.257	correct	study	Phase1	study/STIM_013.jpg
170.605	0.761	incorrect	study	Phase1	study/STIM_013.jpg
173.475	0.932	incorrect	study	Phase1	study/STIM_014.jpg
177.977	0.818	correct	study	Phase1	study/STIM_014.jpg
181.676	1.507	correct	study	Phase1	study/STIM_014.jpg
186.299	1.373	correct	study	Phase1	study/STIM_015.jpg
190.814	1.362	correct	study	Phase1	study/STIM_015.jpg
196.019	1.275	correct	study	Phase1	study/STIM_015.jpg
200.382	0.986	incorrect	study	Phase1	study/STIM_016.jpg
205.094	1.305	incorrect	study	Phase1	study/STIM_016.jpg
209.554	1.254	correct	study	Phase1	study/STIM_016.jpg
213.822	1.619	incorrect	study	Phase1	study/STIM_017.jpg
218.717	1.44	correct	study	Phase1	study/STIM_017.jpg
223.121	1.418	correct	study	Phase1	study/STIM_017.jpg
227.835	0.991	correct	study	Phase1	study/STIM_018.jpg
232.763	1.427	correct	study	Phase1	study/STIM_018.jpg
236.337	0.735	incorrect	study	Phase1	study/STIM_018.jpg
240.647	1.395	incorrect	study	Phase1	study/STIM_019.jpg
245.879	1.126	correct	study	Phase1	study/STIM_019.jpg
249.495	1.542	correct	study	Phase1	study/STIM_019.jpg
253.505	0.978	correct	study	Phase1	study/STIM_020.jpg
256.855	0.906	correct	study	Phase1	study/STIM_020.jpg
260.949	0.925	incorrect	study	Phase1	study/STIM_020.jpg
264.217	1.326	correct	study	Phase1	study/STIM_021.jpg
268.181	1.599	incorrect	study	Phase1	study/STIM_021.jpg
272.475	1.478	incorrect	study	Phase1	study/STIM_021.jpg
277.403	1.074	correct	study	Phase1	study/STIM_022.jpg
281.424	1.227	incorrect	study	Phase1	study/STIM_022.jpg
286.316	1.278	correct	study	Phase1	study/STIM_022.jpg
290.36	1.276	correct	study	Phase1	study/STIM_023.jpg
294.185	1.4	incorrect	study	Phase1	study/STIM_023.jpg
298.769	0.91	incorrect	study	Phase1	study/STIM_023.jpg
303.542	0.8	correct	study	Phase1	study/STIM_024.jpg
307.723	0.887	correct	study	Phase1	study/STIM_024.jpg
312.416	1.379	correct	study	Phase1	study/STIM_024.jpg
316.628	1.348	correct	study	Phase1	study/STIM_025.jpg
321.705	0.86	correct	study	Phase1	study/STIM_025.jpg
326.195	0.992	correct	study	Phase1	study/STIM_025.jpg
331.133	1.087	incorrect	study	Phase1	study/STIM_026.jpg
334.742	1.423	correct	study	Phase1	study/STIM_026.jpg
339.713	0.891	correct	study	Phase1	study/STIM_026.jpg
344.049	0.861	correct	study	Phase1	study/STIM_027.jpg
347.68	1.513	correct	study	Phase1	study/STIM_027.jpg
352.614	1.194	incorrect	study	Phase1	study/STIM_027.jpg
356.083	0.988	correct	study	Phase1	study/STIM_028.jpg
359.142	1.535	correct	study	Phase1	study/STIM_028.jpg
362.829	1.186	incorrect	study	Phase1	study/STIM_028.jpg
366.191	0.783	correct	study	Phase1	study/STIM_029.jpg
369.918	1.228	incorrect	study	Phase1	study/STIM_029.jpg
374.441	1.35	incorrect	study	Phase1	study/STIM_029.jpg
378.632	0.669	correct	test	Phase1	test/STIM_000.jpg
382.644	1.114	incorrect	test	Phase1	test/STIM_000.jpg
387.751	0.616	correct	test	Phase1	test/STIM_000.jpg
392.232	1.197	correct	test	Phase1	test/STIM_001.jpg
396.748	1.145	correct	test	Phase1	test/STIM_001.jpg
401.045	0.878	correct	test	Phase1	test/STIM_001.jpg
404.706	0.772	correct	test	Phase1	test/STIM_002.jpg
408.945	0.575	correct	test	Phase1	test/STIM_002.jpg
411.584	1.185	correct	test	Phase1	test/STIM_002.jpg
415.136	0.706	correct	test	Phase1	test/STIM_003.jpg
418.778	0.682	correct	test	Phase1	test/STIM_003.jpg
422.213	0.949	correct	test	Phase1	test/STIM_003.jpg
426.713	0.597	correct	test	Phase1	test/STIM_004.jpg
429.342	0.951	incorrect	test	Phase1	test/STIM_004.jpg
434.015	0.826	correct	test	Phase1	test/STIM_004.jpg
438.671	0.837	correct	test	Phase1	test/STIM_005.jpg
443.372	0.734	correct	test	Phase1	test/STIM_005.jpg
447.142	0.938	correct	test	Phase1	test/STIM_005.jpg
452.018	0.852	correct	test	Phase1	test/STIM_006.jpg
454.987	0.6	incorrect	test	Phase1	test/STIM_006.jpg
459.422	1.119	incorrect	test	Phase1	test/STIM_006.jpg
463.543	1.08	correct	test	Phase1	test/STIM_007.jpg
467.42	0.636	correct	test	Phase1	test/STIM_007.jpg
471.604	0.892	incorrect	test	Phase1	test/STIM_007.jpg
475.428	0.806	correct	test	Phase1	test/STIM_008.jpg
479.744	0.704	correct	test	Phase1	test/STIM_008.jpg
483.74	1.114	incorrect	test	Phase1	test/STIM_008.jpg
487.632	0.657	correct	test	Phase1	test/STIM_009.jpg
491.801	1.222	correct	test	Phase1	test/STIM_009.jpg
495.242	1.181	incorrect	test	Phase1	test/STIM_009.jpg
500.133	1.016	correct	test	Phase1	test/STIM_010.jpg
503.3	0.624	correct	test	Phase1	test/STIM_010.jpg
506.147	1.048	incorrect	test	Phase1	test/STIM_010.jpg
511.138	0.909	incorrect	test	Phase1	test/STIM_011.jpg
514.667	0.861	correct	test	Phase1	test/STIM_011.jpg
518.227	0.696	correct	test	Phase1	test/STIM_011.jpg
521.577	0.685	correct	test	Phase1	test/STIM_012.jpg
524.475	1.036	incorrect	test	Phase1	test/STIM_012.jpg
527.533	1.088	incorrect	test	Phase1	test/STIM_012.jpg
531.458	1.053	incorrect	test	Phase1	test/STIM_013.jpg
534.564	0.59	correct	test	Phase1	test/STIM_013.jpg
538.902	1.171	correct	test	Phase1	test/STIM_013.jpg
542.401	1.066	incorrect	test	Phase1	test/STIM_014.jpg
547.417	1.09	correct	test	Phase1	test/STIM_014.jpg
552.084	1.132	correct	test	Phase1	test/STIM_014.jpg
555.472	0.92	correct	test	Phase1	test/STIM_015.jpg
560.387	1.175	incorrect	test	Phase1	test/STIM_015.jpg
565.058	1.088	correct	test	Phase1	test/STIM_015.jpg
568.401	1.236	correct	test	Phase1	test/STIM_016.jpg
572.683	1.009	correct	test	Phase1	test/STIM_016.jpg
576.709	0.887	incorrect	test	Phase1	test/STIM_016.jpg
580.528	0.95	incorrect	test	Phase1	test/STIM_017.jpg
584.264	1.205	correct	test	Phase1	test/STIM_017.jpg
589.4	0.807	correct	test	Phase1	test/STIM_017.jpg
592.246	1.173	incorrect	test	Phase1	test/STIM_018.jpg
595.942	1.17	incorrect	test	Phase1	test/STIM_018.jpg
599.988	1.203	incorrect	test	Phase1	test/STIM_018.jpg
605.118	0.732	incorrect	test	Phase1	test/STIM_019.jpg
609.202	1.233	correct	test	Phase1	test/STIM_019.jpg
613.882	0.692	correct	test	Phase1	test/STIM_019.jpg
618.009	0.882	correct	test	Phase1	test/STIM_020.jpg
622.138	0.625	incorrect	test	Phase1	test/STIM_020.jpg
625.984	0.942	correct	test	Phase1	test/STIM_020.jpg
630.884	1.177	incorrect	test	Phase1	test/STIM_021.jpg
634.13	1.08	correct	test	Phase1	test/STIM_021.jpg
637.495	1.236	correct	test	Phase1	test/STIM_021.jpg
642.217	0.783	correct	test	Phase1	test/STIM_022.jpg
645.46	0.62	correct	test	Phase1	test/STIM_022.jpg
649.675	1.188	correct	test	Phase1	test/STIM_022.jpg
653.659	0.761	incorrect	test	Phase1	test/STIM_023.jpg
657.355	1.118	correct	test	Phase1	test/STIM_023.jpg
662.398	0.795	incorrect	test	Phase1	test/STIM_023.jpg
666.278	0.895	correct	test	Phase1	test/STIM_024.jpg
669.834	1.054	correct	test	Phase1	test/STIM_024.jpg
672.92	0.619	correct	test	Phase1	test/STIM_024.jpg
676.354	1.027	correct	test	Phase1	test/STIM_025.jpg
681.007	1.198	correct	test	Phase1	test/STIM_025.jpg
684.256	0.583	correct	test	Phase1	test/STIM_025.jpg
688.089	0.776	correct	test	Phase1	test/STIM_026.jpg
690.96	0.741	correct	test	Phase1	test/STIM_026.jpg
693.909	0.946	correct	test	Phase1	test/STIM_026.jpg
698.176	1.026	correct	test	Phase1	test/STIM_027.jpg
702.692	1.233	correct	test	Phase1	test/STIM_027.jpg
706.844	0.764	incorrect	test	Phase1	test/STIM_027.jpg
711.294	1.093	incorrect	test	Phase1	test/STIM_028.jpg
716.273	0.924	correct	test	Phase1	test/STIM_028.jpg
721.131	0.849	correct	test	Phase1	test/STIM_028.jpg
725.363	0.801	correct	test	Phase1	test/STIM_029.jpg
729.495	0.81	correct	test	Phase1	test/STIM_029.jpg
733.841	0.593	correct	test	Phase1	test/STIM_029.jpg
738.088	0.657	correct	study	Phase2	study/STIM_000.jpg
742.125	1.25	correct	study	Phase2	study/STIM_000.jpg
747.034	1.178	correct	study	Phase2	study/STIM_000.jpg
750.851	0.842	correct	study	Phase2	study/STIM_001.jpg
754.841	0.632	correct	study	Phase2	study/STIM_001.jpg
758.218	0.686	correct	study	Phase2	study/STIM_001.jpg
761.524	0.939	correct	study	Phase2	study/STIM_002.jpg
765.172	0.787	incorrect	study	Phase2	study/STIM_002.jpg
768.314	0.918	incorrect	study	Phase2	study/STIM_002.jpg
772.728	1.367	correct	study	Phase2	study/STIM_003.jpg
776.861	0.747	correct	study	Phase2	study/STIM_003.jpg
780.947	1.031	correct	study	Phase2	study/STIM_003.jpg
784.382	0.658	correct	study	Phase2	study/STIM_004.jpg
787.334	0.63	correct	study	Phase2	study/STIM_004.jpg
791.323	0.955	correct	study	Phase2	study/STIM_004.jpg
794.666	0.994	incorrect	study	Phase2	study/STIM_005.jpg
798.252	1.26	correct	study	Phase2	study/STIM_005.jpg
802.762	1.174	correct	study	Phase2	study/STIM_005.jpg
806.314	0.656	correct	study	Phase2	study/STIM_006.jpg
809.382	1.074	correct	study	Phase2	study/STIM_006.jpg
812.71	0.871	correct	study	Phase2	study/STIM_006.jpg
816.053	1.326	correct	study	Phase2	study/STIM_007.jpg
819.891	0.806	correct	study	Phase2	study/STIM_007.jpg
824.121	0.659	correct	study	Phase2	study/STIM_007.jpg
827.813	1.131	correct	study	Phase2	study/STIM_008.jpg
831.146	1.268	correct	study	Phase2	study/STIM_008.jpg
835.786	1.12	incorrect	study	Phase2	study/STIM_008.jpg
839.941	0.848	correct	study	Phase2	study/STIM_009.jpg
844.376	0.899	correct	study	Phase2	study/STIM_009.jpg
848.317	0.937	correct	study	Phase2	study/STIM_009.jpg
852.426	0.782	correct	study	Phase2	study/STIM_010.jpg
856.066	0.952	incorrect	study	Phase2	study/STIM_010.jpg
860.521	1.084	incorrect	study	Phase2	study/STIM_010.jpg
864.002	1.051	correct	study	Phase2	study/STIM_011.jpg
867.255	1.322	correct	study	Phase2	study/STIM_011.jpg
870.66	0.709	incorrect	study	Phase2	study/STIM_011.jpg
873.911	1.013	incorrect	study	Phase2	study/STIM_012.jpg
878.909	1.03	correct	study	Phase2	study/STIM_012.jpg
882.125	1.001	correct	study	Phase2	study/STIM_012.jpg
885.653	1.452	correct	study	Phase2	study/STIM_013.jpg
890.848	0.96	incorrect	study	Phase2	study/STIM_013.jpg
894.09	1.044	correct	study	Phase2	study/STIM_013.jpg
898.373	1.321	correct	study	Phase2	study/STIM_014.jpg
901.896	0.645	incorrect	study	Phase2	study/STIM_014.jpg
904.791	1.266	correct	study	Phase2	study/STIM_014.jpg
909.808	0.669	incorrect	study	Phase2	study/STIM_015.jpg
913.398	0.794	correct	study	Phase2	study/STIM_015.jpg
916.75	1.058	incorrect	study	Phase2	study/STIM_015.jpg
920.806	1.006	correct	study	Phase2	study/STIM_016.jpg
924.406	0.775	correct	study	Phase2	study/STIM_016.jpg
928.123	1.124	correct	study	Phase2	study/STIM_016.jpg
932.352	1.432	correct	study	Phase2	study/STIM_017.jpg
937.535	0.972	incorrect	study	Phase2	study/STIM_017.jpg
941.782	0.924	correct	study	Phase2	study/STIM_017.jpg
946.401	0.701	correct	study	Phase2	study/STIM_018.jpg
950.564	0.746	correct	study	Phase2	study/STIM_018.jpg
954.035	0.806	correct	study	Phase2	study/STIM_018.jpg
957.92	0.895	correct	study	Phase2	study/STIM_019.jpg
962.061	0.861	correct	study	Phase2	study/STIM_019.jpg
966.528	0.672	correct	study	Phase2	study/STIM_019.jpg
969.562	0.741	correct	study	Phase2	study/STIM_020.jpg
973.403	1.27	correct	study	Phase2	study/STIM_020.jpg
978.563	1.213	correct	study	Phase2	study/STIM_020.jpg
983.461	0.958	correct	study	Phase2	study/STIM_021.jpg
987.749	1.254	correct	study	Phase2	study/STIM_021.jpg
992.96	0.58	incorrect	study	Phase2	study/STIM_021.jpg
996.137	0.738	correct	study	Phase2	study/STIM_022.jpg
1000.468	0.913	correct	study	Phase2	study/STIM_022.jpg
1004.697	0.819	correct	study	Phase2	study/STIM_022.jpg
1008.531	0.998	correct	study	Phase2	study/STIM_023.jpg
1012.451	0.666	correct	study	Phase2	study/STIM_023.jpg
1016.101	1.141	correct	study	Phase2	study/STIM_023.jpg
1020.042	1.39	correct	study	Phase2	study/STIM_024.jpg
1025.258	0.912	correct	study	Phase2	study/STIM_024.jpg
1029.156	0.711	correct	study	Phase2	study/STIM_024.jpg
1033.203	1.217	correct	study	Phase2	study/STIM_025.jpg
1037.428	0.789	correct	study	Phase2	study/STIM_025.jpg
1040.332	0.844	correct	study	Phase2	study/STIM_025.jpg
1044.966	0.679	incorrect	study	Phase2	study/STIM_026.jpg
1048.667	1.213	incorrect	study	Phase2	study/STIM_026.jpg
1053.68	0.82	incorrect	study	Phase2	study/STIM_026.jpg
1058.031	1.333	correct	study	Phase2	study/STIM_027.jpg
1061.38	0.752	correct	study	Phase2	study/STIM_027.jpg
1065.353	1.137	incorrect	study	Phase2	study/STIM_027.jpg
1070.142	1.451	correct	study	Phase2	study/STIM_028.jpg
1074.604	0.896	correct	study	Phase2	study/STIM_028.jpg
1078.801	1.077	correct	study	Phase2	study/STIM_028.jpg
1082.444	1.231	correct	study	Phase2	study/STIM_029.jpg
1086.718	0.713	correct	study	Phase2	study/STIM_029.jpg
1091.225	0.835	incorrect	study	Phase2	study/STIM_029.jpg
1095.292	1.236	incorrect	test	Phase2	test/STIM_000.jpg
1099.348	1.226	correct	test	Phase2	test/STIM_000.jpg
1102.787	1.227	correct	test	Phase2	test/STIM_000.jpg
1107.294	1.215	incorrect	test	Phase2	test/STIM_001.jpg
1110.886	0.76	correct	test	Phase2	test/STIM_001.jpg
1114.094	0.756	correct	test	Phase2	test/STIM_001.jpg
1117.664	1.097	correct	test	Phase2	test/STIM_002.jpg
1121.982	1.22	incorrect	test	Phase2	test/STIM_002.jpg
1125.345	0.755	correct	test	Phase2	test/STIM_002.jpg
1130.026	0.824	correct	test	Phase2	test/STIM_003.jpg
1134.15	1.225	incorrect	test	Phase2	test/STIM_003.jpg
1138.637	1.086	correct	test	Phase2	test/STIM_003.jpg
1142.136	0.979	incorrect	test	Phase2	test/STIM_004.jpg
1145.851	1.141	correct	test	Phase2	test/STIM_004.jpg
1149.957	0.806	incorrect	test	Phase2	test/STIM_004.jpg
1153.253	1.039	incorrect	test	Phase2	test/STIM_005.jpg
1156.852	0.909	correct	test	Phase2	test/STIM_005.jpg
1160.784	0.967	correct	test	Phase2	test/STIM_005.jpg
1165.131	0.875	correct	test	Phase2	test/STIM_006.jpg
1169.97	0.675	incorrect	test	Phase2	test/STIM_006.jpg
1174.114	0.832	incorrect	test	Phase2	test/STIM_006.jpg
1177.539	0.817	correct	test	Phase2	test/STIM_007.jpg
1181.136	1.076	correct	test	Phase2	test/STIM_007.jpg
1185.709	1.205	correct	test	Phase2	test/STIM_007.jpg
1189.577	0.785	incorrect	test	Phase2	test/STIM_008.jpg
1193.175	0.758	incorrect	test	Phase2	test/STIM_008.jpg
1197.752	0.774	correct	test	Phase2	test/STIM_008.jpg
1201.352	1.164	correct	test	Phase2	test/STIM_009.jpg
1205.304	1.103	correct	test	Phase2	test/STIM_009.jpg
1209.746	1.036	correct	test	Phase2	test/STIM_009.jpg
1212.919	0.885	correct	test	Phase2	test/STIM_010.jpg
1217.63	0.643	incorrect	test	Phase2	test/STIM_010.jpg
1222.145	0.892	correct	test	Phase2	test/STIM_010.jpg
1226.146	1.17	incorrect	test	Phase2	test/STIM_011.jpg
1229.419	0.876	correct	test	Phase2	test/STIM_011.jpg
1233.497	1.038	incorrect	test	Phase2	test/STIM_011.jpg
1236.826	0.987	correct	test	Phase2	test/STIM_012.jpg
1241.385	1.082	correct	test	Phase2	test/STIM_012.jpg
1246.355	0.835	incorrect	test	Phase2	test/STIM_012.jpg
1249.664	1.174	correct	test	Phase2	test/STIM_013.jpg
1254.189	0.871	correct	test	Phase2	test/STIM_013.jpg
1258.359	1.236	incorrect	test	Phase2	test/STIM_013.jpg
1262.038	0.753	correct	test	Phase2	test/STIM_014.jpg
1266.68	1.205	incorrect	test	Phase2	test/STIM_014.jpg
1269.899	0.782	correct	test	Phase2	test/STIM_014.jpg
1274.319	0.849	correct	test	Phase2	test/STIM_015.jpg
1277.421	0.952	correct	test	Phase2	test/STIM_015.jpg
1280.65	0.782	incorrect	test	Phase2	test/STIM_015.jpg
1285.2	0.952	correct	test	Phase2	test/STIM_016.jpg
1288.975	0.832	correct	test	Phase2	test/STIM_016.jpg
1292.307	1.213	correct	test	Phase2	test/STIM_016.jpg
1296.207	0.81	correct	test	Phase2	test/STIM_017.jpg
1299.373	0.707	correct	test	Phase2	test/STIM_017.jpg
1302.109	1.058	correct	test	Phase2	test/STIM_017.jpg
1306.741	0.8	correct	test	Phase2	test/STIM_018.jpg
1311.062	0.875	incorrect	test	Phase2	test/STIM_018.jpg
1315.158	0.973	correct	test	Phase2	test/STIM_018.jpg
1318.686	0.573	correct	test	Phase2	test/STIM_019.jpg
1321.287	0.775	correct	test	Phase2	test/STIM_019.jpg
1324.525	0.815	incorrect	test	Phase2	test/STIM_019.jpg
1328.89	0.656	correct	test	Phase2	test/STIM_020.jpg
1331.8	1.102	correct	test	Phase2	test/STIM_020.jpg
1335.02	1.196	incorrect	test	Phase2	test/STIM_020.jpg
1339.095	0.657	correct	test	Phase2	test/STIM_021.jpg
1343.214	1.198	correct	test	Phase2	test/STIM_021.jpg
1347.381	0.768	correct	test	Phase2	test/STIM_021.jpg
1350.797	1.113	correct	test	Phase2	test/STIM_022.jpg
1355.787	0.699	correct	test	Phase2	test/STIM_022.jpg
1359.666	1.037	incorrect	test	Phase2	test/STIM_022.jpg
1363.958	1.083	correct	test	Phase2	test/STIM_023.jpg
1367.465	0.958	correct	test	Phase2	test/STIM_023.jpg
1371.639	0.868	incorrect	test	Phase2	test/STIM_023.jpg
1375.317	1.136	correct	test	Phase2	test/STIM_024.jpg
1378.64	0.698	correct	test	Phase2	test/STIM_024.jpg
1381.947	0.744	correct	test	Phase2	test/STIM_024.jpg
1384.83	1.205	correct	test	Phase2	test/STIM_025.jpg
1389.325	1.055	incorrect	test	Phase2	test/STIM_025.jpg
1394.128	1.046	correct	test	Phase2	test/STIM_025.jpg
1398.815	0.718	correct	test	Phase2	test/STIM_026.jpg
1403.513	0.744	correct	test	Phase2	test/STIM_026.jpg
1407.81	1.054	correct	test	Phase2	test/STIM_026.jpg
1412.656	1.138	correct	test	Phase2	test/STIM_027.jpg
1416.553	0.795	incorrect	test	Phase2	test/STIM_027.jpg
1419.579	1.027	correct	test	Phase2	test/STIM_027.jpg
1423.839	1.091	correct	test	Phase2	test/STIM_028.jpg
1428.359	1.053	correct	test	Phase2	test/STIM_028.jpg
1432.036	1.097	incorrect	test	Phase2	test/STIM_028.jpg
1437.057	0.681	correct	test	Phase2	test/STIM_029.jpg
1439.92	0.969	correct	test	Phase2	test/STIM_029.jpg
1444.69	1.077	incorrect	test	Phase2	test/STIM_029.jpg
1449.001	1.0	correct	study	Phase3	study/STIM_000.jpg
1453.317	0.594	correct	study	Phase3	study/STIM_000.jpg
1456.634	0.664	correct	study	Phase3	study/STIM_000.jpg
1460.54	0.841	correct	study	Phase3	study/STIM_001.jpg
1463.806	0.928	correct	study	Phase3	study/STIM_001.jpg
1467.23	0.56	correct	study	Phase3	study/STIM_001.jpg
1471.743	0.71	correct	study	Phase3	study/STIM_002.jpg
1475.327	0.894	correct	study	Phase3	study/STIM_002.jpg
1478.485	0.698	correct	study	Phase3	study/STIM_002.jpg
1482.38	0.579	incorrect	study	Phase3	study/STIM_003.jpg
1485.759	0.963	correct	study	Phase3	study/STIM_003.jpg
1489.89	1.132	correct	study	Phase3	study/STIM_003.jpg
1493.975	1.019	correct	study	Phase3	study/STIM_004.jpg
1497.69	0.547	correct	study	Phase3	study/STIM_004.jpg
1502.1	0.784	incorrect	study	Phase3	study/STIM_004.jpg
1505.415	0.533	correct	study	Phase3	study/STIM_005.jpg
1507.981	0.907	correct	study	Phase3	study/STIM_005.jpg
1511.604	0.801	correct	study	Phase3	study/STIM_005.jpg
1514.938	0.749	correct	study	Phase3	study/STIM_006.jpg
1518.81	1.023	correct	study	Phase3	study/STIM_006.jpg
1523.751	0.881	correct	study	Phase3	study/STIM_006.jpg
1526.755	0.773	correct	study	Phase3	study/STIM_007.jpg
1529.723	0.645	correct	study	Phase3	study/STIM_007.jpg
1533.345	0.797	correct	study	Phase3	study/STIM_007.jpg
1536.165	0.537	correct	study	Phase3	study/STIM_008.jpg
1539.56	1.054	correct	study	Phase3	study/STIM_008.jpg
1542.614	0.872	incorrect	study	Phase3	study/STIM_008.jpg
1545.877	1.196	correct	study	Phase3	study/STIM_009.jpg
1549.843	0.885	correct	study	Phase3	study/STIM_009.jpg
1553.452	1.132	correct	study	Phase3	study/STIM_009.jpg
1557.5	0.864	correct	study	Phase3	study/STIM_010.jpg
1561.116	1.153	correct	study	Phase3	study/STIM_010.jpg
1564.751	1.173	correct	study	Phase3	study/STIM_010.jpg
1569.637	1.001	correct	study	Phase3	study/STIM_011.jpg
1573.977	0.81	correct	study	Phase3	study/STIM_011.jpg
1576.802	0.899	correct	study	Phase3	study/STIM_011.jpg
1580.845	1.157	correct	study	Phase3	study/STIM_012.jpg
1584.634	1.158	correct	study	Phase3	study/STIM_012.jpg
1588.75	0.621	correct	study	Phase3	study/STIM_012.jpg
1593.165	0.971	correct	study	Phase3	study/STIM_013.jpg
1596.85	0.636	correct	study	Phase3	study/STIM_013.jpg
1600.859	0.793	correct	study	Phase3	study/STIM_013.jpg
1604.587	0.639	correct	study	Phase3	study/STIM_014.jpg
1609.098	1.063	incorrect	study	Phase3	study/STIM_014.jpg
1613.023	1.105	correct	study	Phase3	study/STIM_014.jpg
1617.806	0.926	correct	study	Phase3	study/STIM_015.jpg
1622.5	1.13	incorrect	study	Phase3	study/STIM_015.jpg
1626.684	1.018	incorrect	study	Phase3	study/STIM_015.jpg
1631.424	1.165	correct	study	Phase3	study/STIM_016.jpg
1635.112	0.697	correct	study	Phase3	study/STIM_016.jpg
1637.966	1.06	correct	study	Phase3	study/STIM_016.jpg
1641.187	1.192	correct	study	Phase3	study/STIM_017.jpg
1646.015	0.861	correct	study	Phase3	study/STIM_017.jpg
1650.212	1.107	incorrect	study	Phase3	study/STIM_017.jpg
1653.408	1.189	correct	study	Phase3	study/STIM_018.jpg
1656.706	0.752	correct	study	Phase3	study/STIM_018.jpg
1660.362	1.12	correct	study	Phase3	study/STIM_018.jpg
1664.106	0.85	correct	study	Phase3	study/STIM_019.jpg
1667.46	0.645	correct	study	Phase3	study/STIM_019.jpg
1670.915	1.132	correct	study	Phase3	study/STIM_019.jpg
1675.374	0.722	incorrect	study	Phase3	study/STIM_020.jpg
1678.451	0.713	correct	study	Phase3	study/STIM_020.jpg
1682.266	1.078	correct	study	Phase3	study/STIM_020.jpg
1686.165	0.931	incorrect	study	Phase3	study/STIM_021.jpg
1690.894	1.097	correct	study	Phase3	study/STIM_021.jpg
1694.762	0.615	correct	study	Phase3	study/STIM_021.jpg
1697.64	0.739	correct	study	Phase3	study/STIM_022.jpg
1701.652	0.964	correct	study	Phase3	study/STIM_022.jpg
1706.103	1.054	correct	study	Phase3	study/STIM_022.jpg
1709.273	0.63	incorrect	study	Phase3	study/STIM_023.jpg
1712.776	0.751	correct	study	Phase3	study/STIM_023.jpg
1716.13	0.811	correct	study	Phase3	study/STIM_023.jpg
1719.65	0.995	correct	study	Phase3	study/STIM_024.jpg
1724.091	0.939	correct	study	Phase3	study/STIM_024.jpg
1727.569	0.604	correct	study	Phase3	study/STIM_024.jpg
1730.71	0.916	correct	study	Phase3	study/STIM_025.jpg
1733.702	1.176	correct	study	Phase3	study/STIM_025.jpg
1738.526	0.98	correct	study	Phase3	study/STIM_025.jpg
1741.678	1.129	correct	study	Phase3	study/STIM_026.jpg
1746.592	0.66	correct	study	Phase3	study/STIM_026.jpg
1750.497	1.09	correct	study	Phase3	study/STIM_026.jpg
1754.78	0.746	correct	study	Phase3	study/STIM_027.jpg
1759.331	1.01	correct	study	Phase3	study/STIM_027.jpg
1764.013	0.865	correct	study	Phase3	study/STIM_027.jpg
1768.208	0.686	correct	study	Phase3	study/STIM_028.jpg
1770.975	1.189	correct	study	Phase3	study/STIM_028.jpg
1776.135	1.118	correct	study	Phase3	study/STIM_028.jpg
1779.424	0.674	incorrect	study	Phase3	study/STIM_029.jpg
1782.504	0.566	correct	study	Phase3	study/STIM_029.jpg
1786.926	1.196	correct	study	Phase3	study/STIM_029.jpg
1791.343	0.802	correct	test	Phase3	test/STIM_000.jpg
1796.004	1.05	correct	test	Phase3	test/STIM_000.jpg
1799.549	1.05	incorrect	test	Phase3	test/STIM_000.jpg
1803.589	1.11	incorrect	test	Phase3	test/STIM_001.jpg
1808.591	1.124	correct	test	Phase3	test/STIM_001.jpg
1812.821	0.747	correct	test	Phase3	test/STIM_001.jpg
1817.058	0.827	incorrect	test	Phase3	test/STIM_002.jpg
1821.227	0.846	correct	test	Phase3	test/STIM_002.jpg
1824.767	0.873	correct	test	Phase3	test/STIM_002.jpg
1828.83	0.616	incorrect	test	Phase3	test/STIM_003.jpg
1831.472	0.706	incorrect	test	Phase3	test/STIM_003.jpg
1834.322	1.03	correct	test	Phase3	test/STIM_003.jpg
1838.41	1.001	incorrect	test	Phase3	test/STIM_004.jpg
1841.877	0.873	correct	test	Phase3	test/STIM_004.jpg
1846.395	0.776	correct	test	Phase3	test/STIM_004.jpg
1849.554	0.592	correct	test	Phase3	test/STIM_005.jpg
1853.759	1.102	correct	test	Phase3	test/STIM_005.jpg
1857.133	0.971	correct	test	Phase3	test/STIM_005.jpg
1860.595	1.088	correct	test	Phase3	test/STIM_006.jpg
1865.327	1.196	correct	test	Phase3	test/STIM_006.jpg
1869.867	0.805	incorrect	test	Phase3	test/STIM_006.jpg
1873.115	0.803	incorrect	test	Phase3	test/STIM_007.jpg
1877.736	0.86	correct	test	Phase3	test/STIM_007.jpg
1881.078	1.113	correct	test	Phase3	test/STIM_007.jpg
1884.585	0.656	incorrect	test	Phase3	test/STIM_008.jpg
1887.919	0.737	correct	test	Phase3	test/STIM_008.jpg
1892.143	0.628	correct	test	Phase3	test/STIM_008.jpg
1895.297	1.1	correct	test	Phase3	test/STIM_009.jpg
1898.832	1.13	correct	test	Phase3	test/STIM_009.jpg
1902.94	0.844	correct	test	Phase3	test/STIM_009.jpg
1906.271	1.195	incorrect	test	Phase3	test/STIM_010.jpg
1910.939	1.095	correct	test	Phase3	test/STIM_010.jpg
1915.528	0.759	correct	test	Phase3	test/STIM_010.jpg
1919.503	1.182	correct	test	Phase3	test/STIM_011.jpg
1923.804	1.186	correct	test	Phase3	test/STIM_011.jpg
1927.577	1.187	correct	test	Phase3	test/STIM_011.jpg
1931.313	0.684	correct	test	Phase3	test/STIM_012.jpg
1935.285	0.97	incorrect	test	Phase3	test/STIM_012.jpg
1940.22	0.659	correct	test	Phase3	test/STIM_012.jpg
1944.317	0.878	correct	test	Phase3	test/STIM_013.jpg
1948.442	1.052	correct	test	Phase3	test/STIM_013.jpg
1952.002	1.051	correct	test	Phase3	test/STIM_013.jpg
1955.44	0.97	correct	test	Phase3	test/STIM_014.jpg
1959.627	1.11	correct	test	Phase3	test/STIM_014.jpg
1963.9	1.147	correct	test	Phase3	test/STIM_014.jpg
1968.098	1.001	correct	test	Phase3	test/STIM_015.jpg
1972.939	1.225	correct	test	Phase3	test/STIM_015.jpg
1977.789	1.235	incorrect	test	Phase3	test/STIM_015.jpg
1982.793	1.155	correct	test	Phase3	test/STIM_016.jpg
1986.291	0.799	correct	test	Phase3	test/STIM_016.jpg
1990.163	0.745	correct	test	Phase3	test/STIM_016.jpg
1993.284	1.066	correct	test	Phase3	test/STIM_017.jpg
1997.346	1.167	correct	test	Phase3	test/STIM_017.jpg
2000.905	0.854	correct	test	Phase3	test/STIM_017.jpg
2004.809	1.082	correct	test	Phase3	test/STIM_018.jpg
2008.57	0.677	correct	test	Phase3	test/STIM_018.jpg
2011.687	1.103	incorrect	test	Phase3	test/STIM_018.jpg
2016.586	0.632	correct	test	Phase3	test/STIM_019.jpg
2019.481	0.787	incorrect	test	Phase3	test/STIM_019.jpg
2024.209	0.782	correct	test	Phase3	test/STIM_019.jpg
2028.275	0.789	correct	test	Phase3	test/STIM_020.jpg
2032.984	0.716	incorrect	test	Phase3	test/STIM_020.jpg
2037.511	0.993	incorrect	test	Phase3	test/STIM_020.jpg
2041.9	0.84	correct	test	Phase3	test/STIM_021.jpg
2046.262	0.942	correct	test	Phase3	test/STIM_021.jpg
2051.1	0.843	incorrect	test	Phase3	test/STIM_021.jpg
2054.156	0.635	correct	test	Phase3	test/STIM_022.jpg
2057.416	0.916	incorrect	test	Phase3	test/STIM_022.jpg
2061.697	0.574	correct	test	Phase3	test/STIM_022.jpg
2064.47	0.588	incorrect	test	Phase3	test/STIM_023.jpg
2068.772	0.671	correct	test	Phase3	test/STIM_023.jpg
2072.553	0.658	correct	test	Phase3	test/STIM_023.jpg
2076.242	0.95	correct	test	Phase3	test/STIM_024.jpg
2080.895	1.107	incorrect	test	Phase3	test/STIM_024.jpg
2085.244	1.218	correct	test	Phase3	test/STIM_024.jpg
2090.178	0.713	correct	test	Phase3	test/STIM_025.jpg
2094.238	0.633	incorrect	test	Phase3	test/STIM_025.jpg
2097.664	1.069	correct	test	Phase3	test/STIM_025.jpg
2101.07	0.799	correct	test	Phase3	test/STIM_026.jpg
2104.554	0.593	correct	test	Phase3	test/STIM_026.jpg
2108.74	1.21	correct	test	Phase3	test/STIM_026.jpg
2112.68	1.223	correct	test	Phase3	test/STIM_027.jpg
2117.292	0.812	correct	test	Phase3	test/STIM_027.jpg
2121.088	0.727	incorrect	test	Phase3	test/STIM_027.jpg
2124.456	0.646	incorrect	test	Phase3	test/STIM_028.jpg
2128.713	1.202	incorrect	test	Phase3	test/STIM_028.jpg
2133.84	1.042	correct	test	Phase3	test/STIM_028.jpg
2137.724	1.21	incorrect	test	Phase3	test/STIM_029.jpg
2141.112	0.764	correct	test	Phase3	test/STIM_029.jpg
2145.523	0.895	incorrect	test	Phase3	test/STIM_029.jpg
