onset	duration	response_time_ms	trial_type	learning_stage	stimulus	response_port
0.0	1.565	1564.6	study	Phase1	study/STIM_000.jpg	100
3.912	0.939	939.4	study	Phase1	study/STIM_000.jpg	100
7.307	0.668	668.2	study	Phase1	study/STIM_000.jpg	100
10.845	1.157	1157.1	study	Phase1	study/STIM_001.jpg	99
14.471	1.299	1299.2	study	Phase1	study/STIM_001.jpg	99
19.223	1.36	1360.1	study	Phase1	study/STIM_001.jpg	99
24.482	1.213	1212.9	study	Phase1	study/STIM_002.jpg	99
29.283	0.771	770.9	study	Phase1	study/STIM_002.jpg	100
32.713	0.77	769.5	study	Phase1	study/STIM_002.jpg	100
37.477	1.205	1204.8	study	Phase1	study/STIM_003.jpg	99
42.421	0.865	864.8	study	Phase1	study/STIM_003.jpg	100
47.096	0.877	877.1	study	Phase1	study/STIM_003.jpg	99
51.189	1.176	1175.5	study	Phase1	study/STIM_004.jpg	100
55.137	1.49	1490.2	study	Phase1	study/STIM_004.jpg	99
60.285	1.23	1229.9	study	Phase1	study/STIM_004.jpg	99
64.394	1.304	1304.5	study	Phase1	study/STIM_005.jpg	99
69.604	1.384	1383.5	study	Phase1	study/STIM_005.jpg	99
74.459	0.806	806.1	study	Phase1	study/STIM_005.jpg	99
78.055	1.119	1118.7	study	Phase1	study/STIM_006.jpg	100
81.606	0.919	919.1	study	Phase1	study/STIM_006.jpg	99
85.492	1.194	1194.0	study	Phase1	study/STIM_006.jpg	100
90.065	1.429	1428.9	study	Phase1	study/STIM_007.jpg	100
94.679	1.044	1044.0	study	Phase1	study/STIM_007.jpg	99
98.712	1.33	1329.7	study	Phase1	study/STIM_007.jpg	99
102.861	0.933	932.6	study	Phase1	study/STIM_008.jpg	100
106.212	0.748	748.1	study	Phase1	study/STIM_008.jpg	99
110.907	0.955	955.4	study	Phase1	study/STIM_008.jpg	100
115.038	0.819	818.9	study	Phase1	study/STIM_009.jpg	99
118.79	1.329	1328.6	study	Phase1	study/STIM_009.jpg	100
122.828	1.26	1260.1	study	Phase1	study/STIM_009.jpg	99
127.921	0.933	933.2	study	Phase1	study/STIM_010.jpg	100
131.643	1.411	1410.8	study	Phase1	study/STIM_010.jpg	100
136.152	0.949	949.2	study	Phase1	study/STIM_010.jpg	100
140.821	1.075	1074.6	study	Phase1	study/STIM_011.jpg	99
145.386	0.962	962.4	study	Phase1	study/STIM_011.jpg	100
149.221	0.778	778.4	study	Phase1	study/STIM_011.jpg	99
153.933	1.147	1146.7	study	Phase1	study/STIM_012.jpg	99
157.517	0.741	741.2	study	Phase1	study/STIM_012.jpg	100
161.428	1.136	1136.2	study	Phase1	study/STIM_012.jpg	99
166.152	0.821	821.4	study	Phase1	study/STIM_013.jpg	99
169.811	1.435	1434.9	study	Phase1	study/STIM_013.jpg	100
174.207	0.972	972.4	study	Phase1	study/STIM_013.jpg	99
178.946	1.103	1103.2	study	Phase1	study/STIM_014.jpg	99
182.891	0.989	989.4	study	Phase1	study/STIM_014.jpg	100
187.689	1.328	1328.0	study	Phase1	study/STIM_014.jpg	100
191.315	1.216	1216.1	study	Phase1	study/STIM_015.jpg	99
196.395	1.035	1035.0	study	Phase1	study/STIM_015.jpg	99
200.306	1.242	1242.5	study	Phase1	study/STIM_015.jpg	99
204.185	0.745	744.7	study	Phase1	study/STIM_016.jpg	99
207.536	0.913	912.9	study	Phase1	study/STIM_016.jpg	100
211.94	1.392	1392.2	study	Phase1	study/STIM_016.jpg	100
216.815	0.758	757.8	study	Phase1	study/STIM_017.jpg	100
220.517	1.32	1320.2	study	Phase1	study/STIM_017.jpg	100
224.948	1.305	1305.1	study	Phase1	study/STIM_017.jpg	99
228.606	1.561	1561.0	study	Phase1	study/STIM_018.jpg	99
234.174	1.126	1125.8	study	Phase1	study/STIM_018.jpg	99
238.324	1.308	1308.2	study	Phase1	study/STIM_018.jpg	100
243.13	1.329	1329.3	study	Phase1	study/STIM_019.jpg	100
247.949	1.194	1194.5	study	Phase1	study/STIM_019.jpg	99
252.032	1.027	1026.6	study	Phase1	study/STIM_019.jpg	100
255.232	1.118	1117.5	study	Phase1	study/STIM_020.jpg	100
260.44	0.969	969.3	study	Phase1	study/STIM_020.jpg	100
263.786	1.28	1280.5	study	Phase1	study/STIM_020.jpg	100
268.212	0.791	791.3	study	Phase1	study/STIM_021.jpg	100
271.524	1.011	1011.4	study	Phase1	study/STIM_021.jpg	99
274.862	1.19	1190.4	study	Phase1	study/STIM_021.jpg	100
278.233	1.155	1155.2	study	Phase1	study/STIM_022.jpg	99
283.228	0.805	805.1	study	Phase1	study/STIM_022.jpg	99
287.533	1.067	1066.7	study	Phase1	study/STIM_022.jpg	99
291.567	1.464	1463.5	study	Phase1	study/STIM_023.jpg	99
296.655	0.919	919.3	study	Phase1	study/STIM_023.jpg	100
301.087	1.194	1193.6	study	Phase1	study/STIM_023.jpg	99
305.935	0.957	957.1	study	Phase1	study/STIM_024.jpg	99
310.905	0.898	898.1	study	Phase1	study/STIM_024.jpg	100
315.311	0.654	653.8	study	Phase1	study/STIM_024.jpg	100
319.506	0.99	989.8	study	Phase1	study/STIM_025.jpg	100
324.571	1.45	1450.3	study	Phase1	study/STIM_025.jpg	99
329.894	0.708	707.9	study	Phase1	study/STIM_025.jpg	99
333.716	1.274	1273.7	study	Phase1	study/STIM_026.jpg	99
337.487	1.474	1474.2	study	Phase1	study/STIM_026.jpg	100
342.306	0.746	745.7	study	Phase1	study/STIM_026.jpg	99
346.294	0.945	944.9	study	Phase1	study/STIM_027.jpg	100
349.869	0.809	808.6	study	Phase1	study/STIM_027.jpg	99
353.133	0.827	826.9	study	Phase1	study/STIM_027.jpg	100
357.852	1.49	1489.7	study	Phase1	study/STIM_028.jpg	99
362.023	1.258	1258.0	study	Phase1	study/STIM_028.jpg	100
366.658	1.398	1397.9	study	Phase1	study/STIM_028.jpg	99
371.18	1.35	1350.2	study	Phase1	study/STIM_029.jpg	100
376.587	0.982	982.2	study	Phase1	study/STIM_029.jpg	100
380.798	1.172	1172.1	study	Phase1	study/STIM_029.jpg	100
385.229	0.922	921.9	test	Phase1	test/STIM_000.jpg	99
389.897	0.926	925.7	test	Phase1	test/STIM_000.jpg	100
394.125	0.9	900.4	test	Phase1	test/STIM_000.jpg	100
398.167	0.609	609.3	test	Phase1	test/STIM_001.jpg	100
401.579	0.686	686.3	test	Phase1	test/STIM_001.jpg	99
405.151	0.895	895.1	test	Phase1	test/STIM_001.jpg	99
409.023	0.663	663.4	test	Phase1	test/STIM_002.jpg	99
413.097	0.779	778.9	test	Phase1	test/STIM_002.jpg	100
416.814	0.872	872.2	test	Phase1	test/STIM_002.jpg	99
419.91	0.997	997.4	test	Phase1	test/STIM_003.jpg	99
424.267	1.049	1049.1	test	Phase1	test/STIM_003.jpg	99
428.099	0.85	850.1	test	Phase1	test/STIM_003.jpg	99
431.349	0.728	728.2	test	Phase1	test/STIM_004.jpg	99
434.404	0.627	626.8	test	Phase1	test/STIM_004.jpg	99
438.918	0.939	938.9	test	Phase1	test/STIM_004.jpg	100
442.756	0.811	810.7	test	Phase1	test/STIM_005.jpg	100
447.625	0.995	994.8	test	Phase1	test/STIM_005.jpg	100
451.141	0.894	894.0	test	Phase1	test/STIM_005.jpg	100
455.216	1.082	1081.8	test	Phase1	test/STIM_006.jpg	99
459.005	1.114	1113.6	test	Phase1	test/STIM_006.jpg	100
463.744	0.789	788.8	test	Phase1	test/STIM_006.jpg	99
467.428	1.128	1127.7	test	Phase1	test/STIM_007.jpg	100
472.677	1.067	1066.9	test	Phase1	test/STIM_007.jpg	100
477.087	0.61	609.9	test	Phase1	test/STIM_007.jpg	100
480.27	0.81	809.9	test	Phase1	test/STIM_008.jpg	99
483.487	1.118	1117.5	test	Phase1	test/STIM_008.jpg	100
487.928	1.088	1088.5	test	Phase1	test/STIM_008.jpg	100
492.449	0.803	802.8	test	Phase1	test/STIM_009.jpg	99
496.326	0.608	607.5	test	Phase1	test/STIM_009.jpg	100
499.024	1.067	1066.6	test	Phase1	test/STIM_009.jpg	100
504.148	0.783	782.6	test	Phase1	test/STIM_010.jpg	99
508.123	0.533	533.2	test	Phase1	test/STIM_010.jpg	99
511.488	1.092	1092.0	test	Phase1	test/STIM_010.jpg	99
516.017	0.779	779.3	test	Phase1	test/STIM_011.jpg	100
519.207	0.568	568.2	test	Phase1	test/STIM_011.jpg	100
522.879	1.083	1083.4	test	Phase1	test/STIM_011.jpg	99
526.269	0.947	947.4	test	Phase1	test/STIM_012.jpg	100
530.2	0.989	988.6	test	Phase1	test/STIM_012.jpg	100
534.607	0.556	556.0	test	Phase1	test/STIM_012.jpg	99
537.38	0.531	531.3	test	Phase1	test/STIM_013.jpg	99
540.247	0.931	930.9	test	Phase1	test/STIM_013.jpg	100
544.715	0.642	642.0	test	Phase1	test/STIM_013.jpg	99
549.255	1.022	1021.6	test	Phase1	test/STIM_014.jpg	100
553.345	0.919	919.4	test	Phase1	test/STIM_014.jpg	99
556.769	1.128	1128.5	test	Phase1	test/STIM_014.jpg	100
560.145	0.741	741.2	test	Phase1	test/STIM_015.jpg	99
563.128	0.89	890.1	test	Phase1	test/STIM_015.jpg	99
566.302	0.817	817.4	test	Phase1	test/STIM_015.jpg	99
570.526	0.705	705.0	test	Phase1	test/STIM_016.jpg	99
575.019	0.617	616.7	test	Phase1	test/STIM_016.jpg	99
577.956	0.666	666.1	test	Phase1	test/STIM_016.jpg	100
582.098	0.919	918.7	test	Phase1	test/STIM_017.jpg	100
585.79	0.58	579.8	test	Phase1	test/STIM_017.jpg	99
589.212	0.94	940.0	test	Phase1	test/STIM_017.jpg	99
594.187	0.64	640.0	test	Phase1	test/STIM_018.jpg	99
597.68	0.564	563.9	test	Phase1	test/STIM_018.jpg	99
601.06	0.572	571.8	test	Phase1	test/STIM_018.jpg	100
603.764	0.927	926.9	test	Phase1	test/STIM_019.jpg	99
607.285	0.844	844.4	test	Phase1	test/STIM_019.jpg	99
610.729	0.712	712.5	test	Phase1	test/STIM_019.jpg	99
614.909	0.974	973.6	test	Phase1	test/STIM_020.jpg	99
619.395	1.138	1138.1	test	Phase1	test/STIM_020.jpg	99
624.114	1.047	1047.1	test	Phase1	test/STIM_020.jpg	100
628.553	0.783	783.3	test	Phase1	test/STIM_021.jpg	99
632.713	1.079	1079.0	test	Phase1	test/STIM_021.jpg	99
637.34	0.886	886.0	test	Phase1	test/STIM_021.jpg	100
642.054	1.132	1131.5	test	Phase1	test/STIM_022.jpg	100
646.755	1.003	1002.6	test	Phase1	test/STIM_022.jpg	99
651.799	1.008	1007.7	test	Phase1	test/STIM_022.jpg	100
654.989	0.791	790.6	test	Phase1	test/STIM_023.jpg	100
657.923	0.659	658.7	test	Phase1	test/STIM_023.jpg	99
661.538	0.694	694.3	test	Phase1	test/STIM_023.jpg	99
666.149	0.956	955.5	test	Phase1	test/STIM_024.jpg	100
669.328	1.072	1071.5	test	Phase1	test/STIM_024.jpg	99
673.907	0.751	750.8	test	Phase1	test/STIM_024.jpg	99
678.15	0.586	586.3	test	Phase1	test/STIM_025.jpg	100
682.68	1.09	1090.5	test	Phase1	test/STIM_025.jpg	100
687.223	0.796	796.2	test	Phase1	test/STIM_025.jpg	99
691.018	1.044	1044.3	test	Phase1	test/STIM_026.jpg	100
695.385	0.764	763.6	test	Phase1	test/STIM_026.jpg	99
699.898	0.746	745.6	test	Phase1	test/STIM_026.jpg	99
703.567	0.799	799.4	test	Phase1	test/STIM_027.jpg	100
707.451	0.577	577.4	test	Phase1	test/STIM_027.jpg	100
711.176	0.603	603.1	test	Phase1	test/STIM_027.jpg	100
715.094	0.943	942.6	test	Phase1	test/STIM_028.jpg	100
719.678	0.783	782.9	test	Phase1	test/STIM_028.jpg	100
724.092	1.05	1049.8	test	Phase1	test/STIM_028.jpg	99
728.222	0.717	717.3	test	Phase1	test/STIM_029.jpg	99
731.512	1.01	1009.8	test	Phase1	test/STIM_029.jpg	100
735.551	0.553	553.4	test	Phase1	test/STIM_029.jpg	100
739.353	0.706	706.3	study	Phase2	study/STIM_000.jpg	99
742.426	0.686	686.0	study	Phase2	study/STIM_000.jpg	99
746.563	0.868	867.5	study	Phase2	study/STIM_000.jpg	100
750.803	0.954	953.6	study	Phase2	study/STIM_001.jpg	100
754.689	0.765	764.6	study	Phase2	study/STIM_001.jpg	100
758.433	1.174	1173.9	study	Phase2	study/STIM_001.jpg	100
763.308	1.168	1167.6	study	Phase2	study/STIM_002.jpg	99
768.167	1.063	1063.0	study	Phase2	study/STIM_002.jpg	100
772.565	0.66	659.8	study	Phase2	study/STIM_002.jpg	99
776.61	1.325	1324.9	study	Phase2	study/STIM_003.jpg	99
781.112	1.125	1125.3	study	Phase2	study/STIM_003.jpg	100
785.332	0.562	562.0	study	Phase2	study/STIM_003.jpg	100
789.768	1.31	1310.1	study	Phase2	study/STIM_004.jpg	99
793.822	1.001	1000.7	study	Phase2	study/STIM_004.jpg	99
798.943	0.908	908.3	study	Phase2	study/STIM_004.jpg	100
803.151	0.785	784.6	study	Phase2	study/STIM_005.jpg	99
807.8	1.114	1113.8	study	Phase2	study/STIM_005.jpg	100
812.378	1.027	1026.9	study	Phase2	study/STIM_005.jpg	100
816.429	1.149	1149.0	study	Phase2	study/STIM_006.jpg	99
821.572	0.573	572.7	study	Phase2	study/STIM_006.jpg	99
825.578	0.742	741.7	study	Phase2	study/STIM_006.jpg	99
828.631	0.629	629.4	study	Phase2	study/STIM_007.jpg	99
832.874	1.029	1029.2	study	Phase2	study/STIM_007.jpg	100
836.15	0.719	718.9	study	Phase2	study/STIM_007.jpg	100
839.499	0.783	782.8	study	Phase2	study/STIM_008.jpg	100
842.933	0.735	734.8	study	Phase2	study/STIM_008.jpg	100
847.192	0.888	888.3	study	Phase2	study/STIM_008.jpg	100
851.118	1.325	1324.9	study	Phase2	study/STIM_009.jpg	100
854.649	0.798	798.1	study	Phase2	study/STIM_009.jpg	99
859.15	0.823	822.9	study	Phase2	study/STIM_009.jpg	99
863.365	1.265	1265.0	study	Phase2	study/STIM_010.jpg	99
868.733	1.242	1242.5	study	Phase2	study/STIM_010.jpg	99
873.345	0.743	743.1	study	Phase2	study/STIM_010.jpg	100
876.812	1.315	1314.8	study	Phase2	study/STIM_011.jpg	100
882.305	0.768	768.4	study	Phase2	study/STIM_011.jpg	100
885.643	1.147	1146.9	study	Phase2	study/STIM_011.jpg	99
889.198	0.703	702.9	study	Phase2	study/STIM_012.jpg	100
893.092	1.046	1046.0	study	Phase2	study/STIM_012.jpg	100
897.025	0.94	940.1	study	Phase2	study/STIM_012.jpg	100
900.729	0.678	678.1	study	Phase2	study/STIM_013.jpg	100
904.871	0.624	624.3	study	Phase2	study/STIM_013.jpg	100
909.311	0.549	549.4	study	Phase2	study/STIM_013.jpg	99
912.388	1.138	1138.4	study	Phase2	study/STIM_014.jpg	99
916.385	0.916	916.4	study	Phase2	study/STIM_014.jpg	99
920.905	0.906	906.2	study	Phase2	study/STIM_014.jpg	99
924.243	0.805	804.7	study	Phase2	study/STIM_015.jpg	100
928.819	0.654	653.9	study	Phase2	study/STIM_015.jpg	100
933.291	0.726	726.1	study	Phase2	study/STIM_015.jpg	100
936.926	0.937	937.4	study	Phase2	study/STIM_016.jpg	100
940.837	0.644	643.8	study	Phase2	study/STIM_016.jpg	99
944.815	0.955	955.0	study	Phase2	study/STIM_016.jpg	99
948.455	0.824	823.6	study	Phase2	study/STIM_017.jpg	99
952.422	1.149	1149.0	study	Phase2	study/STIM_017.jpg	99
955.791	0.76	760.0	study	Phase2	study/STIM_017.jpg	99
960.442	0.823	822.8	study	Phase2	study/STIM_018.jpg	100
963.423	0.62	619.5	study	Phase2	study/STIM_018.jpg	99
967.048	0.648	648.1	study	Phase2	study/STIM_018.jpg	99
971.496	1.26	1259.5	study	Phase2	study/STIM_019.jpg	100
976.337	0.993	992.7	study	Phase2	study/STIM_019.jpg	100
979.726	0.903	902.8	study	Phase2	study/STIM_019.jpg	100
983.69	0.652	652.5	study	Phase2	study/STIM_020.jpg	100
987.997	0.712	712.3	study	Phase2	study/STIM_020.jpg	100
992.301	0.708	708.5	study	Phase2	study/STIM_020.jpg	100
996.196	0.665	664.8	study	Phase2	study/STIM_021.jpg	100
999.244	0.596	596.5	study	Phase2	study/STIM_021.jpg	100
1002.584	1.054	1053.7	study	Phase2	study/STIM_021.jpg	99
1006.495	0.606	606.1	study	Phase2	study/STIM_022.jpg	99
1010.206	0.954	954.2	study	Phase2	study/STIM_022.jpg	99
1014.962	0.663	662.6	study	Phase2	study/STIM_022.jpg	100
1018.022	0.623	622.6	study	Phase2	study/STIM_023.jpg	99
1021.55	0.817	817.4	study	Phase2	study/STIM_023.jpg	99
1026.077	0.845	845.3	study	Phase2	study/STIM_023.jpg	100
1031.019	1.232	1232.0	study	Phase2	study/STIM_024.jpg	99
1035.185	0.99	989.9	study	Phase2	study/STIM_024.jpg	99
1039.054	0.53	530.4	study	Phase2	study/STIM_024.jpg	99
1042.238	0.884	884.1	study	Phase2	study/STIM_025.jpg	100
1045.805	0.889	888.6	study	Phase2	study/STIM_025.jpg	99
1050.69	1.067	1067.3	study	Phase2	study/STIM_025.jpg	99
1055.859	0.672	672.1	study	Phase2	study/STIM_026.jpg	99
1059.562	0.825	824.7	study	Phase2	study/STIM_026.jpg	100
1063.816	0.535	535.1	study	Phase2	study/STIM_026.jpg	100
1066.944	0.728	728.2	study	Phase2	study/STIM_027.jpg	100
1069.78	1.035	1035.3	study	Phase2	study/STIM_027.jpg	100
1074.347	0.971	971.3	study	Phase2	study/STIM_027.jpg	99
1079.354	1.067	1067.2	study	Phase2	study/STIM_028.jpg	99
1082.961	0.708	708.1	study	Phase2	study/STIM_028.jpg	100
1087.314	1.059	1058.7	study	Phase2	study/STIM_028.jpg	99
1092.243	0.94	940.5	study	Phase2	study/STIM_029.jpg	99
1096.943	1.027	1027.4	study	Phase2	study/STIM_029.jpg	99
1100.752	0.936	935.6	study	Phase2	study/STIM_029.jpg	100
1104.011	1.094	1094.5	test	Phase2	test/STIM_000.jpg	100
1109.123	0.938	937.6	test	Phase2	test/STIM_000.jpg	100
1113.005	0.615	614.7	test	Phase2	test/STIM_000.jpg	100
1117.476	1.079	1079.2	test	Phase2	test/STIM_001.jpg	99
1121.386	1.123	1122.8	test	Phase2	test/STIM_001.jpg	99
1125.019	0.584	584.1	test	Phase2	test/STIM_001.jpg	100
1128.536	0.545	545.4	test	Phase2	test/STIM_002.jpg	99
1132.567	0.902	902.0	test	Phase2	test/STIM_002.jpg	99
1135.692	1.018	1018.3	test	Phase2	test/STIM_002.jpg	99
1140.006	0.969	968.8	test	Phase2	test/STIM_003.jpg	100
1143.311	0.737	736.8	test	Phase2	test/STIM_003.jpg	99
1146.36	1.035	1035.2	test	Phase2	test/STIM_003.jpg	99
1150.468	0.682	682.5	test	Phase2	test/STIM_004.jpg	99
1153.785	0.836	836.3	test	Phase2	test/STIM_004.jpg	100
1158.729	1.122	1122.5	test	Phase2	test/STIM_004.jpg	99
1163.356	1.101	1101.0	test	Phase2	test/STIM_005.jpg	100
1167.78	0.791	791.4	test	Phase2	test/STIM_005.jpg	100
1171.99	0.798	798.1	test	Phase2	test/STIM_005.jpg	99
1175.576	0.932	932.1	test	Phase2	test/STIM_006.jpg	99
1179.789	1.042	1041.7	test	Phase2	test/STIM_006.jpg	99
1184.548	0.666	666.4	test	Phase2	test/STIM_006.jpg	100
1188.183	0.911	911.4	test	Phase2	test/STIM_007.jpg	100
1191.484	0.567	566.7	test	Phase2	test/STIM_007.jpg	99
1195.635	0.9	900.0	test	Phase2	test/STIM_007.jpg	99
1198.803	0.764	763.6	test	Phase2	test/STIM_008.jpg	100
1202.907	0.851	851.2	test	Phase2	test/STIM_008.jpg	99
1207.485	1.11	1109.9	test	Phase2	test/STIM_008.jpg	100
1211.843	0.977	976.7	test	Phase2	test/STIM_009.jpg	100
1215.745	0.811	811.2	test	Phase2	test/STIM_009.jpg	99
1220.155	1.085	1085.4	test	Phase2	test/STIM_009.jpg	100
1223.921	0.896	895.8	test	Phase2	test/STIM_010.jpg	99
1227.642	0.811	810.9	test	Phase2	test/STIM_010.jpg	99
1232.054	0.789	788.8	test	Phase2	test/STIM_010.jpg	99
1236.0	0.925	925.0	test	Phase2	test/STIM_011.jpg	99
1239.368	0.716	716.4	test	Phase2	test/STIM_011.jpg	99
1243.005	0.664	664.4	test	Phase2	test/STIM_011.jpg	99
1247.503	1.026	1025.9	test	Phase2	test/STIM_012.jpg	100
1250.924	0.979	979.1	test	Phase2	test/STIM_012.jpg	100
1254.25	0.596	596.2	test	Phase2	test/STIM_012.jpg	100
1258.172	0.926	925.7	test	Phase2	test/STIM_013.jpg	100
1262.65	1.033	1033.3	test	Phase2	test/STIM_013.jpg	99
1267.613	0.841	841.0	test	Phase2	test/STIM_013.jpg	99
1270.638	0.695	695.4	test	Phase2	test/STIM_014.jpg	100
1274.081	0.774	773.5	test	Phase2	test/STIM_014.jpg	100
1277.137	0.575	574.6	test	Phase2	test/STIM_014.jpg	100
1280.313	0.8	800.5	test	Phase2	test/STIM_015.jpg	100
1284.914	0.69	690.1	test	Phase2	test/STIM_015.jpg	100
1288.987	1.086	1085.9	test	Phase2	test/STIM_015.jpg	99
1292.981	0.628	628.1	test	Phase2	test/STIM_016.jpg	99
1297.042	0.922	922.2	test	Phase2	test/STIM_016.jpg	99
1300.393	0.546	545.7	test	Phase2	test/STIM_016.jpg	100
1303.688	0.782	782.5	test	Phase2	test/STIM_017.jpg	100
1308.551	0.571	571.3	test	Phase2	test/STIM_017.jpg	100
1311.826	0.587	587.0	test	Phase2	test/STIM_017.jpg	100
1314.815	0.995	994.6	test	Phase2	test/STIM_018.jpg	100
1319.504	0.92	920.5	test	Phase2	test/STIM_018.jpg	99
1323.165	0.611	610.7	test	Phase2	test/STIM_018.jpg	99
1327.717	0.907	906.6	test	Phase2	test/STIM_019.jpg	99
1330.846	1.034	1034.5	test	Phase2	test/STIM_019.jpg	100
1335.31	0.797	797.0	test	Phase2	test/STIM_019.jpg	99
1338.461	1.12	1119.9	test	Phase2	test/STIM_020.jpg	100
1343.066	0.54	540.5	test	Phase2	test/STIM_020.jpg	99
1347.625	0.913	913.4	test	Phase2	test/STIM_020.jpg	99
1351.401	0.543	543.3	test	Phase2	test/STIM_021.jpg	100
1355.419	1.068	1068.4	test	Phase2	test/STIM_021.jpg	99
1359.374	0.844	843.8	test	Phase2	test/STIM_021.jpg	99
1363.63	0.783	783.0	test	Phase2	test/STIM_022.jpg	99
1368.392	0.679	679.4	test	Phase2	test/STIM_022.jpg	100
1372.795	0.644	644.2	test	Phase2	test/STIM_022.jpg	99
1375.996	0.529	528.8	test	Phase2	test/STIM_023.jpg	99
1379.82	1.049	1049.0	test	Phase2	test/STIM_023.jpg	99
1383.829	0.94	939.5	test	Phase2	test/STIM_023.jpg	99
1387.248	0.541	541.3	test	Phase2	test/STIM_024.jpg	100
1390.693	1.063	1062.6	test	Phase2	test/STIM_024.jpg	99
1394.629	0.884	884.3	test	Phase2	test/STIM_024.jpg	99
1398.585	0.949	949.0	test	Phase2	test/STIM_025.jpg	100
1402.587	1.126	1126.2	test	Phase2	test/STIM_025.jpg	100
1406.174	0.536	536.5	test	Phase2	test/STIM_025.jpg	100
1408.897	0.92	919.9	test	Phase2	test/STIM_026.jpg	100
1413.122	0.69	690.0	test	Phase2	test/STIM_026.jpg	99
1417.32	1.135	1134.6	test	Phase2	test/STIM_026.jpg	100
1422.229	1.004	1003.8	test	Phase2	test/STIM_027.jpg	99
1425.725	0.603	602.7	test	Phase2	test/STIM_027.jpg	99
1429.954	1.135	1135.3	test	Phase2	test/STIM_027.jpg	100
1434.124	0.719	718.6	test	Phase2	test/STIM_028.jpg	100
1437.592	0.76	760.4	test	Phase2	test/STIM_028.jpg	100
1441.348	0.902	901.9	test	Phase2	test/STIM_028.jpg	100
1445.801	0.58	580.4	test	Phase2	test/STIM_029.jpg	99
1450.408	0.995	995.2	test	Phase2	test/STIM_029.jpg	100
1454.242	0.8	800.0	test	Phase2	test/STIM_029.jpg	100
1458.374	0.55	549.9	study	Phase3	study/STIM_000.jpg	100
1461.068	0.802	801.5	study	Phase3	study/STIM_000.jpg	100
1464.427	0.771	770.9	study	Phase3	study/STIM_000.jpg	100
1469.293	0.861	860.6	study	Phase3	study/STIM_001.jpg	99
1473.16	1.037	1036.6	study	Phase3	study/STIM_001.jpg	100
1477.938	0.707	707.2	study	Phase3	study/STIM_001.jpg	100
1482.198	0.987	987.3	study	Phase3	study/STIM_002.jpg	100
1486.713	0.719	719.1	study	Phase3	study/STIM_002.jpg	99
1491.069	0.664	664.5	study	Phase3	study/STIM_002.jpg	99
1494.451	1.018	1018.1	study	Phase3	study/STIM_003.jpg	100
1497.672	0.996	996.0	study	Phase3	study/STIM_003.jpg	99
1500.819	0.728	727.5	study	Phase3	study/STIM_003.jpg	99
1504.113	0.731	731.1	study	Phase3	study/STIM_004.jpg	100
1507.673	0.65	650.1	study	Phase3	study/STIM_004.jpg	99
1511.705	0.943	943.4	study	Phase3	study/STIM_004.jpg	100
1515.605	0.852	852.2	study	Phase3	study/STIM_005.jpg	100
1519.739	0.807	807.2	study	Phase3	study/STIM_005.jpg	99
1524.061	0.938	937.6	study	Phase3	study/STIM_005.jpg	100
1527.621	1.081	1080.7	study	Phase3	study/STIM_006.jpg	99
1531.347	0.77	770.5	study	Phase3	study/STIM_006.jpg	100
1535.434	1.058	1057.7	study	Phase3	study/STIM_006.jpg	99
1538.803	0.964	963.9	study	Phase3	study/STIM_007.jpg	99
1543.608	0.856	856.0	study	Phase3	study/STIM_007.jpg	100
1548.054	0.955	954.9	study	Phase3	study/STIM_007.jpg	100
1552.267	0.993	993.0	study	Phase3	study/STIM_008.jpg	99
1556.678	1.07	1069.7	study	Phase3	study/STIM_008.jpg	100
1561.334	0.628	628.2	study	Phase3	study/STIM_008.jpg	99
1565.01	0.9	900.5	study	Phase3	study/STIM_009.jpg	100
1569.065	0.525	524.8	study	Phase3	study/STIM_009.jpg	100
1572.082	0.943	943.1	study	Phase3	study/STIM_009.jpg	100
1575.262	0.868	867.7	study	Phase3	study/STIM_010.jpg	100
1580.022	0.932	932.0	study	Phase3	study/STIM_010.jpg	99
1584.594	0.861	861.3	study	Phase3	study/STIM_010.jpg	99
1589.15	1.03	1030.3	study	Phase3	study/STIM_011.jpg	99
1593.714	0.835	835.3	study	Phase3	study/STIM_011.jpg	99
1598.191	1.001	1001.3	study	Phase3	study/STIM_011.jpg	100
1602.659	0.844	844.3	study	Phase3	study/STIM_012.jpg	100
1607.056	0.57	569.7	study	Phase3	study/STIM_012.jpg	99
1610.186	0.496	496.1	study	Phase3	study/STIM_012.jpg	99
1613.874	0.853	853.1	study	Phase3	study/STIM_013.jpg	100
1618.619	1.048	1048.5	study	Phase3	study/STIM_013.jpg	100
1622.733	0.717	717.3	study	Phase3	study/STIM_013.jpg	99
1626.141	0.593	593.3	study	Phase3	study/STIM_014.jpg	99
1630.613	1.028	1027.6	study	Phase3	study/STIM_014.jpg	100
1635.425	1.071	1071.2	study	Phase3	study/STIM_014.jpg	100
1639.933	1.087	1087.0	study	Phase3	study/STIM_015.jpg	100
1644.964	0.796	795.7	study	Phase3	study/STIM_015.jpg	100
1648.529	0.904	904.3	study	Phase3	study/STIM_015.jpg	99
1651.619	0.642	641.5	study	Phase3	study/STIM_016.jpg	100
1655.363	0.926	925.8	study	Phase3	study/STIM_016.jpg	100
1658.654	0.738	737.9	study	Phase3	study/STIM_016.jpg	100
1661.796	0.978	978.5	study	Phase3	study/STIM_017.jpg	100
1665.637	0.896	895.8	study	Phase3	study/STIM_017.jpg	100
1668.702	0.907	906.9	study	Phase3	study/STIM_017.jpg	100
1671.903	0.905	905.3	study	Phase3	study/STIM_018.jpg	99
1675.26	1.008	1008.5	study	Phase3	study/STIM_018.jpg	99
1679.125	1.085	1084.8	study	Phase3	study/STIM_018.jpg	99
1683.145	0.506	506.2	study	Phase3	study/STIM_019.jpg	100
1687.7	0.899	899.4	study	Phase3	study/STIM_019.jpg	99
1690.763	0.802	802.0	study	Phase3	study/STIM_019.jpg	100
1694.444	1.092	1091.9	study	Phase3	study/STIM_020.jpg	99
1698.734	0.69	690.3	study	Phase3	study/STIM_020.jpg	100
1701.611	1.084	1084.5	study	Phase3	study/STIM_020.jpg	99
1704.96	1.099	1099.3	study	Phase3	study/STIM_021.jpg	99
1709.275	0.92	919.6	study	Phase3	study/STIM_021.jpg	99
1712.742	0.568	568.3	study	Phase3	study/STIM_021.jpg	100
1717.159	0.663	662.6	study	Phase3	study/STIM_022.jpg	99
1720.04	0.758	757.5	study	Phase3	study/STIM_022.jpg	100
1723.81	0.971	971.4	study	Phase3	study/STIM_022.jpg	99
1728.081	0.565	564.9	study	Phase3	study/STIM_023.jpg	100
1732.171	0.964	963.7	study	Phase3	study/STIM_023.jpg	100
1735.793	0.962	961.5	study	Phase3	study/STIM_023.jpg	100
1739.702	0.838	838.0	study	Phase3	study/STIM_024.jpg	100
1743.951	0.796	796.3	study	Phase3	study/STIM_024.jpg	99
1748.322	0.878	878.2	study	Phase3	study/STIM_024.jpg	100
1752.332	0.566	565.9	study	Phase3	study/STIM_025.jpg	100
1755.787	0.526	525.5	study	Phase3	study/STIM_025.jpg	99
1758.907	0.598	597.8	study	Phase3	study/STIM_025.jpg	99
1762.884	1.048	1048.0	study	Phase3	study/STIM_026.jpg	100
1767.389	0.768	767.7	study	Phase3	study/STIM_026.jpg	99
1771.012	0.65	650.2	study	Phase3	study/STIM_026.jpg	100
1774.139	1.013	1013.2	study	Phase3	study/STIM_027.jpg	99
1778.895	0.979	978.7	study	Phase3	study/STIM_027.jpg	100
1782.957	1.064	1064.4	study	Phase3	study/STIM_027.jpg	100
1788.121	1.036	1036.3	study	Phase3	study/STIM_028.jpg	100
1791.802	0.784	784.2	study	Phase3	study/STIM_028.jpg	99
1795.195	1.03	1030.4	study	Phase3	study/STIM_028.jpg	100
1799.606	0.962	962.4	study	Phase3	study/STIM_029.jpg	100
1803.889	0.756	755.6	study	Phase3	study/STIM_029.jpg	99
1807.379	0.703	703.3	study	Phase3	study/STIM_029.jpg	99
1810.701	1.087	1087.2	test	Phase3	test/STIM_000.jpg	99
1814.552	1.11	1110.5	test	Phase3	test/STIM_000.jpg	100
1819.058	0.673	672.8	test	Phase3	test/STIM_000.jpg	99
1823.736	0.792	791.6	test	Phase3	test/STIM_001.jpg	100
1828.136	0.86	859.6	test	Phase3	test/STIM_001.jpg	100
1832.383	1.092	1092.5	test	Phase3	test/STIM_001.jpg	100
1836.475	1.114	1113.7	test	Phase3	test/STIM_002.jpg	100
1841.388	0.796	796.4	test	Phase3	test/STIM_002.jpg	99
1845.27	0.573	573.0	test	Phase3	test/STIM_002.jpg	100
1848.534	0.598	597.5	test	Phase3	test/STIM_003.jpg	99
1851.678	1.139	1139.0	test	Phase3	test/STIM_003.jpg	99
1855.868	1.079	1078.7	test	Phase3	test/STIM_003.jpg	100
1860.872	0.912	912.0	test	Phase3	test/STIM_004.jpg	99
1864.71	0.793	793.3	test	Phase3	test/STIM_004.jpg	100
1868.31	1.123	1122.7	test	Phase3	test/STIM_004.jpg	100
1873.314	0.994	993.7	test	Phase3	test/STIM_005.jpg	100
1878.051	1.082	1082.1	test	Phase3	test/STIM_005.jpg	100
1882.089	1.099	1098.9	test	Phase3	test/STIM_005.jpg	100
1885.747	1.12	1119.9	test	Phase3	test/STIM_006.jpg	99
1889.677	0.905	905.4	test	Phase3	test/STIM_006.jpg	99
1894.506	0.549	549.3	test	Phase3	test/STIM_006.jpg	99
1898.166	0.938	937.7	test	Phase3	test/STIM_007.jpg	100
1902.784	0.999	999.2	test	Phase3	test/STIM_007.jpg	100
1907.8	0.664	663.9	test	Phase3	test/STIM_007.jpg	100
1911.737	0.96	960.2	test	Phase3	test/STIM_008.jpg	100
1916.552	0.939	939.4	test	Phase3	test/STIM_008.jpg	99
1920.346	1.063	1063.3	test	Phase3	test/STIM_008.jpg	99
1924.08	0.982	982.1	test	Phase3	test/STIM_009.jpg	100
1929.125	1.07	1070.3	test	Phase3	test/STIM_009.jpg	100
1933.118	0.764	764.0	test	Phase3	test/STIM_009.jpg	99
1937.37	0.993	992.9	test	Phase3	test/STIM_010.jpg	99
1941.532	0.948	948.3	test	Phase3	test/STIM_010.jpg	100
1946.518	0.955	954.6	test	Phase3	test/STIM_010.jpg	100
1950.716	0.685	685.2	test	Phase3	test/STIM_011.jpg	100
1954.864	0.908	907.6	test	Phase3	test/STIM_011.jpg	100
1958.203	1.015	1015.1	test	Phase3	test/STIM_011.jpg	100
1963.091	0.697	696.8	test	Phase3	test/STIM_012.jpg	100
1967.551	0.539	539.1	test	Phase3	test/STIM_012.jpg	100
1970.287	0.684	683.5	test	Phase3	test/STIM_012.jpg	100
1973.067	0.846	845.9	test	Phase3	test/STIM_013.jpg	99
1977.396	0.673	673.2	test	Phase3	test/STIM_013.jpg	100
1980.353	1.052	1051.9	test	Phase3	test/STIM_013.jpg	99
1984.266	0.666	665.7	test	Phase3	test/STIM_014.jpg	100
1988.921	1.036	1036.1	test	Phase3	test/STIM_014.jpg	100
1992.83	1.099	1099.3	test	Phase3	test/STIM_014.jpg	100
1996.336	0.966	966.1	test	Phase3	test/STIM_015.jpg	99
2000.084	0.677	676.6	test	Phase3	test/STIM_015.jpg	100
2003.878	0.968	967.9	test	Phase3	test/STIM_015.jpg	99
2007.577	0.666	666.1	test	Phase3	test/STIM_016.jpg	100
2010.936	0.641	641.4	test	Phase3	test/STIM_016.jpg	100
2013.949	1.126	1126.4	test	Phase3	test/STIM_016.jpg	100
2017.754	0.835	834.9	test	Phase3	test/STIM_017.jpg	100
2022.55	0.867	867.4	test	Phase3	test/STIM_017.jpg	100
2026.813	0.72	720.0	test	Phase3	test/STIM_017.jpg	99
2030.771	0.531	531.0	test	Phase3	test/STIM_018.jpg	100
2033.688	0.792	791.6	test	Phase3	test/STIM_018.jpg	99
2036.76	1.094	1094.4	test	Phase3	test/STIM_018.jpg	99
2040.323	0.676	675.7	test	Phase3	test/STIM_019.jpg	99
2043.937	1.011	1011.3	test	Phase3	test/STIM_019.jpg	100
2048.577	0.635	635.0	test	Phase3	test/STIM_019.jpg	100
2052.995	0.971	971.1	test	Phase3	test/STIM_020.jpg	99
2056.963	0.627	627.1	test	Phase3	test/STIM_020.jpg	100
2060.697	0.737	737.1	test	Phase3	test/STIM_020.jpg	100
2064.212	1.109	1108.8	test	Phase3	test/STIM_021.jpg	99
2068.81	0.806	805.9	test	Phase3	test/STIM_021.jpg	100
2073.44	0.713	713.1	test	Phase3	test/STIM_021.jpg	99
2077.282	1.126	1126.4	test	Phase3	test/STIM_022.jpg	99
2081.077	0.773	773.3	test	Phase3	test/STIM_022.jpg	100
2085.242	0.702	701.9	test	Phase3	test/STIM_022.jpg	99
2089.688	0.558	557.6	test	Phase3	test/STIM_023.jpg	100
2092.714	0.773	773.2	test	Phase3	test/STIM_023.jpg	99
2097.439	0.708	708.2	test	Phase3	test/STIM_023.jpg	99
2100.521	0.996	996.2	test	Phase3	test/STIM_024.jpg	99
2105.578	0.794	794.3	test	Phase3	test/STIM_024.jpg	100
2109.682	1.054	1054.5	test	Phase3	test/STIM_024.jpg	99
2113.59	0.561	560.8	test	Phase3	test/STIM_025.jpg	99
2116.712	0.819	818.9	test	Phase3	test/STIM_025.jpg	100
2120.908	0.678	677.6	test	Phase3	test/STIM_025.jpg	99
2125.565	1.002	1001.5	test	Phase3	test/STIM_026.jpg	100
2129.708	0.951	951.3	test	Phase3	test/STIM_026.jpg	99
2134.296	0.622	622.2	test	Phase3	test/STIM_026.jpg	99
2137.697	0.551	551.3	test	Phase3	test/STIM_027.jpg	100
2140.398	0.738	737.6	test	Phase3	test/STIM_027.jpg	100
2143.305	0.942	941.6	test	Phase3	test/STIM_027.jpg	99
2147.802	1.008	1008.2	test	Phase3	test/STIM_028.jpg	100
2150.988	0.685	685.0	test	Phase3	test/STIM_028.jpg	100
2153.863	0.818	817.6	test	Phase3	test/STIM_028.jpg	100
2158.792	1.071	1071.2	test	Phase3	test/STIM_029.jpg	100
2163.671	1.108	1108.3	test	Phase3	test/STIM_029.jpg	100
2168.582	0.843	843.2	test	Phase3	test/STIM_029.jpg	100
