onset	duration	accuracy	trial_type	learning_stage	stimulus
0.0	4.486	correct	navigation	Trial1	navigation/STIM_000.jpg
7.135	2.466	correct	navigation	Trial1	navigation/STIM_000.jpg
11.913	3.324	correct	navigation	Trial1	navigation/STIM_000.jpg
18.349	4.025	correct	navigation	Trial1	navigation/STIM_000.jpg
24.262	2.744	correct	navigation	Trial1	navigation/STIM_000.jpg
30.827	2.985	correct	navigation	Trial1	navigation/STIM_000.jpg
35.758	4.123	incorrect	navigation	Trial1	navigation/STIM_001.jpg
43.358	2.672	correct	navigation	Trial1	navigation/STIM_001.jpg
49.074	3.524	incorrect	navigation	Trial1	navigation/STIM_001.jpg
55.025	2.069	incorrect	navigation	Trial1	navigation/STIM_001.jpg
60.27	2.793	correct	navigation	Trial1	navigation/STIM_001.jpg
66.569	3.971	incorrect	navigation	Trial1	navigation/STIM_001.jpg
73.209	5.066	incorrect	navigation	Trial1	navigation/STIM_002.jpg
80.257	3.579	incorrect	navigation	Trial1	navigation/STIM_002.jpg
86.195	3.462	correct	navigation	Trial1	navigation/STIM_002.jpg
92.544	3.377	correct	navigation	Trial1	navigation/STIM_002.jpg
97.909	2.576	correct	navigation	Trial1	navigation/STIM_002.jpg
102.977	1.739	incorrect	navigation	Trial1	navigation/STIM_002.jpg
106.966	4.391	correct	navigation	Trial1	navigation/STIM_003.jpg
113.673	4.675	correct	navigation	Trial1	navigation/STIM_003.jpg
121.969	3.228	incorrect	navigation	Trial1	navigation/STIM_003.jpg
128.449	3.784	correct	navigation	Trial1	navigation/STIM_003.jpg
134.656	2.886	correct	navigation	Trial1	navigation/STIM_003.jpg
140.911	2.028	correct	navigation	Trial1	navigation/STIM_003.jpg
145.402	4.792	incorrect	navigation	Trial1	navigation/STIM_004.jpg
152.489	2.4	correct	navigation	Trial1	navigation/STIM_004.jpg
156.786	3.287	correct	navigation	Trial1	navigation/STIM_004.jpg
162.082	2.944	correct	navigation	Trial1	navigation/STIM_004.jpg
167.577	2.056	correct	navigation	Trial1	navigation/STIM_004.jpg
171.697	2.403	correct	navigation	Trial1	navigation/STIM_004.jpg
176.265	4.618	correct	navigation	Trial1	navigation/STIM_005.jpg
184.638	4.587	correct	navigation	Trial1	navigation/STIM_005.jpg
191.059	3.947	correct	navigation	Trial1	navigation/STIM_005.jpg
198.111	2.516	correct	navigation	Trial1	navigation/STIM_005.jpg
203.133	2.306	incorrect	navigation	Trial1	navigation/STIM_005.jpg
207.835	2.24	correct	navigation	Trial1	navigation/STIM_005.jpg
213.885	4.67	correct	navigation	Trial1	navigation/STIM_006.jpg
222.038	4.386	correct	navigation	Trial1	navigation/STIM_006.jpg
228.4	4.334	correct	navigation	Trial1	navigation/STIM_006.jpg
234.939	3.782	correct	navigation	Trial1	navigation/STIM_006.jpg
240.776	2.859	correct	navigation	Trial1	navigation/STIM_006.jpg
246.16	2.402	correct	navigation	Trial1	navigation/STIM_006.jpg
251.679	2.47	correct	navigation	Trial1	navigation/STIM_007.jpg
256.517	3.04	correct	navigation	Trial1	navigation/STIM_007.jpg
263.272	1.964	correct	navigation	Trial1	navigation/STIM_007.jpg
268.109	3.994	correct	navigation	Trial1	navigation/STIM_007.jpg
274.361	3.621	correct	navigation	Trial1	navigation/STIM_007.jpg
280.638	2.531	correct	navigation	Trial1	navigation/STIM_007.jpg
285.026	2.374	correct	navigation	Trial1	navigation/STIM_008.jpg
290.251	3.82	incorrect	navigation	Trial1	navigation/STIM_008.jpg
296.616	3.671	incorrect	navigation	Trial1	navigation/STIM_008.jpg
303.822	3.785	correct	navigation	Trial1	navigation/STIM_008.jpg
310.928	2.256	correct	navigation	Trial1	navigation/STIM_008.jpg
316.572	2.132	correct	navigation	Trial1	navigation/STIM_008.jpg
321.611	2.666	correct	navigation	Trial1	navigation/STIM_009.jpg
327.889	3.325	correct	navigation	Trial1	navigation/STIM_009.jpg
333.465	4.419	correct	navigation	Trial1	navigation/STIM_009.jpg
341.491	3.474	incorrect	navigation	Trial1	navigation/STIM_009.jpg
347.539	2.159	correct	navigation	Trial1	navigation/STIM_009.jpg
353.092	1.592	correct	navigation	Trial1	navigation/STIM_009.jpg
357.589	4.586	correct	navigation	Trial1	navigation/STIM_010.jpg
365.253	4.606	correct	navigation	Trial1	navigation/STIM_010.jpg
371.797	2.434	correct	navigation	Trial1	navigation/STIM_010.jpg
377.28	3.45	correct	navigation	Trial1	navigation/STIM_010.jpg
384.175	2.095	correct	navigation	Trial1	navigation/STIM_010.jpg
389.161	2.204	correct	navigation	Trial1	navigation/STIM_010.jpg
395.262	5.041	incorrect	navigation	Trial1	navigation/STIM_011.jpg
403.258	3.846	correct	navigation	Trial1	navigation/STIM_011.jpg
410.509	3.024	correct	navigation	Trial1	navigation/STIM_011.jpg
416.316	2.603	correct	navigation	Trial1	navigation/STIM_011.jpg
420.777	3.059	incorrect	navigation	Trial1	navigation/STIM_011.jpg
425.81	2.183	incorrect	navigation	Trial1	navigation/STIM_011.jpg
430.038	1.355	incorrect	pointing	Trial1	pointing/STIM_000.jpg
435.213	0.934	incorrect	pointing	Trial1	pointing/STIM_000.jpg
438.905	0.863	correct	pointing	Trial1	pointing/STIM_000.jpg
442.057	1.154	correct	pointing	Trial1	pointing/STIM_000.jpg
446.834	1.127	correct	pointing	Trial1	pointing/STIM_000.jpg
450.081	1.015	incorrect	pointing	Trial1	pointing/STIM_000.jpg
453.24	1.146	correct	pointing	Trial1	pointing/STIM_001.jpg
457.706	1.014	correct	pointing	Trial1	pointing/STIM_001.jpg
460.839	1.412	correct	pointing	Trial1	pointing/STIM_001.jpg
466.042	0.976	correct	pointing	Trial1	pointing/STIM_001.jpg
470.202	1.355	correct	pointing	Trial1	pointing/STIM_001.jpg
474.702	1.365	correct	pointing	Trial1	pointing/STIM_001.jpg
479.575	1.039	correct	pointing	Trial1	pointing/STIM_002.jpg
483.345	0.996	correct	pointing	Trial1	pointing/STIM_002.jpg
486.917	1.288	correct	pointing	Trial1	pointing/STIM_002.jpg
491.716	0.968	correct	pointing	Trial1	pointing/STIM_002.jpg
496.496	0.903	correct	pointing	Trial1	pointing/STIM_002.jpg
499.675	1.127	correct	pointing	Trial1	pointing/STIM_002.jpg
504.371	1.573	incorrect	pointing	Trial1	pointing/STIM_003.jpg
509.507	1.543	correct	pointing	Trial1	pointing/STIM_003.jpg
514.96	1.373	correct	pointing	Trial1	pointing/STIM_003.jpg
519.877	0.992	correct	pointing	Trial1	pointing/STIM_003.jpg
523.017	1.282	correct	pointing	Trial1	pointing/STIM_003.jpg
528.102	1.519	correct	pointing	Trial1	pointing/STIM_003.jpg
532.191	1.417	correct	pointing	Trial1	pointing/STIM_004.jpg
535.741	1.504	correct	pointing	Trial1	pointing/STIM_004.jpg
539.822	0.903	correct	pointing	Trial1	pointing/STIM_004.jpg
544.529	0.87	correct	pointing	Trial1	pointing/STIM_004.jpg
548.765	1.01	correct	pointing	Trial1	pointing/STIM_004.jpg
551.889	0.965	correct	pointing	Trial1	pointing/STIM_004.jpg
555.278	1.246	correct	pointing	Trial1	pointing/STIM_005.jpg
558.578	1.396	correct	pointing	Trial1	pointing/STIM_005.jpg
563.399	0.885	incorrect	pointing	Trial1	pointing/STIM_005.jpg
567.999	1.559	correct	pointing	Trial1	pointing/STIM_005.jpg
572.919	1.483	correct	pointing	Trial1	pointing/STIM_005.jpg
576.481	1.426	correct	pointing	Trial1	pointing/STIM_005.jpg
580.243	1.012	incorrect	pointing	Trial1	pointing/STIM_006.jpg
583.857	0.931	correct	pointing	Trial1	pointing/STIM_006.jpg
587.462	1.477	correct	pointing	Trial1	pointing/STIM_006.jpg
592.343	1.484	correct	pointing	Trial1	pointing/STIM_006.jpg
596.603	1.1	correct	pointing	Trial1	pointing/STIM_006.jpg
601.126	1.508	correct	pointing	Trial1	pointing/STIM_006.jpg
605.661	1.21	correct	pointing	Trial1	pointing/STIM_007.jpg
608.983	1.041	correct	pointing	Trial1	pointing/STIM_007.jpg
611.994	0.857	correct	pointing	Trial1	pointing/STIM_007.jpg
616.835	1.545	correct	pointing	Trial1	pointing/STIM_007.jpg
620.432	0.922	correct	pointing	Trial1	pointing/STIM_007.jpg
624.033	1.164	correct	pointing	Trial1	pointing/STIM_007.jpg
628.052	1.065	correct	pointing	Trial1	pointing/STIM_008.jpg
631.939	1.303	correct	pointing	Trial1	pointing/STIM_008.jpg
636.066	1.277	correct	pointing	Trial1	pointing/STIM_008.jpg
640.838	1.484	correct	pointing	Trial1	pointing/STIM_008.jpg
646.187	1.099	correct	pointing	Trial1	pointing/STIM_008.jpg
650.681	1.167	correct	pointing	Trial1	pointing/STIM_008.jpg
654.595	0.847	correct	pointing	Trial1	pointing/STIM_009.jpg
657.494	1.23	correct	pointing	Trial1	pointing/STIM_009.jpg
662.169	1.294	incorrect	pointing	Trial1	pointing/STIM_009.jpg
665.665	1.204	correct	pointing	Trial1	pointing/STIM_009.jpg
670.295	1.446	correct	pointing	Trial1	pointing/STIM_009.jpg
673.932	1.428	correct	pointing	Trial1	pointing/STIM_009.jpg
679.273	0.997	correct	pointing	Trial1	pointing/STIM_010.jpg
684.039	1.075	correct	pointing	Trial1	pointing/STIM_010.jpg
688.99	1.158	correct	pointing	Trial1	pointing/STIM_010.jpg
693.936	0.888	correct	pointing	Trial1	pointing/STIM_010.jpg
697.086	1.424	correct	pointing	Trial1	pointing/STIM_010.jpg
701.832	1.192	correct	pointing	Trial1	pointing/STIM_010.jpg
705.076	0.992	correct	pointing	Trial1	pointing/STIM_011.jpg
709.503	1.058	incorrect	pointing	Trial1	pointing/STIM_011.jpg
714.323	1.435	correct	pointing	Trial1	pointing/STIM_011.jpg
719.356	1.147	correct	pointing	Trial1	pointing/STIM_011.jpg
722.432	0.834	correct	pointing	Trial1	pointing/STIM_011.jpg
726.121	1.322	correct	pointing	Trial1	pointing/STIM_011.jpg
730.075	4.324	correct	navigation	Trial2	navigation/STIM_000.jpg
737.996	2.843	correct	navigation	Trial2	navigation/STIM_000.jpg
744.558	2.912	correct	navigation	Trial2	navigation/STIM_000.jpg
751.059	1.799	incorrect	navigation	Trial2	navigation/STIM_000.jpg
756.225	3.481	incorrect	navigation	Trial2	navigation/STIM_000.jpg
762.672	2.602	correct	navigation	Trial2	navigation/STIM_000.jpg
767.468	3.22	correct	navigation	Trial2	navigation/STIM_001.jpg
772.644	3.514	correct	navigation	Trial2	navigation/STIM_001.jpg
779.525	2.033	correct	navigation	Trial2	navigation/STIM_001.jpg
784.099	1.608	correct	navigation	Trial2	navigation/STIM_001.jpg
789.604	3.583	correct	navigation	Trial2	navigation/STIM_001.jpg
795.462	2.603	correct	navigation	Trial2	navigation/STIM_001.jpg
800.649	1.919	correct	navigation	Trial2	navigation/STIM_002.jpg
805.733	1.931	correct	navigation	Trial2	navigation/STIM_002.jpg
810.876	2.319	incorrect	navigation	Trial2	navigation/STIM_002.jpg
816.045	3.707	incorrect	navigation	Trial2	navigation/STIM_002.jpg
822.912	1.607	correct	navigation	Trial2	navigation/STIM_002.jpg
826.988	3.317	correct	navigation	Trial2	navigation/STIM_002.jpg
833.868	2.135	correct	navigation	Trial2	navigation/STIM_003.jpg
839.604	2.288	correct	navigation	Trial2	navigation/STIM_003.jpg
844.386	1.7	correct	navigation	Trial2	navigation/STIM_003.jpg
849.636	1.978	correct	navigation	Trial2	navigation/STIM_003.jpg
854.843	1.808	correct	navigation	Trial2	navigation/STIM_003.jpg
860.452	2.337	correct	navigation	Trial2	navigation/STIM_003.jpg
866.572	2.804	incorrect	navigation	Trial2	navigation/STIM_004.jpg
871.249	2.846	correct	navigation	Trial2	navigation/STIM_004.jpg
876.422	2.456	incorrect	navigation	Trial2	navigation/STIM_004.jpg
882.376	1.712	correct	navigation	Trial2	navigation/STIM_004.jpg
886.62	2.895	correct	navigation	Trial2	navigation/STIM_004.jpg
892.156	3.365	correct	navigation	Trial2	navigation/STIM_004.jpg
899.232	3.395	correct	navigation	Trial2	navigation/STIM_005.jpg
904.667	1.882	correct	navigation	Trial2	navigation/STIM_005.jpg
908.581	3.522	correct	navigation	Trial2	navigation/STIM_005.jpg
915.025	3.283	incorrect	navigation	Trial2	navigation/STIM_005.jpg
921.946	2.159	correct	navigation	Trial2	navigation/STIM_005.jpg
927.21	3.278	correct	navigation	Trial2	navigation/STIM_005.jpg
933.668	3.221	correct	navigation	Trial2	navigation/STIM_006.jpg
939.538	2.306	correct	navigation	Trial2	navigation/STIM_006.jpg
943.808	3.353	correct	navigation	Trial2	navigation/STIM_006.jpg
949.165	1.759	incorrect	navigation	Trial2	navigation/STIM_006.jpg
954.687	3.526	incorrect	navigation	Trial2	navigation/STIM_006.jpg
961.148	2.746	correct	navigation	Trial2	navigation/STIM_006.jpg
966.81	2.124	correct	navigation	Trial2	navigation/STIM_007.jpg
971.222	3.489	correct	navigation	Trial2	navigation/STIM_007.jpg
977.054	2.283	correct	navigation	Trial2	navigation/STIM_007.jpg
981.9	3.381	incorrect	navigation	Trial2	navigation/STIM_007.jpg
988.955	1.96	incorrect	navigation	Trial2	navigation/STIM_007.jpg
993.505	3.124	correct	navigation	Trial2	navigation/STIM_007.jpg
999.415	3.442	incorrect	navigation	Trial2	navigation/STIM_008.jpg
1005.764	1.785	correct	navigation	Trial2	navigation/STIM_008.jpg
1009.536	3.426	correct	navigation	Trial2	navigation/STIM_008.jpg
1016.394	2.251	correct	navigation	Trial2	navigation/STIM_008.jpg
1021.268	2.377	incorrect	navigation	Trial2	navigation/STIM_008.jpg
1026.146	1.741	correct	navigation	Trial2	navigation/STIM_008.jpg
1030.988	3.102	correct	navigation	Trial2	navigation/STIM_009.jpg
1036.791	3.662	correct	navigation	Trial2	navigation/STIM_009.jpg
1042.293	2.586	correct	navigation	Trial2	navigation/STIM_009.jpg
1048.385	1.469	correct	navigation	Trial2	navigation/STIM_009.jpg
1052.009	1.558	incorrect	navigation	Trial2	navigation/STIM_009.jpg
1057.066	1.86	incorrect	navigation	Trial2	navigation/STIM_009.jpg
1062.038	2.922	correct	navigation	Trial2	navigation/STIM_010.jpg
1068.214	4.248	correct	navigation	Trial2	navigation/STIM_010.jpg
1075.245	3.871	correct	navigation	Trial2	navigation/STIM_010.jpg
1081.283	2.855	correct	navigation	Trial2	navigation/STIM_010.jpg
1086.528	1.902	correct	navigation	Trial2	navigation/STIM_010.jpg
1092.178	3.156	incorrect	navigation	Trial2	navigation/STIM_010.jpg
1098.609	2.904	correct	navigation	Trial2	navigation/STIM_011.jpg
1104.471	2.38	correct	navigation	Trial2	navigation/STIM_011.jpg
1110.356	1.899	correct	navigation	Trial2	navigation/STIM_011.jpg
1115.669	3.54	correct	navigation	Trial2	navigation/STIM_011.jpg
1121.014	1.572	correct	navigation	Trial2	navigation/STIM_011.jpg
1125.217	3.569	correct	navigation	Trial2	navigation/STIM_011.jpg
1132.193	1.095	correct	pointing	Trial2	pointing/STIM_000.jpg
1136.497	1.086	correct	pointing	Trial2	pointing/STIM_000.jpg
1139.638	1.595	correct	pointing	Trial2	pointing/STIM_000.jpg
1144.842	1.244	correct	pointing	Trial2	pointing/STIM_000.jpg
1148.496	1.257	correct	pointing	Trial2	pointing/STIM_000.jpg
1153.605	0.838	correct	pointing	Trial2	pointing/STIM_000.jpg
1157.259	0.863	correct	pointing	Trial2	pointing/STIM_001.jpg
1160.185	0.906	correct	pointing	Trial2	pointing/STIM_001.jpg
1163.206	1.345	incorrect	pointing	Trial2	pointing/STIM_001.jpg
1167.315	1.031	correct	pointing	Trial2	pointing/STIM_001.jpg
1172.043	1.363	correct	pointing	Trial2	pointing/STIM_001.jpg
1176.261	1.348	correct	pointing	Trial2	pointing/STIM_001.jpg
1181.104	1.581	correct	pointing	Trial2	pointing/STIM_002.jpg
1185.107	1.063	correct	pointing	Trial2	pointing/STIM_002.jpg
1189.542	0.951	correct	pointing	Trial2	pointing/STIM_002.jpg
1193.368	1.184	correct	pointing	Trial2	pointing/STIM_002.jpg
1198.022	1.476	correct	pointing	Trial2	pointing/STIM_002.jpg
1202.802	1.317	correct	pointing	Trial2	pointing/STIM_002.jpg
1206.298	1.012	correct	pointing	Trial2	pointing/STIM_003.jpg
1210.603	0.83	correct	pointing	Trial2	pointing/STIM_003.jpg
1214.89	0.97	correct	pointing	Trial2	pointing/STIM_003.jpg
1218.663	1.513	correct	pointing	Trial2	pointing/STIM_003.jpg
1222.446	1.425	correct	pointing	Trial2	pointing/STIM_003.jpg
1226.558	1.193	correct	pointing	Trial2	pointing/STIM_003.jpg
1230.077	1.52	correct	pointing	Trial2	pointing/STIM_004.jpg
1233.624	1.154	correct	pointing	Trial2	pointing/STIM_004.jpg
1238.403	1.059	correct	pointing	Trial2	pointing/STIM_004.jpg
1241.453	1.181	correct	pointing	Trial2	pointing/STIM_004.jpg
1246.132	1.466	incorrect	pointing	Trial2	pointing/STIM_004.jpg
1251.053	0.964	correct	pointing	Trial2	pointing/STIM_004.jpg
1254.461	1.432	correct	pointing	Trial2	pointing/STIM_005.jpg
1259.712	1.429	correct	pointing	Trial2	pointing/STIM_005.jpg
1264.286	1.165	correct	pointing	Trial2	pointing/STIM_005.jpg
1267.45	1.222	correct	pointing	Trial2	pointing/STIM_005.jpg
1271.964	1.153	correct	pointing	Trial2	pointing/STIM_005.jpg
1276.524	1.195	correct	pointing	Trial2	pointing/STIM_005.jpg
1281.287	1.271	correct	pointing	Trial2	pointing/STIM_006.jpg
1284.763	0.91	correct	pointing	Trial2	pointing/STIM_006.jpg
1287.916	1.247	correct	pointing	Trial2	pointing/STIM_006.jpg
1292.214	0.942	correct	pointing	Trial2	pointing/STIM_006.jpg
1296.464	0.972	correct	pointing	Trial2	pointing/STIM_006.jpg
1300.086	0.945	correct	pointing	Trial2	pointing/STIM_006.jpg
1304.747	1.038	correct	pointing	Trial2	pointing/STIM_007.jpg
1308.336	1.599	correct	pointing	Trial2	pointing/STIM_007.jpg
1312.373	1.554	correct	pointing	Trial2	pointing/STIM_007.jpg
1317.204	0.873	incorrect	pointing	Trial2	pointing/STIM_007.jpg
1322.017	1.447	correct	pointing	Trial2	pointing/STIM_007.jpg
1325.699	1.345	correct	pointing	Trial2	pointing/STIM_007.jpg
1329.715	1.26	correct	pointing	Trial2	pointing/STIM_008.jpg
1333.984	1.428	correct	pointing	Trial2	pointing/STIM_008.jpg
1338.716	1.392	correct	pointing	Trial2	pointing/STIM_008.jpg
1342.427	1.22	correct	pointing	Trial2	pointing/STIM_008.jpg
1345.97	0.962	correct	pointing	Trial2	pointing/STIM_008.jpg
1349.674	1.52	correct	pointing	Trial2	pointing/STIM_008.jpg
1353.075	1.442	correct	pointing	Trial2	pointing/STIM_009.jpg
1358.301	1.107	correct	pointing	Trial2	pointing/STIM_009.jpg
1361.646	0.913	correct	pointing	Trial2	pointing/STIM_009.jpg
1365.034	1.406	correct	pointing	Trial2	pointing/STIM_009.jpg
1369.777	1.383	correct	pointing	Trial2	pointing/STIM_009.jpg
1373.413	1.123	correct	pointing	Trial2	pointing/STIM_009.jpg
1377.86	1.179	correct	pointing	Trial2	pointing/STIM_010.jpg
1381.967	1.484	correct	pointing	Trial2	pointing/STIM_010.jpg
1386.815	1.173	correct	pointing	Trial2	pointing/STIM_010.jpg
1391.789	1.32	correct	pointing	Trial2	pointing/STIM_010.jpg
1396.78	1.221	correct	pointing	Trial2	pointing/STIM_010.jpg
1400.405	1.465	correct	pointing	Trial2	pointing/STIM_010.jpg
1404.391	1.563	correct	pointing	Trial2	pointing/STIM_011.jpg
1408.839	1.359	correct	pointing	Trial2	pointing/STIM_011.jpg
1413.96	1.21	correct	pointing	Trial2	pointing/STIM_011.jpg
1418.696	1.46	correct	pointing	Trial2	pointing/STIM_011.jpg
1422.401	1.262	incorrect	pointing	Trial2	pointing/STIM_011.jpg
1427.01	1.573	correct	pointing	Trial2	pointing/STIM_011.jpg
1431.269	1.744	correct	navigation	Trial3	navigation/STIM_000.jpg
1435.963	1.739	correct	navigation	Trial3	navigation/STIM_000.jpg
1440.537	3.068	correct	navigation	Trial3	navigation/STIM_000.jpg
1445.698	1.762	correct	navigation	Trial3	navigation/STIM_000.jpg
1449.645	3.26	correct	navigation	Trial3	navigation/STIM_000.jpg
1456.64	1.804	correct	navigation	Trial3	navigation/STIM_000.jpg
1460.616	2.902	correct	navigation	Trial3	navigation/STIM_001.jpg
1465.674	3.429	correct	navigation	Trial3	navigation/STIM_001.jpg
1472.44	3.001	correct	navigation	Trial3	navigation/STIM_001.jpg
1478.91	3.15	correct	navigation	Trial3	navigation/STIM_001.jpg
1485.187	2.285	correct	navigation	Trial3	navigation/STIM_001.jpg
1491.368	2.672	correct	navigation	Trial3	navigation/STIM_001.jpg
1497.51	3.413	incorrect	navigation	Trial3	navigation/STIM_002.jpg
1503.58	1.917	correct	navigation	Trial3	navigation/STIM_002.jpg
1508.503	1.786	correct	navigation	Trial3	navigation/STIM_002.jpg
1512.692	3.263	correct	navigation	Trial3	navigation/STIM_002.jpg
1519.614	2.493	correct	navigation	Trial3	navigation/STIM_002.jpg
1524.275	2.352	correct	navigation	Trial3	navigation/STIM_002.jpg
1528.632	1.883	correct	navigation	Trial3	navigation/STIM_003.jpg
1534.118	2.974	correct	navigation	Trial3	navigation/STIM_003.jpg
1540.55	1.888	correct	navigation	Trial3	navigation/STIM_003.jpg
1546.297	2.89	correct	navigation	Trial3	navigation/STIM_003.jpg
1552.317	3.345	correct	navigation	Trial3	navigation/STIM_003.jpg
1558.925	3.382	correct	navigation	Trial3	navigation/STIM_003.jpg
1564.11	1.891	incorrect	navigation	Trial3	navigation/STIM_004.jpg
1569.835	2.49	incorrect	navigation	Trial3	navigation/STIM_004.jpg
1575.57	1.547	correct	navigation	Trial3	navigation/STIM_004.jpg
1580.088	1.673	correct	navigation	Trial3	navigation/STIM_004.jpg
1584.667	3.402	correct	navigation	Trial3	navigation/STIM_004.jpg
1591.465	3.516	incorrect	navigation	Trial3	navigation/STIM_004.jpg
1598.013	2.591	correct	navigation	Trial3	navigation/STIM_005.jpg
1604.412	1.926	correct	navigation	Trial3	navigation/STIM_005.jpg
1609.397	3.328	incorrect	navigation	Trial3	navigation/STIM_005.jpg
1615.851	2.539	correct	navigation	Trial3	navigation/STIM_005.jpg
1620.823	2.592	correct	navigation	Trial3	navigation/STIM_005.jpg
1626.217	2.222	correct	navigation	Trial3	navigation/STIM_005.jpg
1630.358	2.26	correct	navigation	Trial3	navigation/STIM_006.jpg
1635.257	2.608	correct	navigation	Trial3	navigation/STIM_006.jpg
1641.647	2.354	correct	navigation	Trial3	navigation/STIM_006.jpg
1646.853	2.882	correct	navigation	Trial3	navigation/STIM_006.jpg
1652.418	3.069	correct	navigation	Trial3	navigation/STIM_006.jpg
1658.41	3.307	correct	navigation	Trial3	navigation/STIM_006.jpg
1664.007	3.138	correct	navigation	Trial3	navigation/STIM_007.jpg
1669.057	2.27	correct	navigation	Trial3	navigation/STIM_007.jpg
1673.176	1.509	correct	navigation	Trial3	navigation/STIM_007.jpg
1676.687	2.56	correct	navigation	Trial3	navigation/STIM_007.jpg
1682.187	2.286	correct	navigation	Trial3	navigation/STIM_007.jpg
1686.414	3.021	correct	navigation	Trial3	navigation/STIM_007.jpg
1692.759	3.464	correct	navigation	Trial3	navigation/STIM_008.jpg
1698.963	2.512	correct	navigation	Trial3	navigation/STIM_008.jpg
1704.625	3.584	correct	navigation	Trial3	navigation/STIM_008.jpg
1710.472	3.341	incorrect	navigation	Trial3	navigation/STIM_008.jpg
1716.707	2.888	correct	navigation	Trial3	navigation/STIM_008.jpg
1721.897	1.994	correct	navigation	Trial3	navigation/STIM_008.jpg
1726.393	3.396	incorrect	navigation	Trial3	navigation/STIM_009.jpg
1732.487	3.725	correct	navigation	Trial3	navigation/STIM_009.jpg
1738.338	3.016	correct	navigation	Trial3	navigation/STIM_009.jpg
1744.097	1.917	correct	navigation	Trial3	navigation/STIM_009.jpg
1748.921	2.665	correct	navigation	Trial3	navigation/STIM_009.jpg
1755.317	2.11	correct	navigation	Trial3	navigation/STIM_009.jpg
1760.42	2.456	correct	navigation	Trial3	navigation/STIM_010.jpg
1765.953	3.494	correct	navigation	Trial3	navigation/STIM_010.jpg
1771.974	2.973	correct	navigation	Trial3	navigation/STIM_010.jpg
1777.541	1.612	correct	navigation	Trial3	navigation/STIM_010.jpg
1781.72	3.507	incorrect	navigation	Trial3	navigation/STIM_010.jpg
1787.521	2.591	correct	navigation	Trial3	navigation/STIM_010.jpg
1793.579	2.216	correct	navigation	Trial3	navigation/STIM_011.jpg
1798.981	3.084	correct	navigation	Trial3	navigation/STIM_011.jpg
1805.38	2.536	correct	navigation	Trial3	navigation/STIM_011.jpg
1810.401	1.966	incorrect	navigation	Trial3	navigation/STIM_011.jpg
1816.2	3.319	correct	navigation	Trial3	navigation/STIM_011.jpg
1821.755	3.265	correct	navigation	Trial3	navigation/STIM_011.jpg
1828.59	1.265	correct	pointing	Trial3	pointing/STIM_000.jpg
1831.866	0.942	correct	pointing	Trial3	pointing/STIM_000.jpg
1835.263	0.838	correct	pointing	Trial3	pointing/STIM_000.jpg
1838.703	1.236	correct	pointing	Trial3	pointing/STIM_000.jpg
1843.081	1.566	correct	pointing	Trial3	pointing/STIM_000.jpg
1848.456	1.095	correct	pointing	Trial3	pointing/STIM_000.jpg
1852.945	1.194	correct	pointing	Trial3	pointing/STIM_001.jpg
1857.369	1.244	correct	pointing	Trial3	pointing/STIM_001.jpg
1862.254	1.502	correct	pointing	Trial3	pointing/STIM_001.jpg
1867.023	1.033	correct	pointing	Trial3	pointing/STIM_001.jpg
1870.998	1.5	correct	pointing	Trial3	pointing/STIM_001.jpg
1874.861	1.202	correct	pointing	Trial3	pointing/STIM_001.jpg
1879.855	1.347	incorrect	pointing	Trial3	pointing/STIM_002.jpg
1883.717	1.584	correct	pointing	Trial3	pointing/STIM_002.jpg
1889.037	1.462	incorrect	pointing	Trial3	pointing/STIM_002.jpg
1893.171	1.368	correct	pointing	Trial3	pointing/STIM_002.jpg
1898.459	1.553	correct	pointing	Trial3	pointing/STIM_002.jpg
1902.389	1.06	correct	pointing	Trial3	pointing/STIM_002.jpg
1907.138	1.255	correct	pointing	Trial3	pointing/STIM_003.jpg
1911.468	1.335	correct	pointing	Trial3	pointing/STIM_003.jpg
1914.881	1.323	correct	pointing	Trial3	pointing/STIM_003.jpg
1918.263	1.546	correct	pointing	Trial3	pointing/STIM_003.jpg
1923.289	1.274	correct	pointing	Trial3	pointing/STIM_003.jpg
1928.489	1.308	incorrect	pointing	Trial3	pointing/STIM_003.jpg
1933.463	0.842	correct	pointing	Trial3	pointing/STIM_004.jpg
1937.844	1.254	correct	pointing	Trial3	pointing/STIM_004.jpg
1941.923	1.027	correct	pointing	Trial3	pointing/STIM_004.jpg
1946.288	1.207	correct	pointing	Trial3	pointing/STIM_004.jpg
1951.186	0.964	correct	pointing	Trial3	pointing/STIM_004.jpg
1955.116	0.749	incorrect	pointing	Trial3	pointing/STIM_004.jpg
1959.909	1.351	correct	pointing	Trial3	pointing/STIM_005.jpg
1963.967	1.544	incorrect	pointing	Trial3	pointing/STIM_005.jpg
1969.211	1.508	correct	pointing	Trial3	pointing/STIM_005.jpg
1974.295	1.689	incorrect	pointing	Trial3	pointing/STIM_005.jpg
1979.574	1.002	correct	pointing	Trial3	pointing/STIM_005.jpg
1984.043	1.082	correct	pointing	Trial3	pointing/STIM_005.jpg
1988.323	1.37	correct	pointing	Trial3	pointing/STIM_006.jpg
1993.348	1.567	correct	pointing	Trial3	pointing/STIM_006.jpg
1997.026	1.492	correct	pointing	Trial3	pointing/STIM_006.jpg
2000.446	1.303	correct	pointing	Trial3	pointing/STIM_006.jpg
2005.481	1.047	correct	pointing	Trial3	pointing/STIM_006.jpg
2010.025	1.294	correct	pointing	Trial3	pointing/STIM_006.jpg
2015.321	1.207	correct	pointing	Trial3	pointing/STIM_007.jpg
2019.312	1.537	correct	pointing	Trial3	pointing/STIM_007.jpg
2022.974	1.546	correct	pointing	Trial3	pointing/STIM_007.jpg
2027.347	1.558	correct	pointing	Trial3	pointing/STIM_007.jpg
2030.926	1.208	incorrect	pointing	Trial3	pointing/STIM_007.jpg
2034.812	1.193	correct	pointing	Trial3	pointing/STIM_007.jpg
2038.229	1.328	correct	pointing	Trial3	pointing/STIM_008.jpg
2041.567	1.308	correct	pointing	Trial3	pointing/STIM_008.jpg
2046.073	1.376	correct	pointing	Trial3	pointing/STIM_008.jpg
2050.487	1.224	correct	pointing	Trial3	pointing/STIM_008.jpg
2054.572	1.039	correct	pointing	Trial3	pointing/STIM_008.jpg
2058.924	1.185	correct	pointing	Trial3	pointing/STIM_008.jpg
2062.159	1.464	incorrect	pointing	Trial3	pointing/STIM_009.jpg
2065.995	0.995	correct	pointing	Trial3	pointing/STIM_009.jpg
2069.299	1.456	correct	pointing	Trial3	pointing/STIM_009.jpg
2072.888	1.331	correct	pointing	Trial3	pointing/STIM_009.jpg
2076.784	1.001	correct	pointing	Trial3	pointing/STIM_009.jpg
2079.914	1.362	correct	pointing	Trial3	pointing/STIM_009.jpg
2084.629	1.047	correct	pointing	Trial3	pointing/STIM_010.jpg
2088.851	1.542	correct	pointing	Trial3	pointing/STIM_010.jpg
2093.169	1.634	correct	pointing	Trial3	pointing/STIM_010.jpg
2097.712	1.233	correct	pointing	Trial3	pointing/STIM_010.jpg
2101.057	1.409	correct	pointing	Trial3	pointing/STIM_010.jpg
2105.279	1.334	correct	pointing	Trial3	pointing/STIM_010.jpg
2109.473	1.151	correct	pointing	Trial3	pointing/STIM_011.jpg
2113.12	1.223	incorrect	pointing	Trial3	pointing/STIM_011.jpg
2118.158	1.124	correct	pointing	Trial3	pointing/STIM_011.jpg
2122.67	1.235	correct	pointing	Trial3	pointing/STIM_011.jpg
2126.534	0.903	correct	pointing	Trial3	pointing/STIM_011.jpg
2129.9	0.833	correct	pointing	Trial3	pointing/STIM_011.jpg
