onset	duration	response_time_ms	trial_type	learning_stage	stimulus	response_port
0.0	4.486	4485.9	navigation	Trial1	navigation/STIM_000.jpg	99
7.135	2.466	2465.8	navigation	Trial1	navigation/STIM_000.jpg	100
11.913	3.324	3324.2	navigation	Trial1	navigation/STIM_000.jpg	100
18.349	4.025	4025.0	navigation	Trial1	navigation/STIM_000.jpg	99
24.262	2.744	2743.7	navigation	Trial1	navigation/STIM_000.jpg	100
30.827	2.985	2985.4	navigation	Trial1	navigation/STIM_000.jpg	99
35.758	4.123	4123.4	navigation	Trial1	navigation/STIM_001.jpg	99
43.358	2.672	2672.4	navigation	Trial1	navigation/STIM_001.jpg	99
49.074	3.524	3523.9	navigation	Trial1	navigation/STIM_001.jpg	100
55.025	2.069	2068.8	navigation	Trial1	navigation/STIM_001.jpg	100
60.27	2.793	2792.8	navigation	Trial1	navigation/STIM_001.jpg	99
66.569	3.971	3971.0	navigation	Trial1	navigation/STIM_001.jpg	99
73.209	5.066	5065.6	navigation	Trial1	navigation/STIM_002.jpg	100
80.257	3.579	3579.4	navigation	Trial1	navigation/STIM_002.jpg	99
86.195	3.462	3462.0	navigation	Trial1	navigation/STIM_002.jpg	99
92.544	3.377	3376.7	navigation	Trial1	navigation/STIM_002.jpg	99
97.909	2.576	2575.5	navigation	Trial1	navigation/STIM_002.jpg	100
102.977	1.739	1739.1	navigation	Trial1	navigation/STIM_002.jpg	100
106.966	4.391	4390.7	navigation	Trial1	navigation/STIM_003.jpg	100
113.673	4.675	4674.8	navigation	Trial1	navigation/STIM_003.jpg	99
121.969	3.228	3228.1	navigation	Trial1	navigation/STIM_003.jpg	100
128.449	3.784	3784.1	navigation	Trial1	navigation/STIM_003.jpg	99
134.656	2.886	2886.4	navigation	Trial1	navigation/STIM_003.jpg	100
140.911	2.028	2028.2	navigation	Trial1	navigation/STIM_003.jpg	100
145.402	4.792	4792.1	navigation	Trial1	navigation/STIM_004.jpg	99
152.489	2.4	2400.1	navigation	Trial1	navigation/STIM_004.jpg	100
156.786	3.287	3287.4	navigation	Trial1	navigation/STIM_004.jpg	100
162.082	2.944	2944.5	navigation	Trial1	navigation/STIM_004.jpg	99
167.577	2.056	2056.0	navigation	Trial1	navigation/STIM_004.jpg	100
171.697	2.403	2403.3	navigation	Trial1	navigation/STIM_004.jpg	99
176.265	4.618	4618.0	navigation	Trial1	navigation/STIM_005.jpg	99
184.638	4.587	4587.0	navigation	Trial1	navigation/STIM_005.jpg	99
191.059	3.947	3947.3	navigation	Trial1	navigation/STIM_005.jpg	99
198.111	2.516	2516.3	navigation	Trial1	navigation/STIM_005.jpg	100
203.133	2.306	2305.5	navigation	Trial1	navigation/STIM_005.jpg	100
207.835	2.24	2240.5	navigation	Trial1	navigation/STIM_005.jpg	99
213.885	4.67	4669.7	navigation	Trial1	navigation/STIM_006.jpg	100
222.038	4.386	4386.4	navigation	Trial1	navigation/STIM_006.jpg	99
228.4	4.334	4334.5	navigation	Trial1	navigation/STIM_006.jpg	100
234.939	3.782	3781.5	navigation	Trial1	navigation/STIM_006.jpg	100
240.776	2.859	2859.1	navigation	Trial1	navigation/STIM_006.jpg	99
246.16	2.402	2402.4	navigation	Trial1	navigation/STIM_006.jpg	99
251.679	2.47	2469.5	navigation	Trial1	navigation/STIM_007.jpg	100
256.517	3.04	3039.7	navigation	Trial1	navigation/STIM_007.jpg	100
263.272	1.964	1963.8	navigation	Trial1	navigation/STIM_007.jpg	100
268.109	3.994	3993.8	navigation	Trial1	navigation/STIM_007.jpg	99
274.361	3.621	3620.6	navigation	Trial1	navigation/STIM_007.jpg	100
280.638	2.531	2531.2	navigation	Trial1	navigation/STIM_007.jpg	100
285.026	2.374	2373.6	navigation	Trial1	navigation/STIM_008.jpg	100
290.251	3.82	3820.5	navigation	Trial1	navigation/STIM_008.jpg	100
296.616	3.671	3671.4	navigation	Trial1	navigation/STIM_008.jpg	99
303.822	3.785	3785.3	navigation	Trial1	navigation/STIM_008.jpg	100
310.928	2.256	2255.9	navigation	Trial1	navigation/STIM_008.jpg	99
316.572	2.132	2132.1	navigation	Trial1	navigation/STIM_008.jpg	99
321.611	2.666	2665.6	navigation	Trial1	navigation/STIM_009.jpg	100
327.889	3.325	3324.9	navigation	Trial1	navigation/STIM_009.jpg	100
333.465	4.419	4419.2	navigation	Trial1	navigation/STIM_009.jpg	99
341.491	3.474	3474.0	navigation	Trial1	navigation/STIM_009.jpg	100
347.539	2.159	2158.7	navigation	Trial1	navigation/STIM_009.jpg	100
353.092	1.592	1592.0	navigation	Trial1	navigation/STIM_009.jpg	100
357.589	4.586	4585.9	navigation	Trial1	navigation/STIM_010.jpg	99
365.253	4.606	4606.3	navigation	Trial1	navigation/STIM_010.jpg	99
371.797	2.434	2433.8	navigation	Trial1	navigation/STIM_010.jpg	99
377.28	3.45	3450.0	navigation	Trial1	navigation/STIM_010.jpg	99
384.175	2.095	2095.2	navigation	Trial1	navigation/STIM_010.jpg	99
389.161	2.204	2203.7	navigation	Trial1	navigation/STIM_010.jpg	100
395.262	5.041	5040.7	navigation	Trial1	navigation/STIM_011.jpg	100
403.258	3.846	3845.9	navigation	Trial1	navigation/STIM_011.jpg	100
410.509	3.024	3023.8	navigation	Trial1	navigation/STIM_011.jpg	100
416.316	2.603	2602.6	navigation	Trial1	navigation/STIM_011.jpg	100
420.777	3.059	3058.8	navigation	Trial1	navigation/STIM_011.jpg	100
425.81	2.183	2182.8	navigation	Trial1	navigation/STIM_011.jpg	100
430.038	1.355	1354.8	pointing	Trial1	pointing/STIM_000.jpg	100
435.213	0.934	933.8	pointing	Trial1	pointing/STIM_000.jpg	99
438.905	0.863	863.0	pointing	Trial1	pointing/STIM_000.jpg	100
442.057	1.154	1153.5	pointing	Trial1	pointing/STIM_000.jpg	100
446.834	1.127	1127.2	pointing	Trial1	pointing/STIM_000.jpg	100
450.081	1.015	1015.4	pointing	Trial1	pointing/STIM_000.jpg	100
453.24	1.146	1146.3	pointing	Trial1	pointing/STIM_001.jpg	100
457.706	1.014	1013.9	pointing	Trial1	pointing/STIM_001.jpg	99
460.839	1.412	1411.8	pointing	Trial1	pointing/STIM_001.jpg	100
466.042	0.976	975.9	pointing	Trial1	pointing/STIM_001.jpg	99
470.202	1.355	1354.8	pointing	Trial1	pointing/STIM_001.jpg	100
474.702	1.365	1364.6	pointing	Trial1	pointing/STIM_001.jpg	100
479.575	1.039	1038.9	pointing	Trial1	pointing/STIM_002.jpg	100
483.345	0.996	995.9	pointing	Trial1	pointing/STIM_002.jpg	99
486.917	1.288	1288.1	pointing	Trial1	pointing/STIM_002.jpg	100
491.716	0.968	968.2	pointing	Trial1	pointing/STIM_002.jpg	100
496.496	0.903	903.3	pointing	Trial1	pointing/STIM_002.jpg	99
499.675	1.127	1126.6	pointing	Trial1	pointing/STIM_002.jpg	100
504.371	1.573	1573.4	pointing	Trial1	pointing/STIM_003.jpg	99
509.507	1.543	1542.8	pointing	Trial1	pointing/STIM_003.jpg	100
514.96	1.373	1373.0	pointing	Trial1	pointing/STIM_003.jpg	100
519.877	0.992	992.2	pointing	Trial1	pointing/STIM_003.jpg	100
523.017	1.282	1282.1	pointing	Trial1	pointing/STIM_003.jpg	99
528.102	1.519	1518.8	pointing	Trial1	pointing/STIM_003.jpg	100
532.191	1.417	1417.1	pointing	Trial1	pointing/STIM_004.jpg	99
535.741	1.504	1503.5	pointing	Trial1	pointing/STIM_004.jpg	100
539.822	0.903	903.3	pointing	Trial1	pointing/STIM_004.jpg	99
544.529	0.87	869.9	pointing	Trial1	pointing/STIM_004.jpg	100
548.765	1.01	1010.2	pointing	Trial1	pointing/STIM_004.jpg	99
551.889	0.965	965.1	pointing	Trial1	pointing/STIM_004.jpg	100
555.278	1.246	1246.5	pointing	Trial1	pointing/STIM_005.jpg	99
558.578	1.396	1396.5	pointing	Trial1	pointing/STIM_005.jpg	99
563.399	0.885	885.3	pointing	Trial1	pointing/STIM_005.jpg	99
567.999	1.559	1559.4	pointing	Trial1	pointing/STIM_005.jpg	100
572.919	1.483	1483.4	pointing	Trial1	pointing/STIM_005.jpg	99
576.481	1.426	1426.2	pointing	Trial1	pointing/STIM_005.jpg	100
580.243	1.012	1011.7	pointing	Trial1	pointing/STIM_006.jpg	99
583.857	0.931	931.0	pointing	Trial1	pointing/STIM_006.jpg	100
587.462	1.477	1476.9	pointing	Trial1	pointing/STIM_006.jpg	99
592.343	1.484	1484.3	pointing	Trial1	pointing/STIM_006.jpg	100
596.603	1.1	1099.6	pointing	Trial1	pointing/STIM_006.jpg	99
601.126	1.508	1508.0	pointing	Trial1	pointing/STIM_006.jpg	100
605.661	1.21	1210.1	pointing	Trial1	pointing/STIM_007.jpg	99
608.983	1.041	1041.3	pointing	Trial1	pointing/STIM_007.jpg	100
611.994	0.857	856.7	pointing	Trial1	pointing/STIM_007.jpg	99
616.835	1.545	1544.7	pointing	Trial1	pointing/STIM_007.jpg	99
620.432	0.922	922.3	pointing	Trial1	pointing/STIM_007.jpg	100
624.033	1.164	1164.4	pointing	Trial1	pointing/STIM_007.jpg	100
628.052	1.065	1065.1	pointing	Trial1	pointing/STIM_008.jpg	100
631.939	1.303	1303.2	pointing	Trial1	pointing/STIM_008.jpg	100
636.066	1.277	1277.1	pointing	Trial1	pointing/STIM_008.jpg	99
640.838	1.484	1483.7	pointing	Trial1	pointing/STIM_008.jpg	99
646.187	1.099	1099.3	pointing	Trial1	pointing/STIM_008.jpg	99
650.681	1.167	1167.2	pointing	Trial1	pointing/STIM_008.jpg	100
654.595	0.847	846.8	pointing	Trial1	pointing/STIM_009.jpg	100
657.494	1.23	1230.5	pointing	Trial1	pointing/STIM_009.jpg	100
662.169	1.294	1294.5	pointing	Trial1	pointing/STIM_009.jpg	99
665.665	1.204	1203.7	pointing	Trial1	pointing/STIM_009.jpg	99
670.295	1.446	1445.6	pointing	Trial1	pointing/STIM_009.jpg	99
673.932	1.428	1428.1	pointing	Trial1	pointing/STIM_009.jpg	99
679.273	0.997	996.8	pointing	Trial1	pointing/STIM_010.jpg	100
684.039	1.075	1074.7	pointing	Trial1	pointing/STIM_010.jpg	100
688.99	1.158	1158.1	pointing	Trial1	pointing/STIM_010.jpg	99
693.936	0.888	887.5	pointing	Trial1	pointing/STIM_010.jpg	99
697.086	1.424	1424.0	pointing	Trial1	pointing/STIM_010.jpg	99
701.832	1.192	1192.1	pointing	Trial1	pointing/STIM_010.jpg	99
705.076	0.992	992.3	pointing	Trial1	pointing/STIM_011.jpg	99
709.503	1.058	1058.2	pointing	Trial1	pointing/STIM_011.jpg	99
714.323	1.435	1435.4	pointing	Trial1	pointing/STIM_011.jpg	100
719.356	1.147	1146.7	pointing	Trial1	pointing/STIM_011.jpg	99
722.432	0.834	834.1	pointing	Trial1	pointing/STIM_011.jpg	99
726.121	1.322	1321.9	pointing	Trial1	pointing/STIM_011.jpg	99
730.075	4.324	4324.0	navigation	Trial2	navigation/STIM_000.jpg	99
737.996	2.843	2842.6	navigation	Trial2	navigation/STIM_000.jpg	99
744.558	2.912	2912.1	navigation	Trial2	navigation/STIM_000.jpg	100
751.059	1.799	1799.4	navigation	Trial2	navigation/STIM_000.jpg	100
756.225	3.481	3481.0	navigation	Trial2	navigation/STIM_000.jpg	100
762.672	2.602	2602.0	navigation	Trial2	navigation/STIM_000.jpg	100
767.468	3.22	3220.3	navigation	Trial2	navigation/STIM_001.jpg	100
772.644	3.514	3513.9	navigation	Trial2	navigation/STIM_001.jpg	100
779.525	2.033	2033.2	navigation	Trial2	navigation/STIM_001.jpg	100
784.099	1.608	1608.3	navigation	Trial2	navigation/STIM_001.jpg	100
789.604	3.583	3582.7	navigation	Trial2	navigation/STIM_001.jpg	99
795.462	2.603	2603.4	navigation	Trial2	navigation/STIM_001.jpg	100
800.649	1.919	1919.2	navigation	Trial2	navigation/STIM_002.jpg	100
805.733	1.931	1930.7	navigation	Trial2	navigation/STIM_002.jpg	100
810.876	2.319	2319.4	navigation	Trial2	navigation/STIM_002.jpg	100
816.045	3.707	3707.4	navigation	Trial2	navigation/STIM_002.jpg	99
822.912	1.607	1607.1	navigation	Trial2	navigation/STIM_002.jpg	99
826.988	3.317	3316.8	navigation	Trial2	navigation/STIM_002.jpg	100
833.868	2.135	2134.8	navigation	Trial2	navigation/STIM_003.jpg	100
839.604	2.288	2287.9	navigation	Trial2	navigation/STIM_003.jpg	100
844.386	1.7	1700.2	navigation	Trial2	navigation/STIM_003.jpg	100
849.636	1.978	1977.7	navigation	Trial2	navigation/STIM_003.jpg	100
854.843	1.808	1807.6	navigation	Trial2	navigation/STIM_003.jpg	100
860.452	2.337	2336.7	navigation	Trial2	navigation/STIM_003.jpg	99
866.572	2.804	2803.8	navigation	Trial2	navigation/STIM_004.jpg	99
871.249	2.846	2845.5	navigation	Trial2	navigation/STIM_004.jpg	99
876.422	2.456	2456.3	navigation	Trial2	navigation/STIM_004.jpg	99
882.376	1.712	1712.4	navigation	Trial2	navigation/STIM_004.jpg	100
886.62	2.895	2895.0	navigation	Trial2	navigation/STIM_004.jpg	99
892.156	3.365	3364.8	navigation	Trial2	navigation/STIM_004.jpg	100
899.232	3.395	3395.1	navigation	Trial2	navigation/STIM_005.jpg	100
904.667	1.882	1881.8	navigation	Trial2	navigation/STIM_005.jpg	100
908.581	3.522	3522.3	navigation	Trial2	navigation/STIM_005.jpg	100
915.025	3.283	3282.6	navigation	Trial2	navigation/STIM_005.jpg	99
921.946	2.159	2159.2	navigation	Trial2	navigation/STIM_005.jpg	99
927.21	3.278	3277.5	navigation	Trial2	navigation/STIM_005.jpg	99
933.668	3.221	3220.8	navigation	Trial2	navigation/STIM_006.jpg	99
939.538	2.306	2305.7	navigation	Trial2	navigation/STIM_006.jpg	100
943.808	3.353	3353.2	navigation	Trial2	navigation/STIM_006.jpg	100
949.165	1.759	1758.8	navigation	Trial2	navigation/STIM_006.jpg	100
954.687	3.526	3525.6	navigation	Trial2	navigation/STIM_006.jpg	99
961.148	2.746	2746.4	navigation	Trial2	navigation/STIM_006.jpg	100
966.81	2.124	2123.6	navigation	Trial2	navigation/STIM_007.jpg	100
971.222	3.489	3488.8	navigation	Trial2	navigation/STIM_007.jpg	100
977.054	2.283	2283.2	navigation	Trial2	navigation/STIM_007.jpg	99
981.9	3.381	3380.7	navigation	Trial2	navigation/STIM_007.jpg	100
988.955	1.96	1959.7	navigation	Trial2	navigation/STIM_007.jpg	100
993.505	3.124	3124.3	navigation	Trial2	navigation/STIM_007.jpg	100
999.415	3.442	3442.0	navigation	Trial2	navigation/STIM_008.jpg	100
1005.764	1.785	1785.0	navigation	Trial2	navigation/STIM_008.jpg	99
1009.536	3.426	3425.8	navigation	Trial2	navigation/STIM_008.jpg	99
1016.394	2.251	2251.0	navigation	Trial2	navigation/STIM_008.jpg	100
1021.268	2.377	2377.4	navigation	Trial2	navigation/STIM_008.jpg	99
1026.146	1.741	1740.8	navigation	Trial2	navigation/STIM_008.jpg	100
1030.988	3.102	3101.5	navigation	Trial2	navigation/STIM_009.jpg	99
1036.791	3.662	3662.3	navigation	Trial2	navigation/STIM_009.jpg	99
1042.293	2.586	2586.4	navigation	Trial2	navigation/STIM_009.jpg	100
1048.385	1.469	1468.7	navigation	Trial2	navigation/STIM_009.jpg	100
1052.009	1.558	1557.7	navigation	Trial2	navigation/STIM_009.jpg	100
1057.066	1.86	1859.9	navigation	Trial2	navigation/STIM_009.jpg	99
1062.038	2.922	2922.1	navigation	Trial2	navigation/STIM_010.jpg	99
1068.214	4.248	4247.9	navigation	Trial2	navigation/STIM_010.jpg	100
1075.245	3.871	3871.0	navigation	Trial2	navigation/STIM_010.jpg	99
1081.283	2.855	2855.3	navigation	Trial2	navigation/STIM_010.jpg	99
1086.528	1.902	1901.7	navigation	Trial2	navigation/STIM_010.jpg	100
1092.178	3.156	3156.4	navigation	Trial2	navigation/STIM_010.jpg	100
1098.609	2.904	2904.0	navigation	Trial2	navigation/STIM_011.jpg	99
1104.471	2.38	2379.9	navigation	Trial2	navigation/STIM_011.jpg	99
1110.356	1.899	1898.6	navigation	Trial2	navigation/STIM_011.jpg	99
1115.669	3.54	3540.4	navigation	Trial2	navigation/STIM_011.jpg	100
1121.014	1.572	1571.7	navigation	Trial2	navigation/STIM_011.jpg	100
1125.217	3.569	3569.3	navigation	Trial2	navigation/STIM_011.jpg	100
1132.193	1.095	1094.9	pointing	Trial2	pointing/STIM_000.jpg	99
1136.497	1.086	1085.8	pointing	Trial2	pointing/STIM_000.jpg	99
1139.638	1.595	1595.3	pointing	Trial2	pointing/STIM_000.jpg	100
1144.842	1.244	1244.2	pointing	Trial2	pointing/STIM_000.jpg	100
1148.496	1.257	1256.7	pointing	Trial2	pointing/STIM_000.jpg	100
1153.605	0.838	838.0	pointing	Trial2	pointing/STIM_000.jpg	100
1157.259	0.863	863.3	pointing	Trial2	pointing/STIM_001.jpg	100
1160.185	0.906	905.9	pointing	Trial2	pointing/STIM_001.jpg	99
1163.206	1.345	1344.9	pointing	Trial2	pointing/STIM_001.jpg	99
1167.315	1.031	1030.7	pointing	Trial2	pointing/STIM_001.jpg	99
1172.043	1.363	1363.3	pointing	Trial2	pointing/STIM_001.jpg	99
1176.261	1.348	1347.5	pointing	Trial2	pointing/STIM_001.jpg	99
1181.104	1.581	1581.0	pointing	Trial2	pointing/STIM_002.jpg	100
1185.107	1.063	1062.8	pointing	Trial2	pointing/STIM_002.jpg	100
1189.542	0.951	951.1	pointing	Trial2	pointing/STIM_002.jpg	99
1193.368	1.184	1184.5	pointing	Trial2	pointing/STIM_002.jpg	100
1198.022	1.476	1476.0	pointing	Trial2	pointing/STIM_002.jpg	100
1202.802	1.317	1316.7	pointing	Trial2	pointing/STIM_002.jpg	99
1206.298	1.012	1011.8	pointing	Trial2	pointing/STIM_003.jpg	99
1210.603	0.83	829.6	pointing	Trial2	pointing/STIM_003.jpg	100
1214.89	0.97	969.9	pointing	Trial2	pointing/STIM_003.jpg	100
1218.663	1.513	1513.0	pointing	Trial2	pointing/STIM_003.jpg	99
1222.446	1.425	1425.1	pointing	Trial2	pointing/STIM_003.jpg	99
1226.558	1.193	1193.4	pointing	Trial2	pointing/STIM_003.jpg	99
1230.077	1.52	1519.6	pointing	Trial2	pointing/STIM_004.jpg	100
1233.624	1.154	1154.5	pointing	Trial2	pointing/STIM_004.jpg	99
1238.403	1.059	1058.9	pointing	Trial2	pointing/STIM_004.jpg	100
1241.453	1.181	1181.2	pointing	Trial2	pointing/STIM_004.jpg	99
1246.132	1.466	1466.0	pointing	Trial2	pointing/STIM_004.jpg	100
1251.053	0.964	964.3	pointing	Trial2	pointing/STIM_004.jpg	99
1254.461	1.432	1432.2	pointing	Trial2	pointing/STIM_005.jpg	99
1259.712	1.429	1428.6	pointing	Trial2	pointing/STIM_005.jpg	100
1264.286	1.165	1165.2	pointing	Trial2	pointing/STIM_005.jpg	99
1267.45	1.222	1221.7	pointing	Trial2	pointing/STIM_005.jpg	99
1271.964	1.153	1153.4	pointing	Trial2	pointing/STIM_005.jpg	99
1276.524	1.195	1195.4	pointing	Trial2	pointing/STIM_005.jpg	100
1281.287	1.271	1270.9	pointing	Trial2	pointing/STIM_006.jpg	100
1284.763	0.91	910.0	pointing	Trial2	pointing/STIM_006.jpg	100
1287.916	1.247	1247.3	pointing	Trial2	pointing/STIM_006.jpg	100
1292.214	0.942	942.1	pointing	Trial2	pointing/STIM_006.jpg	100
1296.464	0.972	971.5	pointing	Trial2	pointing/STIM_006.jpg	99
1300.086	0.945	945.4	pointing	Trial2	pointing/STIM_006.jpg	99
1304.747	1.038	1037.6	pointing	Trial2	pointing/STIM_007.jpg	99
1308.336	1.599	1598.8	pointing	Trial2	pointing/STIM_007.jpg	100
1312.373	1.554	1553.8	pointing	Trial2	pointing/STIM_007.jpg	99
1317.204	0.873	872.7	pointing	Trial2	pointing/STIM_007.jpg	99
1322.017	1.447	1446.8	pointing	Trial2	pointing/STIM_007.jpg	100
1325.699	1.345	1344.8	pointing	Trial2	pointing/STIM_007.jpg	100
1329.715	1.26	1260.2	pointing	Trial2	pointing/STIM_008.jpg	99
1333.984	1.428	1428.5	pointing	Trial2	pointing/STIM_008.jpg	99
1338.716	1.392	1392.3	pointing	Trial2	pointing/STIM_008.jpg	100
1342.427	1.22	1220.2	pointing	Trial2	pointing/STIM_008.jpg	100
1345.97	0.962	962.5	pointing	Trial2	pointing/STIM_008.jpg	100
1349.674	1.52	1519.5	pointing	Trial2	pointing/STIM_008.jpg	100
1353.075	1.442	1441.8	pointing	Trial2	pointing/STIM_009.jpg	99
1358.301	1.107	1107.3	pointing	Trial2	pointing/STIM_009.jpg	100
1361.646	0.913	912.8	pointing	Trial2	pointing/STIM_009.jpg	99
1365.034	1.406	1406.2	pointing	Trial2	pointing/STIM_009.jpg	100
1369.777	1.383	1382.7	pointing	Trial2	pointing/STIM_009.jpg	99
1373.413	1.123	1122.7	pointing	Trial2	pointing/STIM_009.jpg	100
1377.86	1.179	1178.9	pointing	Trial2	pointing/STIM_010.jpg	100
1381.967	1.484	1483.5	pointing	Trial2	pointing/STIM_010.jpg	99
1386.815	1.173	1172.9	pointing	Trial2	pointing/STIM_010.jpg	99
1391.789	1.32	1319.5	pointing	Trial2	pointing/STIM_010.jpg	99
1396.78	1.221	1220.8	pointing	Trial2	pointing/STIM_010.jpg	100
1400.405	1.465	1465.3	pointing	Trial2	pointing/STIM_010.jpg	100
1404.391	1.563	1562.8	pointing	Trial2	pointing/STIM_011.jpg	99
1408.839	1.359	1358.6	pointing	Trial2	pointing/STIM_011.jpg	100
1413.96	1.21	1210.2	pointing	Trial2	pointing/STIM_011.jpg	100
1418.696	1.46	1460.2	pointing	Trial2	pointing/STIM_011.jpg	99
1422.401	1.262	1262.0	pointing	Trial2	pointing/STIM_011.jpg	100
1427.01	1.573	1572.9	pointing	Trial2	pointing/STIM_011.jpg	100
1431.269	1.744	1744.0	navigation	Trial3	navigation/STIM_000.jpg	100
1435.963	1.739	1738.6	navigation	Trial3	navigation/STIM_000.jpg	100
1440.537	3.068	3068.4	navigation	Trial3	navigation/STIM_000.jpg	99
1445.698	1.762	1761.6	navigation	Trial3	navigation/STIM_000.jpg	99
1449.645	3.26	3260.4	navigation	Trial3	navigation/STIM_000.jpg	100
1456.64	1.804	1803.9	navigation	Trial3	navigation/STIM_000.jpg	99
1460.616	2.902	2901.6	navigation	Trial3	navigation/STIM_001.jpg	99
1465.674	3.429	3429.1	navigation	Trial3	navigation/STIM_001.jpg	100
1472.44	3.001	3001.3	navigation	Trial3	navigation/STIM_001.jpg	100
1478.91	3.15	3149.5	navigation	Trial3	navigation/STIM_001.jpg	99
1485.187	2.285	2284.7	navigation	Trial3	navigation/STIM_001.jpg	100
1491.368	2.672	2671.8	navigation	Trial3	navigation/STIM_001.jpg	99
1497.51	3.413	3413.0	navigation	Trial3	navigation/STIM_002.jpg	99
1503.58	1.917	1917.0	navigation	Trial3	navigation/STIM_002.jpg	99
1508.503	1.786	1785.6	navigation	Trial3	navigation/STIM_002.jpg	99
1512.692	3.263	3262.9	navigation	Trial3	navigation/STIM_002.jpg	100
1519.614	2.493	2493.1	navigation	Trial3	navigation/STIM_002.jpg	99
1524.275	2.352	2352.0	navigation	Trial3	navigation/STIM_002.jpg	100
1528.632	1.883	1882.8	navigation	Trial3	navigation/STIM_003.jpg	100
1534.118	2.974	2974.0	navigation	Trial3	navigation/STIM_003.jpg	100
1540.55	1.888	1887.9	navigation	Trial3	navigation/STIM_003.jpg	100
1546.297	2.89	2889.5	navigation	Trial3	navigation/STIM_003.jpg	99
1552.317	3.345	3344.6	navigation	Trial3	navigation/STIM_003.jpg	99
1558.925	3.382	3382.3	navigation	Trial3	navigation/STIM_003.jpg	100
1564.11	1.891	1890.8	navigation	Trial3	navigation/STIM_004.jpg	100
1569.835	2.49	2489.5	navigation	Trial3	navigation/STIM_004.jpg	99
1575.57	1.547	1547.3	navigation	Trial3	navigation/STIM_004.jpg	99
1580.088	1.673	1672.6	navigation	Trial3	navigation/STIM_004.jpg	99
1584.667	3.402	3402.0	navigation	Trial3	navigation/STIM_004.jpg	100
1591.465	3.516	3515.7	navigation	Trial3	navigation/STIM_004.jpg	100
1598.013	2.591	2590.8	navigation	Trial3	navigation/STIM_005.jpg	100
1604.412	1.926	1926.5	navigation	Trial3	navigation/STIM_005.jpg	99
1609.397	3.328	3328.1	navigation	Trial3	navigation/STIM_005.jpg	99
1615.851	2.539	2538.8	navigation	Trial3	navigation/STIM_005.jpg	100
1620.823	2.592	2591.6	navigation	Trial3	navigation/STIM_005.jpg	100
1626.217	2.222	2221.8	navigation	Trial3	navigation/STIM_005.jpg	99
1630.358	2.26	2260.0	navigation	Trial3	navigation/STIM_006.jpg	99
1635.257	2.608	2607.5	navigation	Trial3	navigation/STIM_006.jpg	100
1641.647	2.354	2353.5	navigation	Trial3	navigation/STIM_006.jpg	100
1646.853	2.882	2882.5	navigation	Trial3	navigation/STIM_006.jpg	99
1652.418	3.069	3068.8	navigation	Trial3	navigation/STIM_006.jpg	100
1658.41	3.307	3306.6	navigation	Trial3	navigation/STIM_006.jpg	100
1664.007	3.138	3138.5	navigation	Trial3	navigation/STIM_007.jpg	99
1669.057	2.27	2270.1	navigation	Trial3	navigation/STIM_007.jpg	99
1673.176	1.509	1509.3	navigation	Trial3	navigation/STIM_007.jpg	100
1676.687	2.56	2559.9	navigation	Trial3	navigation/STIM_007.jpg	100
1682.187	2.286	2285.8	navigation	Trial3	navigation/STIM_007.jpg	100
1686.414	3.021	3020.9	navigation	Trial3	navigation/STIM_007.jpg	100
1692.759	3.464	3463.7	navigation	Trial3	navigation/STIM_008.jpg	100
1698.963	2.512	2512.0	navigation	Trial3	navigation/STIM_008.jpg	99
1704.625	3.584	3584.4	navigation	Trial3	navigation/STIM_008.jpg	99
1710.472	3.341	3341.2	navigation	Trial3	navigation/STIM_008.jpg	99
1716.707	2.888	2887.8	navigation	Trial3	navigation/STIM_008.jpg	99
1721.897	1.994	1994.4	navigation	Trial3	navigation/STIM_008.jpg	100
1726.393	3.396	3395.5	navigation	Trial3	navigation/STIM_009.jpg	100
1732.487	3.725	3724.7	navigation	Trial3	navigation/STIM_009.jpg	99
1738.338	3.016	3015.9	navigation	Trial3	navigation/STIM_009.jpg	99
1744.097	1.917	1917.2	navigation	Trial3	navigation/STIM_009.jpg	100
1748.921	2.665	2664.7	navigation	Trial3	navigation/STIM_009.jpg	99
1755.317	2.11	2109.5	navigation	Trial3	navigation/STIM_009.jpg	100
1760.42	2.456	2456.2	navigation	Trial3	navigation/STIM_010.jpg	99
1765.953	3.494	3493.6	navigation	Trial3	navigation/STIM_010.jpg	99
1771.974	2.973	2972.9	navigation	Trial3	navigation/STIM_010.jpg	99
1777.541	1.612	1612.5	navigation	Trial3	navigation/STIM_010.jpg	99
1781.72	3.507	3506.7	navigation	Trial3	navigation/STIM_010.jpg	99
1787.521	2.591	2591.2	navigation	Trial3	navigation/STIM_010.jpg	99
1793.579	2.216	2216.4	navigation	Trial3	navigation/STIM_011.jpg	99
1798.981	3.084	3083.9	navigation	Trial3	navigation/STIM_011.jpg	100
1805.38	2.536	2535.8	navigation	Trial3	navigation/STIM_011.jpg	100
1810.401	1.966	1966.4	navigation	Trial3	navigation/STIM_011.jpg	99
1816.2	3.319	3319.2	navigation	Trial3	navigation/STIM_011.jpg	99
1821.755	3.265	3264.7	navigation	Trial3	navigation/STIM_011.jpg	100
1828.59	1.265	1264.6	pointing	Trial3	pointing/STIM_000.jpg	100
1831.866	0.942	942.5	pointing	Trial3	pointing/STIM_000.jpg	99
1835.263	0.838	838.0	pointing	Trial3	pointing/STIM_000.jpg	100
1838.703	1.236	1236.3	pointing	Trial3	pointing/STIM_000.jpg	99
1843.081	1.566	1566.1	pointing	Trial3	pointing/STIM_000.jpg	99
1848.456	1.095	1095.1	pointing	Trial3	pointing/STIM_000.jpg	100
1852.945	1.194	1193.5	pointing	Trial3	pointing/STIM_001.jpg	100
1857.369	1.244	1244.4	pointing	Trial3	pointing/STIM_001.jpg	99
1862.254	1.502	1502.5	pointing	Trial3	pointing/STIM_001.jpg	99
1867.023	1.033	1032.9	pointing	Trial3	pointing/STIM_001.jpg	99
1870.998	1.5	1500.1	pointing	Trial3	pointing/STIM_001.jpg	99
1874.861	1.202	1201.6	pointing	Trial3	pointing/STIM_001.jpg	100
1879.855	1.347	1346.8	pointing	Trial3	pointing/STIM_002.jpg	100
1883.717	1.584	1583.9	pointing	Trial3	pointing/STIM_002.jpg	100
1889.037	1.462	1462.4	pointing	Trial3	pointing/STIM_002.jpg	99
1893.171	1.368	1367.7	pointing	Trial3	pointing/STIM_002.jpg	99
1898.459	1.553	1553.2	pointing	Trial3	pointing/STIM_002.jpg	100
1902.389	1.06	1059.7	pointing	Trial3	pointing/STIM_002.jpg	99
1907.138	1.255	1255.3	pointing	Trial3	pointing/STIM_003.jpg	100
1911.468	1.335	1335.1	pointing	Trial3	pointing/STIM_003.jpg	100
1914.881	1.323	1322.8	pointing	Trial3	pointing/STIM_003.jpg	100
1918.263	1.546	1546.4	pointing	Trial3	pointing/STIM_003.jpg	100
1923.289	1.274	1273.5	pointing	Trial3	pointing/STIM_003.jpg	99
1928.489	1.308	1308.3	pointing	Trial3	pointing/STIM_003.jpg	100
1933.463	0.842	842.3	pointing	Trial3	pointing/STIM_004.jpg	99
1937.844	1.254	1254.3	pointing	Trial3	pointing/STIM_004.jpg	99
1941.923	1.027	1027.0	pointing	Trial3	pointing/STIM_004.jpg	99
1946.288	1.207	1207.4	pointing	Trial3	pointing/STIM_004.jpg	99
1951.186	0.964	964.5	pointing	Trial3	pointing/STIM_004.jpg	100
1955.116	0.749	748.9	pointing	Trial3	pointing/STIM_004.jpg	100
1959.909	1.351	1350.6	pointing	Trial3	pointing/STIM_005.jpg	99
1963.967	1.544	1544.5	pointing	Trial3	pointing/STIM_005.jpg	99
1969.211	1.508	1507.8	pointing	Trial3	pointing/STIM_005.jpg	100
1974.295	1.689	1688.7	pointing	Trial3	pointing/STIM_005.jpg	100
1979.574	1.002	1002.0	pointing	Trial3	pointing/STIM_005.jpg	99
1984.043	1.082	1082.5	pointing	Trial3	pointing/STIM_005.jpg	100
1988.323	1.37	1370.5	pointing	Trial3	pointing/STIM_006.jpg	99
1993.348	1.567	1567.3	pointing	Trial3	pointing/STIM_006.jpg	100
1997.026	1.492	1492.2	pointing	Trial3	pointing/STIM_006.jpg	99
2000.446	1.303	1302.8	pointing	Trial3	pointing/STIM_006.jpg	99
2005.481	1.047	1047.1	pointing	Trial3	pointing/STIM_006.jpg	100
2010.025	1.294	1294.4	pointing	Trial3	pointing/STIM_006.jpg	100
2015.321	1.207	1206.7	pointing	Trial3	pointing/STIM_007.jpg	100
2019.312	1.537	1537.2	pointing	Trial3	pointing/STIM_007.jpg	100
2022.974	1.546	1546.3	pointing	Trial3	pointing/STIM_007.jpg	100
2027.347	1.558	1558.0	pointing	Trial3	pointing/STIM_007.jpg	99
2030.926	1.208	1208.2	pointing	Trial3	pointing/STIM_007.jpg	100
2034.812	1.193	1192.8	pointing	Trial3	pointing/STIM_007.jpg	100
2038.229	1.328	1328.5	pointing	Trial3	pointing/STIM_008.jpg	100
2041.567	1.308	1308.0	pointing	Trial3	pointing/STIM_008.jpg	100
2046.073	1.376	1376.3	pointing	Trial3	pointing/STIM_008.jpg	99
2050.487	1.224	1224.4	pointing	Trial3	pointing/STIM_008.jpg	100
2054.572	1.039	1038.8	pointing	Trial3	pointing/STIM_008.jpg	99
2058.924	1.185	1185.0	pointing	Trial3	pointing/STIM_008.jpg	99
2062.159	1.464	1464.4	pointing	Trial3	pointing/STIM_009.jpg	100
2065.995	0.995	995.1	pointing	Trial3	pointing/STIM_009.jpg	99
2069.299	1.456	1456.1	pointing	Trial3	pointing/STIM_009.jpg	100
2072.888	1.331	1331.1	pointing	Trial3	pointing/STIM_009.jpg	100
2076.784	1.001	1001.1	pointing	Trial3	pointing/STIM_009.jpg	99
2079.914	1.362	1361.7	pointing	Trial3	pointing/STIM_009.jpg	100
2084.629	1.047	1046.8	pointing	Trial3	pointing/STIM_010.jpg	100
2088.851	1.542	1542.3	pointing	Trial3	pointing/STIM_010.jpg	100
2093.169	1.634	1634.3	pointing	Trial3	pointing/STIM_010.jpg	100
2097.712	1.233	1233.3	pointing	Trial3	pointing/STIM_010.jpg	100
2101.057	1.409	1408.6	pointing	Trial3	pointing/STIM_010.jpg	99
2105.279	1.334	1334.3	pointing	Trial3	pointing/STIM_010.jpg	100
2109.473	1.151	1151.4	pointing	Trial3	pointing/STIM_011.jpg	100
2113.12	1.223	1223.2	pointing	Trial3	pointing/STIM_011.jpg	99
2118.158	1.124	1123.7	pointing	Trial3	pointing/STIM_011.jpg	100
2122.67	1.235	1235.1	pointing	Trial3	pointing/STIM_011.jpg	99
2126.534	0.903	903.4	pointing	Trial3	pointing/STIM_011.jpg	100
2129.9	0.833	833.3	pointing	Trial3	pointing/STIM_011.jpg	100
