onset	duration	response_time_ms	trial_type	learning_stage	stimulus	response_port
0.0	4.97	4970.3	navigation	Trial1	navigation/STIM_000.jpg	99
7.63	3.937	3936.9	navigation	Trial1	navigation/STIM_000.jpg	100
15.453	2.678	2677.7	navigation	Trial1	navigation/STIM_000.jpg	100
20.72	3.111	3110.6	navigation	Trial1	navigation/STIM_000.jpg	99
26.863	2.35	2349.8	navigation	Trial1	navigation/STIM_000.jpg	100
31.361	2.44	2440.3	navigation	Trial1	navigation/STIM_000.jpg	99
37.593	4.008	4008.0	navigation	Trial1	navigation/STIM_001.jpg	99
45.274	2.086	2085.8	navigation	Trial1	navigation/STIM_001.jpg	99
49.449	3.588	3587.7	navigation	Trial1	navigation/STIM_001.jpg	100
55.258	3.685	3684.9	navigation	Trial1	navigation/STIM_001.jpg	100
62.002	2.918	2918.4	navigation	Trial1	navigation/STIM_001.jpg	99
67.174	3.193	3192.6	navigation	Trial1	navigation/STIM_001.jpg	99
72.738	3.317	3317.4	navigation	Trial1	navigation/STIM_002.jpg	100
79.444	2.338	2338.5	navigation	Trial1	navigation/STIM_002.jpg	99
85.687	3.252	3252.1	navigation	Trial1	navigation/STIM_002.jpg	99
92.91	3.464	3463.6	navigation	Trial1	navigation/STIM_002.jpg	99
100.181	2.746	2745.8	navigation	Trial1	navigation/STIM_002.jpg	100
104.964	3.585	3585.2	navigation	Trial1	navigation/STIM_002.jpg	100
110.763	4.854	4853.7	navigation	Trial1	navigation/STIM_003.jpg	100
118.771	3.29	3289.8	navigation	Trial1	navigation/STIM_003.jpg	99
125.489	4.382	4381.7	navigation	Trial1	navigation/STIM_003.jpg	100
133.05	3.101	3101.2	navigation	Trial1	navigation/STIM_003.jpg	99
140.083	2.432	2431.6	navigation	Trial1	navigation/STIM_003.jpg	100
145.749	3.154	3154.0	navigation	Trial1	navigation/STIM_003.jpg	100
151.983	5.199	5198.8	navigation	Trial1	navigation/STIM_004.jpg	99
160.948	4.492	4491.8	navigation	Trial1	navigation/STIM_004.jpg	100
169.273	4.378	4377.8	navigation	Trial1	navigation/STIM_004.jpg	100
177.609	3.553	3553.0	navigation	Trial1	navigation/STIM_004.jpg	99
184.688	2.441	2441.2	navigation	Trial1	navigation/STIM_004.jpg	100
191.12	3.534	3533.9	navigation	Trial1	navigation/STIM_004.jpg	99
196.913	4.652	4651.6	navigation	Trial1	navigation/STIM_005.jpg	99
204.596	5.106	5106.2	navigation	Trial1	navigation/STIM_005.jpg	99
212.124	4.366	4365.8	navigation	Trial1	navigation/STIM_005.jpg	99
218.812	3.324	3323.8	navigation	Trial1	navigation/STIM_005.jpg	100
224.717	2.005	2004.7	navigation	Trial1	navigation/STIM_005.jpg	100
229.848	2.454	2454.2	navigation	Trial1	navigation/STIM_005.jpg	99
234.947	3.9	3900.4	navigation	Trial1	navigation/STIM_006.jpg	100
242.474	2.764	2763.6	navigation	Trial1	navigation/STIM_006.jpg	99
248.934	2.491	2491.1	navigation	Trial1	navigation/STIM_006.jpg	100
254.047	3.669	3668.8	navigation	Trial1	navigation/STIM_006.jpg	100
260.697	3.237	3236.7	navigation	Trial1	navigation/STIM_006.jpg	99
267.691	3.159	3159.1	navigation	Trial1	navigation/STIM_006.jpg	99
272.882	4.043	4042.8	navigation	Trial1	navigation/STIM_007.jpg	100
279.521	3.759	3759.2	navigation	Trial1	navigation/STIM_007.jpg	100
286.754	4.038	4038.3	navigation	Trial1	navigation/STIM_007.jpg	100
293.739	2.863	2863.0	navigation	Trial1	navigation/STIM_007.jpg	99
300.443	3.727	3726.6	navigation	Trial1	navigation/STIM_007.jpg	100
306.289	3.507	3507.1	navigation	Trial1	navigation/STIM_007.jpg	100
312.824	2.702	2701.9	navigation	Trial1	navigation/STIM_008.jpg	100
318.298	4.239	4238.8	navigation	Trial1	navigation/STIM_008.jpg	100
325.879	2.761	2760.6	navigation	Trial1	navigation/STIM_008.jpg	99
331.374	4.534	4534.3	navigation	Trial1	navigation/STIM_008.jpg	100
338.156	2.927	2927.2	navigation	Trial1	navigation/STIM_008.jpg	99
343.584	2.672	2672.4	navigation	Trial1	navigation/STIM_008.jpg	99
349.56	4.778	4777.6	navigation	Trial1	navigation/STIM_009.jpg	100
358.334	3.324	3324.2	navigation	Trial1	navigation/STIM_009.jpg	100
364.025	2.224	2223.9	navigation	Trial1	navigation/STIM_009.jpg	99
369.903	2.882	2881.7	navigation	Trial1	navigation/STIM_009.jpg	100
375.018	3.882	3882.3	navigation	Trial1	navigation/STIM_009.jpg	100
382.756	2.719	2719.2	navigation	Trial1	navigation/STIM_009.jpg	100
389.176	3.18	3180.2	navigation	Trial1	navigation/STIM_010.jpg	99
395.143	2.758	2757.8	navigation	Trial1	navigation/STIM_010.jpg	99
400.633	4.784	4783.8	navigation	Trial1	navigation/STIM_010.jpg	99
407.48	2.056	2055.8	navigation	Trial1	navigation/STIM_010.jpg	99
412.233	2.602	2601.5	navigation	Trial1	navigation/STIM_010.jpg	99
418.795	3.976	3975.5	navigation	Trial1	navigation/STIM_010.jpg	100
425.394	2.968	2967.6	navigation	Trial1	navigation/STIM_011.jpg	100
431.123	5.071	5071.0	navigation	Trial1	navigation/STIM_011.jpg	100
438.692	4.847	4846.8	navigation	Trial1	navigation/STIM_011.jpg	100
446.701	3.286	3285.9	navigation	Trial1	navigation/STIM_011.jpg	100
453.694	1.848	1848.0	navigation	Trial1	navigation/STIM_011.jpg	100
458.866	2.249	2249.2	navigation	Trial1	navigation/STIM_011.jpg	100
464.183	1.152	1152.5	pointing	Trial1	pointing/STIM_000.jpg	100
467.735	1.392	1392.3	pointing	Trial1	pointing/STIM_000.jpg	99
471.247	1.477	1477.2	pointing	Trial1	pointing/STIM_000.jpg	100
476.149	0.98	979.7	pointing	Trial1	pointing/STIM_000.jpg	100
479.953	1.551	1551.2	pointing	Trial1	pointing/STIM_000.jpg	100
484.247	1.45	1449.8	pointing	Trial1	pointing/STIM_000.jpg	100
489.139	1.44	1440.3	pointing	Trial1	pointing/STIM_001.jpg	100
493.95	1.039	1039.4	pointing	Trial1	pointing/STIM_001.jpg	99
497.181	1.342	1342.1	pointing	Trial1	pointing/STIM_001.jpg	100
501.173	0.986	985.9	pointing	Trial1	pointing/STIM_001.jpg	99
504.311	0.896	896.4	pointing	Trial1	pointing/STIM_001.jpg	100
508.694	1.271	1271.2	pointing	Trial1	pointing/STIM_001.jpg	100
512.921	0.985	984.6	pointing	Trial1	pointing/STIM_002.jpg	100
516.862	1.475	1475.1	pointing	Trial1	pointing/STIM_002.jpg	99
520.685	1.074	1074.4	pointing	Trial1	pointing/STIM_002.jpg	100
524.145	1.301	1300.8	pointing	Trial1	pointing/STIM_002.jpg	100
527.908	1.068	1068.1	pointing	Trial1	pointing/STIM_002.jpg	99
531.113	0.997	996.6	pointing	Trial1	pointing/STIM_002.jpg	100
534.267	1.538	1537.6	pointing	Trial1	pointing/STIM_003.jpg	99
538.664	0.914	913.8	pointing	Trial1	pointing/STIM_003.jpg	100
542.789	0.956	956.0	pointing	Trial1	pointing/STIM_003.jpg	100
547.651	1.331	1331.3	pointing	Trial1	pointing/STIM_003.jpg	100
551.662	1.022	1022.2	pointing	Trial1	pointing/STIM_003.jpg	99
556.313	0.922	922.2	pointing	Trial1	pointing/STIM_003.jpg	100
560.513	1.487	1486.8	pointing	Trial1	pointing/STIM_004.jpg	99
565.937	1.078	1078.5	pointing	Trial1	pointing/STIM_004.jpg	100
570.796	0.969	968.7	pointing	Trial1	pointing/STIM_004.jpg	99
575.578	1.242	1241.7	pointing	Trial1	pointing/STIM_004.jpg	100
579.81	0.95	949.9	pointing	Trial1	pointing/STIM_004.jpg	99
583.512	1.384	1384.4	pointing	Trial1	pointing/STIM_004.jpg	100
588.102	1.189	1189.0	pointing	Trial1	pointing/STIM_005.jpg	99
593.018	1.357	1356.9	pointing	Trial1	pointing/STIM_005.jpg	99
598.076	1.388	1387.7	pointing	Trial1	pointing/STIM_005.jpg	99
603.07	1.39	1389.9	pointing	Trial1	pointing/STIM_005.jpg	100
607.027	0.877	877.1	pointing	Trial1	pointing/STIM_005.jpg	99
610.475	0.961	960.9	pointing	Trial1	pointing/STIM_005.jpg	100
614.519	1.156	1155.8	pointing	Trial1	pointing/STIM_006.jpg	99
619.458	1.309	1309.1	pointing	Trial1	pointing/STIM_006.jpg	100
622.922	1.244	1244.4	pointing	Trial1	pointing/STIM_006.jpg	99
626.837	1.13	1130.5	pointing	Trial1	pointing/STIM_006.jpg	100
631.22	1.437	1437.1	pointing	Trial1	pointing/STIM_006.jpg	99
635.87	1.604	1603.7	pointing	Trial1	pointing/STIM_006.jpg	100
640.387	1.587	1587.0	pointing	Trial1	pointing/STIM_007.jpg	99
645.555	1.334	1334.2	pointing	Trial1	pointing/STIM_007.jpg	100
649.152	1.208	1208.0	pointing	Trial1	pointing/STIM_007.jpg	99
653.904	1.618	1617.6	pointing	Trial1	pointing/STIM_007.jpg	99
659.064	1.553	1553.2	pointing	Trial1	pointing/STIM_007.jpg	100
662.619	0.925	925.3	pointing	Trial1	pointing/STIM_007.jpg	100
666.769	0.872	871.5	pointing	Trial1	pointing/STIM_008.jpg	100
671.438	1.038	1037.5	pointing	Trial1	pointing/STIM_008.jpg	100
675.732	1.054	1054.3	pointing	Trial1	pointing/STIM_008.jpg	99
680.216	1.403	1403.1	pointing	Trial1	pointing/STIM_008.jpg	99
685.329	1.03	1030.1	pointing	Trial1	pointing/STIM_008.jpg	99
689.966	0.89	889.8	pointing	Trial1	pointing/STIM_008.jpg	100
693.395	1.138	1137.7	pointing	Trial1	pointing/STIM_009.jpg	100
696.947	1.453	1452.9	pointing	Trial1	pointing/STIM_009.jpg	100
700.784	1.043	1042.8	pointing	Trial1	pointing/STIM_009.jpg	99
704.807	1.117	1117.3	pointing	Trial1	pointing/STIM_009.jpg	99
709.694	0.906	906.0	pointing	Trial1	pointing/STIM_009.jpg	99
713.01	1.42	1419.7	pointing	Trial1	pointing/STIM_009.jpg	99
717.187	0.91	910.1	pointing	Trial1	pointing/STIM_010.jpg	100
721.58	1.453	1452.6	pointing	Trial1	pointing/STIM_010.jpg	100
726.265	1.486	1486.5	pointing	Trial1	pointing/STIM_010.jpg	99
731.527	1.058	1057.8	pointing	Trial1	pointing/STIM_010.jpg	99
736.547	1.575	1574.6	pointing	Trial1	pointing/STIM_010.jpg	99
740.511	1.004	1004.5	pointing	Trial1	pointing/STIM_010.jpg	99
744.258	1.325	1324.6	pointing	Trial1	pointing/STIM_011.jpg	99
749.03	1.44	1439.7	pointing	Trial1	pointing/STIM_011.jpg	99
753.025	0.943	943.2	pointing	Trial1	pointing/STIM_011.jpg	100
756.151	1.202	1202.1	pointing	Trial1	pointing/STIM_011.jpg	99
760.391	1.542	1542.4	pointing	Trial1	pointing/STIM_011.jpg	99
765.734	1.286	1286.3	pointing	Trial1	pointing/STIM_011.jpg	99
769.754	2.549	2549.2	navigation	Trial2	navigation/STIM_000.jpg	99
774.907	2.399	2398.8	navigation	Trial2	navigation/STIM_000.jpg	99
780.771	3.848	3848.1	navigation	Trial2	navigation/STIM_000.jpg	100
788.347	1.584	1584.1	navigation	Trial2	navigation/STIM_000.jpg	100
793.355	3.201	3200.9	navigation	Trial2	navigation/STIM_000.jpg	100
799.671	2.732	2732.1	navigation	Trial2	navigation/STIM_000.jpg	100
805.504	3.872	3872.1	navigation	Trial2	navigation/STIM_001.jpg	100
812.874	4.029	4029.4	navigation	Trial2	navigation/STIM_001.jpg	100
820.365	2.305	2304.6	navigation	Trial2	navigation/STIM_001.jpg	100
826.399	2.894	2894.0	navigation	Trial2	navigation/STIM_001.jpg	100
832.574	3.254	3254.5	navigation	Trial2	navigation/STIM_001.jpg	99
838.191	3.228	3227.5	navigation	Trial2	navigation/STIM_001.jpg	100
844.726	3.461	3460.7	navigation	Trial2	navigation/STIM_002.jpg	100
851.074	2.617	2617.3	navigation	Trial2	navigation/STIM_002.jpg	100
857.249	1.735	1735.2	navigation	Trial2	navigation/STIM_002.jpg	100
861.504	3.35	3350.1	navigation	Trial2	navigation/STIM_002.jpg	99
867.754	2.514	2513.8	navigation	Trial2	navigation/STIM_002.jpg	99
873.599	2.56	2559.6	navigation	Trial2	navigation/STIM_002.jpg	100
878.667	3.876	3876.5	navigation	Trial2	navigation/STIM_003.jpg	100
884.929	4.01	4009.6	navigation	Trial2	navigation/STIM_003.jpg	100
891.775	3.986	3986.0	navigation	Trial2	navigation/STIM_003.jpg	100
898.302	1.614	1613.7	navigation	Trial2	navigation/STIM_003.jpg	100
903.598	1.623	1622.8	navigation	Trial2	navigation/STIM_003.jpg	100
907.613	2.675	2675.4	navigation	Trial2	navigation/STIM_003.jpg	99
913.999	2.512	2511.6	navigation	Trial2	navigation/STIM_004.jpg	99
919.535	2.218	2217.9	navigation	Trial2	navigation/STIM_004.jpg	99
924.847	3.046	3046.1	navigation	Trial2	navigation/STIM_004.jpg	99
930.525	3.663	3662.6	navigation	Trial2	navigation/STIM_004.jpg	100
936.886	3.273	3273.4	navigation	Trial2	navigation/STIM_004.jpg	99
943.781	2.92	2919.6	navigation	Trial2	navigation/STIM_004.jpg	100
949.56	1.842	1842.2	navigation	Trial2	navigation/STIM_005.jpg	100
954.69	2.279	2278.9	navigation	Trial2	navigation/STIM_005.jpg	100
960.466	2.928	2928.1	navigation	Trial2	navigation/STIM_005.jpg	100
966.395	2.249	2248.9	navigation	Trial2	navigation/STIM_005.jpg	99
971.755	2.869	2869.1	navigation	Trial2	navigation/STIM_005.jpg	99
977.295	2.441	2441.0	navigation	Trial2	navigation/STIM_005.jpg	99
982.058	3.039	3038.9	navigation	Trial2	navigation/STIM_006.jpg	99
988.899	1.769	1768.6	navigation	Trial2	navigation/STIM_006.jpg	100
993.273	2.045	2045.3	navigation	Trial2	navigation/STIM_006.jpg	100
997.455	3.335	3335.2	navigation	Trial2	navigation/STIM_006.jpg	100
1004.101	1.857	1857.4	navigation	Trial2	navigation/STIM_006.jpg	99
1008.257	3.649	3649.3	navigation	Trial2	navigation/STIM_006.jpg	100
1014.808	3.144	3144.1	navigation	Trial2	navigation/STIM_007.jpg	100
1021.542	1.778	1778.3	navigation	Trial2	navigation/STIM_007.jpg	100
1026.052	1.824	1824.0	navigation	Trial2	navigation/STIM_007.jpg	99
1031.059	2.317	2316.9	navigation	Trial2	navigation/STIM_007.jpg	100
1037.16	2.725	2724.8	navigation	Trial2	navigation/STIM_007.jpg	100
1043.418	2.744	2744.3	navigation	Trial2	navigation/STIM_007.jpg	100
1049.145	2.051	2051.0	navigation	Trial2	navigation/STIM_008.jpg	100
1053.341	1.899	1899.4	navigation	Trial2	navigation/STIM_008.jpg	99
1058.732	1.808	1807.8	navigation	Trial2	navigation/STIM_008.jpg	99
1063.859	2.706	2705.8	navigation	Trial2	navigation/STIM_008.jpg	100
1070.459	1.591	1591.3	navigation	Trial2	navigation/STIM_008.jpg	99
1075.476	1.777	1777.4	navigation	Trial2	navigation/STIM_008.jpg	100
1080.785	3.851	3850.6	navigation	Trial2	navigation/STIM_009.jpg	99
1088.176	3.281	3281.0	navigation	Trial2	navigation/STIM_009.jpg	99
1095.304	4.034	4033.5	navigation	Trial2	navigation/STIM_009.jpg	100
1101.981	2.431	2430.8	navigation	Trial2	navigation/STIM_009.jpg	100
1106.836	3.562	3561.7	navigation	Trial2	navigation/STIM_009.jpg	100
1112.458	3.509	3508.8	navigation	Trial2	navigation/STIM_009.jpg	99
1119.502	3.839	3838.9	navigation	Trial2	navigation/STIM_010.jpg	99
1126.932	2.259	2258.6	navigation	Trial2	navigation/STIM_010.jpg	100
1131.578	3.274	3273.5	navigation	Trial2	navigation/STIM_010.jpg	99
1137.934	1.519	1518.7	navigation	Trial2	navigation/STIM_010.jpg	99
1141.53	3.597	3597.0	navigation	Trial2	navigation/STIM_010.jpg	100
1148.774	3.751	3750.8	navigation	Trial2	navigation/STIM_010.jpg	100
1156.287	2.214	2213.7	navigation	Trial2	navigation/STIM_011.jpg	99
1161.431	2.926	2926.1	navigation	Trial2	navigation/STIM_011.jpg	99
1166.526	3.879	3879.4	navigation	Trial2	navigation/STIM_011.jpg	99
1174.379	2.512	2511.7	navigation	Trial2	navigation/STIM_011.jpg	100
1179.656	2.374	2373.7	navigation	Trial2	navigation/STIM_011.jpg	100
1185.76	2.756	2755.5	navigation	Trial2	navigation/STIM_011.jpg	100
1192.417	1.025	1025.3	pointing	Trial2	pointing/STIM_000.jpg	99
1196.568	1.599	1599.4	pointing	Trial2	pointing/STIM_000.jpg	99
1201.297	1.126	1126.5	pointing	Trial2	pointing/STIM_000.jpg	100
1204.455	1.421	1421.2	pointing	Trial2	pointing/STIM_000.jpg	100
1209.257	1.397	1396.8	pointing	Trial2	pointing/STIM_000.jpg	100
1213.737	1.406	1406.5	pointing	Trial2	pointing/STIM_000.jpg	100
1217.182	1.384	1384.4	pointing	Trial2	pointing/STIM_001.jpg	100
1221.887	1.032	1031.8	pointing	Trial2	pointing/STIM_001.jpg	99
1225.911	1.492	1492.0	pointing	Trial2	pointing/STIM_001.jpg	99
1230.389	1.036	1035.7	pointing	Trial2	pointing/STIM_001.jpg	99
1233.447	1.047	1046.6	pointing	Trial2	pointing/STIM_001.jpg	99
1238.112	1.1	1100.1	pointing	Trial2	pointing/STIM_001.jpg	99
1242.57	1.484	1484.1	pointing	Trial2	pointing/STIM_002.jpg	100
1247.575	1.556	1555.6	pointing	Trial2	pointing/STIM_002.jpg	100
1252.161	1.444	1443.9	pointing	Trial2	pointing/STIM_002.jpg	99
1256.753	1.456	1455.8	pointing	Trial2	pointing/STIM_002.jpg	100
1261.023	1.444	1443.6	pointing	Trial2	pointing/STIM_002.jpg	100
1265.465	1.352	1352.3	pointing	Trial2	pointing/STIM_002.jpg	99
1270.787	1.448	1448.5	pointing	Trial2	pointing/STIM_003.jpg	99
1275.082	1.492	1491.5	pointing	Trial2	pointing/STIM_003.jpg	100
1280.126	0.886	886.3	pointing	Trial2	pointing/STIM_003.jpg	100
1283.167	1.098	1098.5	pointing	Trial2	pointing/STIM_003.jpg	99
1288.161	1.183	1182.9	pointing	Trial2	pointing/STIM_003.jpg	99
1293.161	1.28	1279.7	pointing	Trial2	pointing/STIM_003.jpg	99
1298.298	1.561	1561.2	pointing	Trial2	pointing/STIM_004.jpg	100
1303.336	1.004	1003.6	pointing	Trial2	pointing/STIM_004.jpg	99
1307.247	1.542	1541.6	pointing	Trial2	pointing/STIM_004.jpg	100
1312.282	1.154	1153.7	pointing	Trial2	pointing/STIM_004.jpg	99
1316.501	1.078	1078.4	pointing	Trial2	pointing/STIM_004.jpg	100
1320.296	1.275	1275.3	pointing	Trial2	pointing/STIM_004.jpg	99
1324.708	0.903	902.9	pointing	Trial2	pointing/STIM_005.jpg	99
1328.66	1.352	1351.7	pointing	Trial2	pointing/STIM_005.jpg	100
1333.763	1.304	1304.5	pointing	Trial2	pointing/STIM_005.jpg	99
1337.819	1.322	1322.4	pointing	Trial2	pointing/STIM_005.jpg	99
1342.48	1.516	1516.3	pointing	Trial2	pointing/STIM_005.jpg	99
1346.844	1.143	1142.9	pointing	Trial2	pointing/STIM_005.jpg	100
1350.614	1.59	1590.4	pointing	Trial2	pointing/STIM_006.jpg	100
1354.557	0.897	897.4	pointing	Trial2	pointing/STIM_006.jpg	100
1357.688	1.074	1073.9	pointing	Trial2	pointing/STIM_006.jpg	100
1361.416	1.2	1200.4	pointing	Trial2	pointing/STIM_006.jpg	100
1365.747	0.926	925.6	pointing	Trial2	pointing/STIM_006.jpg	99
1370.084	0.998	997.7	pointing	Trial2	pointing/STIM_006.jpg	99
1373.267	1.153	1153.2	pointing	Trial2	pointing/STIM_007.jpg	99
1376.954	1.468	1467.8	pointing	Trial2	pointing/STIM_007.jpg	100
1381.701	1.32	1320.2	pointing	Trial2	pointing/STIM_007.jpg	99
1386.187	0.904	904.5	pointing	Trial2	pointing/STIM_007.jpg	99
1390.183	1.375	1375.4	pointing	Trial2	pointing/STIM_007.jpg	100
1395.022	1.559	1558.6	pointing	Trial2	pointing/STIM_007.jpg	100
1400.101	1.564	1563.6	pointing	Trial2	pointing/STIM_008.jpg	99
1404.873	1.34	1340.4	pointing	Trial2	pointing/STIM_008.jpg	99
1409.021	0.921	921.1	pointing	Trial2	pointing/STIM_008.jpg	100
1413.619	1.453	1453.4	pointing	Trial2	pointing/STIM_008.jpg	100
1417.436	1.363	1363.3	pointing	Trial2	pointing/STIM_008.jpg	100
1421.228	0.89	889.9	pointing	Trial2	pointing/STIM_008.jpg	100
1425.345	1.402	1402.4	pointing	Trial2	pointing/STIM_009.jpg	99
1430.59	1.129	1129.1	pointing	Trial2	pointing/STIM_009.jpg	100
1434.423	1.21	1209.6	pointing	Trial2	pointing/STIM_009.jpg	99
1439.46	1.608	1608.3	pointing	Trial2	pointing/STIM_009.jpg	100
1443.854	1.079	1078.9	pointing	Trial2	pointing/STIM_009.jpg	99
1447.252	0.905	904.9	pointing	Trial2	pointing/STIM_009.jpg	100
1451.753	1.587	1587.0	pointing	Trial2	pointing/STIM_010.jpg	100
1456.177	0.93	929.5	pointing	Trial2	pointing/STIM_010.jpg	99
1460.994	1.069	1068.7	pointing	Trial2	pointing/STIM_010.jpg	99
1465.398	1.447	1447.3	pointing	Trial2	pointing/STIM_010.jpg	99
1469.992	1.048	1047.8	pointing	Trial2	pointing/STIM_010.jpg	100
1474.701	1.073	1073.1	pointing	Trial2	pointing/STIM_010.jpg	100
1479.45	1.39	1390.2	pointing	Trial2	pointing/STIM_011.jpg	99
1483.125	1.212	1211.6	pointing	Trial2	pointing/STIM_011.jpg	100
1486.752	1.539	1539.1	pointing	Trial2	pointing/STIM_011.jpg	100
1491.937	1.1	1100.2	pointing	Trial2	pointing/STIM_011.jpg	99
1496.886	0.987	986.6	pointing	Trial2	pointing/STIM_011.jpg	100
1501.507	1.146	1146.2	pointing	Trial2	pointing/STIM_011.jpg	100
1506.422	2.587	2586.6	navigation	Trial3	navigation/STIM_000.jpg	100
1511.239	3.272	3271.6	navigation	Trial3	navigation/STIM_000.jpg	100
1517.234	3.167	3167.1	navigation	Trial3	navigation/STIM_000.jpg	99
1523.07	2.52	2520.5	navigation	Trial3	navigation/STIM_000.jpg	99
1528.734	1.581	1581.2	navigation	Trial3	navigation/STIM_000.jpg	100
1532.805	2.89	2889.9	navigation	Trial3	navigation/STIM_000.jpg	99
1539.053	2.135	2135.3	navigation	Trial3	navigation/STIM_001.jpg	99
1544.568	1.921	1921.3	navigation	Trial3	navigation/STIM_001.jpg	100
1548.768	2.958	2957.7	navigation	Trial3	navigation/STIM_001.jpg	100
1554.709	3.596	3595.6	navigation	Trial3	navigation/STIM_001.jpg	99
1562.024	2.079	2078.9	navigation	Trial3	navigation/STIM_001.jpg	100
1567.135	3.278	3278.1	navigation	Trial3	navigation/STIM_001.jpg	99
1572.606	2.876	2876.1	navigation	Trial3	navigation/STIM_002.jpg	99
1579.387	2.618	2617.9	navigation	Trial3	navigation/STIM_002.jpg	99
1584.642	3.422	3421.9	navigation	Trial3	navigation/STIM_002.jpg	99
1590.819	3.593	3592.8	navigation	Trial3	navigation/STIM_002.jpg	100
1597.795	3.227	3226.8	navigation	Trial3	navigation/STIM_002.jpg	99
1604.174	2.268	2268.5	navigation	Trial3	navigation/STIM_002.jpg	100
1609.885	1.551	1551.0	navigation	Trial3	navigation/STIM_003.jpg	100
1615.188	3.048	3047.8	navigation	Trial3	navigation/STIM_003.jpg	100
1620.56	3.152	3152.3	navigation	Trial3	navigation/STIM_003.jpg	100
1626.226	1.842	1841.5	navigation	Trial3	navigation/STIM_003.jpg	99
1631.211	2.17	2170.0	navigation	Trial3	navigation/STIM_003.jpg	99
1636.117	1.813	1813.1	navigation	Trial3	navigation/STIM_003.jpg	100
1641.574	1.84	1840.2	navigation	Trial3	navigation/STIM_004.jpg	100
1646.078	2.882	2882.2	navigation	Trial3	navigation/STIM_004.jpg	99
1652.573	3.509	3509.2	navigation	Trial3	navigation/STIM_004.jpg	99
1658.706	1.975	1975.1	navigation	Trial3	navigation/STIM_004.jpg	99
1662.861	2.131	2131.4	navigation	Trial3	navigation/STIM_004.jpg	100
1668.461	2.017	2017.3	navigation	Trial3	navigation/STIM_004.jpg	100
1673.727	2.441	2441.3	navigation	Trial3	navigation/STIM_005.jpg	100
1679.143	3.689	3688.6	navigation	Trial3	navigation/STIM_005.jpg	99
1685.867	1.591	1590.7	navigation	Trial3	navigation/STIM_005.jpg	99
1691.236	3.499	3499.1	navigation	Trial3	navigation/STIM_005.jpg	100
1697.328	3.289	3289.3	navigation	Trial3	navigation/STIM_005.jpg	100
1704.252	3.016	3016.4	navigation	Trial3	navigation/STIM_005.jpg	99
1709.918	2.517	2517.2	navigation	Trial3	navigation/STIM_006.jpg	99
1714.977	1.746	1745.8	navigation	Trial3	navigation/STIM_006.jpg	100
1719.177	2.13	2130.1	navigation	Trial3	navigation/STIM_006.jpg	100
1723.38	1.734	1733.7	navigation	Trial3	navigation/STIM_006.jpg	99
1729.031	3.478	3478.4	navigation	Trial3	navigation/STIM_006.jpg	100
1735.385	3.12	3120.3	navigation	Trial3	navigation/STIM_006.jpg	100
1742.172	3.218	3218.3	navigation	Trial3	navigation/STIM_007.jpg	99
1747.926	2.72	2719.8	navigation	Trial3	navigation/STIM_007.jpg	99
1753.762	2.558	2557.8	navigation	Trial3	navigation/STIM_007.jpg	100
1759.688	2.508	2508.0	navigation	Trial3	navigation/STIM_007.jpg	100
1764.418	1.862	1861.9	navigation	Trial3	navigation/STIM_007.jpg	100
1769.007	2.736	2736.1	navigation	Trial3	navigation/STIM_007.jpg	100
1774.05	3.752	3751.7	navigation	Trial3	navigation/STIM_008.jpg	100
1780.703	1.586	1585.6	navigation	Trial3	navigation/STIM_008.jpg	99
1785.091	3.034	3033.7	navigation	Trial3	navigation/STIM_008.jpg	99
1791.693	2.955	2955.4	navigation	Trial3	navigation/STIM_008.jpg	99
1797.597	3.708	3707.6	navigation	Trial3	navigation/STIM_008.jpg	99
1803.947	3.128	3128.0	navigation	Trial3	navigation/STIM_008.jpg	100
1809.779	1.682	1682.4	navigation	Trial3	navigation/STIM_009.jpg	100
1813.629	2.444	2443.8	navigation	Trial3	navigation/STIM_009.jpg	99
1818.148	3.214	3213.6	navigation	Trial3	navigation/STIM_009.jpg	99
1824.773	2.803	2802.9	navigation	Trial3	navigation/STIM_009.jpg	100
1830.739	2.187	2186.7	navigation	Trial3	navigation/STIM_009.jpg	99
1835.909	3.358	3357.7	navigation	Trial3	navigation/STIM_009.jpg	100
1841.77	1.892	1891.6	navigation	Trial3	navigation/STIM_010.jpg	99
1846.254	3.365	3364.7	navigation	Trial3	navigation/STIM_010.jpg	99
1851.881	2.394	2393.8	navigation	Trial3	navigation/STIM_010.jpg	99
1857.396	3.338	3337.6	navigation	Trial3	navigation/STIM_010.jpg	99
1864.588	2.216	2216.2	navigation	Trial3	navigation/STIM_010.jpg	99
1869.354	3.047	3046.9	navigation	Trial3	navigation/STIM_010.jpg	99
1875.923	3.524	3524.0	navigation	Trial3	navigation/STIM_011.jpg	99
1883.044	3.453	3452.6	navigation	Trial3	navigation/STIM_011.jpg	100
1889.194	3.455	3454.7	navigation	Trial3	navigation/STIM_011.jpg	100
1895.395	3.275	3274.9	navigation	Trial3	navigation/STIM_011.jpg	99
1901.45	3.774	3774.3	navigation	Trial3	navigation/STIM_011.jpg	99
1908.85	2.123	2122.6	navigation	Trial3	navigation/STIM_011.jpg	100
1914.372	1.324	1323.6	pointing	Trial3	pointing/STIM_000.jpg	100
1919.079	1.487	1486.7	pointing	Trial3	pointing/STIM_000.jpg	99
1923.947	1.199	1198.7	pointing	Trial3	pointing/STIM_000.jpg	100
1928.33	1.097	1096.7	pointing	Trial3	pointing/STIM_000.jpg	99
1931.831	1.463	1462.9	pointing	Trial3	pointing/STIM_000.jpg	99
1936.928	1.068	1068.3	pointing	Trial3	pointing/STIM_000.jpg	100
1940.933	1.123	1122.8	pointing	Trial3	pointing/STIM_001.jpg	100
1945.104	1.561	1560.8	pointing	Trial3	pointing/STIM_001.jpg	99
1948.68	1.497	1496.7	pointing	Trial3	pointing/STIM_001.jpg	99
1953.223	1.078	1078.0	pointing	Trial3	pointing/STIM_001.jpg	99
1958.212	1.513	1513.1	pointing	Trial3	pointing/STIM_001.jpg	99
1961.754	1.52	1520.1	pointing	Trial3	pointing/STIM_001.jpg	100
1966.775	1.024	1023.8	pointing	Trial3	pointing/STIM_002.jpg	100
1970.441	0.888	888.5	pointing	Trial3	pointing/STIM_002.jpg	100
1973.512	0.901	901.1	pointing	Trial3	pointing/STIM_002.jpg	99
1977.915	1.112	1111.9	pointing	Trial3	pointing/STIM_002.jpg	99
1982.809	1.338	1337.7	pointing	Trial3	pointing/STIM_002.jpg	100
1987.144	0.974	974.3	pointing	Trial3	pointing/STIM_002.jpg	99
1990.982	1.486	1486.5	pointing	Trial3	pointing/STIM_003.jpg	100
1996.103	0.934	933.8	pointing	Trial3	pointing/STIM_003.jpg	100
2000.022	1.453	1453.1	pointing	Trial3	pointing/STIM_003.jpg	100
2005.308	0.878	878.0	pointing	Trial3	pointing/STIM_003.jpg	100
2009.408	1.337	1337.2	pointing	Trial3	pointing/STIM_003.jpg	99
2013.265	1.189	1189.1	pointing	Trial3	pointing/STIM_003.jpg	100
2016.595	1.451	1451.2	pointing	Trial3	pointing/STIM_004.jpg	99
2020.724	1.121	1121.3	pointing	Trial3	pointing/STIM_004.jpg	99
2025.339	1.232	1232.0	pointing	Trial3	pointing/STIM_004.jpg	99
2029.577	1.148	1148.2	pointing	Trial3	pointing/STIM_004.jpg	99
2033.165	1.02	1019.8	pointing	Trial3	pointing/STIM_004.jpg	100
2037.667	1.357	1357.4	pointing	Trial3	pointing/STIM_004.jpg	100
2041.35	1.109	1109.2	pointing	Trial3	pointing/STIM_005.jpg	99
2045.987	1.338	1338.4	pointing	Trial3	pointing/STIM_005.jpg	99
2050.835	1.092	1091.5	pointing	Trial3	pointing/STIM_005.jpg	100
2055.595	1.058	1057.8	pointing	Trial3	pointing/STIM_005.jpg	100
2060.267	1.166	1166.1	pointing	Trial3	pointing/STIM_005.jpg	99
2065.153	0.929	928.9	pointing	Trial3	pointing/STIM_005.jpg	100
2068.521	0.875	875.4	pointing	Trial3	pointing/STIM_006.jpg	99
2072.112	1.574	1574.2	pointing	Trial3	pointing/STIM_006.jpg	100
2077.253	1.577	1576.6	pointing	Trial3	pointing/STIM_006.jpg	99
2082.671	1.33	1330.3	pointing	Trial3	pointing/STIM_006.jpg	99
2086.667	1.133	1132.6	pointing	Trial3	pointing/STIM_006.jpg	100
2090.473	1.539	1538.6	pointing	Trial3	pointing/STIM_006.jpg	100
2095.834	1.509	1509.1	pointing	Trial3	pointing/STIM_007.jpg	100
2099.675	0.878	878.4	pointing	Trial3	pointing/STIM_007.jpg	100
2104.365	1.247	1247.1	pointing	Trial3	pointing/STIM_007.jpg	100
2109.482	1.05	1049.8	pointing	Trial3	pointing/STIM_007.jpg	99
2113.112	1.441	1441.4	pointing	Trial3	pointing/STIM_007.jpg	100
2117.712	1.333	1332.6	pointing	Trial3	pointing/STIM_007.jpg	100
2121.056	1.418	1418.5	pointing	Trial3	pointing/STIM_008.jpg	100
2125.4	1.302	1302.4	pointing	Trial3	pointing/STIM_008.jpg	100
2128.921	0.897	897.1	pointing	Trial3	pointing/STIM_008.jpg	99
2132.71	1.114	1113.8	pointing	Trial3	pointing/STIM_008.jpg	100
2137.46	1.112	1112.3	pointing	Trial3	pointing/STIM_008.jpg	99
2140.968	1.477	1476.9	pointing	Trial3	pointing/STIM_008.jpg	99
2145.006	1.347	1347.2	pointing	Trial3	pointing/STIM_009.jpg	100
2149.611	1.1	1100.1	pointing	Trial3	pointing/STIM_009.jpg	99
2154.294	1.046	1045.9	pointing	Trial3	pointing/STIM_009.jpg	100
2157.539	1.29	1289.5	pointing	Trial3	pointing/STIM_009.jpg	100
2161.168	1.224	1223.6	pointing	Trial3	pointing/STIM_009.jpg	99
2165.357	1.147	1147.0	pointing	Trial3	pointing/STIM_009.jpg	100
2169.372	1.15	1150.3	pointing	Trial3	pointing/STIM_010.jpg	100
2172.98	1.322	1322.5	pointing	Trial3	pointing/STIM_010.jpg	100
2178.074	1.259	1259.3	pointing	Trial3	pointing/STIM_010.jpg	100
2182.724	1.151	1150.6	pointing	Trial3	pointing/STIM_010.jpg	100
2186.09	0.993	993.3	pointing	Trial3	pointing/STIM_010.jpg	99
2190.102	1.462	1462.0	pointing	Trial3	pointing/STIM_010.jpg	100
2194.841	1.438	1438.3	pointing	Trial3	pointing/STIM_011.jpg	100
2200.059	0.952	951.6	pointing	Trial3	pointing/STIM_011.jpg	99
2204.978	1.366	1365.9	pointing	Trial3	pointing/STIM_011.jpg	100
2208.756	0.962	961.5	pointing	Trial3	pointing/STIM_011.jpg	99
2211.898	1.165	1164.9	pointing	Trial3	pointing/STIM_011.jpg	100
2215.152	1.357	1357.2	pointing	Trial3	pointing/STIM_011.jpg	100
