onset	duration	accuracy_binary	trial_type	learning_stage	stimulus
0.0	0.987	1	2back	Block1	2back/STIM_000.jpg
3.636	1.034	1	2back	Block1	2back/STIM_000.jpg
8.323	0.763	1	2back	Block1	2back/STIM_000.jpg
12.778	0.808	0	2back	Block1	2back/STIM_001.jpg
17.354	1.294	0	2back	Block1	2back/STIM_001.jpg
20.804	1.056	1	2back	Block1	2back/STIM_001.jpg
24.478	1.363	1	2back	Block1	2back/STIM_002.jpg
29.411	1.087	1	2back	Block1	2back/STIM_002.jpg
32.63	1.168	0	2back	Block1	2back/STIM_002.jpg
36.234	1.217	1	2back	Block1	2back/STIM_003.jpg
40.068	1.402	1	2back	Block1	2back/STIM_003.jpg
43.514	1.18	1	2back	Block1	2back/STIM_003.jpg
46.561	0.688	0	2back	Block1	2back/STIM_004.jpg
51.106	0.866	0	2back	Block1	2back/STIM_004.jpg
54.93	1.347	1	2back	Block1	2back/STIM_004.jpg
59.567	1.656	0	2back	Block1	2back/STIM_005.jpg
64.382	0.766	1	2back	Block1	2back/STIM_005.jpg
67.237	0.83	1	2back	Block1	2back/STIM_005.jpg
69.951	1.077	1	2back	Block1	2back/STIM_006.jpg
73.11	1.309	1	2back	Block1	2back/STIM_006.jpg
76.734	1.254	1	2back	Block1	2back/STIM_006.jpg
80.812	1.553	1	2back	Block1	2back/STIM_007.jpg
85.19	1.31	1	2back	Block1	2back/STIM_007.jpg
88.768	0.693	1	2back	Block1	2back/STIM_007.jpg
92.694	1.206	1	2back	Block1	2back/STIM_008.jpg
96.028	0.849	1	2back	Block1	2back/STIM_008.jpg
99.525	0.679	0	2back	Block1	2back/STIM_008.jpg
103.33	1.256	0	2back	Block1	2back/STIM_009.jpg
106.699	1.48	1	2back	Block1	2back/STIM_009.jpg
110.682	0.701	1	2back	Block1	2back/STIM_009.jpg
114.71	1.017	0	2back	Block1	2back/STIM_010.jpg
119.557	0.981	1	2back	Block1	2back/STIM_010.jpg
123.143	1.12	1	2back	Block1	2back/STIM_010.jpg
126.455	1.416	0	2back	Block1	2back/STIM_011.jpg
131.601	0.961	1	2back	Block1	2back/STIM_011.jpg
136.288	1.431	1	2back	Block1	2back/STIM_011.jpg
141.285	1.456	1	2back	Block1	2back/STIM_012.jpg
145.137	1.032	1	2back	Block1	2back/STIM_012.jpg
148.41	0.946	1	2back	Block1	2back/STIM_012.jpg
151.614	1.351	1	2back	Block1	2back/STIM_013.jpg
156.249	0.709	1	2back	Block1	2back/STIM_013.jpg
160.744	1.402	1	2back	Block1	2back/STIM_013.jpg
165.665	1.526	1	2back	Block1	2back/STIM_014.jpg
170.75	1.009	1	2back	Block1	2back/STIM_014.jpg
174.681	0.752	1	2back	Block1	2back/STIM_014.jpg
178.682	1.353	1	2back	Block1	2back/STIM_015.jpg
182.2	1.398	1	2back	Block1	2back/STIM_015.jpg
186.676	1.461	1	2back	Block1	2back/STIM_015.jpg
190.653	0.865	0	2back	Block1	2back/STIM_016.jpg
193.932	1.324	1	2back	Block1	2back/STIM_016.jpg
198.053	1.319	1	2back	Block1	2back/STIM_016.jpg
201.614	1.017	1	2back	Block1	2back/STIM_017.jpg
204.64	1.428	1	2back	Block1	2back/STIM_017.jpg
208.698	0.826	1	2back	Block1	2back/STIM_017.jpg
211.43	1.115	0	2back	Block1	2back/STIM_018.jpg
214.564	0.947	1	2back	Block1	2back/STIM_018.jpg
219.312	1.436	1	2back	Block1	2back/STIM_018.jpg
223.293	1.271	1	2back	Block1	2back/STIM_019.jpg
227.358	0.703	1	2back	Block1	2back/STIM_019.jpg
230.098	0.901	1	2back	Block1	2back/STIM_019.jpg
233.694	0.868	1	2back	Block1	2back/STIM_020.jpg
236.485	1.231	1	2back	Block1	2back/STIM_020.jpg
241.483	0.772	1	2back	Block1	2back/STIM_020.jpg
244.627	0.717	1	2back	Block1	2back/STIM_021.jpg
249.075	0.72	1	2back	Block1	2back/STIM_021.jpg
251.729	0.962	1	2back	Block1	2back/STIM_021.jpg
256.041	1.286	1	2back	Block1	2back/STIM_022.jpg
260.17	0.775	1	2back	Block1	2back/STIM_022.jpg
263.099	1.307	1	2back	Block1	2back/STIM_022.jpg
267.765	0.948	1	2back	Block1	2back/STIM_023.jpg
272.377	0.794	1	2back	Block1	2back/STIM_023.jpg
275.728	0.83	1	2back	Block1	2back/STIM_023.jpg
279.087	1.494	1	2back	Block1	2back/STIM_024.jpg
283.971	0.743	1	2back	Block1	2back/STIM_024.jpg
288.599	0.723	1	2back	Block1	2back/STIM_024.jpg
291.913	1.559	1	2back	Block1	2back/STIM_025.jpg
296.676	1.516	1	2back	Block1	2back/STIM_025.jpg
300.321	1.107	1	2back	Block1	2back/STIM_025.jpg
304.722	1.143	1	2back	Block1	2back/STIM_026.jpg
308.288	0.83	1	2back	Block1	2back/STIM_026.jpg
311.496	0.783	0	2back	Block1	2back/STIM_026.jpg
316.2	0.886	1	2back	Block1	2back/STIM_027.jpg
320.866	1.496	1	2back	Block1	2back/STIM_027.jpg
325.247	0.688	1	2back	Block1	2back/STIM_027.jpg
328.571	0.645	1	2back	Block1	2back/STIM_028.jpg
332.133	0.974	1	2back	Block1	2back/STIM_028.jpg
336.368	1.032	1	2back	Block1	2back/STIM_028.jpg
340.143	1.386	1	2back	Block1	2back/STIM_029.jpg
344.359	1.437	0	2back	Block1	2back/STIM_029.jpg
348.754	0.914	0	2back	Block1	2back/STIM_029.jpg
352.336	1.295	1	2back	Block1	2back/STIM_030.jpg
356.609	1.007	1	2back	Block1	2back/STIM_030.jpg
359.834	0.954	1	2back	Block1	2back/STIM_030.jpg
362.824	1.517	1	2back	Block1	2back/STIM_031.jpg
366.964	1.2	1	2back	Block1	2back/STIM_031.jpg
370.869	0.783	1	2back	Block1	2back/STIM_031.jpg
375.339	1.26	1	2back	Block1	2back/STIM_032.jpg
379.348	1.515	1	2back	Block1	2back/STIM_032.jpg
384.239	0.816	1	2back	Block1	2back/STIM_032.jpg
388.451	1.146	1	2back	Block1	2back/STIM_033.jpg
393.232	1.194	1	2back	Block1	2back/STIM_033.jpg
396.842	0.88	1	2back	Block1	2back/STIM_033.jpg
400.423	1.268	1	2back	Block1	2back/STIM_034.jpg
404.784	1.292	1	2back	Block1	2back/STIM_034.jpg
409.556	0.762	1	2back	Block1	2back/STIM_034.jpg
413.162	1.084	1	2back	Block1	2back/STIM_035.jpg
416.457	1.367	1	2back	Block1	2back/STIM_035.jpg
420.42	1.337	1	2back	Block1	2back/STIM_035.jpg
424.678	1.454	1	2back	Block1	2back/STIM_036.jpg
427.949	1.56	1	2back	Block1	2back/STIM_036.jpg
432.438	1.272	0	2back	Block1	2back/STIM_036.jpg
437.414	1.472	1	2back	Block1	2back/STIM_037.jpg
442.119	0.729	1	2back	Block1	2back/STIM_037.jpg
445.419	1.347	1	2back	Block1	2back/STIM_037.jpg
450.229	1.165	1	2back	Block1	2back/STIM_038.jpg
454.421	1.437	1	2back	Block1	2back/STIM_038.jpg
459.218	0.801	0	2back	Block1	2back/STIM_038.jpg
463.665	1.499	1	2back	Block1	2back/STIM_039.jpg
468.907	1.104	1	2back	Block1	2back/STIM_039.jpg
472.187	0.699	1	2back	Block1	2back/STIM_039.jpg
474.86	0.65	1	0back	Block1	0back/STIM_000.jpg
479.281	0.443	1	0back	Block1	0back/STIM_000.jpg
481.966	0.751	1	0back	Block1	0back/STIM_000.jpg
486.441	0.626	1	0back	Block1	0back/STIM_001.jpg
490.208	0.541	1	0back	Block1	0back/STIM_001.jpg
493.348	0.81	1	0back	Block1	0back/STIM_001.jpg
497.144	0.604	1	0back	Block1	0back/STIM_002.jpg
500.172	0.576	1	0back	Block1	0back/STIM_002.jpg
503.288	0.819	1	0back	Block1	0back/STIM_002.jpg
507.968	0.826	1	0back	Block1	0back/STIM_003.jpg
512.25	0.597	1	0back	Block1	0back/STIM_003.jpg
516.674	0.475	1	0back	Block1	0back/STIM_003.jpg
519.209	0.771	1	0back	Block1	0back/STIM_004.jpg
522.582	0.547	1	0back	Block1	0back/STIM_004.jpg
526.945	0.912	1	0back	Block1	0back/STIM_004.jpg
531.467	0.755	1	0back	Block1	0back/STIM_005.jpg
534.79	0.717	1	0back	Block1	0back/STIM_005.jpg
538.721	0.745	1	0back	Block1	0back/STIM_005.jpg
543.337	0.966	1	0back	Block1	0back/STIM_006.jpg
547.811	0.694	1	0back	Block1	0back/STIM_006.jpg
552.086	0.528	1	0back	Block1	0back/STIM_006.jpg
556.147	0.435	1	0back	Block1	0back/STIM_007.jpg
559.217	0.81	1	0back	Block1	0back/STIM_007.jpg
562.331	0.522	1	0back	Block1	0back/STIM_007.jpg
566.67	0.459	1	0back	Block1	0back/STIM_008.jpg
569.955	0.891	1	0back	Block1	0back/STIM_008.jpg
573.983	0.871	1	0back	Block1	0back/STIM_008.jpg
576.91	0.95	1	0back	Block1	0back/STIM_009.jpg
579.721	0.582	1	0back	Block1	0back/STIM_009.jpg
582.878	0.618	1	0back	Block1	0back/STIM_009.jpg
586.378	0.877	1	0back	Block1	0back/STIM_010.jpg
590.84	0.509	1	0back	Block1	0back/STIM_010.jpg
593.591	0.672	1	0back	Block1	0back/STIM_010.jpg
596.382	0.766	1	0back	Block1	0back/STIM_011.jpg
600.783	0.526	1	0back	Block1	0back/STIM_011.jpg
604.062	0.602	1	0back	Block1	0back/STIM_011.jpg
606.98	0.526	1	0back	Block1	0back/STIM_012.jpg
611.415	1.011	1	0back	Block1	0back/STIM_012.jpg
614.852	0.811	1	0back	Block1	0back/STIM_012.jpg
618.556	0.851	1	0back	Block1	0back/STIM_013.jpg
622.757	0.852	1	0back	Block1	0back/STIM_013.jpg
626.643	0.485	1	0back	Block1	0back/STIM_013.jpg
629.992	0.632	1	0back	Block1	0back/STIM_014.jpg
633.518	0.791	1	0back	Block1	0back/STIM_014.jpg
636.793	0.465	1	0back	Block1	0back/STIM_014.jpg
640.372	0.505	1	0back	Block1	0back/STIM_015.jpg
643.348	0.55	1	0back	Block1	0back/STIM_015.jpg
647.399	0.822	1	0back	Block1	0back/STIM_015.jpg
651.208	0.513	1	0back	Block1	0back/STIM_016.jpg
655.558	0.622	1	0back	Block1	0back/STIM_016.jpg
659.824	0.696	1	0back	Block1	0back/STIM_016.jpg
663.154	0.897	1	0back	Block1	0back/STIM_017.jpg
665.999	0.69	1	0back	Block1	0back/STIM_017.jpg
668.722	0.532	1	0back	Block1	0back/STIM_017.jpg
671.801	0.687	0	0back	Block1	0back/STIM_018.jpg
675.724	0.914	1	0back	Block1	0back/STIM_018.jpg
680.067	0.825	1	0back	Block1	0back/STIM_018.jpg
684.435	0.864	1	0back	Block1	0back/STIM_019.jpg
687.499	0.916	1	0back	Block1	0back/STIM_019.jpg
690.786	0.494	1	0back	Block1	0back/STIM_019.jpg
693.611	0.534	1	2back	Block2	2back/STIM_000.jpg
697.286	0.607	1	2back	Block2	2back/STIM_000.jpg
701.443	0.931	1	2back	Block2	2back/STIM_000.jpg
706.293	1.138	1	2back	Block2	2back/STIM_001.jpg
710.641	0.995	1	2back	Block2	2back/STIM_001.jpg
713.869	0.828	1	2back	Block2	2back/STIM_001.jpg
717.716	1.255	1	2back	Block2	2back/STIM_002.jpg
722.805	1.218	1	2back	Block2	2back/STIM_002.jpg
726.948	1.026	1	2back	Block2	2back/STIM_002.jpg
730.161	0.823	1	2back	Block2	2back/STIM_003.jpg
734.012	1.109	1	2back	Block2	2back/STIM_003.jpg
738.887	1.105	1	2back	Block2	2back/STIM_003.jpg
742.664	0.917	1	2back	Block2	2back/STIM_004.jpg
746.697	0.771	1	2back	Block2	2back/STIM_004.jpg
750.329	0.934	0	2back	Block2	2back/STIM_004.jpg
753.327	0.662	1	2back	Block2	2back/STIM_005.jpg
756.66	1.215	1	2back	Block2	2back/STIM_005.jpg
761.575	1.152	1	2back	Block2	2back/STIM_005.jpg
765.459	1.345	1	2back	Block2	2back/STIM_006.jpg
769.379	0.945	1	2back	Block2	2back/STIM_006.jpg
773.543	1.011	1	2back	Block2	2back/STIM_006.jpg
776.73	0.794	0	2back	Block2	2back/STIM_007.jpg
779.475	0.644	1	2back	Block2	2back/STIM_007.jpg
782.499	0.809	1	2back	Block2	2back/STIM_007.jpg
786.665	0.797	1	2back	Block2	2back/STIM_008.jpg
789.651	1.003	1	2back	Block2	2back/STIM_008.jpg
792.505	1.106	1	2back	Block2	2back/STIM_008.jpg
797.336	1.118	1	2back	Block2	2back/STIM_009.jpg
801.267	0.772	1	2back	Block2	2back/STIM_009.jpg
804.136	1.07	0	2back	Block2	2back/STIM_009.jpg
809.043	0.682	0	2back	Block2	2back/STIM_010.jpg
812.229	0.687	1	2back	Block2	2back/STIM_010.jpg
815.125	0.602	1	2back	Block2	2back/STIM_010.jpg
819.272	1.174	1	2back	Block2	2back/STIM_011.jpg
823.903	1.057	1	2back	Block2	2back/STIM_011.jpg
828.149	0.758	0	2back	Block2	2back/STIM_011.jpg
832.326	0.962	1	2back	Block2	2back/STIM_012.jpg
837.006	1.076	1	2back	Block2	2back/STIM_012.jpg
840.455	0.931	1	2back	Block2	2back/STIM_012.jpg
843.724	0.966	1	2back	Block2	2back/STIM_013.jpg
848.076	0.772	1	2back	Block2	2back/STIM_013.jpg
851.605	1.055	1	2back	Block2	2back/STIM_013.jpg
856.221	1.232	1	2back	Block2	2back/STIM_014.jpg
860.876	0.572	1	2back	Block2	2back/STIM_014.jpg
865.244	1.028	1	2back	Block2	2back/STIM_014.jpg
868.198	0.856	1	2back	Block2	2back/STIM_015.jpg
871.715	0.731	1	2back	Block2	2back/STIM_015.jpg
876.188	0.809	1	2back	Block2	2back/STIM_015.jpg
879.733	0.905	1	2back	Block2	2back/STIM_016.jpg
882.724	0.68	1	2back	Block2	2back/STIM_016.jpg
887.251	0.639	1	2back	Block2	2back/STIM_016.jpg
891.616	1.284	1	2back	Block2	2back/STIM_017.jpg
895.51	1.145	1	2back	Block2	2back/STIM_017.jpg
899.441	1.027	1	2back	Block2	2back/STIM_017.jpg
904.009	1.126	1	2back	Block2	2back/STIM_018.jpg
908.53	1.108	1	2back	Block2	2back/STIM_018.jpg
912.206	0.831	1	2back	Block2	2back/STIM_018.jpg
915.93	0.699	1	2back	Block2	2back/STIM_019.jpg
920.535	0.817	1	2back	Block2	2back/STIM_019.jpg
924.19	0.939	1	2back	Block2	2back/STIM_019.jpg
928.913	0.656	1	2back	Block2	2back/STIM_020.jpg
933.204	1.15	1	2back	Block2	2back/STIM_020.jpg
937.694	0.627	1	2back	Block2	2back/STIM_020.jpg
940.561	0.59	1	2back	Block2	2back/STIM_021.jpg
944.858	1.18	1	2back	Block2	2back/STIM_021.jpg
949.314	0.928	1	2back	Block2	2back/STIM_021.jpg
952.85	0.717	1	2back	Block2	2back/STIM_022.jpg
956.564	1.005	0	2back	Block2	2back/STIM_022.jpg
960.435	1.032	1	2back	Block2	2back/STIM_022.jpg
964.65	0.953	1	2back	Block2	2back/STIM_023.jpg
967.902	1.01	1	2back	Block2	2back/STIM_023.jpg
971.117	1.179	0	2back	Block2	2back/STIM_023.jpg
975.843	0.981	1	2back	Block2	2back/STIM_024.jpg
979.167	0.764	1	2back	Block2	2back/STIM_024.jpg
982.043	1.027	1	2back	Block2	2back/STIM_024.jpg
985.274	1.261	1	2back	Block2	2back/STIM_025.jpg
988.778	0.952	1	2back	Block2	2back/STIM_025.jpg
992.646	0.821	0	2back	Block2	2back/STIM_025.jpg
997.151	0.589	1	2back	Block2	2back/STIM_026.jpg
1000.007	0.721	0	2back	Block2	2back/STIM_026.jpg
1002.724	0.706	1	2back	Block2	2back/STIM_026.jpg
1005.495	1.169	1	2back	Block2	2back/STIM_027.jpg
1009.7	0.848	1	2back	Block2	2back/STIM_027.jpg
1012.52	1.134	1	2back	Block2	2back/STIM_027.jpg
1016.069	0.802	0	2back	Block2	2back/STIM_028.jpg
1019.324	1.017	1	2back	Block2	2back/STIM_028.jpg
1022.907	1.114	0	2back	Block2	2back/STIM_028.jpg
1026.471	1.376	1	2back	Block2	2back/STIM_029.jpg
1030.996	0.581	1	2back	Block2	2back/STIM_029.jpg
1034.474	0.657	1	2back	Block2	2back/STIM_029.jpg
1038.366	1.326	1	2back	Block2	2back/STIM_030.jpg
1041.715	0.847	1	2back	Block2	2back/STIM_030.jpg
1046.118	1.084	1	2back	Block2	2back/STIM_030.jpg
1050.85	0.755	1	2back	Block2	2back/STIM_031.jpg
1055.245	0.975	1	2back	Block2	2back/STIM_031.jpg
1059.899	1.082	1	2back	Block2	2back/STIM_031.jpg
1063.704	0.758	1	2back	Block2	2back/STIM_032.jpg
1067.135	0.674	1	2back	Block2	2back/STIM_032.jpg
1070.338	1.097	1	2back	Block2	2back/STIM_032.jpg
1074.02	1.299	1	2back	Block2	2back/STIM_033.jpg
1078.886	0.949	0	2back	Block2	2back/STIM_033.jpg
1082.507	0.671	1	2back	Block2	2back/STIM_033.jpg
1086.839	0.796	1	2back	Block2	2back/STIM_034.jpg
1090.011	0.723	0	2back	Block2	2back/STIM_034.jpg
1093.895	0.636	1	2back	Block2	2back/STIM_034.jpg
1097.89	1.092	1	2back	Block2	2back/STIM_035.jpg
1101.929	1.252	1	2back	Block2	2back/STIM_035.jpg
1106.318	1.117	1	2back	Block2	2back/STIM_035.jpg
1109.598	0.788	1	2back	Block2	2back/STIM_036.jpg
1113.759	1.152	1	2back	Block2	2back/STIM_036.jpg
1118.233	0.543	1	2back	Block2	2back/STIM_036.jpg
1121.916	1.367	1	2back	Block2	2back/STIM_037.jpg
1125.513	1.247	1	2back	Block2	2back/STIM_037.jpg
1128.748	0.812	1	2back	Block2	2back/STIM_037.jpg
1132.489	1.014	1	2back	Block2	2back/STIM_038.jpg
1135.728	0.852	1	2back	Block2	2back/STIM_038.jpg
1139.022	1.138	1	2back	Block2	2back/STIM_038.jpg
1142.762	1.424	1	2back	Block2	2back/STIM_039.jpg
1146.244	1.273	1	2back	Block2	2back/STIM_039.jpg
1150.565	0.576	1	2back	Block2	2back/STIM_039.jpg
1154.691	0.655	1	0back	Block2	0back/STIM_000.jpg
1159.128	0.93	1	0back	Block2	0back/STIM_000.jpg
1163.258	0.772	1	0back	Block2	0back/STIM_000.jpg
1166.101	0.805	1	0back	Block2	0back/STIM_001.jpg
1170.429	0.832	1	0back	Block2	0back/STIM_001.jpg
1174.23	0.738	1	0back	Block2	0back/STIM_001.jpg
1177.775	0.564	1	0back	Block2	0back/STIM_002.jpg
1180.607	0.714	1	0back	Block2	0back/STIM_002.jpg
1183.864	0.658	1	0back	Block2	0back/STIM_002.jpg
1186.613	0.843	1	0back	Block2	0back/STIM_003.jpg
1190.665	0.783	1	0back	Block2	0back/STIM_003.jpg
1193.504	0.823	1	0back	Block2	0back/STIM_003.jpg
1197.314	0.917	1	0back	Block2	0back/STIM_004.jpg
1201.969	0.983	1	0back	Block2	0back/STIM_004.jpg
1206.51	0.582	1	0back	Block2	0back/STIM_004.jpg
1210.842	0.678	1	0back	Block2	0back/STIM_005.jpg
1214.288	0.66	1	0back	Block2	0back/STIM_005.jpg
1217.899	0.644	1	0back	Block2	0back/STIM_005.jpg
1220.551	0.6	1	0back	Block2	0back/STIM_006.jpg
1224.042	0.507	1	0back	Block2	0back/STIM_006.jpg
1227.742	0.732	1	0back	Block2	0back/STIM_006.jpg
1230.579	0.505	1	0back	Block2	0back/STIM_007.jpg
1234.221	0.797	1	0back	Block2	0back/STIM_007.jpg
1237.969	0.543	1	0back	Block2	0back/STIM_007.jpg
1240.574	0.814	1	0back	Block2	0back/STIM_008.jpg
1244.619	0.663	1	0back	Block2	0back/STIM_008.jpg
1247.292	0.8	1	0back	Block2	0back/STIM_008.jpg
1250.667	0.51	1	0back	Block2	0back/STIM_009.jpg
1253.587	0.92	1	0back	Block2	0back/STIM_009.jpg
1256.405	0.616	1	0back	Block2	0back/STIM_009.jpg
1259.697	0.793	1	0back	Block2	0back/STIM_010.jpg
1263.605	0.733	1	0back	Block2	0back/STIM_010.jpg
1266.211	0.934	1	0back	Block2	0back/STIM_010.jpg
1270.189	0.7	1	0back	Block2	0back/STIM_011.jpg
1274.567	0.945	1	0back	Block2	0back/STIM_011.jpg
1277.534	0.822	1	0back	Block2	0back/STIM_011.jpg
1282.067	0.538	1	0back	Block2	0back/STIM_012.jpg
1284.946	0.476	1	0back	Block2	0back/STIM_012.jpg
1287.953	0.574	1	0back	Block2	0back/STIM_012.jpg
1291.938	0.499	1	0back	Block2	0back/STIM_013.jpg
1295.62	0.587	1	0back	Block2	0back/STIM_013.jpg
1299.266	0.661	1	0back	Block2	0back/STIM_013.jpg
1303.426	0.932	1	0back	Block2	0back/STIM_014.jpg
1307.606	0.894	1	0back	Block2	0back/STIM_014.jpg
1312.205	0.475	1	0back	Block2	0back/STIM_014.jpg
1316.326	0.532	1	0back	Block2	0back/STIM_015.jpg
1320.108	0.381	1	0back	Block2	0back/STIM_015.jpg
1323.042	0.567	1	0back	Block2	0back/STIM_015.jpg
1325.903	0.988	1	0back	Block2	0back/STIM_016.jpg
1329.3	0.585	1	0back	Block2	0back/STIM_016.jpg
1332.975	0.85	1	0back	Block2	0back/STIM_016.jpg
1336.606	0.579	1	0back	Block2	0back/STIM_017.jpg
1340.852	0.78	1	0back	Block2	0back/STIM_017.jpg
1343.917	0.776	1	0back	Block2	0back/STIM_017.jpg
1347.591	0.871	1	0back	Block2	0back/STIM_018.jpg
1352.0	0.711	1	0back	Block2	0back/STIM_018.jpg
1355.578	0.761	1	0back	Block2	0back/STIM_018.jpg
1359.61	0.919	1	0back	Block2	0back/STIM_019.jpg
1362.8	0.727	1	0back	Block2	0back/STIM_019.jpg
1366.897	0.677	1	0back	Block2	0back/STIM_019.jpg
1369.665	0.522	1	2back	Block3	2back/STIM_000.jpg
1372.234	0.767	1	2back	Block3	2back/STIM_000.jpg
1376.069	0.857	1	2back	Block3	2back/STIM_000.jpg
1379.617	0.594	1	2back	Block3	2back/STIM_001.jpg
1382.173	1.121	1	2back	Block3	2back/STIM_001.jpg
1386.448	0.628	1	2back	Block3	2back/STIM_001.jpg
1389.16	0.528	1	2back	Block3	2back/STIM_002.jpg
1391.851	0.748	1	2back	Block3	2back/STIM_002.jpg
1395.278	1.114	1	2back	Block3	2back/STIM_002.jpg
1400.199	0.732	1	2back	Block3	2back/STIM_003.jpg
1403.121	1.063	1	2back	Block3	2back/STIM_003.jpg
1406.594	0.645	1	2back	Block3	2back/STIM_003.jpg
1410.966	0.836	1	2back	Block3	2back/STIM_004.jpg
1414.187	1.003	1	2back	Block3	2back/STIM_004.jpg
1417.546	0.814	1	2back	Block3	2back/STIM_004.jpg
1420.757	1.031	1	2back	Block3	2back/STIM_005.jpg
1425.407	1.01	1	2back	Block3	2back/STIM_005.jpg
1429.674	0.453	1	2back	Block3	2back/STIM_005.jpg
1433.802	0.646	1	2back	Block3	2back/STIM_006.jpg
1437.125	0.917	1	2back	Block3	2back/STIM_006.jpg
1441.035	1.125	1	2back	Block3	2back/STIM_006.jpg
1445.854	0.761	1	2back	Block3	2back/STIM_007.jpg
1449.662	0.916	1	2back	Block3	2back/STIM_007.jpg
1452.891	0.535	1	2back	Block3	2back/STIM_007.jpg
1455.732	0.985	1	2back	Block3	2back/STIM_008.jpg
1460.63	0.549	1	2back	Block3	2back/STIM_008.jpg
1464.446	0.796	1	2back	Block3	2back/STIM_008.jpg
1468.136	0.549	1	2back	Block3	2back/STIM_009.jpg
1471.759	1.035	1	2back	Block3	2back/STIM_009.jpg
1475.808	0.48	1	2back	Block3	2back/STIM_009.jpg
1478.561	0.598	1	2back	Block3	2back/STIM_010.jpg
1481.986	0.545	1	2back	Block3	2back/STIM_010.jpg
1485.403	0.647	1	2back	Block3	2back/STIM_010.jpg
1488.837	0.561	1	2back	Block3	2back/STIM_011.jpg
1491.699	0.95	1	2back	Block3	2back/STIM_011.jpg
1496.149	0.515	1	2back	Block3	2back/STIM_011.jpg
1500.558	0.708	1	2back	Block3	2back/STIM_012.jpg
1504.305	1.112	1	2back	Block3	2back/STIM_012.jpg
1507.373	0.646	1	2back	Block3	2back/STIM_012.jpg
1510.07	0.824	1	2back	Block3	2back/STIM_013.jpg
1514.403	1.017	1	2back	Block3	2back/STIM_013.jpg
1517.766	0.794	1	2back	Block3	2back/STIM_013.jpg
1521.177	0.678	1	2back	Block3	2back/STIM_014.jpg
1524.575	1.131	1	2back	Block3	2back/STIM_014.jpg
1528.534	1.035	1	2back	Block3	2back/STIM_014.jpg
1531.913	0.803	1	2back	Block3	2back/STIM_015.jpg
1535.066	0.591	1	2back	Block3	2back/STIM_015.jpg
1537.62	0.612	1	2back	Block3	2back/STIM_015.jpg
1540.81	0.875	0	2back	Block3	2back/STIM_016.jpg
1544.07	0.666	1	2back	Block3	2back/STIM_016.jpg
1546.864	1.008	1	2back	Block3	2back/STIM_016.jpg
1551.668	1.131	1	2back	Block3	2back/STIM_017.jpg
1555.186	1.02	1	2back	Block3	2back/STIM_017.jpg
1559.071	0.984	1	2back	Block3	2back/STIM_017.jpg
1562.865	0.513	1	2back	Block3	2back/STIM_018.jpg
1565.656	0.745	1	2back	Block3	2back/STIM_018.jpg
1569.641	0.885	1	2back	Block3	2back/STIM_018.jpg
1573.474	0.834	1	2back	Block3	2back/STIM_019.jpg
1577.74	0.633	1	2back	Block3	2back/STIM_019.jpg
1581.774	0.831	1	2back	Block3	2back/STIM_019.jpg
1584.909	1.105	1	2back	Block3	2back/STIM_020.jpg
1588.938	0.83	1	2back	Block3	2back/STIM_020.jpg
1591.828	0.599	1	2back	Block3	2back/STIM_020.jpg
1596.293	0.727	1	2back	Block3	2back/STIM_021.jpg
1598.951	0.607	1	2back	Block3	2back/STIM_021.jpg
1602.934	0.531	1	2back	Block3	2back/STIM_021.jpg
1607.267	1.13	1	2back	Block3	2back/STIM_022.jpg
1611.721	0.903	1	2back	Block3	2back/STIM_022.jpg
1615.094	0.701	1	2back	Block3	2back/STIM_022.jpg
1619.135	0.866	1	2back	Block3	2back/STIM_023.jpg
1623.161	1.057	1	2back	Block3	2back/STIM_023.jpg
1626.08	0.855	1	2back	Block3	2back/STIM_023.jpg
1629.174	0.701	1	2back	Block3	2back/STIM_024.jpg
1633.131	0.702	1	2back	Block3	2back/STIM_024.jpg
1637.423	0.72	1	2back	Block3	2back/STIM_024.jpg
1640.198	0.774	1	2back	Block3	2back/STIM_025.jpg
1643.45	0.484	1	2back	Block3	2back/STIM_025.jpg
1646.333	0.935	1	2back	Block3	2back/STIM_025.jpg
1650.695	0.901	1	2back	Block3	2back/STIM_026.jpg
1654.835	0.693	0	2back	Block3	2back/STIM_026.jpg
1657.51	0.571	1	2back	Block3	2back/STIM_026.jpg
1660.651	0.953	1	2back	Block3	2back/STIM_027.jpg
1664.75	0.441	1	2back	Block3	2back/STIM_027.jpg
1668.075	1.001	1	2back	Block3	2back/STIM_027.jpg
1671.079	0.874	1	2back	Block3	2back/STIM_028.jpg
1673.912	0.986	1	2back	Block3	2back/STIM_028.jpg
1677.523	0.806	1	2back	Block3	2back/STIM_028.jpg
1681.867	0.547	1	2back	Block3	2back/STIM_029.jpg
1684.907	0.728	1	2back	Block3	2back/STIM_029.jpg
1687.976	0.647	1	2back	Block3	2back/STIM_029.jpg
1691.182	0.792	1	2back	Block3	2back/STIM_030.jpg
1694.642	0.505	1	2back	Block3	2back/STIM_030.jpg
1698.991	0.658	1	2back	Block3	2back/STIM_030.jpg
1703.587	0.713	1	2back	Block3	2back/STIM_031.jpg
1707.84	0.904	1	2back	Block3	2back/STIM_031.jpg
1711.346	0.817	1	2back	Block3	2back/STIM_031.jpg
1714.785	0.913	1	2back	Block3	2back/STIM_032.jpg
1719.012	0.52	1	2back	Block3	2back/STIM_032.jpg
1721.953	0.857	1	2back	Block3	2back/STIM_032.jpg
1726.151	0.532	1	2back	Block3	2back/STIM_033.jpg
1729.098	0.712	1	2back	Block3	2back/STIM_033.jpg
1733.77	0.526	1	2back	Block3	2back/STIM_033.jpg
1737.955	0.857	1	2back	Block3	2back/STIM_034.jpg
1740.907	1.01	1	2back	Block3	2back/STIM_034.jpg
1745.434	1.015	1	2back	Block3	2back/STIM_034.jpg
1748.714	1.077	1	2back	Block3	2back/STIM_035.jpg
1752.637	0.632	1	2back	Block3	2back/STIM_035.jpg
1756.195	1.099	1	2back	Block3	2back/STIM_035.jpg
1759.297	0.623	1	2back	Block3	2back/STIM_036.jpg
1763.35	0.671	1	2back	Block3	2back/STIM_036.jpg
1767.593	1.129	1	2back	Block3	2back/STIM_036.jpg
1770.613	0.954	1	2back	Block3	2back/STIM_037.jpg
1773.8	1.08	1	2back	Block3	2back/STIM_037.jpg
1777.265	0.598	1	2back	Block3	2back/STIM_037.jpg
1781.224	0.735	1	2back	Block3	2back/STIM_038.jpg
1784.562	0.687	1	2back	Block3	2back/STIM_038.jpg
1788.6	0.986	1	2back	Block3	2back/STIM_038.jpg
1792.9	0.839	1	2back	Block3	2back/STIM_039.jpg
1796.815	0.51	1	2back	Block3	2back/STIM_039.jpg
1800.381	0.599	1	2back	Block3	2back/STIM_039.jpg
1803.764	0.528	1	0back	Block3	0back/STIM_000.jpg
1806.693	0.6	1	0back	Block3	0back/STIM_000.jpg
1809.809	0.624	1	0back	Block3	0back/STIM_000.jpg
1812.974	0.541	1	0back	Block3	0back/STIM_001.jpg
1815.749	0.592	1	0back	Block3	0back/STIM_001.jpg
1818.375	0.404	1	0back	Block3	0back/STIM_001.jpg
1821.499	0.475	1	0back	Block3	0back/STIM_002.jpg
1824.217	0.982	1	0back	Block3	0back/STIM_002.jpg
1828.963	0.82	1	0back	Block3	0back/STIM_002.jpg
1832.958	0.778	0	0back	Block3	0back/STIM_003.jpg
1836.141	0.757	1	0back	Block3	0back/STIM_003.jpg
1840.387	0.705	1	0back	Block3	0back/STIM_003.jpg
1843.082	0.73	0	0back	Block3	0back/STIM_004.jpg
1846.461	0.61	1	0back	Block3	0back/STIM_004.jpg
1849.698	0.692	1	0back	Block3	0back/STIM_004.jpg
1853.408	0.687	1	0back	Block3	0back/STIM_005.jpg
1856.078	0.74	1	0back	Block3	0back/STIM_005.jpg
1860.429	0.867	1	0back	Block3	0back/STIM_005.jpg
1864.692	0.617	1	0back	Block3	0back/STIM_006.jpg
1868.75	0.507	1	0back	Block3	0back/STIM_006.jpg
1872.776	0.811	1	0back	Block3	0back/STIM_006.jpg
1876.111	0.721	1	0back	Block3	0back/STIM_007.jpg
1879.926	0.564	1	0back	Block3	0back/STIM_007.jpg
1883.713	0.864	1	0back	Block3	0back/STIM_007.jpg
1886.504	0.643	1	0back	Block3	0back/STIM_008.jpg
1889.348	0.612	0	0back	Block3	0back/STIM_008.jpg
1893.595	0.641	1	0back	Block3	0back/STIM_008.jpg
1896.767	0.894	1	0back	Block3	0back/STIM_009.jpg
1900.933	0.683	1	0back	Block3	0back/STIM_009.jpg
1904.787	0.81	1	0back	Block3	0back/STIM_009.jpg
1907.63	0.786	1	0back	Block3	0back/STIM_010.jpg
1910.428	0.668	1	0back	Block3	0back/STIM_010.jpg
1914.325	0.513	1	0back	Block3	0back/STIM_010.jpg
1917.78	0.409	1	0back	Block3	0back/STIM_011.jpg
1921.005	0.805	1	0back	Block3	0back/STIM_011.jpg
1924.812	0.78	1	0back	Block3	0back/STIM_011.jpg
1927.596	0.562	1	0back	Block3	0back/STIM_012.jpg
1931.701	0.797	1	0back	Block3	0back/STIM_012.jpg
1934.595	0.748	1	0back	Block3	0back/STIM_012.jpg
1938.085	0.87	1	0back	Block3	0back/STIM_013.jpg
1942.311	0.786	1	0back	Block3	0back/STIM_013.jpg
1945.259	0.659	0	0back	Block3	0back/STIM_013.jpg
1948.342	0.501	1	0back	Block3	0back/STIM_014.jpg
1950.82	0.9	1	0back	Block3	0back/STIM_014.jpg
1954.844	0.41	1	0back	Block3	0back/STIM_014.jpg
1958.001	0.53	1	0back	Block3	0back/STIM_015.jpg
1961.856	0.658	1	0back	Block3	0back/STIM_015.jpg
1964.848	0.667	1	0back	Block3	0back/STIM_015.jpg
1969.079	0.924	1	0back	Block3	0back/STIM_016.jpg
1972.158	0.6	1	0back	Block3	0back/STIM_016.jpg
1975.498	0.466	1	0back	Block3	0back/STIM_016.jpg
1979.77	0.551	1	0back	Block3	0back/STIM_017.jpg
1982.683	0.909	1	0back	Block3	0back/STIM_017.jpg
1985.71	0.734	1	0back	Block3	0back/STIM_017.jpg
1988.928	0.807	1	0back	Block3	0back/STIM_018.jpg
1993.199	0.846	1	0back	Block3	0back/STIM_018.jpg
1997.808	0.656	1	0back	Block3	0back/STIM_018.jpg
2001.546	0.856	1	0back	Block3	0back/STIM_019.jpg
2004.936	0.692	1	0back	Block3	0back/STIM_019.jpg
2009.356	0.574	1	0back	Block3	0back/STIM_019.jpg
2012.461	0.489	1	2back	Block4	2back/STIM_000.jpg
2016.11	0.608	1	2back	Block4	2back/STIM_000.jpg
2018.877	0.591	1	2back	Block4	2back/STIM_000.jpg
2022.381	0.635	1	2back	Block4	2back/STIM_001.jpg
2025.515	0.894	1	2back	Block4	2back/STIM_001.jpg
2029.426	0.477	1	2back	Block4	2back/STIM_001.jpg
2032.788	0.579	1	2back	Block4	2back/STIM_002.jpg
2036.621	0.568	1	2back	Block4	2back/STIM_002.jpg
2040.637	0.775	0	2back	Block4	2back/STIM_002.jpg
2044.873	0.81	1	2back	Block4	2back/STIM_003.jpg
2049.148	0.82	1	2back	Block4	2back/STIM_003.jpg
2052.152	0.882	1	2back	Block4	2back/STIM_003.jpg
2055.152	0.579	1	2back	Block4	2back/STIM_004.jpg
2059.181	0.913	1	2back	Block4	2back/STIM_004.jpg
2062.997	0.928	1	2back	Block4	2back/STIM_004.jpg
2067.182	0.594	1	2back	Block4	2back/STIM_005.jpg
2070.983	0.957	1	2back	Block4	2back/STIM_005.jpg
2074.047	0.93	1	2back	Block4	2back/STIM_005.jpg
2078.917	0.774	1	2back	Block4	2back/STIM_006.jpg
2083.515	0.547	1	2back	Block4	2back/STIM_006.jpg
2086.138	0.837	1	2back	Block4	2back/STIM_006.jpg
2089.238	0.918	1	2back	Block4	2back/STIM_007.jpg
2092.301	1.029	1	2back	Block4	2back/STIM_007.jpg
2096.4	1.14	1	2back	Block4	2back/STIM_007.jpg
2099.551	0.509	1	2back	Block4	2back/STIM_008.jpg
2103.73	0.982	1	2back	Block4	2back/STIM_008.jpg
2107.59	0.825	1	2back	Block4	2back/STIM_008.jpg
2110.853	0.876	1	2back	Block4	2back/STIM_009.jpg
2114.715	0.966	1	2back	Block4	2back/STIM_009.jpg
2119.475	0.357	1	2back	Block4	2back/STIM_009.jpg
2123.331	0.816	1	2back	Block4	2back/STIM_010.jpg
2126.66	0.879	1	2back	Block4	2back/STIM_010.jpg
2129.947	0.737	1	2back	Block4	2back/STIM_010.jpg
2133.491	0.922	1	2back	Block4	2back/STIM_011.jpg
2136.348	0.72	1	2back	Block4	2back/STIM_011.jpg
2140.438	0.659	1	2back	Block4	2back/STIM_011.jpg
2144.559	0.903	1	2back	Block4	2back/STIM_012.jpg
2147.773	0.883	1	2back	Block4	2back/STIM_012.jpg
2152.04	0.991	1	2back	Block4	2back/STIM_012.jpg
2155.703	0.977	1	2back	Block4	2back/STIM_013.jpg
2159.333	1.063	1	2back	Block4	2back/STIM_013.jpg
2163.705	0.739	1	2back	Block4	2back/STIM_013.jpg
2166.954	0.893	1	2back	Block4	2back/STIM_014.jpg
2170.683	0.622	1	2back	Block4	2back/STIM_014.jpg
2174.888	0.523	1	2back	Block4	2back/STIM_014.jpg
2177.5	0.618	1	2back	Block4	2back/STIM_015.jpg
2180.556	0.835	1	2back	Block4	2back/STIM_015.jpg
2185.274	0.796	1	2back	Block4	2back/STIM_015.jpg
2188.67	0.935	1	2back	Block4	2back/STIM_016.jpg
2192.194	1.042	1	2back	Block4	2back/STIM_016.jpg
2195.433	0.495	1	2back	Block4	2back/STIM_016.jpg
2198.647	1.113	1	2back	Block4	2back/STIM_017.jpg
2202.136	0.895	1	2back	Block4	2back/STIM_017.jpg
2205.285	0.521	1	2back	Block4	2back/STIM_017.jpg
2209.013	1.101	1	2back	Block4	2back/STIM_018.jpg
2213.574	0.738	1	2back	Block4	2back/STIM_018.jpg
2217.445	1.097	1	2back	Block4	2back/STIM_018.jpg
2221.977	0.688	1	2back	Block4	2back/STIM_019.jpg
2225.012	0.597	1	2back	Block4	2back/STIM_019.jpg
2228.167	0.953	1	2back	Block4	2back/STIM_019.jpg
2231.541	0.674	1	2back	Block4	2back/STIM_020.jpg
2234.431	0.528	1	2back	Block4	2back/STIM_020.jpg
2237.623	0.806	1	2back	Block4	2back/STIM_020.jpg
2241.334	0.762	1	2back	Block4	2back/STIM_021.jpg
2244.102	0.654	1	2back	Block4	2back/STIM_021.jpg
2248.425	0.858	1	2back	Block4	2back/STIM_021.jpg
2252.779	0.854	1	2back	Block4	2back/STIM_022.jpg
2257.036	0.847	1	2back	Block4	2back/STIM_022.jpg
2261.153	0.841	1	2back	Block4	2back/STIM_022.jpg
2264.571	1.097	1	2back	Block4	2back/STIM_023.jpg
2268.614	1.005	1	2back	Block4	2back/STIM_023.jpg
2271.661	1.075	1	2back	Block4	2back/STIM_023.jpg
2275.128	0.654	1	2back	Block4	2back/STIM_024.jpg
2278.86	1.008	1	2back	Block4	2back/STIM_024.jpg
2283.223	0.571	1	2back	Block4	2back/STIM_024.jpg
2287.167	0.716	1	2back	Block4	2back/STIM_025.jpg
2291.211	1.054	1	2back	Block4	2back/STIM_025.jpg
2294.391	1.007	1	2back	Block4	2back/STIM_025.jpg
2298.541	0.544	1	2back	Block4	2back/STIM_026.jpg
2301.186	0.69	1	2back	Block4	2back/STIM_026.jpg
2304.085	0.579	1	2back	Block4	2back/STIM_026.jpg
2307.874	0.684	1	2back	Block4	2back/STIM_027.jpg
2312.11	0.692	1	2back	Block4	2back/STIM_027.jpg
2315.06	0.828	1	2back	Block4	2back/STIM_027.jpg
2318.079	0.591	1	2back	Block4	2back/STIM_028.jpg
2321.644	1.175	1	2back	Block4	2back/STIM_028.jpg
2325.252	0.827	1	2back	Block4	2back/STIM_028.jpg
2328.803	0.643	1	2back	Block4	2back/STIM_029.jpg
2331.934	0.97	1	2back	Block4	2back/STIM_029.jpg
2334.839	0.655	1	2back	Block4	2back/STIM_029.jpg
2337.839	0.553	1	2back	Block4	2back/STIM_030.jpg
2341.096	0.616	1	2back	Block4	2back/STIM_030.jpg
2344.295	0.722	1	2back	Block4	2back/STIM_030.jpg
2347.508	0.542	1	2back	Block4	2back/STIM_031.jpg
2351.298	0.486	1	2back	Block4	2back/STIM_031.jpg
2354.853	1.062	1	2back	Block4	2back/STIM_031.jpg
2358.43	0.837	1	2back	Block4	2back/STIM_032.jpg
2362.742	1.061	1	2back	Block4	2back/STIM_032.jpg
2365.9	0.623	1	2back	Block4	2back/STIM_032.jpg
2368.757	0.619	1	2back	Block4	2back/STIM_033.jpg
2371.776	0.787	1	2back	Block4	2back/STIM_033.jpg
2375.638	1.018	1	2back	Block4	2back/STIM_033.jpg
2378.82	0.712	1	2back	Block4	2back/STIM_034.jpg
2382.626	0.54	1	2back	Block4	2back/STIM_034.jpg
2386.221	1.031	1	2back	Block4	2back/STIM_034.jpg
2389.559	0.632	1	2back	Block4	2back/STIM_035.jpg
2394.031	1.02	1	2back	Block4	2back/STIM_035.jpg
2398.24	0.866	1	2back	Block4	2back/STIM_035.jpg
2402.891	0.865	0	2back	Block4	2back/STIM_036.jpg
2406.635	0.776	1	2back	Block4	2back/STIM_036.jpg
2411.293	1.024	1	2back	Block4	2back/STIM_036.jpg
2415.43	0.816	1	2back	Block4	2back/STIM_037.jpg
2419.326	1.087	1	2back	Block4	2back/STIM_037.jpg
2422.424	1.045	1	2back	Block4	2back/STIM_037.jpg
2426.908	0.663	1	2back	Block4	2back/STIM_038.jpg
2430.765	1.139	1	2back	Block4	2back/STIM_038.jpg
2435.431	0.914	1	2back	Block4	2back/STIM_038.jpg
2438.694	0.693	1	2back	Block4	2back/STIM_039.jpg
2442.416	1.043	1	2back	Block4	2back/STIM_039.jpg
2447.147	0.993	1	2back	Block4	2back/STIM_039.jpg
2451.472	0.418	1	0back	Block4	0back/STIM_000.jpg
2454.52	0.542	1	0back	Block4	0back/STIM_000.jpg
2458.054	0.61	1	0back	Block4	0back/STIM_000.jpg
2461.011	0.856	1	0back	Block4	0back/STIM_001.jpg
2465.128	0.766	1	0back	Block4	0back/STIM_001.jpg
2468.474	0.865	1	0back	Block4	0back/STIM_001.jpg
2471.836	0.645	1	0back	Block4	0back/STIM_002.jpg
2475.116	0.685	1	0back	Block4	0back/STIM_002.jpg
2478.714	0.525	1	0back	Block4	0back/STIM_002.jpg
2482.273	0.598	1	0back	Block4	0back/STIM_003.jpg
2485.504	0.5	1	0back	Block4	0back/STIM_003.jpg
2488.778	0.49	1	0back	Block4	0back/STIM_003.jpg
2492.753	0.858	1	0back	Block4	0back/STIM_004.jpg
2496.086	0.73	1	0back	Block4	0back/STIM_004.jpg
2499.136	0.61	1	0back	Block4	0back/STIM_004.jpg
2503.373	0.847	1	0back	Block4	0back/STIM_005.jpg
2506.766	0.773	1	0back	Block4	0back/STIM_005.jpg
2511.391	0.487	1	0back	Block4	0back/STIM_005.jpg
2514.654	0.758	1	0back	Block4	0back/STIM_006.jpg
2518.941	0.603	1	0back	Block4	0back/STIM_006.jpg
2523.368	0.799	0	0back	Block4	0back/STIM_006.jpg
2527.616	0.736	1	0back	Block4	0back/STIM_007.jpg
2531.527	0.898	1	0back	Block4	0back/STIM_007.jpg
2535.15	0.556	1	0back	Block4	0back/STIM_007.jpg
2538.196	0.805	1	0back	Block4	0back/STIM_008.jpg
2542.7	0.932	1	0back	Block4	0back/STIM_008.jpg
2546.641	0.75	1	0back	Block4	0back/STIM_008.jpg
2550.256	0.478	1	0back	Block4	0back/STIM_009.jpg
2554.014	0.578	1	0back	Block4	0back/STIM_009.jpg
2557.919	0.646	1	0back	Block4	0back/STIM_009.jpg
2560.662	0.418	1	0back	Block4	0back/STIM_010.jpg
2563.284	0.539	1	0back	Block4	0back/STIM_010.jpg
2566.502	0.529	1	0back	Block4	0back/STIM_010.jpg
2569.562	0.634	0	0back	Block4	0back/STIM_011.jpg
2573.277	0.818	1	0back	Block4	0back/STIM_011.jpg
2577.337	0.819	1	0back	Block4	0back/STIM_011.jpg
2582.067	0.492	1	0back	Block4	0back/STIM_012.jpg
2584.834	0.482	1	0back	Block4	0back/STIM_012.jpg
2588.595	0.47	1	0back	Block4	0back/STIM_012.jpg
2592.294	0.607	1	0back	Block4	0back/STIM_013.jpg
2596.651	0.687	1	0back	Block4	0back/STIM_013.jpg
2599.559	0.956	1	0back	Block4	0back/STIM_013.jpg
2604.223	0.449	1	0back	Block4	0back/STIM_014.jpg
2607.039	0.586	1	0back	Block4	0back/STIM_014.jpg
2611.489	0.452	1	0back	Block4	0back/STIM_014.jpg
2614.3	0.523	1	0back	Block4	0back/STIM_015.jpg
2617.133	0.496	1	0back	Block4	0back/STIM_015.jpg
2619.788	0.453	1	0back	Block4	0back/STIM_015.jpg
2622.405	0.831	1	0back	Block4	0back/STIM_016.jpg
2626.762	0.625	1	0back	Block4	0back/STIM_016.jpg
2631.161	0.545	0	0back	Block4	0back/STIM_016.jpg
2635.058	0.801	1	0back	Block4	0back/STIM_017.jpg
2639.489	0.789	1	0back	Block4	0back/STIM_017.jpg
2642.866	0.791	1	0back	Block4	0back/STIM_017.jpg
2646.786	0.563	1	0back	Block4	0back/STIM_018.jpg
2650.598	0.656	1	0back	Block4	0back/STIM_018.jpg
2653.574	0.515	1	0back	Block4	0back/STIM_018.jpg
2657.57	0.812	1	0back	Block4	0back/STIM_019.jpg
2661.569	0.619	1	0back	Block4	0back/STIM_019.jpg
2664.972	0.621	1	0back	Block4	0back/STIM_019.jpg
