onset	duration	response_time_ms	trial_type	learning_stage	stimulus	response_port
0.0	1.192	1191.7	2back	Block1	2back/STIM_000.jpg	100
3.195	0.867	866.6	2back	Block1	2back/STIM_000.jpg	100
7.892	0.567	567.2	2back	Block1	2back/STIM_000.jpg	100
11.062	1.164	1164.0	2back	Block1	2back/STIM_001.jpg	99
15.203	0.793	793.1	2back	Block1	2back/STIM_001.jpg	99
18.328	1.114	1114.4	2back	Block1	2back/STIM_001.jpg	100
21.981	1.233	1233.3	2back	Block1	2back/STIM_002.jpg	99
25.699	0.647	646.9	2back	Block1	2back/STIM_002.jpg	99
29.56	0.912	912.2	2back	Block1	2back/STIM_002.jpg	100
34.178	1.175	1175.4	2back	Block1	2back/STIM_003.jpg	100
38.118	0.652	651.7	2back	Block1	2back/STIM_003.jpg	99
42.378	1.125	1124.8	2back	Block1	2back/STIM_003.jpg	99
46.878	0.851	850.9	2back	Block1	2back/STIM_004.jpg	100
51.21	1.099	1099.0	2back	Block1	2back/STIM_004.jpg	100
55.121	0.663	662.6	2back	Block1	2back/STIM_004.jpg	100
59.425	0.613	612.6	2back	Block1	2back/STIM_005.jpg	99
63.343	0.608	608.3	2back	Block1	2back/STIM_005.jpg	99
66.308	1.04	1040.2	2back	Block1	2back/STIM_005.jpg	99
71.248	0.807	806.8	2back	Block1	2back/STIM_006.jpg	100
75.553	1.1	1100.4	2back	Block1	2back/STIM_006.jpg	100
80.354	0.539	538.7	2back	Block1	2back/STIM_006.jpg	99
84.408	1.164	1164.2	2back	Block1	2back/STIM_007.jpg	99
88.145	0.649	648.8	2back	Block1	2back/STIM_007.jpg	100
92.294	0.798	797.5	2back	Block1	2back/STIM_007.jpg	100
97.009	1.023	1023.0	2back	Block1	2back/STIM_008.jpg	100
101.017	0.749	748.7	2back	Block1	2back/STIM_008.jpg	100
104.166	1.044	1044.3	2back	Block1	2back/STIM_008.jpg	100
107.555	0.675	675.3	2back	Block1	2back/STIM_009.jpg	100
110.992	0.642	642.2	2back	Block1	2back/STIM_009.jpg	100
114.065	0.671	670.7	2back	Block1	2back/STIM_009.jpg	99
116.802	1.126	1125.6	2back	Block1	2back/STIM_010.jpg	99
120.055	0.823	823.2	2back	Block1	2back/STIM_010.jpg	99
124.761	0.604	604.3	2back	Block1	2back/STIM_010.jpg	100
128.754	0.849	849.2	2back	Block1	2back/STIM_011.jpg	100
132.896	1.106	1106.2	2back	Block1	2back/STIM_011.jpg	99
136.725	1.081	1081.1	2back	Block1	2back/STIM_011.jpg	99
140.789	1.145	1144.6	2back	Block1	2back/STIM_012.jpg	100
145.187	0.725	724.6	2back	Block1	2back/STIM_012.jpg	99
149.642	0.754	753.5	2back	Block1	2back/STIM_012.jpg	100
152.573	0.775	775.1	2back	Block1	2back/STIM_013.jpg	100
155.549	0.983	983.3	2back	Block1	2back/STIM_013.jpg	99
160.184	1.044	1044.3	2back	Block1	2back/STIM_013.jpg	99
163.294	0.735	735.2	2back	Block1	2back/STIM_014.jpg	99
166.254	0.555	554.6	2back	Block1	2back/STIM_014.jpg	100
169.379	1.098	1098.3	2back	Block1	2back/STIM_014.jpg	99
173.405	0.822	821.6	2back	Block1	2back/STIM_015.jpg	100
176.255	0.746	745.5	2back	Block1	2back/STIM_015.jpg	99
179.907	0.962	962.4	2back	Block1	2back/STIM_015.jpg	100
184.466	0.766	765.8	2back	Block1	2back/STIM_016.jpg	100
187.409	0.856	856.0	2back	Block1	2back/STIM_016.jpg	100
191.242	0.734	734.4	2back	Block1	2back/STIM_016.jpg	99
195.022	0.816	815.8	2back	Block1	2back/STIM_017.jpg	99
197.866	1.066	1065.6	2back	Block1	2back/STIM_017.jpg	100
202.773	0.503	502.7	2back	Block1	2back/STIM_017.jpg	99
205.67	1.104	1104.2	2back	Block1	2back/STIM_018.jpg	99
209.866	0.966	966.2	2back	Block1	2back/STIM_018.jpg	100
214.052	0.507	507.2	2back	Block1	2back/STIM_018.jpg	100
216.931	0.677	676.6	2back	Block1	2back/STIM_019.jpg	99
220.03	0.911	910.8	2back	Block1	2back/STIM_019.jpg	99
224.059	0.792	792.2	2back	Block1	2back/STIM_019.jpg	99
227.319	0.606	606.5	2back	Block1	2back/STIM_020.jpg	99
230.48	0.6	600.5	2back	Block1	2back/STIM_020.jpg	100
234.355	1.147	1147.3	2back	Block1	2back/STIM_020.jpg	99
238.724	0.823	822.7	2back	Block1	2back/STIM_021.jpg	100
242.293	0.719	719.1	2back	Block1	2back/STIM_021.jpg	99
245.901	0.567	566.8	2back	Block1	2back/STIM_021.jpg	99
249.691	1.278	1278.4	2back	Block1	2back/STIM_022.jpg	99
253.432	1.184	1184.1	2back	Block1	2back/STIM_022.jpg	99
257.731	0.744	744.2	2back	Block1	2back/STIM_022.jpg	100
262.123	1.248	1247.9	2back	Block1	2back/STIM_023.jpg	100
266.578	1.017	1016.6	2back	Block1	2back/STIM_023.jpg	99
271.117	1.088	1087.5	2back	Block1	2back/STIM_023.jpg	99
275.895	0.556	555.9	2back	Block1	2back/STIM_024.jpg	99
279.375	0.981	980.8	2back	Block1	2back/STIM_024.jpg	99
283.638	0.599	598.8	2back	Block1	2back/STIM_024.jpg	99
287.539	1.211	1211.4	2back	Block1	2back/STIM_025.jpg	100
292.332	1.022	1022.4	2back	Block1	2back/STIM_025.jpg	99
296.495	1.012	1012.1	2back	Block1	2back/STIM_025.jpg	99
300.509	0.686	686.0	2back	Block1	2back/STIM_026.jpg	100
304.16	1.113	1113.2	2back	Block1	2back/STIM_026.jpg	100
307.457	0.786	785.7	2back	Block1	2back/STIM_026.jpg	100
311.433	1.076	1076.2	2back	Block1	2back/STIM_027.jpg	100
315.925	0.699	698.9	2back	Block1	2back/STIM_027.jpg	100
319.012	0.882	881.8	2back	Block1	2back/STIM_027.jpg	99
323.6	0.922	922.5	2back	Block1	2back/STIM_028.jpg	100
327.884	0.825	824.9	2back	Block1	2back/STIM_028.jpg	99
331.832	0.832	832.2	2back	Block1	2back/STIM_028.jpg	99
336.598	0.935	935.1	2back	Block1	2back/STIM_029.jpg	99
339.822	0.87	870.3	2back	Block1	2back/STIM_029.jpg	99
344.312	0.844	844.4	2back	Block1	2back/STIM_029.jpg	99
347.703	1.135	1134.6	2back	Block1	2back/STIM_030.jpg	100
351.888	1.213	1213.3	2back	Block1	2back/STIM_030.jpg	99
355.332	0.752	752.5	2back	Block1	2back/STIM_030.jpg	100
358.304	0.826	825.6	2back	Block1	2back/STIM_031.jpg	99
363.017	0.599	599.0	2back	Block1	2back/STIM_031.jpg	100
366.25	1.151	1150.6	2back	Block1	2back/STIM_031.jpg	99
370.254	0.749	749.0	2back	Block1	2back/STIM_032.jpg	100
374.33	1.138	1138.3	2back	Block1	2back/STIM_032.jpg	99
377.726	0.54	539.6	2back	Block1	2back/STIM_032.jpg	99
380.977	1.194	1194.3	2back	Block1	2back/STIM_033.jpg	100
384.526	1.054	1053.6	2back	Block1	2back/STIM_033.jpg	99
388.709	0.506	506.1	2back	Block1	2back/STIM_033.jpg	100
392.271	0.643	642.9	2back	Block1	2back/STIM_034.jpg	100
395.369	0.644	644.2	2back	Block1	2back/STIM_034.jpg	99
399.18	0.59	589.9	2back	Block1	2back/STIM_034.jpg	100
402.06	0.676	675.9	2back	Block1	2back/STIM_035.jpg	99
405.785	1.139	1138.8	2back	Block1	2back/STIM_035.jpg	99
409.172	1.132	1132.2	2back	Block1	2back/STIM_035.jpg	100
412.594	1.131	1130.8	2back	Block1	2back/STIM_036.jpg	100
417.264	1.025	1025.3	2back	Block1	2back/STIM_036.jpg	99
421.006	1.123	1123.1	2back	Block1	2back/STIM_036.jpg	99
425.286	1.104	1103.5	2back	Block1	2back/STIM_037.jpg	99
428.843	1.015	1015.2	2back	Block1	2back/STIM_037.jpg	99
432.227	1.071	1071.2	2back	Block1	2back/STIM_037.jpg	100
437.258	1.116	1115.7	2back	Block1	2back/STIM_038.jpg	100
442.338	1.008	1007.9	2back	Block1	2back/STIM_038.jpg	100
446.459	1.0	1000.4	2back	Block1	2back/STIM_038.jpg	100
449.867	0.919	918.7	2back	Block1	2back/STIM_039.jpg	99
453.409	1.154	1154.0	2back	Block1	2back/STIM_039.jpg	100
458.145	0.872	871.5	2back	Block1	2back/STIM_039.jpg	100
461.239	0.471	471.2	0back	Block1	0back/STIM_000.jpg	100
465.668	0.549	548.9	0back	Block1	0back/STIM_000.jpg	99
469.654	0.6	600.3	0back	Block1	0back/STIM_000.jpg	99
472.541	0.385	385.2	0back	Block1	0back/STIM_001.jpg	100
475.149	0.436	435.9	0back	Block1	0back/STIM_001.jpg	100
477.782	0.534	533.5	0back	Block1	0back/STIM_001.jpg	100
480.966	0.688	688.3	0back	Block1	0back/STIM_002.jpg	99
484.701	0.419	419.1	0back	Block1	0back/STIM_002.jpg	100
488.803	0.422	422.1	0back	Block1	0back/STIM_002.jpg	100
492.131	0.571	570.9	0back	Block1	0back/STIM_003.jpg	99
496.191	0.52	519.6	0back	Block1	0back/STIM_003.jpg	100
499.677	0.53	530.3	0back	Block1	0back/STIM_003.jpg	99
502.494	0.632	631.8	0back	Block1	0back/STIM_004.jpg	99
505.822	0.448	448.1	0back	Block1	0back/STIM_004.jpg	99
508.648	0.628	627.8	0back	Block1	0back/STIM_004.jpg	100
511.93	0.566	565.8	0back	Block1	0back/STIM_005.jpg	100
514.779	0.626	626.5	0back	Block1	0back/STIM_005.jpg	99
519.224	0.718	718.0	0back	Block1	0back/STIM_005.jpg	100
523.432	0.597	597.1	0back	Block1	0back/STIM_006.jpg	99
526.587	0.55	550.5	0back	Block1	0back/STIM_006.jpg	100
530.781	0.611	610.8	0back	Block1	0back/STIM_006.jpg	99
534.835	0.573	572.6	0back	Block1	0back/STIM_007.jpg	100
538.247	0.564	563.7	0back	Block1	0back/STIM_007.jpg	100
542.217	0.676	675.9	0back	Block1	0back/STIM_007.jpg	100
546.883	0.378	378.2	0back	Block1	0back/STIM_008.jpg	100
550.755	0.585	584.6	0back	Block1	0back/STIM_008.jpg	100
553.598	0.706	706.1	0back	Block1	0back/STIM_008.jpg	100
557.837	0.66	659.6	0back	Block1	0back/STIM_009.jpg	99
561.882	0.67	670.5	0back	Block1	0back/STIM_009.jpg	99
565.9	0.626	625.6	0back	Block1	0back/STIM_009.jpg	100
570.1	0.654	654.2	0back	Block1	0back/STIM_010.jpg	99
573.665	0.504	504.4	0back	Block1	0back/STIM_010.jpg	100
576.417	0.486	485.9	0back	Block1	0back/STIM_010.jpg	99
580.381	0.384	384.2	0back	Block1	0back/STIM_011.jpg	99
583.074	0.459	458.8	0back	Block1	0back/STIM_011.jpg	100
587.153	0.654	653.9	0back	Block1	0back/STIM_011.jpg	99
590.401	0.626	625.5	0back	Block1	0back/STIM_012.jpg	100
593.825	0.651	651.0	0back	Block1	0back/STIM_012.jpg	99
597.743	0.494	494.1	0back	Block1	0back/STIM_012.jpg	100
602.123	0.441	441.1	0back	Block1	0back/STIM_013.jpg	100
606.171	0.628	628.2	0back	Block1	0back/STIM_013.jpg	99
609.836	0.415	415.3	0back	Block1	0back/STIM_013.jpg	100
612.707	0.381	381.1	0back	Block1	0back/STIM_014.jpg	99
616.126	0.389	389.1	0back	Block1	0back/STIM_014.jpg	99
618.55	0.643	643.2	0back	Block1	0back/STIM_014.jpg	100
622.044	0.723	723.1	0back	Block1	0back/STIM_015.jpg	99
625.296	0.66	660.2	0back	Block1	0back/STIM_015.jpg	99
629.913	0.498	497.5	0back	Block1	0back/STIM_015.jpg	99
634.018	0.689	688.8	0back	Block1	0back/STIM_016.jpg	100
637.243	0.633	632.8	0back	Block1	0back/STIM_016.jpg	99
641.638	0.563	563.1	0back	Block1	0back/STIM_016.jpg	99
645.818	0.611	611.1	0back	Block1	0back/STIM_017.jpg	100
650.378	0.395	395.1	0back	Block1	0back/STIM_017.jpg	99
654.154	0.404	404.4	0back	Block1	0back/STIM_017.jpg	99
657.035	0.599	598.8	0back	Block1	0back/STIM_018.jpg	99
661.401	0.52	519.9	0back	Block1	0back/STIM_018.jpg	100
665.352	0.594	593.7	0back	Block1	0back/STIM_018.jpg	99
669.565	0.486	486.1	0back	Block1	0back/STIM_019.jpg	100
673.43	0.623	623.4	0back	Block1	0back/STIM_019.jpg	100
677.569	0.68	680.1	0back	Block1	0back/STIM_019.jpg	99
681.71	0.468	468.2	2back	Block2	2back/STIM_000.jpg	99
684.318	0.987	987.3	2back	Block2	2back/STIM_000.jpg	100
688.579	0.796	795.9	2back	Block2	2back/STIM_000.jpg	99
691.903	1.062	1061.6	2back	Block2	2back/STIM_001.jpg	99
695.029	0.942	941.8	2back	Block2	2back/STIM_001.jpg	100
698.725	0.881	880.9	2back	Block2	2back/STIM_001.jpg	99
702.538	0.474	474.1	2back	Block2	2back/STIM_002.jpg	99
705.123	0.658	658.3	2back	Block2	2back/STIM_002.jpg	99
708.029	0.577	576.9	2back	Block2	2back/STIM_002.jpg	99
712.038	0.888	887.7	2back	Block2	2back/STIM_003.jpg	100
715.153	0.586	585.7	2back	Block2	2back/STIM_003.jpg	100
717.828	0.535	534.8	2back	Block2	2back/STIM_003.jpg	99
721.653	0.656	656.2	2back	Block2	2back/STIM_004.jpg	99
724.844	0.966	965.7	2back	Block2	2back/STIM_004.jpg	100
728.848	0.514	513.7	2back	Block2	2back/STIM_004.jpg	100
732.123	0.58	580.4	2back	Block2	2back/STIM_005.jpg	100
736.284	0.68	679.8	2back	Block2	2back/STIM_005.jpg	99
740.562	0.476	476.2	2back	Block2	2back/STIM_005.jpg	99
743.206	0.881	881.0	2back	Block2	2back/STIM_006.jpg	100
747.269	0.517	516.8	2back	Block2	2back/STIM_006.jpg	100
750.195	0.874	874.0	2back	Block2	2back/STIM_006.jpg	99
754.825	0.493	492.8	2back	Block2	2back/STIM_007.jpg	99
758.875	0.761	761.2	2back	Block2	2back/STIM_007.jpg	100
762.79	0.577	577.3	2back	Block2	2back/STIM_007.jpg	99
766.118	0.938	937.6	2back	Block2	2back/STIM_008.jpg	100
769.954	0.557	557.1	2back	Block2	2back/STIM_008.jpg	100
773.523	0.53	530.2	2back	Block2	2back/STIM_008.jpg	99
776.059	0.739	738.8	2back	Block2	2back/STIM_009.jpg	100
779.015	0.715	715.3	2back	Block2	2back/STIM_009.jpg	100
782.891	0.638	637.8	2back	Block2	2back/STIM_009.jpg	100
785.724	0.935	935.4	2back	Block2	2back/STIM_010.jpg	99
789.755	0.811	810.8	2back	Block2	2back/STIM_010.jpg	100
793.59	0.915	915.3	2back	Block2	2back/STIM_010.jpg	99
798.503	0.893	892.9	2back	Block2	2back/STIM_011.jpg	100
802.464	0.697	696.8	2back	Block2	2back/STIM_011.jpg	99
806.721	0.71	709.8	2back	Block2	2back/STIM_011.jpg	100
810.186	0.552	551.6	2back	Block2	2back/STIM_012.jpg	99
813.466	0.904	904.1	2back	Block2	2back/STIM_012.jpg	99
816.877	0.874	874.1	2back	Block2	2back/STIM_012.jpg	100
820.006	0.565	565.3	2back	Block2	2back/STIM_013.jpg	100
823.449	0.935	935.1	2back	Block2	2back/STIM_013.jpg	99
827.138	0.685	684.9	2back	Block2	2back/STIM_013.jpg	100
829.995	0.872	871.6	2back	Block2	2back/STIM_014.jpg	99
834.013	0.675	674.7	2back	Block2	2back/STIM_014.jpg	100
837.503	0.474	474.0	2back	Block2	2back/STIM_014.jpg	100
840.37	0.929	929.4	2back	Block2	2back/STIM_015.jpg	99
845.103	0.569	569.2	2back	Block2	2back/STIM_015.jpg	100
848.371	0.695	695.1	2back	Block2	2back/STIM_015.jpg	99
852.24	0.627	627.0	2back	Block2	2back/STIM_016.jpg	99
855.116	0.934	933.5	2back	Block2	2back/STIM_016.jpg	99
858.229	0.727	727.2	2back	Block2	2back/STIM_016.jpg	99
861.599	0.774	774.4	2back	Block2	2back/STIM_017.jpg	100
865.179	0.747	746.7	2back	Block2	2back/STIM_017.jpg	100
868.888	0.868	867.5	2back	Block2	2back/STIM_017.jpg	100
873.028	1.038	1038.0	2back	Block2	2back/STIM_018.jpg	99
878.012	0.717	717.2	2back	Block2	2back/STIM_018.jpg	99
882.532	0.645	644.9	2back	Block2	2back/STIM_018.jpg	99
885.75	0.85	849.9	2back	Block2	2back/STIM_019.jpg	99
890.237	0.564	564.1	2back	Block2	2back/STIM_019.jpg	100
893.368	0.413	413.3	2back	Block2	2back/STIM_019.jpg	99
897.677	0.882	882.2	2back	Block2	2back/STIM_020.jpg	100
901.886	0.777	777.1	2back	Block2	2back/STIM_020.jpg	100
905.83	0.675	674.7	2back	Block2	2back/STIM_020.jpg	100
908.515	0.809	809.2	2back	Block2	2back/STIM_021.jpg	99
912.423	0.456	455.7	2back	Block2	2back/STIM_021.jpg	100
915.087	0.626	625.5	2back	Block2	2back/STIM_021.jpg	100
917.724	0.695	694.7	2back	Block2	2back/STIM_022.jpg	100
921.094	0.517	517.2	2back	Block2	2back/STIM_022.jpg	99
925.069	0.576	575.5	2back	Block2	2back/STIM_022.jpg	100
928.358	0.69	690.5	2back	Block2	2back/STIM_023.jpg	99
931.853	0.918	917.9	2back	Block2	2back/STIM_023.jpg	99
935.978	0.608	608.5	2back	Block2	2back/STIM_023.jpg	99
940.224	0.722	722.4	2back	Block2	2back/STIM_024.jpg	100
944.303	0.444	444.2	2back	Block2	2back/STIM_024.jpg	99
948.356	0.633	633.2	2back	Block2	2back/STIM_024.jpg	99
952.199	0.544	544.2	2back	Block2	2back/STIM_025.jpg	99
956.607	0.47	470.3	2back	Block2	2back/STIM_025.jpg	100
959.407	0.467	466.7	2back	Block2	2back/STIM_025.jpg	99
963.172	0.663	662.6	2back	Block2	2back/STIM_026.jpg	100
966.841	0.628	628.4	2back	Block2	2back/STIM_026.jpg	99
969.698	0.582	582.0	2back	Block2	2back/STIM_026.jpg	99
972.842	1.005	1005.3	2back	Block2	2back/STIM_027.jpg	100
977.112	0.883	883.1	2back	Block2	2back/STIM_027.jpg	100
981.451	0.441	441.1	2back	Block2	2back/STIM_027.jpg	100
985.635	0.67	670.2	2back	Block2	2back/STIM_028.jpg	99
988.75	0.952	952.4	2back	Block2	2back/STIM_028.jpg	99
992.02	0.936	935.6	2back	Block2	2back/STIM_028.jpg	99
995.596	0.746	746.3	2back	Block2	2back/STIM_029.jpg	99
1000.224	0.706	705.7	2back	Block2	2back/STIM_029.jpg	99
1003.716	0.504	503.8	2back	Block2	2back/STIM_029.jpg	99
1007.684	1.026	1026.2	2back	Block2	2back/STIM_030.jpg	100
1011.476	0.545	544.7	2back	Block2	2back/STIM_030.jpg	100
1014.368	0.459	459.2	2back	Block2	2back/STIM_030.jpg	99
1018.279	0.519	519.0	2back	Block2	2back/STIM_031.jpg	99
1021.943	0.948	948.1	2back	Block2	2back/STIM_031.jpg	99
1026.07	0.772	772.5	2back	Block2	2back/STIM_031.jpg	100
1029.669	0.619	619.4	2back	Block2	2back/STIM_032.jpg	99
1033.595	0.657	657.2	2back	Block2	2back/STIM_032.jpg	100
1037.366	0.655	655.1	2back	Block2	2back/STIM_032.jpg	100
1040.451	0.807	807.1	2back	Block2	2back/STIM_033.jpg	100
1044.068	0.813	812.7	2back	Block2	2back/STIM_033.jpg	99
1048.217	0.887	886.6	2back	Block2	2back/STIM_033.jpg	99
1051.225	0.985	984.7	2back	Block2	2back/STIM_034.jpg	100
1055.934	0.598	598.4	2back	Block2	2back/STIM_034.jpg	100
1058.758	0.662	661.8	2back	Block2	2back/STIM_034.jpg	100
1062.802	0.64	640.2	2back	Block2	2back/STIM_035.jpg	99
1065.719	0.941	940.7	2back	Block2	2back/STIM_035.jpg	99
1070.147	0.569	569.2	2back	Block2	2back/STIM_035.jpg	99
1073.088	0.777	776.8	2back	Block2	2back/STIM_036.jpg	100
1077.525	1.008	1007.9	2back	Block2	2back/STIM_036.jpg	100
1081.288	0.557	557.2	2back	Block2	2back/STIM_036.jpg	99
1084.26	0.479	479.3	2back	Block2	2back/STIM_037.jpg	100
1086.803	0.544	544.3	2back	Block2	2back/STIM_037.jpg	99
1090.031	0.788	787.6	2back	Block2	2back/STIM_037.jpg	100
1094.184	1.069	1069.2	2back	Block2	2back/STIM_038.jpg	100
1098.705	0.515	514.7	2back	Block2	2back/STIM_038.jpg	99
1102.231	0.497	497.3	2back	Block2	2back/STIM_038.jpg	100
1106.115	0.824	824.5	2back	Block2	2back/STIM_039.jpg	100
1108.951	1.017	1016.9	2back	Block2	2back/STIM_039.jpg	100
1113.46	0.782	782.4	2back	Block2	2back/STIM_039.jpg	99
1116.332	0.422	421.8	0back	Block2	0back/STIM_000.jpg	99
1118.967	0.53	530.2	0back	Block2	0back/STIM_000.jpg	99
1122.847	0.428	428.2	0back	Block2	0back/STIM_000.jpg	99
1126.174	0.464	463.9	0back	Block2	0back/STIM_001.jpg	99
1130.517	0.588	587.5	0back	Block2	0back/STIM_001.jpg	99
1134.13	0.51	509.8	0back	Block2	0back/STIM_001.jpg	100
1137.659	0.632	632.2	0back	Block2	0back/STIM_002.jpg	100
1140.329	0.624	624.4	0back	Block2	0back/STIM_002.jpg	100
1143.964	0.43	430.3	0back	Block2	0back/STIM_002.jpg	100
1148.326	0.43	430.0	0back	Block2	0back/STIM_003.jpg	100
1151.434	0.612	612.3	0back	Block2	0back/STIM_003.jpg	99
1155.939	0.644	644.2	0back	Block2	0back/STIM_003.jpg	100
1160.132	0.531	531.2	0back	Block2	0back/STIM_004.jpg	99
1163.386	0.445	444.6	0back	Block2	0back/STIM_004.jpg	99
1165.985	0.412	412.5	0back	Block2	0back/STIM_004.jpg	99
1168.922	0.47	469.5	0back	Block2	0back/STIM_005.jpg	99
1171.726	0.61	610.0	0back	Block2	0back/STIM_005.jpg	100
1176.248	0.435	435.2	0back	Block2	0back/STIM_005.jpg	99
1180.43	0.428	428.3	0back	Block2	0back/STIM_006.jpg	99
1183.045	0.546	545.5	0back	Block2	0back/STIM_006.jpg	99
1186.081	0.49	489.7	0back	Block2	0back/STIM_006.jpg	100
1189.304	0.462	462.4	0back	Block2	0back/STIM_007.jpg	100
1193.67	0.578	578.0	0back	Block2	0back/STIM_007.jpg	99
1197.915	0.431	431.0	0back	Block2	0back/STIM_007.jpg	99
1202.081	0.559	559.0	0back	Block2	0back/STIM_008.jpg	99
1204.653	0.509	508.9	0back	Block2	0back/STIM_008.jpg	100
1207.442	0.713	713.3	0back	Block2	0back/STIM_008.jpg	100
1212.073	0.624	624.2	0back	Block2	0back/STIM_009.jpg	100
1215.597	0.515	514.8	0back	Block2	0back/STIM_009.jpg	100
1219.507	0.514	514.4	0back	Block2	0back/STIM_009.jpg	99
1222.327	0.543	543.3	0back	Block2	0back/STIM_010.jpg	99
1226.276	0.43	429.9	0back	Block2	0back/STIM_010.jpg	99
1228.758	0.623	622.7	0back	Block2	0back/STIM_010.jpg	100
1231.745	0.455	454.6	0back	Block2	0back/STIM_011.jpg	99
1235.05	0.527	527.2	0back	Block2	0back/STIM_011.jpg	99
1238.027	0.455	455.4	0back	Block2	0back/STIM_011.jpg	99
1240.671	0.377	376.7	0back	Block2	0back/STIM_012.jpg	99
1243.583	0.524	524.3	0back	Block2	0back/STIM_012.jpg	100
1246.347	0.731	730.9	0back	Block2	0back/STIM_012.jpg	100
1250.051	0.554	553.8	0back	Block2	0back/STIM_013.jpg	99
1253.099	0.389	389.0	0back	Block2	0back/STIM_013.jpg	100
1255.727	0.596	595.6	0back	Block2	0back/STIM_013.jpg	100
1259.951	0.526	525.5	0back	Block2	0back/STIM_014.jpg	100
1263.604	0.72	720.4	0back	Block2	0back/STIM_014.jpg	99
1268.017	0.728	727.8	0back	Block2	0back/STIM_014.jpg	99
1270.975	0.51	510.5	0back	Block2	0back/STIM_015.jpg	100
1273.814	0.702	702.3	0back	Block2	0back/STIM_015.jpg	100
1277.426	0.476	475.6	0back	Block2	0back/STIM_015.jpg	100
1280.52	0.667	666.6	0back	Block2	0back/STIM_016.jpg	100
1284.881	0.487	486.6	0back	Block2	0back/STIM_016.jpg	100
1287.82	0.383	383.0	0back	Block2	0back/STIM_016.jpg	100
1291.044	0.416	415.6	0back	Block2	0back/STIM_017.jpg	99
1295.16	0.423	423.2	0back	Block2	0back/STIM_017.jpg	99
1299.411	0.577	577.4	0back	Block2	0back/STIM_017.jpg	99
1303.272	0.467	466.8	0back	Block2	0back/STIM_018.jpg	99
1306.303	0.714	714.0	0back	Block2	0back/STIM_018.jpg	100
1310.776	0.492	491.7	0back	Block2	0back/STIM_018.jpg	100
1313.425	0.639	638.6	0back	Block2	0back/STIM_019.jpg	100
1316.64	0.416	416.2	0back	Block2	0back/STIM_019.jpg	100
1320.736	0.718	718.2	0back	Block2	0back/STIM_019.jpg	100
1324.05	0.473	472.7	2back	Block3	2back/STIM_000.jpg	100
1327.386	0.603	603.3	2back	Block3	2back/STIM_000.jpg	99
1330.18	0.731	730.6	2back	Block3	2back/STIM_000.jpg	99
1333.652	0.582	581.5	2back	Block3	2back/STIM_001.jpg	99
1337.873	0.805	804.9	2back	Block3	2back/STIM_001.jpg	100
1340.943	0.659	659.0	2back	Block3	2back/STIM_001.jpg	99
1344.666	0.459	458.9	2back	Block3	2back/STIM_002.jpg	100
1347.779	0.424	424.1	2back	Block3	2back/STIM_002.jpg	99
1350.208	0.682	681.8	2back	Block3	2back/STIM_002.jpg	99
1354.629	0.685	685.2	2back	Block3	2back/STIM_003.jpg	100
1358.522	0.445	444.9	2back	Block3	2back/STIM_003.jpg	100
1361.632	0.512	512.3	2back	Block3	2back/STIM_003.jpg	100
1365.673	0.791	791.4	2back	Block3	2back/STIM_004.jpg	99
1369.008	0.653	652.8	2back	Block3	2back/STIM_004.jpg	99
1373.363	0.876	875.6	2back	Block3	2back/STIM_004.jpg	99
1377.296	0.847	847.3	2back	Block3	2back/STIM_005.jpg	100
1381.475	0.878	877.7	2back	Block3	2back/STIM_005.jpg	99
1384.407	0.755	754.8	2back	Block3	2back/STIM_005.jpg	100
1388.34	0.743	743.3	2back	Block3	2back/STIM_006.jpg	99
1392.792	0.406	406.5	2back	Block3	2back/STIM_006.jpg	100
1395.771	0.766	765.6	2back	Block3	2back/STIM_006.jpg	100
1399.981	0.702	701.7	2back	Block3	2back/STIM_007.jpg	99
1402.997	0.812	811.7	2back	Block3	2back/STIM_007.jpg	99
1405.967	0.471	470.6	2back	Block3	2back/STIM_007.jpg	100
1408.659	0.653	652.9	2back	Block3	2back/STIM_008.jpg	100
1411.695	0.842	841.8	2back	Block3	2back/STIM_008.jpg	100
1414.628	0.449	449.3	2back	Block3	2back/STIM_008.jpg	100
1418.165	0.523	522.8	2back	Block3	2back/STIM_009.jpg	100
1420.983	0.841	840.8	2back	Block3	2back/STIM_009.jpg	100
1425.747	0.498	497.7	2back	Block3	2back/STIM_009.jpg	99
1429.477	0.795	795.3	2back	Block3	2back/STIM_010.jpg	100
1432.811	0.694	693.5	2back	Block3	2back/STIM_010.jpg	100
1436.231	0.411	410.6	2back	Block3	2back/STIM_010.jpg	99
1439.454	0.676	676.2	2back	Block3	2back/STIM_011.jpg	99
1442.432	0.534	534.0	2back	Block3	2back/STIM_011.jpg	99
1445.858	0.747	747.2	2back	Block3	2back/STIM_011.jpg	100
1450.42	0.826	825.8	2back	Block3	2back/STIM_012.jpg	100
1454.213	0.587	586.7	2back	Block3	2back/STIM_012.jpg	100
1458.387	0.636	636.3	2back	Block3	2back/STIM_012.jpg	100
1461.981	0.792	792.3	2back	Block3	2back/STIM_013.jpg	100
1466.03	0.78	779.9	2back	Block3	2back/STIM_013.jpg	99
1469.572	0.691	691.1	2back	Block3	2back/STIM_013.jpg	100
1474.241	0.483	482.8	2back	Block3	2back/STIM_014.jpg	99
1477.072	0.894	893.7	2back	Block3	2back/STIM_014.jpg	100
1481.229	0.835	835.2	2back	Block3	2back/STIM_014.jpg	100
1484.817	0.44	440.2	2back	Block3	2back/STIM_015.jpg	100
1488.194	0.589	588.7	2back	Block3	2back/STIM_015.jpg	100
1491.876	0.836	836.0	2back	Block3	2back/STIM_015.jpg	99
1496.349	0.83	829.6	2back	Block3	2back/STIM_016.jpg	100
1500.131	0.763	763.1	2back	Block3	2back/STIM_016.jpg	100
1504.581	0.501	500.6	2back	Block3	2back/STIM_016.jpg	100
1508.981	0.621	621.1	2back	Block3	2back/STIM_017.jpg	100
1512.534	0.805	805.1	2back	Block3	2back/STIM_017.jpg	99
1515.812	0.599	599.1	2back	Block3	2back/STIM_017.jpg	100
1518.832	0.402	402.3	2back	Block3	2back/STIM_018.jpg	100
1521.915	0.729	728.9	2back	Block3	2back/STIM_018.jpg	99
1526.123	0.826	826.5	2back	Block3	2back/STIM_018.jpg	99
1530.332	0.398	398.5	2back	Block3	2back/STIM_019.jpg	100
1532.865	0.447	447.0	2back	Block3	2back/STIM_019.jpg	99
1535.998	0.401	401.3	2back	Block3	2back/STIM_019.jpg	99
1539.025	0.652	651.7	2back	Block3	2back/STIM_020.jpg	99
1542.096	0.861	860.8	2back	Block3	2back/STIM_020.jpg	100
1546.898	0.458	458.3	2back	Block3	2back/STIM_020.jpg	99
1550.373	0.583	583.4	2back	Block3	2back/STIM_021.jpg	99
1553.884	0.724	724.5	2back	Block3	2back/STIM_021.jpg	99
1558.347	0.558	557.5	2back	Block3	2back/STIM_021.jpg	100
1562.291	0.696	695.5	2back	Block3	2back/STIM_022.jpg	100
1565.063	0.868	868.4	2back	Block3	2back/STIM_022.jpg	99
1569.919	0.504	504.1	2back	Block3	2back/STIM_022.jpg	100
1573.503	0.775	775.2	2back	Block3	2back/STIM_023.jpg	100
1577.929	0.683	683.0	2back	Block3	2back/STIM_023.jpg	100
1582.535	0.441	441.2	2back	Block3	2back/STIM_023.jpg	99
1585.323	0.538	538.5	2back	Block3	2back/STIM_024.jpg	99
1589.61	0.812	812.2	2back	Block3	2back/STIM_024.jpg	100
1594.409	0.43	430.1	2back	Block3	2back/STIM_024.jpg	100
1597.845	0.771	770.6	2back	Block3	2back/STIM_025.jpg	100
1601.96	0.453	453.2	2back	Block3	2back/STIM_025.jpg	100
1605.7	0.493	492.8	2back	Block3	2back/STIM_025.jpg	99
1608.796	0.648	648.0	2back	Block3	2back/STIM_026.jpg	99
1612.206	0.74	739.6	2back	Block3	2back/STIM_026.jpg	100
1616.832	0.733	733.1	2back	Block3	2back/STIM_026.jpg	99
1620.354	0.624	623.8	2back	Block3	2back/STIM_027.jpg	100
1623.17	0.618	618.1	2back	Block3	2back/STIM_027.jpg	99
1627.405	0.623	623.2	2back	Block3	2back/STIM_027.jpg	99
1630.937	0.786	786.3	2back	Block3	2back/STIM_028.jpg	99
1635.247	0.783	782.9	2back	Block3	2back/STIM_028.jpg	100
1638.639	0.861	860.9	2back	Block3	2back/STIM_028.jpg	100
1642.582	0.744	744.2	2back	Block3	2back/STIM_029.jpg	99
1646.816	0.74	740.4	2back	Block3	2back/STIM_029.jpg	100
1650.01	0.539	539.3	2back	Block3	2back/STIM_029.jpg	100
1654.317	0.417	417.4	2back	Block3	2back/STIM_030.jpg	100
1658.269	0.791	790.7	2back	Block3	2back/STIM_030.jpg	100
1662.367	0.542	542.0	2back	Block3	2back/STIM_030.jpg	100
1666.75	0.475	474.8	2back	Block3	2back/STIM_031.jpg	99
1670.286	0.894	893.9	2back	Block3	2back/STIM_031.jpg	100
1673.417	0.541	541.0	2back	Block3	2back/STIM_031.jpg	100
1677.622	0.636	636.1	2back	Block3	2back/STIM_032.jpg	100
1680.761	0.832	831.7	2back	Block3	2back/STIM_032.jpg	100
1685.293	0.523	523.1	2back	Block3	2back/STIM_032.jpg	100
1688.084	0.762	762.1	2back	Block3	2back/STIM_033.jpg	99
1691.531	0.53	529.6	2back	Block3	2back/STIM_033.jpg	100
1694.183	0.399	398.8	2back	Block3	2back/STIM_033.jpg	99
1697.718	0.417	417.3	2back	Block3	2back/STIM_034.jpg	100
1700.491	0.576	575.5	2back	Block3	2back/STIM_034.jpg	100
1704.201	0.859	859.4	2back	Block3	2back/STIM_034.jpg	100
1707.789	0.666	665.9	2back	Block3	2back/STIM_035.jpg	99
1712.455	0.848	848.0	2back	Block3	2back/STIM_035.jpg	100
1715.982	0.566	565.7	2back	Block3	2back/STIM_035.jpg	99
1719.761	0.421	421.0	2back	Block3	2back/STIM_036.jpg	100
1722.822	0.477	477.0	2back	Block3	2back/STIM_036.jpg	100
1725.49	0.768	767.7	2back	Block3	2back/STIM_036.jpg	99
1729.004	0.634	634.5	2back	Block3	2back/STIM_037.jpg	99
1731.828	0.559	559.2	2back	Block3	2back/STIM_037.jpg	100
1736.328	0.878	878.0	2back	Block3	2back/STIM_037.jpg	100
1739.961	0.614	614.5	2back	Block3	2back/STIM_038.jpg	99
1743.747	0.696	696.1	2back	Block3	2back/STIM_038.jpg	100
1747.17	0.673	672.9	2back	Block3	2back/STIM_038.jpg	100
1749.899	0.749	749.3	2back	Block3	2back/STIM_039.jpg	100
1754.493	0.509	509.1	2back	Block3	2back/STIM_039.jpg	100
1757.349	0.762	762.5	2back	Block3	2back/STIM_039.jpg	100
1761.134	0.624	623.6	0back	Block3	0back/STIM_000.jpg	99
1764.438	0.466	465.6	0back	Block3	0back/STIM_000.jpg	99
1767.183	0.505	504.6	0back	Block3	0back/STIM_000.jpg	99
1771.084	0.708	707.9	0back	Block3	0back/STIM_001.jpg	100
1774.087	0.586	586.5	0back	Block3	0back/STIM_001.jpg	100
1777.545	0.394	393.9	0back	Block3	0back/STIM_001.jpg	100
1781.89	0.586	586.0	0back	Block3	0back/STIM_002.jpg	99
1786.019	0.481	481.4	0back	Block3	0back/STIM_002.jpg	100
1790.284	0.63	629.7	0back	Block3	0back/STIM_002.jpg	99
1794.656	0.398	398.0	0back	Block3	0back/STIM_003.jpg	100
1798.179	0.565	565.0	0back	Block3	0back/STIM_003.jpg	100
1801.755	0.531	531.2	0back	Block3	0back/STIM_003.jpg	100
1804.69	0.642	642.1	0back	Block3	0back/STIM_004.jpg	99
1807.428	0.637	636.6	0back	Block3	0back/STIM_004.jpg	100
1811.87	0.645	645.1	0back	Block3	0back/STIM_004.jpg	100
1814.895	0.405	405.3	0back	Block3	0back/STIM_005.jpg	100
1818.041	0.704	704.2	0back	Block3	0back/STIM_005.jpg	100
1820.835	0.717	716.6	0back	Block3	0back/STIM_005.jpg	99
1825.027	0.66	659.6	0back	Block3	0back/STIM_006.jpg	99
1828.679	0.444	444.5	0back	Block3	0back/STIM_006.jpg	99
1832.854	0.492	491.6	0back	Block3	0back/STIM_006.jpg	99
1837.014	0.366	366.4	0back	Block3	0back/STIM_007.jpg	100
1840.201	0.403	403.3	0back	Block3	0back/STIM_007.jpg	100
1842.817	0.628	627.9	0back	Block3	0back/STIM_007.jpg	100
1845.903	0.63	629.5	0back	Block3	0back/STIM_008.jpg	99
1848.867	0.633	633.3	0back	Block3	0back/STIM_008.jpg	100
1853.435	0.379	379.4	0back	Block3	0back/STIM_008.jpg	99
1856.163	0.388	388.4	0back	Block3	0back/STIM_009.jpg	99
1859.525	0.608	607.9	0back	Block3	0back/STIM_009.jpg	99
1862.619	0.515	514.8	0back	Block3	0back/STIM_009.jpg	99
1866.929	0.616	616.1	0back	Block3	0back/STIM_010.jpg	100
1869.753	0.384	383.5	0back	Block3	0back/STIM_010.jpg	100
1873.743	0.664	663.6	0back	Block3	0back/STIM_010.jpg	100
1877.989	0.722	722.4	0back	Block3	0back/STIM_011.jpg	99
1881.135	0.59	590.2	0back	Block3	0back/STIM_011.jpg	100
1884.98	0.667	666.6	0back	Block3	0back/STIM_011.jpg	100
1888.281	0.399	398.6	0back	Block3	0back/STIM_012.jpg	100
1891.645	0.687	687.4	0back	Block3	0back/STIM_012.jpg	99
1895.815	0.679	679.1	0back	Block3	0back/STIM_012.jpg	100
1899.001	0.475	475.0	0back	Block3	0back/STIM_013.jpg	100
1903.358	0.697	697.0	0back	Block3	0back/STIM_013.jpg	99
1906.574	0.484	484.5	0back	Block3	0back/STIM_013.jpg	99
1910.795	0.425	425.4	0back	Block3	0back/STIM_014.jpg	99
1913.309	0.42	419.9	0back	Block3	0back/STIM_014.jpg	100
1915.805	0.561	561.0	0back	Block3	0back/STIM_014.jpg	99
1919.966	0.656	655.6	0back	Block3	0back/STIM_015.jpg	99
1923.097	0.724	723.6	0back	Block3	0back/STIM_015.jpg	100
1926.661	0.681	680.8	0back	Block3	0back/STIM_015.jpg	100
1930.541	0.425	425.3	0back	Block3	0back/STIM_016.jpg	100
1933.001	0.607	606.7	0back	Block3	0back/STIM_016.jpg	100
1936.987	0.418	417.6	0back	Block3	0back/STIM_016.jpg	100
1940.541	0.678	678.0	0back	Block3	0back/STIM_017.jpg	100
1943.527	0.457	456.8	0back	Block3	0back/STIM_017.jpg	99
1946.809	0.571	570.8	0back	Block3	0back/STIM_017.jpg	99
1950.842	0.464	464.1	0back	Block3	0back/STIM_018.jpg	99
1954.966	0.721	721.4	0back	Block3	0back/STIM_018.jpg	100
1957.937	0.492	492.1	0back	Block3	0back/STIM_018.jpg	99
1962.149	0.467	467.3	0back	Block3	0back/STIM_019.jpg	100
1965.527	0.377	377.1	0back	Block3	0back/STIM_019.jpg	99
1968.322	0.669	668.8	0back	Block3	0back/STIM_019.jpg	99
1972.804	0.808	807.8	2back	Block4	2back/STIM_000.jpg	99
1976.553	0.451	451.3	2back	Block4	2back/STIM_000.jpg	100
1980.189	0.518	518.5	2back	Block4	2back/STIM_000.jpg	99
1983.591	0.449	448.8	2back	Block4	2back/STIM_001.jpg	99
1986.234	0.509	508.7	2back	Block4	2back/STIM_001.jpg	100
1988.974	0.737	737.2	2back	Block4	2back/STIM_001.jpg	100
1993.049	0.43	429.8	2back	Block4	2back/STIM_002.jpg	99
1996.909	0.432	431.7	2back	Block4	2back/STIM_002.jpg	99
2000.561	0.526	526.4	2back	Block4	2back/STIM_002.jpg	100
2004.692	0.57	570.5	2back	Block4	2back/STIM_003.jpg	100
2007.816	0.876	876.4	2back	Block4	2back/STIM_003.jpg	99
2011.088	0.718	718.3	2back	Block4	2back/STIM_003.jpg	99
2014.687	0.751	750.8	2back	Block4	2back/STIM_004.jpg	100
2018.659	0.527	526.9	2back	Block4	2back/STIM_004.jpg	100
2022.328	0.497	496.8	2back	Block4	2back/STIM_004.jpg	99
2025.833	0.705	704.6	2back	Block4	2back/STIM_005.jpg	100
2030.512	0.834	834.0	2back	Block4	2back/STIM_005.jpg	100
2034.174	0.653	652.7	2back	Block4	2back/STIM_005.jpg	100
2038.556	0.65	649.9	2back	Block4	2back/STIM_006.jpg	100
2042.962	0.786	786.3	2back	Block4	2back/STIM_006.jpg	100
2046.44	0.594	594.3	2back	Block4	2back/STIM_006.jpg	99
2050.737	0.815	815.0	2back	Block4	2back/STIM_007.jpg	100
2054.015	0.485	485.0	2back	Block4	2back/STIM_007.jpg	99
2056.794	0.637	637.0	2back	Block4	2back/STIM_007.jpg	99
2060.802	0.493	492.8	2back	Block4	2back/STIM_008.jpg	100
2063.728	0.713	713.2	2back	Block4	2back/STIM_008.jpg	99
2068.426	0.589	588.7	2back	Block4	2back/STIM_008.jpg	100
2072.624	0.811	810.6	2back	Block4	2back/STIM_009.jpg	100
2076.45	0.602	602.4	2back	Block4	2back/STIM_009.jpg	99
2080.387	0.881	880.9	2back	Block4	2back/STIM_009.jpg	100
2084.908	0.891	891.3	2back	Block4	2back/STIM_010.jpg	99
2088.523	0.74	740.0	2back	Block4	2back/STIM_010.jpg	100
2093.235	0.56	560.3	2back	Block4	2back/STIM_010.jpg	100
2097.686	0.67	670.0	2back	Block4	2back/STIM_011.jpg	100
2101.981	0.641	640.8	2back	Block4	2back/STIM_011.jpg	99
2106.509	0.686	686.1	2back	Block4	2back/STIM_011.jpg	100
2110.552	0.752	752.3	2back	Block4	2back/STIM_012.jpg	99
2113.768	0.614	613.5	2back	Block4	2back/STIM_012.jpg	99
2117.604	0.393	393.1	2back	Block4	2back/STIM_012.jpg	100
2121.133	0.662	662.1	2back	Block4	2back/STIM_013.jpg	99
2125.08	0.876	875.8	2back	Block4	2back/STIM_013.jpg	100
2128.44	0.443	442.6	2back	Block4	2back/STIM_013.jpg	100
2130.948	0.458	457.9	2back	Block4	2back/STIM_014.jpg	99
2133.541	0.74	740.0	2back	Block4	2back/STIM_014.jpg	100
2136.399	0.74	739.7	2back	Block4	2back/STIM_014.jpg	99
2140.961	0.678	678.2	2back	Block4	2back/STIM_015.jpg	99
2145.566	0.735	735.2	2back	Block4	2back/STIM_015.jpg	100
2148.983	0.624	623.8	2back	Block4	2back/STIM_015.jpg	99
2152.446	0.425	424.7	2back	Block4	2back/STIM_016.jpg	99
2155.267	0.391	390.6	2back	Block4	2back/STIM_016.jpg	99
2159.127	0.838	838.3	2back	Block4	2back/STIM_016.jpg	100
2162.175	0.678	678.1	2back	Block4	2back/STIM_017.jpg	100
2166.816	0.624	624.1	2back	Block4	2back/STIM_017.jpg	99
2170.435	0.594	594.1	2back	Block4	2back/STIM_017.jpg	99
2173.411	0.687	686.6	2back	Block4	2back/STIM_018.jpg	99
2177.259	0.689	689.1	2back	Block4	2back/STIM_018.jpg	99
2181.441	0.861	860.6	2back	Block4	2back/STIM_018.jpg	99
2184.38	0.641	640.7	2back	Block4	2back/STIM_019.jpg	100
2188.474	0.721	720.8	2back	Block4	2back/STIM_019.jpg	100
2192.065	0.699	699.2	2back	Block4	2back/STIM_019.jpg	100
2196.147	0.596	595.8	2back	Block4	2back/STIM_020.jpg	100
2199.953	0.662	662.3	2back	Block4	2back/STIM_020.jpg	99
2202.692	0.881	881.3	2back	Block4	2back/STIM_020.jpg	100
2207.249	0.445	445.4	2back	Block4	2back/STIM_021.jpg	100
2209.787	0.543	543.3	2back	Block4	2back/STIM_021.jpg	99
2213.787	0.639	639.0	2back	Block4	2back/STIM_021.jpg	99
2217.637	0.43	429.8	2back	Block4	2back/STIM_022.jpg	100
2222.007	0.648	647.8	2back	Block4	2back/STIM_022.jpg	100
2226.003	0.722	721.8	2back	Block4	2back/STIM_022.jpg	99
2230.374	0.604	604.1	2back	Block4	2back/STIM_023.jpg	100
2233.481	0.821	821.1	2back	Block4	2back/STIM_023.jpg	100
2236.716	0.873	872.8	2back	Block4	2back/STIM_023.jpg	99
2240.001	0.816	815.9	2back	Block4	2back/STIM_024.jpg	100
2243.244	0.487	486.9	2back	Block4	2back/STIM_024.jpg	100
2246.625	0.482	482.1	2back	Block4	2back/STIM_024.jpg	99
2250.079	0.499	498.7	2back	Block4	2back/STIM_025.jpg	100
2252.825	0.744	743.8	2back	Block4	2back/STIM_025.jpg	100
2256.66	0.6	600.5	2back	Block4	2back/STIM_025.jpg	99
2260.125	0.894	894.1	2back	Block4	2back/STIM_026.jpg	100
2263.321	0.402	401.7	2back	Block4	2back/STIM_026.jpg	99
2265.978	0.398	398.0	2back	Block4	2back/STIM_026.jpg	100
2268.72	0.608	608.4	2back	Block4	2back/STIM_027.jpg	99
2272.466	0.576	575.6	2back	Block4	2back/STIM_027.jpg	99
2276.201	0.451	451.4	2back	Block4	2back/STIM_027.jpg	99
2280.019	0.714	713.9	2back	Block4	2back/STIM_028.jpg	100
2283.283	0.823	823.3	2back	Block4	2back/STIM_028.jpg	99
2287.114	0.732	732.0	2back	Block4	2back/STIM_028.jpg	100
2291.715	0.517	516.7	2back	Block4	2back/STIM_029.jpg	99
2294.67	0.816	816.2	2back	Block4	2back/STIM_029.jpg	99
2297.533	0.841	840.7	2back	Block4	2back/STIM_029.jpg	99
2302.058	0.662	662.1	2back	Block4	2back/STIM_030.jpg	99
2306.523	0.7	699.9	2back	Block4	2back/STIM_030.jpg	99
2310.991	0.792	791.6	2back	Block4	2back/STIM_030.jpg	100
2314.588	0.691	690.9	2back	Block4	2back/STIM_031.jpg	99
2318.318	0.431	431.2	2back	Block4	2back/STIM_031.jpg	99
2321.589	0.651	651.1	2back	Block4	2back/STIM_031.jpg	100
2324.851	0.698	698.1	2back	Block4	2back/STIM_032.jpg	99
2329.226	0.524	523.9	2back	Block4	2back/STIM_032.jpg	100
2333.068	0.802	801.9	2back	Block4	2back/STIM_032.jpg	100
2337.183	0.452	451.9	2back	Block4	2back/STIM_033.jpg	100
2340.306	0.825	825.4	2back	Block4	2back/STIM_033.jpg	100
2343.259	0.446	446.2	2back	Block4	2back/STIM_033.jpg	100
2347.535	0.83	829.5	2back	Block4	2back/STIM_034.jpg	100
2351.148	0.606	605.5	2back	Block4	2back/STIM_034.jpg	99
2354.894	0.577	577.4	2back	Block4	2back/STIM_034.jpg	100
2357.874	0.814	813.5	2back	Block4	2back/STIM_035.jpg	100
2361.995	0.685	685.2	2back	Block4	2back/STIM_035.jpg	99
2366.624	0.57	570.0	2back	Block4	2back/STIM_035.jpg	100
2369.936	0.53	529.9	2back	Block4	2back/STIM_036.jpg	99
2373.721	0.412	411.5	2back	Block4	2back/STIM_036.jpg	99
2377.032	0.659	659.4	2back	Block4	2back/STIM_036.jpg	100
2380.352	0.774	774.4	2back	Block4	2back/STIM_037.jpg	100
2384.679	0.406	405.7	2back	Block4	2back/STIM_037.jpg	100
2388.985	0.484	483.8	2back	Block4	2back/STIM_037.jpg	99
2392.962	0.554	554.3	2back	Block4	2back/STIM_038.jpg	99
2396.773	0.423	423.0	2back	Block4	2back/STIM_038.jpg	99
2399.454	0.874	873.5	2back	Block4	2back/STIM_038.jpg	100
2403.578	0.849	848.9	2back	Block4	2back/STIM_039.jpg	100
2406.671	0.583	583.3	2back	Block4	2back/STIM_039.jpg	100
2411.038	0.408	408.4	2back	Block4	2back/STIM_039.jpg	100
2413.977	0.688	688.3	0back	Block4	0back/STIM_000.jpg	99
2417.993	0.435	434.7	0back	Block4	0back/STIM_000.jpg	99
2421.152	0.649	648.6	0back	Block4	0back/STIM_000.jpg	99
2424.513	0.535	535.3	0back	Block4	0back/STIM_001.jpg	100
2427.932	0.726	725.7	0back	Block4	0back/STIM_001.jpg	100
2430.892	0.412	412.0	0back	Block4	0back/STIM_001.jpg	100
2433.447	0.371	371.2	0back	Block4	0back/STIM_002.jpg	99
2436.68	0.541	541.4	0back	Block4	0back/STIM_002.jpg	99
2441.165	0.475	475.4	0back	Block4	0back/STIM_002.jpg	99
2444.688	0.548	548.1	0back	Block4	0back/STIM_003.jpg	99
2447.996	0.64	639.8	0back	Block4	0back/STIM_003.jpg	99
2452.155	0.62	620.3	0back	Block4	0back/STIM_003.jpg	99
2456.273	0.479	479.3	0back	Block4	0back/STIM_004.jpg	99
2459.444	0.704	704.3	0back	Block4	0back/STIM_004.jpg	99
2463.184	0.641	640.7	0back	Block4	0back/STIM_004.jpg	99
2466.045	0.582	582.1	0back	Block4	0back/STIM_005.jpg	100
2468.917	0.703	702.6	0back	Block4	0back/STIM_005.jpg	100
2472.695	0.47	470.1	0back	Block4	0back/STIM_005.jpg	100
2476.546	0.418	417.6	0back	Block4	0back/STIM_006.jpg	100
2479.615	0.666	665.8	0back	Block4	0back/STIM_006.jpg	100
2482.758	0.615	614.8	0back	Block4	0back/STIM_006.jpg	99
2486.904	0.573	573.0	0back	Block4	0back/STIM_007.jpg	99
2490.472	0.438	437.9	0back	Block4	0back/STIM_007.jpg	99
2493.589	0.484	484.3	0back	Block4	0back/STIM_007.jpg	99
2496.085	0.42	420.4	0back	Block4	0back/STIM_008.jpg	99
2500.151	0.547	547.0	0back	Block4	0back/STIM_008.jpg	99
2504.314	0.567	567.0	0back	Block4	0back/STIM_008.jpg	99
2507.66	0.552	551.7	0back	Block4	0back/STIM_009.jpg	99
2512.205	0.649	648.9	0back	Block4	0back/STIM_009.jpg	100
2516.396	0.418	418.4	0back	Block4	0back/STIM_009.jpg	99
2519.039	0.467	466.8	0back	Block4	0back/STIM_010.jpg	99
2523.204	0.411	410.6	0back	Block4	0back/STIM_010.jpg	100
2526.299	0.431	431.1	0back	Block4	0back/STIM_010.jpg	99
2529.976	0.68	679.5	0back	Block4	0back/STIM_011.jpg	100
2533.434	0.534	533.8	0back	Block4	0back/STIM_011.jpg	99
2537.412	0.668	668.3	0back	Block4	0back/STIM_011.jpg	100
2541.772	0.682	682.2	0back	Block4	0back/STIM_012.jpg	99
2545.267	0.413	412.6	0back	Block4	0back/STIM_012.jpg	100
2548.032	0.633	632.9	0back	Block4	0back/STIM_012.jpg	100
2552.0	0.431	431.1	0back	Block4	0back/STIM_013.jpg	99
2554.86	0.4	399.7	0back	Block4	0back/STIM_013.jpg	99
2557.371	0.61	609.8	0back	Block4	0back/STIM_013.jpg	99
2561.56	0.491	490.6	0back	Block4	0back/STIM_014.jpg	99
2565.07	0.592	591.9	0back	Block4	0back/STIM_014.jpg	99
2569.237	0.478	478.0	0back	Block4	0back/STIM_014.jpg	99
2573.682	0.667	666.6	0back	Block4	0back/STIM_015.jpg	99
2576.609	0.695	695.4	0back	Block4	0back/STIM_015.jpg	100
2579.546	0.566	565.9	0back	Block4	0back/STIM_015.jpg	99
2583.261	0.393	392.7	0back	Block4	0back/STIM_016.jpg	100
2585.727	0.476	476.3	0back	Block4	0back/STIM_016.jpg	100
2590.038	0.417	417.3	0back	Block4	0back/STIM_016.jpg	99
2593.443	0.531	530.7	0back	Block4	0back/STIM_017.jpg	100
2596.618	0.61	609.9	0back	Block4	0back/STIM_017.jpg	100
2599.527	0.64	639.8	0back	Block4	0back/STIM_017.jpg	100
2602.651	0.556	556.0	0back	Block4	0back/STIM_018.jpg	99
2605.859	0.39	389.5	0back	Block4	0back/STIM_018.jpg	99
2609.241	0.611	611.0	0back	Block4	0back/STIM_018.jpg	100
2613.304	0.476	476.5	0back	Block4	0back/STIM_019.jpg	100
2616.522	0.544	543.7	0back	Block4	0back/STIM_019.jpg	99
2619.7	0.459	458.8	0back	Block4	0back/STIM_019.jpg	99
