onset	duration	response_time_ms	trial_type	learning_stage	stimulus	response_port
0.0	0.987	987.0	2back	Block1	2back/STIM_000.jpg	100
3.636	1.034	1034.1	2back	Block1	2back/STIM_000.jpg	100
8.323	0.763	762.8	2back	Block1	2back/STIM_000.jpg	100
12.778	0.808	807.6	2back	Block1	2back/STIM_001.jpg	99
17.354	1.294	1294.0	2back	Block1	2back/STIM_001.jpg	99
20.804	1.056	1055.5	2back	Block1	2back/STIM_001.jpg	100
24.478	1.363	1363.1	2back	Block1	2back/STIM_002.jpg	99
29.411	1.087	1086.7	2back	Block1	2back/STIM_002.jpg	99
32.63	1.168	1168.3	2back	Block1	2back/STIM_002.jpg	100
36.234	1.217	1216.8	2back	Block1	2back/STIM_003.jpg	100
40.068	1.402	1401.5	2back	Block1	2back/STIM_003.jpg	99
43.514	1.18	1179.5	2back	Block1	2back/STIM_003.jpg	99
46.561	0.688	688.4	2back	Block1	2back/STIM_004.jpg	100
51.106	0.866	865.7	2back	Block1	2back/STIM_004.jpg	100
54.93	1.347	1347.3	2back	Block1	2back/STIM_004.jpg	100
59.567	1.656	1656.0	2back	Block1	2back/STIM_005.jpg	99
64.382	0.766	766.3	2back	Block1	2back/STIM_005.jpg	99
67.237	0.83	829.9	2back	Block1	2back/STIM_005.jpg	99
69.951	1.077	1076.8	2back	Block1	2back/STIM_006.jpg	100
73.11	1.309	1308.9	2back	Block1	2back/STIM_006.jpg	100
76.734	1.254	1254.5	2back	Block1	2back/STIM_006.jpg	99
80.812	1.553	1552.6	2back	Block1	2back/STIM_007.jpg	99
85.19	1.31	1310.5	2back	Block1	2back/STIM_007.jpg	100
88.768	0.693	693.3	2back	Block1	2back/STIM_007.jpg	100
92.694	1.206	1205.5	2back	Block1	2back/STIM_008.jpg	100
96.028	0.849	849.3	2back	Block1	2back/STIM_008.jpg	100
99.525	0.679	679.4	2back	Block1	2back/STIM_008.jpg	100
103.33	1.256	1255.5	2back	Block1	2back/STIM_009.jpg	100
106.699	1.48	1479.9	2back	Block1	2back/STIM_009.jpg	100
110.682	0.701	700.6	2back	Block1	2back/STIM_009.jpg	99
114.71	1.017	1017.4	2back	Block1	2back/STIM_010.jpg	99
119.557	0.981	981.0	2back	Block1	2back/STIM_010.jpg	99
123.143	1.12	1120.0	2back	Block1	2back/STIM_010.jpg	100
126.455	1.416	1415.7	2back	Block1	2back/STIM_011.jpg	100
131.601	0.961	961.4	2back	Block1	2back/STIM_011.jpg	99
136.288	1.431	1430.7	2back	Block1	2back/STIM_011.jpg	99
141.285	1.456	1455.7	2back	Block1	2back/STIM_012.jpg	100
145.137	1.032	1031.6	2back	Block1	2back/STIM_012.jpg	99
148.41	0.946	945.6	2back	Block1	2back/STIM_012.jpg	100
151.614	1.351	1350.8	2back	Block1	2back/STIM_013.jpg	100
156.249	0.709	709.2	2back	Block1	2back/STIM_013.jpg	99
160.744	1.402	1402.4	2back	Block1	2back/STIM_013.jpg	99
165.665	1.526	1526.3	2back	Block1	2back/STIM_014.jpg	99
170.75	1.009	1008.9	2back	Block1	2back/STIM_014.jpg	100
174.681	0.752	751.8	2back	Block1	2back/STIM_014.jpg	99
178.682	1.353	1353.3	2back	Block1	2back/STIM_015.jpg	100
182.2	1.398	1398.1	2back	Block1	2back/STIM_015.jpg	99
186.676	1.461	1461.0	2back	Block1	2back/STIM_015.jpg	100
190.653	0.865	864.9	2back	Block1	2back/STIM_016.jpg	100
193.932	1.324	1323.6	2back	Block1	2back/STIM_016.jpg	100
198.053	1.319	1319.1	2back	Block1	2back/STIM_016.jpg	99
201.614	1.017	1016.8	2back	Block1	2back/STIM_017.jpg	99
204.64	1.428	1428.0	2back	Block1	2back/STIM_017.jpg	100
208.698	0.826	826.0	2back	Block1	2back/STIM_017.jpg	99
211.43	1.115	1114.9	2back	Block1	2back/STIM_018.jpg	99
214.564	0.947	947.2	2back	Block1	2back/STIM_018.jpg	100
219.312	1.436	1436.0	2back	Block1	2back/STIM_018.jpg	100
223.293	1.271	1271.2	2back	Block1	2back/STIM_019.jpg	99
227.358	0.703	703.0	2back	Block1	2back/STIM_019.jpg	99
230.098	0.901	901.0	2back	Block1	2back/STIM_019.jpg	99
233.694	0.868	868.1	2back	Block1	2back/STIM_020.jpg	99
236.485	1.231	1230.8	2back	Block1	2back/STIM_020.jpg	100
241.483	0.772	772.4	2back	Block1	2back/STIM_020.jpg	99
244.627	0.717	717.3	2back	Block1	2back/STIM_021.jpg	100
249.075	0.72	720.0	2back	Block1	2back/STIM_021.jpg	99
251.729	0.962	962.0	2back	Block1	2back/STIM_021.jpg	99
256.041	1.286	1286.0	2back	Block1	2back/STIM_022.jpg	99
260.17	0.775	774.6	2back	Block1	2back/STIM_022.jpg	99
263.099	1.307	1306.7	2back	Block1	2back/STIM_022.jpg	100
267.765	0.948	948.0	2back	Block1	2back/STIM_023.jpg	100
272.377	0.794	793.6	2back	Block1	2back/STIM_023.jpg	99
275.728	0.83	829.9	2back	Block1	2back/STIM_023.jpg	99
279.087	1.494	1493.7	2back	Block1	2back/STIM_024.jpg	99
283.971	0.743	743.2	2back	Block1	2back/STIM_024.jpg	99
288.599	0.723	723.1	2back	Block1	2back/STIM_024.jpg	99
291.913	1.559	1559.3	2back	Block1	2back/STIM_025.jpg	100
296.676	1.516	1515.8	2back	Block1	2back/STIM_025.jpg	99
300.321	1.107	1107.3	2back	Block1	2back/STIM_025.jpg	99
304.722	1.143	1142.8	2back	Block1	2back/STIM_026.jpg	100
308.288	0.83	830.4	2back	Block1	2back/STIM_026.jpg	100
311.496	0.783	783.0	2back	Block1	2back/STIM_026.jpg	100
316.2	0.886	885.7	2back	Block1	2back/STIM_027.jpg	100
320.866	1.496	1495.5	2back	Block1	2back/STIM_027.jpg	100
325.247	0.688	688.5	2back	Block1	2back/STIM_027.jpg	99
328.571	0.645	644.7	2back	Block1	2back/STIM_028.jpg	100
332.133	0.974	973.7	2back	Block1	2back/STIM_028.jpg	99
336.368	1.032	1031.8	2back	Block1	2back/STIM_028.jpg	99
340.143	1.386	1386.3	2back	Block1	2back/STIM_029.jpg	99
344.359	1.437	1437.0	2back	Block1	2back/STIM_029.jpg	99
348.754	0.914	914.5	2back	Block1	2back/STIM_029.jpg	99
352.336	1.295	1295.2	2back	Block1	2back/STIM_030.jpg	100
356.609	1.007	1007.4	2back	Block1	2back/STIM_030.jpg	99
359.834	0.954	953.5	2back	Block1	2back/STIM_030.jpg	100
362.824	1.517	1516.8	2back	Block1	2back/STIM_031.jpg	99
366.964	1.2	1200.3	2back	Block1	2back/STIM_031.jpg	100
370.869	0.783	783.4	2back	Block1	2back/STIM_031.jpg	99
375.339	1.26	1259.5	2back	Block1	2back/STIM_032.jpg	100
379.348	1.515	1514.8	2back	Block1	2back/STIM_032.jpg	99
384.239	0.816	816.5	2back	Block1	2back/STIM_032.jpg	99
388.451	1.146	1146.0	2back	Block1	2back/STIM_033.jpg	100
393.232	1.194	1194.0	2back	Block1	2back/STIM_033.jpg	99
396.842	0.88	880.1	2back	Block1	2back/STIM_033.jpg	100
400.423	1.268	1267.5	2back	Block1	2back/STIM_034.jpg	100
404.784	1.292	1291.8	2back	Block1	2back/STIM_034.jpg	99
409.556	0.762	762.0	2back	Block1	2back/STIM_034.jpg	100
413.162	1.084	1083.7	2back	Block1	2back/STIM_035.jpg	99
416.457	1.367	1366.9	2back	Block1	2back/STIM_035.jpg	99
420.42	1.337	1337.1	2back	Block1	2back/STIM_035.jpg	100
424.678	1.454	1454.5	2back	Block1	2back/STIM_036.jpg	100
427.949	1.56	1559.6	2back	Block1	2back/STIM_036.jpg	99
432.438	1.272	1272.5	2back	Block1	2back/STIM_036.jpg	99
437.414	1.472	1471.6	2back	Block1	2back/STIM_037.jpg	99
442.119	0.729	728.7	2back	Block1	2back/STIM_037.jpg	99
445.419	1.347	1347.4	2back	Block1	2back/STIM_037.jpg	100
450.229	1.165	1165.0	2back	Block1	2back/STIM_038.jpg	100
454.421	1.437	1437.1	2back	Block1	2back/STIM_038.jpg	100
459.218	0.801	801.0	2back	Block1	2back/STIM_038.jpg	100
463.665	1.499	1498.9	2back	Block1	2back/STIM_039.jpg	99
468.907	1.104	1104.0	2back	Block1	2back/STIM_039.jpg	100
472.187	0.699	698.6	2back	Block1	2back/STIM_039.jpg	100
474.86	0.65	650.3	0back	Block1	0back/STIM_000.jpg	100
479.281	0.443	442.9	0back	Block1	0back/STIM_000.jpg	99
481.966	0.751	750.9	0back	Block1	0back/STIM_000.jpg	99
486.441	0.626	625.6	0back	Block1	0back/STIM_001.jpg	100
490.208	0.541	541.1	0back	Block1	0back/STIM_001.jpg	100
493.348	0.81	809.6	0back	Block1	0back/STIM_001.jpg	100
497.144	0.604	603.6	0back	Block1	0back/STIM_002.jpg	99
500.172	0.576	575.5	0back	Block1	0back/STIM_002.jpg	100
503.288	0.819	818.9	0back	Block1	0back/STIM_002.jpg	100
507.968	0.826	825.9	0back	Block1	0back/STIM_003.jpg	99
512.25	0.597	597.2	0back	Block1	0back/STIM_003.jpg	100
516.674	0.475	475.3	0back	Block1	0back/STIM_003.jpg	99
519.209	0.771	770.6	0back	Block1	0back/STIM_004.jpg	99
522.582	0.547	546.8	0back	Block1	0back/STIM_004.jpg	99
526.945	0.912	912.5	0back	Block1	0back/STIM_004.jpg	100
531.467	0.755	754.8	0back	Block1	0back/STIM_005.jpg	100
534.79	0.717	716.6	0back	Block1	0back/STIM_005.jpg	99
538.721	0.745	745.3	0back	Block1	0back/STIM_005.jpg	100
543.337	0.966	966.0	0back	Block1	0back/STIM_006.jpg	99
547.811	0.694	694.5	0back	Block1	0back/STIM_006.jpg	100
552.086	0.528	527.9	0back	Block1	0back/STIM_006.jpg	99
556.147	0.435	434.7	0back	Block1	0back/STIM_007.jpg	100
559.217	0.81	810.5	0back	Block1	0back/STIM_007.jpg	100
562.331	0.522	522.5	0back	Block1	0back/STIM_007.jpg	100
566.67	0.459	459.4	0back	Block1	0back/STIM_008.jpg	100
569.955	0.891	891.1	0back	Block1	0back/STIM_008.jpg	100
573.983	0.871	871.4	0back	Block1	0back/STIM_008.jpg	100
576.91	0.95	950.5	0back	Block1	0back/STIM_009.jpg	99
579.721	0.582	582.3	0back	Block1	0back/STIM_009.jpg	99
582.878	0.618	617.9	0back	Block1	0back/STIM_009.jpg	100
586.378	0.877	876.9	0back	Block1	0back/STIM_010.jpg	99
590.84	0.509	509.5	0back	Block1	0back/STIM_010.jpg	100
593.591	0.672	672.3	0back	Block1	0back/STIM_010.jpg	99
596.382	0.766	766.5	0back	Block1	0back/STIM_011.jpg	99
600.783	0.526	526.0	0back	Block1	0back/STIM_011.jpg	100
604.062	0.602	601.5	0back	Block1	0back/STIM_011.jpg	99
606.98	0.526	526.5	0back	Block1	0back/STIM_012.jpg	100
611.415	1.011	1010.7	0back	Block1	0back/STIM_012.jpg	99
614.852	0.811	811.4	0back	Block1	0back/STIM_012.jpg	100
618.556	0.851	851.0	0back	Block1	0back/STIM_013.jpg	100
622.757	0.852	851.6	0back	Block1	0back/STIM_013.jpg	99
626.643	0.485	484.7	0back	Block1	0back/STIM_013.jpg	100
629.992	0.632	632.4	0back	Block1	0back/STIM_014.jpg	99
633.518	0.791	791.2	0back	Block1	0back/STIM_014.jpg	99
636.793	0.465	465.4	0back	Block1	0back/STIM_014.jpg	100
640.372	0.505	505.4	0back	Block1	0back/STIM_015.jpg	99
643.348	0.55	550.1	0back	Block1	0back/STIM_015.jpg	99
647.399	0.822	822.1	0back	Block1	0back/STIM_015.jpg	99
651.208	0.513	513.3	0back	Block1	0back/STIM_016.jpg	100
655.558	0.622	621.9	0back	Block1	0back/STIM_016.jpg	99
659.824	0.696	696.5	0back	Block1	0back/STIM_016.jpg	99
663.154	0.897	897.2	0back	Block1	0back/STIM_017.jpg	100
665.999	0.69	690.4	0back	Block1	0back/STIM_017.jpg	99
668.722	0.532	531.9	0back	Block1	0back/STIM_017.jpg	99
671.801	0.687	687.1	0back	Block1	0back/STIM_018.jpg	99
675.724	0.914	913.8	0back	Block1	0back/STIM_018.jpg	100
680.067	0.825	825.4	0back	Block1	0back/STIM_018.jpg	99
684.435	0.864	863.5	0back	Block1	0back/STIM_019.jpg	100
687.499	0.916	916.2	0back	Block1	0back/STIM_019.jpg	100
690.786	0.494	494.2	0back	Block1	0back/STIM_019.jpg	99
693.611	0.534	534.1	2back	Block2	2back/STIM_000.jpg	99
697.286	0.607	607.3	2back	Block2	2back/STIM_000.jpg	100
701.443	0.931	931.2	2back	Block2	2back/STIM_000.jpg	99
706.293	1.138	1138.4	2back	Block2	2back/STIM_001.jpg	99
710.641	0.995	994.6	2back	Block2	2back/STIM_001.jpg	100
713.869	0.828	827.7	2back	Block2	2back/STIM_001.jpg	99
717.716	1.255	1254.7	2back	Block2	2back/STIM_002.jpg	99
722.805	1.218	1217.9	2back	Block2	2back/STIM_002.jpg	99
726.948	1.026	1025.7	2back	Block2	2back/STIM_002.jpg	99
730.161	0.823	823.3	2back	Block2	2back/STIM_003.jpg	100
734.012	1.109	1109.4	2back	Block2	2back/STIM_003.jpg	100
738.887	1.105	1105.2	2back	Block2	2back/STIM_003.jpg	99
742.664	0.917	917.4	2back	Block2	2back/STIM_004.jpg	99
746.697	0.771	770.6	2back	Block2	2back/STIM_004.jpg	100
750.329	0.934	933.6	2back	Block2	2back/STIM_004.jpg	100
753.327	0.662	662.1	2back	Block2	2back/STIM_005.jpg	100
756.66	1.215	1215.1	2back	Block2	2back/STIM_005.jpg	99
761.575	1.152	1151.9	2back	Block2	2back/STIM_005.jpg	99
765.459	1.345	1345.1	2back	Block2	2back/STIM_006.jpg	100
769.379	0.945	945.2	2back	Block2	2back/STIM_006.jpg	100
773.543	1.011	1011.4	2back	Block2	2back/STIM_006.jpg	99
776.73	0.794	793.6	2back	Block2	2back/STIM_007.jpg	99
779.475	0.644	643.6	2back	Block2	2back/STIM_007.jpg	100
782.499	0.809	809.3	2back	Block2	2back/STIM_007.jpg	99
786.665	0.797	796.7	2back	Block2	2back/STIM_008.jpg	100
789.651	1.003	1002.6	2back	Block2	2back/STIM_008.jpg	100
792.505	1.106	1106.4	2back	Block2	2back/STIM_008.jpg	99
797.336	1.118	1117.9	2back	Block2	2back/STIM_009.jpg	100
801.267	0.772	771.7	2back	Block2	2back/STIM_009.jpg	100
804.136	1.07	1070.0	2back	Block2	2back/STIM_009.jpg	100
809.043	0.682	682.2	2back	Block2	2back/STIM_010.jpg	99
812.229	0.687	687.0	2back	Block2	2back/STIM_010.jpg	100
815.125	0.602	601.7	2back	Block2	2back/STIM_010.jpg	99
819.272	1.174	1174.4	2back	Block2	2back/STIM_011.jpg	100
823.903	1.057	1056.9	2back	Block2	2back/STIM_011.jpg	99
828.149	0.758	757.6	2back	Block2	2back/STIM_011.jpg	100
832.326	0.962	961.5	2back	Block2	2back/STIM_012.jpg	99
837.006	1.076	1076.1	2back	Block2	2back/STIM_012.jpg	99
840.455	0.931	931.4	2back	Block2	2back/STIM_012.jpg	100
843.724	0.966	966.4	2back	Block2	2back/STIM_013.jpg	100
848.076	0.772	772.3	2back	Block2	2back/STIM_013.jpg	99
851.605	1.055	1055.4	2back	Block2	2back/STIM_013.jpg	100
856.221	1.232	1232.2	2back	Block2	2back/STIM_014.jpg	99
860.876	0.572	571.5	2back	Block2	2back/STIM_014.jpg	100
865.244	1.028	1028.1	2back	Block2	2back/STIM_014.jpg	100
868.198	0.856	856.0	2back	Block2	2back/STIM_015.jpg	99
871.715	0.731	730.9	2back	Block2	2back/STIM_015.jpg	100
876.188	0.809	808.8	2back	Block2	2back/STIM_015.jpg	99
879.733	0.905	905.4	2back	Block2	2back/STIM_016.jpg	99
882.724	0.68	679.8	2back	Block2	2back/STIM_016.jpg	99
887.251	0.639	638.7	2back	Block2	2back/STIM_016.jpg	99
891.616	1.284	1283.7	2back	Block2	2back/STIM_017.jpg	100
895.51	1.145	1145.1	2back	Block2	2back/STIM_017.jpg	100
899.441	1.027	1027.3	2back	Block2	2back/STIM_017.jpg	100
904.009	1.126	1125.9	2back	Block2	2back/STIM_018.jpg	99
908.53	1.108	1107.8	2back	Block2	2back/STIM_018.jpg	99
912.206	0.831	831.1	2back	Block2	2back/STIM_018.jpg	99
915.93	0.699	699.3	2back	Block2	2back/STIM_019.jpg	99
920.535	0.817	816.6	2back	Block2	2back/STIM_019.jpg	100
924.19	0.939	938.9	2back	Block2	2back/STIM_019.jpg	99
928.913	0.656	656.3	2back	Block2	2back/STIM_020.jpg	100
933.204	1.15	1149.5	2back	Block2	2back/STIM_020.jpg	100
937.694	0.627	626.8	2back	Block2	2back/STIM_020.jpg	100
940.561	0.59	589.7	2back	Block2	2back/STIM_021.jpg	99
944.858	1.18	1180.2	2back	Block2	2back/STIM_021.jpg	100
949.314	0.928	928.1	2back	Block2	2back/STIM_021.jpg	100
952.85	0.717	717.0	2back	Block2	2back/STIM_022.jpg	100
956.564	1.005	1004.7	2back	Block2	2back/STIM_022.jpg	99
960.435	1.032	1031.9	2back	Block2	2back/STIM_022.jpg	100
964.65	0.953	953.1	2back	Block2	2back/STIM_023.jpg	99
967.902	1.01	1010.1	2back	Block2	2back/STIM_023.jpg	99
971.117	1.179	1178.8	2back	Block2	2back/STIM_023.jpg	99
975.843	0.981	981.2	2back	Block2	2back/STIM_024.jpg	100
979.167	0.764	763.8	2back	Block2	2back/STIM_024.jpg	99
982.043	1.027	1027.0	2back	Block2	2back/STIM_024.jpg	99
985.274	1.261	1260.8	2back	Block2	2back/STIM_025.jpg	99
988.778	0.952	952.1	2back	Block2	2back/STIM_025.jpg	100
992.646	0.821	821.1	2back	Block2	2back/STIM_025.jpg	99
997.151	0.589	589.0	2back	Block2	2back/STIM_026.jpg	100
1000.007	0.721	721.1	2back	Block2	2back/STIM_026.jpg	99
1002.724	0.706	705.7	2back	Block2	2back/STIM_026.jpg	99
1005.495	1.169	1169.2	2back	Block2	2back/STIM_027.jpg	100
1009.7	0.848	848.2	2back	Block2	2back/STIM_027.jpg	100
1012.52	1.134	1133.5	2back	Block2	2back/STIM_027.jpg	100
1016.069	0.802	802.0	2back	Block2	2back/STIM_028.jpg	99
1019.324	1.017	1017.3	2back	Block2	2back/STIM_028.jpg	99
1022.907	1.114	1113.5	2back	Block2	2back/STIM_028.jpg	99
1026.471	1.376	1376.0	2back	Block2	2back/STIM_029.jpg	99
1030.996	0.581	581.3	2back	Block2	2back/STIM_029.jpg	99
1034.474	0.657	656.8	2back	Block2	2back/STIM_029.jpg	99
1038.366	1.326	1326.4	2back	Block2	2back/STIM_030.jpg	100
1041.715	0.847	846.9	2back	Block2	2back/STIM_030.jpg	100
1046.118	1.084	1084.4	2back	Block2	2back/STIM_030.jpg	99
1050.85	0.755	755.3	2back	Block2	2back/STIM_031.jpg	99
1055.245	0.975	974.6	2back	Block2	2back/STIM_031.jpg	99
1059.899	1.082	1082.5	2back	Block2	2back/STIM_031.jpg	100
1063.704	0.758	758.4	2back	Block2	2back/STIM_032.jpg	99
1067.135	0.674	673.5	2back	Block2	2back/STIM_032.jpg	100
1070.338	1.097	1097.4	2back	Block2	2back/STIM_032.jpg	100
1074.02	1.299	1299.4	2back	Block2	2back/STIM_033.jpg	100
1078.886	0.949	949.2	2back	Block2	2back/STIM_033.jpg	99
1082.507	0.671	671.1	2back	Block2	2back/STIM_033.jpg	99
1086.839	0.796	796.5	2back	Block2	2back/STIM_034.jpg	100
1090.011	0.723	722.8	2back	Block2	2back/STIM_034.jpg	100
1093.895	0.636	636.5	2back	Block2	2back/STIM_034.jpg	100
1097.89	1.092	1092.1	2back	Block2	2back/STIM_035.jpg	99
1101.929	1.252	1251.8	2back	Block2	2back/STIM_035.jpg	99
1106.318	1.117	1116.9	2back	Block2	2back/STIM_035.jpg	99
1109.598	0.788	788.4	2back	Block2	2back/STIM_036.jpg	100
1113.759	1.152	1151.7	2back	Block2	2back/STIM_036.jpg	100
1118.233	0.543	542.7	2back	Block2	2back/STIM_036.jpg	99
1121.916	1.367	1367.3	2back	Block2	2back/STIM_037.jpg	100
1125.513	1.247	1246.9	2back	Block2	2back/STIM_037.jpg	99
1128.748	0.812	811.6	2back	Block2	2back/STIM_037.jpg	100
1132.489	1.014	1013.8	2back	Block2	2back/STIM_038.jpg	100
1135.728	0.852	851.5	2back	Block2	2back/STIM_038.jpg	99
1139.022	1.138	1137.9	2back	Block2	2back/STIM_038.jpg	100
1142.762	1.424	1423.9	2back	Block2	2back/STIM_039.jpg	100
1146.244	1.273	1273.4	2back	Block2	2back/STIM_039.jpg	100
1150.565	0.576	575.6	2back	Block2	2back/STIM_039.jpg	99
1154.691	0.655	654.6	0back	Block2	0back/STIM_000.jpg	99
1159.128	0.93	930.5	0back	Block2	0back/STIM_000.jpg	99
1163.258	0.772	772.1	0back	Block2	0back/STIM_000.jpg	99
1166.101	0.805	804.8	0back	Block2	0back/STIM_001.jpg	99
1170.429	0.832	831.8	0back	Block2	0back/STIM_001.jpg	99
1174.23	0.738	738.3	0back	Block2	0back/STIM_001.jpg	100
1177.775	0.564	564.4	0back	Block2	0back/STIM_002.jpg	100
1180.607	0.714	714.0	0back	Block2	0back/STIM_002.jpg	100
1183.864	0.658	657.9	0back	Block2	0back/STIM_002.jpg	100
1186.613	0.843	842.6	0back	Block2	0back/STIM_003.jpg	100
1190.665	0.783	783.0	0back	Block2	0back/STIM_003.jpg	99
1193.504	0.823	823.3	0back	Block2	0back/STIM_003.jpg	100
1197.314	0.917	917.3	0back	Block2	0back/STIM_004.jpg	99
1201.969	0.983	983.4	0back	Block2	0back/STIM_004.jpg	99
1206.51	0.582	581.7	0back	Block2	0back/STIM_004.jpg	99
1210.842	0.678	677.6	0back	Block2	0back/STIM_005.jpg	99
1214.288	0.66	660.4	0back	Block2	0back/STIM_005.jpg	100
1217.899	0.644	643.6	0back	Block2	0back/STIM_005.jpg	99
1220.551	0.6	599.5	0back	Block2	0back/STIM_006.jpg	99
1224.042	0.507	506.6	0back	Block2	0back/STIM_006.jpg	99
1227.742	0.732	732.0	0back	Block2	0back/STIM_006.jpg	100
1230.579	0.505	505.1	0back	Block2	0back/STIM_007.jpg	100
1234.221	0.797	797.1	0back	Block2	0back/STIM_007.jpg	99
1237.969	0.543	542.7	0back	Block2	0back/STIM_007.jpg	99
1240.574	0.814	814.5	0back	Block2	0back/STIM_008.jpg	99
1244.619	0.663	663.3	0back	Block2	0back/STIM_008.jpg	100
1247.292	0.8	799.9	0back	Block2	0back/STIM_008.jpg	100
1250.667	0.51	510.3	0back	Block2	0back/STIM_009.jpg	100
1253.587	0.92	920.1	0back	Block2	0back/STIM_009.jpg	100
1256.405	0.616	615.5	0back	Block2	0back/STIM_009.jpg	99
1259.697	0.793	792.8	0back	Block2	0back/STIM_010.jpg	99
1263.605	0.733	733.2	0back	Block2	0back/STIM_010.jpg	99
1266.211	0.934	933.7	0back	Block2	0back/STIM_010.jpg	100
1270.189	0.7	700.5	0back	Block2	0back/STIM_011.jpg	99
1274.567	0.945	945.4	0back	Block2	0back/STIM_011.jpg	99
1277.534	0.822	822.5	0back	Block2	0back/STIM_011.jpg	99
1282.067	0.538	537.8	0back	Block2	0back/STIM_012.jpg	99
1284.946	0.476	476.3	0back	Block2	0back/STIM_012.jpg	100
1287.953	0.574	574.5	0back	Block2	0back/STIM_012.jpg	100
1291.938	0.499	499.0	0back	Block2	0back/STIM_013.jpg	99
1295.62	0.587	586.6	0back	Block2	0back/STIM_013.jpg	100
1299.266	0.661	661.1	0back	Block2	0back/STIM_013.jpg	100
1303.426	0.932	932.3	0back	Block2	0back/STIM_014.jpg	100
1307.606	0.894	893.5	0back	Block2	0back/STIM_014.jpg	99
1312.205	0.475	475.3	0back	Block2	0back/STIM_014.jpg	99
1316.326	0.532	531.9	0back	Block2	0back/STIM_015.jpg	100
1320.108	0.381	381.4	0back	Block2	0back/STIM_015.jpg	100
1323.042	0.567	567.0	0back	Block2	0back/STIM_015.jpg	100
1325.903	0.988	987.5	0back	Block2	0back/STIM_016.jpg	100
1329.3	0.585	585.0	0back	Block2	0back/STIM_016.jpg	100
1332.975	0.85	849.5	0back	Block2	0back/STIM_016.jpg	100
1336.606	0.579	579.3	0back	Block2	0back/STIM_017.jpg	99
1340.852	0.78	780.2	0back	Block2	0back/STIM_017.jpg	99
1343.917	0.776	776.3	0back	Block2	0back/STIM_017.jpg	99
1347.591	0.871	870.6	0back	Block2	0back/STIM_018.jpg	99
1352.0	0.711	711.0	0back	Block2	0back/STIM_018.jpg	100
1355.578	0.761	761.1	0back	Block2	0back/STIM_018.jpg	100
1359.61	0.919	918.9	0back	Block2	0back/STIM_019.jpg	100
1362.8	0.727	726.6	0back	Block2	0back/STIM_019.jpg	100
1366.897	0.677	677.3	0back	Block2	0back/STIM_019.jpg	100
1369.665	0.522	521.6	2back	Block3	2back/STIM_000.jpg	100
1372.234	0.767	766.9	2back	Block3	2back/STIM_000.jpg	99
1376.069	0.857	856.6	2back	Block3	2back/STIM_000.jpg	99
1379.617	0.594	593.7	2back	Block3	2back/STIM_001.jpg	99
1382.173	1.121	1120.6	2back	Block3	2back/STIM_001.jpg	100
1386.448	0.628	628.2	2back	Block3	2back/STIM_001.jpg	99
1389.16	0.528	527.7	2back	Block3	2back/STIM_002.jpg	100
1391.851	0.748	748.0	2back	Block3	2back/STIM_002.jpg	99
1395.278	1.114	1114.3	2back	Block3	2back/STIM_002.jpg	99
1400.199	0.732	732.2	2back	Block3	2back/STIM_003.jpg	100
1403.121	1.063	1063.4	2back	Block3	2back/STIM_003.jpg	100
1406.594	0.645	644.7	2back	Block3	2back/STIM_003.jpg	100
1410.966	0.836	835.6	2back	Block3	2back/STIM_004.jpg	99
1414.187	1.003	1003.1	2back	Block3	2back/STIM_004.jpg	99
1417.546	0.814	814.0	2back	Block3	2back/STIM_004.jpg	99
1420.757	1.031	1031.1	2back	Block3	2back/STIM_005.jpg	100
1425.407	1.01	1010.0	2back	Block3	2back/STIM_005.jpg	99
1429.674	0.453	452.8	2back	Block3	2back/STIM_005.jpg	100
1433.802	0.646	646.3	2back	Block3	2back/STIM_006.jpg	99
1437.125	0.917	917.3	2back	Block3	2back/STIM_006.jpg	100
1441.035	1.125	1125.1	2back	Block3	2back/STIM_006.jpg	100
1445.854	0.761	760.8	2back	Block3	2back/STIM_007.jpg	99
1449.662	0.916	915.5	2back	Block3	2back/STIM_007.jpg	99
1452.891	0.535	535.3	2back	Block3	2back/STIM_007.jpg	100
1455.732	0.985	985.3	2back	Block3	2back/STIM_008.jpg	100
1460.63	0.549	549.3	2back	Block3	2back/STIM_008.jpg	100
1464.446	0.796	796.4	2back	Block3	2back/STIM_008.jpg	100
1468.136	0.549	549.3	2back	Block3	2back/STIM_009.jpg	100
1471.759	1.035	1034.6	2back	Block3	2back/STIM_009.jpg	100
1475.808	0.48	479.9	2back	Block3	2back/STIM_009.jpg	99
1478.561	0.598	597.7	2back	Block3	2back/STIM_010.jpg	100
1481.986	0.545	545.1	2back	Block3	2back/STIM_010.jpg	100
1485.403	0.647	646.8	2back	Block3	2back/STIM_010.jpg	99
1488.837	0.561	561.2	2back	Block3	2back/STIM_011.jpg	99
1491.699	0.95	950.5	2back	Block3	2back/STIM_011.jpg	99
1496.149	0.515	514.7	2back	Block3	2back/STIM_011.jpg	100
1500.558	0.708	708.5	2back	Block3	2back/STIM_012.jpg	100
1504.305	1.112	1112.2	2back	Block3	2back/STIM_012.jpg	100
1507.373	0.646	646.0	2back	Block3	2back/STIM_012.jpg	100
1510.07	0.824	824.3	2back	Block3	2back/STIM_013.jpg	100
1514.403	1.017	1016.9	2back	Block3	2back/STIM_013.jpg	99
1517.766	0.794	794.5	2back	Block3	2back/STIM_013.jpg	100
1521.177	0.678	678.3	2back	Block3	2back/STIM_014.jpg	99
1524.575	1.131	1131.2	2back	Block3	2back/STIM_014.jpg	100
1528.534	1.035	1034.8	2back	Block3	2back/STIM_014.jpg	100
1531.913	0.803	803.2	2back	Block3	2back/STIM_015.jpg	100
1535.066	0.591	590.6	2back	Block3	2back/STIM_015.jpg	100
1537.62	0.612	611.7	2back	Block3	2back/STIM_015.jpg	99
1540.81	0.875	875.2	2back	Block3	2back/STIM_016.jpg	100
1544.07	0.666	666.0	2back	Block3	2back/STIM_016.jpg	100
1546.864	1.008	1008.4	2back	Block3	2back/STIM_016.jpg	100
1551.668	1.131	1130.8	2back	Block3	2back/STIM_017.jpg	100
1555.186	1.02	1020.3	2back	Block3	2back/STIM_017.jpg	99
1559.071	0.984	983.6	2back	Block3	2back/STIM_017.jpg	100
1562.865	0.513	513.4	2back	Block3	2back/STIM_018.jpg	100
1565.656	0.745	745.4	2back	Block3	2back/STIM_018.jpg	99
1569.641	0.885	885.0	2back	Block3	2back/STIM_018.jpg	99
1573.474	0.834	834.4	2back	Block3	2back/STIM_019.jpg	100
1577.74	0.633	633.1	2back	Block3	2back/STIM_019.jpg	99
1581.774	0.831	831.0	2back	Block3	2back/STIM_019.jpg	99
1584.909	1.105	1104.7	2back	Block3	2back/STIM_020.jpg	99
1588.938	0.83	830.5	2back	Block3	2back/STIM_020.jpg	100
1591.828	0.599	599.3	2back	Block3	2back/STIM_020.jpg	99
1596.293	0.727	727.1	2back	Block3	2back/STIM_021.jpg	99
1598.951	0.607	607.2	2back	Block3	2back/STIM_021.jpg	99
1602.934	0.531	531.2	2back	Block3	2back/STIM_021.jpg	100
1607.267	1.13	1130.0	2back	Block3	2back/STIM_022.jpg	100
1611.721	0.903	903.1	2back	Block3	2back/STIM_022.jpg	99
1615.094	0.701	700.6	2back	Block3	2back/STIM_022.jpg	100
1619.135	0.866	866.1	2back	Block3	2back/STIM_023.jpg	100
1623.161	1.057	1056.6	2back	Block3	2back/STIM_023.jpg	100
1626.08	0.855	854.7	2back	Block3	2back/STIM_023.jpg	99
1629.174	0.701	700.6	2back	Block3	2back/STIM_024.jpg	99
1633.131	0.702	701.5	2back	Block3	2back/STIM_024.jpg	100
1637.423	0.72	720.2	2back	Block3	2back/STIM_024.jpg	100
1640.198	0.774	773.8	2back	Block3	2back/STIM_025.jpg	100
1643.45	0.484	484.4	2back	Block3	2back/STIM_025.jpg	100
1646.333	0.935	934.9	2back	Block3	2back/STIM_025.jpg	99
1650.695	0.901	901.0	2back	Block3	2back/STIM_026.jpg	99
1654.835	0.693	692.9	2back	Block3	2back/STIM_026.jpg	100
1657.51	0.571	570.7	2back	Block3	2back/STIM_026.jpg	99
1660.651	0.953	953.4	2back	Block3	2back/STIM_027.jpg	100
1664.75	0.441	440.8	2back	Block3	2back/STIM_027.jpg	99
1668.075	1.001	1000.8	2back	Block3	2back/STIM_027.jpg	99
1671.079	0.874	874.5	2back	Block3	2back/STIM_028.jpg	99
1673.912	0.986	985.7	2back	Block3	2back/STIM_028.jpg	100
1677.523	0.806	805.7	2back	Block3	2back/STIM_028.jpg	100
1681.867	0.547	546.8	2back	Block3	2back/STIM_029.jpg	99
1684.907	0.728	727.9	2back	Block3	2back/STIM_029.jpg	100
1687.976	0.647	646.6	2back	Block3	2back/STIM_029.jpg	100
1691.182	0.792	792.4	2back	Block3	2back/STIM_030.jpg	100
1694.642	0.505	504.9	2back	Block3	2back/STIM_030.jpg	100
1698.991	0.658	658.1	2back	Block3	2back/STIM_030.jpg	100
1703.587	0.713	712.7	2back	Block3	2back/STIM_031.jpg	99
1707.84	0.904	904.2	2back	Block3	2back/STIM_031.jpg	100
1711.346	0.817	817.4	2back	Block3	2back/STIM_031.jpg	100
1714.785	0.913	913.1	2back	Block3	2back/STIM_032.jpg	100
1719.012	0.52	519.7	2back	Block3	2back/STIM_032.jpg	100
1721.953	0.857	857.0	2back	Block3	2back/STIM_032.jpg	100
1726.151	0.532	531.5	2back	Block3	2back/STIM_033.jpg	99
1729.098	0.712	712.5	2back	Block3	2back/STIM_033.jpg	100
1733.77	0.526	525.6	2back	Block3	2back/STIM_033.jpg	99
1737.955	0.857	856.6	2back	Block3	2back/STIM_034.jpg	100
1740.907	1.01	1010.5	2back	Block3	2back/STIM_034.jpg	100
1745.434	1.015	1014.8	2back	Block3	2back/STIM_034.jpg	100
1748.714	1.077	1077.0	2back	Block3	2back/STIM_035.jpg	99
1752.637	0.632	631.5	2back	Block3	2back/STIM_035.jpg	100
1756.195	1.099	1098.6	2back	Block3	2back/STIM_035.jpg	99
1759.297	0.623	622.7	2back	Block3	2back/STIM_036.jpg	100
1763.35	0.671	670.9	2back	Block3	2back/STIM_036.jpg	100
1767.593	1.129	1129.1	2back	Block3	2back/STIM_036.jpg	99
1770.613	0.954	954.0	2back	Block3	2back/STIM_037.jpg	99
1773.8	1.08	1080.1	2back	Block3	2back/STIM_037.jpg	100
1777.265	0.598	598.1	2back	Block3	2back/STIM_037.jpg	100
1781.224	0.735	734.8	2back	Block3	2back/STIM_038.jpg	99
1784.562	0.687	687.4	2back	Block3	2back/STIM_038.jpg	100
1788.6	0.986	986.5	2back	Block3	2back/STIM_038.jpg	100
1792.9	0.839	838.6	2back	Block3	2back/STIM_039.jpg	100
1796.815	0.51	510.0	2back	Block3	2back/STIM_039.jpg	100
1800.381	0.599	599.3	2back	Block3	2back/STIM_039.jpg	100
1803.764	0.528	527.8	0back	Block3	0back/STIM_000.jpg	99
1806.693	0.6	600.2	0back	Block3	0back/STIM_000.jpg	99
1809.809	0.624	624.1	0back	Block3	0back/STIM_000.jpg	99
1812.974	0.541	541.0	0back	Block3	0back/STIM_001.jpg	100
1815.749	0.592	592.2	0back	Block3	0back/STIM_001.jpg	100
1818.375	0.404	403.9	0back	Block3	0back/STIM_001.jpg	100
1821.499	0.475	475.2	0back	Block3	0back/STIM_002.jpg	99
1824.217	0.982	982.1	0back	Block3	0back/STIM_002.jpg	100
1828.963	0.82	819.8	0back	Block3	0back/STIM_002.jpg	99
1832.958	0.778	777.7	0back	Block3	0back/STIM_003.jpg	100
1836.141	0.757	757.2	0back	Block3	0back/STIM_003.jpg	100
1840.387	0.705	704.8	0back	Block3	0back/STIM_003.jpg	100
1843.082	0.73	729.5	0back	Block3	0back/STIM_004.jpg	99
1846.461	0.61	609.6	0back	Block3	0back/STIM_004.jpg	100
1849.698	0.692	692.5	0back	Block3	0back/STIM_004.jpg	100
1853.408	0.687	686.8	0back	Block3	0back/STIM_005.jpg	100
1856.078	0.74	739.9	0back	Block3	0back/STIM_005.jpg	100
1860.429	0.867	867.4	0back	Block3	0back/STIM_005.jpg	99
1864.692	0.617	617.1	0back	Block3	0back/STIM_006.jpg	99
1868.75	0.507	506.9	0back	Block3	0back/STIM_006.jpg	99
1872.776	0.811	810.9	0back	Block3	0back/STIM_006.jpg	99
1876.111	0.721	720.8	0back	Block3	0back/STIM_007.jpg	100
1879.926	0.564	564.0	0back	Block3	0back/STIM_007.jpg	100
1883.713	0.864	864.3	0back	Block3	0back/STIM_007.jpg	100
1886.504	0.643	643.2	0back	Block3	0back/STIM_008.jpg	99
1889.348	0.612	611.5	0back	Block3	0back/STIM_008.jpg	100
1893.595	0.641	641.1	0back	Block3	0back/STIM_008.jpg	99
1896.767	0.894	894.4	0back	Block3	0back/STIM_009.jpg	99
1900.933	0.683	682.8	0back	Block3	0back/STIM_009.jpg	99
1904.787	0.81	809.5	0back	Block3	0back/STIM_009.jpg	99
1907.63	0.786	786.3	0back	Block3	0back/STIM_010.jpg	100
1910.428	0.668	667.6	0back	Block3	0back/STIM_010.jpg	100
1914.325	0.513	512.8	0back	Block3	0back/STIM_010.jpg	100
1917.78	0.409	409.2	0back	Block3	0back/STIM_011.jpg	99
1921.005	0.805	805.3	0back	Block3	0back/STIM_011.jpg	100
1924.812	0.78	780.0	0back	Block3	0back/STIM_011.jpg	100
1927.596	0.562	561.9	0back	Block3	0back/STIM_012.jpg	100
1931.701	0.797	796.9	0back	Block3	0back/STIM_012.jpg	99
1934.595	0.748	747.5	0back	Block3	0back/STIM_012.jpg	100
1938.085	0.87	870.5	0back	Block3	0back/STIM_013.jpg	100
1942.311	0.786	786.2	0back	Block3	0back/STIM_013.jpg	99
1945.259	0.659	658.7	0back	Block3	0back/STIM_013.jpg	99
1948.342	0.501	501.3	0back	Block3	0back/STIM_014.jpg	99
1950.82	0.9	899.7	0back	Block3	0back/STIM_014.jpg	100
1954.844	0.41	410.0	0back	Block3	0back/STIM_014.jpg	99
1958.001	0.53	529.5	0back	Block3	0back/STIM_015.jpg	99
1961.856	0.658	657.8	0back	Block3	0back/STIM_015.jpg	100
1964.848	0.667	666.7	0back	Block3	0back/STIM_015.jpg	100
1969.079	0.924	923.9	0back	Block3	0back/STIM_016.jpg	100
1972.158	0.6	600.0	0back	Block3	0back/STIM_016.jpg	100
1975.498	0.466	465.9	0back	Block3	0back/STIM_016.jpg	100
1979.77	0.551	551.4	0back	Block3	0back/STIM_017.jpg	100
1982.683	0.909	909.0	0back	Block3	0back/STIM_017.jpg	99
1985.71	0.734	734.1	0back	Block3	0back/STIM_017.jpg	99
1988.928	0.807	807.4	0back	Block3	0back/STIM_018.jpg	99
1993.199	0.846	845.8	0back	Block3	0back/STIM_018.jpg	100
1997.808	0.656	655.8	0back	Block3	0back/STIM_018.jpg	99
2001.546	0.856	856.1	0back	Block3	0back/STIM_019.jpg	100
2004.936	0.692	691.9	0back	Block3	0back/STIM_019.jpg	99
2009.356	0.574	574.5	0back	Block3	0back/STIM_019.jpg	99
2012.461	0.489	489.4	2back	Block4	2back/STIM_000.jpg	99
2016.11	0.608	608.5	2back	Block4	2back/STIM_000.jpg	100
2018.877	0.591	591.0	2back	Block4	2back/STIM_000.jpg	99
2022.381	0.635	634.7	2back	Block4	2back/STIM_001.jpg	99
2025.515	0.894	893.9	2back	Block4	2back/STIM_001.jpg	100
2029.426	0.477	476.7	2back	Block4	2back/STIM_001.jpg	100
2032.788	0.579	579.3	2back	Block4	2back/STIM_002.jpg	99
2036.621	0.568	568.2	2back	Block4	2back/STIM_002.jpg	99
2040.637	0.775	774.7	2back	Block4	2back/STIM_002.jpg	100
2044.873	0.81	810.5	2back	Block4	2back/STIM_003.jpg	100
2049.148	0.82	820.4	2back	Block4	2back/STIM_003.jpg	99
2052.152	0.882	882.2	2back	Block4	2back/STIM_003.jpg	99
2055.152	0.579	578.8	2back	Block4	2back/STIM_004.jpg	100
2059.181	0.913	913.1	2back	Block4	2back/STIM_004.jpg	100
2062.997	0.928	927.7	2back	Block4	2back/STIM_004.jpg	99
2067.182	0.594	593.7	2back	Block4	2back/STIM_005.jpg	100
2070.983	0.957	957.2	2back	Block4	2back/STIM_005.jpg	100
2074.047	0.93	930.0	2back	Block4	2back/STIM_005.jpg	100
2078.917	0.774	774.0	2back	Block4	2back/STIM_006.jpg	100
2083.515	0.547	546.6	2back	Block4	2back/STIM_006.jpg	100
2086.138	0.837	837.1	2back	Block4	2back/STIM_006.jpg	99
2089.238	0.918	918.2	2back	Block4	2back/STIM_007.jpg	100
2092.301	1.029	1028.7	2back	Block4	2back/STIM_007.jpg	99
2096.4	1.14	1140.1	2back	Block4	2back/STIM_007.jpg	99
2099.551	0.509	508.7	2back	Block4	2back/STIM_008.jpg	100
2103.73	0.982	981.8	2back	Block4	2back/STIM_008.jpg	99
2107.59	0.825	825.3	2back	Block4	2back/STIM_008.jpg	100
2110.853	0.876	875.9	2back	Block4	2back/STIM_009.jpg	100
2114.715	0.966	965.7	2back	Block4	2back/STIM_009.jpg	99
2119.475	0.357	357.0	2back	Block4	2back/STIM_009.jpg	100
2123.331	0.816	816.0	2back	Block4	2back/STIM_010.jpg	99
2126.66	0.879	878.9	2back	Block4	2back/STIM_010.jpg	100
2129.947	0.737	736.8	2back	Block4	2back/STIM_010.jpg	100
2133.491	0.922	921.5	2back	Block4	2back/STIM_011.jpg	100
2136.348	0.72	720.3	2back	Block4	2back/STIM_011.jpg	99
2140.438	0.659	659.2	2back	Block4	2back/STIM_011.jpg	100
2144.559	0.903	902.9	2back	Block4	2back/STIM_012.jpg	99
2147.773	0.883	883.3	2back	Block4	2back/STIM_012.jpg	99
2152.04	0.991	991.1	2back	Block4	2back/STIM_012.jpg	100
2155.703	0.977	977.2	2back	Block4	2back/STIM_013.jpg	99
2159.333	1.063	1062.9	2back	Block4	2back/STIM_013.jpg	100
2163.705	0.739	739.4	2back	Block4	2back/STIM_013.jpg	100
2166.954	0.893	892.9	2back	Block4	2back/STIM_014.jpg	99
2170.683	0.622	621.8	2back	Block4	2back/STIM_014.jpg	100
2174.888	0.523	523.0	2back	Block4	2back/STIM_014.jpg	99
2177.5	0.618	618.5	2back	Block4	2back/STIM_015.jpg	99
2180.556	0.835	835.0	2back	Block4	2back/STIM_015.jpg	100
2185.274	0.796	796.3	2back	Block4	2back/STIM_015.jpg	99
2188.67	0.935	934.8	2back	Block4	2back/STIM_016.jpg	99
2192.194	1.042	1041.6	2back	Block4	2back/STIM_016.jpg	99
2195.433	0.495	494.8	2back	Block4	2back/STIM_016.jpg	100
2198.647	1.113	1113.1	2back	Block4	2back/STIM_017.jpg	100
2202.136	0.895	894.7	2back	Block4	2back/STIM_017.jpg	99
2205.285	0.521	520.7	2back	Block4	2back/STIM_017.jpg	99
2209.013	1.101	1100.9	2back	Block4	2back/STIM_018.jpg	99
2213.574	0.738	738.4	2back	Block4	2back/STIM_018.jpg	99
2217.445	1.097	1097.1	2back	Block4	2back/STIM_018.jpg	99
2221.977	0.688	687.5	2back	Block4	2back/STIM_019.jpg	100
2225.012	0.597	597.4	2back	Block4	2back/STIM_019.jpg	100
2228.167	0.953	953.4	2back	Block4	2back/STIM_019.jpg	100
2231.541	0.674	674.4	2back	Block4	2back/STIM_020.jpg	100
2234.431	0.528	527.5	2back	Block4	2back/STIM_020.jpg	99
2237.623	0.806	805.7	2back	Block4	2back/STIM_020.jpg	100
2241.334	0.762	761.7	2back	Block4	2back/STIM_021.jpg	100
2244.102	0.654	653.5	2back	Block4	2back/STIM_021.jpg	99
2248.425	0.858	858.2	2back	Block4	2back/STIM_021.jpg	99
2252.779	0.854	853.7	2back	Block4	2back/STIM_022.jpg	100
2257.036	0.847	847.3	2back	Block4	2back/STIM_022.jpg	100
2261.153	0.841	840.9	2back	Block4	2back/STIM_022.jpg	99
2264.571	1.097	1096.6	2back	Block4	2back/STIM_023.jpg	100
2268.614	1.005	1004.7	2back	Block4	2back/STIM_023.jpg	100
2271.661	1.075	1075.2	2back	Block4	2back/STIM_023.jpg	99
2275.128	0.654	653.7	2back	Block4	2back/STIM_024.jpg	100
2278.86	1.008	1008.0	2back	Block4	2back/STIM_024.jpg	100
2283.223	0.571	570.8	2back	Block4	2back/STIM_024.jpg	99
2287.167	0.716	716.2	2back	Block4	2back/STIM_025.jpg	100
2291.211	1.054	1054.2	2back	Block4	2back/STIM_025.jpg	100
2294.391	1.007	1006.8	2back	Block4	2back/STIM_025.jpg	99
2298.541	0.544	544.5	2back	Block4	2back/STIM_026.jpg	100
2301.186	0.69	690.4	2back	Block4	2back/STIM_026.jpg	99
2304.085	0.579	579.1	2back	Block4	2back/STIM_026.jpg	100
2307.874	0.684	684.2	2back	Block4	2back/STIM_027.jpg	99
2312.11	0.692	691.7	2back	Block4	2back/STIM_027.jpg	99
2315.06	0.828	828.1	2back	Block4	2back/STIM_027.jpg	99
2318.079	0.591	591.0	2back	Block4	2back/STIM_028.jpg	100
2321.644	1.175	1175.3	2back	Block4	2back/STIM_028.jpg	99
2325.252	0.827	826.6	2back	Block4	2back/STIM_028.jpg	100
2328.803	0.643	643.3	2back	Block4	2back/STIM_029.jpg	99
2331.934	0.97	970.4	2back	Block4	2back/STIM_029.jpg	99
2334.839	0.655	654.6	2back	Block4	2back/STIM_029.jpg	99
2337.839	0.553	552.6	2back	Block4	2back/STIM_030.jpg	99
2341.096	0.616	616.3	2back	Block4	2back/STIM_030.jpg	99
2344.295	0.722	721.9	2back	Block4	2back/STIM_030.jpg	100
2347.508	0.542	542.0	2back	Block4	2back/STIM_031.jpg	99
2351.298	0.486	485.8	2back	Block4	2back/STIM_031.jpg	99
2354.853	1.062	1062.2	2back	Block4	2back/STIM_031.jpg	100
2358.43	0.837	837.0	2back	Block4	2back/STIM_032.jpg	99
2362.742	1.061	1060.9	2back	Block4	2back/STIM_032.jpg	100
2365.9	0.623	623.0	2back	Block4	2back/STIM_032.jpg	100
2368.757	0.619	618.7	2back	Block4	2back/STIM_033.jpg	100
2371.776	0.787	787.0	2back	Block4	2back/STIM_033.jpg	100
2375.638	1.018	1018.0	2back	Block4	2back/STIM_033.jpg	100
2378.82	0.712	711.9	2back	Block4	2back/STIM_034.jpg	100
2382.626	0.54	540.1	2back	Block4	2back/STIM_034.jpg	99
2386.221	1.031	1030.6	2back	Block4	2back/STIM_034.jpg	100
2389.559	0.632	632.3	2back	Block4	2back/STIM_035.jpg	100
2394.031	1.02	1019.7	2back	Block4	2back/STIM_035.jpg	99
2398.24	0.866	865.6	2back	Block4	2back/STIM_035.jpg	100
2402.891	0.865	865.1	2back	Block4	2back/STIM_036.jpg	99
2406.635	0.776	776.4	2back	Block4	2back/STIM_036.jpg	99
2411.293	1.024	1023.5	2back	Block4	2back/STIM_036.jpg	100
2415.43	0.816	815.5	2back	Block4	2back/STIM_037.jpg	100
2419.326	1.087	1086.8	2back	Block4	2back/STIM_037.jpg	100
2422.424	1.045	1044.9	2back	Block4	2back/STIM_037.jpg	99
2426.908	0.663	662.7	2back	Block4	2back/STIM_038.jpg	99
2430.765	1.139	1138.7	2back	Block4	2back/STIM_038.jpg	99
2435.431	0.914	913.8	2back	Block4	2back/STIM_038.jpg	100
2438.694	0.693	692.9	2back	Block4	2back/STIM_039.jpg	100
2442.416	1.043	1042.7	2back	Block4	2back/STIM_039.jpg	100
2447.147	0.993	993.3	2back	Block4	2back/STIM_039.jpg	100
2451.472	0.418	417.8	0back	Block4	0back/STIM_000.jpg	99
2454.52	0.542	541.8	0back	Block4	0back/STIM_000.jpg	99
2458.054	0.61	609.8	0back	Block4	0back/STIM_000.jpg	99
2461.011	0.856	855.8	0back	Block4	0back/STIM_001.jpg	100
2465.128	0.766	766.0	0back	Block4	0back/STIM_001.jpg	100
2468.474	0.865	864.8	0back	Block4	0back/STIM_001.jpg	100
2471.836	0.645	645.4	0back	Block4	0back/STIM_002.jpg	99
2475.116	0.685	685.0	0back	Block4	0back/STIM_002.jpg	99
2478.714	0.525	525.3	0back	Block4	0back/STIM_002.jpg	99
2482.273	0.598	597.7	0back	Block4	0back/STIM_003.jpg	99
2485.504	0.5	500.0	0back	Block4	0back/STIM_003.jpg	99
2488.778	0.49	489.7	0back	Block4	0back/STIM_003.jpg	99
2492.753	0.858	858.5	0back	Block4	0back/STIM_004.jpg	99
2496.086	0.73	729.9	0back	Block4	0back/STIM_004.jpg	99
2499.136	0.61	610.1	0back	Block4	0back/STIM_004.jpg	99
2503.373	0.847	846.7	0back	Block4	0back/STIM_005.jpg	100
2506.766	0.773	772.7	0back	Block4	0back/STIM_005.jpg	100
2511.391	0.487	487.3	0back	Block4	0back/STIM_005.jpg	100
2514.654	0.758	758.0	0back	Block4	0back/STIM_006.jpg	100
2518.941	0.603	603.4	0back	Block4	0back/STIM_006.jpg	100
2523.368	0.799	798.7	0back	Block4	0back/STIM_006.jpg	99
2527.616	0.736	736.2	0back	Block4	0back/STIM_007.jpg	99
2531.527	0.898	898.0	0back	Block4	0back/STIM_007.jpg	99
2535.15	0.556	556.4	0back	Block4	0back/STIM_007.jpg	99
2538.196	0.805	805.4	0back	Block4	0back/STIM_008.jpg	99
2542.7	0.932	932.4	0back	Block4	0back/STIM_008.jpg	99
2546.641	0.75	750.2	0back	Block4	0back/STIM_008.jpg	99
2550.256	0.478	477.7	0back	Block4	0back/STIM_009.jpg	99
2554.014	0.578	577.7	0back	Block4	0back/STIM_009.jpg	100
2557.919	0.646	646.5	0back	Block4	0back/STIM_009.jpg	99
2560.662	0.418	418.2	0back	Block4	0back/STIM_010.jpg	99
2563.284	0.539	538.9	0back	Block4	0back/STIM_010.jpg	100
2566.502	0.529	529.2	0back	Block4	0back/STIM_010.jpg	99
2569.562	0.634	634.4	0back	Block4	0back/STIM_011.jpg	100
2573.277	0.818	818.5	0back	Block4	0back/STIM_011.jpg	99
2577.337	0.819	818.8	0back	Block4	0back/STIM_011.jpg	100
2582.067	0.492	491.9	0back	Block4	0back/STIM_012.jpg	99
2584.834	0.482	481.6	0back	Block4	0back/STIM_012.jpg	100
2588.595	0.47	469.8	0back	Block4	0back/STIM_012.jpg	100
2592.294	0.607	606.9	0back	Block4	0back/STIM_013.jpg	99
2596.651	0.687	686.7	0back	Block4	0back/STIM_013.jpg	99
2599.559	0.956	956.4	0back	Block4	0back/STIM_013.jpg	99
2604.223	0.449	448.8	0back	Block4	0back/STIM_014.jpg	99
2607.039	0.586	586.3	0back	Block4	0back/STIM_014.jpg	99
2611.489	0.452	452.5	0back	Block4	0back/STIM_014.jpg	99
2614.3	0.523	522.8	0back	Block4	0back/STIM_015.jpg	99
2617.133	0.496	496.0	0back	Block4	0back/STIM_015.jpg	100
2619.788	0.453	452.8	0back	Block4	0back/STIM_015.jpg	99
2622.405	0.831	831.4	0back	Block4	0back/STIM_016.jpg	100
2626.762	0.625	624.6	0back	Block4	0back/STIM_016.jpg	100
2631.161	0.545	544.9	0back	Block4	0back/STIM_016.jpg	99
2635.058	0.801	801.4	0back	Block4	0back/STIM_017.jpg	100
2639.489	0.789	789.4	0back	Block4	0back/STIM_017.jpg	100
2642.866	0.791	791.1	0back	Block4	0back/STIM_017.jpg	100
2646.786	0.563	563.1	0back	Block4	0back/STIM_018.jpg	99
2650.598	0.656	656.2	0back	Block4	0back/STIM_018.jpg	99
2653.574	0.515	514.6	0back	Block4	0back/STIM_018.jpg	100
2657.57	0.812	811.7	0back	Block4	0back/STIM_019.jpg	100
2661.569	0.619	619.2	0back	Block4	0back/STIM_019.jpg	99
2664.972	0.621	620.7	0back	Block4	0back/STIM_019.jpg	99
