onset	duration	accuracy_binary	trial_type	learning_stage	stimulus
0.0	1.265	1	study	Phase1	study/STIM_000.jpg
3.683	0.947	1	study	Phase1	study/STIM_000.jpg
8.272	1.196	1	study	Phase1	study/STIM_000.jpg
12.121	0.747	1	study	Phase1	study/STIM_001.jpg
16.858	1.459	1	study	Phase1	study/STIM_001.jpg
21.021	1.46	1	study	Phase1	study/STIM_001.jpg
25.705	1.212	1	study	Phase1	study/STIM_002.jpg
29.321	1.338	1	study	Phase1	study/STIM_002.jpg
33.078	1.223	1	study	Phase1	study/STIM_002.jpg
37.633	1.175	1	study	Phase1	study/STIM_003.jpg
41.718	1.273	1	study	Phase1	study/STIM_003.jpg
45.021	0.845	0	study	Phase1	study/STIM_003.jpg
48.669	1.219	1	study	Phase1	study/STIM_004.jpg
52.94	1.433	1	study	Phase1	study/STIM_004.jpg
57.757	1.016	1	study	Phase1	study/STIM_004.jpg
61.001	1.504	1	study	Phase1	study/STIM_005.jpg
65.108	0.778	1	study	Phase1	study/STIM_005.jpg
68.722	0.746	1	study	Phase1	study/STIM_005.jpg
71.6	0.871	1	study	Phase1	study/STIM_006.jpg
75.187	0.942	1	study	Phase1	study/STIM_006.jpg
79.177	1.022	1	study	Phase1	study/STIM_006.jpg
83.196	1.64	1	study	Phase1	study/STIM_007.jpg
87.048	0.94	1	study	Phase1	study/STIM_007.jpg
90.926	0.703	1	study	Phase1	study/STIM_007.jpg
94.84	1.164	1	study	Phase1	study/STIM_008.jpg
99.117	1.389	1	study	Phase1	study/STIM_008.jpg
104.325	0.841	1	study	Phase1	study/STIM_008.jpg
108.062	1.38	1	study	Phase1	study/STIM_009.jpg
111.661	1.083	1	study	Phase1	study/STIM_009.jpg
116.54	0.845	1	study	Phase1	study/STIM_009.jpg
120.106	1.221	1	study	Phase1	study/STIM_010.jpg
124.118	0.829	1	study	Phase1	study/STIM_010.jpg
127.022	0.949	1	study	Phase1	study/STIM_010.jpg
131.007	1.493	1	study	Phase1	study/STIM_011.jpg
135.065	0.964	1	study	Phase1	study/STIM_011.jpg
138.812	0.782	1	study	Phase1	study/STIM_011.jpg
142.081	1.294	1	study	Phase1	study/STIM_012.jpg
145.722	1.096	1	study	Phase1	study/STIM_012.jpg
150.817	1.254	1	study	Phase1	study/STIM_012.jpg
154.528	0.882	1	study	Phase1	study/STIM_013.jpg
158.042	0.985	1	study	Phase1	study/STIM_013.jpg
162.133	0.845	1	study	Phase1	study/STIM_013.jpg
166.443	0.849	1	study	Phase1	study/STIM_014.jpg
171.257	0.876	1	study	Phase1	study/STIM_014.jpg
174.597	1.256	1	study	Phase1	study/STIM_014.jpg
177.988	1.071	0	study	Phase1	study/STIM_015.jpg
181.641	0.85	1	study	Phase1	study/STIM_015.jpg
186.047	1.314	1	study	Phase1	study/STIM_015.jpg
190.737	0.963	1	study	Phase1	study/STIM_016.jpg
194.621	1.169	1	study	Phase1	study/STIM_016.jpg
199.567	0.843	1	study	Phase1	study/STIM_016.jpg
202.706	1.335	1	study	Phase1	study/STIM_017.jpg
207.742	1.155	1	study	Phase1	study/STIM_017.jpg
211.533	1.24	1	study	Phase1	study/STIM_017.jpg
215.076	1.149	1	study	Phase1	study/STIM_018.jpg
219.996	1.225	1	study	Phase1	study/STIM_018.jpg
224.582	0.81	1	study	Phase1	study/STIM_018.jpg
228.021	1.553	1	study	Phase1	study/STIM_019.jpg
231.716	1.439	1	study	Phase1	study/STIM_019.jpg
236.664	1.308	1	study	Phase1	study/STIM_019.jpg
240.666	1.534	1	study	Phase1	study/STIM_020.jpg
246.191	1.06	1	study	Phase1	study/STIM_020.jpg
251.24	0.83	1	study	Phase1	study/STIM_020.jpg
256.067	1.608	1	study	Phase1	study/STIM_021.jpg
259.872	1.074	1	study	Phase1	study/STIM_021.jpg
264.525	1.168	1	study	Phase1	study/STIM_021.jpg
267.934	1.144	1	study	Phase1	study/STIM_022.jpg
272.445	0.781	1	study	Phase1	study/STIM_022.jpg
277.108	1.316	1	study	Phase1	study/STIM_022.jpg
280.618	1.47	1	study	Phase1	study/STIM_023.jpg
285.185	1.403	1	study	Phase1	study/STIM_023.jpg
289.528	0.858	0	study	Phase1	study/STIM_023.jpg
292.694	0.793	1	study	Phase1	study/STIM_024.jpg
296.221	1.267	1	study	Phase1	study/STIM_024.jpg
300.958	1.275	1	study	Phase1	study/STIM_024.jpg
305.329	1.348	1	study	Phase1	study/STIM_025.jpg
310.089	1.351	1	study	Phase1	study/STIM_025.jpg
314.395	1.025	1	study	Phase1	study/STIM_025.jpg
318.339	1.289	1	study	Phase1	study/STIM_026.jpg
323.307	1.275	1	study	Phase1	study/STIM_026.jpg
327.895	0.954	1	study	Phase1	study/STIM_026.jpg
332.307	1.369	1	study	Phase1	study/STIM_027.jpg
337.488	0.994	1	study	Phase1	study/STIM_027.jpg
341.795	0.755	1	study	Phase1	study/STIM_027.jpg
346.194	1.395	1	study	Phase1	study/STIM_028.jpg
351.364	1.509	1	study	Phase1	study/STIM_028.jpg
355.609	0.703	1	study	Phase1	study/STIM_028.jpg
359.899	0.914	0	study	Phase1	study/STIM_029.jpg
363.985	0.815	1	study	Phase1	study/STIM_029.jpg
368.434	1.149	1	study	Phase1	study/STIM_029.jpg
372.57	1.132	1	test	Phase1	test/STIM_000.jpg
375.73	1.067	1	test	Phase1	test/STIM_000.jpg
379.432	0.871	1	test	Phase1	test/STIM_000.jpg
383.636	0.988	1	test	Phase1	test/STIM_001.jpg
388.07	0.842	1	test	Phase1	test/STIM_001.jpg
392.487	0.781	1	test	Phase1	test/STIM_001.jpg
395.823	0.68	1	test	Phase1	test/STIM_002.jpg
400.334	0.644	1	test	Phase1	test/STIM_002.jpg
404.912	0.641	1	test	Phase1	test/STIM_002.jpg
407.952	0.661	1	test	Phase1	test/STIM_003.jpg
412.033	1.043	1	test	Phase1	test/STIM_003.jpg
415.349	1.156	1	test	Phase1	test/STIM_003.jpg
420.068	0.605	1	test	Phase1	test/STIM_004.jpg
423.465	0.911	1	test	Phase1	test/STIM_004.jpg
427.803	0.985	1	test	Phase1	test/STIM_004.jpg
430.947	0.937	1	test	Phase1	test/STIM_005.jpg
434.656	0.562	1	test	Phase1	test/STIM_005.jpg
438.617	0.926	1	test	Phase1	test/STIM_005.jpg
443.541	0.961	1	test	Phase1	test/STIM_006.jpg
447.647	0.711	1	test	Phase1	test/STIM_006.jpg
451.062	0.888	1	test	Phase1	test/STIM_006.jpg
455.285	0.836	1	test	Phase1	test/STIM_007.jpg
459.103	1.067	1	test	Phase1	test/STIM_007.jpg
462.4	1.165	0	test	Phase1	test/STIM_007.jpg
466.738	0.574	1	test	Phase1	test/STIM_008.jpg
470.679	0.731	1	test	Phase1	test/STIM_008.jpg
473.995	0.721	0	test	Phase1	test/STIM_008.jpg
477.916	0.688	1	test	Phase1	test/STIM_009.jpg
481.76	0.558	1	test	Phase1	test/STIM_009.jpg
485.16	0.985	1	test	Phase1	test/STIM_009.jpg
488.67	0.988	1	test	Phase1	test/STIM_010.jpg
491.829	1.154	1	test	Phase1	test/STIM_010.jpg
495.986	0.642	1	test	Phase1	test/STIM_010.jpg
499.763	0.974	1	test	Phase1	test/STIM_011.jpg
504.232	0.688	1	test	Phase1	test/STIM_011.jpg
506.946	0.601	1	test	Phase1	test/STIM_011.jpg
509.918	0.871	1	test	Phase1	test/STIM_012.jpg
514.235	1.04	1	test	Phase1	test/STIM_012.jpg
518.676	0.669	1	test	Phase1	test/STIM_012.jpg
522.486	0.959	1	test	Phase1	test/STIM_013.jpg
527.333	1.012	1	test	Phase1	test/STIM_013.jpg
531.445	0.74	1	test	Phase1	test/STIM_013.jpg
536.146	1.011	1	test	Phase1	test/STIM_014.jpg
539.202	0.72	1	test	Phase1	test/STIM_014.jpg
542.776	0.573	1	test	Phase1	test/STIM_014.jpg
546.763	0.607	0	test	Phase1	test/STIM_015.jpg
550.576	1.139	1	test	Phase1	test/STIM_015.jpg
554.582	0.682	1	test	Phase1	test/STIM_015.jpg
558.724	1.086	1	test	Phase1	test/STIM_016.jpg
563.178	0.595	1	test	Phase1	test/STIM_016.jpg
566.657	0.731	1	test	Phase1	test/STIM_016.jpg
569.853	1.133	1	test	Phase1	test/STIM_017.jpg
573.839	0.634	1	test	Phase1	test/STIM_017.jpg
577.442	0.91	1	test	Phase1	test/STIM_017.jpg
581.971	0.886	1	test	Phase1	test/STIM_018.jpg
585.104	0.672	1	test	Phase1	test/STIM_018.jpg
588.884	0.785	1	test	Phase1	test/STIM_018.jpg
592.797	0.608	1	test	Phase1	test/STIM_019.jpg
596.304	0.819	1	test	Phase1	test/STIM_019.jpg
600.261	1.04	1	test	Phase1	test/STIM_019.jpg
605.193	0.83	0	test	Phase1	test/STIM_020.jpg
608.048	1.008	1	test	Phase1	test/STIM_020.jpg
611.836	0.98	1	test	Phase1	test/STIM_020.jpg
615.262	0.559	1	test	Phase1	test/STIM_021.jpg
618.268	1.194	1	test	Phase1	test/STIM_021.jpg
622.961	0.65	1	test	Phase1	test/STIM_021.jpg
625.782	0.7	1	test	Phase1	test/STIM_022.jpg
628.517	1.068	1	test	Phase1	test/STIM_022.jpg
631.823	0.729	1	test	Phase1	test/STIM_022.jpg
635.001	0.903	1	test	Phase1	test/STIM_023.jpg
638.678	0.889	1	test	Phase1	test/STIM_023.jpg
642.131	0.841	1	test	Phase1	test/STIM_023.jpg
645.522	0.695	1	test	Phase1	test/STIM_024.jpg
650.122	1.14	1	test	Phase1	test/STIM_024.jpg
654.106	0.918	1	test	Phase1	test/STIM_024.jpg
657.21	1.057	1	test	Phase1	test/STIM_025.jpg
660.805	1.118	1	test	Phase1	test/STIM_025.jpg
665.761	0.803	1	test	Phase1	test/STIM_025.jpg
668.873	0.919	1	test	Phase1	test/STIM_026.jpg
672.35	1.088	1	test	Phase1	test/STIM_026.jpg
676.757	1.074	1	test	Phase1	test/STIM_026.jpg
681.003	1.048	1	test	Phase1	test/STIM_027.jpg
684.193	0.954	1	test	Phase1	test/STIM_027.jpg
688.437	1.008	0	test	Phase1	test/STIM_027.jpg
692.657	0.68	1	test	Phase1	test/STIM_028.jpg
696.49	1.184	1	test	Phase1	test/STIM_028.jpg
700.271	0.617	1	test	Phase1	test/STIM_028.jpg
704.524	1.052	1	test	Phase1	test/STIM_029.jpg
707.789	0.815	1	test	Phase1	test/STIM_029.jpg
711.326	1.016	1	test	Phase1	test/STIM_029.jpg
715.429	0.904	0	study	Phase2	study/STIM_000.jpg
719.218	0.801	1	study	Phase2	study/STIM_000.jpg
722.31	0.944	1	study	Phase2	study/STIM_000.jpg
727.163	1.094	1	study	Phase2	study/STIM_001.jpg
731.497	1.255	0	study	Phase2	study/STIM_001.jpg
735.959	1.216	1	study	Phase2	study/STIM_001.jpg
739.717	1.221	1	study	Phase2	study/STIM_002.jpg
743.275	1.011	1	study	Phase2	study/STIM_002.jpg
747.195	0.789	1	study	Phase2	study/STIM_002.jpg
751.192	1.032	1	study	Phase2	study/STIM_003.jpg
754.229	0.651	1	study	Phase2	study/STIM_003.jpg
757.777	1.112	1	study	Phase2	study/STIM_003.jpg
762.505	0.811	1	study	Phase2	study/STIM_004.jpg
767.065	1.192	1	study	Phase2	study/STIM_004.jpg
770.334	0.781	1	study	Phase2	study/STIM_004.jpg
774.064	0.904	1	study	Phase2	study/STIM_005.jpg
778.1	0.908	1	study	Phase2	study/STIM_005.jpg
781.037	1.152	1	study	Phase2	study/STIM_005.jpg
785.093	1.317	0	study	Phase2	study/STIM_006.jpg
789.921	0.887	1	study	Phase2	study/STIM_006.jpg
794.807	1.174	1	study	Phase2	study/STIM_006.jpg
798.277	1.051	1	study	Phase2	study/STIM_007.jpg
802.141	0.794	1	study	Phase2	study/STIM_007.jpg
806.353	1.086	1	study	Phase2	study/STIM_007.jpg
809.964	1.021	1	study	Phase2	study/STIM_008.jpg
813.68	0.74	1	study	Phase2	study/STIM_008.jpg
817.269	1.156	1	study	Phase2	study/STIM_008.jpg
820.763	0.846	1	study	Phase2	study/STIM_009.jpg
824.099	0.785	1	study	Phase2	study/STIM_009.jpg
827.905	1.039	1	study	Phase2	study/STIM_009.jpg
831.953	1.154	1	study	Phase2	study/STIM_010.jpg
835.363	0.689	1	study	Phase2	study/STIM_010.jpg
838.34	0.763	1	study	Phase2	study/STIM_010.jpg
842.289	0.835	1	study	Phase2	study/STIM_011.jpg
845.86	0.662	1	study	Phase2	study/STIM_011.jpg
850.006	1.095	1	study	Phase2	study/STIM_011.jpg
854.136	0.886	1	study	Phase2	study/STIM_012.jpg
857.153	1.287	1	study	Phase2	study/STIM_012.jpg
861.257	1.144	1	study	Phase2	study/STIM_012.jpg
865.52	1.21	1	study	Phase2	study/STIM_013.jpg
869.057	0.869	1	study	Phase2	study/STIM_013.jpg
873.489	0.787	1	study	Phase2	study/STIM_013.jpg
876.689	0.824	1	study	Phase2	study/STIM_014.jpg
880.389	1.121	1	study	Phase2	study/STIM_014.jpg
884.599	1.004	1	study	Phase2	study/STIM_014.jpg
888.007	0.937	1	study	Phase2	study/STIM_015.jpg
891.011	0.658	1	study	Phase2	study/STIM_015.jpg
894.067	0.866	1	study	Phase2	study/STIM_015.jpg
898.659	0.677	1	study	Phase2	study/STIM_016.jpg
901.626	0.676	1	study	Phase2	study/STIM_016.jpg
905.046	0.61	1	study	Phase2	study/STIM_016.jpg
908.716	1.145	1	study	Phase2	study/STIM_017.jpg
912.453	1.064	1	study	Phase2	study/STIM_017.jpg
916.31	0.756	1	study	Phase2	study/STIM_017.jpg
920.82	1.379	1	study	Phase2	study/STIM_018.jpg
924.805	1.258	1	study	Phase2	study/STIM_018.jpg
928.754	0.995	1	study	Phase2	study/STIM_018.jpg
933.505	1.106	1	study	Phase2	study/STIM_019.jpg
936.759	1.309	1	study	Phase2	study/STIM_019.jpg
941.213	0.9	1	study	Phase2	study/STIM_019.jpg
945.406	0.895	1	study	Phase2	study/STIM_020.jpg
949.953	1.057	1	study	Phase2	study/STIM_020.jpg
954.518	0.888	1	study	Phase2	study/STIM_020.jpg
958.291	0.794	0	study	Phase2	study/STIM_021.jpg
961.792	0.608	1	study	Phase2	study/STIM_021.jpg
964.735	1.102	1	study	Phase2	study/STIM_021.jpg
969.066	1.359	1	study	Phase2	study/STIM_022.jpg
972.751	1.26	1	study	Phase2	study/STIM_022.jpg
977.127	1.064	1	study	Phase2	study/STIM_022.jpg
981.381	0.961	1	study	Phase2	study/STIM_023.jpg
986.095	0.708	1	study	Phase2	study/STIM_023.jpg
989.522	0.69	1	study	Phase2	study/STIM_023.jpg
992.465	1.361	0	study	Phase2	study/STIM_024.jpg
997.605	0.714	0	study	Phase2	study/STIM_024.jpg
1001.295	0.799	1	study	Phase2	study/STIM_024.jpg
1005.375	1.359	1	study	Phase2	study/STIM_025.jpg
1009.724	0.744	1	study	Phase2	study/STIM_025.jpg
1012.667	0.746	1	study	Phase2	study/STIM_025.jpg
1016.143	1.12	1	study	Phase2	study/STIM_026.jpg
1019.477	1.162	1	study	Phase2	study/STIM_026.jpg
1024.276	0.648	1	study	Phase2	study/STIM_026.jpg
1028.188	1.222	1	study	Phase2	study/STIM_027.jpg
1032.552	0.936	1	study	Phase2	study/STIM_027.jpg
1035.852	0.694	1	study	Phase2	study/STIM_027.jpg
1038.771	1.311	1	study	Phase2	study/STIM_028.jpg
1043.953	1.244	1	study	Phase2	study/STIM_028.jpg
1048.479	0.815	1	study	Phase2	study/STIM_028.jpg
1052.763	0.724	1	study	Phase2	study/STIM_029.jpg
1056.802	0.771	1	study	Phase2	study/STIM_029.jpg
1060.062	1.025	0	study	Phase2	study/STIM_029.jpg
1064.529	0.77	1	test	Phase2	test/STIM_000.jpg
1068.267	0.678	1	test	Phase2	test/STIM_000.jpg
1070.945	0.794	1	test	Phase2	test/STIM_000.jpg
1074.459	0.62	1	test	Phase2	test/STIM_001.jpg
1077.467	0.91	1	test	Phase2	test/STIM_001.jpg
1081.389	0.736	1	test	Phase2	test/STIM_001.jpg
1084.834	0.974	1	test	Phase2	test/STIM_002.jpg
1088.468	1.15	1	test	Phase2	test/STIM_002.jpg
1092.425	0.616	1	test	Phase2	test/STIM_002.jpg
1096.269	0.641	1	test	Phase2	test/STIM_003.jpg
1099.673	0.651	1	test	Phase2	test/STIM_003.jpg
1103.168	0.967	1	test	Phase2	test/STIM_003.jpg
1106.177	0.86	1	test	Phase2	test/STIM_004.jpg
1109.35	0.99	1	test	Phase2	test/STIM_004.jpg
1114.021	0.885	1	test	Phase2	test/STIM_004.jpg
1117.548	0.697	1	test	Phase2	test/STIM_005.jpg
1121.659	0.998	1	test	Phase2	test/STIM_005.jpg
1126.22	1.071	1	test	Phase2	test/STIM_005.jpg
1130.593	1.142	1	test	Phase2	test/STIM_006.jpg
1133.759	0.858	1	test	Phase2	test/STIM_006.jpg
1136.791	0.65	0	test	Phase2	test/STIM_006.jpg
1139.64	0.759	0	test	Phase2	test/STIM_007.jpg
1143.648	1.002	1	test	Phase2	test/STIM_007.jpg
1148.39	0.555	1	test	Phase2	test/STIM_007.jpg
1152.574	0.573	1	test	Phase2	test/STIM_008.jpg
1155.508	0.88	1	test	Phase2	test/STIM_008.jpg
1159.686	0.791	1	test	Phase2	test/STIM_008.jpg
1162.487	1.166	1	test	Phase2	test/STIM_009.jpg
1167.614	0.99	0	test	Phase2	test/STIM_009.jpg
1171.834	0.798	1	test	Phase2	test/STIM_009.jpg
1176.214	0.857	1	test	Phase2	test/STIM_010.jpg
1181.033	0.819	1	test	Phase2	test/STIM_010.jpg
1185.331	0.976	1	test	Phase2	test/STIM_010.jpg
1188.31	0.777	1	test	Phase2	test/STIM_011.jpg
1192.935	0.779	1	test	Phase2	test/STIM_011.jpg
1195.721	1.074	1	test	Phase2	test/STIM_011.jpg
1200.56	1.027	1	test	Phase2	test/STIM_012.jpg
1205.085	1.065	1	test	Phase2	test/STIM_012.jpg
1209.472	1.121	0	test	Phase2	test/STIM_012.jpg
1213.725	1.178	1	test	Phase2	test/STIM_013.jpg
1218.406	0.806	1	test	Phase2	test/STIM_013.jpg
1221.883	0.652	1	test	Phase2	test/STIM_013.jpg
1225.429	0.733	1	test	Phase2	test/STIM_014.jpg
1228.384	0.904	1	test	Phase2	test/STIM_014.jpg
1231.68	1.172	1	test	Phase2	test/STIM_014.jpg
1235.297	1.091	1	test	Phase2	test/STIM_015.jpg
1239.848	0.958	1	test	Phase2	test/STIM_015.jpg
1242.995	0.945	1	test	Phase2	test/STIM_015.jpg
1246.202	0.664	1	test	Phase2	test/STIM_016.jpg
1249.136	0.932	1	test	Phase2	test/STIM_016.jpg
1252.646	0.911	1	test	Phase2	test/STIM_016.jpg
1257.247	0.922	1	test	Phase2	test/STIM_017.jpg
1260.938	0.72	1	test	Phase2	test/STIM_017.jpg
1264.171	0.823	1	test	Phase2	test/STIM_017.jpg
1267.498	1.006	1	test	Phase2	test/STIM_018.jpg
1270.531	0.607	1	test	Phase2	test/STIM_018.jpg
1273.568	0.754	1	test	Phase2	test/STIM_018.jpg
1278.054	0.658	1	test	Phase2	test/STIM_019.jpg
1281.647	1.058	1	test	Phase2	test/STIM_019.jpg
1286.17	0.626	1	test	Phase2	test/STIM_019.jpg
1289.251	0.634	1	test	Phase2	test/STIM_020.jpg
1293.275	0.644	1	test	Phase2	test/STIM_020.jpg
1296.493	0.796	1	test	Phase2	test/STIM_020.jpg
1299.673	0.629	1	test	Phase2	test/STIM_021.jpg
1304.166	0.63	1	test	Phase2	test/STIM_021.jpg
1308.383	1.148	1	test	Phase2	test/STIM_021.jpg
1312.446	1.087	1	test	Phase2	test/STIM_022.jpg
1316.458	0.964	1	test	Phase2	test/STIM_022.jpg
1319.646	1.112	1	test	Phase2	test/STIM_022.jpg
1323.393	0.86	1	test	Phase2	test/STIM_023.jpg
1328.215	0.93	1	test	Phase2	test/STIM_023.jpg
1332.637	1.083	1	test	Phase2	test/STIM_023.jpg
1335.887	0.739	1	test	Phase2	test/STIM_024.jpg
1339.059	0.864	1	test	Phase2	test/STIM_024.jpg
1341.996	0.974	1	test	Phase2	test/STIM_024.jpg
1345.026	1.155	1	test	Phase2	test/STIM_025.jpg
1348.329	1.127	1	test	Phase2	test/STIM_025.jpg
1351.935	0.583	1	test	Phase2	test/STIM_025.jpg
1356.456	0.673	1	test	Phase2	test/STIM_026.jpg
1359.604	0.922	1	test	Phase2	test/STIM_026.jpg
1362.788	0.745	1	test	Phase2	test/STIM_026.jpg
1365.99	0.637	1	test	Phase2	test/STIM_027.jpg
1368.714	1.023	1	test	Phase2	test/STIM_027.jpg
1372.271	0.776	1	test	Phase2	test/STIM_027.jpg
1375.393	0.868	1	test	Phase2	test/STIM_028.jpg
1379.179	0.571	1	test	Phase2	test/STIM_028.jpg
1382.556	0.736	1	test	Phase2	test/STIM_028.jpg
1385.69	1.17	1	test	Phase2	test/STIM_029.jpg
1389.933	0.828	1	test	Phase2	test/STIM_029.jpg
1393.608	0.998	1	test	Phase2	test/STIM_029.jpg
1396.665	0.879	1	study	Phase3	study/STIM_000.jpg
1400.882	0.773	1	study	Phase3	study/STIM_000.jpg
1403.897	0.769	1	study	Phase3	study/STIM_000.jpg
1407.29	0.859	1	study	Phase3	study/STIM_001.jpg
1410.488	0.995	1	study	Phase3	study/STIM_001.jpg
1415.382	0.652	1	study	Phase3	study/STIM_001.jpg
1418.411	0.681	1	study	Phase3	study/STIM_002.jpg
1422.911	0.599	1	study	Phase3	study/STIM_002.jpg
1427.415	0.991	1	study	Phase3	study/STIM_002.jpg
1431.22	1.025	1	study	Phase3	study/STIM_003.jpg
1435.465	1.074	1	study	Phase3	study/STIM_003.jpg
1438.961	0.781	1	study	Phase3	study/STIM_003.jpg
1442.756	0.752	1	study	Phase3	study/STIM_004.jpg
1447.259	0.642	1	study	Phase3	study/STIM_004.jpg
1451.312	0.544	1	study	Phase3	study/STIM_004.jpg
1454.808	1.044	1	study	Phase3	study/STIM_005.jpg
1457.979	0.806	1	study	Phase3	study/STIM_005.jpg
1461.126	0.694	1	study	Phase3	study/STIM_005.jpg
1465.061	0.797	1	study	Phase3	study/STIM_006.jpg
1469.794	1.114	1	study	Phase3	study/STIM_006.jpg
1473.573	0.718	1	study	Phase3	study/STIM_006.jpg
1476.472	1.111	1	study	Phase3	study/STIM_007.jpg
1479.829	0.68	1	study	Phase3	study/STIM_007.jpg
1483.464	1.09	1	study	Phase3	study/STIM_007.jpg
1487.766	0.564	1	study	Phase3	study/STIM_008.jpg
1490.891	1.097	1	study	Phase3	study/STIM_008.jpg
1495.046	0.906	1	study	Phase3	study/STIM_008.jpg
1499.624	1.134	1	study	Phase3	study/STIM_009.jpg
1502.758	0.855	1	study	Phase3	study/STIM_009.jpg
1505.741	0.95	1	study	Phase3	study/STIM_009.jpg
1510.608	1.02	1	study	Phase3	study/STIM_010.jpg
1515.537	0.663	1	study	Phase3	study/STIM_010.jpg
1519.487	0.862	1	study	Phase3	study/STIM_010.jpg
1523.561	1.07	1	study	Phase3	study/STIM_011.jpg
1527.975	0.833	1	study	Phase3	study/STIM_011.jpg
1531.116	0.86	1	study	Phase3	study/STIM_011.jpg
1534.391	1.14	1	study	Phase3	study/STIM_012.jpg
1538.392	1.078	1	study	Phase3	study/STIM_012.jpg
1541.669	1.128	1	study	Phase3	study/STIM_012.jpg
1546.325	1.054	1	study	Phase3	study/STIM_013.jpg
1550.814	0.746	1	study	Phase3	study/STIM_013.jpg
1554.336	1.011	1	study	Phase3	study/STIM_013.jpg
1558.026	0.819	1	study	Phase3	study/STIM_014.jpg
1562.221	1.061	1	study	Phase3	study/STIM_014.jpg
1567.173	1.023	1	study	Phase3	study/STIM_014.jpg
1570.868	0.678	1	study	Phase3	study/STIM_015.jpg
1574.836	0.559	1	study	Phase3	study/STIM_015.jpg
1579.05	0.75	1	study	Phase3	study/STIM_015.jpg
1582.087	0.981	1	study	Phase3	study/STIM_016.jpg
1586.534	0.596	1	study	Phase3	study/STIM_016.jpg
1589.476	0.896	1	study	Phase3	study/STIM_016.jpg
1594.323	0.841	1	study	Phase3	study/STIM_017.jpg
1597.377	0.616	1	study	Phase3	study/STIM_017.jpg
1600.102	0.78	1	study	Phase3	study/STIM_017.jpg
1604.187	0.798	1	study	Phase3	study/STIM_018.jpg
1607.278	0.579	1	study	Phase3	study/STIM_018.jpg
1610.47	0.595	1	study	Phase3	study/STIM_018.jpg
1614.911	0.629	0	study	Phase3	study/STIM_019.jpg
1618.137	0.908	1	study	Phase3	study/STIM_019.jpg
1621.523	0.618	1	study	Phase3	study/STIM_019.jpg
1626.008	0.751	1	study	Phase3	study/STIM_020.jpg
1629.102	0.95	1	study	Phase3	study/STIM_020.jpg
1634.011	0.92	1	study	Phase3	study/STIM_020.jpg
1637.38	0.542	1	study	Phase3	study/STIM_021.jpg
1641.499	1.03	1	study	Phase3	study/STIM_021.jpg
1645.244	1.022	1	study	Phase3	study/STIM_021.jpg
1649.565	0.874	1	study	Phase3	study/STIM_022.jpg
1653.922	0.749	1	study	Phase3	study/STIM_022.jpg
1657.052	0.897	1	study	Phase3	study/STIM_022.jpg
1661.606	0.851	1	study	Phase3	study/STIM_023.jpg
1664.623	0.836	1	study	Phase3	study/STIM_023.jpg
1669.179	0.982	1	study	Phase3	study/STIM_023.jpg
1672.675	0.767	1	study	Phase3	study/STIM_024.jpg
1675.454	1.105	1	study	Phase3	study/STIM_024.jpg
1680.152	0.861	1	study	Phase3	study/STIM_024.jpg
1684.532	0.702	1	study	Phase3	study/STIM_025.jpg
1688.738	1.014	1	study	Phase3	study/STIM_025.jpg
1693.208	0.711	1	study	Phase3	study/STIM_025.jpg
1696.145	0.842	1	study	Phase3	study/STIM_026.jpg
1699.452	0.769	1	study	Phase3	study/STIM_026.jpg
1703.328	0.554	1	study	Phase3	study/STIM_026.jpg
1706.626	0.913	1	study	Phase3	study/STIM_027.jpg
1711.063	0.812	1	study	Phase3	study/STIM_027.jpg
1715.802	1.074	1	study	Phase3	study/STIM_027.jpg
1720.278	1.003	1	study	Phase3	study/STIM_028.jpg
1725.203	0.666	1	study	Phase3	study/STIM_028.jpg
1729.177	0.847	1	study	Phase3	study/STIM_028.jpg
1733.374	0.994	1	study	Phase3	study/STIM_029.jpg
1737.31	0.791	1	study	Phase3	study/STIM_029.jpg
1741.697	0.529	1	study	Phase3	study/STIM_029.jpg
1746.033	0.994	1	test	Phase3	test/STIM_000.jpg
1749.379	1.166	1	test	Phase3	test/STIM_000.jpg
1752.748	1.152	1	test	Phase3	test/STIM_000.jpg
1756.214	0.699	1	test	Phase3	test/STIM_001.jpg
1759.786	0.824	1	test	Phase3	test/STIM_001.jpg
1764.011	0.789	1	test	Phase3	test/STIM_001.jpg
1768.292	0.851	1	test	Phase3	test/STIM_002.jpg
1773.067	1.174	1	test	Phase3	test/STIM_002.jpg
1776.709	0.715	1	test	Phase3	test/STIM_002.jpg
1779.584	0.579	1	test	Phase3	test/STIM_003.jpg
1783.983	0.702	1	test	Phase3	test/STIM_003.jpg
1788.476	0.782	1	test	Phase3	test/STIM_003.jpg
1792.93	0.714	1	test	Phase3	test/STIM_004.jpg
1797.627	1.031	1	test	Phase3	test/STIM_004.jpg
1802.194	0.567	1	test	Phase3	test/STIM_004.jpg
1806.251	0.722	1	test	Phase3	test/STIM_005.jpg
1809.56	0.664	1	test	Phase3	test/STIM_005.jpg
1812.472	1.094	1	test	Phase3	test/STIM_005.jpg
1816.18	0.888	1	test	Phase3	test/STIM_006.jpg
1820.926	0.612	1	test	Phase3	test/STIM_006.jpg
1823.809	0.566	1	test	Phase3	test/STIM_006.jpg
1827.527	0.796	1	test	Phase3	test/STIM_007.jpg
1831.272	0.881	1	test	Phase3	test/STIM_007.jpg
1835.48	0.854	1	test	Phase3	test/STIM_007.jpg
1838.338	1.09	1	test	Phase3	test/STIM_008.jpg
1841.854	1.027	1	test	Phase3	test/STIM_008.jpg
1845.406	0.834	1	test	Phase3	test/STIM_008.jpg
1848.556	0.579	1	test	Phase3	test/STIM_009.jpg
1851.85	0.737	1	test	Phase3	test/STIM_009.jpg
1855.595	0.567	1	test	Phase3	test/STIM_009.jpg
1858.812	0.863	1	test	Phase3	test/STIM_010.jpg
1862.261	0.983	1	test	Phase3	test/STIM_010.jpg
1866.794	0.863	1	test	Phase3	test/STIM_010.jpg
1870.527	0.639	1	test	Phase3	test/STIM_011.jpg
1873.967	0.617	1	test	Phase3	test/STIM_011.jpg
1877.831	0.962	0	test	Phase3	test/STIM_011.jpg
1882.501	1.106	1	test	Phase3	test/STIM_012.jpg
1886.602	1.07	1	test	Phase3	test/STIM_012.jpg
1890.398	0.758	1	test	Phase3	test/STIM_012.jpg
1893.883	0.998	1	test	Phase3	test/STIM_013.jpg
1898.225	1.06	1	test	Phase3	test/STIM_013.jpg
1902.197	0.915	1	test	Phase3	test/STIM_013.jpg
1905.412	0.665	1	test	Phase3	test/STIM_014.jpg
1909.16	0.796	1	test	Phase3	test/STIM_014.jpg
1912.183	0.936	1	test	Phase3	test/STIM_014.jpg
1915.37	0.631	1	test	Phase3	test/STIM_015.jpg
1919.884	1.0	1	test	Phase3	test/STIM_015.jpg
1924.226	0.749	1	test	Phase3	test/STIM_015.jpg
1928.96	0.669	1	test	Phase3	test/STIM_016.jpg
1933.392	0.895	1	test	Phase3	test/STIM_016.jpg
1936.527	1.173	0	test	Phase3	test/STIM_016.jpg
1940.654	1.105	0	test	Phase3	test/STIM_017.jpg
1944.926	0.657	1	test	Phase3	test/STIM_017.jpg
1948.045	1.107	1	test	Phase3	test/STIM_017.jpg
1951.714	1.024	1	test	Phase3	test/STIM_018.jpg
1956.221	0.866	1	test	Phase3	test/STIM_018.jpg
1960.876	0.991	1	test	Phase3	test/STIM_018.jpg
1964.933	0.763	0	test	Phase3	test/STIM_019.jpg
1968.951	0.675	1	test	Phase3	test/STIM_019.jpg
1973.035	0.989	1	test	Phase3	test/STIM_019.jpg
1976.98	0.854	1	test	Phase3	test/STIM_020.jpg
1981.077	0.724	1	test	Phase3	test/STIM_020.jpg
1983.944	0.949	1	test	Phase3	test/STIM_020.jpg
1988.033	0.938	1	test	Phase3	test/STIM_021.jpg
1991.363	0.597	1	test	Phase3	test/STIM_021.jpg
1995.654	0.904	1	test	Phase3	test/STIM_021.jpg
2000.193	0.695	1	test	Phase3	test/STIM_022.jpg
2003.736	0.59	1	test	Phase3	test/STIM_022.jpg
2007.447	0.758	0	test	Phase3	test/STIM_022.jpg
2011.978	0.684	1	test	Phase3	test/STIM_023.jpg
2016.232	0.954	1	test	Phase3	test/STIM_023.jpg
2019.812	0.915	1	test	Phase3	test/STIM_023.jpg
2024.421	0.676	0	test	Phase3	test/STIM_024.jpg
2028.067	1.034	1	test	Phase3	test/STIM_024.jpg
2031.567	0.757	1	test	Phase3	test/STIM_024.jpg
2035.818	0.727	1	test	Phase3	test/STIM_025.jpg
2040.359	0.95	1	test	Phase3	test/STIM_025.jpg
2043.589	0.596	1	test	Phase3	test/STIM_025.jpg
2047.625	0.793	1	test	Phase3	test/STIM_026.jpg
2051.066	0.65	1	test	Phase3	test/STIM_026.jpg
2054.693	1.158	1	test	Phase3	test/STIM_026.jpg
2058.218	1.04	1	test	Phase3	test/STIM_027.jpg
2061.588	0.745	1	test	Phase3	test/STIM_027.jpg
2064.483	0.838	1	test	Phase3	test/STIM_027.jpg
2067.387	1.176	1	test	Phase3	test/STIM_028.jpg
2072.139	0.963	1	test	Phase3	test/STIM_028.jpg
2075.708	1.125	1	test	Phase3	test/STIM_028.jpg
2080.736	0.578	1	test	Phase3	test/STIM_029.jpg
2084.768	0.946	1	test	Phase3	test/STIM_029.jpg
2088.997	0.893	1	test	Phase3	test/STIM_029.jpg
