onset	duration	accuracy_binary	trial_type	learning_stage	stimulus
0.0	1.982	0	navigation	Trial1	navigation/STIM_000.jpg
4.439	3.79	1	navigation	Trial1	navigation/STIM_000.jpg
10.803	2.358	1	navigation	Trial1	navigation/STIM_000.jpg
15.416	2.036	0	navigation	Trial1	navigation/STIM_000.jpg
20.008	2.379	1	navigation	Trial1	navigation/STIM_000.jpg
24.821	1.602	1	navigation	Trial1	navigation/STIM_000.jpg
29.206	3.23	0	navigation	Trial1	navigation/STIM_001.jpg
35.077	3.346	0	navigation	Trial1	navigation/STIM_001.jpg
41.957	3.885	1	navigation	Trial1	navigation/STIM_001.jpg
49.128	2.22	0	navigation	Trial1	navigation/STIM_001.jpg
54.105	3.081	1	navigation	Trial1	navigation/STIM_001.jpg
61.116	1.559	1	navigation	Trial1	navigation/STIM_001.jpg
65.892	2.185	0	navigation	Trial1	navigation/STIM_002.jpg
72.074	2.775	0	navigation	Trial1	navigation/STIM_002.jpg
78.83	1.896	0	navigation	Trial1	navigation/STIM_002.jpg
83.127	3.112	1	navigation	Trial1	navigation/STIM_002.jpg
89.287	1.575	1	navigation	Trial1	navigation/STIM_002.jpg
94.06	1.541	0	navigation	Trial1	navigation/STIM_002.jpg
98.05	3.557	0	navigation	Trial1	navigation/STIM_003.jpg
103.905	3.119	0	navigation	Trial1	navigation/STIM_003.jpg
110.647	3.769	1	navigation	Trial1	navigation/STIM_003.jpg
117.194	3.515	1	navigation	Trial1	navigation/STIM_003.jpg
123.657	1.737	0	navigation	Trial1	navigation/STIM_003.jpg
128.877	3.076	0	navigation	Trial1	navigation/STIM_003.jpg
135.07	2.575	1	navigation	Trial1	navigation/STIM_004.jpg
140.76	1.802	1	navigation	Trial1	navigation/STIM_004.jpg
146.025	2.863	1	navigation	Trial1	navigation/STIM_004.jpg
152.302	2.716	1	navigation	Trial1	navigation/STIM_004.jpg
157.7	2.313	1	navigation	Trial1	navigation/STIM_004.jpg
163.768	2.333	1	navigation	Trial1	navigation/STIM_004.jpg
169.325	2.664	1	navigation	Trial1	navigation/STIM_005.jpg
175.759	3.958	1	navigation	Trial1	navigation/STIM_005.jpg
181.9	2.04	0	navigation	Trial1	navigation/STIM_005.jpg
187.69	2.69	1	navigation	Trial1	navigation/STIM_005.jpg
192.909	2.087	1	navigation	Trial1	navigation/STIM_005.jpg
197.544	1.843	0	navigation	Trial1	navigation/STIM_005.jpg
202.704	2.464	0	navigation	Trial1	navigation/STIM_006.jpg
208.883	3.292	0	navigation	Trial1	navigation/STIM_006.jpg
214.702	2.864	1	navigation	Trial1	navigation/STIM_006.jpg
219.833	1.557	1	navigation	Trial1	navigation/STIM_006.jpg
223.692	3.454	1	navigation	Trial1	navigation/STIM_006.jpg
229.235	2.827	1	navigation	Trial1	navigation/STIM_006.jpg
235.117	2.624	0	navigation	Trial1	navigation/STIM_007.jpg
239.87	1.838	0	navigation	Trial1	navigation/STIM_007.jpg
244.634	1.726	1	navigation	Trial1	navigation/STIM_007.jpg
248.64	2.37	0	navigation	Trial1	navigation/STIM_007.jpg
253.404	1.487	1	navigation	Trial1	navigation/STIM_007.jpg
257.695	2.18	0	navigation	Trial1	navigation/STIM_007.jpg
263.367	3.876	0	navigation	Trial1	navigation/STIM_008.jpg
269.859	3.264	1	navigation	Trial1	navigation/STIM_008.jpg
276.596	3.164	1	navigation	Trial1	navigation/STIM_008.jpg
283.668	2.05	1	navigation	Trial1	navigation/STIM_008.jpg
289.241	1.586	1	navigation	Trial1	navigation/STIM_008.jpg
294.771	2.94	1	navigation	Trial1	navigation/STIM_008.jpg
301.266	2.282	1	navigation	Trial1	navigation/STIM_009.jpg
307.413	3.9	1	navigation	Trial1	navigation/STIM_009.jpg
314.152	2.407	0	navigation	Trial1	navigation/STIM_009.jpg
320.131	2.46	1	navigation	Trial1	navigation/STIM_009.jpg
325.725	1.569	1	navigation	Trial1	navigation/STIM_009.jpg
329.873	2.044	0	navigation	Trial1	navigation/STIM_009.jpg
335.573	2.17	0	navigation	Trial1	navigation/STIM_010.jpg
340.11	2.381	1	navigation	Trial1	navigation/STIM_010.jpg
345.551	2.266	1	navigation	Trial1	navigation/STIM_010.jpg
350.732	3.829	1	navigation	Trial1	navigation/STIM_010.jpg
356.703	1.515	1	navigation	Trial1	navigation/STIM_010.jpg
360.359	3.136	1	navigation	Trial1	navigation/STIM_010.jpg
365.892	3.734	1	navigation	Trial1	navigation/STIM_011.jpg
372.172	3.819	1	navigation	Trial1	navigation/STIM_011.jpg
379.119	3.433	1	navigation	Trial1	navigation/STIM_011.jpg
385.095	3.604	0	navigation	Trial1	navigation/STIM_011.jpg
390.874	3.313	0	navigation	Trial1	navigation/STIM_011.jpg
396.195	1.934	1	navigation	Trial1	navigation/STIM_011.jpg
401.902	0.861	1	pointing	Trial1	pointing/STIM_000.jpg
406.592	1.123	1	pointing	Trial1	pointing/STIM_000.jpg
409.88	0.773	1	pointing	Trial1	pointing/STIM_000.jpg
413.564	0.728	0	pointing	Trial1	pointing/STIM_000.jpg
416.61	0.731	1	pointing	Trial1	pointing/STIM_000.jpg
420.008	0.887	0	pointing	Trial1	pointing/STIM_000.jpg
423.692	0.918	1	pointing	Trial1	pointing/STIM_001.jpg
426.85	1.015	1	pointing	Trial1	pointing/STIM_001.jpg
431.716	1.196	1	pointing	Trial1	pointing/STIM_001.jpg
436.592	0.751	1	pointing	Trial1	pointing/STIM_001.jpg
440.616	0.956	1	pointing	Trial1	pointing/STIM_001.jpg
445.3	0.825	1	pointing	Trial1	pointing/STIM_001.jpg
448.37	0.801	1	pointing	Trial1	pointing/STIM_002.jpg
453.107	0.916	1	pointing	Trial1	pointing/STIM_002.jpg
456.442	0.98	1	pointing	Trial1	pointing/STIM_002.jpg
459.924	1.011	1	pointing	Trial1	pointing/STIM_002.jpg
463.135	0.88	1	pointing	Trial1	pointing/STIM_002.jpg
467.029	1.085	1	pointing	Trial1	pointing/STIM_002.jpg
471.296	1.334	1	pointing	Trial1	pointing/STIM_003.jpg
475.015	1.236	1	pointing	Trial1	pointing/STIM_003.jpg
479.576	0.969	0	pointing	Trial1	pointing/STIM_003.jpg
483.909	0.862	1	pointing	Trial1	pointing/STIM_003.jpg
487.616	0.753	1	pointing	Trial1	pointing/STIM_003.jpg
491.75	1.292	0	pointing	Trial1	pointing/STIM_003.jpg
496.826	1.341	1	pointing	Trial1	pointing/STIM_004.jpg
501.4	0.998	1	pointing	Trial1	pointing/STIM_004.jpg
505.956	1.19	1	pointing	Trial1	pointing/STIM_004.jpg
510.706	1.249	0	pointing	Trial1	pointing/STIM_004.jpg
515.277	0.769	1	pointing	Trial1	pointing/STIM_004.jpg
519.04	1.004	1	pointing	Trial1	pointing/STIM_004.jpg
522.653	1.331	1	pointing	Trial1	pointing/STIM_005.jpg
526.393	1.051	0	pointing	Trial1	pointing/STIM_005.jpg
530.902	0.992	1	pointing	Trial1	pointing/STIM_005.jpg
535.391	0.904	0	pointing	Trial1	pointing/STIM_005.jpg
540.294	0.923	1	pointing	Trial1	pointing/STIM_005.jpg
545.124	1.038	1	pointing	Trial1	pointing/STIM_005.jpg
548.906	1.065	1	pointing	Trial1	pointing/STIM_006.jpg
553.302	1.07	1	pointing	Trial1	pointing/STIM_006.jpg
556.477	1.109	1	pointing	Trial1	pointing/STIM_006.jpg
561.354	0.863	0	pointing	Trial1	pointing/STIM_006.jpg
565.95	1.159	1	pointing	Trial1	pointing/STIM_006.jpg
569.891	1.292	1	pointing	Trial1	pointing/STIM_006.jpg
574.522	0.862	1	pointing	Trial1	pointing/STIM_007.jpg
578.688	1.345	1	pointing	Trial1	pointing/STIM_007.jpg
583.541	1.187	0	pointing	Trial1	pointing/STIM_007.jpg
587.925	1.18	1	pointing	Trial1	pointing/STIM_007.jpg
591.784	0.775	1	pointing	Trial1	pointing/STIM_007.jpg
594.859	1.195	1	pointing	Trial1	pointing/STIM_007.jpg
599.443	1.325	1	pointing	Trial1	pointing/STIM_008.jpg
604.131	1.293	0	pointing	Trial1	pointing/STIM_008.jpg
608.679	0.841	1	pointing	Trial1	pointing/STIM_008.jpg
612.93	0.982	1	pointing	Trial1	pointing/STIM_008.jpg
616.171	0.948	1	pointing	Trial1	pointing/STIM_008.jpg
619.268	0.976	1	pointing	Trial1	pointing/STIM_008.jpg
622.823	0.925	1	pointing	Trial1	pointing/STIM_009.jpg
627.498	1.294	1	pointing	Trial1	pointing/STIM_009.jpg
631.001	0.938	1	pointing	Trial1	pointing/STIM_009.jpg
635.644	0.845	1	pointing	Trial1	pointing/STIM_009.jpg
640.049	0.779	1	pointing	Trial1	pointing/STIM_009.jpg
644.13	1.144	1	pointing	Trial1	pointing/STIM_009.jpg
647.672	0.736	1	pointing	Trial1	pointing/STIM_010.jpg
651.779	0.78	1	pointing	Trial1	pointing/STIM_010.jpg
654.683	0.769	1	pointing	Trial1	pointing/STIM_010.jpg
658.086	0.885	1	pointing	Trial1	pointing/STIM_010.jpg
662.788	1.259	1	pointing	Trial1	pointing/STIM_010.jpg
667.009	1.16	1	pointing	Trial1	pointing/STIM_010.jpg
671.611	0.82	0	pointing	Trial1	pointing/STIM_011.jpg
675.959	0.751	1	pointing	Trial1	pointing/STIM_011.jpg
679.675	0.732	0	pointing	Trial1	pointing/STIM_011.jpg
683.547	1.141	1	pointing	Trial1	pointing/STIM_011.jpg
687.555	0.99	0	pointing	Trial1	pointing/STIM_011.jpg
692.477	1.329	1	pointing	Trial1	pointing/STIM_011.jpg
697.01	1.894	1	navigation	Trial2	navigation/STIM_000.jpg
701.711	3.468	0	navigation	Trial2	navigation/STIM_000.jpg
708.547	1.672	0	navigation	Trial2	navigation/STIM_000.jpg
713.122	1.385	1	navigation	Trial2	navigation/STIM_000.jpg
717.361	2.843	1	navigation	Trial2	navigation/STIM_000.jpg
723.069	1.599	1	navigation	Trial2	navigation/STIM_000.jpg
726.771	2.053	1	navigation	Trial2	navigation/STIM_001.jpg
732.081	3.452	0	navigation	Trial2	navigation/STIM_001.jpg
739.146	1.434	1	navigation	Trial2	navigation/STIM_001.jpg
743.907	2.81	1	navigation	Trial2	navigation/STIM_001.jpg
749.863	1.357	1	navigation	Trial2	navigation/STIM_001.jpg
753.854	2.193	1	navigation	Trial2	navigation/STIM_001.jpg
758.699	3.499	1	navigation	Trial2	navigation/STIM_002.jpg
764.435	2.018	1	navigation	Trial2	navigation/STIM_002.jpg
769.25	2.659	1	navigation	Trial2	navigation/STIM_002.jpg
774.066	3.1	1	navigation	Trial2	navigation/STIM_002.jpg
779.708	1.75	1	navigation	Trial2	navigation/STIM_002.jpg
783.758	2.158	1	navigation	Trial2	navigation/STIM_002.jpg
789.175	2.971	1	navigation	Trial2	navigation/STIM_003.jpg
795.117	3.611	1	navigation	Trial2	navigation/STIM_003.jpg
802.043	2.074	1	navigation	Trial2	navigation/STIM_003.jpg
807.01	2.598	0	navigation	Trial2	navigation/STIM_003.jpg
811.856	2.043	1	navigation	Trial2	navigation/STIM_003.jpg
816.754	2.148	1	navigation	Trial2	navigation/STIM_003.jpg
821.179	3.162	0	navigation	Trial2	navigation/STIM_004.jpg
826.885	3.566	1	navigation	Trial2	navigation/STIM_004.jpg
833.363	2.79	1	navigation	Trial2	navigation/STIM_004.jpg
838.727	2.065	1	navigation	Trial2	navigation/STIM_004.jpg
843.652	2.739	1	navigation	Trial2	navigation/STIM_004.jpg
849.915	2.082	0	navigation	Trial2	navigation/STIM_004.jpg
855.075	1.572	0	navigation	Trial2	navigation/STIM_005.jpg
859.278	2.829	0	navigation	Trial2	navigation/STIM_005.jpg
864.462	1.581	1	navigation	Trial2	navigation/STIM_005.jpg
869.384	2.424	1	navigation	Trial2	navigation/STIM_005.jpg
874.963	1.271	1	navigation	Trial2	navigation/STIM_005.jpg
879.652	2.805	1	navigation	Trial2	navigation/STIM_005.jpg
886.27	1.988	0	navigation	Trial2	navigation/STIM_006.jpg
890.705	1.865	1	navigation	Trial2	navigation/STIM_006.jpg
895.15	3.284	1	navigation	Trial2	navigation/STIM_006.jpg
901.365	2.984	1	navigation	Trial2	navigation/STIM_006.jpg
907.251	1.451	0	navigation	Trial2	navigation/STIM_006.jpg
912.655	2.5	1	navigation	Trial2	navigation/STIM_006.jpg
917.156	3.681	1	navigation	Trial2	navigation/STIM_007.jpg
923.842	2.544	1	navigation	Trial2	navigation/STIM_007.jpg
928.837	3.232	1	navigation	Trial2	navigation/STIM_007.jpg
935.874	3.023	1	navigation	Trial2	navigation/STIM_007.jpg
941.255	2.503	1	navigation	Trial2	navigation/STIM_007.jpg
946.235	2.71	0	navigation	Trial2	navigation/STIM_007.jpg
950.971	3.806	1	navigation	Trial2	navigation/STIM_008.jpg
958.523	3.541	1	navigation	Trial2	navigation/STIM_008.jpg
966.009	3.305	1	navigation	Trial2	navigation/STIM_008.jpg
971.655	2.135	1	navigation	Trial2	navigation/STIM_008.jpg
977.317	3.132	1	navigation	Trial2	navigation/STIM_008.jpg
983.916	3.078	1	navigation	Trial2	navigation/STIM_008.jpg
989.551	2.965	0	navigation	Trial2	navigation/STIM_009.jpg
994.745	3.26	1	navigation	Trial2	navigation/STIM_009.jpg
1001.375	3.114	1	navigation	Trial2	navigation/STIM_009.jpg
1007.982	1.294	0	navigation	Trial2	navigation/STIM_009.jpg
1011.782	2.71	0	navigation	Trial2	navigation/STIM_009.jpg
1017.446	2.453	1	navigation	Trial2	navigation/STIM_009.jpg
1022.135	2.654	0	navigation	Trial2	navigation/STIM_010.jpg
1027.129	3.49	0	navigation	Trial2	navigation/STIM_010.jpg
1033.096	2.128	1	navigation	Trial2	navigation/STIM_010.jpg
1039.148	2.962	1	navigation	Trial2	navigation/STIM_010.jpg
1045.987	2.684	1	navigation	Trial2	navigation/STIM_010.jpg
1051.452	1.453	0	navigation	Trial2	navigation/STIM_010.jpg
1055.891	2.973	0	navigation	Trial2	navigation/STIM_011.jpg
1061.312	2.979	0	navigation	Trial2	navigation/STIM_011.jpg
1067.801	2.096	1	navigation	Trial2	navigation/STIM_011.jpg
1072.131	3.057	0	navigation	Trial2	navigation/STIM_011.jpg
1078.774	2.097	1	navigation	Trial2	navigation/STIM_011.jpg
1084.341	2.19	0	navigation	Trial2	navigation/STIM_011.jpg
1090.16	1.226	0	pointing	Trial2	pointing/STIM_000.jpg
1094.828	1.03	1	pointing	Trial2	pointing/STIM_000.jpg
1099.307	1.253	0	pointing	Trial2	pointing/STIM_000.jpg
1104.48	1.009	1	pointing	Trial2	pointing/STIM_000.jpg
1108.896	1.3	0	pointing	Trial2	pointing/STIM_000.jpg
1114.09	1.063	1	pointing	Trial2	pointing/STIM_000.jpg
1117.556	1.256	1	pointing	Trial2	pointing/STIM_001.jpg
1120.952	1.027	1	pointing	Trial2	pointing/STIM_001.jpg
1125.857	1.31	1	pointing	Trial2	pointing/STIM_001.jpg
1129.179	0.889	1	pointing	Trial2	pointing/STIM_001.jpg
1132.361	1.204	1	pointing	Trial2	pointing/STIM_001.jpg
1137.034	0.839	1	pointing	Trial2	pointing/STIM_001.jpg
1141.014	0.899	1	pointing	Trial2	pointing/STIM_002.jpg
1145.142	1.342	1	pointing	Trial2	pointing/STIM_002.jpg
1148.776	0.888	1	pointing	Trial2	pointing/STIM_002.jpg
1151.767	1.055	1	pointing	Trial2	pointing/STIM_002.jpg
1155.767	1.024	1	pointing	Trial2	pointing/STIM_002.jpg
1159.283	1.161	1	pointing	Trial2	pointing/STIM_002.jpg
1163.704	1.131	1	pointing	Trial2	pointing/STIM_003.jpg
1167.19	0.892	1	pointing	Trial2	pointing/STIM_003.jpg
1171.22	0.993	1	pointing	Trial2	pointing/STIM_003.jpg
1175.316	1.29	0	pointing	Trial2	pointing/STIM_003.jpg
1179.425	1.081	1	pointing	Trial2	pointing/STIM_003.jpg
1182.635	0.981	1	pointing	Trial2	pointing/STIM_003.jpg
1186.524	0.94	1	pointing	Trial2	pointing/STIM_004.jpg
1190.703	0.824	1	pointing	Trial2	pointing/STIM_004.jpg
1193.862	1.231	1	pointing	Trial2	pointing/STIM_004.jpg
1197.26	0.881	1	pointing	Trial2	pointing/STIM_004.jpg
1200.882	1.143	1	pointing	Trial2	pointing/STIM_004.jpg
1204.902	1.219	1	pointing	Trial2	pointing/STIM_004.jpg
1209.566	0.941	1	pointing	Trial2	pointing/STIM_005.jpg
1212.515	1.265	1	pointing	Trial2	pointing/STIM_005.jpg
1216.694	1.04	1	pointing	Trial2	pointing/STIM_005.jpg
1221.026	1.128	1	pointing	Trial2	pointing/STIM_005.jpg
1224.997	1.074	0	pointing	Trial2	pointing/STIM_005.jpg
1229.78	0.831	1	pointing	Trial2	pointing/STIM_005.jpg
1234.143	1.071	1	pointing	Trial2	pointing/STIM_006.jpg
1238.313	1.044	1	pointing	Trial2	pointing/STIM_006.jpg
1243.288	0.839	1	pointing	Trial2	pointing/STIM_006.jpg
1248.118	0.757	1	pointing	Trial2	pointing/STIM_006.jpg
1252.533	0.757	1	pointing	Trial2	pointing/STIM_006.jpg
1255.3	1.142	1	pointing	Trial2	pointing/STIM_006.jpg
1258.549	1.097	1	pointing	Trial2	pointing/STIM_007.jpg
1263.35	0.882	1	pointing	Trial2	pointing/STIM_007.jpg
1266.987	0.844	1	pointing	Trial2	pointing/STIM_007.jpg
1271.327	0.834	1	pointing	Trial2	pointing/STIM_007.jpg
1275.412	1.027	1	pointing	Trial2	pointing/STIM_007.jpg
1279.347	1.208	1	pointing	Trial2	pointing/STIM_007.jpg
1284.027	1.273	0	pointing	Trial2	pointing/STIM_008.jpg
1289.13	0.901	1	pointing	Trial2	pointing/STIM_008.jpg
1292.034	0.764	1	pointing	Trial2	pointing/STIM_008.jpg
1296.372	0.804	0	pointing	Trial2	pointing/STIM_008.jpg
1300.057	0.852	1	pointing	Trial2	pointing/STIM_008.jpg
1303.815	1.223	1	pointing	Trial2	pointing/STIM_008.jpg
1307.984	0.976	1	pointing	Trial2	pointing/STIM_009.jpg
1312.143	1.147	1	pointing	Trial2	pointing/STIM_009.jpg
1315.413	0.93	1	pointing	Trial2	pointing/STIM_009.jpg
1319.223	1.04	1	pointing	Trial2	pointing/STIM_009.jpg
1323.835	0.726	1	pointing	Trial2	pointing/STIM_009.jpg
1327.228	1.249	1	pointing	Trial2	pointing/STIM_009.jpg
1331.339	1.062	1	pointing	Trial2	pointing/STIM_010.jpg
1336.146	0.739	1	pointing	Trial2	pointing/STIM_010.jpg
1339.289	0.727	0	pointing	Trial2	pointing/STIM_010.jpg
1342.96	0.847	1	pointing	Trial2	pointing/STIM_010.jpg
1346.11	1.224	1	pointing	Trial2	pointing/STIM_010.jpg
1351.18	0.888	1	pointing	Trial2	pointing/STIM_010.jpg
1355.018	0.744	1	pointing	Trial2	pointing/STIM_011.jpg
1358.19	1.292	1	pointing	Trial2	pointing/STIM_011.jpg
1362.817	0.735	0	pointing	Trial2	pointing/STIM_011.jpg
1366.58	1.254	1	pointing	Trial2	pointing/STIM_011.jpg
1369.964	1.209	0	pointing	Trial2	pointing/STIM_011.jpg
1373.325	1.318	1	pointing	Trial2	pointing/STIM_011.jpg
1376.996	2.119	1	navigation	Trial3	navigation/STIM_000.jpg
1382.506	1.992	0	navigation	Trial3	navigation/STIM_000.jpg
1387.989	2.617	1	navigation	Trial3	navigation/STIM_000.jpg
1392.764	2.262	1	navigation	Trial3	navigation/STIM_000.jpg
1398.658	1.528	1	navigation	Trial3	navigation/STIM_000.jpg
1402.778	2.031	1	navigation	Trial3	navigation/STIM_000.jpg
1408.492	1.542	1	navigation	Trial3	navigation/STIM_001.jpg
1412.249	2.528	1	navigation	Trial3	navigation/STIM_001.jpg
1418.266	2.344	1	navigation	Trial3	navigation/STIM_001.jpg
1424.512	1.658	1	navigation	Trial3	navigation/STIM_001.jpg
1429.378	2.206	1	navigation	Trial3	navigation/STIM_001.jpg
1433.703	3.055	1	navigation	Trial3	navigation/STIM_001.jpg
1439.578	2.765	1	navigation	Trial3	navigation/STIM_002.jpg
1446.025	1.545	1	navigation	Trial3	navigation/STIM_002.jpg
1450.685	2.332	1	navigation	Trial3	navigation/STIM_002.jpg
1456.667	2.2	1	navigation	Trial3	navigation/STIM_002.jpg
1460.981	1.291	0	navigation	Trial3	navigation/STIM_002.jpg
1465.274	1.915	0	navigation	Trial3	navigation/STIM_002.jpg
1470.745	1.643	1	navigation	Trial3	navigation/STIM_003.jpg
1474.539	1.338	1	navigation	Trial3	navigation/STIM_003.jpg
1479.247	1.982	1	navigation	Trial3	navigation/STIM_003.jpg
1484.244	2.191	1	navigation	Trial3	navigation/STIM_003.jpg
1490.118	2.485	1	navigation	Trial3	navigation/STIM_003.jpg
1495.625	3.083	1	navigation	Trial3	navigation/STIM_003.jpg
1501.305	2.283	0	navigation	Trial3	navigation/STIM_004.jpg
1507.125	2.02	1	navigation	Trial3	navigation/STIM_004.jpg
1512.135	3.084	1	navigation	Trial3	navigation/STIM_004.jpg
1518.71	1.348	1	navigation	Trial3	navigation/STIM_004.jpg
1523.221	3.048	1	navigation	Trial3	navigation/STIM_004.jpg
1529.495	3.079	0	navigation	Trial3	navigation/STIM_004.jpg
1535.0	2.77	0	navigation	Trial3	navigation/STIM_005.jpg
1539.787	2.416	1	navigation	Trial3	navigation/STIM_005.jpg
1545.892	2.86	1	navigation	Trial3	navigation/STIM_005.jpg
1552.663	2.869	1	navigation	Trial3	navigation/STIM_005.jpg
1558.52	2.001	1	navigation	Trial3	navigation/STIM_005.jpg
1563.199	3.091	1	navigation	Trial3	navigation/STIM_005.jpg
1569.564	2.326	1	navigation	Trial3	navigation/STIM_006.jpg
1574.612	2.341	1	navigation	Trial3	navigation/STIM_006.jpg
1580.599	1.312	1	navigation	Trial3	navigation/STIM_006.jpg
1584.207	2.849	1	navigation	Trial3	navigation/STIM_006.jpg
1589.527	2.522	0	navigation	Trial3	navigation/STIM_006.jpg
1595.635	3.113	0	navigation	Trial3	navigation/STIM_006.jpg
1602.043	2.155	1	navigation	Trial3	navigation/STIM_007.jpg
1606.852	2.229	1	navigation	Trial3	navigation/STIM_007.jpg
1612.744	1.699	1	navigation	Trial3	navigation/STIM_007.jpg
1617.615	2.701	0	navigation	Trial3	navigation/STIM_007.jpg
1622.379	2.273	1	navigation	Trial3	navigation/STIM_007.jpg
1626.728	3.11	1	navigation	Trial3	navigation/STIM_007.jpg
1633.252	2.471	0	navigation	Trial3	navigation/STIM_008.jpg
1639.115	1.914	1	navigation	Trial3	navigation/STIM_008.jpg
1643.879	1.99	1	navigation	Trial3	navigation/STIM_008.jpg
1648.143	1.712	1	navigation	Trial3	navigation/STIM_008.jpg
1652.18	2.931	0	navigation	Trial3	navigation/STIM_008.jpg
1658.051	1.486	1	navigation	Trial3	navigation/STIM_008.jpg
1663.328	1.901	1	navigation	Trial3	navigation/STIM_009.jpg
1668.192	2.314	0	navigation	Trial3	navigation/STIM_009.jpg
1674.471	1.71	1	navigation	Trial3	navigation/STIM_009.jpg
1678.425	3.054	1	navigation	Trial3	navigation/STIM_009.jpg
1683.807	2.039	1	navigation	Trial3	navigation/STIM_009.jpg
1688.316	1.691	1	navigation	Trial3	navigation/STIM_009.jpg
1693.618	3.078	1	navigation	Trial3	navigation/STIM_010.jpg
1699.566	2.76	1	navigation	Trial3	navigation/STIM_010.jpg
1706.211	3.101	1	navigation	Trial3	navigation/STIM_010.jpg
1712.813	1.884	0	navigation	Trial3	navigation/STIM_010.jpg
1716.915	1.778	1	navigation	Trial3	navigation/STIM_010.jpg
1721.087	1.789	1	navigation	Trial3	navigation/STIM_010.jpg
1724.958	3.141	0	navigation	Trial3	navigation/STIM_011.jpg
1730.51	2.747	1	navigation	Trial3	navigation/STIM_011.jpg
1735.951	2.061	1	navigation	Trial3	navigation/STIM_011.jpg
1740.903	1.304	0	navigation	Trial3	navigation/STIM_011.jpg
1745.694	1.775	1	navigation	Trial3	navigation/STIM_011.jpg
1750.038	1.53	1	navigation	Trial3	navigation/STIM_011.jpg
1753.947	0.975	1	pointing	Trial3	pointing/STIM_000.jpg
1757.157	0.968	1	pointing	Trial3	pointing/STIM_000.jpg
1760.576	0.982	0	pointing	Trial3	pointing/STIM_000.jpg
1763.866	1.059	1	pointing	Trial3	pointing/STIM_000.jpg
1767.453	1.085	0	pointing	Trial3	pointing/STIM_000.jpg
1772.265	0.881	1	pointing	Trial3	pointing/STIM_000.jpg
1775.77	1.263	1	pointing	Trial3	pointing/STIM_001.jpg
1780.362	0.724	0	pointing	Trial3	pointing/STIM_001.jpg
1784.301	1.345	1	pointing	Trial3	pointing/STIM_001.jpg
1787.652	1.328	1	pointing	Trial3	pointing/STIM_001.jpg
1792.77	0.845	1	pointing	Trial3	pointing/STIM_001.jpg
1796.388	0.967	1	pointing	Trial3	pointing/STIM_001.jpg
1800.63	0.948	1	pointing	Trial3	pointing/STIM_002.jpg
1804.925	0.78	1	pointing	Trial3	pointing/STIM_002.jpg
1808.854	1.123	1	pointing	Trial3	pointing/STIM_002.jpg
1812.259	1.24	0	pointing	Trial3	pointing/STIM_002.jpg
1816.3	1.296	1	pointing	Trial3	pointing/STIM_002.jpg
1821.373	0.898	1	pointing	Trial3	pointing/STIM_002.jpg
1826.186	0.824	1	pointing	Trial3	pointing/STIM_003.jpg
1829.666	0.94	1	pointing	Trial3	pointing/STIM_003.jpg
1834.365	1.094	1	pointing	Trial3	pointing/STIM_003.jpg
1839.211	1.042	0	pointing	Trial3	pointing/STIM_003.jpg
1843.307	1.116	1	pointing	Trial3	pointing/STIM_003.jpg
1848.023	1.286	1	pointing	Trial3	pointing/STIM_003.jpg
1852.446	0.773	0	pointing	Trial3	pointing/STIM_004.jpg
1856.793	0.997	0	pointing	Trial3	pointing/STIM_004.jpg
1861.297	0.795	0	pointing	Trial3	pointing/STIM_004.jpg
1864.645	0.782	1	pointing	Trial3	pointing/STIM_004.jpg
1869.031	0.964	1	pointing	Trial3	pointing/STIM_004.jpg
1872.985	0.818	1	pointing	Trial3	pointing/STIM_004.jpg
1876.675	0.873	1	pointing	Trial3	pointing/STIM_005.jpg
1880.783	1.247	0	pointing	Trial3	pointing/STIM_005.jpg
1885.716	1.274	1	pointing	Trial3	pointing/STIM_005.jpg
1889.224	1.299	1	pointing	Trial3	pointing/STIM_005.jpg
1892.532	1.344	1	pointing	Trial3	pointing/STIM_005.jpg
1897.115	0.906	1	pointing	Trial3	pointing/STIM_005.jpg
1901.699	0.735	1	pointing	Trial3	pointing/STIM_006.jpg
1906.121	1.005	1	pointing	Trial3	pointing/STIM_006.jpg
1910.817	1.155	1	pointing	Trial3	pointing/STIM_006.jpg
1914.065	0.792	1	pointing	Trial3	pointing/STIM_006.jpg
1917.519	0.839	1	pointing	Trial3	pointing/STIM_006.jpg
1920.623	1.355	1	pointing	Trial3	pointing/STIM_006.jpg
1924.239	0.913	1	pointing	Trial3	pointing/STIM_007.jpg
1928.087	0.97	1	pointing	Trial3	pointing/STIM_007.jpg
1932.623	0.848	0	pointing	Trial3	pointing/STIM_007.jpg
1937.233	1.187	1	pointing	Trial3	pointing/STIM_007.jpg
1940.996	0.791	1	pointing	Trial3	pointing/STIM_007.jpg
1945.114	1.347	0	pointing	Trial3	pointing/STIM_007.jpg
1948.919	1.153	0	pointing	Trial3	pointing/STIM_008.jpg
1952.364	1.02	0	pointing	Trial3	pointing/STIM_008.jpg
1956.374	0.991	0	pointing	Trial3	pointing/STIM_008.jpg
1960.343	1.174	1	pointing	Trial3	pointing/STIM_008.jpg
1964.157	1.025	1	pointing	Trial3	pointing/STIM_008.jpg
1967.989	0.864	0	pointing	Trial3	pointing/STIM_008.jpg
1971.796	1.291	0	pointing	Trial3	pointing/STIM_009.jpg
1975.138	1.24	1	pointing	Trial3	pointing/STIM_009.jpg
1979.513	1.356	0	pointing	Trial3	pointing/STIM_009.jpg
1984.141	0.93	1	pointing	Trial3	pointing/STIM_009.jpg
1987.451	0.828	1	pointing	Trial3	pointing/STIM_009.jpg
1991.129	0.982	1	pointing	Trial3	pointing/STIM_009.jpg
1994.559	0.923	1	pointing	Trial3	pointing/STIM_010.jpg
1997.832	1.008	1	pointing	Trial3	pointing/STIM_010.jpg
2000.912	1.14	1	pointing	Trial3	pointing/STIM_010.jpg
2005.454	1.087	1	pointing	Trial3	pointing/STIM_010.jpg
2009.396	0.97	1	pointing	Trial3	pointing/STIM_010.jpg
2013.315	1.297	1	pointing	Trial3	pointing/STIM_010.jpg
2017.54	0.78	0	pointing	Trial3	pointing/STIM_011.jpg
2022.079	1.28	1	pointing	Trial3	pointing/STIM_011.jpg
2027.085	1.046	1	pointing	Trial3	pointing/STIM_011.jpg
2030.309	1.037	1	pointing	Trial3	pointing/STIM_011.jpg
2033.698	1.206	0	pointing	Trial3	pointing/STIM_011.jpg
2037.825	1.059	1	pointing	Trial3	pointing/STIM_011.jpg
