onset	duration	accuracy_binary	trial_type	learning_stage	stimulus
0.0	1.782	1	study	Phase1	study/STIM_000.jpg
5.456	0.808	1	study	Phase1	study/STIM_000.jpg
10.078	0.994	1	study	Phase1	study/STIM_000.jpg
13.05	0.914	1	study	Phase1	study/STIM_001.jpg
16.142	1.013	1	study	Phase1	study/STIM_001.jpg
20.079	1.114	1	study	Phase1	study/STIM_001.jpg
24.922	1.61	1	study	Phase1	study/STIM_002.jpg
28.879	1.385	1	study	Phase1	study/STIM_002.jpg
33.116	1.181	1	study	Phase1	study/STIM_002.jpg
37.922	1.166	1	study	Phase1	study/STIM_003.jpg
41.136	1.655	0	study	Phase1	study/STIM_003.jpg
45.224	0.779	1	study	Phase1	study/STIM_003.jpg
48.247	1.266	1	study	Phase1	study/STIM_004.jpg
51.922	0.987	1	study	Phase1	study/STIM_004.jpg
56.042	0.936	1	study	Phase1	study/STIM_004.jpg
60.15	1.411	1	study	Phase1	study/STIM_005.jpg
63.937	1.748	1	study	Phase1	study/STIM_005.jpg
68.261	1.476	1	study	Phase1	study/STIM_005.jpg
73.24	1.13	1	study	Phase1	study/STIM_006.jpg
77.341	1.178	1	study	Phase1	study/STIM_006.jpg
81.66	0.949	1	study	Phase1	study/STIM_006.jpg
85.034	1.724	1	study	Phase1	study/STIM_007.jpg
90.467	1.113	0	study	Phase1	study/STIM_007.jpg
94.69	1.269	1	study	Phase1	study/STIM_007.jpg
98.514	1.165	0	study	Phase1	study/STIM_008.jpg
103.491	1.465	1	study	Phase1	study/STIM_008.jpg
107.288	1.368	1	study	Phase1	study/STIM_008.jpg
111.288	0.996	1	study	Phase1	study/STIM_009.jpg
115.468	1.359	1	study	Phase1	study/STIM_009.jpg
119.3	1.334	1	study	Phase1	study/STIM_009.jpg
123.692	1.631	1	study	Phase1	study/STIM_010.jpg
127.813	0.946	1	study	Phase1	study/STIM_010.jpg
131.285	1.636	1	study	Phase1	study/STIM_010.jpg
136.616	1.044	1	study	Phase1	study/STIM_011.jpg
139.871	0.893	1	study	Phase1	study/STIM_011.jpg
143.415	1.239	1	study	Phase1	study/STIM_011.jpg
148.471	1.442	1	study	Phase1	study/STIM_012.jpg
152.155	0.932	1	study	Phase1	study/STIM_012.jpg
156.188	1.628	1	study	Phase1	study/STIM_012.jpg
159.804	1.786	1	study	Phase1	study/STIM_013.jpg
165.135	1.083	0	study	Phase1	study/STIM_013.jpg
169.142	1.676	1	study	Phase1	study/STIM_013.jpg
172.897	1.028	0	study	Phase1	study/STIM_014.jpg
177.546	1.606	1	study	Phase1	study/STIM_014.jpg
182.156	1.219	1	study	Phase1	study/STIM_014.jpg
186.399	1.137	1	study	Phase1	study/STIM_015.jpg
190.863	0.852	1	study	Phase1	study/STIM_015.jpg
194.013	1.086	1	study	Phase1	study/STIM_015.jpg
197.139	1.402	1	study	Phase1	study/STIM_016.jpg
202.29	1.113	1	study	Phase1	study/STIM_016.jpg
206.913	0.986	0	study	Phase1	study/STIM_016.jpg
210.594	1.226	1	study	Phase1	study/STIM_017.jpg
214.586	0.949	0	study	Phase1	study/STIM_017.jpg
218.16	1.152	1	study	Phase1	study/STIM_017.jpg
222.529	1.846	1	study	Phase1	study/STIM_018.jpg
227.915	1.615	1	study	Phase1	study/STIM_018.jpg
232.807	1.14	1	study	Phase1	study/STIM_018.jpg
236.29	1.475	1	study	Phase1	study/STIM_019.jpg
241.317	1.682	0	study	Phase1	study/STIM_019.jpg
246.316	1.638	1	study	Phase1	study/STIM_019.jpg
251.56	0.882	0	study	Phase1	study/STIM_020.jpg
254.705	1.706	1	study	Phase1	study/STIM_020.jpg
259.409	1.666	1	study	Phase1	study/STIM_020.jpg
264.294	1.466	1	study	Phase1	study/STIM_021.jpg
268.674	1.023	1	study	Phase1	study/STIM_021.jpg
272.494	0.771	1	study	Phase1	study/STIM_021.jpg
276.238	1.566	0	study	Phase1	study/STIM_022.jpg
279.998	1.682	1	study	Phase1	study/STIM_022.jpg
284.602	1.237	1	study	Phase1	study/STIM_022.jpg
289.617	1.055	1	study	Phase1	study/STIM_023.jpg
294.491	1.045	1	study	Phase1	study/STIM_023.jpg
299.041	1.106	1	study	Phase1	study/STIM_023.jpg
303.623	1.454	1	study	Phase1	study/STIM_024.jpg
308.802	1.503	1	study	Phase1	study/STIM_024.jpg
313.122	0.869	1	study	Phase1	study/STIM_024.jpg
317.16	1.462	0	study	Phase1	study/STIM_025.jpg
321.511	1.042	1	study	Phase1	study/STIM_025.jpg
325.95	1.607	1	study	Phase1	study/STIM_025.jpg
330.005	1.64	1	study	Phase1	study/STIM_026.jpg
334.005	0.973	0	study	Phase1	study/STIM_026.jpg
337.067	1.433	1	study	Phase1	study/STIM_026.jpg
342.162	1.279	1	study	Phase1	study/STIM_027.jpg
347.3	1.738	0	study	Phase1	study/STIM_027.jpg
350.974	1.648	1	study	Phase1	study/STIM_027.jpg
355.959	1.781	1	study	Phase1	study/STIM_028.jpg
360.553	0.956	1	study	Phase1	study/STIM_028.jpg
364.767	0.918	0	study	Phase1	study/STIM_028.jpg
368.305	0.985	1	study	Phase1	study/STIM_029.jpg
372.371	1.348	1	study	Phase1	study/STIM_029.jpg
376.163	1.606	0	study	Phase1	study/STIM_029.jpg
380.116	0.925	1	test	Phase1	test/STIM_000.jpg
383.961	1.261	1	test	Phase1	test/STIM_000.jpg
389.002	0.938	1	test	Phase1	test/STIM_000.jpg
393.635	1.105	1	test	Phase1	test/STIM_001.jpg
397.12	1.063	0	test	Phase1	test/STIM_001.jpg
400.81	0.992	1	test	Phase1	test/STIM_001.jpg
403.775	0.928	1	test	Phase1	test/STIM_002.jpg
408.589	1.333	1	test	Phase1	test/STIM_002.jpg
412.971	1.282	1	test	Phase1	test/STIM_002.jpg
417.328	0.642	1	test	Phase1	test/STIM_003.jpg
420.586	1.003	1	test	Phase1	test/STIM_003.jpg
425.337	1.352	1	test	Phase1	test/STIM_003.jpg
430.101	0.892	0	test	Phase1	test/STIM_004.jpg
433.77	1.351	1	test	Phase1	test/STIM_004.jpg
437.623	1.24	1	test	Phase1	test/STIM_004.jpg
441.493	0.842	1	test	Phase1	test/STIM_005.jpg
444.713	0.976	1	test	Phase1	test/STIM_005.jpg
448.261	0.841	1	test	Phase1	test/STIM_005.jpg
451.634	1.278	1	test	Phase1	test/STIM_006.jpg
455.025	0.914	1	test	Phase1	test/STIM_006.jpg
458.607	0.817	1	test	Phase1	test/STIM_006.jpg
461.676	0.828	1	test	Phase1	test/STIM_007.jpg
465.16	0.775	1	test	Phase1	test/STIM_007.jpg
468.601	1.093	0	test	Phase1	test/STIM_007.jpg
472.496	1.318	0	test	Phase1	test/STIM_008.jpg
476.827	0.923	1	test	Phase1	test/STIM_008.jpg
481.683	0.809	1	test	Phase1	test/STIM_008.jpg
484.759	0.705	1	test	Phase1	test/STIM_009.jpg
487.939	0.948	0	test	Phase1	test/STIM_009.jpg
491.92	0.634	1	test	Phase1	test/STIM_009.jpg
494.659	1.298	1	test	Phase1	test/STIM_010.jpg
499.875	1.269	1	test	Phase1	test/STIM_010.jpg
504.859	1.114	1	test	Phase1	test/STIM_010.jpg
508.671	1.12	1	test	Phase1	test/STIM_011.jpg
512.977	0.915	1	test	Phase1	test/STIM_011.jpg
516.019	1.153	1	test	Phase1	test/STIM_011.jpg
520.159	0.816	0	test	Phase1	test/STIM_012.jpg
523.19	0.832	1	test	Phase1	test/STIM_012.jpg
527.336	0.76	1	test	Phase1	test/STIM_012.jpg
531.282	1.119	1	test	Phase1	test/STIM_013.jpg
534.424	0.731	1	test	Phase1	test/STIM_013.jpg
538.473	1.295	1	test	Phase1	test/STIM_013.jpg
543.648	0.944	1	test	Phase1	test/STIM_014.jpg
547.758	0.626	1	test	Phase1	test/STIM_014.jpg
550.65	0.996	1	test	Phase1	test/STIM_014.jpg
554.688	1.207	1	test	Phase1	test/STIM_015.jpg
559.802	1.03	1	test	Phase1	test/STIM_015.jpg
563.408	0.872	1	test	Phase1	test/STIM_015.jpg
567.033	0.679	1	test	Phase1	test/STIM_016.jpg
570.821	0.96	1	test	Phase1	test/STIM_016.jpg
573.931	1.021	0	test	Phase1	test/STIM_016.jpg
578.362	1.348	1	test	Phase1	test/STIM_017.jpg
583.105	0.944	1	test	Phase1	test/STIM_017.jpg
587.315	1.224	1	test	Phase1	test/STIM_017.jpg
591.99	1.029	1	test	Phase1	test/STIM_018.jpg
595.897	0.91	1	test	Phase1	test/STIM_018.jpg
598.838	1.113	0	test	Phase1	test/STIM_018.jpg
603.769	1.047	1	test	Phase1	test/STIM_019.jpg
608.533	1.168	1	test	Phase1	test/STIM_019.jpg
613.263	0.968	1	test	Phase1	test/STIM_019.jpg
616.689	1.207	1	test	Phase1	test/STIM_020.jpg
619.879	1.034	1	test	Phase1	test/STIM_020.jpg
623.186	1.011	1	test	Phase1	test/STIM_020.jpg
627.551	1.017	1	test	Phase1	test/STIM_021.jpg
630.674	0.724	1	test	Phase1	test/STIM_021.jpg
633.733	0.987	1	test	Phase1	test/STIM_021.jpg
638.301	0.728	0	test	Phase1	test/STIM_022.jpg
641.728	1.118	0	test	Phase1	test/STIM_022.jpg
645.833	1.234	0	test	Phase1	test/STIM_022.jpg
650.675	0.954	1	test	Phase1	test/STIM_023.jpg
655.509	0.74	1	test	Phase1	test/STIM_023.jpg
658.691	0.723	1	test	Phase1	test/STIM_023.jpg
661.601	0.963	1	test	Phase1	test/STIM_024.jpg
665.526	1.132	1	test	Phase1	test/STIM_024.jpg
670.359	1.032	1	test	Phase1	test/STIM_024.jpg
674.37	0.906	1	test	Phase1	test/STIM_025.jpg
678.3	0.641	1	test	Phase1	test/STIM_025.jpg
682.559	1.352	1	test	Phase1	test/STIM_025.jpg
686.038	0.742	1	test	Phase1	test/STIM_026.jpg
689.868	0.658	1	test	Phase1	test/STIM_026.jpg
692.624	0.909	1	test	Phase1	test/STIM_026.jpg
697.395	0.963	1	test	Phase1	test/STIM_027.jpg
701.593	0.921	1	test	Phase1	test/STIM_027.jpg
705.957	1.058	1	test	Phase1	test/STIM_027.jpg
709.175	0.674	1	test	Phase1	test/STIM_028.jpg
713.062	1.103	1	test	Phase1	test/STIM_028.jpg
717.755	0.726	1	test	Phase1	test/STIM_028.jpg
721.806	1.227	1	test	Phase1	test/STIM_029.jpg
725.677	0.816	1	test	Phase1	test/STIM_029.jpg
729.058	0.879	1	test	Phase1	test/STIM_029.jpg
733.886	0.981	1	study	Phase2	study/STIM_000.jpg
738.815	1.472	1	study	Phase2	study/STIM_000.jpg
743.308	0.865	1	study	Phase2	study/STIM_000.jpg
746.816	0.802	1	study	Phase2	study/STIM_001.jpg
750.217	1.264	0	study	Phase2	study/STIM_001.jpg
754.065	0.684	1	study	Phase2	study/STIM_001.jpg
758.172	1.094	1	study	Phase2	study/STIM_002.jpg
761.557	0.986	1	study	Phase2	study/STIM_002.jpg
764.782	1.221	1	study	Phase2	study/STIM_002.jpg
768.579	1.456	1	study	Phase2	study/STIM_003.jpg
773.384	0.752	1	study	Phase2	study/STIM_003.jpg
777.745	1.252	1	study	Phase2	study/STIM_003.jpg
782.757	1.216	1	study	Phase2	study/STIM_004.jpg
786.353	0.841	1	study	Phase2	study/STIM_004.jpg
790.454	1.152	1	study	Phase2	study/STIM_004.jpg
794.361	0.936	1	study	Phase2	study/STIM_005.jpg
797.668	1.494	0	study	Phase2	study/STIM_005.jpg
801.423	1.168	1	study	Phase2	study/STIM_005.jpg
806.038	1.285	1	study	Phase2	study/STIM_006.jpg
810.275	0.813	1	study	Phase2	study/STIM_006.jpg
815.03	1.192	1	study	Phase2	study/STIM_006.jpg
818.237	1.045	1	study	Phase2	study/STIM_007.jpg
821.541	1.372	0	study	Phase2	study/STIM_007.jpg
826.133	1.056	1	study	Phase2	study/STIM_007.jpg
829.771	0.958	1	study	Phase2	study/STIM_008.jpg
833.136	1.286	1	study	Phase2	study/STIM_008.jpg
838.124	1.279	1	study	Phase2	study/STIM_008.jpg
842.336	0.737	1	study	Phase2	study/STIM_009.jpg
845.958	0.702	1	study	Phase2	study/STIM_009.jpg
848.884	0.828	1	study	Phase2	study/STIM_009.jpg
851.776	1.577	1	study	Phase2	study/STIM_010.jpg
855.932	0.872	1	study	Phase2	study/STIM_010.jpg
858.809	0.697	0	study	Phase2	study/STIM_010.jpg
862.808	0.999	1	study	Phase2	study/STIM_011.jpg
867.668	0.832	1	study	Phase2	study/STIM_011.jpg
871.351	0.752	1	study	Phase2	study/STIM_011.jpg
874.895	1.299	1	study	Phase2	study/STIM_012.jpg
879.896	0.967	1	study	Phase2	study/STIM_012.jpg
883.811	1.191	1	study	Phase2	study/STIM_012.jpg
888.015	1.459	1	study	Phase2	study/STIM_013.jpg
892.145	1.326	1	study	Phase2	study/STIM_013.jpg
896.854	0.684	1	study	Phase2	study/STIM_013.jpg
901.396	1.111	0	study	Phase2	study/STIM_014.jpg
905.545	1.264	1	study	Phase2	study/STIM_014.jpg
908.761	1.016	1	study	Phase2	study/STIM_014.jpg
912.803	1.34	1	study	Phase2	study/STIM_015.jpg
917.101	0.876	1	study	Phase2	study/STIM_015.jpg
920.633	0.912	1	study	Phase2	study/STIM_015.jpg
924.889	0.718	1	study	Phase2	study/STIM_016.jpg
928.308	1.201	1	study	Phase2	study/STIM_016.jpg
932.606	1.153	1	study	Phase2	study/STIM_016.jpg
937.539	1.377	1	study	Phase2	study/STIM_017.jpg
941.195	1.386	1	study	Phase2	study/STIM_017.jpg
944.758	1.169	1	study	Phase2	study/STIM_017.jpg
948.8	1.184	1	study	Phase2	study/STIM_018.jpg
952.106	1.279	1	study	Phase2	study/STIM_018.jpg
956.813	1.299	1	study	Phase2	study/STIM_018.jpg
961.475	0.74	0	study	Phase2	study/STIM_019.jpg
964.581	0.964	1	study	Phase2	study/STIM_019.jpg
968.777	0.84	1	study	Phase2	study/STIM_019.jpg
972.706	1.042	1	study	Phase2	study/STIM_020.jpg
977.364	1.348	1	study	Phase2	study/STIM_020.jpg
981.889	0.91	1	study	Phase2	study/STIM_020.jpg
986.058	0.86	1	study	Phase2	study/STIM_021.jpg
990.762	0.747	0	study	Phase2	study/STIM_021.jpg
993.766	1.217	1	study	Phase2	study/STIM_021.jpg
997.681	0.763	0	study	Phase2	study/STIM_022.jpg
1001.622	1.189	1	study	Phase2	study/STIM_022.jpg
1006.641	1.038	1	study	Phase2	study/STIM_022.jpg
1011.625	0.91	1	study	Phase2	study/STIM_023.jpg
1015.544	0.817	1	study	Phase2	study/STIM_023.jpg
1019.699	0.671	1	study	Phase2	study/STIM_023.jpg
1022.663	0.972	1	study	Phase2	study/STIM_024.jpg
1025.925	1.108	1	study	Phase2	study/STIM_024.jpg
1029.319	0.838	1	study	Phase2	study/STIM_024.jpg
1033.047	1.291	1	study	Phase2	study/STIM_025.jpg
1036.559	0.724	1	study	Phase2	study/STIM_025.jpg
1040.796	0.975	1	study	Phase2	study/STIM_025.jpg
1044.927	1.195	1	study	Phase2	study/STIM_026.jpg
1049.713	0.81	1	study	Phase2	study/STIM_026.jpg
1053.974	1.327	1	study	Phase2	study/STIM_026.jpg
1058.266	1.091	1	study	Phase2	study/STIM_027.jpg
1062.78	0.68	1	study	Phase2	study/STIM_027.jpg
1067.249	0.777	1	study	Phase2	study/STIM_027.jpg
1071.874	0.967	1	study	Phase2	study/STIM_028.jpg
1076.652	0.978	1	study	Phase2	study/STIM_028.jpg
1080.713	1.301	0	study	Phase2	study/STIM_028.jpg
1084.486	1.226	1	study	Phase2	study/STIM_029.jpg
1088.221	1.006	1	study	Phase2	study/STIM_029.jpg
1091.231	0.739	1	study	Phase2	study/STIM_029.jpg
1095.128	0.634	1	test	Phase2	test/STIM_000.jpg
1099.456	0.695	1	test	Phase2	test/STIM_000.jpg
1102.88	0.888	1	test	Phase2	test/STIM_000.jpg
1105.742	1.192	1	test	Phase2	test/STIM_001.jpg
1109.751	1.27	0	test	Phase2	test/STIM_001.jpg
1114.361	0.907	1	test	Phase2	test/STIM_001.jpg
1117.4	0.946	1	test	Phase2	test/STIM_002.jpg
1120.665	1.276	1	test	Phase2	test/STIM_002.jpg
1124.711	0.96	1	test	Phase2	test/STIM_002.jpg
1129.175	0.714	0	test	Phase2	test/STIM_003.jpg
1132.203	1.264	0	test	Phase2	test/STIM_003.jpg
1136.914	0.944	1	test	Phase2	test/STIM_003.jpg
1141.601	0.871	1	test	Phase2	test/STIM_004.jpg
1145.739	1.35	1	test	Phase2	test/STIM_004.jpg
1150.629	1.083	1	test	Phase2	test/STIM_004.jpg
1154.979	0.718	1	test	Phase2	test/STIM_005.jpg
1158.815	1.284	1	test	Phase2	test/STIM_005.jpg
1162.17	1.084	1	test	Phase2	test/STIM_005.jpg
1166.285	0.694	1	test	Phase2	test/STIM_006.jpg
1169.58	1.107	0	test	Phase2	test/STIM_006.jpg
1173.743	0.703	1	test	Phase2	test/STIM_006.jpg
1177.27	0.953	1	test	Phase2	test/STIM_007.jpg
1180.349	0.819	1	test	Phase2	test/STIM_007.jpg
1185.024	1.076	1	test	Phase2	test/STIM_007.jpg
1189.995	1.268	1	test	Phase2	test/STIM_008.jpg
1194.768	1.27	1	test	Phase2	test/STIM_008.jpg
1198.68	1.352	1	test	Phase2	test/STIM_008.jpg
1203.896	0.938	1	test	Phase2	test/STIM_009.jpg
1208.404	0.948	1	test	Phase2	test/STIM_009.jpg
1211.404	1.333	1	test	Phase2	test/STIM_009.jpg
1214.782	0.628	1	test	Phase2	test/STIM_010.jpg
1219.338	1.006	1	test	Phase2	test/STIM_010.jpg
1224.183	1.34	1	test	Phase2	test/STIM_010.jpg
1228.908	0.626	1	test	Phase2	test/STIM_011.jpg
1233.359	0.892	1	test	Phase2	test/STIM_011.jpg
1237.292	0.95	1	test	Phase2	test/STIM_011.jpg
1240.368	1.104	1	test	Phase2	test/STIM_012.jpg
1245.19	0.927	1	test	Phase2	test/STIM_012.jpg
1249.334	1.152	1	test	Phase2	test/STIM_012.jpg
1252.758	0.816	0	test	Phase2	test/STIM_013.jpg
1257.044	1.01	1	test	Phase2	test/STIM_013.jpg
1260.044	1.348	1	test	Phase2	test/STIM_013.jpg
1264.228	0.673	1	test	Phase2	test/STIM_014.jpg
1267.945	1.117	1	test	Phase2	test/STIM_014.jpg
1271.328	0.864	1	test	Phase2	test/STIM_014.jpg
1276.123	1.211	1	test	Phase2	test/STIM_015.jpg
1279.376	0.988	1	test	Phase2	test/STIM_015.jpg
1282.534	1.19	1	test	Phase2	test/STIM_015.jpg
1287.647	0.727	1	test	Phase2	test/STIM_016.jpg
1292.24	1.166	1	test	Phase2	test/STIM_016.jpg
1295.599	1.326	1	test	Phase2	test/STIM_016.jpg
1300.824	0.845	1	test	Phase2	test/STIM_017.jpg
1304.745	1.288	1	test	Phase2	test/STIM_017.jpg
1309.684	0.798	1	test	Phase2	test/STIM_017.jpg
1314.143	0.71	1	test	Phase2	test/STIM_018.jpg
1317.7	0.998	1	test	Phase2	test/STIM_018.jpg
1321.21	0.694	0	test	Phase2	test/STIM_018.jpg
1324.74	0.82	1	test	Phase2	test/STIM_019.jpg
1328.96	0.991	1	test	Phase2	test/STIM_019.jpg
1333.034	0.627	1	test	Phase2	test/STIM_019.jpg
1335.756	0.923	0	test	Phase2	test/STIM_020.jpg
1339.968	0.861	1	test	Phase2	test/STIM_020.jpg
1342.887	0.797	1	test	Phase2	test/STIM_020.jpg
1347.089	0.718	1	test	Phase2	test/STIM_021.jpg
1350.966	1.321	0	test	Phase2	test/STIM_021.jpg
1355.659	1.043	1	test	Phase2	test/STIM_021.jpg
1360.555	0.676	1	test	Phase2	test/STIM_022.jpg
1365.164	0.856	1	test	Phase2	test/STIM_022.jpg
1369.12	1.203	1	test	Phase2	test/STIM_022.jpg
1373.663	0.869	1	test	Phase2	test/STIM_023.jpg
1378.021	1.198	0	test	Phase2	test/STIM_023.jpg
1382.4	1.328	1	test	Phase2	test/STIM_023.jpg
1385.692	0.788	1	test	Phase2	test/STIM_024.jpg
1389.862	1.028	1	test	Phase2	test/STIM_024.jpg
1394.327	1.235	1	test	Phase2	test/STIM_024.jpg
1397.649	1.2	1	test	Phase2	test/STIM_025.jpg
1402.41	1.037	0	test	Phase2	test/STIM_025.jpg
1407.332	1.192	1	test	Phase2	test/STIM_025.jpg
1412.293	1.347	1	test	Phase2	test/STIM_026.jpg
1417.374	0.657	1	test	Phase2	test/STIM_026.jpg
1420.327	0.884	1	test	Phase2	test/STIM_026.jpg
1424.617	1.282	1	test	Phase2	test/STIM_027.jpg
1429.006	1.028	1	test	Phase2	test/STIM_027.jpg
1433.383	0.998	1	test	Phase2	test/STIM_027.jpg
1438.149	1.25	1	test	Phase2	test/STIM_028.jpg
1441.664	1.322	1	test	Phase2	test/STIM_028.jpg
1446.55	0.664	1	test	Phase2	test/STIM_028.jpg
1450.575	1.123	1	test	Phase2	test/STIM_029.jpg
1455.081	0.68	1	test	Phase2	test/STIM_029.jpg
1458.385	0.641	1	test	Phase2	test/STIM_029.jpg
1462.454	1.19	1	study	Phase3	study/STIM_000.jpg
1467.245	0.932	1	study	Phase3	study/STIM_000.jpg
1470.42	0.622	1	study	Phase3	study/STIM_000.jpg
1473.741	0.915	0	study	Phase3	study/STIM_001.jpg
1478.271	0.638	1	study	Phase3	study/STIM_001.jpg
1481.746	0.83	1	study	Phase3	study/STIM_001.jpg
1486.405	0.778	1	study	Phase3	study/STIM_002.jpg
1490.138	1.107	1	study	Phase3	study/STIM_002.jpg
1494.444	0.873	1	study	Phase3	study/STIM_002.jpg
1498.215	0.745	1	study	Phase3	study/STIM_003.jpg
1502.462	1.039	1	study	Phase3	study/STIM_003.jpg
1505.878	1.215	1	study	Phase3	study/STIM_003.jpg
1509.812	1.203	1	study	Phase3	study/STIM_004.jpg
1513.846	1.159	1	study	Phase3	study/STIM_004.jpg
1517.338	0.619	1	study	Phase3	study/STIM_004.jpg
1520.508	1.068	1	study	Phase3	study/STIM_005.jpg
1524.533	0.841	1	study	Phase3	study/STIM_005.jpg
1527.768	0.864	1	study	Phase3	study/STIM_005.jpg
1531.274	0.82	1	study	Phase3	study/STIM_006.jpg
1536.044	0.649	1	study	Phase3	study/STIM_006.jpg
1539.251	1.292	1	study	Phase3	study/STIM_006.jpg
1543.627	0.727	1	study	Phase3	study/STIM_007.jpg
1547.005	1.048	1	study	Phase3	study/STIM_007.jpg
1551.52	1.209	1	study	Phase3	study/STIM_007.jpg
1554.848	1.156	1	study	Phase3	study/STIM_008.jpg
1559.853	1.269	1	study	Phase3	study/STIM_008.jpg
1564.456	0.631	1	study	Phase3	study/STIM_008.jpg
1568.747	0.918	1	study	Phase3	study/STIM_009.jpg
1572.11	0.645	1	study	Phase3	study/STIM_009.jpg
1576.124	1.063	1	study	Phase3	study/STIM_009.jpg
1579.914	0.776	1	study	Phase3	study/STIM_010.jpg
1584.543	0.669	1	study	Phase3	study/STIM_010.jpg
1587.235	0.813	1	study	Phase3	study/STIM_010.jpg
1590.682	1.067	1	study	Phase3	study/STIM_011.jpg
1595.493	0.714	1	study	Phase3	study/STIM_011.jpg
1599.681	1.294	1	study	Phase3	study/STIM_011.jpg
1603.43	0.679	1	study	Phase3	study/STIM_012.jpg
1606.469	0.748	1	study	Phase3	study/STIM_012.jpg
1610.218	0.67	1	study	Phase3	study/STIM_012.jpg
1612.902	0.742	1	study	Phase3	study/STIM_013.jpg
1617.201	0.884	1	study	Phase3	study/STIM_013.jpg
1620.866	1.159	1	study	Phase3	study/STIM_013.jpg
1624.285	0.639	1	study	Phase3	study/STIM_014.jpg
1627.192	1.164	1	study	Phase3	study/STIM_014.jpg
1631.344	1.133	1	study	Phase3	study/STIM_014.jpg
1634.842	0.639	1	study	Phase3	study/STIM_015.jpg
1638.7	1.097	1	study	Phase3	study/STIM_015.jpg
1642.238	0.969	1	study	Phase3	study/STIM_015.jpg
1646.769	1.059	1	study	Phase3	study/STIM_016.jpg
1650.926	1.003	1	study	Phase3	study/STIM_016.jpg
1655.459	0.747	1	study	Phase3	study/STIM_016.jpg
1659.282	0.943	1	study	Phase3	study/STIM_017.jpg
1662.733	0.61	1	study	Phase3	study/STIM_017.jpg
1667.151	0.932	0	study	Phase3	study/STIM_017.jpg
1671.158	1.26	1	study	Phase3	study/STIM_018.jpg
1674.779	1.216	1	study	Phase3	study/STIM_018.jpg
1678.744	1.195	1	study	Phase3	study/STIM_018.jpg
1683.493	1.083	1	study	Phase3	study/STIM_019.jpg
1688.118	0.675	1	study	Phase3	study/STIM_019.jpg
1691.834	1.224	1	study	Phase3	study/STIM_019.jpg
1696.139	1.131	1	study	Phase3	study/STIM_020.jpg
1700.482	1.268	1	study	Phase3	study/STIM_020.jpg
1705.461	1.034	1	study	Phase3	study/STIM_020.jpg
1709.385	0.704	1	study	Phase3	study/STIM_021.jpg
1713.427	0.857	1	study	Phase3	study/STIM_021.jpg
1717.742	1.155	1	study	Phase3	study/STIM_021.jpg
1721.482	1.147	1	study	Phase3	study/STIM_022.jpg
1726.459	1.183	1	study	Phase3	study/STIM_022.jpg
1730.078	0.847	1	study	Phase3	study/STIM_022.jpg
1732.938	1.151	1	study	Phase3	study/STIM_023.jpg
1737.644	0.985	1	study	Phase3	study/STIM_023.jpg
1741.994	1.17	0	study	Phase3	study/STIM_023.jpg
1746.02	0.816	1	study	Phase3	study/STIM_024.jpg
1749.846	1.153	1	study	Phase3	study/STIM_024.jpg
1754.242	0.785	1	study	Phase3	study/STIM_024.jpg
1757.544	0.772	1	study	Phase3	study/STIM_025.jpg
1760.444	1.21	1	study	Phase3	study/STIM_025.jpg
1763.825	0.839	1	study	Phase3	study/STIM_025.jpg
1767.311	0.808	1	study	Phase3	study/STIM_026.jpg
1770.13	0.94	1	study	Phase3	study/STIM_026.jpg
1774.632	0.634	1	study	Phase3	study/STIM_026.jpg
1778.164	1.184	1	study	Phase3	study/STIM_027.jpg
1781.768	1.158	1	study	Phase3	study/STIM_027.jpg
1785.94	0.597	1	study	Phase3	study/STIM_027.jpg
1789.279	0.611	1	study	Phase3	study/STIM_028.jpg
1792.703	0.721	1	study	Phase3	study/STIM_028.jpg
1796.312	1.025	1	study	Phase3	study/STIM_028.jpg
1800.342	0.663	1	study	Phase3	study/STIM_029.jpg
1803.552	1.306	1	study	Phase3	study/STIM_029.jpg
1807.776	1.096	1	study	Phase3	study/STIM_029.jpg
1812.39	0.81	1	test	Phase3	test/STIM_000.jpg
1815.882	0.705	1	test	Phase3	test/STIM_000.jpg
1820.442	1.092	1	test	Phase3	test/STIM_000.jpg
1824.498	1.056	1	test	Phase3	test/STIM_001.jpg
1829.103	1.132	0	test	Phase3	test/STIM_001.jpg
1834.095	1.279	1	test	Phase3	test/STIM_001.jpg
1837.412	1.111	1	test	Phase3	test/STIM_002.jpg
1841.715	1.124	1	test	Phase3	test/STIM_002.jpg
1846.534	1.287	1	test	Phase3	test/STIM_002.jpg
1851.56	1.181	1	test	Phase3	test/STIM_003.jpg
1854.766	0.631	1	test	Phase3	test/STIM_003.jpg
1858.416	1.131	1	test	Phase3	test/STIM_003.jpg
1861.832	1.248	1	test	Phase3	test/STIM_004.jpg
1866.798	1.243	1	test	Phase3	test/STIM_004.jpg
1870.593	0.692	1	test	Phase3	test/STIM_004.jpg
1873.695	0.945	0	test	Phase3	test/STIM_005.jpg
1877.974	0.979	1	test	Phase3	test/STIM_005.jpg
1882.543	1.143	1	test	Phase3	test/STIM_005.jpg
1887.431	1.025	1	test	Phase3	test/STIM_006.jpg
1891.567	0.976	1	test	Phase3	test/STIM_006.jpg
1895.346	1.19	1	test	Phase3	test/STIM_006.jpg
1899.044	0.694	1	test	Phase3	test/STIM_007.jpg
1902.049	0.647	0	test	Phase3	test/STIM_007.jpg
1905.179	0.785	1	test	Phase3	test/STIM_007.jpg
1909.431	1.194	1	test	Phase3	test/STIM_008.jpg
1913.673	0.722	1	test	Phase3	test/STIM_008.jpg
1917.064	0.771	1	test	Phase3	test/STIM_008.jpg
1921.719	1.035	1	test	Phase3	test/STIM_009.jpg
1925.88	1.3	1	test	Phase3	test/STIM_009.jpg
1929.405	1.129	1	test	Phase3	test/STIM_009.jpg
1932.494	1.246	1	test	Phase3	test/STIM_010.jpg
1936.083	0.626	1	test	Phase3	test/STIM_010.jpg
1940.194	0.89	1	test	Phase3	test/STIM_010.jpg
1944.128	1.147	1	test	Phase3	test/STIM_011.jpg
1947.622	0.659	1	test	Phase3	test/STIM_011.jpg
1952.007	1.027	1	test	Phase3	test/STIM_011.jpg
1955.469	1.057	1	test	Phase3	test/STIM_012.jpg
1959.864	0.629	1	test	Phase3	test/STIM_012.jpg
1964.201	0.708	1	test	Phase3	test/STIM_012.jpg
1968.528	0.825	1	test	Phase3	test/STIM_013.jpg
1971.515	1.097	1	test	Phase3	test/STIM_013.jpg
1976.269	0.953	1	test	Phase3	test/STIM_013.jpg
1981.053	1.304	1	test	Phase3	test/STIM_014.jpg
1985.278	0.741	1	test	Phase3	test/STIM_014.jpg
1989.323	0.718	1	test	Phase3	test/STIM_014.jpg
1993.468	1.091	1	test	Phase3	test/STIM_015.jpg
1997.601	1.312	1	test	Phase3	test/STIM_015.jpg
2001.637	1.067	1	test	Phase3	test/STIM_015.jpg
2005.358	0.895	1	test	Phase3	test/STIM_016.jpg
2009.13	1.008	1	test	Phase3	test/STIM_016.jpg
2012.187	1.096	1	test	Phase3	test/STIM_016.jpg
2015.713	0.778	1	test	Phase3	test/STIM_017.jpg
2018.609	1.032	1	test	Phase3	test/STIM_017.jpg
2023.241	0.672	1	test	Phase3	test/STIM_017.jpg
2027.456	1.184	1	test	Phase3	test/STIM_018.jpg
2030.616	1.194	1	test	Phase3	test/STIM_018.jpg
2034.92	0.693	1	test	Phase3	test/STIM_018.jpg
2037.902	1.16	1	test	Phase3	test/STIM_019.jpg
2041.289	0.667	1	test	Phase3	test/STIM_019.jpg
2044.321	0.63	1	test	Phase3	test/STIM_019.jpg
2047.357	1.123	1	test	Phase3	test/STIM_020.jpg
2050.912	0.786	1	test	Phase3	test/STIM_020.jpg
2054.013	1.314	1	test	Phase3	test/STIM_020.jpg
2057.463	1.03	1	test	Phase3	test/STIM_021.jpg
2061.716	1.328	1	test	Phase3	test/STIM_021.jpg
2065.712	0.87	1	test	Phase3	test/STIM_021.jpg
2069.756	1.009	0	test	Phase3	test/STIM_022.jpg
2073.582	1.201	1	test	Phase3	test/STIM_022.jpg
2078.169	0.826	1	test	Phase3	test/STIM_022.jpg
2081.033	1.058	1	test	Phase3	test/STIM_023.jpg
2085.783	0.857	1	test	Phase3	test/STIM_023.jpg
2088.676	1.199	1	test	Phase3	test/STIM_023.jpg
2092.685	1.346	1	test	Phase3	test/STIM_024.jpg
2096.639	0.787	1	test	Phase3	test/STIM_024.jpg
2100.765	1.153	1	test	Phase3	test/STIM_024.jpg
2104.353	0.86	1	test	Phase3	test/STIM_025.jpg
2109.014	0.643	1	test	Phase3	test/STIM_025.jpg
2113.356	1.151	1	test	Phase3	test/STIM_025.jpg
2117.416	1.287	1	test	Phase3	test/STIM_026.jpg
2122.628	0.729	1	test	Phase3	test/STIM_026.jpg
2126.955	1.227	1	test	Phase3	test/STIM_026.jpg
2130.471	1.315	1	test	Phase3	test/STIM_027.jpg
2133.76	0.809	1	test	Phase3	test/STIM_027.jpg
2138.37	0.737	1	test	Phase3	test/STIM_027.jpg
2141.962	1.169	1	test	Phase3	test/STIM_028.jpg
2145.741	0.672	1	test	Phase3	test/STIM_028.jpg
2148.827	0.639	1	test	Phase3	test/STIM_028.jpg
2151.952	1.233	0	test	Phase3	test/STIM_029.jpg
2157.082	0.733	1	test	Phase3	test/STIM_029.jpg
2159.792	1.147	1	test	Phase3	test/STIM_029.jpg
