onset	duration	accuracy_binary	trial_type	learning_stage	stimulus
0.0	1.408	1	study	Phase1	study/STIM_000.jpg
4.363	0.648	1	study	Phase1	study/STIM_000.jpg
7.119	0.95	1	study	Phase1	study/STIM_000.jpg
10.076	1.171	1	study	Phase1	study/STIM_001.jpg
13.695	0.633	1	study	Phase1	study/STIM_001.jpg
17.528	1.073	1	study	Phase1	study/STIM_001.jpg
20.908	1.399	1	study	Phase1	study/STIM_002.jpg
25.842	0.75	1	study	Phase1	study/STIM_002.jpg
29.636	1.155	1	study	Phase1	study/STIM_002.jpg
33.59	0.885	1	study	Phase1	study/STIM_003.jpg
37.044	0.722	0	study	Phase1	study/STIM_003.jpg
40.419	0.682	1	study	Phase1	study/STIM_003.jpg
44.34	0.913	1	study	Phase1	study/STIM_004.jpg
48.563	1.167	1	study	Phase1	study/STIM_004.jpg
52.833	0.603	1	study	Phase1	study/STIM_004.jpg
57.258	0.754	1	study	Phase1	study/STIM_005.jpg
61.08	0.843	1	study	Phase1	study/STIM_005.jpg
63.957	0.79	1	study	Phase1	study/STIM_005.jpg
67.71	1.143	1	study	Phase1	study/STIM_006.jpg
71.149	0.788	1	study	Phase1	study/STIM_006.jpg
74.412	0.985	1	study	Phase1	study/STIM_006.jpg
79.1	1.44	1	study	Phase1	study/STIM_007.jpg
83.741	1.251	1	study	Phase1	study/STIM_007.jpg
87.873	0.754	1	study	Phase1	study/STIM_007.jpg
92.13	1.466	0	study	Phase1	study/STIM_008.jpg
95.986	0.654	1	study	Phase1	study/STIM_008.jpg
99.606	1.116	1	study	Phase1	study/STIM_008.jpg
104.503	0.871	1	study	Phase1	study/STIM_009.jpg
109.202	1.076	1	study	Phase1	study/STIM_009.jpg
112.667	0.763	1	study	Phase1	study/STIM_009.jpg
115.878	1.365	0	study	Phase1	study/STIM_010.jpg
119.606	1.298	1	study	Phase1	study/STIM_010.jpg
123.257	0.758	1	study	Phase1	study/STIM_010.jpg
126.12	1.426	1	study	Phase1	study/STIM_011.jpg
130.525	0.703	1	study	Phase1	study/STIM_011.jpg
134.163	0.678	1	study	Phase1	study/STIM_011.jpg
138.43	0.68	1	study	Phase1	study/STIM_012.jpg
142.741	0.962	1	study	Phase1	study/STIM_012.jpg
145.926	0.826	1	study	Phase1	study/STIM_012.jpg
150.744	0.894	1	study	Phase1	study/STIM_013.jpg
155.334	1.343	1	study	Phase1	study/STIM_013.jpg
159.793	1.076	1	study	Phase1	study/STIM_013.jpg
164.084	0.901	0	study	Phase1	study/STIM_014.jpg
167.6	1.304	1	study	Phase1	study/STIM_014.jpg
172.047	0.972	1	study	Phase1	study/STIM_014.jpg
175.075	0.775	1	study	Phase1	study/STIM_015.jpg
179.733	0.714	1	study	Phase1	study/STIM_015.jpg
183.377	0.94	0	study	Phase1	study/STIM_015.jpg
188.143	1.396	0	study	Phase1	study/STIM_016.jpg
192.839	0.679	1	study	Phase1	study/STIM_016.jpg
197.252	1.066	0	study	Phase1	study/STIM_016.jpg
202.234	1.264	1	study	Phase1	study/STIM_017.jpg
206.272	1.211	0	study	Phase1	study/STIM_017.jpg
209.611	1.221	1	study	Phase1	study/STIM_017.jpg
214.189	0.914	1	study	Phase1	study/STIM_018.jpg
218.798	1.361	1	study	Phase1	study/STIM_018.jpg
223.005	1.011	1	study	Phase1	study/STIM_018.jpg
226.549	0.712	1	study	Phase1	study/STIM_019.jpg
230.252	1.15	0	study	Phase1	study/STIM_019.jpg
233.552	1.149	1	study	Phase1	study/STIM_019.jpg
237.515	1.121	1	study	Phase1	study/STIM_020.jpg
241.16	1.351	1	study	Phase1	study/STIM_020.jpg
246.316	1.133	1	study	Phase1	study/STIM_020.jpg
249.615	1.405	1	study	Phase1	study/STIM_021.jpg
254.511	1.308	1	study	Phase1	study/STIM_021.jpg
259.649	1.039	1	study	Phase1	study/STIM_021.jpg
264.516	1.084	0	study	Phase1	study/STIM_022.jpg
268.867	1.051	1	study	Phase1	study/STIM_022.jpg
272.279	0.598	1	study	Phase1	study/STIM_022.jpg
276.338	0.658	1	study	Phase1	study/STIM_023.jpg
279.894	1.349	1	study	Phase1	study/STIM_023.jpg
284.809	0.889	1	study	Phase1	study/STIM_023.jpg
287.896	1.007	1	study	Phase1	study/STIM_024.jpg
292.047	1.004	1	study	Phase1	study/STIM_024.jpg
295.423	1.025	1	study	Phase1	study/STIM_024.jpg
299.892	0.905	0	study	Phase1	study/STIM_025.jpg
304.562	1.0	1	study	Phase1	study/STIM_025.jpg
309.334	0.852	1	study	Phase1	study/STIM_025.jpg
312.827	0.898	1	study	Phase1	study/STIM_026.jpg
316.037	1.294	0	study	Phase1	study/STIM_026.jpg
319.37	0.813	1	study	Phase1	study/STIM_026.jpg
323.902	1.118	1	study	Phase1	study/STIM_027.jpg
328.076	1.271	0	study	Phase1	study/STIM_027.jpg
332.117	0.986	1	study	Phase1	study/STIM_027.jpg
336.267	0.824	1	study	Phase1	study/STIM_028.jpg
339.28	1.359	1	study	Phase1	study/STIM_028.jpg
344.171	0.954	0	study	Phase1	study/STIM_028.jpg
347.379	1.161	1	study	Phase1	study/STIM_029.jpg
350.665	0.851	1	study	Phase1	study/STIM_029.jpg
354.037	1.157	0	study	Phase1	study/STIM_029.jpg
358.573	0.933	1	test	Phase1	test/STIM_000.jpg
363.252	0.832	1	test	Phase1	test/STIM_000.jpg
366.386	0.779	1	test	Phase1	test/STIM_000.jpg
370.986	0.744	1	test	Phase1	test/STIM_001.jpg
375.148	0.981	0	test	Phase1	test/STIM_001.jpg
378.235	0.905	1	test	Phase1	test/STIM_001.jpg
383.119	0.936	1	test	Phase1	test/STIM_002.jpg
387.91	0.658	1	test	Phase1	test/STIM_002.jpg
391.792	1.015	1	test	Phase1	test/STIM_002.jpg
395.934	0.672	1	test	Phase1	test/STIM_003.jpg
399.334	0.594	1	test	Phase1	test/STIM_003.jpg
402.983	0.933	1	test	Phase1	test/STIM_003.jpg
406.716	0.628	0	test	Phase1	test/STIM_004.jpg
410.28	0.748	1	test	Phase1	test/STIM_004.jpg
414.481	0.766	1	test	Phase1	test/STIM_004.jpg
418.342	0.832	1	test	Phase1	test/STIM_005.jpg
421.582	0.629	1	test	Phase1	test/STIM_005.jpg
424.688	0.646	1	test	Phase1	test/STIM_005.jpg
429.102	0.673	1	test	Phase1	test/STIM_006.jpg
432.308	1.044	1	test	Phase1	test/STIM_006.jpg
436.573	0.911	1	test	Phase1	test/STIM_006.jpg
441.422	0.578	1	test	Phase1	test/STIM_007.jpg
444.29	0.943	1	test	Phase1	test/STIM_007.jpg
448.341	0.55	0	test	Phase1	test/STIM_007.jpg
451.452	1.007	0	test	Phase1	test/STIM_008.jpg
455.759	0.888	1	test	Phase1	test/STIM_008.jpg
460.402	1.049	1	test	Phase1	test/STIM_008.jpg
464.001	0.718	1	test	Phase1	test/STIM_009.jpg
467.453	0.914	0	test	Phase1	test/STIM_009.jpg
470.402	0.9	1	test	Phase1	test/STIM_009.jpg
474.856	0.557	1	test	Phase1	test/STIM_010.jpg
478.457	0.915	0	test	Phase1	test/STIM_010.jpg
482.47	0.679	1	test	Phase1	test/STIM_010.jpg
486.097	0.923	1	test	Phase1	test/STIM_011.jpg
489.208	0.801	1	test	Phase1	test/STIM_011.jpg
493.441	0.675	1	test	Phase1	test/STIM_011.jpg
497.361	0.513	0	test	Phase1	test/STIM_012.jpg
501.688	0.881	1	test	Phase1	test/STIM_012.jpg
505.75	0.588	1	test	Phase1	test/STIM_012.jpg
509.341	0.505	1	test	Phase1	test/STIM_013.jpg
512.228	0.714	1	test	Phase1	test/STIM_013.jpg
516.611	0.89	1	test	Phase1	test/STIM_013.jpg
520.222	0.492	1	test	Phase1	test/STIM_014.jpg
524.225	0.835	1	test	Phase1	test/STIM_014.jpg
527.621	0.534	1	test	Phase1	test/STIM_014.jpg
530.232	0.524	1	test	Phase1	test/STIM_015.jpg
533.903	1.058	1	test	Phase1	test/STIM_015.jpg
537.907	0.835	1	test	Phase1	test/STIM_015.jpg
542.121	0.952	1	test	Phase1	test/STIM_016.jpg
545.941	0.844	1	test	Phase1	test/STIM_016.jpg
549.887	0.837	0	test	Phase1	test/STIM_016.jpg
553.917	0.85	1	test	Phase1	test/STIM_017.jpg
557.91	0.603	0	test	Phase1	test/STIM_017.jpg
561.11	0.54	1	test	Phase1	test/STIM_017.jpg
563.782	0.852	1	test	Phase1	test/STIM_018.jpg
566.809	0.616	1	test	Phase1	test/STIM_018.jpg
569.619	0.967	0	test	Phase1	test/STIM_018.jpg
574.366	0.529	1	test	Phase1	test/STIM_019.jpg
578.624	0.799	1	test	Phase1	test/STIM_019.jpg
581.573	0.568	1	test	Phase1	test/STIM_019.jpg
585.215	0.987	1	test	Phase1	test/STIM_020.jpg
589.533	0.879	1	test	Phase1	test/STIM_020.jpg
593.966	1.049	1	test	Phase1	test/STIM_020.jpg
597.431	1.023	1	test	Phase1	test/STIM_021.jpg
600.988	1.048	1	test	Phase1	test/STIM_021.jpg
604.165	0.955	1	test	Phase1	test/STIM_021.jpg
607.562	0.873	0	test	Phase1	test/STIM_022.jpg
611.787	0.956	0	test	Phase1	test/STIM_022.jpg
616.198	0.608	0	test	Phase1	test/STIM_022.jpg
619.91	0.92	1	test	Phase1	test/STIM_023.jpg
624.693	0.888	1	test	Phase1	test/STIM_023.jpg
629.45	0.578	1	test	Phase1	test/STIM_023.jpg
632.325	1.062	1	test	Phase1	test/STIM_024.jpg
636.379	0.758	1	test	Phase1	test/STIM_024.jpg
640.124	0.576	1	test	Phase1	test/STIM_024.jpg
644.617	0.953	1	test	Phase1	test/STIM_025.jpg
647.574	0.511	1	test	Phase1	test/STIM_025.jpg
651.445	0.959	1	test	Phase1	test/STIM_025.jpg
656.361	0.773	1	test	Phase1	test/STIM_026.jpg
659.594	0.685	1	test	Phase1	test/STIM_026.jpg
663.482	0.702	1	test	Phase1	test/STIM_026.jpg
666.869	0.516	1	test	Phase1	test/STIM_027.jpg
670.03	0.708	1	test	Phase1	test/STIM_027.jpg
673.901	0.827	1	test	Phase1	test/STIM_027.jpg
677.704	0.96	1	test	Phase1	test/STIM_028.jpg
681.736	1.056	0	test	Phase1	test/STIM_028.jpg
686.245	0.761	1	test	Phase1	test/STIM_028.jpg
689.814	0.664	1	test	Phase1	test/STIM_029.jpg
694.222	0.901	1	test	Phase1	test/STIM_029.jpg
698.551	0.51	1	test	Phase1	test/STIM_029.jpg
702.247	0.878	1	study	Phase2	study/STIM_000.jpg
706.34	1.154	1	study	Phase2	study/STIM_000.jpg
710.175	1.002	1	study	Phase2	study/STIM_000.jpg
715.116	0.564	1	study	Phase2	study/STIM_001.jpg
717.82	0.868	0	study	Phase2	study/STIM_001.jpg
722.528	0.739	1	study	Phase2	study/STIM_001.jpg
726.651	0.569	1	study	Phase2	study/STIM_002.jpg
730.256	0.912	0	study	Phase2	study/STIM_002.jpg
733.279	0.599	1	study	Phase2	study/STIM_002.jpg
736.591	0.857	1	study	Phase2	study/STIM_003.jpg
740.877	0.693	0	study	Phase2	study/STIM_003.jpg
744.326	0.937	1	study	Phase2	study/STIM_003.jpg
747.364	1.119	1	study	Phase2	study/STIM_004.jpg
751.144	0.538	1	study	Phase2	study/STIM_004.jpg
755.095	0.717	1	study	Phase2	study/STIM_004.jpg
759.092	0.618	1	study	Phase2	study/STIM_005.jpg
763.404	0.655	1	study	Phase2	study/STIM_005.jpg
766.511	0.544	1	study	Phase2	study/STIM_005.jpg
770.859	0.976	1	study	Phase2	study/STIM_006.jpg
774.941	0.79	1	study	Phase2	study/STIM_006.jpg
779.24	0.992	1	study	Phase2	study/STIM_006.jpg
783.835	0.664	0	study	Phase2	study/STIM_007.jpg
787.795	0.592	0	study	Phase2	study/STIM_007.jpg
791.83	0.74	1	study	Phase2	study/STIM_007.jpg
796.344	0.586	1	study	Phase2	study/STIM_008.jpg
799.035	1.004	1	study	Phase2	study/STIM_008.jpg
803.853	1.038	1	study	Phase2	study/STIM_008.jpg
807.911	0.943	1	study	Phase2	study/STIM_009.jpg
812.647	1.071	1	study	Phase2	study/STIM_009.jpg
817.069	0.87	1	study	Phase2	study/STIM_009.jpg
820.324	0.69	1	study	Phase2	study/STIM_010.jpg
824.12	0.839	1	study	Phase2	study/STIM_010.jpg
828.659	0.599	0	study	Phase2	study/STIM_010.jpg
832.848	1.102	1	study	Phase2	study/STIM_011.jpg
837.632	0.837	1	study	Phase2	study/STIM_011.jpg
842.441	0.809	1	study	Phase2	study/STIM_011.jpg
845.81	0.788	1	study	Phase2	study/STIM_012.jpg
849.125	0.804	1	study	Phase2	study/STIM_012.jpg
852.478	0.92	1	study	Phase2	study/STIM_012.jpg
855.884	1.241	1	study	Phase2	study/STIM_013.jpg
860.584	1.072	1	study	Phase2	study/STIM_013.jpg
864.371	0.964	1	study	Phase2	study/STIM_013.jpg
868.059	1.076	1	study	Phase2	study/STIM_014.jpg
871.605	0.539	1	study	Phase2	study/STIM_014.jpg
875.493	1.051	1	study	Phase2	study/STIM_014.jpg
878.989	1.168	1	study	Phase2	study/STIM_015.jpg
883.626	0.973	1	study	Phase2	study/STIM_015.jpg
888.322	0.992	1	study	Phase2	study/STIM_015.jpg
892.759	1.14	1	study	Phase2	study/STIM_016.jpg
896.327	1.037	1	study	Phase2	study/STIM_016.jpg
900.163	0.722	1	study	Phase2	study/STIM_016.jpg
904.762	1.116	1	study	Phase2	study/STIM_017.jpg
908.09	0.767	1	study	Phase2	study/STIM_017.jpg
910.871	1.034	1	study	Phase2	study/STIM_017.jpg
915.606	1.116	1	study	Phase2	study/STIM_018.jpg
919.99	1.151	1	study	Phase2	study/STIM_018.jpg
924.402	0.974	0	study	Phase2	study/STIM_018.jpg
929.31	0.569	1	study	Phase2	study/STIM_019.jpg
932.033	1.081	1	study	Phase2	study/STIM_019.jpg
935.932	1.016	1	study	Phase2	study/STIM_019.jpg
939.266	0.748	1	study	Phase2	study/STIM_020.jpg
943.275	1.044	1	study	Phase2	study/STIM_020.jpg
946.496	0.626	1	study	Phase2	study/STIM_020.jpg
949.681	0.709	1	study	Phase2	study/STIM_021.jpg
954.102	0.589	1	study	Phase2	study/STIM_021.jpg
957.685	0.895	1	study	Phase2	study/STIM_021.jpg
961.189	1.219	0	study	Phase2	study/STIM_022.jpg
965.463	0.69	1	study	Phase2	study/STIM_022.jpg
969.05	1.051	1	study	Phase2	study/STIM_022.jpg
973.497	1.217	1	study	Phase2	study/STIM_023.jpg
977.531	1.159	1	study	Phase2	study/STIM_023.jpg
982.569	0.734	1	study	Phase2	study/STIM_023.jpg
985.803	1.157	1	study	Phase2	study/STIM_024.jpg
989.496	0.592	1	study	Phase2	study/STIM_024.jpg
993.353	0.657	1	study	Phase2	study/STIM_024.jpg
996.711	1.193	1	study	Phase2	study/STIM_025.jpg
1000.899	0.751	1	study	Phase2	study/STIM_025.jpg
1004.637	0.965	1	study	Phase2	study/STIM_025.jpg
1007.755	1.11	1	study	Phase2	study/STIM_026.jpg
1012.51	0.747	1	study	Phase2	study/STIM_026.jpg
1016.481	1.038	1	study	Phase2	study/STIM_026.jpg
1019.563	1.17	1	study	Phase2	study/STIM_027.jpg
1024.35	0.562	1	study	Phase2	study/STIM_027.jpg
1027.751	1.041	1	study	Phase2	study/STIM_027.jpg
1032.561	1.024	1	study	Phase2	study/STIM_028.jpg
1035.708	0.973	1	study	Phase2	study/STIM_028.jpg
1040.134	0.93	0	study	Phase2	study/STIM_028.jpg
1043.473	1.194	1	study	Phase2	study/STIM_029.jpg
1047.091	0.936	1	study	Phase2	study/STIM_029.jpg
1051.749	0.551	1	study	Phase2	study/STIM_029.jpg
1055.521	0.503	1	test	Phase2	test/STIM_000.jpg
1059.394	0.889	1	test	Phase2	test/STIM_000.jpg
1062.957	1.014	1	test	Phase2	test/STIM_000.jpg
1066.004	0.678	0	test	Phase2	test/STIM_001.jpg
1068.978	0.547	0	test	Phase2	test/STIM_001.jpg
1072.786	0.674	1	test	Phase2	test/STIM_001.jpg
1075.579	0.913	1	test	Phase2	test/STIM_002.jpg
1080.151	0.863	1	test	Phase2	test/STIM_002.jpg
1084.169	0.772	1	test	Phase2	test/STIM_002.jpg
1087.047	0.657	0	test	Phase2	test/STIM_003.jpg
1091.558	0.637	1	test	Phase2	test/STIM_003.jpg
1095.152	0.849	1	test	Phase2	test/STIM_003.jpg
1098.246	0.615	1	test	Phase2	test/STIM_004.jpg
1100.942	0.816	1	test	Phase2	test/STIM_004.jpg
1105.062	0.768	1	test	Phase2	test/STIM_004.jpg
1109.078	0.765	1	test	Phase2	test/STIM_005.jpg
1113.079	0.815	1	test	Phase2	test/STIM_005.jpg
1117.566	0.839	1	test	Phase2	test/STIM_005.jpg
1121.852	0.95	1	test	Phase2	test/STIM_006.jpg
1126.136	0.568	1	test	Phase2	test/STIM_006.jpg
1130.581	0.677	1	test	Phase2	test/STIM_006.jpg
1133.55	0.716	1	test	Phase2	test/STIM_007.jpg
1137.12	0.902	1	test	Phase2	test/STIM_007.jpg
1140.242	0.93	1	test	Phase2	test/STIM_007.jpg
1143.931	1.061	1	test	Phase2	test/STIM_008.jpg
1147.037	0.681	1	test	Phase2	test/STIM_008.jpg
1149.758	0.618	1	test	Phase2	test/STIM_008.jpg
1152.844	0.521	1	test	Phase2	test/STIM_009.jpg
1156.483	0.812	1	test	Phase2	test/STIM_009.jpg
1159.559	0.776	1	test	Phase2	test/STIM_009.jpg
1162.78	0.804	1	test	Phase2	test/STIM_010.jpg
1167.565	0.832	1	test	Phase2	test/STIM_010.jpg
1172.064	1.028	1	test	Phase2	test/STIM_010.jpg
1175.519	0.661	1	test	Phase2	test/STIM_011.jpg
1179.221	0.634	1	test	Phase2	test/STIM_011.jpg
1183.668	0.695	1	test	Phase2	test/STIM_011.jpg
1187.526	0.563	1	test	Phase2	test/STIM_012.jpg
1191.868	1.024	1	test	Phase2	test/STIM_012.jpg
1195.686	0.655	1	test	Phase2	test/STIM_012.jpg
1200.107	0.959	0	test	Phase2	test/STIM_013.jpg
1204.344	0.92	1	test	Phase2	test/STIM_013.jpg
1208.467	0.923	1	test	Phase2	test/STIM_013.jpg
1211.871	0.714	1	test	Phase2	test/STIM_014.jpg
1215.107	1.014	1	test	Phase2	test/STIM_014.jpg
1219.913	0.66	1	test	Phase2	test/STIM_014.jpg
1222.774	0.808	1	test	Phase2	test/STIM_015.jpg
1226.11	0.618	1	test	Phase2	test/STIM_015.jpg
1229.824	0.732	0	test	Phase2	test/STIM_015.jpg
1234.413	0.735	0	test	Phase2	test/STIM_016.jpg
1237.223	0.578	1	test	Phase2	test/STIM_016.jpg
1241.06	1.046	1	test	Phase2	test/STIM_016.jpg
1245.686	1.012	0	test	Phase2	test/STIM_017.jpg
1249.204	0.771	1	test	Phase2	test/STIM_017.jpg
1251.998	0.769	1	test	Phase2	test/STIM_017.jpg
1255.969	0.775	1	test	Phase2	test/STIM_018.jpg
1259.982	0.881	1	test	Phase2	test/STIM_018.jpg
1263.897	0.647	1	test	Phase2	test/STIM_018.jpg
1266.919	0.577	1	test	Phase2	test/STIM_019.jpg
1271.336	0.867	1	test	Phase2	test/STIM_019.jpg
1276.054	1.005	1	test	Phase2	test/STIM_019.jpg
1280.186	1.008	0	test	Phase2	test/STIM_020.jpg
1284.01	0.944	1	test	Phase2	test/STIM_020.jpg
1287.051	0.558	1	test	Phase2	test/STIM_020.jpg
1289.668	1.017	1	test	Phase2	test/STIM_021.jpg
1293.882	0.813	0	test	Phase2	test/STIM_021.jpg
1296.758	0.6	1	test	Phase2	test/STIM_021.jpg
1300.251	0.727	0	test	Phase2	test/STIM_022.jpg
1303.673	0.792	1	test	Phase2	test/STIM_022.jpg
1306.598	0.772	1	test	Phase2	test/STIM_022.jpg
1309.885	0.677	1	test	Phase2	test/STIM_023.jpg
1314.3	0.676	0	test	Phase2	test/STIM_023.jpg
1318.637	1.048	1	test	Phase2	test/STIM_023.jpg
1323.262	0.765	1	test	Phase2	test/STIM_024.jpg
1327.391	0.755	1	test	Phase2	test/STIM_024.jpg
1330.36	0.986	1	test	Phase2	test/STIM_024.jpg
1333.496	0.87	1	test	Phase2	test/STIM_025.jpg
1337.659	1.01	0	test	Phase2	test/STIM_025.jpg
1341.364	0.945	1	test	Phase2	test/STIM_025.jpg
1345.127	0.976	1	test	Phase2	test/STIM_026.jpg
1349.008	0.513	1	test	Phase2	test/STIM_026.jpg
1353.001	0.616	1	test	Phase2	test/STIM_026.jpg
1356.187	0.497	1	test	Phase2	test/STIM_027.jpg
1358.976	0.904	1	test	Phase2	test/STIM_027.jpg
1363.865	0.795	1	test	Phase2	test/STIM_027.jpg
1368.205	0.725	0	test	Phase2	test/STIM_028.jpg
1372.832	0.786	1	test	Phase2	test/STIM_028.jpg
1376.224	0.899	1	test	Phase2	test/STIM_028.jpg
1380.91	0.605	1	test	Phase2	test/STIM_029.jpg
1385.431	0.579	1	test	Phase2	test/STIM_029.jpg
1389.171	1.052	1	test	Phase2	test/STIM_029.jpg
1392.451	0.886	1	study	Phase3	study/STIM_000.jpg
1397.321	0.817	1	study	Phase3	study/STIM_000.jpg
1401.253	0.825	1	study	Phase3	study/STIM_000.jpg
1404.235	0.532	0	study	Phase3	study/STIM_001.jpg
1407.723	0.636	1	study	Phase3	study/STIM_001.jpg
1412.209	0.476	1	study	Phase3	study/STIM_001.jpg
1416.499	0.849	1	study	Phase3	study/STIM_002.jpg
1419.799	1.018	1	study	Phase3	study/STIM_002.jpg
1424.746	1.028	1	study	Phase3	study/STIM_002.jpg
1428.915	0.935	1	study	Phase3	study/STIM_003.jpg
1432.722	0.62	1	study	Phase3	study/STIM_003.jpg
1435.487	0.47	1	study	Phase3	study/STIM_003.jpg
1439.194	0.634	1	study	Phase3	study/STIM_004.jpg
1443.604	0.538	1	study	Phase3	study/STIM_004.jpg
1446.78	0.866	1	study	Phase3	study/STIM_004.jpg
1450.622	0.545	1	study	Phase3	study/STIM_005.jpg
1455.084	0.652	1	study	Phase3	study/STIM_005.jpg
1457.854	0.494	1	study	Phase3	study/STIM_005.jpg
1461.556	0.671	1	study	Phase3	study/STIM_006.jpg
1465.699	0.538	1	study	Phase3	study/STIM_006.jpg
1470.15	0.727	1	study	Phase3	study/STIM_006.jpg
1474.561	0.747	1	study	Phase3	study/STIM_007.jpg
1478.749	0.704	1	study	Phase3	study/STIM_007.jpg
1481.793	0.679	1	study	Phase3	study/STIM_007.jpg
1485.652	0.794	1	study	Phase3	study/STIM_008.jpg
1488.657	0.5	1	study	Phase3	study/STIM_008.jpg
1492.742	0.495	1	study	Phase3	study/STIM_008.jpg
1495.746	0.828	1	study	Phase3	study/STIM_009.jpg
1498.972	0.715	1	study	Phase3	study/STIM_009.jpg
1503.259	0.529	1	study	Phase3	study/STIM_009.jpg
1505.797	0.872	1	study	Phase3	study/STIM_010.jpg
1509.606	0.536	1	study	Phase3	study/STIM_010.jpg
1512.286	0.97	1	study	Phase3	study/STIM_010.jpg
1516.738	0.889	1	study	Phase3	study/STIM_011.jpg
1521.607	0.949	1	study	Phase3	study/STIM_011.jpg
1525.995	0.881	1	study	Phase3	study/STIM_011.jpg
1529.386	0.671	1	study	Phase3	study/STIM_012.jpg
1533.595	0.757	1	study	Phase3	study/STIM_012.jpg
1538.288	0.695	1	study	Phase3	study/STIM_012.jpg
1541.809	0.635	1	study	Phase3	study/STIM_013.jpg
1546.059	1.019	0	study	Phase3	study/STIM_013.jpg
1550.831	0.758	1	study	Phase3	study/STIM_013.jpg
1555.177	0.647	1	study	Phase3	study/STIM_014.jpg
1558.14	0.864	1	study	Phase3	study/STIM_014.jpg
1561.519	0.486	1	study	Phase3	study/STIM_014.jpg
1564.789	0.493	0	study	Phase3	study/STIM_015.jpg
1568.256	0.92	1	study	Phase3	study/STIM_015.jpg
1572.207	0.688	1	study	Phase3	study/STIM_015.jpg
1576.821	0.567	1	study	Phase3	study/STIM_016.jpg
1581.03	0.928	1	study	Phase3	study/STIM_016.jpg
1584.901	0.689	1	study	Phase3	study/STIM_016.jpg
1588.041	0.703	1	study	Phase3	study/STIM_017.jpg
1592.407	0.672	1	study	Phase3	study/STIM_017.jpg
1595.637	0.936	0	study	Phase3	study/STIM_017.jpg
1600.214	0.491	1	study	Phase3	study/STIM_018.jpg
1602.976	0.843	1	study	Phase3	study/STIM_018.jpg
1607.368	0.495	1	study	Phase3	study/STIM_018.jpg
1610.111	0.777	1	study	Phase3	study/STIM_019.jpg
1613.812	0.618	1	study	Phase3	study/STIM_019.jpg
1617.754	0.956	1	study	Phase3	study/STIM_019.jpg
1622.496	0.99	1	study	Phase3	study/STIM_020.jpg
1626.881	0.685	1	study	Phase3	study/STIM_020.jpg
1630.692	0.888	1	study	Phase3	study/STIM_020.jpg
1634.731	0.882	1	study	Phase3	study/STIM_021.jpg
1637.642	0.883	1	study	Phase3	study/STIM_021.jpg
1641.383	0.779	0	study	Phase3	study/STIM_021.jpg
1644.369	1.008	1	study	Phase3	study/STIM_022.jpg
1647.888	0.485	1	study	Phase3	study/STIM_022.jpg
1651.235	0.653	1	study	Phase3	study/STIM_022.jpg
1655.296	0.825	1	study	Phase3	study/STIM_023.jpg
1659.75	0.948	1	study	Phase3	study/STIM_023.jpg
1662.934	0.69	0	study	Phase3	study/STIM_023.jpg
1665.75	0.469	1	study	Phase3	study/STIM_024.jpg
1669.679	0.545	1	study	Phase3	study/STIM_024.jpg
1672.611	0.464	1	study	Phase3	study/STIM_024.jpg
1676.372	1.004	1	study	Phase3	study/STIM_025.jpg
1679.835	0.65	1	study	Phase3	study/STIM_025.jpg
1682.868	0.934	1	study	Phase3	study/STIM_025.jpg
1686.382	0.788	0	study	Phase3	study/STIM_026.jpg
1690.42	0.998	1	study	Phase3	study/STIM_026.jpg
1695.043	0.709	1	study	Phase3	study/STIM_026.jpg
1698.409	0.836	1	study	Phase3	study/STIM_027.jpg
1702.189	0.515	1	study	Phase3	study/STIM_027.jpg
1706.155	0.57	1	study	Phase3	study/STIM_027.jpg
1710.484	0.558	1	study	Phase3	study/STIM_028.jpg
1714.794	0.736	1	study	Phase3	study/STIM_028.jpg
1717.962	0.494	1	study	Phase3	study/STIM_028.jpg
1722.401	0.552	1	study	Phase3	study/STIM_029.jpg
1725.584	0.481	1	study	Phase3	study/STIM_029.jpg
1729.076	0.519	1	study	Phase3	study/STIM_029.jpg
1733.395	0.576	1	test	Phase3	test/STIM_000.jpg
1736.892	1.052	1	test	Phase3	test/STIM_000.jpg
1740.886	0.654	1	test	Phase3	test/STIM_000.jpg
1743.762	0.85	1	test	Phase3	test/STIM_001.jpg
1747.52	0.75	0	test	Phase3	test/STIM_001.jpg
1751.101	0.746	1	test	Phase3	test/STIM_001.jpg
1755.844	0.557	1	test	Phase3	test/STIM_002.jpg
1758.822	0.802	0	test	Phase3	test/STIM_002.jpg
1763.466	0.794	1	test	Phase3	test/STIM_002.jpg
1766.951	0.576	1	test	Phase3	test/STIM_003.jpg
1770.468	0.513	1	test	Phase3	test/STIM_003.jpg
1774.563	0.892	1	test	Phase3	test/STIM_003.jpg
1778.554	0.765	1	test	Phase3	test/STIM_004.jpg
1781.682	0.784	1	test	Phase3	test/STIM_004.jpg
1785.995	0.69	1	test	Phase3	test/STIM_004.jpg
1789.879	0.941	1	test	Phase3	test/STIM_005.jpg
1793.001	0.917	1	test	Phase3	test/STIM_005.jpg
1795.949	0.901	1	test	Phase3	test/STIM_005.jpg
1800.421	0.903	1	test	Phase3	test/STIM_006.jpg
1803.564	1.016	1	test	Phase3	test/STIM_006.jpg
1808.381	0.697	1	test	Phase3	test/STIM_006.jpg
1811.307	0.52	1	test	Phase3	test/STIM_007.jpg
1814.964	0.674	0	test	Phase3	test/STIM_007.jpg
1818.824	1.009	1	test	Phase3	test/STIM_007.jpg
1823.271	0.959	1	test	Phase3	test/STIM_008.jpg
1826.26	0.753	1	test	Phase3	test/STIM_008.jpg
1830.601	0.746	1	test	Phase3	test/STIM_008.jpg
1834.978	0.549	1	test	Phase3	test/STIM_009.jpg
1839.517	0.725	1	test	Phase3	test/STIM_009.jpg
1842.83	0.769	1	test	Phase3	test/STIM_009.jpg
1845.693	0.968	1	test	Phase3	test/STIM_010.jpg
1850.224	1.014	1	test	Phase3	test/STIM_010.jpg
1854.138	0.531	1	test	Phase3	test/STIM_010.jpg
1858.575	0.661	1	test	Phase3	test/STIM_011.jpg
1861.831	0.707	1	test	Phase3	test/STIM_011.jpg
1866.119	0.574	1	test	Phase3	test/STIM_011.jpg
1869.098	0.521	1	test	Phase3	test/STIM_012.jpg
1871.998	0.741	1	test	Phase3	test/STIM_012.jpg
1875.637	1.009	1	test	Phase3	test/STIM_012.jpg
1879.192	0.565	1	test	Phase3	test/STIM_013.jpg
1882.55	0.709	1	test	Phase3	test/STIM_013.jpg
1885.278	0.748	1	test	Phase3	test/STIM_013.jpg
1889.724	0.997	1	test	Phase3	test/STIM_014.jpg
1894.417	0.511	1	test	Phase3	test/STIM_014.jpg
1896.948	0.585	1	test	Phase3	test/STIM_014.jpg
1899.542	0.79	1	test	Phase3	test/STIM_015.jpg
1902.578	0.883	1	test	Phase3	test/STIM_015.jpg
1906.913	0.928	1	test	Phase3	test/STIM_015.jpg
1911.83	0.532	1	test	Phase3	test/STIM_016.jpg
1916.303	0.619	1	test	Phase3	test/STIM_016.jpg
1920.074	0.937	1	test	Phase3	test/STIM_016.jpg
1924.685	0.628	1	test	Phase3	test/STIM_017.jpg
1927.819	0.844	1	test	Phase3	test/STIM_017.jpg
1931.306	0.693	1	test	Phase3	test/STIM_017.jpg
1935.689	0.925	1	test	Phase3	test/STIM_018.jpg
1939.179	0.979	1	test	Phase3	test/STIM_018.jpg
1943.065	0.888	1	test	Phase3	test/STIM_018.jpg
1946.252	0.674	1	test	Phase3	test/STIM_019.jpg
1950.465	0.978	1	test	Phase3	test/STIM_019.jpg
1954.415	0.647	1	test	Phase3	test/STIM_019.jpg
1957.553	0.814	1	test	Phase3	test/STIM_020.jpg
1961.908	0.645	1	test	Phase3	test/STIM_020.jpg
1964.99	0.833	1	test	Phase3	test/STIM_020.jpg
1968.141	1.06	0	test	Phase3	test/STIM_021.jpg
1972.194	0.497	1	test	Phase3	test/STIM_021.jpg
1975.341	0.794	1	test	Phase3	test/STIM_021.jpg
1980.07	0.644	0	test	Phase3	test/STIM_022.jpg
1983.477	0.732	1	test	Phase3	test/STIM_022.jpg
1987.585	0.602	1	test	Phase3	test/STIM_022.jpg
1991.056	0.758	1	test	Phase3	test/STIM_023.jpg
1994.299	0.747	1	test	Phase3	test/STIM_023.jpg
1997.531	0.939	1	test	Phase3	test/STIM_023.jpg
2001.901	0.852	1	test	Phase3	test/STIM_024.jpg
2005.009	0.791	1	test	Phase3	test/STIM_024.jpg
2009.355	0.788	1	test	Phase3	test/STIM_024.jpg
2013.742	0.757	1	test	Phase3	test/STIM_025.jpg
2016.555	0.79	1	test	Phase3	test/STIM_025.jpg
2019.813	1.055	1	test	Phase3	test/STIM_025.jpg
2023.433	0.898	1	test	Phase3	test/STIM_026.jpg
2027.663	0.847	1	test	Phase3	test/STIM_026.jpg
2031.119	0.993	1	test	Phase3	test/STIM_026.jpg
2035.451	0.761	1	test	Phase3	test/STIM_027.jpg
2039.672	1.048	1	test	Phase3	test/STIM_027.jpg
2043.346	0.937	1	test	Phase3	test/STIM_027.jpg
2047.628	0.567	1	test	Phase3	test/STIM_028.jpg
2051.543	0.826	1	test	Phase3	test/STIM_028.jpg
2056.129	0.965	1	test	Phase3	test/STIM_028.jpg
2060.582	0.748	0	test	Phase3	test/STIM_029.jpg
2065.089	0.811	1	test	Phase3	test/STIM_029.jpg
2069.469	0.807	1	test	Phase3	test/STIM_029.jpg
