onset	duration	accuracy	trial_type	learning_stage	stimulus
0.0	2.531	correct	regulate	Run1	regulate/STIM_000.jpg
6.878	2.457	correct	regulate	Run1	regulate/STIM_000.jpg
13.382	1.961	correct	regulate	Run1	regulate/STIM_000.jpg
18.922	1.153	correct	regulate	Run1	regulate/STIM_000.jpg
22.551	1.938	correct	regulate	Run1	regulate/STIM_001.jpg
28.391	1.262	correct	regulate	Run1	regulate/STIM_001.jpg
33.053	1.727	correct	regulate	Run1	regulate/STIM_001.jpg
37.297	1.462	correct	regulate	Run1	regulate/STIM_001.jpg
41.278	1.682	correct	regulate	Run1	regulate/STIM_002.jpg
45.782	2.171	correct	regulate	Run1	regulate/STIM_002.jpg
51.589	1.291	correct	regulate	Run1	regulate/STIM_002.jpg
56.105	1.812	correct	regulate	Run1	regulate/STIM_002.jpg
61.928	2.15	correct	regulate	Run1	regulate/STIM_003.jpg
67.872	1.781	correct	regulate	Run1	regulate/STIM_003.jpg
72.216	2.199	incorrect	regulate	Run1	regulate/STIM_003.jpg
76.972	2.404	correct	regulate	Run1	regulate/STIM_003.jpg
82.019	1.952	incorrect	regulate	Run1	regulate/STIM_004.jpg
87.75	1.549	correct	regulate	Run1	regulate/STIM_004.jpg
92.487	2.635	correct	regulate	Run1	regulate/STIM_004.jpg
98.905	1.738	correct	regulate	Run1	regulate/STIM_004.jpg
104.369	1.852	correct	regulate	Run1	regulate/STIM_005.jpg
110.25	2.739	correct	regulate	Run1	regulate/STIM_005.jpg
115.686	2.19	correct	regulate	Run1	regulate/STIM_005.jpg
120.828	1.752	correct	regulate	Run1	regulate/STIM_005.jpg
126.544	2.955	correct	regulate	Run1	regulate/STIM_006.jpg
132.427	2.279	correct	regulate	Run1	regulate/STIM_006.jpg
137.208	2.656	correct	regulate	Run1	regulate/STIM_006.jpg
142.542	2.499	correct	regulate	Run1	regulate/STIM_006.jpg
147.976	2.153	correct	regulate	Run1	regulate/STIM_007.jpg
152.819	2.142	incorrect	regulate	Run1	regulate/STIM_007.jpg
158.977	2.129	correct	regulate	Run1	regulate/STIM_007.jpg
165.41	2.32	correct	regulate	Run1	regulate/STIM_007.jpg
172.111	1.304	correct	regulate	Run1	regulate/STIM_008.jpg
176.336	2.385	correct	regulate	Run1	regulate/STIM_008.jpg
182.543	1.612	correct	regulate	Run1	regulate/STIM_008.jpg
188.202	1.52	incorrect	regulate	Run1	regulate/STIM_008.jpg
192.092	1.37	incorrect	regulate	Run1	regulate/STIM_009.jpg
196.149	1.642	correct	regulate	Run1	regulate/STIM_009.jpg
200.967	2.104	incorrect	regulate	Run1	regulate/STIM_009.jpg
207.234	2.376	correct	regulate	Run1	regulate/STIM_009.jpg
212.709	1.499	incorrect	regulate	Run1	regulate/STIM_010.jpg
218.144	1.297	correct	regulate	Run1	regulate/STIM_010.jpg
222.474	1.606	correct	regulate	Run1	regulate/STIM_010.jpg
227.243	2.377	correct	regulate	Run1	regulate/STIM_010.jpg
232.101	2.156	correct	regulate	Run1	regulate/STIM_011.jpg
238.054	1.373	correct	regulate	Run1	regulate/STIM_011.jpg
241.849	2.593	correct	regulate	Run1	regulate/STIM_011.jpg
247.713	2.477	correct	regulate	Run1	regulate/STIM_011.jpg
254.347	1.993	correct	regulate	Run1	regulate/STIM_012.jpg
259.458	2.247	correct	regulate	Run1	regulate/STIM_012.jpg
264.629	2.012	correct	regulate	Run1	regulate/STIM_012.jpg
269.856	2.436	correct	regulate	Run1	regulate/STIM_012.jpg
275.298	1.95	correct	regulate	Run1	regulate/STIM_013.jpg
280.319	2.132	correct	regulate	Run1	regulate/STIM_013.jpg
286.498	1.304	correct	regulate	Run1	regulate/STIM_013.jpg
291.065	2.361	incorrect	regulate	Run1	regulate/STIM_013.jpg
295.868	2.075	incorrect	regulate	Run1	regulate/STIM_014.jpg
302.226	2.372	correct	regulate	Run1	regulate/STIM_014.jpg
308.096	1.919	correct	regulate	Run1	regulate/STIM_014.jpg
312.535	2.272	correct	regulate	Run1	regulate/STIM_014.jpg
318.604	2.661	correct	regulate	Run1	regulate/STIM_015.jpg
324.144	1.546	correct	regulate	Run1	regulate/STIM_015.jpg
329.249	2.358	correct	regulate	Run1	regulate/STIM_015.jpg
335.384	2.527	correct	regulate	Run1	regulate/STIM_015.jpg
340.86	1.518	correct	regulate	Run1	regulate/STIM_016.jpg
344.811	1.289	correct	regulate	Run1	regulate/STIM_016.jpg
349.149	2.182	correct	regulate	Run1	regulate/STIM_016.jpg
354.323	1.153	correct	regulate	Run1	regulate/STIM_016.jpg
358.645	2.431	correct	regulate	Run1	regulate/STIM_017.jpg
365.403	2.791	correct	regulate	Run1	regulate/STIM_017.jpg
371.779	1.23	correct	regulate	Run1	regulate/STIM_017.jpg
376.965	1.796	correct	regulate	Run1	regulate/STIM_017.jpg
382.366	2.243	incorrect	regulate	Run1	regulate/STIM_018.jpg
387.439	1.606	correct	regulate	Run1	regulate/STIM_018.jpg
393.297	2.372	correct	regulate	Run1	regulate/STIM_018.jpg
398.759	1.953	correct	regulate	Run1	regulate/STIM_018.jpg
404.921	2.27	correct	regulate	Run1	regulate/STIM_019.jpg
410.127	1.244	correct	regulate	Run1	regulate/STIM_019.jpg
414.162	1.482	correct	regulate	Run1	regulate/STIM_019.jpg
419.716	1.228	correct	regulate	Run1	regulate/STIM_019.jpg
424.25	2.965	incorrect	regulate	Run1	regulate/STIM_020.jpg
430.781	2.474	correct	regulate	Run1	regulate/STIM_020.jpg
436.949	1.927	incorrect	regulate	Run1	regulate/STIM_020.jpg
442.953	2.394	correct	regulate	Run1	regulate/STIM_020.jpg
449.658	1.663	correct	regulate	Run1	regulate/STIM_021.jpg
455.341	2.803	incorrect	regulate	Run1	regulate/STIM_021.jpg
461.885	2.052	correct	regulate	Run1	regulate/STIM_021.jpg
466.89	2.327	correct	regulate	Run1	regulate/STIM_021.jpg
472.371	2.79	correct	regulate	Run1	regulate/STIM_022.jpg
478.422	2.292	correct	regulate	Run1	regulate/STIM_022.jpg
484.909	1.336	correct	regulate	Run1	regulate/STIM_022.jpg
490.374	2.193	correct	regulate	Run1	regulate/STIM_022.jpg
495.593	1.298	correct	regulate	Run1	regulate/STIM_023.jpg
499.784	2.479	correct	regulate	Run1	regulate/STIM_023.jpg
506.567	2.575	incorrect	regulate	Run1	regulate/STIM_023.jpg
512.085	1.128	incorrect	regulate	Run1	regulate/STIM_023.jpg
515.764	1.297	correct	regulate	Run1	regulate/STIM_024.jpg
520.874	1.664	correct	regulate	Run1	regulate/STIM_024.jpg
526.071	1.603	incorrect	regulate	Run1	regulate/STIM_024.jpg
531.072	2.33	correct	regulate	Run1	regulate/STIM_024.jpg
537.288	2.351	correct	regulate	Run1	regulate/STIM_025.jpg
543.439	2.496	correct	regulate	Run1	regulate/STIM_025.jpg
548.795	1.758	correct	regulate	Run1	regulate/STIM_025.jpg
552.878	1.966	incorrect	regulate	Run1	regulate/STIM_025.jpg
557.331	1.756	correct	regulate	Run1	regulate/STIM_026.jpg
561.45	1.989	incorrect	regulate	Run1	regulate/STIM_026.jpg
566.699	2.657	incorrect	regulate	Run1	regulate/STIM_026.jpg
571.853	2.112	incorrect	regulate	Run1	regulate/STIM_026.jpg
576.677	2.458	correct	regulate	Run1	regulate/STIM_027.jpg
581.722	1.601	correct	regulate	Run1	regulate/STIM_027.jpg
586.317	2.685	correct	regulate	Run1	regulate/STIM_027.jpg
592.181	1.867	correct	regulate	Run1	regulate/STIM_027.jpg
598.107	2.223	correct	regulate	Run1	regulate/STIM_028.jpg
602.795	1.374	incorrect	regulate	Run1	regulate/STIM_028.jpg
608.369	1.827	correct	regulate	Run1	regulate/STIM_028.jpg
613.417	2.375	correct	regulate	Run1	regulate/STIM_028.jpg
618.366	2.955	correct	regulate	Run1	regulate/STIM_029.jpg
625.527	1.389	correct	regulate	Run1	regulate/STIM_029.jpg
630.359	2.577	correct	regulate	Run1	regulate/STIM_029.jpg
636.195	2.307	correct	regulate	Run1	regulate/STIM_029.jpg
641.874	0.717	correct	observe	Run1	observe/STIM_000.jpg
646.111	1.152	correct	observe	Run1	observe/STIM_000.jpg
651.273	1.036	correct	observe	Run1	observe/STIM_000.jpg
655.658	0.898	correct	observe	Run1	observe/STIM_000.jpg
660.293	1.269	correct	observe	Run1	observe/STIM_001.jpg
663.975	1.065	correct	observe	Run1	observe/STIM_001.jpg
667.409	0.717	correct	observe	Run1	observe/STIM_001.jpg
671.794	0.977	correct	observe	Run1	observe/STIM_001.jpg
675.837	1.1	incorrect	observe	Run1	observe/STIM_002.jpg
679.55	0.876	incorrect	observe	Run1	observe/STIM_002.jpg
684.573	0.74	correct	observe	Run1	observe/STIM_002.jpg
689.342	0.704	correct	observe	Run1	observe/STIM_002.jpg
693.137	1.364	correct	observe	Run1	observe/STIM_003.jpg
696.874	0.951	correct	observe	Run1	observe/STIM_003.jpg
700.586	1.106	correct	observe	Run1	observe/STIM_003.jpg
705.137	1.14	correct	observe	Run1	observe/STIM_003.jpg
710.252	1.094	correct	observe	Run1	observe/STIM_004.jpg
715.414	1.064	correct	observe	Run1	observe/STIM_004.jpg
719.982	1.147	correct	observe	Run1	observe/STIM_004.jpg
723.446	0.985	correct	observe	Run1	observe/STIM_004.jpg
726.96	0.76	correct	observe	Run1	observe/STIM_005.jpg
730.765	0.696	correct	observe	Run1	observe/STIM_005.jpg
733.711	0.99	correct	observe	Run1	observe/STIM_005.jpg
737.111	1.135	correct	observe	Run1	observe/STIM_005.jpg
741.695	1.075	correct	observe	Run1	observe/STIM_006.jpg
745.631	0.734	correct	observe	Run1	observe/STIM_006.jpg
748.525	0.723	incorrect	observe	Run1	observe/STIM_006.jpg
751.773	0.75	correct	observe	Run1	observe/STIM_006.jpg
754.991	0.849	correct	observe	Run1	observe/STIM_007.jpg
759.672	0.866	correct	observe	Run1	observe/STIM_007.jpg
764.24	1.042	correct	observe	Run1	observe/STIM_007.jpg
768.347	1.295	correct	observe	Run1	observe/STIM_007.jpg
773.411	1.367	correct	observe	Run1	observe/STIM_008.jpg
777.036	1.186	correct	observe	Run1	observe/STIM_008.jpg
781.175	1.121	incorrect	observe	Run1	observe/STIM_008.jpg
784.563	0.727	correct	observe	Run1	observe/STIM_008.jpg
788.934	0.744	correct	observe	Run1	observe/STIM_009.jpg
792.869	1.3	correct	observe	Run1	observe/STIM_009.jpg
798.095	1.362	correct	observe	Run1	observe/STIM_009.jpg
802.045	0.79	correct	observe	Run1	observe/STIM_009.jpg
805.325	0.728	correct	observe	Run1	observe/STIM_010.jpg
809.906	1.005	correct	observe	Run1	observe/STIM_010.jpg
814.604	1.047	correct	observe	Run1	observe/STIM_010.jpg
819.653	0.711	correct	observe	Run1	observe/STIM_010.jpg
823.024	1.161	correct	observe	Run1	observe/STIM_011.jpg
827.497	0.729	correct	observe	Run1	observe/STIM_011.jpg
832.16	1.259	correct	observe	Run1	observe/STIM_011.jpg
836.585	0.989	correct	observe	Run1	observe/STIM_011.jpg
840.773	1.006	correct	observe	Run1	observe/STIM_012.jpg
845.52	1.071	correct	observe	Run1	observe/STIM_012.jpg
850.693	0.829	incorrect	observe	Run1	observe/STIM_012.jpg
854.766	1.222	incorrect	observe	Run1	observe/STIM_012.jpg
858.292	0.809	correct	observe	Run1	observe/STIM_013.jpg
862.522	1.066	correct	observe	Run1	observe/STIM_013.jpg
866.89	1.354	correct	observe	Run1	observe/STIM_013.jpg
871.118	1.262	incorrect	observe	Run1	observe/STIM_013.jpg
874.799	0.858	incorrect	observe	Run1	observe/STIM_014.jpg
879.594	1.259	correct	observe	Run1	observe/STIM_014.jpg
884.665	0.819	correct	observe	Run1	observe/STIM_014.jpg
889.526	1.324	correct	observe	Run1	observe/STIM_014.jpg
894.434	0.72	correct	observe	Run1	observe/STIM_015.jpg
898.14	0.776	correct	observe	Run1	observe/STIM_015.jpg
902.062	1.164	correct	observe	Run1	observe/STIM_015.jpg
906.827	0.936	correct	observe	Run1	observe/STIM_015.jpg
910.748	1.366	correct	observe	Run1	observe/STIM_016.jpg
915.539	1.241	correct	observe	Run1	observe/STIM_016.jpg
920.885	1.363	correct	observe	Run1	observe/STIM_016.jpg
925.782	1.175	correct	observe	Run1	observe/STIM_016.jpg
930.282	0.808	correct	observe	Run1	observe/STIM_017.jpg
933.827	0.849	correct	observe	Run1	observe/STIM_017.jpg
937.021	0.813	correct	observe	Run1	observe/STIM_017.jpg
940.373	1.161	correct	observe	Run1	observe/STIM_017.jpg
945.661	0.729	incorrect	observe	Run1	observe/STIM_018.jpg
948.612	1.308	correct	observe	Run1	observe/STIM_018.jpg
953.429	1.269	correct	observe	Run1	observe/STIM_018.jpg
957.032	0.69	correct	observe	Run1	observe/STIM_018.jpg
960.451	0.715	correct	observe	Run1	observe/STIM_019.jpg
964.79	1.228	correct	observe	Run1	observe/STIM_019.jpg
968.384	1.114	correct	observe	Run1	observe/STIM_019.jpg
972.488	1.236	correct	observe	Run1	observe/STIM_019.jpg
977.165	2.173	incorrect	regulate	Run2	regulate/STIM_000.jpg
982.838	1.027	correct	regulate	Run2	regulate/STIM_000.jpg
987.594	1.278	correct	regulate	Run2	regulate/STIM_000.jpg
993.022	1.799	correct	regulate	Run2	regulate/STIM_000.jpg
997.351	2.185	correct	regulate	Run2	regulate/STIM_001.jpg
1002.071	2.263	correct	regulate	Run2	regulate/STIM_001.jpg
1007.64	2.218	correct	regulate	Run2	regulate/STIM_001.jpg
1012.358	1.284	correct	regulate	Run2	regulate/STIM_001.jpg
1017.757	1.878	correct	regulate	Run2	regulate/STIM_002.jpg
1022.566	2.102	correct	regulate	Run2	regulate/STIM_002.jpg
1027.895	1.429	incorrect	regulate	Run2	regulate/STIM_002.jpg
1032.377	1.62	correct	regulate	Run2	regulate/STIM_002.jpg
1037.963	1.777	correct	regulate	Run2	regulate/STIM_003.jpg
1043.054	2.269	correct	regulate	Run2	regulate/STIM_003.jpg
1048.233	1.042	correct	regulate	Run2	regulate/STIM_003.jpg
1052.466	1.591	correct	regulate	Run2	regulate/STIM_003.jpg
1057.768	2.268	correct	regulate	Run2	regulate/STIM_004.jpg
1063.717	2.208	correct	regulate	Run2	regulate/STIM_004.jpg
1069.154	1.411	correct	regulate	Run2	regulate/STIM_004.jpg
1074.289	0.979	correct	regulate	Run2	regulate/STIM_004.jpg
1079.332	1.669	correct	regulate	Run2	regulate/STIM_005.jpg
1083.546	1.076	correct	regulate	Run2	regulate/STIM_005.jpg
1087.927	2.21	correct	regulate	Run2	regulate/STIM_005.jpg
1092.677	0.933	correct	regulate	Run2	regulate/STIM_005.jpg
1095.963	1.338	correct	regulate	Run2	regulate/STIM_006.jpg
1101.182	1.5	correct	regulate	Run2	regulate/STIM_006.jpg
1105.194	1.414	correct	regulate	Run2	regulate/STIM_006.jpg
1109.163	1.048	incorrect	regulate	Run2	regulate/STIM_006.jpg
1114.023	1.509	correct	regulate	Run2	regulate/STIM_007.jpg
1117.929	1.085	correct	regulate	Run2	regulate/STIM_007.jpg
1121.712	1.89	correct	regulate	Run2	regulate/STIM_007.jpg
1127.351	1.157	correct	regulate	Run2	regulate/STIM_007.jpg
1130.812	1.645	correct	regulate	Run2	regulate/STIM_008.jpg
1135.545	2.301	correct	regulate	Run2	regulate/STIM_008.jpg
1142.139	2.192	correct	regulate	Run2	regulate/STIM_008.jpg
1147.36	2.08	incorrect	regulate	Run2	regulate/STIM_008.jpg
1152.428	2.185	correct	regulate	Run2	regulate/STIM_009.jpg
1157.905	2.229	incorrect	regulate	Run2	regulate/STIM_009.jpg
1164.005	1.963	correct	regulate	Run2	regulate/STIM_009.jpg
1168.847	1.928	correct	regulate	Run2	regulate/STIM_009.jpg
1173.283	1.718	correct	regulate	Run2	regulate/STIM_010.jpg
1177.324	1.817	correct	regulate	Run2	regulate/STIM_010.jpg
1182.152	1.169	correct	regulate	Run2	regulate/STIM_010.jpg
1186.565	2.084	correct	regulate	Run2	regulate/STIM_010.jpg
1191.871	1.156	correct	regulate	Run2	regulate/STIM_011.jpg
1195.544	1.029	correct	regulate	Run2	regulate/STIM_011.jpg
1200.365	1.83	correct	regulate	Run2	regulate/STIM_011.jpg
1205.834	1.038	correct	regulate	Run2	regulate/STIM_011.jpg
1209.067	1.092	correct	regulate	Run2	regulate/STIM_012.jpg
1213.678	1.066	correct	regulate	Run2	regulate/STIM_012.jpg
1217.735	1.763	correct	regulate	Run2	regulate/STIM_012.jpg
1223.369	2.009	incorrect	regulate	Run2	regulate/STIM_012.jpg
1229.038	2.004	correct	regulate	Run2	regulate/STIM_013.jpg
1234.038	2.178	correct	regulate	Run2	regulate/STIM_013.jpg
1239.29	1.437	correct	regulate	Run2	regulate/STIM_013.jpg
1243.852	1.715	correct	regulate	Run2	regulate/STIM_013.jpg
1248.173	2.458	correct	regulate	Run2	regulate/STIM_014.jpg
1253.305	1.786	correct	regulate	Run2	regulate/STIM_014.jpg
1258.177	2.112	correct	regulate	Run2	regulate/STIM_014.jpg
1264.286	1.148	correct	regulate	Run2	regulate/STIM_014.jpg
1267.818	2.044	correct	regulate	Run2	regulate/STIM_015.jpg
1273.347	1.086	correct	regulate	Run2	regulate/STIM_015.jpg
1277.953	2.182	correct	regulate	Run2	regulate/STIM_015.jpg
1283.999	1.557	correct	regulate	Run2	regulate/STIM_015.jpg
1287.953	1.224	correct	regulate	Run2	regulate/STIM_016.jpg
1291.955	2.251	correct	regulate	Run2	regulate/STIM_016.jpg
1297.218	1.255	incorrect	regulate	Run2	regulate/STIM_016.jpg
1302.225	1.114	correct	regulate	Run2	regulate/STIM_016.jpg
1306.654	2.406	correct	regulate	Run2	regulate/STIM_017.jpg
1311.567	1.979	incorrect	regulate	Run2	regulate/STIM_017.jpg
1316.349	2.148	correct	regulate	Run2	regulate/STIM_017.jpg
1322.111	1.834	correct	regulate	Run2	regulate/STIM_017.jpg
1326.424	1.417	correct	regulate	Run2	regulate/STIM_018.jpg
1331.494	1.382	correct	regulate	Run2	regulate/STIM_018.jpg
1335.679	1.227	correct	regulate	Run2	regulate/STIM_018.jpg
1340.654	1.872	correct	regulate	Run2	regulate/STIM_018.jpg
1346.841	1.676	correct	regulate	Run2	regulate/STIM_019.jpg
1352.668	1.603	correct	regulate	Run2	regulate/STIM_019.jpg
1358.087	1.397	incorrect	regulate	Run2	regulate/STIM_019.jpg
1362.553	0.954	correct	regulate	Run2	regulate/STIM_019.jpg
1366.055	2.142	correct	regulate	Run2	regulate/STIM_020.jpg
1372.136	1.94	correct	regulate	Run2	regulate/STIM_020.jpg
1377.823	1.681	correct	regulate	Run2	regulate/STIM_020.jpg
1382.524	1.907	correct	regulate	Run2	regulate/STIM_020.jpg
1388.506	2.542	correct	regulate	Run2	regulate/STIM_021.jpg
1394.569	1.971	correct	regulate	Run2	regulate/STIM_021.jpg
1399.169	1.878	correct	regulate	Run2	regulate/STIM_021.jpg
1405.033	1.08	correct	regulate	Run2	regulate/STIM_021.jpg
1408.629	2.514	correct	regulate	Run2	regulate/STIM_022.jpg
1414.207	1.634	correct	regulate	Run2	regulate/STIM_022.jpg
1418.958	1.446	incorrect	regulate	Run2	regulate/STIM_022.jpg
1423.545	1.256	incorrect	regulate	Run2	regulate/STIM_022.jpg
1427.962	1.582	correct	regulate	Run2	regulate/STIM_023.jpg
1433.357	1.921	correct	regulate	Run2	regulate/STIM_023.jpg
1438.572	1.495	correct	regulate	Run2	regulate/STIM_023.jpg
1442.427	1.391	incorrect	regulate	Run2	regulate/STIM_023.jpg
1447.819	1.972	correct	regulate	Run2	regulate/STIM_024.jpg
1453.719	1.953	correct	regulate	Run2	regulate/STIM_024.jpg
1458.245	2.153	correct	regulate	Run2	regulate/STIM_024.jpg
1463.1	2.02	correct	regulate	Run2	regulate/STIM_024.jpg
1468.744	1.864	incorrect	regulate	Run2	regulate/STIM_025.jpg
1474.065	1.99	correct	regulate	Run2	regulate/STIM_025.jpg
1479.857	1.723	correct	regulate	Run2	regulate/STIM_025.jpg
1484.822	1.454	correct	regulate	Run2	regulate/STIM_025.jpg
1489.707	1.899	correct	regulate	Run2	regulate/STIM_026.jpg
1495.021	1.286	correct	regulate	Run2	regulate/STIM_026.jpg
1499.66	2.196	correct	regulate	Run2	regulate/STIM_026.jpg
1504.339	1.011	correct	regulate	Run2	regulate/STIM_026.jpg
1507.557	2.205	correct	regulate	Run2	regulate/STIM_027.jpg
1513.269	1.933	incorrect	regulate	Run2	regulate/STIM_027.jpg
1519.104	1.998	correct	regulate	Run2	regulate/STIM_027.jpg
1525.075	2.065	incorrect	regulate	Run2	regulate/STIM_027.jpg
1531.314	2.498	correct	regulate	Run2	regulate/STIM_028.jpg
1536.306	1.086	correct	regulate	Run2	regulate/STIM_028.jpg
1539.692	1.623	correct	regulate	Run2	regulate/STIM_028.jpg
1544.284	1.048	correct	regulate	Run2	regulate/STIM_028.jpg
1547.996	1.111	incorrect	regulate	Run2	regulate/STIM_029.jpg
1551.658	2.304	correct	regulate	Run2	regulate/STIM_029.jpg
1557.44	1.86	correct	regulate	Run2	regulate/STIM_029.jpg
1562.238	1.014	correct	regulate	Run2	regulate/STIM_029.jpg
1567.077	0.941	correct	observe	Run2	observe/STIM_000.jpg
1570.479	1.288	correct	observe	Run2	observe/STIM_000.jpg
1575.683	0.903	correct	observe	Run2	observe/STIM_000.jpg
1579.401	1.233	correct	observe	Run2	observe/STIM_000.jpg
1583.118	1.359	incorrect	observe	Run2	observe/STIM_001.jpg
1586.794	1.366	incorrect	observe	Run2	observe/STIM_001.jpg
1591.365	1.363	correct	observe	Run2	observe/STIM_001.jpg
1595.394	0.86	correct	observe	Run2	observe/STIM_001.jpg
1598.946	1.18	correct	observe	Run2	observe/STIM_002.jpg
1603.236	0.962	correct	observe	Run2	observe/STIM_002.jpg
1607.213	1.178	incorrect	observe	Run2	observe/STIM_002.jpg
1611.945	1.038	correct	observe	Run2	observe/STIM_002.jpg
1617.01	0.782	correct	observe	Run2	observe/STIM_003.jpg
1621.425	0.69	correct	observe	Run2	observe/STIM_003.jpg
1626.093	1.324	correct	observe	Run2	observe/STIM_003.jpg
1630.132	1.015	correct	observe	Run2	observe/STIM_003.jpg
1635.233	1.008	incorrect	observe	Run2	observe/STIM_004.jpg
1638.647	1.205	correct	observe	Run2	observe/STIM_004.jpg
1643.083	1.22	correct	observe	Run2	observe/STIM_004.jpg
1646.708	0.792	correct	observe	Run2	observe/STIM_004.jpg
1651.62	0.687	correct	observe	Run2	observe/STIM_005.jpg
1656.003	0.884	correct	observe	Run2	observe/STIM_005.jpg
1660.228	0.974	correct	observe	Run2	observe/STIM_005.jpg
1663.522	1.212	incorrect	observe	Run2	observe/STIM_005.jpg
1668.275	0.831	correct	observe	Run2	observe/STIM_006.jpg
1672.343	1.012	correct	observe	Run2	observe/STIM_006.jpg
1675.767	1.092	correct	observe	Run2	observe/STIM_006.jpg
1679.904	0.74	correct	observe	Run2	observe/STIM_006.jpg
1684.638	1.218	correct	observe	Run2	observe/STIM_007.jpg
1689.176	0.687	correct	observe	Run2	observe/STIM_007.jpg
1692.202	1.135	correct	observe	Run2	observe/STIM_007.jpg
1696.164	0.972	correct	observe	Run2	observe/STIM_007.jpg
1700.319	0.834	correct	observe	Run2	observe/STIM_008.jpg
1705.264	0.998	correct	observe	Run2	observe/STIM_008.jpg
1708.641	1.306	correct	observe	Run2	observe/STIM_008.jpg
1713.4	1.181	correct	observe	Run2	observe/STIM_008.jpg
1717.783	1.341	correct	observe	Run2	observe/STIM_009.jpg
1722.995	1.145	correct	observe	Run2	observe/STIM_009.jpg
1728.024	1.101	correct	observe	Run2	observe/STIM_009.jpg
1731.938	0.766	correct	observe	Run2	observe/STIM_009.jpg
1736.825	1.175	correct	observe	Run2	observe/STIM_010.jpg
1741.474	1.323	correct	observe	Run2	observe/STIM_010.jpg
1745.136	1.09	correct	observe	Run2	observe/STIM_010.jpg
1749.181	0.737	correct	observe	Run2	observe/STIM_010.jpg
1753.638	1.134	correct	observe	Run2	observe/STIM_011.jpg
1757.631	1.006	correct	observe	Run2	observe/STIM_011.jpg
1761.482	0.866	correct	observe	Run2	observe/STIM_011.jpg
1766.283	1.063	correct	observe	Run2	observe/STIM_011.jpg
1769.786	1.261	correct	observe	Run2	observe/STIM_012.jpg
1773.576	1.041	correct	observe	Run2	observe/STIM_012.jpg
1776.873	1.166	correct	observe	Run2	observe/STIM_012.jpg
1781.508	1.18	correct	observe	Run2	observe/STIM_012.jpg
1785.824	1.32	correct	observe	Run2	observe/STIM_013.jpg
1790.309	1.097	correct	observe	Run2	observe/STIM_013.jpg
1794.003	0.812	correct	observe	Run2	observe/STIM_013.jpg
1797.643	0.771	correct	observe	Run2	observe/STIM_013.jpg
1800.923	1.339	correct	observe	Run2	observe/STIM_014.jpg
1805.219	0.872	correct	observe	Run2	observe/STIM_014.jpg
1809.595	1.271	correct	observe	Run2	observe/STIM_014.jpg
1814.12	1.261	correct	observe	Run2	observe/STIM_014.jpg
1818.918	1.041	correct	observe	Run2	observe/STIM_015.jpg
1823.432	1.2	correct	observe	Run2	observe/STIM_015.jpg
1828.471	1.296	correct	observe	Run2	observe/STIM_015.jpg
1832.433	0.691	correct	observe	Run2	observe/STIM_015.jpg
1836.402	1.034	correct	observe	Run2	observe/STIM_016.jpg
1840.279	0.83	correct	observe	Run2	observe/STIM_016.jpg
1843.336	0.818	correct	observe	Run2	observe/STIM_016.jpg
1847.405	1.203	correct	observe	Run2	observe/STIM_016.jpg
1851.967	0.718	correct	observe	Run2	observe/STIM_017.jpg
1855.598	0.866	correct	observe	Run2	observe/STIM_017.jpg
1860.364	1.047	incorrect	observe	Run2	observe/STIM_017.jpg
1864.624	0.957	correct	observe	Run2	observe/STIM_017.jpg
1869.56	0.889	incorrect	observe	Run2	observe/STIM_018.jpg
1873.402	1.195	correct	observe	Run2	observe/STIM_018.jpg
1877.116	1.235	correct	observe	Run2	observe/STIM_018.jpg
1881.719	1.097	correct	observe	Run2	observe/STIM_018.jpg
1886.624	0.951	correct	observe	Run2	observe/STIM_019.jpg
1890.817	1.227	correct	observe	Run2	observe/STIM_019.jpg
1894.813	1.346	correct	observe	Run2	observe/STIM_019.jpg
1899.128	1.07	correct	observe	Run2	observe/STIM_019.jpg
1903.138	1.04	correct	regulate	Run3	regulate/STIM_000.jpg
1906.386	1.142	correct	regulate	Run3	regulate/STIM_000.jpg
1911.098	1.874	correct	regulate	Run3	regulate/STIM_000.jpg
1916.183	0.997	correct	regulate	Run3	regulate/STIM_000.jpg
1920.004	1.365	correct	regulate	Run3	regulate/STIM_001.jpg
1924.464	1.406	correct	regulate	Run3	regulate/STIM_001.jpg
1928.26	1.277	correct	regulate	Run3	regulate/STIM_001.jpg
1933.472	1.222	correct	regulate	Run3	regulate/STIM_001.jpg
1937.377	0.924	correct	regulate	Run3	regulate/STIM_002.jpg
1941.468	1.41	correct	regulate	Run3	regulate/STIM_002.jpg
1946.24	1.586	correct	regulate	Run3	regulate/STIM_002.jpg
1950.85	1.123	correct	regulate	Run3	regulate/STIM_002.jpg
1954.914	1.214	correct	regulate	Run3	regulate/STIM_003.jpg
1958.493	2.079	correct	regulate	Run3	regulate/STIM_003.jpg
1963.05	1.359	correct	regulate	Run3	regulate/STIM_003.jpg
1968.604	1.32	correct	regulate	Run3	regulate/STIM_003.jpg
1973.374	1.271	correct	regulate	Run3	regulate/STIM_004.jpg
1977.08	1.454	correct	regulate	Run3	regulate/STIM_004.jpg
1981.701	1.658	correct	regulate	Run3	regulate/STIM_004.jpg
1985.686	1.06	correct	regulate	Run3	regulate/STIM_004.jpg
1990.001	0.964	correct	regulate	Run3	regulate/STIM_005.jpg
1993.794	2.019	correct	regulate	Run3	regulate/STIM_005.jpg
1999.873	2.094	correct	regulate	Run3	regulate/STIM_005.jpg
2005.102	1.946	correct	regulate	Run3	regulate/STIM_005.jpg
2009.464	1.505	correct	regulate	Run3	regulate/STIM_006.jpg
2014.321	1.216	correct	regulate	Run3	regulate/STIM_006.jpg
2018.493	1.849	correct	regulate	Run3	regulate/STIM_006.jpg
2024.055	1.591	correct	regulate	Run3	regulate/STIM_006.jpg
2028.184	1.993	correct	regulate	Run3	regulate/STIM_007.jpg
2033.284	1.947	correct	regulate	Run3	regulate/STIM_007.jpg
2038.253	1.58	incorrect	regulate	Run3	regulate/STIM_007.jpg
2042.444	1.875	correct	regulate	Run3	regulate/STIM_007.jpg
2048.508	1.301	correct	regulate	Run3	regulate/STIM_008.jpg
2053.897	1.837	correct	regulate	Run3	regulate/STIM_008.jpg
2058.162	1.157	correct	regulate	Run3	regulate/STIM_008.jpg
2063.074	1.481	correct	regulate	Run3	regulate/STIM_008.jpg
2068.405	2.09	correct	regulate	Run3	regulate/STIM_009.jpg
2074.32	1.655	correct	regulate	Run3	regulate/STIM_009.jpg
2080.212	1.579	correct	regulate	Run3	regulate/STIM_009.jpg
2084.071	1.206	correct	regulate	Run3	regulate/STIM_009.jpg
2087.507	1.25	correct	regulate	Run3	regulate/STIM_010.jpg
2092.599	1.808	correct	regulate	Run3	regulate/STIM_010.jpg
2097.784	0.965	incorrect	regulate	Run3	regulate/STIM_010.jpg
2102.716	1.906	correct	regulate	Run3	regulate/STIM_010.jpg
2108.319	1.714	correct	regulate	Run3	regulate/STIM_011.jpg
2112.905	0.961	correct	regulate	Run3	regulate/STIM_011.jpg
2116.189	2.015	correct	regulate	Run3	regulate/STIM_011.jpg
2122.281	1.585	correct	regulate	Run3	regulate/STIM_011.jpg
2128.12	1.788	correct	regulate	Run3	regulate/STIM_012.jpg
2133.252	0.932	correct	regulate	Run3	regulate/STIM_012.jpg
2136.733	1.289	correct	regulate	Run3	regulate/STIM_012.jpg
2141.252	1.871	correct	regulate	Run3	regulate/STIM_012.jpg
2146.138	1.657	correct	regulate	Run3	regulate/STIM_013.jpg
2150.803	1.602	correct	regulate	Run3	regulate/STIM_013.jpg
2154.963	0.916	correct	regulate	Run3	regulate/STIM_013.jpg
2159.481	1.564	correct	regulate	Run3	regulate/STIM_013.jpg
2164.518	1.717	incorrect	regulate	Run3	regulate/STIM_014.jpg
2169.726	1.633	correct	regulate	Run3	regulate/STIM_014.jpg
2174.908	1.434	correct	regulate	Run3	regulate/STIM_014.jpg
2179.978	1.548	correct	regulate	Run3	regulate/STIM_014.jpg
2183.925	1.316	correct	regulate	Run3	regulate/STIM_015.jpg
2189.042	1.484	correct	regulate	Run3	regulate/STIM_015.jpg
2193.583	1.3	correct	regulate	Run3	regulate/STIM_015.jpg
2198.181	1.668	correct	regulate	Run3	regulate/STIM_015.jpg
2202.293	1.851	correct	regulate	Run3	regulate/STIM_016.jpg
2207.27	1.373	correct	regulate	Run3	regulate/STIM_016.jpg
2211.695	1.295	correct	regulate	Run3	regulate/STIM_016.jpg
2216.771	0.972	correct	regulate	Run3	regulate/STIM_016.jpg
2221.687	1.6	correct	regulate	Run3	regulate/STIM_017.jpg
2225.694	1.614	correct	regulate	Run3	regulate/STIM_017.jpg
2229.835	0.966	correct	regulate	Run3	regulate/STIM_017.jpg
2234.781	1.521	correct	regulate	Run3	regulate/STIM_017.jpg
2238.592	1.108	correct	regulate	Run3	regulate/STIM_018.jpg
2243.873	1.57	correct	regulate	Run3	regulate/STIM_018.jpg
2248.656	1.424	correct	regulate	Run3	regulate/STIM_018.jpg
2254.258	1.067	correct	regulate	Run3	regulate/STIM_018.jpg
2259.421	2.063	correct	regulate	Run3	regulate/STIM_019.jpg
2264.276	1.394	correct	regulate	Run3	regulate/STIM_019.jpg
2269.526	1.641	correct	regulate	Run3	regulate/STIM_019.jpg
2275.428	1.98	correct	regulate	Run3	regulate/STIM_019.jpg
2280.255	1.049	correct	regulate	Run3	regulate/STIM_020.jpg
2284.972	2.009	correct	regulate	Run3	regulate/STIM_020.jpg
2289.43	1.882	correct	regulate	Run3	regulate/STIM_020.jpg
2295.069	1.39	correct	regulate	Run3	regulate/STIM_020.jpg
2300.444	1.405	correct	regulate	Run3	regulate/STIM_021.jpg
2304.683	1.613	correct	regulate	Run3	regulate/STIM_021.jpg
2309.871	1.403	correct	regulate	Run3	regulate/STIM_021.jpg
2314.102	2.07	correct	regulate	Run3	regulate/STIM_021.jpg
2318.803	2.019	correct	regulate	Run3	regulate/STIM_022.jpg
2324.452	1.976	correct	regulate	Run3	regulate/STIM_022.jpg
2330.281	1.014	correct	regulate	Run3	regulate/STIM_022.jpg
2334.871	1.162	correct	regulate	Run3	regulate/STIM_022.jpg
2339.425	1.277	correct	regulate	Run3	regulate/STIM_023.jpg
2344.287	1.241	correct	regulate	Run3	regulate/STIM_023.jpg
2348.928	1.863	correct	regulate	Run3	regulate/STIM_023.jpg
2353.791	1.067	correct	regulate	Run3	regulate/STIM_023.jpg
2357.147	0.914	correct	regulate	Run3	regulate/STIM_024.jpg
2361.986	1.587	correct	regulate	Run3	regulate/STIM_024.jpg
2366.271	1.668	correct	regulate	Run3	regulate/STIM_024.jpg
2370.238	1.227	correct	regulate	Run3	regulate/STIM_024.jpg
2373.784	2.09	correct	regulate	Run3	regulate/STIM_025.jpg
2378.33	1.904	correct	regulate	Run3	regulate/STIM_025.jpg
2383.392	1.69	correct	regulate	Run3	regulate/STIM_025.jpg
2388.923	2.014	correct	regulate	Run3	regulate/STIM_025.jpg
2394.199	2.001	correct	regulate	Run3	regulate/STIM_026.jpg
2398.964	1.543	correct	regulate	Run3	regulate/STIM_026.jpg
2404.626	2.072	correct	regulate	Run3	regulate/STIM_026.jpg
2410.974	1.499	correct	regulate	Run3	regulate/STIM_026.jpg
2415.56	1.453	correct	regulate	Run3	regulate/STIM_027.jpg
2419.395	1.079	correct	regulate	Run3	regulate/STIM_027.jpg
2424.06	1.272	correct	regulate	Run3	regulate/STIM_027.jpg
2427.974	0.997	correct	regulate	Run3	regulate/STIM_027.jpg
2433.087	1.314	correct	regulate	Run3	regulate/STIM_028.jpg
2438.038	1.911	correct	regulate	Run3	regulate/STIM_028.jpg
2443.299	1.688	correct	regulate	Run3	regulate/STIM_028.jpg
2447.675	1.978	correct	regulate	Run3	regulate/STIM_028.jpg
2453.768	1.105	incorrect	regulate	Run3	regulate/STIM_029.jpg
2458.903	1.89	correct	regulate	Run3	regulate/STIM_029.jpg
2464.887	1.031	correct	regulate	Run3	regulate/STIM_029.jpg
2468.854	1.127	correct	regulate	Run3	regulate/STIM_029.jpg
2473.108	1.209	correct	observe	Run3	observe/STIM_000.jpg
2478.188	1.294	correct	observe	Run3	observe/STIM_000.jpg
2483.199	0.858	correct	observe	Run3	observe/STIM_000.jpg
2487.706	1.154	correct	observe	Run3	observe/STIM_000.jpg
2492.286	0.813	correct	observe	Run3	observe/STIM_001.jpg
2495.928	1.12	incorrect	observe	Run3	observe/STIM_001.jpg
2499.37	0.96	correct	observe	Run3	observe/STIM_001.jpg
2504.328	1.364	correct	observe	Run3	observe/STIM_001.jpg
2509.46	0.812	correct	observe	Run3	observe/STIM_002.jpg
2512.947	0.919	correct	observe	Run3	observe/STIM_002.jpg
2517.159	1.089	correct	observe	Run3	observe/STIM_002.jpg
2521.342	0.889	correct	observe	Run3	observe/STIM_002.jpg
2526.24	1.164	correct	observe	Run3	observe/STIM_003.jpg
2531.55	1.009	correct	observe	Run3	observe/STIM_003.jpg
2535.793	0.769	correct	observe	Run3	observe/STIM_003.jpg
2539.354	1.206	correct	observe	Run3	observe/STIM_003.jpg
2544.584	1.095	correct	observe	Run3	observe/STIM_004.jpg
2548.829	0.868	correct	observe	Run3	observe/STIM_004.jpg
2552.229	1.21	correct	observe	Run3	observe/STIM_004.jpg
2557.515	1.208	correct	observe	Run3	observe/STIM_004.jpg
2561.339	1.105	correct	observe	Run3	observe/STIM_005.jpg
2564.882	1.262	correct	observe	Run3	observe/STIM_005.jpg
2569.865	0.922	incorrect	observe	Run3	observe/STIM_005.jpg
2574.211	1.261	correct	observe	Run3	observe/STIM_005.jpg
2578.125	1.012	incorrect	observe	Run3	observe/STIM_006.jpg
2583.236	1.182	correct	observe	Run3	observe/STIM_006.jpg
2587.037	0.945	incorrect	observe	Run3	observe/STIM_006.jpg
2590.935	0.929	incorrect	observe	Run3	observe/STIM_006.jpg
2594.039	0.96	correct	observe	Run3	observe/STIM_007.jpg
2598.934	1.187	correct	observe	Run3	observe/STIM_007.jpg
2603.346	0.733	correct	observe	Run3	observe/STIM_007.jpg
2607.844	0.884	correct	observe	Run3	observe/STIM_007.jpg
2611.605	1.181	correct	observe	Run3	observe/STIM_008.jpg
2616.026	1.349	correct	observe	Run3	observe/STIM_008.jpg
2620.587	1.104	correct	observe	Run3	observe/STIM_008.jpg
2623.903	0.83	correct	observe	Run3	observe/STIM_008.jpg
2627.68	1.15	correct	observe	Run3	observe/STIM_009.jpg
2631.327	0.908	correct	observe	Run3	observe/STIM_009.jpg
2636.235	0.787	correct	observe	Run3	observe/STIM_009.jpg
2640.318	1.355	incorrect	observe	Run3	observe/STIM_009.jpg
2643.913	0.966	correct	observe	Run3	observe/STIM_010.jpg
2647.474	1.053	correct	observe	Run3	observe/STIM_010.jpg
2650.988	1.175	correct	observe	Run3	observe/STIM_010.jpg
2655.559	1.167	correct	observe	Run3	observe/STIM_010.jpg
2659.687	1.164	correct	observe	Run3	observe/STIM_011.jpg
2663.259	1.273	correct	observe	Run3	observe/STIM_011.jpg
2667.084	1.269	correct	observe	Run3	observe/STIM_011.jpg
2671.647	1.039	correct	observe	Run3	observe/STIM_011.jpg
2676.2	0.753	correct	observe	Run3	observe/STIM_012.jpg
2679.453	0.974	correct	observe	Run3	observe/STIM_012.jpg
2682.847	0.742	correct	observe	Run3	observe/STIM_012.jpg
2686.059	0.941	correct	observe	Run3	observe/STIM_012.jpg
2690.919	1.148	correct	observe	Run3	observe/STIM_013.jpg
2694.426	1.182	correct	observe	Run3	observe/STIM_013.jpg
2699.369	1.228	correct	observe	Run3	observe/STIM_013.jpg
2704.143	1.263	correct	observe	Run3	observe/STIM_013.jpg
2708.197	0.853	correct	observe	Run3	observe/STIM_014.jpg
2712.651	1.123	correct	observe	Run3	observe/STIM_014.jpg
2717.488	1.092	correct	observe	Run3	observe/STIM_014.jpg
2721.323	1.047	correct	observe	Run3	observe/STIM_014.jpg
2725.231	1.129	correct	observe	Run3	observe/STIM_015.jpg
2729.096	0.742	correct	observe	Run3	observe/STIM_015.jpg
2732.092	0.832	correct	observe	Run3	observe/STIM_015.jpg
2736.23	1.051	correct	observe	Run3	observe/STIM_015.jpg
2740.089	1.335	correct	observe	Run3	observe/STIM_016.jpg
2743.8	0.951	correct	observe	Run3	observe/STIM_016.jpg
2748.389	0.96	correct	observe	Run3	observe/STIM_016.jpg
2752.786	0.765	correct	observe	Run3	observe/STIM_016.jpg
2756.309	1.334	incorrect	observe	Run3	observe/STIM_017.jpg
2759.9	1.102	correct	observe	Run3	observe/STIM_017.jpg
2763.393	0.844	correct	observe	Run3	observe/STIM_017.jpg
2768.326	0.841	correct	observe	Run3	observe/STIM_017.jpg
2773.111	1.201	correct	observe	Run3	observe/STIM_018.jpg
2776.688	1.002	incorrect	observe	Run3	observe/STIM_018.jpg
2780.24	0.985	correct	observe	Run3	observe/STIM_018.jpg
2784.92	0.714	correct	observe	Run3	observe/STIM_018.jpg
2788.371	1.134	correct	observe	Run3	observe/STIM_019.jpg
2792.857	1.333	correct	observe	Run3	observe/STIM_019.jpg
2797.202	1.324	correct	observe	Run3	observe/STIM_019.jpg
2801.107	0.735	correct	observe	Run3	observe/STIM_019.jpg
