onset	duration	response_time_ms	trial_type	learning_stage	stimulus	response_port
0.0	2.531	2530.8	regulate	Run1	regulate/STIM_000.jpg	99
6.878	2.457	2457.3	regulate	Run1	regulate/STIM_000.jpg	99
13.382	1.961	1961.2	regulate	Run1	regulate/STIM_000.jpg	99
18.922	1.153	1153.3	regulate	Run1	regulate/STIM_000.jpg	99
22.551	1.938	1937.7	regulate	Run1	regulate/STIM_001.jpg	99
28.391	1.262	1261.7	regulate	Run1	regulate/STIM_001.jpg	100
33.053	1.727	1727.2	regulate	Run1	regulate/STIM_001.jpg	99
37.297	1.462	1462.2	regulate	Run1	regulate/STIM_001.jpg	100
41.278	1.682	1682.2	regulate	Run1	regulate/STIM_002.jpg	100
45.782	2.171	2171.1	regulate	Run1	regulate/STIM_002.jpg	100
51.589	1.291	1290.7	regulate	Run1	regulate/STIM_002.jpg	100
56.105	1.812	1811.6	regulate	Run1	regulate/STIM_002.jpg	99
61.928	2.15	2149.7	regulate	Run1	regulate/STIM_003.jpg	100
67.872	1.781	1781.0	regulate	Run1	regulate/STIM_003.jpg	100
72.216	2.199	2198.9	regulate	Run1	regulate/STIM_003.jpg	100
76.972	2.404	2403.6	regulate	Run1	regulate/STIM_003.jpg	100
82.019	1.952	1952.0	regulate	Run1	regulate/STIM_004.jpg	99
87.75	1.549	1548.8	regulate	Run1	regulate/STIM_004.jpg	100
92.487	2.635	2635.1	regulate	Run1	regulate/STIM_004.jpg	100
98.905	1.738	1738.2	regulate	Run1	regulate/STIM_004.jpg	100
104.369	1.852	1852.5	regulate	Run1	regulate/STIM_005.jpg	100
110.25	2.739	2739.1	regulate	Run1	regulate/STIM_005.jpg	99
115.686	2.19	2189.5	regulate	Run1	regulate/STIM_005.jpg	100
120.828	1.752	1752.1	regulate	Run1	regulate/STIM_005.jpg	99
126.544	2.955	2954.8	regulate	Run1	regulate/STIM_006.jpg	100
132.427	2.279	2278.6	regulate	Run1	regulate/STIM_006.jpg	99
137.208	2.656	2655.9	regulate	Run1	regulate/STIM_006.jpg	100
142.542	2.499	2499.2	regulate	Run1	regulate/STIM_006.jpg	100
147.976	2.153	2152.7	regulate	Run1	regulate/STIM_007.jpg	100
152.819	2.142	2141.7	regulate	Run1	regulate/STIM_007.jpg	100
158.977	2.129	2128.6	regulate	Run1	regulate/STIM_007.jpg	99
165.41	2.32	2320.1	regulate	Run1	regulate/STIM_007.jpg	99
172.111	1.304	1303.8	regulate	Run1	regulate/STIM_008.jpg	99
176.336	2.385	2385.2	regulate	Run1	regulate/STIM_008.jpg	99
182.543	1.612	1612.3	regulate	Run1	regulate/STIM_008.jpg	100
188.202	1.52	1520.2	regulate	Run1	regulate/STIM_008.jpg	99
192.092	1.37	1369.7	regulate	Run1	regulate/STIM_009.jpg	99
196.149	1.642	1641.8	regulate	Run1	regulate/STIM_009.jpg	100
200.967	2.104	2103.6	regulate	Run1	regulate/STIM_009.jpg	99
207.234	2.376	2376.4	regulate	Run1	regulate/STIM_009.jpg	100
212.709	1.499	1499.0	regulate	Run1	regulate/STIM_010.jpg	100
218.144	1.297	1297.3	regulate	Run1	regulate/STIM_010.jpg	100
222.474	1.606	1606.3	regulate	Run1	regulate/STIM_010.jpg	99
227.243	2.377	2377.2	regulate	Run1	regulate/STIM_010.jpg	99
232.101	2.156	2156.3	regulate	Run1	regulate/STIM_011.jpg	100
238.054	1.373	1373.2	regulate	Run1	regulate/STIM_011.jpg	99
241.849	2.593	2593.2	regulate	Run1	regulate/STIM_011.jpg	100
247.713	2.477	2477.3	regulate	Run1	regulate/STIM_011.jpg	99
254.347	1.993	1993.4	regulate	Run1	regulate/STIM_012.jpg	100
259.458	2.247	2246.8	regulate	Run1	regulate/STIM_012.jpg	99
264.629	2.012	2011.6	regulate	Run1	regulate/STIM_012.jpg	99
269.856	2.436	2435.8	regulate	Run1	regulate/STIM_012.jpg	99
275.298	1.95	1949.5	regulate	Run1	regulate/STIM_013.jpg	99
280.319	2.132	2132.1	regulate	Run1	regulate/STIM_013.jpg	99
286.498	1.304	1304.3	regulate	Run1	regulate/STIM_013.jpg	100
291.065	2.361	2360.9	regulate	Run1	regulate/STIM_013.jpg	100
295.868	2.075	2075.0	regulate	Run1	regulate/STIM_014.jpg	100
302.226	2.372	2372.3	regulate	Run1	regulate/STIM_014.jpg	99
308.096	1.919	1919.2	regulate	Run1	regulate/STIM_014.jpg	100
312.535	2.272	2272.3	regulate	Run1	regulate/STIM_014.jpg	99
318.604	2.661	2660.8	regulate	Run1	regulate/STIM_015.jpg	99
324.144	1.546	1545.9	regulate	Run1	regulate/STIM_015.jpg	100
329.249	2.358	2358.1	regulate	Run1	regulate/STIM_015.jpg	99
335.384	2.527	2526.8	regulate	Run1	regulate/STIM_015.jpg	100
340.86	1.518	1518.4	regulate	Run1	regulate/STIM_016.jpg	100
344.811	1.289	1289.0	regulate	Run1	regulate/STIM_016.jpg	99
349.149	2.182	2181.5	regulate	Run1	regulate/STIM_016.jpg	99
354.323	1.153	1153.1	regulate	Run1	regulate/STIM_016.jpg	100
358.645	2.431	2431.1	regulate	Run1	regulate/STIM_017.jpg	99
365.403	2.791	2790.8	regulate	Run1	regulate/STIM_017.jpg	99
371.779	1.23	1230.1	regulate	Run1	regulate/STIM_017.jpg	100
376.965	1.796	1796.2	regulate	Run1	regulate/STIM_017.jpg	99
382.366	2.243	2243.4	regulate	Run1	regulate/STIM_018.jpg	99
387.439	1.606	1605.9	regulate	Run1	regulate/STIM_018.jpg	99
393.297	2.372	2372.5	regulate	Run1	regulate/STIM_018.jpg	100
398.759	1.953	1953.2	regulate	Run1	regulate/STIM_018.jpg	100
404.921	2.27	2269.5	regulate	Run1	regulate/STIM_019.jpg	100
410.127	1.244	1244.1	regulate	Run1	regulate/STIM_019.jpg	99
414.162	1.482	1481.6	regulate	Run1	regulate/STIM_019.jpg	99
419.716	1.228	1227.9	regulate	Run1	regulate/STIM_019.jpg	99
424.25	2.965	2964.8	regulate	Run1	regulate/STIM_020.jpg	99
430.781	2.474	2473.9	regulate	Run1	regulate/STIM_020.jpg	100
436.949	1.927	1927.0	regulate	Run1	regulate/STIM_020.jpg	100
442.953	2.394	2394.1	regulate	Run1	regulate/STIM_020.jpg	100
449.658	1.663	1663.0	regulate	Run1	regulate/STIM_021.jpg	100
455.341	2.803	2803.4	regulate	Run1	regulate/STIM_021.jpg	99
461.885	2.052	2051.9	regulate	Run1	regulate/STIM_021.jpg	99
466.89	2.327	2327.4	regulate	Run1	regulate/STIM_021.jpg	100
472.371	2.79	2790.2	regulate	Run1	regulate/STIM_022.jpg	99
478.422	2.292	2292.4	regulate	Run1	regulate/STIM_022.jpg	99
484.909	1.336	1335.7	regulate	Run1	regulate/STIM_022.jpg	100
490.374	2.193	2192.6	regulate	Run1	regulate/STIM_022.jpg	99
495.593	1.298	1297.8	regulate	Run1	regulate/STIM_023.jpg	100
499.784	2.479	2478.9	regulate	Run1	regulate/STIM_023.jpg	99
506.567	2.575	2574.6	regulate	Run1	regulate/STIM_023.jpg	99
512.085	1.128	1128.4	regulate	Run1	regulate/STIM_023.jpg	100
515.764	1.297	1297.1	regulate	Run1	regulate/STIM_024.jpg	100
520.874	1.664	1664.2	regulate	Run1	regulate/STIM_024.jpg	100
526.071	1.603	1603.2	regulate	Run1	regulate/STIM_024.jpg	100
531.072	2.33	2329.9	regulate	Run1	regulate/STIM_024.jpg	100
537.288	2.351	2351.1	regulate	Run1	regulate/STIM_025.jpg	100
543.439	2.496	2495.9	regulate	Run1	regulate/STIM_025.jpg	100
548.795	1.758	1758.0	regulate	Run1	regulate/STIM_025.jpg	99
552.878	1.966	1965.5	regulate	Run1	regulate/STIM_025.jpg	99
557.331	1.756	1756.4	regulate	Run1	regulate/STIM_026.jpg	100
561.45	1.989	1989.3	regulate	Run1	regulate/STIM_026.jpg	99
566.699	2.657	2657.2	regulate	Run1	regulate/STIM_026.jpg	100
571.853	2.112	2111.7	regulate	Run1	regulate/STIM_026.jpg	100
576.677	2.458	2457.8	regulate	Run1	regulate/STIM_027.jpg	99
581.722	1.601	1600.9	regulate	Run1	regulate/STIM_027.jpg	99
586.317	2.685	2684.9	regulate	Run1	regulate/STIM_027.jpg	100
592.181	1.867	1867.0	regulate	Run1	regulate/STIM_027.jpg	100
598.107	2.223	2222.7	regulate	Run1	regulate/STIM_028.jpg	100
602.795	1.374	1374.1	regulate	Run1	regulate/STIM_028.jpg	100
608.369	1.827	1826.9	regulate	Run1	regulate/STIM_028.jpg	100
613.417	2.375	2375.1	regulate	Run1	regulate/STIM_028.jpg	99
618.366	2.955	2955.4	regulate	Run1	regulate/STIM_029.jpg	99
625.527	1.389	1388.7	regulate	Run1	regulate/STIM_029.jpg	100
630.359	2.577	2576.8	regulate	Run1	regulate/STIM_029.jpg	100
636.195	2.307	2306.9	regulate	Run1	regulate/STIM_029.jpg	99
641.874	0.717	717.3	observe	Run1	observe/STIM_000.jpg	100
646.111	1.152	1152.3	observe	Run1	observe/STIM_000.jpg	99
651.273	1.036	1036.1	observe	Run1	observe/STIM_000.jpg	99
655.658	0.898	897.8	observe	Run1	observe/STIM_000.jpg	100
660.293	1.269	1268.7	observe	Run1	observe/STIM_001.jpg	100
663.975	1.065	1065.4	observe	Run1	observe/STIM_001.jpg	99
667.409	0.717	717.1	observe	Run1	observe/STIM_001.jpg	99
671.794	0.977	976.9	observe	Run1	observe/STIM_001.jpg	100
675.837	1.1	1099.6	observe	Run1	observe/STIM_002.jpg	100
679.55	0.876	876.1	observe	Run1	observe/STIM_002.jpg	99
684.573	0.74	740.1	observe	Run1	observe/STIM_002.jpg	100
689.342	0.704	704.3	observe	Run1	observe/STIM_002.jpg	99
693.137	1.364	1363.8	observe	Run1	observe/STIM_003.jpg	99
696.874	0.951	951.1	observe	Run1	observe/STIM_003.jpg	100
700.586	1.106	1106.0	observe	Run1	observe/STIM_003.jpg	100
705.137	1.14	1140.5	observe	Run1	observe/STIM_003.jpg	100
710.252	1.094	1094.3	observe	Run1	observe/STIM_004.jpg	99
715.414	1.064	1063.8	observe	Run1	observe/STIM_004.jpg	100
719.982	1.147	1147.4	observe	Run1	observe/STIM_004.jpg	99
723.446	0.985	985.1	observe	Run1	observe/STIM_004.jpg	99
726.96	0.76	760.3	observe	Run1	observe/STIM_005.jpg	100
730.765	0.696	696.2	observe	Run1	observe/STIM_005.jpg	99
733.711	0.99	990.4	observe	Run1	observe/STIM_005.jpg	100
737.111	1.135	1135.4	observe	Run1	observe/STIM_005.jpg	100
741.695	1.075	1075.1	observe	Run1	observe/STIM_006.jpg	100
745.631	0.734	734.1	observe	Run1	observe/STIM_006.jpg	100
748.525	0.723	722.9	observe	Run1	observe/STIM_006.jpg	100
751.773	0.75	749.6	observe	Run1	observe/STIM_006.jpg	99
754.991	0.849	848.6	observe	Run1	observe/STIM_007.jpg	100
759.672	0.866	866.2	observe	Run1	observe/STIM_007.jpg	99
764.24	1.042	1041.7	observe	Run1	observe/STIM_007.jpg	100
768.347	1.295	1294.7	observe	Run1	observe/STIM_007.jpg	100
773.411	1.367	1367.1	observe	Run1	observe/STIM_008.jpg	100
777.036	1.186	1186.5	observe	Run1	observe/STIM_008.jpg	99
781.175	1.121	1121.1	observe	Run1	observe/STIM_008.jpg	99
784.563	0.727	726.9	observe	Run1	observe/STIM_008.jpg	99
788.934	0.744	744.2	observe	Run1	observe/STIM_009.jpg	100
792.869	1.3	1300.4	observe	Run1	observe/STIM_009.jpg	99
798.095	1.362	1361.6	observe	Run1	observe/STIM_009.jpg	99
802.045	0.79	790.1	observe	Run1	observe/STIM_009.jpg	100
805.325	0.728	728.3	observe	Run1	observe/STIM_010.jpg	100
809.906	1.005	1004.9	observe	Run1	observe/STIM_010.jpg	100
814.604	1.047	1047.2	observe	Run1	observe/STIM_010.jpg	100
819.653	0.711	710.8	observe	Run1	observe/STIM_010.jpg	100
823.024	1.161	1161.2	observe	Run1	observe/STIM_011.jpg	100
827.497	0.729	728.6	observe	Run1	observe/STIM_011.jpg	100
832.16	1.259	1259.3	observe	Run1	observe/STIM_011.jpg	100
836.585	0.989	989.4	observe	Run1	observe/STIM_011.jpg	100
840.773	1.006	1006.3	observe	Run1	observe/STIM_012.jpg	99
845.52	1.071	1071.2	observe	Run1	observe/STIM_012.jpg	99
850.693	0.829	828.8	observe	Run1	observe/STIM_012.jpg	99
854.766	1.222	1222.5	observe	Run1	observe/STIM_012.jpg	100
858.292	0.809	808.7	observe	Run1	observe/STIM_013.jpg	100
862.522	1.066	1066.0	observe	Run1	observe/STIM_013.jpg	99
866.89	1.354	1353.9	observe	Run1	observe/STIM_013.jpg	99
871.118	1.262	1261.7	observe	Run1	observe/STIM_013.jpg	100
874.799	0.858	858.1	observe	Run1	observe/STIM_014.jpg	100
879.594	1.259	1259.3	observe	Run1	observe/STIM_014.jpg	100
884.665	0.819	818.7	observe	Run1	observe/STIM_014.jpg	99
889.526	1.324	1324.0	observe	Run1	observe/STIM_014.jpg	100
894.434	0.72	719.5	observe	Run1	observe/STIM_015.jpg	100
898.14	0.776	775.8	observe	Run1	observe/STIM_015.jpg	99
902.062	1.164	1164.0	observe	Run1	observe/STIM_015.jpg	99
906.827	0.936	936.1	observe	Run1	observe/STIM_015.jpg	100
910.748	1.366	1366.2	observe	Run1	observe/STIM_016.jpg	100
915.539	1.241	1241.1	observe	Run1	observe/STIM_016.jpg	99
920.885	1.363	1362.8	observe	Run1	observe/STIM_016.jpg	99
925.782	1.175	1175.0	observe	Run1	observe/STIM_016.jpg	99
930.282	0.808	808.4	observe	Run1	observe/STIM_017.jpg	100
933.827	0.849	848.6	observe	Run1	observe/STIM_017.jpg	99
937.021	0.813	812.7	observe	Run1	observe/STIM_017.jpg	99
940.373	1.161	1160.8	observe	Run1	observe/STIM_017.jpg	100
945.661	0.729	728.8	observe	Run1	observe/STIM_018.jpg	99
948.612	1.308	1307.5	observe	Run1	observe/STIM_018.jpg	100
953.429	1.269	1269.0	observe	Run1	observe/STIM_018.jpg	100
957.032	0.69	690.4	observe	Run1	observe/STIM_018.jpg	100
960.451	0.715	714.6	observe	Run1	observe/STIM_019.jpg	100
964.79	1.228	1228.1	observe	Run1	observe/STIM_019.jpg	100
968.384	1.114	1113.7	observe	Run1	observe/STIM_019.jpg	100
972.488	1.236	1236.4	observe	Run1	observe/STIM_019.jpg	100
977.165	2.173	2173.3	regulate	Run2	regulate/STIM_000.jpg	100
982.838	1.027	1027.1	regulate	Run2	regulate/STIM_000.jpg	100
987.594	1.278	1278.4	regulate	Run2	regulate/STIM_000.jpg	100
993.022	1.799	1798.7	regulate	Run2	regulate/STIM_000.jpg	99
997.351	2.185	2184.8	regulate	Run2	regulate/STIM_001.jpg	100
1002.071	2.263	2262.8	regulate	Run2	regulate/STIM_001.jpg	99
1007.64	2.218	2217.8	regulate	Run2	regulate/STIM_001.jpg	100
1012.358	1.284	1283.9	regulate	Run2	regulate/STIM_001.jpg	100
1017.757	1.878	1877.9	regulate	Run2	regulate/STIM_002.jpg	100
1022.566	2.102	2102.3	regulate	Run2	regulate/STIM_002.jpg	99
1027.895	1.429	1428.9	regulate	Run2	regulate/STIM_002.jpg	100
1032.377	1.62	1619.9	regulate	Run2	regulate/STIM_002.jpg	100
1037.963	1.777	1777.3	regulate	Run2	regulate/STIM_003.jpg	100
1043.054	2.269	2268.6	regulate	Run2	regulate/STIM_003.jpg	100
1048.233	1.042	1041.6	regulate	Run2	regulate/STIM_003.jpg	99
1052.466	1.591	1591.3	regulate	Run2	regulate/STIM_003.jpg	99
1057.768	2.268	2267.7	regulate	Run2	regulate/STIM_004.jpg	100
1063.717	2.208	2207.9	regulate	Run2	regulate/STIM_004.jpg	100
1069.154	1.411	1411.2	regulate	Run2	regulate/STIM_004.jpg	99
1074.289	0.979	978.6	regulate	Run2	regulate/STIM_004.jpg	100
1079.332	1.669	1668.6	regulate	Run2	regulate/STIM_005.jpg	100
1083.546	1.076	1076.1	regulate	Run2	regulate/STIM_005.jpg	100
1087.927	2.21	2209.7	regulate	Run2	regulate/STIM_005.jpg	100
1092.677	0.933	932.8	regulate	Run2	regulate/STIM_005.jpg	99
1095.963	1.338	1337.7	regulate	Run2	regulate/STIM_006.jpg	100
1101.182	1.5	1500.1	regulate	Run2	regulate/STIM_006.jpg	100
1105.194	1.414	1413.7	regulate	Run2	regulate/STIM_006.jpg	100
1109.163	1.048	1047.6	regulate	Run2	regulate/STIM_006.jpg	99
1114.023	1.509	1509.1	regulate	Run2	regulate/STIM_007.jpg	100
1117.929	1.085	1085.2	regulate	Run2	regulate/STIM_007.jpg	99
1121.712	1.89	1890.2	regulate	Run2	regulate/STIM_007.jpg	99
1127.351	1.157	1156.6	regulate	Run2	regulate/STIM_007.jpg	99
1130.812	1.645	1645.0	regulate	Run2	regulate/STIM_008.jpg	99
1135.545	2.301	2301.3	regulate	Run2	regulate/STIM_008.jpg	99
1142.139	2.192	2191.5	regulate	Run2	regulate/STIM_008.jpg	100
1147.36	2.08	2080.0	regulate	Run2	regulate/STIM_008.jpg	100
1152.428	2.185	2184.9	regulate	Run2	regulate/STIM_009.jpg	99
1157.905	2.229	2229.3	regulate	Run2	regulate/STIM_009.jpg	99
1164.005	1.963	1963.4	regulate	Run2	regulate/STIM_009.jpg	100
1168.847	1.928	1928.0	regulate	Run2	regulate/STIM_009.jpg	100
1173.283	1.718	1718.3	regulate	Run2	regulate/STIM_010.jpg	99
1177.324	1.817	1817.3	regulate	Run2	regulate/STIM_010.jpg	99
1182.152	1.169	1168.7	regulate	Run2	regulate/STIM_010.jpg	100
1186.565	2.084	2083.9	regulate	Run2	regulate/STIM_010.jpg	99
1191.871	1.156	1155.7	regulate	Run2	regulate/STIM_011.jpg	99
1195.544	1.029	1028.9	regulate	Run2	regulate/STIM_011.jpg	100
1200.365	1.83	1830.3	regulate	Run2	regulate/STIM_011.jpg	100
1205.834	1.038	1038.0	regulate	Run2	regulate/STIM_011.jpg	100
1209.067	1.092	1092.5	regulate	Run2	regulate/STIM_012.jpg	100
1213.678	1.066	1066.4	regulate	Run2	regulate/STIM_012.jpg	99
1217.735	1.763	1762.8	regulate	Run2	regulate/STIM_012.jpg	99
1223.369	2.009	2008.5	regulate	Run2	regulate/STIM_012.jpg	100
1229.038	2.004	2004.2	regulate	Run2	regulate/STIM_013.jpg	99
1234.038	2.178	2178.2	regulate	Run2	regulate/STIM_013.jpg	99
1239.29	1.437	1437.1	regulate	Run2	regulate/STIM_013.jpg	100
1243.852	1.715	1715.3	regulate	Run2	regulate/STIM_013.jpg	100
1248.173	2.458	2458.4	regulate	Run2	regulate/STIM_014.jpg	100
1253.305	1.786	1786.0	regulate	Run2	regulate/STIM_014.jpg	100
1258.177	2.112	2112.5	regulate	Run2	regulate/STIM_014.jpg	99
1264.286	1.148	1148.4	regulate	Run2	regulate/STIM_014.jpg	100
1267.818	2.044	2044.4	regulate	Run2	regulate/STIM_015.jpg	100
1273.347	1.086	1085.5	regulate	Run2	regulate/STIM_015.jpg	100
1277.953	2.182	2181.8	regulate	Run2	regulate/STIM_015.jpg	99
1283.999	1.557	1556.7	regulate	Run2	regulate/STIM_015.jpg	99
1287.953	1.224	1224.2	regulate	Run2	regulate/STIM_016.jpg	99
1291.955	2.251	2251.2	regulate	Run2	regulate/STIM_016.jpg	99
1297.218	1.255	1254.9	regulate	Run2	regulate/STIM_016.jpg	99
1302.225	1.114	1113.7	regulate	Run2	regulate/STIM_016.jpg	100
1306.654	2.406	2406.4	regulate	Run2	regulate/STIM_017.jpg	99
1311.567	1.979	1979.4	regulate	Run2	regulate/STIM_017.jpg	99
1316.349	2.148	2147.9	regulate	Run2	regulate/STIM_017.jpg	100
1322.111	1.834	1834.5	regulate	Run2	regulate/STIM_017.jpg	100
1326.424	1.417	1416.8	regulate	Run2	regulate/STIM_018.jpg	99
1331.494	1.382	1382.1	regulate	Run2	regulate/STIM_018.jpg	100
1335.679	1.227	1227.3	regulate	Run2	regulate/STIM_018.jpg	99
1340.654	1.872	1871.9	regulate	Run2	regulate/STIM_018.jpg	100
1346.841	1.676	1675.6	regulate	Run2	regulate/STIM_019.jpg	99
1352.668	1.603	1603.0	regulate	Run2	regulate/STIM_019.jpg	99
1358.087	1.397	1397.4	regulate	Run2	regulate/STIM_019.jpg	100
1362.553	0.954	954.1	regulate	Run2	regulate/STIM_019.jpg	99
1366.055	2.142	2141.6	regulate	Run2	regulate/STIM_020.jpg	100
1372.136	1.94	1940.4	regulate	Run2	regulate/STIM_020.jpg	100
1377.823	1.681	1681.0	regulate	Run2	regulate/STIM_020.jpg	99
1382.524	1.907	1907.3	regulate	Run2	regulate/STIM_020.jpg	100
1388.506	2.542	2541.9	regulate	Run2	regulate/STIM_021.jpg	99
1394.569	1.971	1970.9	regulate	Run2	regulate/STIM_021.jpg	100
1399.169	1.878	1878.3	regulate	Run2	regulate/STIM_021.jpg	99
1405.033	1.08	1079.7	regulate	Run2	regulate/STIM_021.jpg	99
1408.629	2.514	2514.1	regulate	Run2	regulate/STIM_022.jpg	99
1414.207	1.634	1633.8	regulate	Run2	regulate/STIM_022.jpg	99
1418.958	1.446	1445.7	regulate	Run2	regulate/STIM_022.jpg	99
1423.545	1.256	1256.5	regulate	Run2	regulate/STIM_022.jpg	100
1427.962	1.582	1581.9	regulate	Run2	regulate/STIM_023.jpg	99
1433.357	1.921	1921.0	regulate	Run2	regulate/STIM_023.jpg	99
1438.572	1.495	1494.6	regulate	Run2	regulate/STIM_023.jpg	100
1442.427	1.391	1391.0	regulate	Run2	regulate/STIM_023.jpg	99
1447.819	1.972	1972.2	regulate	Run2	regulate/STIM_024.jpg	99
1453.719	1.953	1953.3	regulate	Run2	regulate/STIM_024.jpg	100
1458.245	2.153	2153.3	regulate	Run2	regulate/STIM_024.jpg	99
1463.1	2.02	2019.8	regulate	Run2	regulate/STIM_024.jpg	99
1468.744	1.864	1864.5	regulate	Run2	regulate/STIM_025.jpg	100
1474.065	1.99	1989.5	regulate	Run2	regulate/STIM_025.jpg	100
1479.857	1.723	1722.6	regulate	Run2	regulate/STIM_025.jpg	100
1484.822	1.454	1454.3	regulate	Run2	regulate/STIM_025.jpg	100
1489.707	1.899	1899.0	regulate	Run2	regulate/STIM_026.jpg	99
1495.021	1.286	1285.9	regulate	Run2	regulate/STIM_026.jpg	100
1499.66	2.196	2196.0	regulate	Run2	regulate/STIM_026.jpg	100
1504.339	1.011	1010.8	regulate	Run2	regulate/STIM_026.jpg	99
1507.557	2.205	2205.4	regulate	Run2	regulate/STIM_027.jpg	100
1513.269	1.933	1933.1	regulate	Run2	regulate/STIM_027.jpg	100
1519.104	1.998	1998.1	regulate	Run2	regulate/STIM_027.jpg	99
1525.075	2.065	2064.8	regulate	Run2	regulate/STIM_027.jpg	99
1531.314	2.498	2498.0	regulate	Run2	regulate/STIM_028.jpg	100
1536.306	1.086	1086.2	regulate	Run2	regulate/STIM_028.jpg	100
1539.692	1.623	1623.1	regulate	Run2	regulate/STIM_028.jpg	99
1544.284	1.048	1048.2	regulate	Run2	regulate/STIM_028.jpg	100
1547.996	1.111	1111.0	regulate	Run2	regulate/STIM_029.jpg	99
1551.658	2.304	2303.5	regulate	Run2	regulate/STIM_029.jpg	99
1557.44	1.86	1860.3	regulate	Run2	regulate/STIM_029.jpg	99
1562.238	1.014	1014.4	regulate	Run2	regulate/STIM_029.jpg	99
1567.077	0.941	941.0	observe	Run2	observe/STIM_000.jpg	100
1570.479	1.288	1287.8	observe	Run2	observe/STIM_000.jpg	99
1575.683	0.903	903.0	observe	Run2	observe/STIM_000.jpg	99
1579.401	1.233	1232.9	observe	Run2	observe/STIM_000.jpg	100
1583.118	1.359	1359.0	observe	Run2	observe/STIM_001.jpg	100
1586.794	1.366	1365.6	observe	Run2	observe/STIM_001.jpg	99
1591.365	1.363	1362.7	observe	Run2	observe/STIM_001.jpg	99
1595.394	0.86	859.8	observe	Run2	observe/STIM_001.jpg	99
1598.946	1.18	1179.8	observe	Run2	observe/STIM_002.jpg	99
1603.236	0.962	961.5	observe	Run2	observe/STIM_002.jpg	99
1607.213	1.178	1178.4	observe	Run2	observe/STIM_002.jpg	99
1611.945	1.038	1037.9	observe	Run2	observe/STIM_002.jpg	100
1617.01	0.782	782.4	observe	Run2	observe/STIM_003.jpg	100
1621.425	0.69	690.1	observe	Run2	observe/STIM_003.jpg	99
1626.093	1.324	1324.2	observe	Run2	observe/STIM_003.jpg	100
1630.132	1.015	1014.9	observe	Run2	observe/STIM_003.jpg	100
1635.233	1.008	1008.2	observe	Run2	observe/STIM_004.jpg	99
1638.647	1.205	1205.2	observe	Run2	observe/STIM_004.jpg	99
1643.083	1.22	1220.4	observe	Run2	observe/STIM_004.jpg	99
1646.708	0.792	792.4	observe	Run2	observe/STIM_004.jpg	100
1651.62	0.687	686.9	observe	Run2	observe/STIM_005.jpg	99
1656.003	0.884	884.4	observe	Run2	observe/STIM_005.jpg	100
1660.228	0.974	974.2	observe	Run2	observe/STIM_005.jpg	100
1663.522	1.212	1212.4	observe	Run2	observe/STIM_005.jpg	100
1668.275	0.831	831.2	observe	Run2	observe/STIM_006.jpg	99
1672.343	1.012	1012.0	observe	Run2	observe/STIM_006.jpg	99
1675.767	1.092	1091.8	observe	Run2	observe/STIM_006.jpg	99
1679.904	0.74	740.1	observe	Run2	observe/STIM_006.jpg	100
1684.638	1.218	1217.7	observe	Run2	observe/STIM_007.jpg	100
1689.176	0.687	687.0	observe	Run2	observe/STIM_007.jpg	100
1692.202	1.135	1135.2	observe	Run2	observe/STIM_007.jpg	99
1696.164	0.972	972.4	observe	Run2	observe/STIM_007.jpg	99
1700.319	0.834	833.5	observe	Run2	observe/STIM_008.jpg	99
1705.264	0.998	997.7	observe	Run2	observe/STIM_008.jpg	100
1708.641	1.306	1306.4	observe	Run2	observe/STIM_008.jpg	100
1713.4	1.181	1180.8	observe	Run2	observe/STIM_008.jpg	99
1717.783	1.341	1340.8	observe	Run2	observe/STIM_009.jpg	99
1722.995	1.145	1144.7	observe	Run2	observe/STIM_009.jpg	99
1728.024	1.101	1101.0	observe	Run2	observe/STIM_009.jpg	100
1731.938	0.766	765.5	observe	Run2	observe/STIM_009.jpg	100
1736.825	1.175	1174.7	observe	Run2	observe/STIM_010.jpg	100
1741.474	1.323	1323.1	observe	Run2	observe/STIM_010.jpg	100
1745.136	1.09	1089.6	observe	Run2	observe/STIM_010.jpg	99
1749.181	0.737	736.8	observe	Run2	observe/STIM_010.jpg	99
1753.638	1.134	1134.4	observe	Run2	observe/STIM_011.jpg	100
1757.631	1.006	1006.4	observe	Run2	observe/STIM_011.jpg	99
1761.482	0.866	866.4	observe	Run2	observe/STIM_011.jpg	100
1766.283	1.063	1062.8	observe	Run2	observe/STIM_011.jpg	99
1769.786	1.261	1261.0	observe	Run2	observe/STIM_012.jpg	99
1773.576	1.041	1041.0	observe	Run2	observe/STIM_012.jpg	99
1776.873	1.166	1165.5	observe	Run2	observe/STIM_012.jpg	99
1781.508	1.18	1179.5	observe	Run2	observe/STIM_012.jpg	99
1785.824	1.32	1319.7	observe	Run2	observe/STIM_013.jpg	100
1790.309	1.097	1097.2	observe	Run2	observe/STIM_013.jpg	99
1794.003	0.812	811.8	observe	Run2	observe/STIM_013.jpg	99
1797.643	0.771	770.8	observe	Run2	observe/STIM_013.jpg	99
1800.923	1.339	1339.4	observe	Run2	observe/STIM_014.jpg	100
1805.219	0.872	872.2	observe	Run2	observe/STIM_014.jpg	100
1809.595	1.271	1270.8	observe	Run2	observe/STIM_014.jpg	100
1814.12	1.261	1261.2	observe	Run2	observe/STIM_014.jpg	100
1818.918	1.041	1041.0	observe	Run2	observe/STIM_015.jpg	99
1823.432	1.2	1199.9	observe	Run2	observe/STIM_015.jpg	99
1828.471	1.296	1296.4	observe	Run2	observe/STIM_015.jpg	99
1832.433	0.691	691.2	observe	Run2	observe/STIM_015.jpg	100
1836.402	1.034	1034.3	observe	Run2	observe/STIM_016.jpg	99
1840.279	0.83	830.2	observe	Run2	observe/STIM_016.jpg	100
1843.336	0.818	818.0	observe	Run2	observe/STIM_016.jpg	99
1847.405	1.203	1202.9	observe	Run2	observe/STIM_016.jpg	100
1851.967	0.718	717.7	observe	Run2	observe/STIM_017.jpg	99
1855.598	0.866	866.1	observe	Run2	observe/STIM_017.jpg	99
1860.364	1.047	1046.8	observe	Run2	observe/STIM_017.jpg	100
1864.624	0.957	957.2	observe	Run2	observe/STIM_017.jpg	100
1869.56	0.889	888.9	observe	Run2	observe/STIM_018.jpg	99
1873.402	1.195	1195.1	observe	Run2	observe/STIM_018.jpg	100
1877.116	1.235	1235.4	observe	Run2	observe/STIM_018.jpg	100
1881.719	1.097	1096.6	observe	Run2	observe/STIM_018.jpg	99
1886.624	0.951	951.2	observe	Run2	observe/STIM_019.jpg	100
1890.817	1.227	1227.3	observe	Run2	observe/STIM_019.jpg	99
1894.813	1.346	1345.8	observe	Run2	observe/STIM_019.jpg	99
1899.128	1.07	1069.8	observe	Run2	observe/STIM_019.jpg	100
1903.138	1.04	1040.5	regulate	Run3	regulate/STIM_000.jpg	99
1906.386	1.142	1142.2	regulate	Run3	regulate/STIM_000.jpg	99
1911.098	1.874	1874.3	regulate	Run3	regulate/STIM_000.jpg	99
1916.183	0.997	996.6	regulate	Run3	regulate/STIM_000.jpg	100
1920.004	1.365	1365.0	regulate	Run3	regulate/STIM_001.jpg	99
1924.464	1.406	1405.5	regulate	Run3	regulate/STIM_001.jpg	100
1928.26	1.277	1277.1	regulate	Run3	regulate/STIM_001.jpg	100
1933.472	1.222	1222.3	regulate	Run3	regulate/STIM_001.jpg	99
1937.377	0.924	923.9	regulate	Run3	regulate/STIM_002.jpg	99
1941.468	1.41	1410.0	regulate	Run3	regulate/STIM_002.jpg	99
1946.24	1.586	1586.1	regulate	Run3	regulate/STIM_002.jpg	100
1950.85	1.123	1122.7	regulate	Run3	regulate/STIM_002.jpg	100
1954.914	1.214	1214.2	regulate	Run3	regulate/STIM_003.jpg	99
1958.493	2.079	2079.1	regulate	Run3	regulate/STIM_003.jpg	100
1963.05	1.359	1358.8	regulate	Run3	regulate/STIM_003.jpg	99
1968.604	1.32	1320.3	regulate	Run3	regulate/STIM_003.jpg	99
1973.374	1.271	1270.6	regulate	Run3	regulate/STIM_004.jpg	99
1977.08	1.454	1454.0	regulate	Run3	regulate/STIM_004.jpg	99
1981.701	1.658	1657.5	regulate	Run3	regulate/STIM_004.jpg	99
1985.686	1.06	1060.3	regulate	Run3	regulate/STIM_004.jpg	99
1990.001	0.964	963.8	regulate	Run3	regulate/STIM_005.jpg	99
1993.794	2.019	2019.2	regulate	Run3	regulate/STIM_005.jpg	99
1999.873	2.094	2093.9	regulate	Run3	regulate/STIM_005.jpg	100
2005.102	1.946	1945.7	regulate	Run3	regulate/STIM_005.jpg	99
2009.464	1.505	1505.4	regulate	Run3	regulate/STIM_006.jpg	100
2014.321	1.216	1215.7	regulate	Run3	regulate/STIM_006.jpg	99
2018.493	1.849	1848.7	regulate	Run3	regulate/STIM_006.jpg	99
2024.055	1.591	1591.3	regulate	Run3	regulate/STIM_006.jpg	100
2028.184	1.993	1993.0	regulate	Run3	regulate/STIM_007.jpg	100
2033.284	1.947	1946.7	regulate	Run3	regulate/STIM_007.jpg	100
2038.253	1.58	1579.8	regulate	Run3	regulate/STIM_007.jpg	99
2042.444	1.875	1875.4	regulate	Run3	regulate/STIM_007.jpg	100
2048.508	1.301	1301.3	regulate	Run3	regulate/STIM_008.jpg	100
2053.897	1.837	1836.9	regulate	Run3	regulate/STIM_008.jpg	99
2058.162	1.157	1157.4	regulate	Run3	regulate/STIM_008.jpg	99
2063.074	1.481	1481.2	regulate	Run3	regulate/STIM_008.jpg	99
2068.405	2.09	2089.9	regulate	Run3	regulate/STIM_009.jpg	100
2074.32	1.655	1654.9	regulate	Run3	regulate/STIM_009.jpg	100
2080.212	1.579	1578.9	regulate	Run3	regulate/STIM_009.jpg	100
2084.071	1.206	1205.8	regulate	Run3	regulate/STIM_009.jpg	99
2087.507	1.25	1249.8	regulate	Run3	regulate/STIM_010.jpg	99
2092.599	1.808	1808.3	regulate	Run3	regulate/STIM_010.jpg	99
2097.784	0.965	964.7	regulate	Run3	regulate/STIM_010.jpg	100
2102.716	1.906	1906.3	regulate	Run3	regulate/STIM_010.jpg	99
2108.319	1.714	1714.0	regulate	Run3	regulate/STIM_011.jpg	100
2112.905	0.961	961.1	regulate	Run3	regulate/STIM_011.jpg	99
2116.189	2.015	2015.0	regulate	Run3	regulate/STIM_011.jpg	99
2122.281	1.585	1585.0	regulate	Run3	regulate/STIM_011.jpg	99
2128.12	1.788	1787.7	regulate	Run3	regulate/STIM_012.jpg	100
2133.252	0.932	931.5	regulate	Run3	regulate/STIM_012.jpg	100
2136.733	1.289	1289.0	regulate	Run3	regulate/STIM_012.jpg	99
2141.252	1.871	1871.0	regulate	Run3	regulate/STIM_012.jpg	99
2146.138	1.657	1657.1	regulate	Run3	regulate/STIM_013.jpg	99
2150.803	1.602	1601.8	regulate	Run3	regulate/STIM_013.jpg	99
2154.963	0.916	915.7	regulate	Run3	regulate/STIM_013.jpg	100
2159.481	1.564	1564.1	regulate	Run3	regulate/STIM_013.jpg	100
2164.518	1.717	1717.4	regulate	Run3	regulate/STIM_014.jpg	99
2169.726	1.633	1633.0	regulate	Run3	regulate/STIM_014.jpg	99
2174.908	1.434	1434.3	regulate	Run3	regulate/STIM_014.jpg	99
2179.978	1.548	1548.5	regulate	Run3	regulate/STIM_014.jpg	99
2183.925	1.316	1315.6	regulate	Run3	regulate/STIM_015.jpg	100
2189.042	1.484	1484.3	regulate	Run3	regulate/STIM_015.jpg	99
2193.583	1.3	1300.3	regulate	Run3	regulate/STIM_015.jpg	100
2198.181	1.668	1667.9	regulate	Run3	regulate/STIM_015.jpg	99
2202.293	1.851	1850.9	regulate	Run3	regulate/STIM_016.jpg	100
2207.27	1.373	1372.9	regulate	Run3	regulate/STIM_016.jpg	100
2211.695	1.295	1294.8	regulate	Run3	regulate/STIM_016.jpg	99
2216.771	0.972	972.3	regulate	Run3	regulate/STIM_016.jpg	100
2221.687	1.6	1600.3	regulate	Run3	regulate/STIM_017.jpg	99
2225.694	1.614	1614.3	regulate	Run3	regulate/STIM_017.jpg	100
2229.835	0.966	965.7	regulate	Run3	regulate/STIM_017.jpg	100
2234.781	1.521	1520.6	regulate	Run3	regulate/STIM_017.jpg	100
2238.592	1.108	1108.4	regulate	Run3	regulate/STIM_018.jpg	99
2243.873	1.57	1569.8	regulate	Run3	regulate/STIM_018.jpg	100
2248.656	1.424	1424.5	regulate	Run3	regulate/STIM_018.jpg	99
2254.258	1.067	1066.7	regulate	Run3	regulate/STIM_018.jpg	100
2259.421	2.063	2063.1	regulate	Run3	regulate/STIM_019.jpg	99
2264.276	1.394	1394.1	regulate	Run3	regulate/STIM_019.jpg	99
2269.526	1.641	1641.0	regulate	Run3	regulate/STIM_019.jpg	100
2275.428	1.98	1980.4	regulate	Run3	regulate/STIM_019.jpg	99
2280.255	1.049	1048.7	regulate	Run3	regulate/STIM_020.jpg	99
2284.972	2.009	2008.7	regulate	Run3	regulate/STIM_020.jpg	100
2289.43	1.882	1882.0	regulate	Run3	regulate/STIM_020.jpg	99
2295.069	1.39	1389.6	regulate	Run3	regulate/STIM_020.jpg	100
2300.444	1.405	1404.8	regulate	Run3	regulate/STIM_021.jpg	100
2304.683	1.613	1612.6	regulate	Run3	regulate/STIM_021.jpg	100
2309.871	1.403	1403.1	regulate	Run3	regulate/STIM_021.jpg	99
2314.102	2.07	2070.2	regulate	Run3	regulate/STIM_021.jpg	100
2318.803	2.019	2018.8	regulate	Run3	regulate/STIM_022.jpg	99
2324.452	1.976	1975.8	regulate	Run3	regulate/STIM_022.jpg	99
2330.281	1.014	1013.9	regulate	Run3	regulate/STIM_022.jpg	100
2334.871	1.162	1162.0	regulate	Run3	regulate/STIM_022.jpg	99
2339.425	1.277	1277.4	regulate	Run3	regulate/STIM_023.jpg	99
2344.287	1.241	1241.0	regulate	Run3	regulate/STIM_023.jpg	99
2348.928	1.863	1863.2	regulate	Run3	regulate/STIM_023.jpg	100
2353.791	1.067	1067.2	regulate	Run3	regulate/STIM_023.jpg	100
2357.147	0.914	914.4	regulate	Run3	regulate/STIM_024.jpg	100
2361.986	1.587	1587.3	regulate	Run3	regulate/STIM_024.jpg	99
2366.271	1.668	1667.7	regulate	Run3	regulate/STIM_024.jpg	99
2370.238	1.227	1227.4	regulate	Run3	regulate/STIM_024.jpg	99
2373.784	2.09	2090.4	regulate	Run3	regulate/STIM_025.jpg	100
2378.33	1.904	1904.5	regulate	Run3	regulate/STIM_025.jpg	100
2383.392	1.69	1689.7	regulate	Run3	regulate/STIM_025.jpg	100
2388.923	2.014	2013.5	regulate	Run3	regulate/STIM_025.jpg	99
2394.199	2.001	2001.1	regulate	Run3	regulate/STIM_026.jpg	100
2398.964	1.543	1543.2	regulate	Run3	regulate/STIM_026.jpg	99
2404.626	2.072	2072.3	regulate	Run3	regulate/STIM_026.jpg	100
2410.974	1.499	1498.9	regulate	Run3	regulate/STIM_026.jpg	99
2415.56	1.453	1453.1	regulate	Run3	regulate/STIM_027.jpg	100
2419.395	1.079	1079.0	regulate	Run3	regulate/STIM_027.jpg	99
2424.06	1.272	1271.8	regulate	Run3	regulate/STIM_027.jpg	99
2427.974	0.997	997.3	regulate	Run3	regulate/STIM_027.jpg	99
2433.087	1.314	1313.5	regulate	Run3	regulate/STIM_028.jpg	100
2438.038	1.911	1910.6	regulate	Run3	regulate/STIM_028.jpg	99
2443.299	1.688	1687.9	regulate	Run3	regulate/STIM_028.jpg	99
2447.675	1.978	1978.2	regulate	Run3	regulate/STIM_028.jpg	99
2453.768	1.105	1105.2	regulate	Run3	regulate/STIM_029.jpg	100
2458.903	1.89	1889.8	regulate	Run3	regulate/STIM_029.jpg	100
2464.887	1.031	1031.1	regulate	Run3	regulate/STIM_029.jpg	99
2468.854	1.127	1127.3	regulate	Run3	regulate/STIM_029.jpg	99
2473.108	1.209	1208.9	observe	Run3	observe/STIM_000.jpg	100
2478.188	1.294	1293.6	observe	Run3	observe/STIM_000.jpg	99
2483.199	0.858	857.6	observe	Run3	observe/STIM_000.jpg	99
2487.706	1.154	1153.7	observe	Run3	observe/STIM_000.jpg	99
2492.286	0.813	813.1	observe	Run3	observe/STIM_001.jpg	100
2495.928	1.12	1119.8	observe	Run3	observe/STIM_001.jpg	100
2499.37	0.96	960.2	observe	Run3	observe/STIM_001.jpg	100
2504.328	1.364	1364.3	observe	Run3	observe/STIM_001.jpg	100
2509.46	0.812	812.4	observe	Run3	observe/STIM_002.jpg	99
2512.947	0.919	918.6	observe	Run3	observe/STIM_002.jpg	100
2517.159	1.089	1089.2	observe	Run3	observe/STIM_002.jpg	99
2521.342	0.889	888.7	observe	Run3	observe/STIM_002.jpg	100
2526.24	1.164	1164.5	observe	Run3	observe/STIM_003.jpg	99
2531.55	1.009	1008.6	observe	Run3	observe/STIM_003.jpg	99
2535.793	0.769	769.2	observe	Run3	observe/STIM_003.jpg	100
2539.354	1.206	1205.9	observe	Run3	observe/STIM_003.jpg	100
2544.584	1.095	1095.1	observe	Run3	observe/STIM_004.jpg	99
2548.829	0.868	867.8	observe	Run3	observe/STIM_004.jpg	100
2552.229	1.21	1210.5	observe	Run3	observe/STIM_004.jpg	100
2557.515	1.208	1208.2	observe	Run3	observe/STIM_004.jpg	100
2561.339	1.105	1104.8	observe	Run3	observe/STIM_005.jpg	99
2564.882	1.262	1262.3	observe	Run3	observe/STIM_005.jpg	99
2569.865	0.922	921.9	observe	Run3	observe/STIM_005.jpg	99
2574.211	1.261	1260.9	observe	Run3	observe/STIM_005.jpg	99
2578.125	1.012	1012.0	observe	Run3	observe/STIM_006.jpg	99
2583.236	1.182	1182.4	observe	Run3	observe/STIM_006.jpg	99
2587.037	0.945	944.7	observe	Run3	observe/STIM_006.jpg	100
2590.935	0.929	928.8	observe	Run3	observe/STIM_006.jpg	100
2594.039	0.96	959.5	observe	Run3	observe/STIM_007.jpg	100
2598.934	1.187	1186.7	observe	Run3	observe/STIM_007.jpg	100
2603.346	0.733	733.0	observe	Run3	observe/STIM_007.jpg	99
2607.844	0.884	884.3	observe	Run3	observe/STIM_007.jpg	100
2611.605	1.181	1180.6	observe	Run3	observe/STIM_008.jpg	99
2616.026	1.349	1348.8	observe	Run3	observe/STIM_008.jpg	99
2620.587	1.104	1103.6	observe	Run3	observe/STIM_008.jpg	99
2623.903	0.83	830.0	observe	Run3	observe/STIM_008.jpg	100
2627.68	1.15	1150.0	observe	Run3	observe/STIM_009.jpg	99
2631.327	0.908	908.3	observe	Run3	observe/STIM_009.jpg	100
2636.235	0.787	786.6	observe	Run3	observe/STIM_009.jpg	100
2640.318	1.355	1354.9	observe	Run3	observe/STIM_009.jpg	99
2643.913	0.966	966.4	observe	Run3	observe/STIM_010.jpg	99
2647.474	1.053	1053.1	observe	Run3	observe/STIM_010.jpg	100
2650.988	1.175	1175.2	observe	Run3	observe/STIM_010.jpg	99
2655.559	1.167	1167.1	observe	Run3	observe/STIM_010.jpg	100
2659.687	1.164	1163.8	observe	Run3	observe/STIM_011.jpg	100
2663.259	1.273	1272.6	observe	Run3	observe/STIM_011.jpg	100
2667.084	1.269	1269.4	observe	Run3	observe/STIM_011.jpg	100
2671.647	1.039	1039.4	observe	Run3	observe/STIM_011.jpg	99
2676.2	0.753	752.8	observe	Run3	observe/STIM_012.jpg	100
2679.453	0.974	973.8	observe	Run3	observe/STIM_012.jpg	100
2682.847	0.742	741.5	observe	Run3	observe/STIM_012.jpg	100
2686.059	0.941	940.7	observe	Run3	observe/STIM_012.jpg	99
2690.919	1.148	1147.5	observe	Run3	observe/STIM_013.jpg	99
2694.426	1.182	1182.2	observe	Run3	observe/STIM_013.jpg	100
2699.369	1.228	1227.8	observe	Run3	observe/STIM_013.jpg	100
2704.143	1.263	1263.3	observe	Run3	observe/STIM_013.jpg	99
2708.197	0.853	853.3	observe	Run3	observe/STIM_014.jpg	99
2712.651	1.123	1123.2	observe	Run3	observe/STIM_014.jpg	99
2717.488	1.092	1091.8	observe	Run3	observe/STIM_014.jpg	99
2721.323	1.047	1047.4	observe	Run3	observe/STIM_014.jpg	100
2725.231	1.129	1129.2	observe	Run3	observe/STIM_015.jpg	99
2729.096	0.742	741.5	observe	Run3	observe/STIM_015.jpg	99
2732.092	0.832	832.1	observe	Run3	observe/STIM_015.jpg	100
2736.23	1.051	1050.8	observe	Run3	observe/STIM_015.jpg	100
2740.089	1.335	1335.2	observe	Run3	observe/STIM_016.jpg	99
2743.8	0.951	951.3	observe	Run3	observe/STIM_016.jpg	99
2748.389	0.96	960.0	observe	Run3	observe/STIM_016.jpg	99
2752.786	0.765	764.6	observe	Run3	observe/STIM_016.jpg	99
2756.309	1.334	1334.5	observe	Run3	observe/STIM_017.jpg	99
2759.9	1.102	1101.8	observe	Run3	observe/STIM_017.jpg	99
2763.393	0.844	844.5	observe	Run3	observe/STIM_017.jpg	99
2768.326	0.841	841.0	observe	Run3	observe/STIM_017.jpg	99
2773.111	1.201	1201.1	observe	Run3	observe/STIM_018.jpg	100
2776.688	1.002	1002.2	observe	Run3	observe/STIM_018.jpg	99
2780.24	0.985	984.9	observe	Run3	observe/STIM_018.jpg	99
2784.92	0.714	713.8	observe	Run3	observe/STIM_018.jpg	99
2788.371	1.134	1134.1	observe	Run3	observe/STIM_019.jpg	99
2792.857	1.333	1333.0	observe	Run3	observe/STIM_019.jpg	100
2797.202	1.324	1323.5	observe	Run3	observe/STIM_019.jpg	100
2801.107	0.735	735.2	observe	Run3	observe/STIM_019.jpg	100
