onset	duration	accuracy	trial_type	learning_stage	stimulus
0.0	2.71	correct	regulate	Run1	regulate/STIM_000.jpg
5.023	1.526	correct	regulate	Run1	regulate/STIM_000.jpg
8.606	2.448	correct	regulate	Run1	regulate/STIM_000.jpg
14.704	1.198	correct	regulate	Run1	regulate/STIM_000.jpg
19.863	1.949	correct	regulate	Run1	regulate/STIM_001.jpg
24.633	1.241	correct	regulate	Run1	regulate/STIM_001.jpg
29.432	1.279	incorrect	regulate	Run1	regulate/STIM_001.jpg
32.776	2.354	correct	regulate	Run1	regulate/STIM_001.jpg
38.269	2.018	correct	regulate	Run1	regulate/STIM_002.jpg
43.508	2.23	correct	regulate	Run1	regulate/STIM_002.jpg
49.183	1.951	correct	regulate	Run1	regulate/STIM_002.jpg
53.872	2.481	correct	regulate	Run1	regulate/STIM_002.jpg
59.363	2.344	correct	regulate	Run1	regulate/STIM_003.jpg
64.011	2.509	correct	regulate	Run1	regulate/STIM_003.jpg
69.771	1.37	incorrect	regulate	Run1	regulate/STIM_003.jpg
73.841	1.365	correct	regulate	Run1	regulate/STIM_003.jpg
78.911	2.07	incorrect	regulate	Run1	regulate/STIM_004.jpg
83.242	1.876	correct	regulate	Run1	regulate/STIM_004.jpg
87.176	1.302	correct	regulate	Run1	regulate/STIM_004.jpg
91.26	2.512	correct	regulate	Run1	regulate/STIM_004.jpg
96.641	1.27	correct	regulate	Run1	regulate/STIM_005.jpg
101.574	2.305	incorrect	regulate	Run1	regulate/STIM_005.jpg
106.403	1.736	correct	regulate	Run1	regulate/STIM_005.jpg
111.737	2.273	correct	regulate	Run1	regulate/STIM_005.jpg
116.594	1.27	correct	regulate	Run1	regulate/STIM_006.jpg
119.929	2.096	incorrect	regulate	Run1	regulate/STIM_006.jpg
125.839	1.643	correct	regulate	Run1	regulate/STIM_006.jpg
131.053	1.644	correct	regulate	Run1	regulate/STIM_006.jpg
136.205	2.909	correct	regulate	Run1	regulate/STIM_007.jpg
141.687	2.316	incorrect	regulate	Run1	regulate/STIM_007.jpg
147.094	1.328	correct	regulate	Run1	regulate/STIM_007.jpg
151.675	1.755	correct	regulate	Run1	regulate/STIM_007.jpg
156.967	1.835	correct	regulate	Run1	regulate/STIM_008.jpg
161.54	1.555	correct	regulate	Run1	regulate/STIM_008.jpg
166.437	2.489	correct	regulate	Run1	regulate/STIM_008.jpg
172.747	2.482	incorrect	regulate	Run1	regulate/STIM_008.jpg
177.642	1.668	incorrect	regulate	Run1	regulate/STIM_009.jpg
182.26	1.918	correct	regulate	Run1	regulate/STIM_009.jpg
187.315	1.75	incorrect	regulate	Run1	regulate/STIM_009.jpg
192.396	2.142	correct	regulate	Run1	regulate/STIM_009.jpg
198.202	1.369	incorrect	regulate	Run1	regulate/STIM_010.jpg
202.365	2.675	correct	regulate	Run1	regulate/STIM_010.jpg
207.714	2.336	correct	regulate	Run1	regulate/STIM_010.jpg
212.177	1.106	correct	regulate	Run1	regulate/STIM_010.jpg
216.606	2.431	correct	regulate	Run1	regulate/STIM_011.jpg
221.777	1.559	correct	regulate	Run1	regulate/STIM_011.jpg
226.269	1.954	correct	regulate	Run1	regulate/STIM_011.jpg
231.283	2.37	correct	regulate	Run1	regulate/STIM_011.jpg
235.716	2.609	correct	regulate	Run1	regulate/STIM_012.jpg
241.297	1.884	correct	regulate	Run1	regulate/STIM_012.jpg
247.04	2.615	correct	regulate	Run1	regulate/STIM_012.jpg
253.14	1.083	correct	regulate	Run1	regulate/STIM_012.jpg
257.414	2.935	correct	regulate	Run1	regulate/STIM_013.jpg
264.037	2.504	correct	regulate	Run1	regulate/STIM_013.jpg
270.147	2.475	correct	regulate	Run1	regulate/STIM_013.jpg
276.468	1.615	incorrect	regulate	Run1	regulate/STIM_013.jpg
280.837	1.827	incorrect	regulate	Run1	regulate/STIM_014.jpg
285.954	2.795	correct	regulate	Run1	regulate/STIM_014.jpg
292.436	1.848	correct	regulate	Run1	regulate/STIM_014.jpg
297.51	1.785	correct	regulate	Run1	regulate/STIM_014.jpg
301.506	2.745	correct	regulate	Run1	regulate/STIM_015.jpg
308.226	1.879	correct	regulate	Run1	regulate/STIM_015.jpg
312.59	2.097	incorrect	regulate	Run1	regulate/STIM_015.jpg
317.032	2.197	correct	regulate	Run1	regulate/STIM_015.jpg
322.671	2.807	correct	regulate	Run1	regulate/STIM_016.jpg
328.57	2.639	incorrect	regulate	Run1	regulate/STIM_016.jpg
334.036	2.25	correct	regulate	Run1	regulate/STIM_016.jpg
338.395	1.275	correct	regulate	Run1	regulate/STIM_016.jpg
342.377	2.92	correct	regulate	Run1	regulate/STIM_017.jpg
348.628	2.071	correct	regulate	Run1	regulate/STIM_017.jpg
353.931	1.609	correct	regulate	Run1	regulate/STIM_017.jpg
358.031	1.676	correct	regulate	Run1	regulate/STIM_017.jpg
362.997	2.703	incorrect	regulate	Run1	regulate/STIM_018.jpg
368.85	1.509	incorrect	regulate	Run1	regulate/STIM_018.jpg
372.823	1.176	correct	regulate	Run1	regulate/STIM_018.jpg
376.134	1.923	correct	regulate	Run1	regulate/STIM_018.jpg
381.164	2.429	correct	regulate	Run1	regulate/STIM_019.jpg
386.687	1.352	incorrect	regulate	Run1	regulate/STIM_019.jpg
390.471	1.325	correct	regulate	Run1	regulate/STIM_019.jpg
395.445	1.251	incorrect	regulate	Run1	regulate/STIM_019.jpg
399.938	1.968	incorrect	regulate	Run1	regulate/STIM_020.jpg
405.057	1.229	correct	regulate	Run1	regulate/STIM_020.jpg
410.189	1.821	incorrect	regulate	Run1	regulate/STIM_020.jpg
414.982	1.476	correct	regulate	Run1	regulate/STIM_020.jpg
420.389	2.114	correct	regulate	Run1	regulate/STIM_021.jpg
424.665	2.225	incorrect	regulate	Run1	regulate/STIM_021.jpg
429.327	1.772	correct	regulate	Run1	regulate/STIM_021.jpg
434.18	1.156	incorrect	regulate	Run1	regulate/STIM_021.jpg
437.823	2.697	incorrect	regulate	Run1	regulate/STIM_022.jpg
443.161	1.705	correct	regulate	Run1	regulate/STIM_022.jpg
448.065	2.403	correct	regulate	Run1	regulate/STIM_022.jpg
453.646	1.532	correct	regulate	Run1	regulate/STIM_022.jpg
458.427	2.936	correct	regulate	Run1	regulate/STIM_023.jpg
464.832	1.886	correct	regulate	Run1	regulate/STIM_023.jpg
469.98	1.767	incorrect	regulate	Run1	regulate/STIM_023.jpg
474.591	1.762	incorrect	regulate	Run1	regulate/STIM_023.jpg
479.898	1.342	correct	regulate	Run1	regulate/STIM_024.jpg
483.971	2.461	incorrect	regulate	Run1	regulate/STIM_024.jpg
489.153	2.094	incorrect	regulate	Run1	regulate/STIM_024.jpg
494.924	1.958	correct	regulate	Run1	regulate/STIM_024.jpg
499.391	1.719	incorrect	regulate	Run1	regulate/STIM_025.jpg
503.666	1.858	correct	regulate	Run1	regulate/STIM_025.jpg
509.265	2.437	incorrect	regulate	Run1	regulate/STIM_025.jpg
515.074	2.477	incorrect	regulate	Run1	regulate/STIM_025.jpg
520.359	1.79	correct	regulate	Run1	regulate/STIM_026.jpg
525.892	1.292	incorrect	regulate	Run1	regulate/STIM_026.jpg
530.307	1.68	incorrect	regulate	Run1	regulate/STIM_026.jpg
535.337	1.9	incorrect	regulate	Run1	regulate/STIM_026.jpg
540.677	2.106	correct	regulate	Run1	regulate/STIM_027.jpg
546.451	2.64	incorrect	regulate	Run1	regulate/STIM_027.jpg
552.539	1.882	correct	regulate	Run1	regulate/STIM_027.jpg
558.099	1.335	correct	regulate	Run1	regulate/STIM_027.jpg
562.771	2.336	correct	regulate	Run1	regulate/STIM_028.jpg
567.39	2.032	incorrect	regulate	Run1	regulate/STIM_028.jpg
572.741	1.454	correct	regulate	Run1	regulate/STIM_028.jpg
576.337	1.123	correct	regulate	Run1	regulate/STIM_028.jpg
579.834	1.372	correct	regulate	Run1	regulate/STIM_029.jpg
584.07	1.53	incorrect	regulate	Run1	regulate/STIM_029.jpg
587.947	2.166	incorrect	regulate	Run1	regulate/STIM_029.jpg
593.635	1.257	correct	regulate	Run1	regulate/STIM_029.jpg
597.987	1.06	correct	observe	Run1	observe/STIM_000.jpg
602.726	0.795	incorrect	observe	Run1	observe/STIM_000.jpg
605.924	1.127	correct	observe	Run1	observe/STIM_000.jpg
609.596	0.708	correct	observe	Run1	observe/STIM_000.jpg
612.695	0.979	correct	observe	Run1	observe/STIM_001.jpg
616.454	0.855	correct	observe	Run1	observe/STIM_001.jpg
621.137	1.088	correct	observe	Run1	observe/STIM_001.jpg
624.975	0.731	correct	observe	Run1	observe/STIM_001.jpg
628.812	0.786	incorrect	observe	Run1	observe/STIM_002.jpg
631.868	0.732	incorrect	observe	Run1	observe/STIM_002.jpg
634.794	0.874	correct	observe	Run1	observe/STIM_002.jpg
639.46	0.697	incorrect	observe	Run1	observe/STIM_002.jpg
643.629	1.221	incorrect	observe	Run1	observe/STIM_003.jpg
648.425	0.743	correct	observe	Run1	observe/STIM_003.jpg
651.929	0.868	correct	observe	Run1	observe/STIM_003.jpg
656.204	0.899	correct	observe	Run1	observe/STIM_003.jpg
659.865	0.794	correct	observe	Run1	observe/STIM_004.jpg
664.622	1.198	correct	observe	Run1	observe/STIM_004.jpg
667.995	0.792	incorrect	observe	Run1	observe/STIM_004.jpg
672.555	0.833	correct	observe	Run1	observe/STIM_004.jpg
677.076	1.206	correct	observe	Run1	observe/STIM_005.jpg
682.142	1.164	correct	observe	Run1	observe/STIM_005.jpg
685.398	0.677	correct	observe	Run1	observe/STIM_005.jpg
689.736	1.303	correct	observe	Run1	observe/STIM_005.jpg
693.371	0.677	correct	observe	Run1	observe/STIM_006.jpg
697.87	1.171	correct	observe	Run1	observe/STIM_006.jpg
702.078	0.971	incorrect	observe	Run1	observe/STIM_006.jpg
705.692	1.017	correct	observe	Run1	observe/STIM_006.jpg
708.998	1.291	correct	observe	Run1	observe/STIM_007.jpg
712.874	1.02	correct	observe	Run1	observe/STIM_007.jpg
716.293	1.13	correct	observe	Run1	observe/STIM_007.jpg
720.205	0.761	correct	observe	Run1	observe/STIM_007.jpg
724.655	1.266	correct	observe	Run1	observe/STIM_008.jpg
729.398	0.72	correct	observe	Run1	observe/STIM_008.jpg
733.941	1.199	incorrect	observe	Run1	observe/STIM_008.jpg
739.096	0.826	incorrect	observe	Run1	observe/STIM_008.jpg
743.465	1.139	incorrect	observe	Run1	observe/STIM_009.jpg
747.728	1.188	correct	observe	Run1	observe/STIM_009.jpg
750.968	0.939	correct	observe	Run1	observe/STIM_009.jpg
754.809	0.78	incorrect	observe	Run1	observe/STIM_009.jpg
758.686	0.725	correct	observe	Run1	observe/STIM_010.jpg
762.931	1.084	correct	observe	Run1	observe/STIM_010.jpg
766.543	0.795	correct	observe	Run1	observe/STIM_010.jpg
770.198	1.236	correct	observe	Run1	observe/STIM_010.jpg
773.657	1.311	correct	observe	Run1	observe/STIM_011.jpg
777.388	1.142	correct	observe	Run1	observe/STIM_011.jpg
780.973	0.961	correct	observe	Run1	observe/STIM_011.jpg
785.551	0.744	correct	observe	Run1	observe/STIM_011.jpg
788.77	1.203	correct	observe	Run1	observe/STIM_012.jpg
792.671	1.208	correct	observe	Run1	observe/STIM_012.jpg
795.972	0.678	incorrect	observe	Run1	observe/STIM_012.jpg
799.698	1.092	incorrect	observe	Run1	observe/STIM_012.jpg
804.257	1.266	incorrect	observe	Run1	observe/STIM_013.jpg
807.845	1.05	correct	observe	Run1	observe/STIM_013.jpg
812.678	1.074	correct	observe	Run1	observe/STIM_013.jpg
817.536	1.173	incorrect	observe	Run1	observe/STIM_013.jpg
821.868	0.822	incorrect	observe	Run1	observe/STIM_014.jpg
824.781	1.245	correct	observe	Run1	observe/STIM_014.jpg
829.103	1.322	correct	observe	Run1	observe/STIM_014.jpg
833.647	1.072	correct	observe	Run1	observe/STIM_014.jpg
837.568	1.043	correct	observe	Run1	observe/STIM_015.jpg
842.382	1.218	correct	observe	Run1	observe/STIM_015.jpg
846.34	0.883	incorrect	observe	Run1	observe/STIM_015.jpg
849.782	0.825	correct	observe	Run1	observe/STIM_015.jpg
854.263	0.714	correct	observe	Run1	observe/STIM_016.jpg
857.469	1.144	correct	observe	Run1	observe/STIM_016.jpg
860.98	0.991	correct	observe	Run1	observe/STIM_016.jpg
865.848	0.699	incorrect	observe	Run1	observe/STIM_016.jpg
870.137	1.181	correct	observe	Run1	observe/STIM_017.jpg
875.102	1.104	correct	observe	Run1	observe/STIM_017.jpg
879.953	1.188	correct	observe	Run1	observe/STIM_017.jpg
884.606	1.194	incorrect	observe	Run1	observe/STIM_017.jpg
888.358	1.163	incorrect	observe	Run1	observe/STIM_018.jpg
892.6	1.123	incorrect	observe	Run1	observe/STIM_018.jpg
897.426	1.054	correct	observe	Run1	observe/STIM_018.jpg
900.69	0.867	correct	observe	Run1	observe/STIM_018.jpg
904.552	1.12	correct	observe	Run1	observe/STIM_019.jpg
908.799	0.849	correct	observe	Run1	observe/STIM_019.jpg
913.127	1.147	correct	observe	Run1	observe/STIM_019.jpg
918.059	1.218	correct	observe	Run1	observe/STIM_019.jpg
922.066	1.601	incorrect	regulate	Run2	regulate/STIM_000.jpg
927.183	1.496	correct	regulate	Run2	regulate/STIM_000.jpg
930.99	1.665	correct	regulate	Run2	regulate/STIM_000.jpg
935.367	0.981	correct	regulate	Run2	regulate/STIM_000.jpg
939.488	1.12	correct	regulate	Run2	regulate/STIM_001.jpg
943.208	1.903	correct	regulate	Run2	regulate/STIM_001.jpg
948.105	2.11	correct	regulate	Run2	regulate/STIM_001.jpg
952.976	1.018	correct	regulate	Run2	regulate/STIM_001.jpg
957.105	2.194	correct	regulate	Run2	regulate/STIM_002.jpg
962.177	1.064	incorrect	regulate	Run2	regulate/STIM_002.jpg
965.772	1.683	incorrect	regulate	Run2	regulate/STIM_002.jpg
969.841	1.076	correct	regulate	Run2	regulate/STIM_002.jpg
973.098	1.704	correct	regulate	Run2	regulate/STIM_003.jpg
976.945	1.447	correct	regulate	Run2	regulate/STIM_003.jpg
981.594	1.408	correct	regulate	Run2	regulate/STIM_003.jpg
986.323	1.533	correct	regulate	Run2	regulate/STIM_003.jpg
990.707	1.168	incorrect	regulate	Run2	regulate/STIM_004.jpg
995.461	1.755	correct	regulate	Run2	regulate/STIM_004.jpg
1000.866	1.96	incorrect	regulate	Run2	regulate/STIM_004.jpg
1005.406	1.355	correct	regulate	Run2	regulate/STIM_004.jpg
1009.947	2.09	correct	regulate	Run2	regulate/STIM_005.jpg
1015.008	1.792	correct	regulate	Run2	regulate/STIM_005.jpg
1019.114	2.137	correct	regulate	Run2	regulate/STIM_005.jpg
1024.29	1.05	correct	regulate	Run2	regulate/STIM_005.jpg
1027.799	1.768	correct	regulate	Run2	regulate/STIM_006.jpg
1033.04	2.088	correct	regulate	Run2	regulate/STIM_006.jpg
1038.553	2.049	correct	regulate	Run2	regulate/STIM_006.jpg
1044.219	0.918	incorrect	regulate	Run2	regulate/STIM_006.jpg
1047.535	1.183	correct	regulate	Run2	regulate/STIM_007.jpg
1052.519	1.412	incorrect	regulate	Run2	regulate/STIM_007.jpg
1056.235	2.092	correct	regulate	Run2	regulate/STIM_007.jpg
1060.947	1.549	correct	regulate	Run2	regulate/STIM_007.jpg
1065.858	1.679	correct	regulate	Run2	regulate/STIM_008.jpg
1069.778	1.603	correct	regulate	Run2	regulate/STIM_008.jpg
1074.573	1.735	correct	regulate	Run2	regulate/STIM_008.jpg
1079.794	1.066	correct	regulate	Run2	regulate/STIM_008.jpg
1083.556	1.581	incorrect	regulate	Run2	regulate/STIM_009.jpg
1089.066	2.135	incorrect	regulate	Run2	regulate/STIM_009.jpg
1094.569	1.995	incorrect	regulate	Run2	regulate/STIM_009.jpg
1100.339	1.544	correct	regulate	Run2	regulate/STIM_009.jpg
1105.754	2.425	correct	regulate	Run2	regulate/STIM_010.jpg
1111.732	1.902	correct	regulate	Run2	regulate/STIM_010.jpg
1116.567	1.468	correct	regulate	Run2	regulate/STIM_010.jpg
1120.175	1.851	correct	regulate	Run2	regulate/STIM_010.jpg
1124.796	1.801	correct	regulate	Run2	regulate/STIM_011.jpg
1129.58	1.385	correct	regulate	Run2	regulate/STIM_011.jpg
1133.552	1.354	correct	regulate	Run2	regulate/STIM_011.jpg
1137.478	1.016	correct	regulate	Run2	regulate/STIM_011.jpg
1142.123	2.185	correct	regulate	Run2	regulate/STIM_012.jpg
1146.787	1.934	correct	regulate	Run2	regulate/STIM_012.jpg
1152.537	1.612	correct	regulate	Run2	regulate/STIM_012.jpg
1157.914	1.263	incorrect	regulate	Run2	regulate/STIM_012.jpg
1161.625	1.195	correct	regulate	Run2	regulate/STIM_013.jpg
1165.896	1.094	correct	regulate	Run2	regulate/STIM_013.jpg
1170.376	1.447	incorrect	regulate	Run2	regulate/STIM_013.jpg
1174.1	1.429	correct	regulate	Run2	regulate/STIM_013.jpg
1178.705	2.354	correct	regulate	Run2	regulate/STIM_014.jpg
1183.911	1.583	correct	regulate	Run2	regulate/STIM_014.jpg
1188.515	1.62	correct	regulate	Run2	regulate/STIM_014.jpg
1193.048	0.909	correct	regulate	Run2	regulate/STIM_014.jpg
1197.218	1.419	correct	regulate	Run2	regulate/STIM_015.jpg
1202.201	1.126	correct	regulate	Run2	regulate/STIM_015.jpg
1205.881	1.099	correct	regulate	Run2	regulate/STIM_015.jpg
1209.517	1.284	correct	regulate	Run2	regulate/STIM_015.jpg
1214.244	2.02	correct	regulate	Run2	regulate/STIM_016.jpg
1219.919	1.747	correct	regulate	Run2	regulate/STIM_016.jpg
1224.463	1.153	incorrect	regulate	Run2	regulate/STIM_016.jpg
1229.018	1.985	correct	regulate	Run2	regulate/STIM_016.jpg
1234.129	2.175	incorrect	regulate	Run2	regulate/STIM_017.jpg
1239.696	1.487	incorrect	regulate	Run2	regulate/STIM_017.jpg
1243.966	1.779	incorrect	regulate	Run2	regulate/STIM_017.jpg
1249.145	1.08	correct	regulate	Run2	regulate/STIM_017.jpg
1253.777	1.802	correct	regulate	Run2	regulate/STIM_018.jpg
1259.354	2.175	correct	regulate	Run2	regulate/STIM_018.jpg
1264.657	1.028	correct	regulate	Run2	regulate/STIM_018.jpg
1269.269	2.027	correct	regulate	Run2	regulate/STIM_018.jpg
1274.018	2.391	correct	regulate	Run2	regulate/STIM_019.jpg
1279.759	2.088	correct	regulate	Run2	regulate/STIM_019.jpg
1284.852	2.143	incorrect	regulate	Run2	regulate/STIM_019.jpg
1289.012	1.836	correct	regulate	Run2	regulate/STIM_019.jpg
1292.93	2.495	correct	regulate	Run2	regulate/STIM_020.jpg
1297.704	1.9	correct	regulate	Run2	regulate/STIM_020.jpg
1301.698	1.599	correct	regulate	Run2	regulate/STIM_020.jpg
1306.303	1.842	incorrect	regulate	Run2	regulate/STIM_020.jpg
1311.794	1.923	correct	regulate	Run2	regulate/STIM_021.jpg
1317.006	2.074	correct	regulate	Run2	regulate/STIM_021.jpg
1321.61	1.034	correct	regulate	Run2	regulate/STIM_021.jpg
1326.64	1.083	correct	regulate	Run2	regulate/STIM_021.jpg
1331.179	1.182	correct	regulate	Run2	regulate/STIM_022.jpg
1334.865	1.515	incorrect	regulate	Run2	regulate/STIM_022.jpg
1340.073	1.542	incorrect	regulate	Run2	regulate/STIM_022.jpg
1345.22	0.9	incorrect	regulate	Run2	regulate/STIM_022.jpg
1348.667	1.176	correct	regulate	Run2	regulate/STIM_023.jpg
1353.605	1.57	correct	regulate	Run2	regulate/STIM_023.jpg
1358.224	1.931	correct	regulate	Run2	regulate/STIM_023.jpg
1363.922	1.332	incorrect	regulate	Run2	regulate/STIM_023.jpg
1368.752	1.118	correct	regulate	Run2	regulate/STIM_024.jpg
1371.936	2.343	correct	regulate	Run2	regulate/STIM_024.jpg
1376.468	2.123	incorrect	regulate	Run2	regulate/STIM_024.jpg
1382.269	1.848	correct	regulate	Run2	regulate/STIM_024.jpg
1386.43	1.486	incorrect	regulate	Run2	regulate/STIM_025.jpg
1390.608	1.75	incorrect	regulate	Run2	regulate/STIM_025.jpg
1396.157	1.58	correct	regulate	Run2	regulate/STIM_025.jpg
1400.136	1.862	correct	regulate	Run2	regulate/STIM_025.jpg
1404.993	2.118	correct	regulate	Run2	regulate/STIM_026.jpg
1410.268	1.299	correct	regulate	Run2	regulate/STIM_026.jpg
1414.47	2.213	incorrect	regulate	Run2	regulate/STIM_026.jpg
1419.958	1.787	correct	regulate	Run2	regulate/STIM_026.jpg
1425.608	1.122	correct	regulate	Run2	regulate/STIM_027.jpg
1429.02	1.709	incorrect	regulate	Run2	regulate/STIM_027.jpg
1433.132	1.759	correct	regulate	Run2	regulate/STIM_027.jpg
1438.161	1.368	incorrect	regulate	Run2	regulate/STIM_027.jpg
1443.497	1.943	correct	regulate	Run2	regulate/STIM_028.jpg
1448.694	1.501	correct	regulate	Run2	regulate/STIM_028.jpg
1452.557	1.834	correct	regulate	Run2	regulate/STIM_028.jpg
1458.118	1.816	correct	regulate	Run2	regulate/STIM_028.jpg
1462.129	2.015	incorrect	regulate	Run2	regulate/STIM_029.jpg
1467.972	1.273	correct	regulate	Run2	regulate/STIM_029.jpg
1471.781	2.074	correct	regulate	Run2	regulate/STIM_029.jpg
1476.516	0.965	correct	regulate	Run2	regulate/STIM_029.jpg
1481.136	1.168	correct	observe	Run2	observe/STIM_000.jpg
1485.702	1.13	incorrect	observe	Run2	observe/STIM_000.jpg
1490.267	0.826	correct	observe	Run2	observe/STIM_000.jpg
1494.21	0.901	correct	observe	Run2	observe/STIM_000.jpg
1498.767	0.767	incorrect	observe	Run2	observe/STIM_001.jpg
1502.714	0.937	incorrect	observe	Run2	observe/STIM_001.jpg
1507.161	1.17	correct	observe	Run2	observe/STIM_001.jpg
1511.34	1.176	incorrect	observe	Run2	observe/STIM_001.jpg
1515.202	0.88	correct	observe	Run2	observe/STIM_002.jpg
1518.976	1.292	correct	observe	Run2	observe/STIM_002.jpg
1522.274	1.195	incorrect	observe	Run2	observe/STIM_002.jpg
1526.137	1.286	correct	observe	Run2	observe/STIM_002.jpg
1531.071	1.0	incorrect	observe	Run2	observe/STIM_003.jpg
1535.515	0.776	correct	observe	Run2	observe/STIM_003.jpg
1538.808	0.822	correct	observe	Run2	observe/STIM_003.jpg
1542.405	0.857	correct	observe	Run2	observe/STIM_003.jpg
1546.457	1.074	incorrect	observe	Run2	observe/STIM_004.jpg
1551.169	0.679	correct	observe	Run2	observe/STIM_004.jpg
1553.944	1.349	correct	observe	Run2	observe/STIM_004.jpg
1558.271	1.263	incorrect	observe	Run2	observe/STIM_004.jpg
1561.941	0.717	correct	observe	Run2	observe/STIM_005.jpg
1566.533	1.125	correct	observe	Run2	observe/STIM_005.jpg
1570.261	0.929	correct	observe	Run2	observe/STIM_005.jpg
1573.373	1.07	incorrect	observe	Run2	observe/STIM_005.jpg
1576.497	0.971	correct	observe	Run2	observe/STIM_006.jpg
1581.351	0.714	incorrect	observe	Run2	observe/STIM_006.jpg
1584.776	0.715	correct	observe	Run2	observe/STIM_006.jpg
1588.525	0.741	correct	observe	Run2	observe/STIM_006.jpg
1592.01	1.112	correct	observe	Run2	observe/STIM_007.jpg
1595.57	1.068	correct	observe	Run2	observe/STIM_007.jpg
1599.654	1.235	correct	observe	Run2	observe/STIM_007.jpg
1603.946	1.257	correct	observe	Run2	observe/STIM_007.jpg
1608.389	1.177	correct	observe	Run2	observe/STIM_008.jpg
1613.446	0.928	correct	observe	Run2	observe/STIM_008.jpg
1616.738	0.706	incorrect	observe	Run2	observe/STIM_008.jpg
1620.58	0.923	correct	observe	Run2	observe/STIM_008.jpg
1625.494	1.074	incorrect	observe	Run2	observe/STIM_009.jpg
1630.013	0.981	correct	observe	Run2	observe/STIM_009.jpg
1634.079	0.795	correct	observe	Run2	observe/STIM_009.jpg
1637.53	1.169	correct	observe	Run2	observe/STIM_009.jpg
1641.831	1.181	correct	observe	Run2	observe/STIM_010.jpg
1646.64	1.22	correct	observe	Run2	observe/STIM_010.jpg
1650.787	0.964	incorrect	observe	Run2	observe/STIM_010.jpg
1653.839	0.866	incorrect	observe	Run2	observe/STIM_010.jpg
1658.131	0.755	correct	observe	Run2	observe/STIM_011.jpg
1662.83	1.033	correct	observe	Run2	observe/STIM_011.jpg
1667.257	0.847	correct	observe	Run2	observe/STIM_011.jpg
1670.487	1.194	correct	observe	Run2	observe/STIM_011.jpg
1674.092	0.952	correct	observe	Run2	observe/STIM_012.jpg
1678.656	1.18	correct	observe	Run2	observe/STIM_012.jpg
1683.814	0.779	correct	observe	Run2	observe/STIM_012.jpg
1687.815	0.679	incorrect	observe	Run2	observe/STIM_012.jpg
1690.668	0.718	incorrect	observe	Run2	observe/STIM_013.jpg
1693.821	1.193	correct	observe	Run2	observe/STIM_013.jpg
1698.741	0.743	incorrect	observe	Run2	observe/STIM_013.jpg
1702.301	0.97	correct	observe	Run2	observe/STIM_013.jpg
1705.922	0.846	correct	observe	Run2	observe/STIM_014.jpg
1709.238	1.135	correct	observe	Run2	observe/STIM_014.jpg
1713.091	0.924	correct	observe	Run2	observe/STIM_014.jpg
1716.96	1.264	correct	observe	Run2	observe/STIM_014.jpg
1721.615	1.004	correct	observe	Run2	observe/STIM_015.jpg
1726.132	1.18	correct	observe	Run2	observe/STIM_015.jpg
1730.229	1.198	correct	observe	Run2	observe/STIM_015.jpg
1734.606	1.202	correct	observe	Run2	observe/STIM_015.jpg
1738.58	0.832	correct	observe	Run2	observe/STIM_016.jpg
1742.784	1.326	correct	observe	Run2	observe/STIM_016.jpg
1747.646	0.855	correct	observe	Run2	observe/STIM_016.jpg
1751.768	0.918	correct	observe	Run2	observe/STIM_016.jpg
1755.542	0.763	correct	observe	Run2	observe/STIM_017.jpg
1760.018	1.13	correct	observe	Run2	observe/STIM_017.jpg
1764.154	0.853	incorrect	observe	Run2	observe/STIM_017.jpg
1768.056	0.687	correct	observe	Run2	observe/STIM_017.jpg
1772.064	1.303	incorrect	observe	Run2	observe/STIM_018.jpg
1775.554	0.893	correct	observe	Run2	observe/STIM_018.jpg
1778.577	1.168	correct	observe	Run2	observe/STIM_018.jpg
1783.729	0.967	correct	observe	Run2	observe/STIM_018.jpg
1787.811	1.348	correct	observe	Run2	observe/STIM_019.jpg
1792.541	0.982	correct	observe	Run2	observe/STIM_019.jpg
1796.672	1.004	incorrect	observe	Run2	observe/STIM_019.jpg
1801.622	1.059	correct	observe	Run2	observe/STIM_019.jpg
1806.585	1.637	correct	regulate	Run3	regulate/STIM_000.jpg
1812.072	1.447	correct	regulate	Run3	regulate/STIM_000.jpg
1816.173	1.803	correct	regulate	Run3	regulate/STIM_000.jpg
1820.512	1.615	correct	regulate	Run3	regulate/STIM_000.jpg
1825.086	1.697	correct	regulate	Run3	regulate/STIM_001.jpg
1828.886	1.888	correct	regulate	Run3	regulate/STIM_001.jpg
1834.686	2.033	correct	regulate	Run3	regulate/STIM_001.jpg
1838.758	1.522	correct	regulate	Run3	regulate/STIM_001.jpg
1842.314	1.779	incorrect	regulate	Run3	regulate/STIM_002.jpg
1846.683	1.738	correct	regulate	Run3	regulate/STIM_002.jpg
1851.339	1.328	correct	regulate	Run3	regulate/STIM_002.jpg
1856.344	1.57	correct	regulate	Run3	regulate/STIM_002.jpg
1860.518	1.879	incorrect	regulate	Run3	regulate/STIM_003.jpg
1865.199	1.005	correct	regulate	Run3	regulate/STIM_003.jpg
1870.065	1.979	correct	regulate	Run3	regulate/STIM_003.jpg
1875.801	1.266	correct	regulate	Run3	regulate/STIM_003.jpg
1880.589	0.988	incorrect	regulate	Run3	regulate/STIM_004.jpg
1885.413	1.714	correct	regulate	Run3	regulate/STIM_004.jpg
1889.28	1.561	correct	regulate	Run3	regulate/STIM_004.jpg
1893.847	2.001	correct	regulate	Run3	regulate/STIM_004.jpg
1899.152	1.497	incorrect	regulate	Run3	regulate/STIM_005.jpg
1902.96	1.198	correct	regulate	Run3	regulate/STIM_005.jpg
1907.453	0.947	correct	regulate	Run3	regulate/STIM_005.jpg
1911.43	1.018	correct	regulate	Run3	regulate/STIM_005.jpg
1914.875	2.059	correct	regulate	Run3	regulate/STIM_006.jpg
1920.038	1.072	correct	regulate	Run3	regulate/STIM_006.jpg
1923.376	1.329	correct	regulate	Run3	regulate/STIM_006.jpg
1927.205	1.398	incorrect	regulate	Run3	regulate/STIM_006.jpg
1930.836	0.964	correct	regulate	Run3	regulate/STIM_007.jpg
1935.418	1.719	correct	regulate	Run3	regulate/STIM_007.jpg
1940.963	1.47	incorrect	regulate	Run3	regulate/STIM_007.jpg
1945.547	1.06	correct	regulate	Run3	regulate/STIM_007.jpg
1948.826	1.513	incorrect	regulate	Run3	regulate/STIM_008.jpg
1952.702	1.446	correct	regulate	Run3	regulate/STIM_008.jpg
1957.014	0.925	correct	regulate	Run3	regulate/STIM_008.jpg
1961.463	2.049	correct	regulate	Run3	regulate/STIM_008.jpg
1966.882	1.252	correct	regulate	Run3	regulate/STIM_009.jpg
1972.12	1.848	correct	regulate	Run3	regulate/STIM_009.jpg
1977.279	0.976	incorrect	regulate	Run3	regulate/STIM_009.jpg
1981.435	0.904	correct	regulate	Run3	regulate/STIM_009.jpg
1984.392	2.037	correct	regulate	Run3	regulate/STIM_010.jpg
1989.769	1.863	correct	regulate	Run3	regulate/STIM_010.jpg
1994.765	1.46	incorrect	regulate	Run3	regulate/STIM_010.jpg
1999.94	1.506	correct	regulate	Run3	regulate/STIM_010.jpg
2003.567	1.032	correct	regulate	Run3	regulate/STIM_011.jpg
2008.119	1.67	correct	regulate	Run3	regulate/STIM_011.jpg
2012.37	1.152	correct	regulate	Run3	regulate/STIM_011.jpg
2016.868	2.011	correct	regulate	Run3	regulate/STIM_011.jpg
2021.989	1.389	correct	regulate	Run3	regulate/STIM_012.jpg
2026.721	2.064	correct	regulate	Run3	regulate/STIM_012.jpg
2031.205	1.706	correct	regulate	Run3	regulate/STIM_012.jpg
2036.724	1.679	correct	regulate	Run3	regulate/STIM_012.jpg
2041.148	1.202	correct	regulate	Run3	regulate/STIM_013.jpg
2044.699	1.675	correct	regulate	Run3	regulate/STIM_013.jpg
2049.436	1.146	incorrect	regulate	Run3	regulate/STIM_013.jpg
2053.651	0.909	correct	regulate	Run3	regulate/STIM_013.jpg
2056.78	1.813	incorrect	regulate	Run3	regulate/STIM_014.jpg
2062.468	1.008	correct	regulate	Run3	regulate/STIM_014.jpg
2065.769	0.974	correct	regulate	Run3	regulate/STIM_014.jpg
2068.971	1.972	correct	regulate	Run3	regulate/STIM_014.jpg
2073.356	1.818	correct	regulate	Run3	regulate/STIM_015.jpg
2079.042	1.673	correct	regulate	Run3	regulate/STIM_015.jpg
2083.704	1.367	correct	regulate	Run3	regulate/STIM_015.jpg
2088.347	1.404	correct	regulate	Run3	regulate/STIM_015.jpg
2092.447	1.795	correct	regulate	Run3	regulate/STIM_016.jpg
2097.134	1.79	correct	regulate	Run3	regulate/STIM_016.jpg
2102.344	1.39	correct	regulate	Run3	regulate/STIM_016.jpg
2106.793	1.657	correct	regulate	Run3	regulate/STIM_016.jpg
2112.167	1.95	correct	regulate	Run3	regulate/STIM_017.jpg
2117.234	1.785	correct	regulate	Run3	regulate/STIM_017.jpg
2122.4	1.248	correct	regulate	Run3	regulate/STIM_017.jpg
2127.335	1.9	correct	regulate	Run3	regulate/STIM_017.jpg
2133.035	1.797	correct	regulate	Run3	regulate/STIM_018.jpg
2137.511	1.058	correct	regulate	Run3	regulate/STIM_018.jpg
2141.2	2.052	correct	regulate	Run3	regulate/STIM_018.jpg
2145.343	1.466	correct	regulate	Run3	regulate/STIM_018.jpg
2149.288	1.904	correct	regulate	Run3	regulate/STIM_019.jpg
2153.744	0.989	correct	regulate	Run3	regulate/STIM_019.jpg
2158.622	1.262	correct	regulate	Run3	regulate/STIM_019.jpg
2162.45	0.893	correct	regulate	Run3	regulate/STIM_019.jpg
2166.52	1.851	correct	regulate	Run3	regulate/STIM_020.jpg
2171.138	0.963	correct	regulate	Run3	regulate/STIM_020.jpg
2175.572	1.07	correct	regulate	Run3	regulate/STIM_020.jpg
2179.468	0.945	correct	regulate	Run3	regulate/STIM_020.jpg
2184.342	1.037	correct	regulate	Run3	regulate/STIM_021.jpg
2189.345	1.214	correct	regulate	Run3	regulate/STIM_021.jpg
2193.569	1.776	correct	regulate	Run3	regulate/STIM_021.jpg
2197.628	1.331	correct	regulate	Run3	regulate/STIM_021.jpg
2201.489	2.008	correct	regulate	Run3	regulate/STIM_022.jpg
2206.906	1.862	correct	regulate	Run3	regulate/STIM_022.jpg
2212.467	1.65	correct	regulate	Run3	regulate/STIM_022.jpg
2216.235	0.991	correct	regulate	Run3	regulate/STIM_022.jpg
2220.642	1.988	correct	regulate	Run3	regulate/STIM_023.jpg
2225.503	1.94	correct	regulate	Run3	regulate/STIM_023.jpg
2230.875	1.699	correct	regulate	Run3	regulate/STIM_023.jpg
2235.674	1.669	correct	regulate	Run3	regulate/STIM_023.jpg
2239.929	1.197	correct	regulate	Run3	regulate/STIM_024.jpg
2244.506	1.728	incorrect	regulate	Run3	regulate/STIM_024.jpg
2249.912	1.316	incorrect	regulate	Run3	regulate/STIM_024.jpg
2254.85	0.922	correct	regulate	Run3	regulate/STIM_024.jpg
2259.399	1.882	correct	regulate	Run3	regulate/STIM_025.jpg
2264.603	1.506	correct	regulate	Run3	regulate/STIM_025.jpg
2269.329	1.851	correct	regulate	Run3	regulate/STIM_025.jpg
2274.773	0.999	correct	regulate	Run3	regulate/STIM_025.jpg
2279.099	1.336	correct	regulate	Run3	regulate/STIM_026.jpg
2282.972	1.702	correct	regulate	Run3	regulate/STIM_026.jpg
2288.142	1.947	correct	regulate	Run3	regulate/STIM_026.jpg
2293.295	0.954	correct	regulate	Run3	regulate/STIM_026.jpg
2298.001	1.098	correct	regulate	Run3	regulate/STIM_027.jpg
2302.489	1.943	incorrect	regulate	Run3	regulate/STIM_027.jpg
2306.938	1.396	correct	regulate	Run3	regulate/STIM_027.jpg
2311.989	1.564	correct	regulate	Run3	regulate/STIM_027.jpg
2317.51	1.643	correct	regulate	Run3	regulate/STIM_028.jpg
2321.194	1.809	correct	regulate	Run3	regulate/STIM_028.jpg
2326.439	1.266	correct	regulate	Run3	regulate/STIM_028.jpg
2330.034	1.596	incorrect	regulate	Run3	regulate/STIM_028.jpg
2335.101	1.261	incorrect	regulate	Run3	regulate/STIM_029.jpg
2339.419	1.778	incorrect	regulate	Run3	regulate/STIM_029.jpg
2343.935	1.685	correct	regulate	Run3	regulate/STIM_029.jpg
2348.559	1.09	correct	regulate	Run3	regulate/STIM_029.jpg
2352.252	0.769	correct	observe	Run3	observe/STIM_000.jpg
2355.496	0.926	correct	observe	Run3	observe/STIM_000.jpg
2360.039	0.706	correct	observe	Run3	observe/STIM_000.jpg
2363.345	0.844	correct	observe	Run3	observe/STIM_000.jpg
2367.595	0.782	correct	observe	Run3	observe/STIM_001.jpg
2370.391	1.026	incorrect	observe	Run3	observe/STIM_001.jpg
2375.358	0.866	correct	observe	Run3	observe/STIM_001.jpg
2379.778	1.122	correct	observe	Run3	observe/STIM_001.jpg
2384.457	0.718	correct	observe	Run3	observe/STIM_002.jpg
2388.742	1.243	correct	observe	Run3	observe/STIM_002.jpg
2392.841	0.879	correct	observe	Run3	observe/STIM_002.jpg
2397.065	1.26	incorrect	observe	Run3	observe/STIM_002.jpg
2401.589	0.842	correct	observe	Run3	observe/STIM_003.jpg
2404.778	0.873	incorrect	observe	Run3	observe/STIM_003.jpg
2409.127	0.872	correct	observe	Run3	observe/STIM_003.jpg
2413.915	0.866	incorrect	observe	Run3	observe/STIM_003.jpg
2417.324	1.25	incorrect	observe	Run3	observe/STIM_004.jpg
2421.959	1.348	correct	observe	Run3	observe/STIM_004.jpg
2426.511	0.902	incorrect	observe	Run3	observe/STIM_004.jpg
2429.898	0.92	incorrect	observe	Run3	observe/STIM_004.jpg
2433.315	1.229	correct	observe	Run3	observe/STIM_005.jpg
2436.86	0.86	correct	observe	Run3	observe/STIM_005.jpg
2439.729	0.898	incorrect	observe	Run3	observe/STIM_005.jpg
2444.6	1.073	correct	observe	Run3	observe/STIM_005.jpg
2448.187	0.694	incorrect	observe	Run3	observe/STIM_006.jpg
2452.097	1.287	correct	observe	Run3	observe/STIM_006.jpg
2455.629	1.139	incorrect	observe	Run3	observe/STIM_006.jpg
2459.444	1.128	incorrect	observe	Run3	observe/STIM_006.jpg
2463.424	1.134	correct	observe	Run3	observe/STIM_007.jpg
2467.025	1.028	incorrect	observe	Run3	observe/STIM_007.jpg
2471.854	0.68	correct	observe	Run3	observe/STIM_007.jpg
2474.931	1.177	correct	observe	Run3	observe/STIM_007.jpg
2479.886	0.99	correct	observe	Run3	observe/STIM_008.jpg
2482.921	1.186	correct	observe	Run3	observe/STIM_008.jpg
2486.834	1.287	correct	observe	Run3	observe/STIM_008.jpg
2491.379	1.005	correct	observe	Run3	observe/STIM_008.jpg
2495.109	1.067	correct	observe	Run3	observe/STIM_009.jpg
2499.482	0.683	correct	observe	Run3	observe/STIM_009.jpg
2503.304	1.231	correct	observe	Run3	observe/STIM_009.jpg
2507.354	0.716	incorrect	observe	Run3	observe/STIM_009.jpg
2512.011	1.249	correct	observe	Run3	observe/STIM_010.jpg
2515.62	0.769	correct	observe	Run3	observe/STIM_010.jpg
2518.715	1.249	correct	observe	Run3	observe/STIM_010.jpg
2523.67	1.121	correct	observe	Run3	observe/STIM_010.jpg
2527.397	1.018	correct	observe	Run3	observe/STIM_011.jpg
2531.132	0.918	incorrect	observe	Run3	observe/STIM_011.jpg
2535.339	1.011	correct	observe	Run3	observe/STIM_011.jpg
2539.453	0.736	correct	observe	Run3	observe/STIM_011.jpg
2543.991	1.243	correct	observe	Run3	observe/STIM_012.jpg
2548.97	0.927	correct	observe	Run3	observe/STIM_012.jpg
2553.445	1.061	incorrect	observe	Run3	observe/STIM_012.jpg
2556.602	0.957	correct	observe	Run3	observe/STIM_012.jpg
2560.854	0.863	correct	observe	Run3	observe/STIM_013.jpg
2565.119	1.176	correct	observe	Run3	observe/STIM_013.jpg
2569.773	1.275	correct	observe	Run3	observe/STIM_013.jpg
2574.948	0.83	correct	observe	Run3	observe/STIM_013.jpg
2578.132	0.754	correct	observe	Run3	observe/STIM_014.jpg
2582.108	1.225	correct	observe	Run3	observe/STIM_014.jpg
2586.993	0.892	correct	observe	Run3	observe/STIM_014.jpg
2591.674	1.253	correct	observe	Run3	observe/STIM_014.jpg
2595.733	1.084	correct	observe	Run3	observe/STIM_015.jpg
2600.304	1.235	correct	observe	Run3	observe/STIM_015.jpg
2603.578	0.698	correct	observe	Run3	observe/STIM_015.jpg
2608.035	1.248	correct	observe	Run3	observe/STIM_015.jpg
2612.392	0.81	correct	observe	Run3	observe/STIM_016.jpg
2615.64	1.351	correct	observe	Run3	observe/STIM_016.jpg
2620.984	1.233	correct	observe	Run3	observe/STIM_016.jpg
2624.739	1.128	correct	observe	Run3	observe/STIM_016.jpg
2629.257	1.216	incorrect	observe	Run3	observe/STIM_017.jpg
2633.874	0.976	correct	observe	Run3	observe/STIM_017.jpg
2637.841	1.122	correct	observe	Run3	observe/STIM_017.jpg
2641.954	1.24	correct	observe	Run3	observe/STIM_017.jpg
2647.006	0.927	correct	observe	Run3	observe/STIM_018.jpg
2651.749	0.965	incorrect	observe	Run3	observe/STIM_018.jpg
2655.931	0.976	correct	observe	Run3	observe/STIM_018.jpg
2660.234	1.095	correct	observe	Run3	observe/STIM_018.jpg
2665.264	0.958	correct	observe	Run3	observe/STIM_019.jpg
2669.39	1.093	correct	observe	Run3	observe/STIM_019.jpg
2673.406	0.828	correct	observe	Run3	observe/STIM_019.jpg
2677.968	1.121	correct	observe	Run3	observe/STIM_019.jpg
