onset	duration	response_time_ms	trial_type	learning_stage	stimulus	response_port
0.0	1.567	1566.6	incongruent	Block1	incongruent/STIM_000.jpg	99
4.252	1.117	1117.0	incongruent	Block1	incongruent/STIM_000.jpg	99
8.604	1.539	1539.0	incongruent	Block1	incongruent/STIM_000.jpg	99
13.454	0.72	719.6	incongruent	Block1	incongruent/STIM_000.jpg	100
17.683	1.093	1093.0	incongruent	Block1	incongruent/STIM_000.jpg	99
22.385	1.371	1371.1	incongruent	Block1	incongruent/STIM_001.jpg	100
26.415	1.246	1246.5	incongruent	Block1	incongruent/STIM_001.jpg	99
30.821	1.401	1401.0	incongruent	Block1	incongruent/STIM_001.jpg	99
35.115	1.213	1212.7	incongruent	Block1	incongruent/STIM_001.jpg	99
39.335	1.257	1256.6	incongruent	Block1	incongruent/STIM_001.jpg	99
43.415	0.828	828.3	incongruent	Block1	incongruent/STIM_002.jpg	100
47.518	1.507	1507.1	incongruent	Block1	incongruent/STIM_002.jpg	100
52.839	0.728	727.7	incongruent	Block1	incongruent/STIM_002.jpg	100
55.587	0.862	861.5	incongruent	Block1	incongruent/STIM_002.jpg	99
59.28	0.866	865.9	incongruent	Block1	incongruent/STIM_002.jpg	99
63.573	1.117	1116.8	incongruent	Block1	incongruent/STIM_003.jpg	99
67.319	0.902	901.8	incongruent	Block1	incongruent/STIM_003.jpg	100
71.311	1.528	1527.6	incongruent	Block1	incongruent/STIM_003.jpg	99
76.71	0.862	862.1	incongruent	Block1	incongruent/STIM_003.jpg	99
81.276	0.806	806.5	incongruent	Block1	incongruent/STIM_003.jpg	100
84.472	1.488	1488.3	incongruent	Block1	incongruent/STIM_004.jpg	100
89.174	1.622	1621.5	incongruent	Block1	incongruent/STIM_004.jpg	99
94.064	0.959	959.4	incongruent	Block1	incongruent/STIM_004.jpg	99
98.062	1.267	1267.0	incongruent	Block1	incongruent/STIM_004.jpg	100
101.786	0.733	733.2	incongruent	Block1	incongruent/STIM_004.jpg	99
105.594	1.466	1465.5	incongruent	Block1	incongruent/STIM_005.jpg	99
110.994	0.811	811.4	incongruent	Block1	incongruent/STIM_005.jpg	99
115.33	0.771	771.4	incongruent	Block1	incongruent/STIM_005.jpg	99
118.22	1.208	1207.7	incongruent	Block1	incongruent/STIM_005.jpg	100
122.973	0.883	883.2	incongruent	Block1	incongruent/STIM_005.jpg	99
126.611	1.434	1434.5	incongruent	Block1	incongruent/STIM_006.jpg	100
130.713	1.01	1009.7	incongruent	Block1	incongruent/STIM_006.jpg	100
134.392	0.857	856.8	incongruent	Block1	incongruent/STIM_006.jpg	100
138.983	1.051	1050.7	incongruent	Block1	incongruent/STIM_006.jpg	100
142.331	0.788	788.1	incongruent	Block1	incongruent/STIM_006.jpg	100
146.367	1.46	1459.8	incongruent	Block1	incongruent/STIM_007.jpg	100
150.191	1.361	1361.1	incongruent	Block1	incongruent/STIM_007.jpg	99
154.534	0.988	988.0	incongruent	Block1	incongruent/STIM_007.jpg	99
158.892	0.87	870.0	incongruent	Block1	incongruent/STIM_007.jpg	99
162.789	0.886	886.0	incongruent	Block1	incongruent/STIM_007.jpg	100
167.01	1.254	1253.5	incongruent	Block1	incongruent/STIM_008.jpg	99
170.727	1.18	1180.5	incongruent	Block1	incongruent/STIM_008.jpg	99
174.771	1.065	1064.8	incongruent	Block1	incongruent/STIM_008.jpg	100
179.743	1.194	1194.1	incongruent	Block1	incongruent/STIM_008.jpg	99
184.126	1.199	1198.7	incongruent	Block1	incongruent/STIM_008.jpg	100
188.635	1.206	1206.1	incongruent	Block1	incongruent/STIM_009.jpg	99
193.829	1.045	1044.8	incongruent	Block1	incongruent/STIM_009.jpg	99
197.581	0.893	893.1	incongruent	Block1	incongruent/STIM_009.jpg	99
200.536	1.391	1391.3	incongruent	Block1	incongruent/STIM_009.jpg	100
205.926	0.849	848.6	incongruent	Block1	incongruent/STIM_009.jpg	99
210.373	0.898	898.0	incongruent	Block1	incongruent/STIM_010.jpg	99
213.384	0.983	983.0	incongruent	Block1	incongruent/STIM_010.jpg	100
216.722	1.333	1333.2	incongruent	Block1	incongruent/STIM_010.jpg	100
220.669	0.737	737.2	incongruent	Block1	incongruent/STIM_010.jpg	99
225.346	1.332	1332.3	incongruent	Block1	incongruent/STIM_010.jpg	99
228.816	1.099	1099.3	incongruent	Block1	incongruent/STIM_011.jpg	100
233.002	1.06	1059.8	incongruent	Block1	incongruent/STIM_011.jpg	99
237.342	1.039	1039.4	incongruent	Block1	incongruent/STIM_011.jpg	99
240.578	1.139	1139.0	incongruent	Block1	incongruent/STIM_011.jpg	100
245.342	1.187	1187.1	incongruent	Block1	incongruent/STIM_011.jpg	100
249.842	0.808	808.3	incongruent	Block1	incongruent/STIM_012.jpg	100
252.906	0.829	829.1	incongruent	Block1	incongruent/STIM_012.jpg	100
256.82	1.352	1351.5	incongruent	Block1	incongruent/STIM_012.jpg	100
262.137	0.698	698.1	incongruent	Block1	incongruent/STIM_012.jpg	100
266.168	0.929	929.2	incongruent	Block1	incongruent/STIM_012.jpg	99
269.339	1.048	1048.2	incongruent	Block1	incongruent/STIM_013.jpg	100
273.665	1.25	1250.2	incongruent	Block1	incongruent/STIM_013.jpg	99
277.649	1.331	1331.3	incongruent	Block1	incongruent/STIM_013.jpg	99
282.531	1.402	1402.3	incongruent	Block1	incongruent/STIM_013.jpg	99
286.647	1.319	1318.9	incongruent	Block1	incongruent/STIM_013.jpg	99
290.854	1.252	1252.0	incongruent	Block1	incongruent/STIM_014.jpg	99
294.232	1.179	1179.4	incongruent	Block1	incongruent/STIM_014.jpg	99
297.577	0.924	923.9	incongruent	Block1	incongruent/STIM_014.jpg	99
300.627	0.857	857.3	incongruent	Block1	incongruent/STIM_014.jpg	100
304.309	1.365	1365.3	incongruent	Block1	incongruent/STIM_014.jpg	100
308.617	1.554	1553.6	incongruent	Block1	incongruent/STIM_015.jpg	99
312.377	0.892	892.1	incongruent	Block1	incongruent/STIM_015.jpg	99
315.968	1.332	1332.1	incongruent	Block1	incongruent/STIM_015.jpg	100
321.002	1.245	1244.8	incongruent	Block1	incongruent/STIM_015.jpg	100
325.446	0.982	981.5	incongruent	Block1	incongruent/STIM_015.jpg	99
329.725	1.648	1648.5	incongruent	Block1	incongruent/STIM_016.jpg	100
334.424	1.492	1491.7	incongruent	Block1	incongruent/STIM_016.jpg	99
339.149	1.03	1029.9	incongruent	Block1	incongruent/STIM_016.jpg	99
342.88	1.154	1153.7	incongruent	Block1	incongruent/STIM_016.jpg	99
346.841	0.721	720.6	incongruent	Block1	incongruent/STIM_016.jpg	100
350.433	1.027	1026.9	incongruent	Block1	incongruent/STIM_017.jpg	99
354.471	1.069	1068.6	incongruent	Block1	incongruent/STIM_017.jpg	100
359.444	0.734	734.0	incongruent	Block1	incongruent/STIM_017.jpg	99
362.88	0.833	833.3	incongruent	Block1	incongruent/STIM_017.jpg	100
366.82	1.186	1185.9	incongruent	Block1	incongruent/STIM_017.jpg	100
371.55	1.709	1708.9	incongruent	Block1	incongruent/STIM_018.jpg	99
376.225	1.635	1635.3	incongruent	Block1	incongruent/STIM_018.jpg	99
380.875	0.734	734.3	incongruent	Block1	incongruent/STIM_018.jpg	99
384.935	1.164	1164.3	incongruent	Block1	incongruent/STIM_018.jpg	100
388.875	0.651	651.0	incongruent	Block1	incongruent/STIM_018.jpg	100
391.923	1.006	1006.0	incongruent	Block1	incongruent/STIM_019.jpg	99
394.962	0.823	822.8	incongruent	Block1	incongruent/STIM_019.jpg	99
399.724	1.344	1344.3	incongruent	Block1	incongruent/STIM_019.jpg	100
403.51	1.445	1445.1	incongruent	Block1	incongruent/STIM_019.jpg	100
407.653	0.973	972.9	incongruent	Block1	incongruent/STIM_019.jpg	99
412.048	0.838	837.6	incongruent	Block1	incongruent/STIM_020.jpg	100
416.808	1.636	1636.4	incongruent	Block1	incongruent/STIM_020.jpg	99
420.745	0.747	746.9	incongruent	Block1	incongruent/STIM_020.jpg	99
424.35	1.402	1401.6	incongruent	Block1	incongruent/STIM_020.jpg	99
427.903	0.751	750.8	incongruent	Block1	incongruent/STIM_020.jpg	100
431.228	1.32	1320.0	incongruent	Block1	incongruent/STIM_021.jpg	100
436.096	1.155	1155.2	incongruent	Block1	incongruent/STIM_021.jpg	99
440.078	0.922	921.6	incongruent	Block1	incongruent/STIM_021.jpg	100
443.256	0.847	847.4	incongruent	Block1	incongruent/STIM_021.jpg	99
447.582	0.744	743.9	incongruent	Block1	incongruent/STIM_021.jpg	99
451.228	1.611	1611.1	incongruent	Block1	incongruent/STIM_022.jpg	100
455.817	0.99	989.7	incongruent	Block1	incongruent/STIM_022.jpg	99
460.201	0.8	800.1	incongruent	Block1	incongruent/STIM_022.jpg	100
463.582	0.989	989.4	incongruent	Block1	incongruent/STIM_022.jpg	100
468.315	1.177	1176.7	incongruent	Block1	incongruent/STIM_022.jpg	100
471.922	1.687	1686.6	incongruent	Block1	incongruent/STIM_023.jpg	99
477.5	1.434	1433.9	incongruent	Block1	incongruent/STIM_023.jpg	100
482.423	1.235	1234.6	incongruent	Block1	incongruent/STIM_023.jpg	99
487.078	0.776	776.3	incongruent	Block1	incongruent/STIM_023.jpg	100
489.892	0.692	692.2	incongruent	Block1	incongruent/STIM_023.jpg	100
494.302	1.221	1221.4	incongruent	Block1	incongruent/STIM_024.jpg	99
499.368	1.314	1314.1	incongruent	Block1	incongruent/STIM_024.jpg	100
502.696	1.268	1267.5	incongruent	Block1	incongruent/STIM_024.jpg	99
506.584	0.849	849.4	incongruent	Block1	incongruent/STIM_024.jpg	99
509.976	0.798	797.5	incongruent	Block1	incongruent/STIM_024.jpg	100
512.816	1.635	1635.0	incongruent	Block1	incongruent/STIM_025.jpg	99
516.583	1.396	1396.5	incongruent	Block1	incongruent/STIM_025.jpg	100
521.906	1.388	1387.8	incongruent	Block1	incongruent/STIM_025.jpg	100
527.074	1.412	1411.6	incongruent	Block1	incongruent/STIM_025.jpg	99
532.308	1.041	1041.3	incongruent	Block1	incongruent/STIM_025.jpg	99
537.244	1.634	1634.5	incongruent	Block1	incongruent/STIM_026.jpg	99
541.373	1.257	1256.9	incongruent	Block1	incongruent/STIM_026.jpg	99
544.946	1.431	1431.0	incongruent	Block1	incongruent/STIM_026.jpg	99
549.417	1.225	1224.9	incongruent	Block1	incongruent/STIM_026.jpg	100
553.411	1.288	1287.7	incongruent	Block1	incongruent/STIM_026.jpg	100
557.702	1.358	1357.5	incongruent	Block1	incongruent/STIM_027.jpg	100
563.042	0.768	768.0	incongruent	Block1	incongruent/STIM_027.jpg	99
566.009	0.875	875.3	incongruent	Block1	incongruent/STIM_027.jpg	99
570.732	1.357	1357.3	incongruent	Block1	incongruent/STIM_027.jpg	100
574.483	1.122	1121.7	incongruent	Block1	incongruent/STIM_027.jpg	99
578.572	1.528	1528.4	incongruent	Block1	incongruent/STIM_028.jpg	100
582.277	1.585	1584.9	incongruent	Block1	incongruent/STIM_028.jpg	99
587.177	1.176	1176.1	incongruent	Block1	incongruent/STIM_028.jpg	99
590.945	1.083	1082.8	incongruent	Block1	incongruent/STIM_028.jpg	100
594.797	1.353	1352.8	incongruent	Block1	incongruent/STIM_028.jpg	100
600.13	1.412	1411.8	incongruent	Block1	incongruent/STIM_029.jpg	100
604.128	0.782	782.5	incongruent	Block1	incongruent/STIM_029.jpg	100
607.66	1.063	1062.8	incongruent	Block1	incongruent/STIM_029.jpg	100
612.689	1.07	1070.1	incongruent	Block1	incongruent/STIM_029.jpg	99
616.689	0.679	678.8	incongruent	Block1	incongruent/STIM_029.jpg	100
619.723	0.655	654.9	congruent	Block1	congruent/STIM_000.jpg	99
624.053	0.796	795.7	congruent	Block1	congruent/STIM_000.jpg	99
628.126	0.994	993.8	congruent	Block1	congruent/STIM_000.jpg	100
633.071	0.659	658.8	congruent	Block1	congruent/STIM_000.jpg	99
636.713	0.988	988.0	congruent	Block1	congruent/STIM_000.jpg	99
641.628	1.004	1004.3	congruent	Block1	congruent/STIM_001.jpg	99
644.935	0.666	665.7	congruent	Block1	congruent/STIM_001.jpg	99
647.961	0.712	711.8	congruent	Block1	congruent/STIM_001.jpg	99
652.329	0.582	581.7	congruent	Block1	congruent/STIM_001.jpg	99
655.754	0.76	759.8	congruent	Block1	congruent/STIM_001.jpg	99
659.665	0.677	677.0	congruent	Block1	congruent/STIM_002.jpg	99
663.8	0.616	616.5	congruent	Block1	congruent/STIM_002.jpg	100
667.221	0.949	949.0	congruent	Block1	congruent/STIM_002.jpg	100
670.328	0.602	601.5	congruent	Block1	congruent/STIM_002.jpg	99
674.761	0.895	895.2	congruent	Block1	congruent/STIM_002.jpg	100
679.134	0.598	597.9	congruent	Block1	congruent/STIM_003.jpg	99
683.046	0.856	856.0	congruent	Block1	congruent/STIM_003.jpg	100
687.669	0.76	759.7	congruent	Block1	congruent/STIM_003.jpg	99
690.685	0.834	833.8	congruent	Block1	congruent/STIM_003.jpg	99
694.168	0.656	656.4	congruent	Block1	congruent/STIM_003.jpg	99
697.148	0.614	614.2	congruent	Block1	congruent/STIM_004.jpg	99
700.219	1.021	1020.9	congruent	Block1	congruent/STIM_004.jpg	99
703.61	0.62	619.7	congruent	Block1	congruent/STIM_004.jpg	99
707.602	0.861	861.0	congruent	Block1	congruent/STIM_004.jpg	99
712.144	0.753	753.3	congruent	Block1	congruent/STIM_004.jpg	100
715.544	0.714	714.1	congruent	Block1	congruent/STIM_005.jpg	99
718.728	0.92	919.5	congruent	Block1	congruent/STIM_005.jpg	100
722.362	0.921	921.4	congruent	Block1	congruent/STIM_005.jpg	100
726.091	0.776	775.8	congruent	Block1	congruent/STIM_005.jpg	99
729.05	0.99	989.8	congruent	Block1	congruent/STIM_005.jpg	99
732.517	0.618	617.5	congruent	Block1	congruent/STIM_006.jpg	99
736.499	0.859	858.8	congruent	Block1	congruent/STIM_006.jpg	100
740.576	0.619	618.6	congruent	Block1	congruent/STIM_006.jpg	99
745.054	0.969	969.4	congruent	Block1	congruent/STIM_006.jpg	99
748.169	0.766	766.4	congruent	Block1	congruent/STIM_006.jpg	100
750.939	0.601	601.2	congruent	Block1	congruent/STIM_007.jpg	99
754.184	0.626	625.9	congruent	Block1	congruent/STIM_007.jpg	99
758.655	0.856	855.8	congruent	Block1	congruent/STIM_007.jpg	99
762.131	0.696	695.8	congruent	Block1	congruent/STIM_007.jpg	100
765.135	1.001	1000.6	congruent	Block1	congruent/STIM_007.jpg	100
769.099	0.882	882.4	congruent	Block1	congruent/STIM_008.jpg	100
773.183	0.782	781.8	congruent	Block1	congruent/STIM_008.jpg	99
776.136	0.625	625.4	congruent	Block1	congruent/STIM_008.jpg	100
779.501	0.677	676.9	congruent	Block1	congruent/STIM_008.jpg	99
782.979	0.74	740.2	congruent	Block1	congruent/STIM_008.jpg	100
786.571	0.641	641.0	congruent	Block1	congruent/STIM_009.jpg	99
791.121	0.663	663.4	congruent	Block1	congruent/STIM_009.jpg	99
794.166	0.99	990.0	congruent	Block1	congruent/STIM_009.jpg	99
797.628	0.944	943.7	congruent	Block1	congruent/STIM_009.jpg	100
800.967	0.79	789.9	congruent	Block1	congruent/STIM_009.jpg	99
804.597	0.808	807.9	congruent	Block1	congruent/STIM_010.jpg	100
808.793	0.806	805.8	congruent	Block1	congruent/STIM_010.jpg	100
812.989	0.676	675.6	congruent	Block1	congruent/STIM_010.jpg	100
817.097	0.756	756.1	congruent	Block1	congruent/STIM_010.jpg	99
821.686	0.941	940.8	congruent	Block1	congruent/STIM_010.jpg	99
825.909	1.029	1028.9	congruent	Block1	congruent/STIM_011.jpg	99
829.8	0.951	950.8	congruent	Block1	congruent/STIM_011.jpg	99
833.977	0.714	714.4	congruent	Block1	congruent/STIM_011.jpg	99
838.429	0.798	798.5	congruent	Block1	congruent/STIM_011.jpg	99
842.657	0.872	871.7	congruent	Block1	congruent/STIM_011.jpg	100
845.853	0.945	945.0	congruent	Block1	congruent/STIM_012.jpg	100
850.624	0.928	928.0	congruent	Block1	congruent/STIM_012.jpg	99
855.258	0.861	860.7	congruent	Block1	congruent/STIM_012.jpg	100
859.163	0.985	985.0	congruent	Block1	congruent/STIM_012.jpg	100
863.711	0.691	691.4	congruent	Block1	congruent/STIM_012.jpg	100
867.515	0.807	807.3	congruent	Block1	congruent/STIM_013.jpg	100
870.418	0.882	881.6	congruent	Block1	congruent/STIM_013.jpg	100
875.043	0.833	833.3	congruent	Block1	congruent/STIM_013.jpg	99
878.392	0.749	748.7	congruent	Block1	congruent/STIM_013.jpg	99
881.155	0.938	937.6	congruent	Block1	congruent/STIM_013.jpg	99
884.369	0.954	954.5	congruent	Block1	congruent/STIM_014.jpg	99
887.632	0.645	644.7	congruent	Block1	congruent/STIM_014.jpg	99
891.515	0.77	770.3	congruent	Block1	congruent/STIM_014.jpg	99
895.641	0.951	951.3	congruent	Block1	congruent/STIM_014.jpg	99
899.805	0.757	756.7	congruent	Block1	congruent/STIM_014.jpg	99
903.913	1.028	1027.7	congruent	Block1	congruent/STIM_015.jpg	99
906.956	0.912	911.6	congruent	Block1	congruent/STIM_015.jpg	100
910.362	0.956	955.7	congruent	Block1	congruent/STIM_015.jpg	100
914.65	0.943	943.4	congruent	Block1	congruent/STIM_015.jpg	99
918.644	0.67	670.0	congruent	Block1	congruent/STIM_015.jpg	100
922.573	0.941	940.7	congruent	Block1	congruent/STIM_016.jpg	99
927.363	0.578	578.2	congruent	Block1	congruent/STIM_016.jpg	100
931.689	1.009	1009.0	congruent	Block1	congruent/STIM_016.jpg	99
936.428	0.696	696.5	congruent	Block1	congruent/STIM_016.jpg	100
940.114	0.955	955.2	congruent	Block1	congruent/STIM_016.jpg	99
943.845	0.714	713.6	congruent	Block1	congruent/STIM_017.jpg	100
947.517	0.926	926.4	congruent	Block1	congruent/STIM_017.jpg	100
951.464	0.841	840.8	congruent	Block1	congruent/STIM_017.jpg	99
954.627	0.75	750.5	congruent	Block1	congruent/STIM_017.jpg	99
958.439	0.796	795.7	congruent	Block1	congruent/STIM_017.jpg	100
961.555	0.978	978.0	congruent	Block1	congruent/STIM_018.jpg	100
964.993	0.655	654.6	congruent	Block1	congruent/STIM_018.jpg	99
969.164	0.968	967.8	congruent	Block1	congruent/STIM_018.jpg	99
972.438	0.877	876.8	congruent	Block1	congruent/STIM_018.jpg	100
975.801	0.842	841.6	congruent	Block1	congruent/STIM_018.jpg	100
978.898	0.793	793.4	congruent	Block1	congruent/STIM_019.jpg	99
982.987	0.809	809.4	congruent	Block1	congruent/STIM_019.jpg	100
986.867	0.991	990.6	congruent	Block1	congruent/STIM_019.jpg	100
990.931	0.764	764.5	congruent	Block1	congruent/STIM_019.jpg	100
993.84	0.577	576.6	congruent	Block1	congruent/STIM_019.jpg	100
997.895	1.007	1006.6	congruent	Block1	congruent/STIM_020.jpg	99
1001.655	0.666	665.6	congruent	Block1	congruent/STIM_020.jpg	99
1005.847	0.604	604.0	congruent	Block1	congruent/STIM_020.jpg	100
1009.613	0.763	762.6	congruent	Block1	congruent/STIM_020.jpg	99
1012.485	0.592	592.2	congruent	Block1	congruent/STIM_020.jpg	99
1016.649	0.628	627.8	congruent	Block1	congruent/STIM_021.jpg	100
1020.849	0.824	824.3	congruent	Block1	congruent/STIM_021.jpg	99
1023.839	0.63	629.5	congruent	Block1	congruent/STIM_021.jpg	99
1026.785	0.723	723.2	congruent	Block1	congruent/STIM_021.jpg	100
1030.405	1.023	1023.3	congruent	Block1	congruent/STIM_021.jpg	99
1033.956	1.012	1011.7	congruent	Block1	congruent/STIM_022.jpg	100
1038.852	0.628	628.5	congruent	Block1	congruent/STIM_022.jpg	100
1042.304	0.663	663.3	congruent	Block1	congruent/STIM_022.jpg	99
1045.681	1.027	1027.3	congruent	Block1	congruent/STIM_022.jpg	100
1049.297	0.905	905.4	congruent	Block1	congruent/STIM_022.jpg	100
1053.121	0.722	721.7	congruent	Block1	congruent/STIM_023.jpg	100
1056.339	0.655	655.2	congruent	Block1	congruent/STIM_023.jpg	99
1060.868	0.878	877.9	congruent	Block1	congruent/STIM_023.jpg	99
1064.147	0.905	905.2	congruent	Block1	congruent/STIM_023.jpg	100
1068.252	1.025	1025.1	congruent	Block1	congruent/STIM_023.jpg	99
1071.986	0.805	805.0	congruent	Block1	congruent/STIM_024.jpg	99
1075.761	0.652	652.2	congruent	Block1	congruent/STIM_024.jpg	99
1080.121	0.804	804.4	congruent	Block1	congruent/STIM_024.jpg	99
1083.278	0.721	720.6	congruent	Block1	congruent/STIM_024.jpg	99
1087.95	0.596	595.5	congruent	Block1	congruent/STIM_024.jpg	99
1091.83	0.984	984.0	congruent	Block1	congruent/STIM_025.jpg	99
1096.485	0.789	789.3	congruent	Block1	congruent/STIM_025.jpg	100
1099.966	0.961	960.9	congruent	Block1	congruent/STIM_025.jpg	99
1104.072	1.029	1028.7	congruent	Block1	congruent/STIM_025.jpg	99
1108.808	0.818	817.5	congruent	Block1	congruent/STIM_025.jpg	100
1112.252	1.032	1031.9	congruent	Block1	congruent/STIM_026.jpg	100
1116.506	0.836	836.1	congruent	Block1	congruent/STIM_026.jpg	100
1121.264	1.023	1023.4	congruent	Block1	congruent/STIM_026.jpg	100
1126.235	0.73	730.0	congruent	Block1	congruent/STIM_026.jpg	100
1129.188	0.663	662.7	congruent	Block1	congruent/STIM_026.jpg	99
1133.088	0.647	646.8	congruent	Block1	congruent/STIM_027.jpg	100
1135.845	0.997	997.4	congruent	Block1	congruent/STIM_027.jpg	99
1140.482	0.876	876.2	congruent	Block1	congruent/STIM_027.jpg	99
1143.759	0.967	967.2	congruent	Block1	congruent/STIM_027.jpg	100
1147.486	0.733	733.0	congruent	Block1	congruent/STIM_027.jpg	99
1151.689	0.736	735.8	congruent	Block1	congruent/STIM_028.jpg	99
1156.006	0.76	760.1	congruent	Block1	congruent/STIM_028.jpg	99
1159.779	0.748	748.0	congruent	Block1	congruent/STIM_028.jpg	100
1163.941	0.914	914.5	congruent	Block1	congruent/STIM_028.jpg	99
1168.612	1.023	1022.6	congruent	Block1	congruent/STIM_028.jpg	99
1173.2	0.768	768.3	congruent	Block1	congruent/STIM_029.jpg	100
1176.534	0.873	873.1	congruent	Block1	congruent/STIM_029.jpg	99
1180.103	0.605	604.7	congruent	Block1	congruent/STIM_029.jpg	100
1184.631	0.969	969.1	congruent	Block1	congruent/STIM_029.jpg	100
1188.024	0.884	884.1	congruent	Block1	congruent/STIM_029.jpg	99
1192.306	1.188	1187.9	incongruent	Block2	incongruent/STIM_000.jpg	100
1195.855	0.979	978.7	incongruent	Block2	incongruent/STIM_000.jpg	99
1199.504	0.88	879.5	incongruent	Block2	incongruent/STIM_000.jpg	100
1203.959	0.585	584.8	incongruent	Block2	incongruent/STIM_000.jpg	100
1208.155	0.771	770.9	incongruent	Block2	incongruent/STIM_000.jpg	100
1211.264	1.032	1032.4	incongruent	Block2	incongruent/STIM_001.jpg	99
1214.95	0.669	668.7	incongruent	Block2	incongruent/STIM_001.jpg	99
1219.018	1.03	1030.2	incongruent	Block2	incongruent/STIM_001.jpg	100
1222.062	0.781	780.9	incongruent	Block2	incongruent/STIM_001.jpg	100
1225.742	0.671	670.7	incongruent	Block2	incongruent/STIM_001.jpg	99
1229.229	1.265	1265.0	incongruent	Block2	incongruent/STIM_002.jpg	100
1233.337	0.874	874.3	incongruent	Block2	incongruent/STIM_002.jpg	99
1237.343	1.133	1133.0	incongruent	Block2	incongruent/STIM_002.jpg	100
1240.991	1.194	1194.1	incongruent	Block2	incongruent/STIM_002.jpg	100
1245.216	0.631	630.9	incongruent	Block2	incongruent/STIM_002.jpg	99
1248.902	0.924	924.5	incongruent	Block2	incongruent/STIM_003.jpg	99
1253.621	1.146	1146.0	incongruent	Block2	incongruent/STIM_003.jpg	99
1258.151	0.892	892.0	incongruent	Block2	incongruent/STIM_003.jpg	99
1261.06	0.566	566.1	incongruent	Block2	incongruent/STIM_003.jpg	99
1265.49	0.585	585.0	incongruent	Block2	incongruent/STIM_003.jpg	99
1269.489	0.99	990.1	incongruent	Block2	incongruent/STIM_004.jpg	100
1273.863	1.198	1197.6	incongruent	Block2	incongruent/STIM_004.jpg	100
1277.873	0.728	728.1	incongruent	Block2	incongruent/STIM_004.jpg	99
1280.708	0.634	634.4	incongruent	Block2	incongruent/STIM_004.jpg	99
1283.353	0.949	949.0	incongruent	Block2	incongruent/STIM_004.jpg	99
1288.13	0.792	792.0	incongruent	Block2	incongruent/STIM_005.jpg	100
1291.518	1.134	1133.5	incongruent	Block2	incongruent/STIM_005.jpg	100
1296.238	0.673	673.0	incongruent	Block2	incongruent/STIM_005.jpg	99
1300.535	0.655	654.6	incongruent	Block2	incongruent/STIM_005.jpg	100
1304.387	0.73	730.0	incongruent	Block2	incongruent/STIM_005.jpg	100
1308.057	0.769	768.6	incongruent	Block2	incongruent/STIM_006.jpg	100
1312.31	1.23	1230.4	incongruent	Block2	incongruent/STIM_006.jpg	100
1316.286	0.606	605.8	incongruent	Block2	incongruent/STIM_006.jpg	100
1319.877	0.732	732.4	incongruent	Block2	incongruent/STIM_006.jpg	99
1322.708	1.113	1113.1	incongruent	Block2	incongruent/STIM_006.jpg	99
1327.461	0.808	807.9	incongruent	Block2	incongruent/STIM_007.jpg	99
1332.161	1.22	1220.2	incongruent	Block2	incongruent/STIM_007.jpg	100
1337.35	0.832	832.0	incongruent	Block2	incongruent/STIM_007.jpg	100
1340.888	0.877	877.2	incongruent	Block2	incongruent/STIM_007.jpg	100
1344.711	1.013	1012.8	incongruent	Block2	incongruent/STIM_007.jpg	99
1349.531	1.007	1007.3	incongruent	Block2	incongruent/STIM_008.jpg	100
1352.657	1.299	1299.4	incongruent	Block2	incongruent/STIM_008.jpg	99
1356.099	1.154	1153.9	incongruent	Block2	incongruent/STIM_008.jpg	100
1359.56	0.913	912.8	incongruent	Block2	incongruent/STIM_008.jpg	99
1363.23	0.588	588.5	incongruent	Block2	incongruent/STIM_008.jpg	99
1367.646	1.307	1306.9	incongruent	Block2	incongruent/STIM_009.jpg	100
1371.967	0.881	880.6	incongruent	Block2	incongruent/STIM_009.jpg	100
1376.541	0.604	604.5	incongruent	Block2	incongruent/STIM_009.jpg	100
1379.353	1.106	1105.8	incongruent	Block2	incongruent/STIM_009.jpg	100
1383.803	0.916	916.3	incongruent	Block2	incongruent/STIM_009.jpg	100
1388.263	1.286	1286.4	incongruent	Block2	incongruent/STIM_010.jpg	100
1391.645	0.951	951.0	incongruent	Block2	incongruent/STIM_010.jpg	100
1394.884	1.277	1277.4	incongruent	Block2	incongruent/STIM_010.jpg	100
1398.534	1.044	1043.5	incongruent	Block2	incongruent/STIM_010.jpg	99
1402.123	1.19	1190.5	incongruent	Block2	incongruent/STIM_010.jpg	99
1406.118	1.346	1346.0	incongruent	Block2	incongruent/STIM_011.jpg	99
1409.902	1.048	1047.6	incongruent	Block2	incongruent/STIM_011.jpg	100
1413.598	1.138	1138.5	incongruent	Block2	incongruent/STIM_011.jpg	99
1418.281	0.595	594.7	incongruent	Block2	incongruent/STIM_011.jpg	99
1422.72	0.846	846.4	incongruent	Block2	incongruent/STIM_011.jpg	99
1425.672	0.945	944.9	incongruent	Block2	incongruent/STIM_012.jpg	100
1428.802	1.352	1352.5	incongruent	Block2	incongruent/STIM_012.jpg	99
1432.323	1.103	1102.6	incongruent	Block2	incongruent/STIM_012.jpg	100
1435.546	0.806	806.1	incongruent	Block2	incongruent/STIM_012.jpg	99
1440.295	0.698	698.4	incongruent	Block2	incongruent/STIM_012.jpg	100
1443.144	1.443	1443.1	incongruent	Block2	incongruent/STIM_013.jpg	99
1447.246	1.037	1037.0	incongruent	Block2	incongruent/STIM_013.jpg	99
1451.456	0.834	834.2	incongruent	Block2	incongruent/STIM_013.jpg	99
1455.587	1.163	1162.7	incongruent	Block2	incongruent/STIM_013.jpg	100
1458.776	0.662	662.1	incongruent	Block2	incongruent/STIM_013.jpg	100
1462.82	0.831	830.6	incongruent	Block2	incongruent/STIM_014.jpg	99
1466.575	1.005	1005.1	incongruent	Block2	incongruent/STIM_014.jpg	100
1470.738	1.122	1122.3	incongruent	Block2	incongruent/STIM_014.jpg	100
1475.026	0.855	855.1	incongruent	Block2	incongruent/STIM_014.jpg	99
1479.304	0.712	711.5	incongruent	Block2	incongruent/STIM_014.jpg	99
1483.669	1.275	1275.3	incongruent	Block2	incongruent/STIM_015.jpg	100
1487.62	1.191	1191.2	incongruent	Block2	incongruent/STIM_015.jpg	99
1492.698	1.188	1187.9	incongruent	Block2	incongruent/STIM_015.jpg	100
1497.394	0.771	771.0	incongruent	Block2	incongruent/STIM_015.jpg	100
1500.426	0.727	726.9	incongruent	Block2	incongruent/STIM_015.jpg	100
1503.415	1.284	1284.0	incongruent	Block2	incongruent/STIM_016.jpg	99
1508.397	1.11	1109.5	incongruent	Block2	incongruent/STIM_016.jpg	99
1512.695	1.038	1037.6	incongruent	Block2	incongruent/STIM_016.jpg	100
1516.681	1.049	1048.8	incongruent	Block2	incongruent/STIM_016.jpg	100
1520.114	1.151	1150.8	incongruent	Block2	incongruent/STIM_016.jpg	100
1524.977	0.78	779.9	incongruent	Block2	incongruent/STIM_017.jpg	100
1529.268	1.331	1331.4	incongruent	Block2	incongruent/STIM_017.jpg	99
1533.041	1.031	1031.0	incongruent	Block2	incongruent/STIM_017.jpg	99
1537.433	0.984	983.9	incongruent	Block2	incongruent/STIM_017.jpg	100
1541.79	1.102	1102.5	incongruent	Block2	incongruent/STIM_017.jpg	99
1546.161	1.128	1128.5	incongruent	Block2	incongruent/STIM_018.jpg	99
1549.963	1.051	1051.0	incongruent	Block2	incongruent/STIM_018.jpg	99
1553.857	1.265	1265.1	incongruent	Block2	incongruent/STIM_018.jpg	100
1557.939	1.095	1095.3	incongruent	Block2	incongruent/STIM_018.jpg	99
1561.644	0.947	947.3	incongruent	Block2	incongruent/STIM_018.jpg	100
1565.197	0.738	738.0	incongruent	Block2	incongruent/STIM_019.jpg	99
1568.615	0.671	670.6	incongruent	Block2	incongruent/STIM_019.jpg	99
1572.542	1.035	1034.6	incongruent	Block2	incongruent/STIM_019.jpg	99
1575.968	0.984	984.5	incongruent	Block2	incongruent/STIM_019.jpg	99
1580.622	0.629	628.9	incongruent	Block2	incongruent/STIM_019.jpg	99
1584.676	0.949	948.9	incongruent	Block2	incongruent/STIM_020.jpg	99
1589.03	1.291	1291.2	incongruent	Block2	incongruent/STIM_020.jpg	99
1593.776	0.791	790.7	incongruent	Block2	incongruent/STIM_020.jpg	100
1598.099	0.611	611.4	incongruent	Block2	incongruent/STIM_020.jpg	99
1601.609	1.018	1017.9	incongruent	Block2	incongruent/STIM_020.jpg	100
1606.542	1.024	1024.1	incongruent	Block2	incongruent/STIM_021.jpg	100
1610.012	0.847	847.0	incongruent	Block2	incongruent/STIM_021.jpg	99
1613.984	1.24	1240.0	incongruent	Block2	incongruent/STIM_021.jpg	100
1617.24	0.747	747.0	incongruent	Block2	incongruent/STIM_021.jpg	100
1620.67	1.091	1090.6	incongruent	Block2	incongruent/STIM_021.jpg	99
1624.981	1.399	1398.8	incongruent	Block2	incongruent/STIM_022.jpg	100
1629.71	0.92	919.8	incongruent	Block2	incongruent/STIM_022.jpg	100
1634.222	1.04	1039.5	incongruent	Block2	incongruent/STIM_022.jpg	99
1637.768	0.564	563.9	incongruent	Block2	incongruent/STIM_022.jpg	100
1641.667	0.708	707.8	incongruent	Block2	incongruent/STIM_022.jpg	100
1644.975	0.686	686.5	incongruent	Block2	incongruent/STIM_023.jpg	99
1648.147	1.028	1027.9	incongruent	Block2	incongruent/STIM_023.jpg	99
1651.336	0.76	760.5	incongruent	Block2	incongruent/STIM_023.jpg	99
1654.462	1.071	1071.4	incongruent	Block2	incongruent/STIM_023.jpg	100
1659.456	1.088	1088.4	incongruent	Block2	incongruent/STIM_023.jpg	99
1664.373	0.89	890.5	incongruent	Block2	incongruent/STIM_024.jpg	99
1667.871	1.17	1169.9	incongruent	Block2	incongruent/STIM_024.jpg	100
1671.647	0.786	786.1	incongruent	Block2	incongruent/STIM_024.jpg	99
1675.127	0.637	636.9	incongruent	Block2	incongruent/STIM_024.jpg	100
1678.786	1.139	1139.3	incongruent	Block2	incongruent/STIM_024.jpg	100
1682.676	0.928	928.1	incongruent	Block2	incongruent/STIM_025.jpg	99
1686.647	1.068	1067.7	incongruent	Block2	incongruent/STIM_025.jpg	99
1690.434	0.701	701.1	incongruent	Block2	incongruent/STIM_025.jpg	100
1694.782	0.994	993.8	incongruent	Block2	incongruent/STIM_025.jpg	100
1698.997	0.72	720.4	incongruent	Block2	incongruent/STIM_025.jpg	100
1701.784	0.877	877.3	incongruent	Block2	incongruent/STIM_026.jpg	100
1705.234	0.736	736.5	incongruent	Block2	incongruent/STIM_026.jpg	99
1708.253	0.727	727.0	incongruent	Block2	incongruent/STIM_026.jpg	99
1712.217	1.028	1028.2	incongruent	Block2	incongruent/STIM_026.jpg	99
1715.934	1.125	1125.3	incongruent	Block2	incongruent/STIM_026.jpg	100
1719.65	1.392	1391.8	incongruent	Block2	incongruent/STIM_027.jpg	99
1723.851	0.729	729.4	incongruent	Block2	incongruent/STIM_027.jpg	99
1727.888	1.026	1026.3	incongruent	Block2	incongruent/STIM_027.jpg	100
1732.54	0.743	742.7	incongruent	Block2	incongruent/STIM_027.jpg	99
1736.553	1.013	1013.0	incongruent	Block2	incongruent/STIM_027.jpg	100
1740.894	1.331	1330.7	incongruent	Block2	incongruent/STIM_028.jpg	99
1745.262	1.137	1137.3	incongruent	Block2	incongruent/STIM_028.jpg	99
1750.24	1.158	1158.4	incongruent	Block2	incongruent/STIM_028.jpg	99
1754.19	0.983	983.1	incongruent	Block2	incongruent/STIM_028.jpg	99
1758.774	0.776	776.3	incongruent	Block2	incongruent/STIM_028.jpg	100
1761.584	0.689	689.3	incongruent	Block2	incongruent/STIM_029.jpg	99
1765.389	1.349	1349.1	incongruent	Block2	incongruent/STIM_029.jpg	99
1769.272	0.88	879.7	incongruent	Block2	incongruent/STIM_029.jpg	99
1772.59	0.962	961.5	incongruent	Block2	incongruent/STIM_029.jpg	100
1776.604	1.158	1158.0	incongruent	Block2	incongruent/STIM_029.jpg	100
1780.599	0.746	746.3	congruent	Block2	congruent/STIM_000.jpg	99
1785.075	0.839	839.2	congruent	Block2	congruent/STIM_000.jpg	99
1788.825	0.95	950.0	congruent	Block2	congruent/STIM_000.jpg	100
1792.369	0.659	658.6	congruent	Block2	congruent/STIM_000.jpg	99
1795.328	0.934	934.0	congruent	Block2	congruent/STIM_000.jpg	99
1799.35	0.84	840.5	congruent	Block2	congruent/STIM_001.jpg	99
1802.982	0.578	578.5	congruent	Block2	congruent/STIM_001.jpg	100
1806.745	0.902	901.9	congruent	Block2	congruent/STIM_001.jpg	99
1810.297	0.958	958.2	congruent	Block2	congruent/STIM_001.jpg	99
1814.538	0.861	860.7	congruent	Block2	congruent/STIM_001.jpg	99
1817.99	0.695	695.0	congruent	Block2	congruent/STIM_002.jpg	100
1821.976	0.947	947.3	congruent	Block2	congruent/STIM_002.jpg	100
1826.091	0.773	773.2	congruent	Block2	congruent/STIM_002.jpg	99
1830.026	0.899	899.1	congruent	Block2	congruent/STIM_002.jpg	100
1834.162	0.728	727.8	congruent	Block2	congruent/STIM_002.jpg	99
1837.963	1.002	1001.9	congruent	Block2	congruent/STIM_003.jpg	99
1841.273	0.888	888.0	congruent	Block2	congruent/STIM_003.jpg	99
1844.465	0.718	717.8	congruent	Block2	congruent/STIM_003.jpg	100
1848.462	0.704	704.4	congruent	Block2	congruent/STIM_003.jpg	99
1851.839	0.902	902.4	congruent	Block2	congruent/STIM_003.jpg	100
1854.989	0.828	827.9	congruent	Block2	congruent/STIM_004.jpg	100
1859.449	0.966	966.2	congruent	Block2	congruent/STIM_004.jpg	99
1863.13	0.668	667.7	congruent	Block2	congruent/STIM_004.jpg	100
1865.918	0.595	594.7	congruent	Block2	congruent/STIM_004.jpg	100
1869.698	0.683	683.3	congruent	Block2	congruent/STIM_004.jpg	99
1872.72	0.722	722.4	congruent	Block2	congruent/STIM_005.jpg	100
1877.071	0.842	842.3	congruent	Block2	congruent/STIM_005.jpg	99
1880.535	0.698	697.6	congruent	Block2	congruent/STIM_005.jpg	100
1883.476	0.754	754.5	congruent	Block2	congruent/STIM_005.jpg	100
1887.649	0.673	672.7	congruent	Block2	congruent/STIM_005.jpg	100
1891.172	1.001	1001.3	congruent	Block2	congruent/STIM_006.jpg	99
1895.55	0.728	728.0	congruent	Block2	congruent/STIM_006.jpg	100
1899.288	0.601	601.0	congruent	Block2	congruent/STIM_006.jpg	99
1903.048	0.727	726.6	congruent	Block2	congruent/STIM_006.jpg	99
1906.73	0.645	644.6	congruent	Block2	congruent/STIM_006.jpg	99
1911.253	0.905	905.0	congruent	Block2	congruent/STIM_007.jpg	100
1914.561	0.67	669.5	congruent	Block2	congruent/STIM_007.jpg	99
1919.126	0.79	790.5	congruent	Block2	congruent/STIM_007.jpg	99
1923.219	0.858	858.0	congruent	Block2	congruent/STIM_007.jpg	100
1926.532	0.762	762.5	congruent	Block2	congruent/STIM_007.jpg	99
1930.486	0.607	607.0	congruent	Block2	congruent/STIM_008.jpg	100
1933.531	0.649	648.9	congruent	Block2	congruent/STIM_008.jpg	100
1937.572	0.882	882.3	congruent	Block2	congruent/STIM_008.jpg	100
1941.284	0.866	866.0	congruent	Block2	congruent/STIM_008.jpg	99
1946.074	0.734	734.1	congruent	Block2	congruent/STIM_008.jpg	100
1949.533	0.591	591.0	congruent	Block2	congruent/STIM_009.jpg	100
1952.326	0.886	886.3	congruent	Block2	congruent/STIM_009.jpg	99
1955.602	0.655	655.3	congruent	Block2	congruent/STIM_009.jpg	99
1959.933	0.598	597.5	congruent	Block2	congruent/STIM_009.jpg	99
1963.381	0.859	859.4	congruent	Block2	congruent/STIM_009.jpg	100
1967.451	0.667	666.9	congruent	Block2	congruent/STIM_010.jpg	99
1971.946	0.726	725.7	congruent	Block2	congruent/STIM_010.jpg	100
1975.545	0.664	663.8	congruent	Block2	congruent/STIM_010.jpg	99
1978.759	0.619	618.8	congruent	Block2	congruent/STIM_010.jpg	100
1982.478	0.808	807.8	congruent	Block2	congruent/STIM_010.jpg	99
1985.331	0.697	696.7	congruent	Block2	congruent/STIM_011.jpg	99
1988.495	0.753	752.8	congruent	Block2	congruent/STIM_011.jpg	100
1992.376	0.786	786.5	congruent	Block2	congruent/STIM_011.jpg	99
1995.659	0.801	801.3	congruent	Block2	congruent/STIM_011.jpg	99
1999.476	1.034	1034.2	congruent	Block2	congruent/STIM_011.jpg	99
2002.567	0.815	814.6	congruent	Block2	congruent/STIM_012.jpg	99
2006.39	0.876	876.0	congruent	Block2	congruent/STIM_012.jpg	99
2009.706	0.675	674.9	congruent	Block2	congruent/STIM_012.jpg	99
2012.608	0.687	686.8	congruent	Block2	congruent/STIM_012.jpg	99
2017.12	0.748	747.7	congruent	Block2	congruent/STIM_012.jpg	100
2021.33	0.744	743.5	congruent	Block2	congruent/STIM_013.jpg	99
2025.199	0.732	732.2	congruent	Block2	congruent/STIM_013.jpg	100
2028.566	0.94	940.4	congruent	Block2	congruent/STIM_013.jpg	100
2032.978	0.726	725.5	congruent	Block2	congruent/STIM_013.jpg	99
2037.236	0.631	630.9	congruent	Block2	congruent/STIM_013.jpg	100
2040.988	0.604	603.9	congruent	Block2	congruent/STIM_014.jpg	100
2043.965	0.879	879.0	congruent	Block2	congruent/STIM_014.jpg	100
2047.001	0.934	933.6	congruent	Block2	congruent/STIM_014.jpg	99
2050.222	0.834	834.4	congruent	Block2	congruent/STIM_014.jpg	100
2054.537	1.002	1002.0	congruent	Block2	congruent/STIM_014.jpg	99
2058.553	0.672	672.5	congruent	Block2	congruent/STIM_015.jpg	99
2061.378	0.961	960.9	congruent	Block2	congruent/STIM_015.jpg	99
2066.263	0.649	649.1	congruent	Block2	congruent/STIM_015.jpg	100
2070.867	0.823	823.3	congruent	Block2	congruent/STIM_015.jpg	100
2074.818	1.026	1026.2	congruent	Block2	congruent/STIM_015.jpg	100
2079.611	0.708	708.4	congruent	Block2	congruent/STIM_016.jpg	100
2083.217	0.688	687.6	congruent	Block2	congruent/STIM_016.jpg	99
2086.727	0.725	724.9	congruent	Block2	congruent/STIM_016.jpg	100
2089.935	0.744	744.3	congruent	Block2	congruent/STIM_016.jpg	100
2093.197	0.779	779.1	congruent	Block2	congruent/STIM_016.jpg	100
2096.399	0.897	897.3	congruent	Block2	congruent/STIM_017.jpg	99
2101.088	0.941	941.3	congruent	Block2	congruent/STIM_017.jpg	100
2104.592	0.724	724.0	congruent	Block2	congruent/STIM_017.jpg	99
2108.123	0.862	862.4	congruent	Block2	congruent/STIM_017.jpg	99
2112.514	0.76	759.9	congruent	Block2	congruent/STIM_017.jpg	99
2115.426	0.67	669.6	congruent	Block2	congruent/STIM_018.jpg	99
2119.883	0.821	821.0	congruent	Block2	congruent/STIM_018.jpg	100
2124.065	1.012	1011.8	congruent	Block2	congruent/STIM_018.jpg	100
2127.286	0.684	683.8	congruent	Block2	congruent/STIM_018.jpg	100
2131.956	0.641	641.4	congruent	Block2	congruent/STIM_018.jpg	99
2135.055	0.913	913.0	congruent	Block2	congruent/STIM_019.jpg	99
2138.819	0.994	993.5	congruent	Block2	congruent/STIM_019.jpg	99
2142.857	0.631	630.7	congruent	Block2	congruent/STIM_019.jpg	100
2145.556	0.843	842.6	congruent	Block2	congruent/STIM_019.jpg	99
2148.433	0.938	937.6	congruent	Block2	congruent/STIM_019.jpg	99
2152.661	0.578	577.5	congruent	Block2	congruent/STIM_020.jpg	100
2156.72	0.908	908.0	congruent	Block2	congruent/STIM_020.jpg	99
2160.301	0.838	838.2	congruent	Block2	congruent/STIM_020.jpg	99
2164.135	0.922	921.8	congruent	Block2	congruent/STIM_020.jpg	99
2168.486	0.924	923.5	congruent	Block2	congruent/STIM_020.jpg	99
2171.945	0.809	809.4	congruent	Block2	congruent/STIM_021.jpg	99
2176.379	0.794	794.1	congruent	Block2	congruent/STIM_021.jpg	100
2180.491	0.953	952.6	congruent	Block2	congruent/STIM_021.jpg	100
2183.886	0.957	956.6	congruent	Block2	congruent/STIM_021.jpg	100
2186.915	0.649	649.2	congruent	Block2	congruent/STIM_021.jpg	100
2189.782	0.651	651.1	congruent	Block2	congruent/STIM_022.jpg	100
2192.889	0.953	953.1	congruent	Block2	congruent/STIM_022.jpg	100
2196.947	0.693	693.1	congruent	Block2	congruent/STIM_022.jpg	99
2200.597	0.595	594.8	congruent	Block2	congruent/STIM_022.jpg	100
2203.259	0.667	667.2	congruent	Block2	congruent/STIM_022.jpg	99
2206.175	0.955	954.9	congruent	Block2	congruent/STIM_023.jpg	100
2210.298	0.764	764.0	congruent	Block2	congruent/STIM_023.jpg	100
2214.789	0.812	812.2	congruent	Block2	congruent/STIM_023.jpg	99
2219.307	0.837	836.7	congruent	Block2	congruent/STIM_023.jpg	99
2223.743	0.693	692.8	congruent	Block2	congruent/STIM_023.jpg	100
2228.375	0.728	727.9	congruent	Block2	congruent/STIM_024.jpg	99
2231.213	1.004	1003.5	congruent	Block2	congruent/STIM_024.jpg	100
2235.032	0.796	796.5	congruent	Block2	congruent/STIM_024.jpg	100
2238.24	0.982	981.8	congruent	Block2	congruent/STIM_024.jpg	99
2243.092	0.724	724.1	congruent	Block2	congruent/STIM_024.jpg	99
2247.294	0.735	734.8	congruent	Block2	congruent/STIM_025.jpg	100
2251.975	0.689	688.9	congruent	Block2	congruent/STIM_025.jpg	99
2256.3	0.73	730.0	congruent	Block2	congruent/STIM_025.jpg	99
2260.123	0.701	701.0	congruent	Block2	congruent/STIM_025.jpg	100
2263.273	0.954	954.3	congruent	Block2	congruent/STIM_025.jpg	100
2266.992	0.789	789.4	congruent	Block2	congruent/STIM_026.jpg	100
2270.381	0.91	910.1	congruent	Block2	congruent/STIM_026.jpg	99
2275.209	0.73	730.3	congruent	Block2	congruent/STIM_026.jpg	100
2279.912	1.023	1023.0	congruent	Block2	congruent/STIM_026.jpg	99
2284.307	0.815	814.6	congruent	Block2	congruent/STIM_026.jpg	99
2287.144	0.865	865.0	congruent	Block2	congruent/STIM_027.jpg	100
2290.504	0.972	972.3	congruent	Block2	congruent/STIM_027.jpg	100
2294.701	0.736	736.1	congruent	Block2	congruent/STIM_027.jpg	100
2298.22	0.677	676.8	congruent	Block2	congruent/STIM_027.jpg	99
2301.783	0.609	609.1	congruent	Block2	congruent/STIM_027.jpg	99
2306.026	0.731	730.9	congruent	Block2	congruent/STIM_028.jpg	100
2310.654	0.932	932.1	congruent	Block2	congruent/STIM_028.jpg	100
2314.932	0.745	744.6	congruent	Block2	congruent/STIM_028.jpg	99
2319.124	0.713	713.1	congruent	Block2	congruent/STIM_028.jpg	99
2322.301	0.764	764.4	congruent	Block2	congruent/STIM_028.jpg	100
2326.426	0.766	766.3	congruent	Block2	congruent/STIM_029.jpg	100
2330.593	0.998	998.5	congruent	Block2	congruent/STIM_029.jpg	99
2335.108	1.012	1012.5	congruent	Block2	congruent/STIM_029.jpg	99
2338.939	0.606	606.5	congruent	Block2	congruent/STIM_029.jpg	99
2341.855	0.963	963.1	congruent	Block2	congruent/STIM_029.jpg	100
2344.962	0.855	855.1	incongruent	Block3	incongruent/STIM_000.jpg	99
2348.753	0.629	628.9	incongruent	Block3	incongruent/STIM_000.jpg	99
2352.581	0.845	844.7	incongruent	Block3	incongruent/STIM_000.jpg	99
2357.166	0.996	996.2	incongruent	Block3	incongruent/STIM_000.jpg	100
2361.001	0.924	924.2	incongruent	Block3	incongruent/STIM_000.jpg	99
2364.095	1.03	1030.5	incongruent	Block3	incongruent/STIM_001.jpg	99
2368.782	0.763	762.6	incongruent	Block3	incongruent/STIM_001.jpg	100
2373.482	1.203	1203.3	incongruent	Block3	incongruent/STIM_001.jpg	99
2378.503	0.929	928.8	incongruent	Block3	incongruent/STIM_001.jpg	100
2383.345	0.854	854.1	incongruent	Block3	incongruent/STIM_001.jpg	99
2386.716	1.142	1142.0	incongruent	Block3	incongruent/STIM_002.jpg	100
2391.227	1.08	1080.0	incongruent	Block3	incongruent/STIM_002.jpg	99
2394.893	0.568	568.5	incongruent	Block3	incongruent/STIM_002.jpg	99
2398.13	0.73	729.8	incongruent	Block3	incongruent/STIM_002.jpg	99
2401.047	0.628	627.5	incongruent	Block3	incongruent/STIM_002.jpg	100
2404.377	0.682	682.5	incongruent	Block3	incongruent/STIM_003.jpg	100
2407.863	1.187	1187.2	incongruent	Block3	incongruent/STIM_003.jpg	99
2412.13	0.849	849.3	incongruent	Block3	incongruent/STIM_003.jpg	99
2415.673	0.788	787.9	incongruent	Block3	incongruent/STIM_003.jpg	99
2419.378	0.777	776.7	incongruent	Block3	incongruent/STIM_003.jpg	99
2423.364	0.897	896.8	incongruent	Block3	incongruent/STIM_004.jpg	100
2426.685	0.755	754.9	incongruent	Block3	incongruent/STIM_004.jpg	100
2431.437	0.731	731.2	incongruent	Block3	incongruent/STIM_004.jpg	100
2434.764	0.664	663.6	incongruent	Block3	incongruent/STIM_004.jpg	100
2438.247	0.876	876.2	incongruent	Block3	incongruent/STIM_004.jpg	100
2442.688	1.167	1167.1	incongruent	Block3	incongruent/STIM_005.jpg	100
2447.353	0.791	790.7	incongruent	Block3	incongruent/STIM_005.jpg	99
2451.828	1.082	1082.3	incongruent	Block3	incongruent/STIM_005.jpg	100
2456.115	0.944	944.3	incongruent	Block3	incongruent/STIM_005.jpg	99
2460.311	0.936	936.0	incongruent	Block3	incongruent/STIM_005.jpg	100
2463.516	0.57	570.4	incongruent	Block3	incongruent/STIM_006.jpg	100
2466.205	0.973	973.1	incongruent	Block3	incongruent/STIM_006.jpg	99
2470.143	0.637	637.1	incongruent	Block3	incongruent/STIM_006.jpg	100
2473.245	0.621	620.6	incongruent	Block3	incongruent/STIM_006.jpg	100
2476.317	0.576	575.6	incongruent	Block3	incongruent/STIM_006.jpg	100
2479.108	0.624	624.4	incongruent	Block3	incongruent/STIM_007.jpg	100
2483.545	0.605	604.6	incongruent	Block3	incongruent/STIM_007.jpg	99
2486.606	0.72	720.5	incongruent	Block3	incongruent/STIM_007.jpg	99
2490.582	0.959	958.7	incongruent	Block3	incongruent/STIM_007.jpg	99
2495.487	1.192	1191.5	incongruent	Block3	incongruent/STIM_007.jpg	100
2500.109	0.887	886.6	incongruent	Block3	incongruent/STIM_008.jpg	99
2504.974	0.806	805.9	incongruent	Block3	incongruent/STIM_008.jpg	100
2508.478	0.92	920.2	incongruent	Block3	incongruent/STIM_008.jpg	99
2513.198	0.706	705.7	incongruent	Block3	incongruent/STIM_008.jpg	100
2517.384	0.677	677.1	incongruent	Block3	incongruent/STIM_008.jpg	100
2521.485	0.754	753.6	incongruent	Block3	incongruent/STIM_009.jpg	99
2524.513	1.206	1205.5	incongruent	Block3	incongruent/STIM_009.jpg	100
2528.671	0.638	638.3	incongruent	Block3	incongruent/STIM_009.jpg	100
2532.234	1.083	1082.6	incongruent	Block3	incongruent/STIM_009.jpg	99
2536.723	0.622	621.5	incongruent	Block3	incongruent/STIM_009.jpg	100
2540.157	1.094	1093.6	incongruent	Block3	incongruent/STIM_010.jpg	100
2544.448	0.62	619.6	incongruent	Block3	incongruent/STIM_010.jpg	100
2548.773	0.714	713.7	incongruent	Block3	incongruent/STIM_010.jpg	100
2552.662	1.14	1139.6	incongruent	Block3	incongruent/STIM_010.jpg	99
2556.373	0.611	611.2	incongruent	Block3	incongruent/STIM_010.jpg	99
2560.467	0.903	903.4	incongruent	Block3	incongruent/STIM_011.jpg	100
2563.459	1.177	1177.4	incongruent	Block3	incongruent/STIM_011.jpg	100
2568.578	1.193	1192.6	incongruent	Block3	incongruent/STIM_011.jpg	99
2571.823	1.0	999.6	incongruent	Block3	incongruent/STIM_011.jpg	99
2575.451	0.881	880.7	incongruent	Block3	incongruent/STIM_011.jpg	99
2578.875	0.908	908.5	incongruent	Block3	incongruent/STIM_012.jpg	100
2582.801	1.112	1112.2	incongruent	Block3	incongruent/STIM_012.jpg	100
2587.81	0.98	979.6	incongruent	Block3	incongruent/STIM_012.jpg	100
2591.845	1.123	1123.3	incongruent	Block3	incongruent/STIM_012.jpg	100
2595.842	0.828	828.5	incongruent	Block3	incongruent/STIM_012.jpg	100
2600.181	0.619	618.6	incongruent	Block3	incongruent/STIM_013.jpg	99
2604.605	0.826	825.8	incongruent	Block3	incongruent/STIM_013.jpg	100
2608.153	0.746	745.9	incongruent	Block3	incongruent/STIM_013.jpg	99
2611.951	0.843	843.1	incongruent	Block3	incongruent/STIM_013.jpg	99
2616.405	1.042	1041.7	incongruent	Block3	incongruent/STIM_013.jpg	100
2620.332	0.721	721.2	incongruent	Block3	incongruent/STIM_014.jpg	100
2623.801	1.119	1119.3	incongruent	Block3	incongruent/STIM_014.jpg	100
2627.203	0.676	675.5	incongruent	Block3	incongruent/STIM_014.jpg	99
2631.323	1.085	1085.3	incongruent	Block3	incongruent/STIM_014.jpg	100
2635.441	0.738	738.5	incongruent	Block3	incongruent/STIM_014.jpg	99
2639.207	1.19	1189.6	incongruent	Block3	incongruent/STIM_015.jpg	99
2644.341	0.779	778.9	incongruent	Block3	incongruent/STIM_015.jpg	100
2647.16	0.578	577.9	incongruent	Block3	incongruent/STIM_015.jpg	99
2651.241	0.656	655.6	incongruent	Block3	incongruent/STIM_015.jpg	99
2654.689	1.034	1034.2	incongruent	Block3	incongruent/STIM_015.jpg	100
2658.045	1.16	1160.3	incongruent	Block3	incongruent/STIM_016.jpg	100
2662.199	0.987	987.0	incongruent	Block3	incongruent/STIM_016.jpg	99
2666.399	0.593	593.1	incongruent	Block3	incongruent/STIM_016.jpg	100
2669.996	0.989	989.0	incongruent	Block3	incongruent/STIM_016.jpg	100
2673.687	0.569	569.4	incongruent	Block3	incongruent/STIM_016.jpg	100
2676.863	0.994	993.9	incongruent	Block3	incongruent/STIM_017.jpg	99
2681.795	0.743	743.3	incongruent	Block3	incongruent/STIM_017.jpg	100
2685.216	1.022	1022.0	incongruent	Block3	incongruent/STIM_017.jpg	100
2688.426	1.058	1058.1	incongruent	Block3	incongruent/STIM_017.jpg	100
2691.51	0.78	779.8	incongruent	Block3	incongruent/STIM_017.jpg	100
2694.745	1.061	1060.8	incongruent	Block3	incongruent/STIM_018.jpg	99
2698.385	0.907	907.2	incongruent	Block3	incongruent/STIM_018.jpg	100
2701.532	1.141	1140.8	incongruent	Block3	incongruent/STIM_018.jpg	100
2706.253	1.066	1065.8	incongruent	Block3	incongruent/STIM_018.jpg	99
2709.847	0.988	988.2	incongruent	Block3	incongruent/STIM_018.jpg	100
2714.665	0.942	942.1	incongruent	Block3	incongruent/STIM_019.jpg	99
2718.254	0.808	808.4	incongruent	Block3	incongruent/STIM_019.jpg	99
2721.179	1.14	1139.5	incongruent	Block3	incongruent/STIM_019.jpg	100
2725.798	0.902	902.2	incongruent	Block3	incongruent/STIM_019.jpg	100
2730.594	0.87	870.2	incongruent	Block3	incongruent/STIM_019.jpg	99
2734.345	0.6	600.4	incongruent	Block3	incongruent/STIM_020.jpg	99
2738.167	1.022	1021.7	incongruent	Block3	incongruent/STIM_020.jpg	100
2742.092	1.207	1206.6	incongruent	Block3	incongruent/STIM_020.jpg	99
2746.218	0.913	913.4	incongruent	Block3	incongruent/STIM_020.jpg	100
2750.692	0.972	971.8	incongruent	Block3	incongruent/STIM_020.jpg	100
2753.909	0.705	705.1	incongruent	Block3	incongruent/STIM_021.jpg	100
2756.809	1.082	1081.7	incongruent	Block3	incongruent/STIM_021.jpg	100
2761.322	1.195	1195.0	incongruent	Block3	incongruent/STIM_021.jpg	100
2766.405	0.878	878.0	incongruent	Block3	incongruent/STIM_021.jpg	99
2769.558	0.615	614.9	incongruent	Block3	incongruent/STIM_021.jpg	99
2773.154	1.058	1058.3	incongruent	Block3	incongruent/STIM_022.jpg	99
2776.641	0.866	865.9	incongruent	Block3	incongruent/STIM_022.jpg	100
2779.832	1.142	1141.7	incongruent	Block3	incongruent/STIM_022.jpg	100
2783.538	0.794	793.6	incongruent	Block3	incongruent/STIM_022.jpg	99
2787.126	0.678	677.9	incongruent	Block3	incongruent/STIM_022.jpg	99
2791.199	0.643	642.7	incongruent	Block3	incongruent/STIM_023.jpg	99
2794.897	0.721	721.1	incongruent	Block3	incongruent/STIM_023.jpg	100
2797.953	0.578	578.5	incongruent	Block3	incongruent/STIM_023.jpg	100
2800.655	1.119	1119.3	incongruent	Block3	incongruent/STIM_023.jpg	99
2805.373	0.995	995.1	incongruent	Block3	incongruent/STIM_023.jpg	100
2808.511	0.939	939.2	incongruent	Block3	incongruent/STIM_024.jpg	100
2811.507	0.612	611.6	incongruent	Block3	incongruent/STIM_024.jpg	99
2814.375	0.867	866.8	incongruent	Block3	incongruent/STIM_024.jpg	100
2819.02	0.676	676.5	incongruent	Block3	incongruent/STIM_024.jpg	100
2822.793	0.805	804.9	incongruent	Block3	incongruent/STIM_024.jpg	99
2826.759	0.694	693.8	incongruent	Block3	incongruent/STIM_025.jpg	99
2831.414	0.585	584.7	incongruent	Block3	incongruent/STIM_025.jpg	100
2835.825	0.711	711.4	incongruent	Block3	incongruent/STIM_025.jpg	99
2838.775	1.016	1015.8	incongruent	Block3	incongruent/STIM_025.jpg	99
2842.58	1.206	1206.5	incongruent	Block3	incongruent/STIM_025.jpg	99
2845.909	0.717	717.3	incongruent	Block3	incongruent/STIM_026.jpg	100
2849.331	0.913	912.9	incongruent	Block3	incongruent/STIM_026.jpg	100
2853.957	0.849	848.9	incongruent	Block3	incongruent/STIM_026.jpg	99
2857.273	0.823	823.4	incongruent	Block3	incongruent/STIM_026.jpg	100
2862.092	0.732	732.3	incongruent	Block3	incongruent/STIM_026.jpg	99
2865.052	0.87	870.4	incongruent	Block3	incongruent/STIM_027.jpg	99
2868.539	0.688	687.7	incongruent	Block3	incongruent/STIM_027.jpg	99
2872.705	0.726	726.1	incongruent	Block3	incongruent/STIM_027.jpg	99
2876.008	0.799	798.9	incongruent	Block3	incongruent/STIM_027.jpg	100
2880.427	0.853	853.3	incongruent	Block3	incongruent/STIM_027.jpg	99
2884.164	0.852	851.9	incongruent	Block3	incongruent/STIM_028.jpg	99
2887.342	1.135	1135.2	incongruent	Block3	incongruent/STIM_028.jpg	100
2891.758	1.199	1199.0	incongruent	Block3	incongruent/STIM_028.jpg	100
2895.357	0.628	628.0	incongruent	Block3	incongruent/STIM_028.jpg	100
2898.956	0.605	605.1	incongruent	Block3	incongruent/STIM_028.jpg	100
2902.445	1.202	1201.7	incongruent	Block3	incongruent/STIM_029.jpg	99
2906.742	0.577	577.1	incongruent	Block3	incongruent/STIM_029.jpg	99
2910.434	0.896	896.0	incongruent	Block3	incongruent/STIM_029.jpg	99
2914.809	1.203	1203.2	incongruent	Block3	incongruent/STIM_029.jpg	99
2918.189	0.623	623.0	incongruent	Block3	incongruent/STIM_029.jpg	99
2921.529	0.75	749.9	congruent	Block3	congruent/STIM_000.jpg	99
2926.225	0.693	693.0	congruent	Block3	congruent/STIM_000.jpg	99
2930.585	0.969	968.6	congruent	Block3	congruent/STIM_000.jpg	99
2933.945	0.952	952.0	congruent	Block3	congruent/STIM_000.jpg	99
2937.469	0.787	787.1	congruent	Block3	congruent/STIM_000.jpg	99
2940.687	0.884	884.5	congruent	Block3	congruent/STIM_001.jpg	99
2944.14	0.636	636.0	congruent	Block3	congruent/STIM_001.jpg	99
2946.931	0.744	743.6	congruent	Block3	congruent/STIM_001.jpg	100
2950.601	0.91	909.5	congruent	Block3	congruent/STIM_001.jpg	99
2953.857	1.032	1032.2	congruent	Block3	congruent/STIM_001.jpg	100
2956.965	0.742	741.9	congruent	Block3	congruent/STIM_002.jpg	99
2961.347	0.632	632.2	congruent	Block3	congruent/STIM_002.jpg	100
2964.27	1.008	1007.9	congruent	Block3	congruent/STIM_002.jpg	99
2968.54	0.857	857.2	congruent	Block3	congruent/STIM_002.jpg	99
2972.815	0.838	837.6	congruent	Block3	congruent/STIM_002.jpg	99
2975.811	0.581	581.4	congruent	Block3	congruent/STIM_003.jpg	99
2978.93	0.592	592.5	congruent	Block3	congruent/STIM_003.jpg	99
2983.199	0.715	714.7	congruent	Block3	congruent/STIM_003.jpg	99
2987.079	0.97	970.4	congruent	Block3	congruent/STIM_003.jpg	99
2991.401	0.846	845.7	congruent	Block3	congruent/STIM_003.jpg	100
2994.313	0.612	612.1	congruent	Block3	congruent/STIM_004.jpg	100
2998.71	0.91	909.8	congruent	Block3	congruent/STIM_004.jpg	100
3002.52	0.681	681.4	congruent	Block3	congruent/STIM_004.jpg	100
3006.115	0.865	864.9	congruent	Block3	congruent/STIM_004.jpg	99
3010.898	0.737	736.8	congruent	Block3	congruent/STIM_004.jpg	99
3014.716	0.64	639.6	congruent	Block3	congruent/STIM_005.jpg	100
3018.793	0.986	986.2	congruent	Block3	congruent/STIM_005.jpg	99
3022.783	0.793	793.3	congruent	Block3	congruent/STIM_005.jpg	100
3026.574	0.629	628.8	congruent	Block3	congruent/STIM_005.jpg	99
3031.023	0.989	989.4	congruent	Block3	congruent/STIM_005.jpg	99
3034.844	0.648	648.1	congruent	Block3	congruent/STIM_006.jpg	99
3039.201	0.673	673.4	congruent	Block3	congruent/STIM_006.jpg	100
3042.639	0.729	729.0	congruent	Block3	congruent/STIM_006.jpg	99
3047.002	0.731	731.2	congruent	Block3	congruent/STIM_006.jpg	100
3050.754	0.959	959.1	congruent	Block3	congruent/STIM_006.jpg	99
3055.502	0.772	771.6	congruent	Block3	congruent/STIM_007.jpg	100
3060.017	0.599	599.0	congruent	Block3	congruent/STIM_007.jpg	100
3064.561	0.76	760.4	congruent	Block3	congruent/STIM_007.jpg	100
3069.139	0.966	965.8	congruent	Block3	congruent/STIM_007.jpg	99
3073.239	0.829	829.2	congruent	Block3	congruent/STIM_007.jpg	99
3077.523	0.596	595.6	congruent	Block3	congruent/STIM_008.jpg	99
3080.807	0.823	823.4	congruent	Block3	congruent/STIM_008.jpg	100
3084.92	0.82	820.0	congruent	Block3	congruent/STIM_008.jpg	100
3089.659	0.764	763.6	congruent	Block3	congruent/STIM_008.jpg	99
3093.495	0.953	953.2	congruent	Block3	congruent/STIM_008.jpg	99
3096.982	0.969	969.0	congruent	Block3	congruent/STIM_009.jpg	100
3101.392	0.62	619.8	congruent	Block3	congruent/STIM_009.jpg	99
3104.559	0.983	983.3	congruent	Block3	congruent/STIM_009.jpg	99
3107.977	0.832	831.7	congruent	Block3	congruent/STIM_009.jpg	100
3111.38	0.715	715.1	congruent	Block3	congruent/STIM_009.jpg	100
3116.032	0.828	827.5	congruent	Block3	congruent/STIM_010.jpg	100
3120.201	0.863	862.8	congruent	Block3	congruent/STIM_010.jpg	99
3125.019	0.979	979.2	congruent	Block3	congruent/STIM_010.jpg	100
3128.888	0.816	816.0	congruent	Block3	congruent/STIM_010.jpg	99
3132.376	0.633	633.1	congruent	Block3	congruent/STIM_010.jpg	100
3135.091	0.86	859.7	congruent	Block3	congruent/STIM_011.jpg	99
3138.53	0.865	865.0	congruent	Block3	congruent/STIM_011.jpg	99
3142.082	0.716	715.7	congruent	Block3	congruent/STIM_011.jpg	100
3145.342	0.644	643.5	congruent	Block3	congruent/STIM_011.jpg	100
3149.205	0.84	839.7	congruent	Block3	congruent/STIM_011.jpg	100
3153.327	0.976	976.2	congruent	Block3	congruent/STIM_012.jpg	99
3157.874	0.883	883.3	congruent	Block3	congruent/STIM_012.jpg	99
3161.278	0.809	809.1	congruent	Block3	congruent/STIM_012.jpg	100
3166.008	0.955	954.8	congruent	Block3	congruent/STIM_012.jpg	99
3169.587	0.849	849.4	congruent	Block3	congruent/STIM_012.jpg	99
3173.679	0.695	695.1	congruent	Block3	congruent/STIM_013.jpg	99
3177.147	0.765	765.1	congruent	Block3	congruent/STIM_013.jpg	99
3181.128	0.801	801.4	congruent	Block3	congruent/STIM_013.jpg	99
3185.492	0.612	612.3	congruent	Block3	congruent/STIM_013.jpg	100
3189.714	0.862	861.6	congruent	Block3	congruent/STIM_013.jpg	100
3194.271	1.013	1012.9	congruent	Block3	congruent/STIM_014.jpg	100
3199.197	0.874	873.6	congruent	Block3	congruent/STIM_014.jpg	100
3202.579	0.834	833.9	congruent	Block3	congruent/STIM_014.jpg	100
3207.118	0.834	833.5	congruent	Block3	congruent/STIM_014.jpg	99
3211.447	0.859	859.1	congruent	Block3	congruent/STIM_014.jpg	99
3215.49	0.867	866.9	congruent	Block3	congruent/STIM_015.jpg	100
3219.219	0.847	846.8	congruent	Block3	congruent/STIM_015.jpg	99
3222.901	0.661	661.4	congruent	Block3	congruent/STIM_015.jpg	99
3226.703	0.819	819.3	congruent	Block3	congruent/STIM_015.jpg	99
3231.175	0.763	763.2	congruent	Block3	congruent/STIM_015.jpg	100
3234.149	0.636	636.1	congruent	Block3	congruent/STIM_016.jpg	100
3238.469	0.829	829.2	congruent	Block3	congruent/STIM_016.jpg	99
3241.411	0.794	793.8	congruent	Block3	congruent/STIM_016.jpg	99
3245.118	1.032	1032.0	congruent	Block3	congruent/STIM_016.jpg	100
3248.271	0.834	834.5	congruent	Block3	congruent/STIM_016.jpg	99
3252.17	0.693	693.4	congruent	Block3	congruent/STIM_017.jpg	100
3255.62	0.963	963.3	congruent	Block3	congruent/STIM_017.jpg	99
3258.913	0.75	749.9	congruent	Block3	congruent/STIM_017.jpg	100
3262.008	0.627	626.7	congruent	Block3	congruent/STIM_017.jpg	100
3265.734	0.999	998.8	congruent	Block3	congruent/STIM_017.jpg	99
3269.236	0.63	629.7	congruent	Block3	congruent/STIM_018.jpg	99
3272.55	0.934	933.5	congruent	Block3	congruent/STIM_018.jpg	99
3277.13	0.699	698.6	congruent	Block3	congruent/STIM_018.jpg	100
3281.772	0.764	763.7	congruent	Block3	congruent/STIM_018.jpg	99
3285.045	0.904	903.6	congruent	Block3	congruent/STIM_018.jpg	100
3288.878	0.597	597.0	congruent	Block3	congruent/STIM_019.jpg	99
3293.389	0.914	914.1	congruent	Block3	congruent/STIM_019.jpg	99
3297.718	0.611	610.9	congruent	Block3	congruent/STIM_019.jpg	100
3302.159	0.67	670.3	congruent	Block3	congruent/STIM_019.jpg	99
3305.613	0.922	922.3	congruent	Block3	congruent/STIM_019.jpg	99
3309.524	0.909	908.9	congruent	Block3	congruent/STIM_020.jpg	99
3313.62	0.88	880.5	congruent	Block3	congruent/STIM_020.jpg	100
3318.416	0.699	698.6	congruent	Block3	congruent/STIM_020.jpg	100
3321.124	0.89	890.2	congruent	Block3	congruent/STIM_020.jpg	100
3325.994	0.687	687.3	congruent	Block3	congruent/STIM_020.jpg	100
3329.532	0.704	704.2	congruent	Block3	congruent/STIM_021.jpg	99
3332.517	0.862	861.8	congruent	Block3	congruent/STIM_021.jpg	100
3335.8	0.699	699.0	congruent	Block3	congruent/STIM_021.jpg	99
3339.874	0.715	715.0	congruent	Block3	congruent/STIM_021.jpg	99
3344.401	0.669	669.4	congruent	Block3	congruent/STIM_021.jpg	100
3348.067	0.933	933.1	congruent	Block3	congruent/STIM_022.jpg	100
3351.098	0.697	697.0	congruent	Block3	congruent/STIM_022.jpg	100
3354.721	0.649	648.7	congruent	Block3	congruent/STIM_022.jpg	100
3358.812	0.603	602.9	congruent	Block3	congruent/STIM_022.jpg	99
3361.453	0.658	658.3	congruent	Block3	congruent/STIM_022.jpg	99
3364.87	0.734	734.0	congruent	Block3	congruent/STIM_023.jpg	100
3368.901	0.863	863.3	congruent	Block3	congruent/STIM_023.jpg	100
3371.983	0.673	673.0	congruent	Block3	congruent/STIM_023.jpg	99
3375.591	0.778	777.7	congruent	Block3	congruent/STIM_023.jpg	99
3378.505	0.625	625.2	congruent	Block3	congruent/STIM_023.jpg	99
3382.406	0.894	893.9	congruent	Block3	congruent/STIM_024.jpg	100
3387.211	0.595	595.4	congruent	Block3	congruent/STIM_024.jpg	99
3390.476	0.854	854.5	congruent	Block3	congruent/STIM_024.jpg	100
3394.216	0.842	841.5	congruent	Block3	congruent/STIM_024.jpg	99
3397.861	0.943	943.1	congruent	Block3	congruent/STIM_024.jpg	100
3402.043	0.742	742.1	congruent	Block3	congruent/STIM_025.jpg	99
3405.27	1.02	1020.3	congruent	Block3	congruent/STIM_025.jpg	100
3410.021	0.754	754.1	congruent	Block3	congruent/STIM_025.jpg	99
3413.664	0.606	605.6	congruent	Block3	congruent/STIM_025.jpg	99
3417.311	0.625	625.2	congruent	Block3	congruent/STIM_025.jpg	99
3421.068	0.978	977.5	congruent	Block3	congruent/STIM_026.jpg	99
3424.62	0.78	779.8	congruent	Block3	congruent/STIM_026.jpg	100
3427.417	0.849	849.3	congruent	Block3	congruent/STIM_026.jpg	100
3431.705	0.597	597.3	congruent	Block3	congruent/STIM_026.jpg	100
3436.245	0.851	851.1	congruent	Block3	congruent/STIM_026.jpg	99
3439.91	0.8	799.5	congruent	Block3	congruent/STIM_027.jpg	99
3444.533	0.75	749.6	congruent	Block3	congruent/STIM_027.jpg	100
3449.03	0.754	754.0	congruent	Block3	congruent/STIM_027.jpg	99
3453.076	0.786	785.8	congruent	Block3	congruent/STIM_027.jpg	100
3457.847	0.948	948.1	congruent	Block3	congruent/STIM_027.jpg	99
3462.011	0.693	693.0	congruent	Block3	congruent/STIM_028.jpg	99
3464.771	0.979	978.7	congruent	Block3	congruent/STIM_028.jpg	100
3468.666	1.009	1009.0	congruent	Block3	congruent/STIM_028.jpg	99
3473.185	0.96	959.7	congruent	Block3	congruent/STIM_028.jpg	100
3476.693	0.66	660.4	congruent	Block3	congruent/STIM_028.jpg	100
3479.374	0.968	967.8	congruent	Block3	congruent/STIM_029.jpg	100
3483.701	0.699	699.1	congruent	Block3	congruent/STIM_029.jpg	100
3487.087	0.713	713.1	congruent	Block3	congruent/STIM_029.jpg	100
3491.769	0.82	820.0	congruent	Block3	congruent/STIM_029.jpg	99
3496.103	0.737	736.6	congruent	Block3	congruent/STIM_029.jpg	99
