onset	duration	response_time_ms	trial_type	learning_stage	stimulus	response_port
0.0	0.769	769.3	incongruent	Block1	incongruent/STIM_000.jpg	99
4.816	0.941	940.8	incongruent	Block1	incongruent/STIM_000.jpg	99
8.071	0.557	556.6	incongruent	Block1	incongruent/STIM_000.jpg	99
11.416	1.056	1056.3	incongruent	Block1	incongruent/STIM_000.jpg	100
14.77	0.833	833.2	incongruent	Block1	incongruent/STIM_000.jpg	99
18.057	0.786	786.2	incongruent	Block1	incongruent/STIM_001.jpg	100
22.198	0.544	543.6	incongruent	Block1	incongruent/STIM_001.jpg	99
25.382	0.788	788.3	incongruent	Block1	incongruent/STIM_001.jpg	99
28.617	0.649	648.7	incongruent	Block1	incongruent/STIM_001.jpg	99
31.561	0.836	836.4	incongruent	Block1	incongruent/STIM_001.jpg	99
34.907	0.668	667.8	incongruent	Block1	incongruent/STIM_002.jpg	100
38.471	0.868	867.8	incongruent	Block1	incongruent/STIM_002.jpg	100
42.985	0.906	906.2	incongruent	Block1	incongruent/STIM_002.jpg	100
48.03	1.122	1122.2	incongruent	Block1	incongruent/STIM_002.jpg	99
52.915	1.006	1006.0	incongruent	Block1	incongruent/STIM_002.jpg	99
56.819	0.848	848.5	incongruent	Block1	incongruent/STIM_003.jpg	99
61.175	0.622	621.7	incongruent	Block1	incongruent/STIM_003.jpg	100
65.404	1.11	1110.5	incongruent	Block1	incongruent/STIM_003.jpg	99
68.909	1.077	1077.0	incongruent	Block1	incongruent/STIM_003.jpg	99
72.348	0.639	639.2	incongruent	Block1	incongruent/STIM_003.jpg	100
76.692	1.246	1246.5	incongruent	Block1	incongruent/STIM_004.jpg	100
80.291	0.712	711.5	incongruent	Block1	incongruent/STIM_004.jpg	99
84.167	1.069	1069.1	incongruent	Block1	incongruent/STIM_004.jpg	99
87.985	0.824	823.6	incongruent	Block1	incongruent/STIM_004.jpg	100
92.904	0.987	986.6	incongruent	Block1	incongruent/STIM_004.jpg	99
97.702	0.602	602.0	incongruent	Block1	incongruent/STIM_005.jpg	99
101.088	1.151	1150.8	incongruent	Block1	incongruent/STIM_005.jpg	99
105.575	1.129	1129.4	incongruent	Block1	incongruent/STIM_005.jpg	99
110.485	1.207	1206.8	incongruent	Block1	incongruent/STIM_005.jpg	100
113.834	0.794	794.1	incongruent	Block1	incongruent/STIM_005.jpg	99
117.006	0.897	897.0	incongruent	Block1	incongruent/STIM_006.jpg	100
120.67	0.768	768.3	incongruent	Block1	incongruent/STIM_006.jpg	100
124.812	0.629	629.0	incongruent	Block1	incongruent/STIM_006.jpg	100
129.07	0.786	785.8	incongruent	Block1	incongruent/STIM_006.jpg	100
132.168	0.694	694.0	incongruent	Block1	incongruent/STIM_006.jpg	100
135.107	1.11	1109.6	incongruent	Block1	incongruent/STIM_007.jpg	100
139.014	1.226	1225.6	incongruent	Block1	incongruent/STIM_007.jpg	99
142.529	0.577	577.1	incongruent	Block1	incongruent/STIM_007.jpg	99
145.308	0.754	754.1	incongruent	Block1	incongruent/STIM_007.jpg	99
150.101	0.726	726.0	incongruent	Block1	incongruent/STIM_007.jpg	100
154.253	0.918	918.3	incongruent	Block1	incongruent/STIM_008.jpg	99
159.232	1.106	1105.5	incongruent	Block1	incongruent/STIM_008.jpg	99
162.793	0.632	632.5	incongruent	Block1	incongruent/STIM_008.jpg	100
166.195	0.603	602.6	incongruent	Block1	incongruent/STIM_008.jpg	99
170.208	0.434	433.6	incongruent	Block1	incongruent/STIM_008.jpg	100
174.472	0.736	735.9	incongruent	Block1	incongruent/STIM_009.jpg	99
177.741	0.717	717.2	incongruent	Block1	incongruent/STIM_009.jpg	99
182.168	1.076	1075.5	incongruent	Block1	incongruent/STIM_009.jpg	99
187.167	0.905	905.3	incongruent	Block1	incongruent/STIM_009.jpg	100
191.464	0.715	715.2	incongruent	Block1	incongruent/STIM_009.jpg	99
194.514	1.3	1300.1	incongruent	Block1	incongruent/STIM_010.jpg	99
199.535	1.258	1257.6	incongruent	Block1	incongruent/STIM_010.jpg	100
203.55	0.799	799.3	incongruent	Block1	incongruent/STIM_010.jpg	100
207.473	0.793	793.3	incongruent	Block1	incongruent/STIM_010.jpg	99
211.378	0.977	976.7	incongruent	Block1	incongruent/STIM_010.jpg	99
214.879	1.018	1017.5	incongruent	Block1	incongruent/STIM_011.jpg	100
218.477	0.85	849.5	incongruent	Block1	incongruent/STIM_011.jpg	99
223.063	0.64	639.5	incongruent	Block1	incongruent/STIM_011.jpg	99
226.818	0.713	713.1	incongruent	Block1	incongruent/STIM_011.jpg	100
231.129	0.983	982.9	incongruent	Block1	incongruent/STIM_011.jpg	100
235.553	1.045	1044.8	incongruent	Block1	incongruent/STIM_012.jpg	100
239.432	0.834	833.9	incongruent	Block1	incongruent/STIM_012.jpg	100
243.065	0.74	740.3	incongruent	Block1	incongruent/STIM_012.jpg	100
246.443	0.665	664.7	incongruent	Block1	incongruent/STIM_012.jpg	100
249.359	0.498	497.6	incongruent	Block1	incongruent/STIM_012.jpg	99
252.51	0.976	976.0	incongruent	Block1	incongruent/STIM_013.jpg	100
256.886	0.991	990.6	incongruent	Block1	incongruent/STIM_013.jpg	99
260.857	0.743	743.3	incongruent	Block1	incongruent/STIM_013.jpg	99
264.2	0.846	846.0	incongruent	Block1	incongruent/STIM_013.jpg	99
268.637	0.472	472.0	incongruent	Block1	incongruent/STIM_013.jpg	99
271.513	1.195	1195.1	incongruent	Block1	incongruent/STIM_014.jpg	99
276.347	1.048	1047.9	incongruent	Block1	incongruent/STIM_014.jpg	99
281.503	0.953	952.7	incongruent	Block1	incongruent/STIM_014.jpg	99
286.054	0.855	854.7	incongruent	Block1	incongruent/STIM_014.jpg	100
288.962	0.98	980.2	incongruent	Block1	incongruent/STIM_014.jpg	100
292.592	1.156	1155.7	incongruent	Block1	incongruent/STIM_015.jpg	99
297.392	0.572	572.0	incongruent	Block1	incongruent/STIM_015.jpg	99
301.941	0.896	895.5	incongruent	Block1	incongruent/STIM_015.jpg	100
305.834	1.07	1069.5	incongruent	Block1	incongruent/STIM_015.jpg	100
310.935	0.711	710.7	incongruent	Block1	incongruent/STIM_015.jpg	99
315.506	1.213	1212.9	incongruent	Block1	incongruent/STIM_016.jpg	100
320.692	1.171	1171.0	incongruent	Block1	incongruent/STIM_016.jpg	99
324.055	0.975	975.3	incongruent	Block1	incongruent/STIM_016.jpg	99
328.997	0.659	659.3	incongruent	Block1	incongruent/STIM_016.jpg	99
333.801	0.93	930.4	incongruent	Block1	incongruent/STIM_016.jpg	100
338.48	0.919	918.6	incongruent	Block1	incongruent/STIM_017.jpg	99
342.068	1.106	1105.8	incongruent	Block1	incongruent/STIM_017.jpg	100
345.447	0.941	941.4	incongruent	Block1	incongruent/STIM_017.jpg	99
350.135	0.776	775.8	incongruent	Block1	incongruent/STIM_017.jpg	100
354.029	0.706	706.2	incongruent	Block1	incongruent/STIM_017.jpg	100
357.548	1.287	1287.3	incongruent	Block1	incongruent/STIM_018.jpg	99
362.664	1.007	1007.1	incongruent	Block1	incongruent/STIM_018.jpg	99
366.89	0.693	693.2	incongruent	Block1	incongruent/STIM_018.jpg	99
370.025	1.127	1126.6	incongruent	Block1	incongruent/STIM_018.jpg	100
373.265	0.905	905.0	incongruent	Block1	incongruent/STIM_018.jpg	100
376.561	1.196	1195.7	incongruent	Block1	incongruent/STIM_019.jpg	99
381.152	0.747	747.1	incongruent	Block1	incongruent/STIM_019.jpg	99
385.053	0.852	852.3	incongruent	Block1	incongruent/STIM_019.jpg	100
389.989	0.686	686.1	incongruent	Block1	incongruent/STIM_019.jpg	100
393.939	0.688	687.7	incongruent	Block1	incongruent/STIM_019.jpg	99
397.601	0.796	796.2	incongruent	Block1	incongruent/STIM_020.jpg	100
401.909	0.857	857.4	incongruent	Block1	incongruent/STIM_020.jpg	99
406.208	0.904	904.5	incongruent	Block1	incongruent/STIM_020.jpg	99
410.73	1.091	1090.6	incongruent	Block1	incongruent/STIM_020.jpg	99
414.328	0.858	858.5	incongruent	Block1	incongruent/STIM_020.jpg	100
417.489	1.106	1106.3	incongruent	Block1	incongruent/STIM_021.jpg	100
422.266	1.054	1053.7	incongruent	Block1	incongruent/STIM_021.jpg	99
426.301	0.929	928.7	incongruent	Block1	incongruent/STIM_021.jpg	100
430.882	1.168	1168.3	incongruent	Block1	incongruent/STIM_021.jpg	99
434.557	0.831	830.8	incongruent	Block1	incongruent/STIM_021.jpg	99
438.218	0.724	724.4	incongruent	Block1	incongruent/STIM_022.jpg	100
441.397	1.189	1188.6	incongruent	Block1	incongruent/STIM_022.jpg	99
446.009	1.206	1205.5	incongruent	Block1	incongruent/STIM_022.jpg	100
449.992	0.962	962.3	incongruent	Block1	incongruent/STIM_022.jpg	100
454.054	0.72	720.1	incongruent	Block1	incongruent/STIM_022.jpg	100
457.306	0.746	745.5	incongruent	Block1	incongruent/STIM_023.jpg	99
461.245	0.664	663.8	incongruent	Block1	incongruent/STIM_023.jpg	100
464.348	1.093	1093.2	incongruent	Block1	incongruent/STIM_023.jpg	99
467.841	0.68	680.2	incongruent	Block1	incongruent/STIM_023.jpg	100
470.968	0.63	629.6	incongruent	Block1	incongruent/STIM_023.jpg	100
475.419	1.005	1004.6	incongruent	Block1	incongruent/STIM_024.jpg	99
478.649	0.89	890.4	incongruent	Block1	incongruent/STIM_024.jpg	100
483.275	0.984	984.2	incongruent	Block1	incongruent/STIM_024.jpg	99
487.935	0.952	951.5	incongruent	Block1	incongruent/STIM_024.jpg	99
492.072	0.92	919.5	incongruent	Block1	incongruent/STIM_024.jpg	100
496.789	1.123	1122.9	incongruent	Block1	incongruent/STIM_025.jpg	99
501.563	1.12	1120.4	incongruent	Block1	incongruent/STIM_025.jpg	100
504.91	0.963	962.8	incongruent	Block1	incongruent/STIM_025.jpg	100
508.894	0.813	812.9	incongruent	Block1	incongruent/STIM_025.jpg	99
512.001	0.713	712.8	incongruent	Block1	incongruent/STIM_025.jpg	99
514.832	1.217	1217.4	incongruent	Block1	incongruent/STIM_026.jpg	99
518.529	0.714	713.8	incongruent	Block1	incongruent/STIM_026.jpg	99
521.771	0.48	480.3	incongruent	Block1	incongruent/STIM_026.jpg	99
525.476	0.594	593.5	incongruent	Block1	incongruent/STIM_026.jpg	100
528.914	0.655	655.4	incongruent	Block1	incongruent/STIM_026.jpg	100
532.659	1.257	1257.0	incongruent	Block1	incongruent/STIM_027.jpg	100
536.582	1.05	1049.5	incongruent	Block1	incongruent/STIM_027.jpg	99
540.533	0.844	843.9	incongruent	Block1	incongruent/STIM_027.jpg	99
545.297	0.662	662.4	incongruent	Block1	incongruent/STIM_027.jpg	100
549.647	0.92	919.9	incongruent	Block1	incongruent/STIM_027.jpg	99
553.778	0.923	923.3	incongruent	Block1	incongruent/STIM_028.jpg	100
558.25	1.208	1207.6	incongruent	Block1	incongruent/STIM_028.jpg	99
563.292	1.075	1075.3	incongruent	Block1	incongruent/STIM_028.jpg	99
567.314	0.952	952.1	incongruent	Block1	incongruent/STIM_028.jpg	100
571.637	0.634	633.6	incongruent	Block1	incongruent/STIM_028.jpg	100
575.089	1.122	1122.2	incongruent	Block1	incongruent/STIM_029.jpg	100
578.629	0.665	665.3	incongruent	Block1	incongruent/STIM_029.jpg	100
583.004	0.734	734.3	incongruent	Block1	incongruent/STIM_029.jpg	100
585.816	0.641	640.6	incongruent	Block1	incongruent/STIM_029.jpg	99
588.723	0.617	617.2	incongruent	Block1	incongruent/STIM_029.jpg	100
593.133	0.558	558.3	congruent	Block1	congruent/STIM_000.jpg	99
596.089	0.67	670.0	congruent	Block1	congruent/STIM_000.jpg	99
599.438	0.658	657.7	congruent	Block1	congruent/STIM_000.jpg	100
603.564	0.594	593.7	congruent	Block1	congruent/STIM_000.jpg	99
607.046	0.746	746.5	congruent	Block1	congruent/STIM_000.jpg	99
610.786	0.478	478.0	congruent	Block1	congruent/STIM_001.jpg	99
614.58	0.69	689.6	congruent	Block1	congruent/STIM_001.jpg	99
618.907	0.804	804.2	congruent	Block1	congruent/STIM_001.jpg	99
622.737	0.661	660.7	congruent	Block1	congruent/STIM_001.jpg	99
627.157	0.484	484.4	congruent	Block1	congruent/STIM_001.jpg	99
629.915	0.643	643.3	congruent	Block1	congruent/STIM_002.jpg	99
633.809	0.844	844.1	congruent	Block1	congruent/STIM_002.jpg	100
636.777	0.362	361.7	congruent	Block1	congruent/STIM_002.jpg	100
640.789	0.753	753.4	congruent	Block1	congruent/STIM_002.jpg	99
644.679	0.583	583.1	congruent	Block1	congruent/STIM_002.jpg	100
647.51	0.384	383.9	congruent	Block1	congruent/STIM_003.jpg	99
651.73	0.716	715.5	congruent	Block1	congruent/STIM_003.jpg	100
656.104	0.424	423.7	congruent	Block1	congruent/STIM_003.jpg	99
658.94	0.731	731.4	congruent	Block1	congruent/STIM_003.jpg	99
663.459	0.623	623.0	congruent	Block1	congruent/STIM_003.jpg	99
667.808	0.634	634.0	congruent	Block1	congruent/STIM_004.jpg	99
670.63	0.667	666.6	congruent	Block1	congruent/STIM_004.jpg	99
674.71	0.473	472.8	congruent	Block1	congruent/STIM_004.jpg	99
677.395	0.53	530.5	congruent	Block1	congruent/STIM_004.jpg	99
681.375	0.744	743.7	congruent	Block1	congruent/STIM_004.jpg	100
685.752	0.641	640.8	congruent	Block1	congruent/STIM_005.jpg	99
688.702	0.544	544.1	congruent	Block1	congruent/STIM_005.jpg	100
692.011	0.622	621.7	congruent	Block1	congruent/STIM_005.jpg	100
694.944	0.802	801.9	congruent	Block1	congruent/STIM_005.jpg	99
698.294	0.648	648.1	congruent	Block1	congruent/STIM_005.jpg	99
702.934	0.742	742.1	congruent	Block1	congruent/STIM_006.jpg	99
705.693	0.442	442.3	congruent	Block1	congruent/STIM_006.jpg	100
709.855	0.604	603.8	congruent	Block1	congruent/STIM_006.jpg	99
713.831	0.567	567.1	congruent	Block1	congruent/STIM_006.jpg	99
716.774	0.779	779.4	congruent	Block1	congruent/STIM_006.jpg	100
721.147	0.68	679.9	congruent	Block1	congruent/STIM_007.jpg	99
724.846	0.494	493.8	congruent	Block1	congruent/STIM_007.jpg	99
729.058	0.633	633.4	congruent	Block1	congruent/STIM_007.jpg	99
733.458	0.667	666.6	congruent	Block1	congruent/STIM_007.jpg	100
737.122	0.592	592.4	congruent	Block1	congruent/STIM_007.jpg	100
739.968	0.566	565.7	congruent	Block1	congruent/STIM_008.jpg	100
743.127	0.736	736.5	congruent	Block1	congruent/STIM_008.jpg	99
747.116	0.532	531.9	congruent	Block1	congruent/STIM_008.jpg	100
751.219	0.401	401.4	congruent	Block1	congruent/STIM_008.jpg	99
755.293	0.626	626.0	congruent	Block1	congruent/STIM_008.jpg	100
759.6	0.645	645.2	congruent	Block1	congruent/STIM_009.jpg	99
762.647	0.648	647.8	congruent	Block1	congruent/STIM_009.jpg	99
765.646	0.428	428.3	congruent	Block1	congruent/STIM_009.jpg	99
769.065	0.587	587.4	congruent	Block1	congruent/STIM_009.jpg	100
772.945	0.486	485.6	congruent	Block1	congruent/STIM_009.jpg	99
776.672	0.623	623.4	congruent	Block1	congruent/STIM_010.jpg	100
780.529	0.526	525.7	congruent	Block1	congruent/STIM_010.jpg	100
783.577	0.765	764.9	congruent	Block1	congruent/STIM_010.jpg	100
787.325	0.675	675.0	congruent	Block1	congruent/STIM_010.jpg	99
790.953	0.724	724.2	congruent	Block1	congruent/STIM_010.jpg	99
795.545	0.764	764.5	congruent	Block1	congruent/STIM_011.jpg	99
798.58	0.688	687.7	congruent	Block1	congruent/STIM_011.jpg	99
803.174	0.868	868.5	congruent	Block1	congruent/STIM_011.jpg	99
807.987	0.716	715.8	congruent	Block1	congruent/STIM_011.jpg	99
811.966	0.636	636.0	congruent	Block1	congruent/STIM_011.jpg	100
816.149	0.577	577.4	congruent	Block1	congruent/STIM_012.jpg	100
818.797	0.809	809.0	congruent	Block1	congruent/STIM_012.jpg	99
821.954	0.566	566.1	congruent	Block1	congruent/STIM_012.jpg	100
825.225	0.789	788.9	congruent	Block1	congruent/STIM_012.jpg	100
828.555	0.485	485.4	congruent	Block1	congruent/STIM_012.jpg	100
831.335	0.6	600.1	congruent	Block1	congruent/STIM_013.jpg	100
834.309	0.514	514.4	congruent	Block1	congruent/STIM_013.jpg	100
838.503	0.54	540.4	congruent	Block1	congruent/STIM_013.jpg	99
841.214	0.489	489.0	congruent	Block1	congruent/STIM_013.jpg	99
844.102	0.542	541.7	congruent	Block1	congruent/STIM_013.jpg	99
847.112	0.754	753.7	congruent	Block1	congruent/STIM_014.jpg	99
851.357	0.608	608.1	congruent	Block1	congruent/STIM_014.jpg	99
855.427	0.845	844.6	congruent	Block1	congruent/STIM_014.jpg	99
858.571	0.484	484.3	congruent	Block1	congruent/STIM_014.jpg	99
861.764	0.669	668.8	congruent	Block1	congruent/STIM_014.jpg	99
865.277	0.803	803.4	congruent	Block1	congruent/STIM_015.jpg	99
868.624	0.694	693.6	congruent	Block1	congruent/STIM_015.jpg	100
871.926	0.681	681.1	congruent	Block1	congruent/STIM_015.jpg	100
875.812	0.536	535.6	congruent	Block1	congruent/STIM_015.jpg	99
879.118	0.838	838.4	congruent	Block1	congruent/STIM_015.jpg	100
882.956	0.682	681.8	congruent	Block1	congruent/STIM_016.jpg	99
887.198	0.503	502.7	congruent	Block1	congruent/STIM_016.jpg	100
890.093	0.793	793.0	congruent	Block1	congruent/STIM_016.jpg	99
894.269	0.629	628.7	congruent	Block1	congruent/STIM_016.jpg	100
898.85	0.413	412.8	congruent	Block1	congruent/STIM_016.jpg	99
903.113	0.662	661.8	congruent	Block1	congruent/STIM_017.jpg	100
906.731	0.707	707.0	congruent	Block1	congruent/STIM_017.jpg	100
911.111	0.806	805.5	congruent	Block1	congruent/STIM_017.jpg	99
914.617	0.654	653.9	congruent	Block1	congruent/STIM_017.jpg	99
918.563	0.682	681.8	congruent	Block1	congruent/STIM_017.jpg	100
923.037	0.481	480.6	congruent	Block1	congruent/STIM_018.jpg	100
927.592	0.454	453.7	congruent	Block1	congruent/STIM_018.jpg	99
931.855	0.796	796.5	congruent	Block1	congruent/STIM_018.jpg	99
935.323	0.808	807.7	congruent	Block1	congruent/STIM_018.jpg	100
938.306	0.596	596.1	congruent	Block1	congruent/STIM_018.jpg	100
942.279	0.527	527.3	congruent	Block1	congruent/STIM_019.jpg	99
945.614	0.464	464.3	congruent	Block1	congruent/STIM_019.jpg	100
949.743	0.755	754.9	congruent	Block1	congruent/STIM_019.jpg	100
952.952	0.589	589.1	congruent	Block1	congruent/STIM_019.jpg	100
956.953	0.632	632.0	congruent	Block1	congruent/STIM_019.jpg	100
961.508	0.703	703.2	congruent	Block1	congruent/STIM_020.jpg	99
964.909	0.472	472.3	congruent	Block1	congruent/STIM_020.jpg	99
967.914	0.456	456.1	congruent	Block1	congruent/STIM_020.jpg	100
970.912	0.624	623.5	congruent	Block1	congruent/STIM_020.jpg	99
975.244	0.612	612.2	congruent	Block1	congruent/STIM_020.jpg	99
978.718	0.63	630.0	congruent	Block1	congruent/STIM_021.jpg	100
982.15	0.696	695.6	congruent	Block1	congruent/STIM_021.jpg	99
986.457	0.69	689.5	congruent	Block1	congruent/STIM_021.jpg	99
990.255	0.763	762.9	congruent	Block1	congruent/STIM_021.jpg	100
994.582	0.503	503.5	congruent	Block1	congruent/STIM_021.jpg	99
997.816	0.703	702.8	congruent	Block1	congruent/STIM_022.jpg	100
1001.3	0.704	704.1	congruent	Block1	congruent/STIM_022.jpg	100
1005.601	0.599	599.4	congruent	Block1	congruent/STIM_022.jpg	99
1009.725	0.712	712.2	congruent	Block1	congruent/STIM_022.jpg	100
1013.962	0.737	737.4	congruent	Block1	congruent/STIM_022.jpg	100
1016.942	0.537	537.0	congruent	Block1	congruent/STIM_023.jpg	100
1020.241	0.694	694.0	congruent	Block1	congruent/STIM_023.jpg	99
1024.846	0.631	631.0	congruent	Block1	congruent/STIM_023.jpg	99
1028.01	0.553	552.9	congruent	Block1	congruent/STIM_023.jpg	100
1032.227	0.643	643.0	congruent	Block1	congruent/STIM_023.jpg	99
1035.296	0.568	568.0	congruent	Block1	congruent/STIM_024.jpg	99
1039.839	0.728	727.7	congruent	Block1	congruent/STIM_024.jpg	99
1043.423	0.48	480.3	congruent	Block1	congruent/STIM_024.jpg	99
1046.548	0.827	826.6	congruent	Block1	congruent/STIM_024.jpg	99
1050.183	0.727	726.7	congruent	Block1	congruent/STIM_024.jpg	99
1054.988	0.612	612.1	congruent	Block1	congruent/STIM_025.jpg	99
1059.47	0.645	645.3	congruent	Block1	congruent/STIM_025.jpg	100
1063.539	0.537	537.4	congruent	Block1	congruent/STIM_025.jpg	99
1067.194	0.813	813.0	congruent	Block1	congruent/STIM_025.jpg	99
1070.375	0.584	583.7	congruent	Block1	congruent/STIM_025.jpg	100
1073.579	0.743	742.7	congruent	Block1	congruent/STIM_026.jpg	100
1078.027	0.548	548.1	congruent	Block1	congruent/STIM_026.jpg	100
1082.615	0.402	402.0	congruent	Block1	congruent/STIM_026.jpg	100
1085.665	0.651	651.2	congruent	Block1	congruent/STIM_026.jpg	100
1090.283	0.686	686.3	congruent	Block1	congruent/STIM_026.jpg	99
1094.846	0.564	564.0	congruent	Block1	congruent/STIM_027.jpg	100
1098.293	0.71	709.6	congruent	Block1	congruent/STIM_027.jpg	99
1102.506	0.553	553.0	congruent	Block1	congruent/STIM_027.jpg	99
1105.631	0.766	766.0	congruent	Block1	congruent/STIM_027.jpg	100
1110.362	0.608	608.2	congruent	Block1	congruent/STIM_027.jpg	99
1114.836	0.412	412.4	congruent	Block1	congruent/STIM_028.jpg	99
1118.05	0.592	592.0	congruent	Block1	congruent/STIM_028.jpg	99
1121.014	0.561	561.3	congruent	Block1	congruent/STIM_028.jpg	100
1123.645	0.811	810.8	congruent	Block1	congruent/STIM_028.jpg	99
1127.403	0.455	454.6	congruent	Block1	congruent/STIM_028.jpg	99
1130.306	0.531	531.3	congruent	Block1	congruent/STIM_029.jpg	100
1133.153	0.7	699.5	congruent	Block1	congruent/STIM_029.jpg	99
1137.53	0.594	593.5	congruent	Block1	congruent/STIM_029.jpg	100
1140.699	0.772	772.0	congruent	Block1	congruent/STIM_029.jpg	100
1143.871	0.581	581.0	congruent	Block1	congruent/STIM_029.jpg	99
1147.153	0.97	969.9	incongruent	Block2	incongruent/STIM_000.jpg	100
1150.66	0.452	452.0	incongruent	Block2	incongruent/STIM_000.jpg	99
1153.695	0.837	837.1	incongruent	Block2	incongruent/STIM_000.jpg	100
1156.766	0.86	859.6	incongruent	Block2	incongruent/STIM_000.jpg	100
1161.173	0.638	637.9	incongruent	Block2	incongruent/STIM_000.jpg	100
1164.552	0.616	616.4	incongruent	Block2	incongruent/STIM_001.jpg	99
1168.22	0.519	518.7	incongruent	Block2	incongruent/STIM_001.jpg	99
1171.924	0.564	563.8	incongruent	Block2	incongruent/STIM_001.jpg	100
1174.857	0.713	713.1	incongruent	Block2	incongruent/STIM_001.jpg	100
1177.898	0.637	636.7	incongruent	Block2	incongruent/STIM_001.jpg	99
1182.086	0.8	799.8	incongruent	Block2	incongruent/STIM_002.jpg	100
1185.24	0.642	641.6	incongruent	Block2	incongruent/STIM_002.jpg	99
1189.755	0.544	544.5	incongruent	Block2	incongruent/STIM_002.jpg	100
1194.261	0.819	818.8	incongruent	Block2	incongruent/STIM_002.jpg	100
1198.36	0.883	882.8	incongruent	Block2	incongruent/STIM_002.jpg	99
1202.339	0.762	761.5	incongruent	Block2	incongruent/STIM_003.jpg	99
1205.299	0.553	553.3	incongruent	Block2	incongruent/STIM_003.jpg	99
1208.487	0.608	608.3	incongruent	Block2	incongruent/STIM_003.jpg	99
1212.857	0.534	534.3	incongruent	Block2	incongruent/STIM_003.jpg	99
1216.834	0.516	516.3	incongruent	Block2	incongruent/STIM_003.jpg	99
1219.876	1.11	1109.7	incongruent	Block2	incongruent/STIM_004.jpg	100
1224.2	0.543	543.1	incongruent	Block2	incongruent/STIM_004.jpg	100
1227.557	0.722	721.7	incongruent	Block2	incongruent/STIM_004.jpg	99
1231.577	0.422	422.0	incongruent	Block2	incongruent/STIM_004.jpg	99
1236.004	0.832	831.7	incongruent	Block2	incongruent/STIM_004.jpg	99
1239.441	0.702	702.4	incongruent	Block2	incongruent/STIM_005.jpg	100
1243.187	0.79	790.4	incongruent	Block2	incongruent/STIM_005.jpg	100
1247.568	0.909	909.3	incongruent	Block2	incongruent/STIM_005.jpg	99
1251.192	0.369	368.9	incongruent	Block2	incongruent/STIM_005.jpg	100
1253.789	0.902	902.1	incongruent	Block2	incongruent/STIM_005.jpg	100
1258.677	1.123	1123.3	incongruent	Block2	incongruent/STIM_006.jpg	100
1263.754	0.721	720.7	incongruent	Block2	incongruent/STIM_006.jpg	100
1267.557	0.649	648.6	incongruent	Block2	incongruent/STIM_006.jpg	100
1271.342	0.47	470.0	incongruent	Block2	incongruent/STIM_006.jpg	99
1275.051	0.784	783.9	incongruent	Block2	incongruent/STIM_006.jpg	99
1279.628	0.639	639.0	incongruent	Block2	incongruent/STIM_007.jpg	99
1283.969	0.762	761.7	incongruent	Block2	incongruent/STIM_007.jpg	100
1287.98	0.602	601.6	incongruent	Block2	incongruent/STIM_007.jpg	100
1292.672	0.528	528.5	incongruent	Block2	incongruent/STIM_007.jpg	100
1295.807	0.833	832.6	incongruent	Block2	incongruent/STIM_007.jpg	99
1300.114	0.772	772.2	incongruent	Block2	incongruent/STIM_008.jpg	100
1304.023	1.038	1037.5	incongruent	Block2	incongruent/STIM_008.jpg	99
1308.57	0.767	767.2	incongruent	Block2	incongruent/STIM_008.jpg	100
1311.432	0.807	807.0	incongruent	Block2	incongruent/STIM_008.jpg	99
1315.095	0.599	598.6	incongruent	Block2	incongruent/STIM_008.jpg	99
1318.627	0.828	827.5	incongruent	Block2	incongruent/STIM_009.jpg	100
1321.973	0.884	884.0	incongruent	Block2	incongruent/STIM_009.jpg	100
1325.052	0.862	861.7	incongruent	Block2	incongruent/STIM_009.jpg	100
1329.16	0.734	734.0	incongruent	Block2	incongruent/STIM_009.jpg	100
1332.407	0.474	473.5	incongruent	Block2	incongruent/STIM_009.jpg	100
1335.685	0.743	742.9	incongruent	Block2	incongruent/STIM_010.jpg	100
1339.261	0.54	540.3	incongruent	Block2	incongruent/STIM_010.jpg	100
1342.677	0.983	983.0	incongruent	Block2	incongruent/STIM_010.jpg	100
1346.995	0.523	522.7	incongruent	Block2	incongruent/STIM_010.jpg	99
1350.615	0.46	460.0	incongruent	Block2	incongruent/STIM_010.jpg	99
1353.535	0.771	770.8	incongruent	Block2	incongruent/STIM_011.jpg	99
1358.149	0.764	763.9	incongruent	Block2	incongruent/STIM_011.jpg	100
1362.747	0.935	935.3	incongruent	Block2	incongruent/STIM_011.jpg	99
1366.569	0.959	959.3	incongruent	Block2	incongruent/STIM_011.jpg	99
1371.132	0.677	676.6	incongruent	Block2	incongruent/STIM_011.jpg	99
1375.297	0.521	521.1	incongruent	Block2	incongruent/STIM_012.jpg	100
1377.913	0.627	627.4	incongruent	Block2	incongruent/STIM_012.jpg	99
1381.122	0.968	967.8	incongruent	Block2	incongruent/STIM_012.jpg	100
1384.685	0.603	603.3	incongruent	Block2	incongruent/STIM_012.jpg	99
1389.036	0.616	615.8	incongruent	Block2	incongruent/STIM_012.jpg	100
1392.695	0.74	740.3	incongruent	Block2	incongruent/STIM_013.jpg	99
1395.68	0.64	640.5	incongruent	Block2	incongruent/STIM_013.jpg	99
1399.399	0.856	856.1	incongruent	Block2	incongruent/STIM_013.jpg	99
1404.024	0.779	779.1	incongruent	Block2	incongruent/STIM_013.jpg	100
1407.395	0.797	797.0	incongruent	Block2	incongruent/STIM_013.jpg	100
1411.567	0.934	933.8	incongruent	Block2	incongruent/STIM_014.jpg	99
1416.019	0.795	794.9	incongruent	Block2	incongruent/STIM_014.jpg	100
1420.824	0.831	830.8	incongruent	Block2	incongruent/STIM_014.jpg	100
1424.193	0.714	714.1	incongruent	Block2	incongruent/STIM_014.jpg	99
1428.071	0.715	714.6	incongruent	Block2	incongruent/STIM_014.jpg	99
1430.955	0.606	605.6	incongruent	Block2	incongruent/STIM_015.jpg	100
1434.44	1.067	1067.0	incongruent	Block2	incongruent/STIM_015.jpg	99
1439.029	0.506	506.3	incongruent	Block2	incongruent/STIM_015.jpg	100
1442.989	0.472	472.5	incongruent	Block2	incongruent/STIM_015.jpg	100
1447.17	0.865	864.9	incongruent	Block2	incongruent/STIM_015.jpg	100
1451.026	1.15	1149.6	incongruent	Block2	incongruent/STIM_016.jpg	99
1454.296	0.753	753.2	incongruent	Block2	incongruent/STIM_016.jpg	99
1457.692	0.96	959.7	incongruent	Block2	incongruent/STIM_016.jpg	100
1460.99	0.772	771.5	incongruent	Block2	incongruent/STIM_016.jpg	100
1465.064	0.758	757.7	incongruent	Block2	incongruent/STIM_016.jpg	100
1468.997	0.681	680.7	incongruent	Block2	incongruent/STIM_017.jpg	100
1472.214	0.522	521.6	incongruent	Block2	incongruent/STIM_017.jpg	99
1474.839	0.82	820.5	incongruent	Block2	incongruent/STIM_017.jpg	99
1478.317	0.708	708.3	incongruent	Block2	incongruent/STIM_017.jpg	100
1482.553	0.606	606.0	incongruent	Block2	incongruent/STIM_017.jpg	99
1486.75	0.65	650.1	incongruent	Block2	incongruent/STIM_018.jpg	99
1490.326	0.595	595.3	incongruent	Block2	incongruent/STIM_018.jpg	99
1493.495	0.738	738.5	incongruent	Block2	incongruent/STIM_018.jpg	100
1497.932	0.721	720.8	incongruent	Block2	incongruent/STIM_018.jpg	99
1500.843	0.523	522.8	incongruent	Block2	incongruent/STIM_018.jpg	100
1503.779	0.706	706.3	incongruent	Block2	incongruent/STIM_019.jpg	99
1507.886	0.817	816.9	incongruent	Block2	incongruent/STIM_019.jpg	99
1512.561	0.714	713.5	incongruent	Block2	incongruent/STIM_019.jpg	99
1515.924	0.85	850.3	incongruent	Block2	incongruent/STIM_019.jpg	99
1520.002	0.423	423.4	incongruent	Block2	incongruent/STIM_019.jpg	99
1523.925	0.975	975.3	incongruent	Block2	incongruent/STIM_020.jpg	99
1527.484	0.68	679.9	incongruent	Block2	incongruent/STIM_020.jpg	99
1530.689	0.645	645.3	incongruent	Block2	incongruent/STIM_020.jpg	100
1535.222	0.893	892.7	incongruent	Block2	incongruent/STIM_020.jpg	99
1539.903	0.744	743.9	incongruent	Block2	incongruent/STIM_020.jpg	100
1542.832	0.736	735.5	incongruent	Block2	incongruent/STIM_021.jpg	100
1547.106	0.88	879.9	incongruent	Block2	incongruent/STIM_021.jpg	99
1550.056	0.4	400.3	incongruent	Block2	incongruent/STIM_021.jpg	100
1552.827	0.638	637.6	incongruent	Block2	incongruent/STIM_021.jpg	100
1556.303	0.435	434.6	incongruent	Block2	incongruent/STIM_021.jpg	99
1558.832	1.044	1044.5	incongruent	Block2	incongruent/STIM_022.jpg	100
1563.623	0.702	701.5	incongruent	Block2	incongruent/STIM_022.jpg	100
1568.006	0.541	540.9	incongruent	Block2	incongruent/STIM_022.jpg	99
1571.618	0.463	462.6	incongruent	Block2	incongruent/STIM_022.jpg	100
1574.407	0.619	619.0	incongruent	Block2	incongruent/STIM_022.jpg	100
1577.909	0.518	518.1	incongruent	Block2	incongruent/STIM_023.jpg	99
1580.989	0.481	481.4	incongruent	Block2	incongruent/STIM_023.jpg	99
1584.164	0.518	517.7	incongruent	Block2	incongruent/STIM_023.jpg	99
1586.902	0.811	810.8	incongruent	Block2	incongruent/STIM_023.jpg	100
1589.828	0.711	711.2	incongruent	Block2	incongruent/STIM_023.jpg	99
1594.227	0.7	699.7	incongruent	Block2	incongruent/STIM_024.jpg	99
1598.058	0.614	614.3	incongruent	Block2	incongruent/STIM_024.jpg	100
1600.742	0.999	999.2	incongruent	Block2	incongruent/STIM_024.jpg	99
1604.397	0.482	482.4	incongruent	Block2	incongruent/STIM_024.jpg	100
1608.892	0.416	416.4	incongruent	Block2	incongruent/STIM_024.jpg	100
1612.221	1.057	1056.7	incongruent	Block2	incongruent/STIM_025.jpg	99
1615.538	0.654	654.1	incongruent	Block2	incongruent/STIM_025.jpg	99
1619.216	0.942	942.1	incongruent	Block2	incongruent/STIM_025.jpg	100
1623.63	0.868	867.9	incongruent	Block2	incongruent/STIM_025.jpg	100
1627.939	0.425	424.9	incongruent	Block2	incongruent/STIM_025.jpg	100
1631.301	0.621	620.7	incongruent	Block2	incongruent/STIM_026.jpg	100
1636.004	0.824	824.4	incongruent	Block2	incongruent/STIM_026.jpg	99
1640.667	0.491	491.3	incongruent	Block2	incongruent/STIM_026.jpg	99
1644.408	0.789	788.9	incongruent	Block2	incongruent/STIM_026.jpg	99
1648.753	0.847	846.6	incongruent	Block2	incongruent/STIM_026.jpg	100
1653.036	1.076	1076.5	incongruent	Block2	incongruent/STIM_027.jpg	99
1657.669	0.61	609.5	incongruent	Block2	incongruent/STIM_027.jpg	99
1662.186	0.76	760.0	incongruent	Block2	incongruent/STIM_027.jpg	100
1666.015	0.813	813.3	incongruent	Block2	incongruent/STIM_027.jpg	99
1669.348	0.698	697.5	incongruent	Block2	incongruent/STIM_027.jpg	100
1673.722	1.0	1000.1	incongruent	Block2	incongruent/STIM_028.jpg	99
1678.532	0.57	569.7	incongruent	Block2	incongruent/STIM_028.jpg	99
1682.745	0.909	909.3	incongruent	Block2	incongruent/STIM_028.jpg	99
1686.937	0.55	549.8	incongruent	Block2	incongruent/STIM_028.jpg	99
1691.533	0.476	475.9	incongruent	Block2	incongruent/STIM_028.jpg	100
1695.303	0.899	899.3	incongruent	Block2	incongruent/STIM_029.jpg	99
1699.699	0.95	949.8	incongruent	Block2	incongruent/STIM_029.jpg	99
1704.747	0.667	667.1	incongruent	Block2	incongruent/STIM_029.jpg	99
1708.783	0.558	558.2	incongruent	Block2	incongruent/STIM_029.jpg	100
1712.759	0.652	652.2	incongruent	Block2	incongruent/STIM_029.jpg	100
1715.983	0.434	433.9	congruent	Block2	congruent/STIM_000.jpg	99
1718.586	0.811	811.0	congruent	Block2	congruent/STIM_000.jpg	99
1723.021	0.677	677.0	congruent	Block2	congruent/STIM_000.jpg	100
1725.907	0.697	697.3	congruent	Block2	congruent/STIM_000.jpg	99
1730.372	0.538	537.8	congruent	Block2	congruent/STIM_000.jpg	99
1733.741	0.503	502.7	congruent	Block2	congruent/STIM_001.jpg	99
1736.902	0.502	502.3	congruent	Block2	congruent/STIM_001.jpg	100
1740.485	0.389	389.3	congruent	Block2	congruent/STIM_001.jpg	99
1743.188	0.696	695.8	congruent	Block2	congruent/STIM_001.jpg	99
1746.041	0.643	643.1	congruent	Block2	congruent/STIM_001.jpg	99
1749.726	0.553	552.7	congruent	Block2	congruent/STIM_002.jpg	100
1752.685	0.701	701.0	congruent	Block2	congruent/STIM_002.jpg	100
1756.91	0.433	433.0	congruent	Block2	congruent/STIM_002.jpg	99
1760.607	0.654	654.1	congruent	Block2	congruent/STIM_002.jpg	100
1765.062	0.712	711.7	congruent	Block2	congruent/STIM_002.jpg	99
1768.021	0.57	570.5	congruent	Block2	congruent/STIM_003.jpg	99
1771.202	0.633	633.2	congruent	Block2	congruent/STIM_003.jpg	99
1774.876	0.73	729.7	congruent	Block2	congruent/STIM_003.jpg	100
1778.082	0.705	705.2	congruent	Block2	congruent/STIM_003.jpg	99
1782.183	0.606	605.6	congruent	Block2	congruent/STIM_003.jpg	100
1785.671	0.781	780.6	congruent	Block2	congruent/STIM_004.jpg	100
1788.828	0.672	671.6	congruent	Block2	congruent/STIM_004.jpg	99
1792.6	0.793	792.7	congruent	Block2	congruent/STIM_004.jpg	100
1797.234	0.74	740.5	congruent	Block2	congruent/STIM_004.jpg	100
1801.981	0.447	447.4	congruent	Block2	congruent/STIM_004.jpg	99
1805.079	0.553	552.8	congruent	Block2	congruent/STIM_005.jpg	100
1809.367	0.623	623.4	congruent	Block2	congruent/STIM_005.jpg	99
1812.796	0.5	500.0	congruent	Block2	congruent/STIM_005.jpg	100
1817.267	0.621	620.7	congruent	Block2	congruent/STIM_005.jpg	100
1820.576	0.428	428.4	congruent	Block2	congruent/STIM_005.jpg	100
1823.84	0.655	654.6	congruent	Block2	congruent/STIM_006.jpg	99
1827.424	0.643	642.8	congruent	Block2	congruent/STIM_006.jpg	100
1830.781	0.509	508.8	congruent	Block2	congruent/STIM_006.jpg	99
1834.847	0.604	604.3	congruent	Block2	congruent/STIM_006.jpg	99
1837.936	0.548	547.9	congruent	Block2	congruent/STIM_006.jpg	99
1842.337	0.687	686.7	congruent	Block2	congruent/STIM_007.jpg	100
1846.753	0.398	397.8	congruent	Block2	congruent/STIM_007.jpg	99
1849.715	0.465	464.6	congruent	Block2	congruent/STIM_007.jpg	99
1852.311	0.612	611.7	congruent	Block2	congruent/STIM_007.jpg	100
1856.397	0.63	629.5	congruent	Block2	congruent/STIM_007.jpg	99
1861.064	0.768	767.5	congruent	Block2	congruent/STIM_008.jpg	100
1864.349	0.564	564.5	congruent	Block2	congruent/STIM_008.jpg	100
1867.68	0.514	514.1	congruent	Block2	congruent/STIM_008.jpg	100
1870.393	0.795	795.4	congruent	Block2	congruent/STIM_008.jpg	99
1874.586	0.598	597.8	congruent	Block2	congruent/STIM_008.jpg	100
1878.107	0.61	609.5	congruent	Block2	congruent/STIM_009.jpg	100
1881.875	0.834	834.0	congruent	Block2	congruent/STIM_009.jpg	99
1885.221	0.746	746.4	congruent	Block2	congruent/STIM_009.jpg	99
1888.561	0.434	434.3	congruent	Block2	congruent/STIM_009.jpg	99
1892.148	0.611	610.9	congruent	Block2	congruent/STIM_009.jpg	100
1896.589	0.719	718.8	congruent	Block2	congruent/STIM_010.jpg	99
1899.586	0.527	526.6	congruent	Block2	congruent/STIM_010.jpg	100
1904.068	0.767	767.2	congruent	Block2	congruent/STIM_010.jpg	99
1907.48	0.64	639.5	congruent	Block2	congruent/STIM_010.jpg	100
1911.991	0.482	482.4	congruent	Block2	congruent/STIM_010.jpg	99
1916.345	0.86	860.0	congruent	Block2	congruent/STIM_011.jpg	99
1920.994	0.478	478.1	congruent	Block2	congruent/STIM_011.jpg	100
1924.687	0.636	636.1	congruent	Block2	congruent/STIM_011.jpg	99
1927.832	0.684	684.0	congruent	Block2	congruent/STIM_011.jpg	99
1932.509	0.635	635.0	congruent	Block2	congruent/STIM_011.jpg	99
1935.736	0.832	831.5	congruent	Block2	congruent/STIM_012.jpg	99
1939.675	0.661	660.9	congruent	Block2	congruent/STIM_012.jpg	99
1942.893	0.563	562.7	congruent	Block2	congruent/STIM_012.jpg	99
1945.692	0.573	573.1	congruent	Block2	congruent/STIM_012.jpg	99
1949.054	0.623	623.0	congruent	Block2	congruent/STIM_012.jpg	100
1952.475	0.765	764.7	congruent	Block2	congruent/STIM_013.jpg	99
1956.373	0.685	685.0	congruent	Block2	congruent/STIM_013.jpg	100
1960.606	0.493	492.9	congruent	Block2	congruent/STIM_013.jpg	100
1963.975	0.792	791.8	congruent	Block2	congruent/STIM_013.jpg	99
1967.233	0.537	537.2	congruent	Block2	congruent/STIM_013.jpg	100
1970.052	0.553	552.6	congruent	Block2	congruent/STIM_014.jpg	100
1973.51	0.553	552.8	congruent	Block2	congruent/STIM_014.jpg	100
1976.768	0.454	454.4	congruent	Block2	congruent/STIM_014.jpg	99
1979.797	0.462	461.5	congruent	Block2	congruent/STIM_014.jpg	100
1982.777	0.702	701.9	congruent	Block2	congruent/STIM_014.jpg	99
1986.226	0.519	518.6	congruent	Block2	congruent/STIM_015.jpg	99
1990.166	0.541	541.3	congruent	Block2	congruent/STIM_015.jpg	99
1993.708	0.461	461.0	congruent	Block2	congruent/STIM_015.jpg	100
1997.598	0.687	687.4	congruent	Block2	congruent/STIM_015.jpg	100
2001.855	0.463	463.2	congruent	Block2	congruent/STIM_015.jpg	100
2005.967	0.792	791.5	congruent	Block2	congruent/STIM_016.jpg	100
2009.191	0.494	494.2	congruent	Block2	congruent/STIM_016.jpg	99
2013.125	0.641	641.0	congruent	Block2	congruent/STIM_016.jpg	100
2015.926	0.514	513.7	congruent	Block2	congruent/STIM_016.jpg	100
2019.468	0.446	445.9	congruent	Block2	congruent/STIM_016.jpg	100
2023.081	0.625	625.4	congruent	Block2	congruent/STIM_017.jpg	99
2027.276	0.858	858.3	congruent	Block2	congruent/STIM_017.jpg	100
2031.79	0.613	612.6	congruent	Block2	congruent/STIM_017.jpg	99
2035.727	0.774	774.4	congruent	Block2	congruent/STIM_017.jpg	99
2040.501	0.773	773.0	congruent	Block2	congruent/STIM_017.jpg	99
2044.333	0.759	759.2	congruent	Block2	congruent/STIM_018.jpg	99
2048.36	0.489	488.8	congruent	Block2	congruent/STIM_018.jpg	100
2052.699	0.664	663.9	congruent	Block2	congruent/STIM_018.jpg	100
2056.162	0.64	640.3	congruent	Block2	congruent/STIM_018.jpg	100
2060.092	0.449	449.0	congruent	Block2	congruent/STIM_018.jpg	99
2063.881	0.75	750.2	congruent	Block2	congruent/STIM_019.jpg	99
2068.595	0.714	713.7	congruent	Block2	congruent/STIM_019.jpg	99
2073.009	0.576	576.0	congruent	Block2	congruent/STIM_019.jpg	100
2077.044	0.719	719.3	congruent	Block2	congruent/STIM_019.jpg	99
2080.101	0.569	568.6	congruent	Block2	congruent/STIM_019.jpg	99
2083.133	0.717	717.1	congruent	Block2	congruent/STIM_020.jpg	100
2087.786	0.463	463.1	congruent	Block2	congruent/STIM_020.jpg	99
2091.059	0.394	394.4	congruent	Block2	congruent/STIM_020.jpg	99
2093.639	0.567	567.1	congruent	Block2	congruent/STIM_020.jpg	99
2096.458	0.561	560.6	congruent	Block2	congruent/STIM_020.jpg	99
2099.904	0.736	735.6	congruent	Block2	congruent/STIM_021.jpg	99
2104.178	0.741	740.6	congruent	Block2	congruent/STIM_021.jpg	100
2108.693	0.647	647.0	congruent	Block2	congruent/STIM_021.jpg	100
2111.826	0.562	561.6	congruent	Block2	congruent/STIM_021.jpg	100
2115.305	0.426	425.5	congruent	Block2	congruent/STIM_021.jpg	100
2119.066	0.534	533.9	congruent	Block2	congruent/STIM_022.jpg	100
2122.156	0.825	825.1	congruent	Block2	congruent/STIM_022.jpg	100
2126.012	0.459	458.7	congruent	Block2	congruent/STIM_022.jpg	99
2128.874	0.804	803.6	congruent	Block2	congruent/STIM_022.jpg	100
2133.184	0.526	526.3	congruent	Block2	congruent/STIM_022.jpg	99
2136.379	0.532	531.8	congruent	Block2	congruent/STIM_023.jpg	100
2140.774	0.674	674.3	congruent	Block2	congruent/STIM_023.jpg	100
2143.876	0.522	521.8	congruent	Block2	congruent/STIM_023.jpg	99
2147.68	0.503	502.6	congruent	Block2	congruent/STIM_023.jpg	99
2151.762	0.646	646.5	congruent	Block2	congruent/STIM_023.jpg	100
2155.781	0.606	606.2	congruent	Block2	congruent/STIM_024.jpg	99
2158.67	0.738	737.7	congruent	Block2	congruent/STIM_024.jpg	100
2162.27	0.703	703.3	congruent	Block2	congruent/STIM_024.jpg	100
2166.407	0.466	465.7	congruent	Block2	congruent/STIM_024.jpg	99
2169.767	0.635	635.0	congruent	Block2	congruent/STIM_024.jpg	99
2173.97	0.702	702.3	congruent	Block2	congruent/STIM_025.jpg	100
2177.714	0.741	741.3	congruent	Block2	congruent/STIM_025.jpg	99
2180.827	0.401	401.2	congruent	Block2	congruent/STIM_025.jpg	99
2184.761	0.678	678.5	congruent	Block2	congruent/STIM_025.jpg	100
2189.474	0.616	615.8	congruent	Block2	congruent/STIM_025.jpg	100
2192.751	0.475	474.9	congruent	Block2	congruent/STIM_026.jpg	100
2195.708	0.398	397.6	congruent	Block2	congruent/STIM_026.jpg	99
2198.638	0.754	753.9	congruent	Block2	congruent/STIM_026.jpg	100
2201.589	0.497	497.3	congruent	Block2	congruent/STIM_026.jpg	99
2204.27	0.78	779.8	congruent	Block2	congruent/STIM_026.jpg	99
2208.39	0.487	487.3	congruent	Block2	congruent/STIM_027.jpg	100
2211.545	0.502	502.3	congruent	Block2	congruent/STIM_027.jpg	100
2215.726	0.665	664.6	congruent	Block2	congruent/STIM_027.jpg	100
2219.814	0.509	509.1	congruent	Block2	congruent/STIM_027.jpg	99
2223.729	0.63	629.6	congruent	Block2	congruent/STIM_027.jpg	99
2226.892	0.517	516.7	congruent	Block2	congruent/STIM_028.jpg	100
2229.861	0.43	430.0	congruent	Block2	congruent/STIM_028.jpg	100
2234.124	0.707	707.2	congruent	Block2	congruent/STIM_028.jpg	99
2236.977	0.828	828.0	congruent	Block2	congruent/STIM_028.jpg	99
2241.053	0.438	438.0	congruent	Block2	congruent/STIM_028.jpg	100
2243.815	0.841	840.6	congruent	Block2	congruent/STIM_029.jpg	100
2248.248	0.731	731.4	congruent	Block2	congruent/STIM_029.jpg	99
2252.891	0.604	603.5	congruent	Block2	congruent/STIM_029.jpg	99
2256.267	0.519	519.4	congruent	Block2	congruent/STIM_029.jpg	99
2260.887	0.692	692.2	congruent	Block2	congruent/STIM_029.jpg	100
2265.486	0.724	723.9	incongruent	Block3	incongruent/STIM_000.jpg	99
2269.167	0.659	658.8	incongruent	Block3	incongruent/STIM_000.jpg	99
2273.19	0.74	739.7	incongruent	Block3	incongruent/STIM_000.jpg	99
2277.416	0.425	425.0	incongruent	Block3	incongruent/STIM_000.jpg	100
2280.509	0.994	994.1	incongruent	Block3	incongruent/STIM_000.jpg	99
2285.364	0.862	862.3	incongruent	Block3	incongruent/STIM_001.jpg	99
2289.589	0.704	703.9	incongruent	Block3	incongruent/STIM_001.jpg	100
2292.709	0.504	503.9	incongruent	Block3	incongruent/STIM_001.jpg	99
2296.994	0.803	802.7	incongruent	Block3	incongruent/STIM_001.jpg	100
2301.489	0.859	859.4	incongruent	Block3	incongruent/STIM_001.jpg	99
2305.916	0.906	906.2	incongruent	Block3	incongruent/STIM_002.jpg	100
2308.949	0.702	701.9	incongruent	Block3	incongruent/STIM_002.jpg	99
2312.897	0.728	727.9	incongruent	Block3	incongruent/STIM_002.jpg	99
2315.922	0.681	680.9	incongruent	Block3	incongruent/STIM_002.jpg	99
2320.545	0.744	743.9	incongruent	Block3	incongruent/STIM_002.jpg	100
2324.478	0.68	679.6	incongruent	Block3	incongruent/STIM_003.jpg	100
2328.89	0.457	456.9	incongruent	Block3	incongruent/STIM_003.jpg	99
2331.628	0.507	506.9	incongruent	Block3	incongruent/STIM_003.jpg	99
2335.601	0.539	539.2	incongruent	Block3	incongruent/STIM_003.jpg	99
2339.4	0.715	715.3	incongruent	Block3	incongruent/STIM_003.jpg	99
2344.141	0.836	836.1	incongruent	Block3	incongruent/STIM_004.jpg	100
2348.981	0.644	643.7	incongruent	Block3	incongruent/STIM_004.jpg	100
2353.53	0.755	754.7	incongruent	Block3	incongruent/STIM_004.jpg	100
2357.371	0.613	612.8	incongruent	Block3	incongruent/STIM_004.jpg	100
2361.106	0.904	904.1	incongruent	Block3	incongruent/STIM_004.jpg	100
2364.526	0.76	759.5	incongruent	Block3	incongruent/STIM_005.jpg	100
2367.907	0.744	744.0	incongruent	Block3	incongruent/STIM_005.jpg	99
2371.995	0.727	727.1	incongruent	Block3	incongruent/STIM_005.jpg	100
2376.575	0.652	651.8	incongruent	Block3	incongruent/STIM_005.jpg	99
2379.713	0.716	715.6	incongruent	Block3	incongruent/STIM_005.jpg	100
2383.445	0.44	439.6	incongruent	Block3	incongruent/STIM_006.jpg	100
2386.596	0.809	808.6	incongruent	Block3	incongruent/STIM_006.jpg	99
2389.755	0.814	813.7	incongruent	Block3	incongruent/STIM_006.jpg	100
2394.177	0.638	638.4	incongruent	Block3	incongruent/STIM_006.jpg	100
2397.481	0.536	535.8	incongruent	Block3	incongruent/STIM_006.jpg	100
2400.538	0.732	732.5	incongruent	Block3	incongruent/STIM_007.jpg	100
2403.713	0.552	551.9	incongruent	Block3	incongruent/STIM_007.jpg	99
2407.72	0.785	784.6	incongruent	Block3	incongruent/STIM_007.jpg	99
2411.706	0.566	565.6	incongruent	Block3	incongruent/STIM_007.jpg	99
2415.578	0.716	715.6	incongruent	Block3	incongruent/STIM_007.jpg	100
2420.092	0.513	513.3	incongruent	Block3	incongruent/STIM_008.jpg	99
2423.958	0.499	499.4	incongruent	Block3	incongruent/STIM_008.jpg	100
2427.076	0.621	620.8	incongruent	Block3	incongruent/STIM_008.jpg	99
2429.976	0.564	564.0	incongruent	Block3	incongruent/STIM_008.jpg	100
2433.052	0.499	499.1	incongruent	Block3	incongruent/STIM_008.jpg	100
2436.914	0.873	872.8	incongruent	Block3	incongruent/STIM_009.jpg	99
2441.588	0.652	652.0	incongruent	Block3	incongruent/STIM_009.jpg	100
2445.286	0.562	562.1	incongruent	Block3	incongruent/STIM_009.jpg	100
2448.954	0.431	430.6	incongruent	Block3	incongruent/STIM_009.jpg	99
2452.403	0.836	835.7	incongruent	Block3	incongruent/STIM_009.jpg	100
2456.791	0.63	629.5	incongruent	Block3	incongruent/STIM_010.jpg	100
2461.399	0.877	876.7	incongruent	Block3	incongruent/STIM_010.jpg	100
2465.939	0.636	636.4	incongruent	Block3	incongruent/STIM_010.jpg	100
2470.243	0.836	836.3	incongruent	Block3	incongruent/STIM_010.jpg	99
2474.968	0.529	528.8	incongruent	Block3	incongruent/STIM_010.jpg	99
2478.37	0.764	763.5	incongruent	Block3	incongruent/STIM_011.jpg	100
2482.782	0.706	706.0	incongruent	Block3	incongruent/STIM_011.jpg	100
2486.605	0.863	862.6	incongruent	Block3	incongruent/STIM_011.jpg	99
2490.489	0.563	563.0	incongruent	Block3	incongruent/STIM_011.jpg	99
2493.978	0.576	575.5	incongruent	Block3	incongruent/STIM_011.jpg	99
2498.563	0.673	672.6	incongruent	Block3	incongruent/STIM_012.jpg	100
2501.36	0.836	835.7	incongruent	Block3	incongruent/STIM_012.jpg	100
2505.044	0.47	470.2	incongruent	Block3	incongruent/STIM_012.jpg	100
2509.514	0.914	914.5	incongruent	Block3	incongruent/STIM_012.jpg	100
2514.098	0.705	704.9	incongruent	Block3	incongruent/STIM_012.jpg	100
2517.696	0.492	492.4	incongruent	Block3	incongruent/STIM_013.jpg	99
2521.529	0.83	829.6	incongruent	Block3	incongruent/STIM_013.jpg	100
2524.929	0.811	811.1	incongruent	Block3	incongruent/STIM_013.jpg	99
2527.842	0.628	627.9	incongruent	Block3	incongruent/STIM_013.jpg	99
2531.416	0.679	678.8	incongruent	Block3	incongruent/STIM_013.jpg	100
2534.235	0.627	626.6	incongruent	Block3	incongruent/STIM_014.jpg	100
2538.636	0.435	435.2	incongruent	Block3	incongruent/STIM_014.jpg	100
2542.394	0.585	585.0	incongruent	Block3	incongruent/STIM_014.jpg	99
2545.865	0.714	713.8	incongruent	Block3	incongruent/STIM_014.jpg	100
2548.752	0.586	585.8	incongruent	Block3	incongruent/STIM_014.jpg	99
2551.644	0.591	590.7	incongruent	Block3	incongruent/STIM_015.jpg	99
2555.103	0.874	874.3	incongruent	Block3	incongruent/STIM_015.jpg	100
2559.137	0.666	665.9	incongruent	Block3	incongruent/STIM_015.jpg	99
2563.878	0.652	652.5	incongruent	Block3	incongruent/STIM_015.jpg	99
2567.061	0.922	922.5	incongruent	Block3	incongruent/STIM_015.jpg	100
2571.511	0.666	665.6	incongruent	Block3	incongruent/STIM_016.jpg	100
2575.488	0.67	670.3	incongruent	Block3	incongruent/STIM_016.jpg	99
2578.457	0.82	820.3	incongruent	Block3	incongruent/STIM_016.jpg	100
2582.734	0.649	649.1	incongruent	Block3	incongruent/STIM_016.jpg	100
2587.278	0.517	516.6	incongruent	Block3	incongruent/STIM_016.jpg	100
2590.921	0.66	659.6	incongruent	Block3	incongruent/STIM_017.jpg	99
2593.695	0.618	618.2	incongruent	Block3	incongruent/STIM_017.jpg	100
2596.702	0.613	612.9	incongruent	Block3	incongruent/STIM_017.jpg	100
2600.981	0.923	922.9	incongruent	Block3	incongruent/STIM_017.jpg	100
2605.896	0.589	589.2	incongruent	Block3	incongruent/STIM_017.jpg	100
2609.557	0.441	440.7	incongruent	Block3	incongruent/STIM_018.jpg	99
2612.65	0.659	658.8	incongruent	Block3	incongruent/STIM_018.jpg	100
2616.062	0.742	742.4	incongruent	Block3	incongruent/STIM_018.jpg	100
2620.695	0.837	836.7	incongruent	Block3	incongruent/STIM_018.jpg	99
2623.629	0.719	719.1	incongruent	Block3	incongruent/STIM_018.jpg	100
2628.347	0.87	870.2	incongruent	Block3	incongruent/STIM_019.jpg	99
2632.446	0.42	420.1	incongruent	Block3	incongruent/STIM_019.jpg	99
2636.896	0.716	715.7	incongruent	Block3	incongruent/STIM_019.jpg	100
2640.084	0.675	675.3	incongruent	Block3	incongruent/STIM_019.jpg	100
2642.93	0.686	686.1	incongruent	Block3	incongruent/STIM_019.jpg	99
2647.075	0.839	838.7	incongruent	Block3	incongruent/STIM_020.jpg	99
2651.256	0.773	773.1	incongruent	Block3	incongruent/STIM_020.jpg	100
2654.518	0.444	444.1	incongruent	Block3	incongruent/STIM_020.jpg	99
2658.117	0.749	749.4	incongruent	Block3	incongruent/STIM_020.jpg	100
2661.987	0.837	837.3	incongruent	Block3	incongruent/STIM_020.jpg	100
2666.194	0.56	560.5	incongruent	Block3	incongruent/STIM_021.jpg	100
2670.572	0.898	898.5	incongruent	Block3	incongruent/STIM_021.jpg	100
2674.741	0.928	928.1	incongruent	Block3	incongruent/STIM_021.jpg	100
2679.129	0.448	448.0	incongruent	Block3	incongruent/STIM_021.jpg	99
2682.302	0.778	777.7	incongruent	Block3	incongruent/STIM_021.jpg	99
2687.183	0.618	617.5	incongruent	Block3	incongruent/STIM_022.jpg	99
2691.346	0.727	726.9	incongruent	Block3	incongruent/STIM_022.jpg	100
2694.676	0.57	570.0	incongruent	Block3	incongruent/STIM_022.jpg	100
2698.87	0.632	631.6	incongruent	Block3	incongruent/STIM_022.jpg	99
2701.98	0.524	523.6	incongruent	Block3	incongruent/STIM_022.jpg	99
2706.254	0.61	610.1	incongruent	Block3	incongruent/STIM_023.jpg	99
2710.825	0.637	637.3	incongruent	Block3	incongruent/STIM_023.jpg	100
2714.035	0.549	548.9	incongruent	Block3	incongruent/STIM_023.jpg	100
2718.309	0.831	830.8	incongruent	Block3	incongruent/STIM_023.jpg	99
2721.928	0.574	573.7	incongruent	Block3	incongruent/STIM_023.jpg	100
2724.79	0.83	830.1	incongruent	Block3	incongruent/STIM_024.jpg	100
2729.164	0.623	622.9	incongruent	Block3	incongruent/STIM_024.jpg	99
2733.427	0.551	550.6	incongruent	Block3	incongruent/STIM_024.jpg	100
2738.0	0.588	587.5	incongruent	Block3	incongruent/STIM_024.jpg	100
2741.453	0.895	895.3	incongruent	Block3	incongruent/STIM_024.jpg	99
2745.514	0.472	471.9	incongruent	Block3	incongruent/STIM_025.jpg	99
2749.615	0.852	852.4	incongruent	Block3	incongruent/STIM_025.jpg	100
2754.034	0.908	907.8	incongruent	Block3	incongruent/STIM_025.jpg	99
2758.113	0.676	675.7	incongruent	Block3	incongruent/STIM_025.jpg	99
2762.694	0.455	455.1	incongruent	Block3	incongruent/STIM_025.jpg	99
2766.59	0.605	604.9	incongruent	Block3	incongruent/STIM_026.jpg	100
2770.419	0.899	898.7	incongruent	Block3	incongruent/STIM_026.jpg	100
2773.997	0.83	830.1	incongruent	Block3	incongruent/STIM_026.jpg	99
2777.664	0.643	643.1	incongruent	Block3	incongruent/STIM_026.jpg	100
2780.843	0.48	480.1	incongruent	Block3	incongruent/STIM_026.jpg	99
2783.446	0.452	451.8	incongruent	Block3	incongruent/STIM_027.jpg	99
2786.647	0.727	726.6	incongruent	Block3	incongruent/STIM_027.jpg	99
2789.875	0.788	788.4	incongruent	Block3	incongruent/STIM_027.jpg	99
2794.857	0.502	501.9	incongruent	Block3	incongruent/STIM_027.jpg	100
2798.725	0.52	519.8	incongruent	Block3	incongruent/STIM_027.jpg	99
2801.769	0.943	942.9	incongruent	Block3	incongruent/STIM_028.jpg	99
2805.062	0.771	771.0	incongruent	Block3	incongruent/STIM_028.jpg	100
2809.557	0.596	595.7	incongruent	Block3	incongruent/STIM_028.jpg	100
2813.983	0.505	505.2	incongruent	Block3	incongruent/STIM_028.jpg	100
2817.381	0.695	695.1	incongruent	Block3	incongruent/STIM_028.jpg	100
2821.799	0.535	535.4	incongruent	Block3	incongruent/STIM_029.jpg	99
2824.812	0.711	710.6	incongruent	Block3	incongruent/STIM_029.jpg	99
2827.808	0.758	757.7	incongruent	Block3	incongruent/STIM_029.jpg	99
2831.012	0.86	859.8	incongruent	Block3	incongruent/STIM_029.jpg	99
2835.655	0.438	437.7	incongruent	Block3	incongruent/STIM_029.jpg	99
2838.263	0.74	740.3	congruent	Block3	congruent/STIM_000.jpg	99
2842.752	0.512	511.9	congruent	Block3	congruent/STIM_000.jpg	99
2847.062	0.711	710.9	congruent	Block3	congruent/STIM_000.jpg	99
2850.772	0.826	826.3	congruent	Block3	congruent/STIM_000.jpg	99
2854.693	0.607	606.6	congruent	Block3	congruent/STIM_000.jpg	99
2858.759	0.726	725.6	congruent	Block3	congruent/STIM_001.jpg	99
2862.033	0.431	430.7	congruent	Block3	congruent/STIM_001.jpg	99
2865.006	0.424	423.8	congruent	Block3	congruent/STIM_001.jpg	100
2868.133	0.513	512.7	congruent	Block3	congruent/STIM_001.jpg	99
2871.735	0.684	683.7	congruent	Block3	congruent/STIM_001.jpg	100
2876.175	0.619	618.8	congruent	Block3	congruent/STIM_002.jpg	99
2880.847	0.569	568.9	congruent	Block3	congruent/STIM_002.jpg	100
2884.765	0.423	422.6	congruent	Block3	congruent/STIM_002.jpg	99
2888.713	0.755	754.6	congruent	Block3	congruent/STIM_002.jpg	99
2892.699	0.562	562.4	congruent	Block3	congruent/STIM_002.jpg	99
2896.069	0.675	674.8	congruent	Block3	congruent/STIM_003.jpg	99
2900.84	0.587	587.0	congruent	Block3	congruent/STIM_003.jpg	99
2904.905	0.784	783.8	congruent	Block3	congruent/STIM_003.jpg	99
2909.146	0.796	795.8	congruent	Block3	congruent/STIM_003.jpg	99
2912.107	0.388	388.1	congruent	Block3	congruent/STIM_003.jpg	100
2916.333	0.61	609.8	congruent	Block3	congruent/STIM_004.jpg	100
2920.86	0.572	572.3	congruent	Block3	congruent/STIM_004.jpg	100
2923.635	0.551	551.4	congruent	Block3	congruent/STIM_004.jpg	100
2927.309	0.676	675.8	congruent	Block3	congruent/STIM_004.jpg	99
2931.033	0.486	486.3	congruent	Block3	congruent/STIM_004.jpg	99
2934.365	0.707	707.1	congruent	Block3	congruent/STIM_005.jpg	100
2937.845	0.469	469.2	congruent	Block3	congruent/STIM_005.jpg	99
2942.085	0.632	631.8	congruent	Block3	congruent/STIM_005.jpg	100
2946.045	0.747	747.0	congruent	Block3	congruent/STIM_005.jpg	99
2950.128	0.408	408.4	congruent	Block3	congruent/STIM_005.jpg	99
2954.24	0.616	616.1	congruent	Block3	congruent/STIM_006.jpg	99
2958.924	0.561	560.6	congruent	Block3	congruent/STIM_006.jpg	100
2961.883	0.788	788.3	congruent	Block3	congruent/STIM_006.jpg	99
2965.804	0.652	651.7	congruent	Block3	congruent/STIM_006.jpg	100
2969.366	0.618	618.0	congruent	Block3	congruent/STIM_006.jpg	99
2972.475	0.853	852.9	congruent	Block3	congruent/STIM_007.jpg	100
2977.312	0.491	490.9	congruent	Block3	congruent/STIM_007.jpg	100
2981.677	0.544	544.0	congruent	Block3	congruent/STIM_007.jpg	100
2985.366	0.724	723.9	congruent	Block3	congruent/STIM_007.jpg	99
2989.204	0.704	703.6	congruent	Block3	congruent/STIM_007.jpg	99
2992.811	0.594	593.6	congruent	Block3	congruent/STIM_008.jpg	99
2995.692	0.676	676.1	congruent	Block3	congruent/STIM_008.jpg	100
2999.789	0.83	830.3	congruent	Block3	congruent/STIM_008.jpg	100
3003.433	0.569	569.3	congruent	Block3	congruent/STIM_008.jpg	99
3006.755	0.828	828.5	congruent	Block3	congruent/STIM_008.jpg	99
3011.195	0.492	492.0	congruent	Block3	congruent/STIM_009.jpg	100
3014.009	0.408	408.0	congruent	Block3	congruent/STIM_009.jpg	99
3017.106	0.518	518.1	congruent	Block3	congruent/STIM_009.jpg	99
3021.414	0.48	479.5	congruent	Block3	congruent/STIM_009.jpg	100
3024.755	0.834	834.1	congruent	Block3	congruent/STIM_009.jpg	100
3028.747	0.799	799.1	congruent	Block3	congruent/STIM_010.jpg	100
3031.646	0.74	739.9	congruent	Block3	congruent/STIM_010.jpg	99
3036.221	0.726	726.1	congruent	Block3	congruent/STIM_010.jpg	100
3040.05	0.751	750.8	congruent	Block3	congruent/STIM_010.jpg	99
3043.156	0.648	648.1	congruent	Block3	congruent/STIM_010.jpg	100
3046.786	0.698	698.0	congruent	Block3	congruent/STIM_011.jpg	99
3050.468	0.804	804.5	congruent	Block3	congruent/STIM_011.jpg	99
3054.564	0.464	464.3	congruent	Block3	congruent/STIM_011.jpg	100
3058.045	0.624	623.7	congruent	Block3	congruent/STIM_011.jpg	100
3060.902	0.683	683.2	congruent	Block3	congruent/STIM_011.jpg	100
3064.999	0.678	678.3	congruent	Block3	congruent/STIM_012.jpg	99
3068.473	0.527	527.4	congruent	Block3	congruent/STIM_012.jpg	99
3072.425	0.528	527.7	congruent	Block3	congruent/STIM_012.jpg	100
3074.992	0.601	600.8	congruent	Block3	congruent/STIM_012.jpg	99
3078.081	0.623	623.4	congruent	Block3	congruent/STIM_012.jpg	99
3081.627	0.512	512.4	congruent	Block3	congruent/STIM_013.jpg	99
3085.626	0.78	779.7	congruent	Block3	congruent/STIM_013.jpg	99
3089.027	0.535	534.9	congruent	Block3	congruent/STIM_013.jpg	99
3092.628	0.552	551.9	congruent	Block3	congruent/STIM_013.jpg	100
3095.411	0.677	676.7	congruent	Block3	congruent/STIM_013.jpg	100
3099.707	0.713	713.3	congruent	Block3	congruent/STIM_014.jpg	100
3104.34	0.692	692.0	congruent	Block3	congruent/STIM_014.jpg	100
3107.173	0.727	727.0	congruent	Block3	congruent/STIM_014.jpg	100
3110.014	0.73	730.1	congruent	Block3	congruent/STIM_014.jpg	99
3114.151	0.414	414.1	congruent	Block3	congruent/STIM_014.jpg	99
3116.981	0.452	451.9	congruent	Block3	congruent/STIM_015.jpg	100
3121.047	0.795	795.0	congruent	Block3	congruent/STIM_015.jpg	99
3125.875	0.661	661.2	congruent	Block3	congruent/STIM_015.jpg	99
3129.146	0.506	505.8	congruent	Block3	congruent/STIM_015.jpg	99
3133.259	0.373	373.3	congruent	Block3	congruent/STIM_015.jpg	100
3137.545	0.76	759.9	congruent	Block3	congruent/STIM_016.jpg	100
3142.265	0.563	563.4	congruent	Block3	congruent/STIM_016.jpg	99
3145.795	0.504	503.8	congruent	Block3	congruent/STIM_016.jpg	99
3149.01	0.54	540.2	congruent	Block3	congruent/STIM_016.jpg	100
3151.894	0.406	406.2	congruent	Block3	congruent/STIM_016.jpg	99
3154.616	0.621	620.8	congruent	Block3	congruent/STIM_017.jpg	100
3158.793	0.612	612.5	congruent	Block3	congruent/STIM_017.jpg	99
3161.607	0.882	882.4	congruent	Block3	congruent/STIM_017.jpg	100
3165.53	0.866	866.4	congruent	Block3	congruent/STIM_017.jpg	100
3168.543	0.393	392.9	congruent	Block3	congruent/STIM_017.jpg	99
3171.191	0.567	567.2	congruent	Block3	congruent/STIM_018.jpg	99
3175.389	0.44	439.9	congruent	Block3	congruent/STIM_018.jpg	99
3178.501	0.601	601.2	congruent	Block3	congruent/STIM_018.jpg	100
3181.199	0.419	418.6	congruent	Block3	congruent/STIM_018.jpg	99
3185.071	0.752	752.3	congruent	Block3	congruent/STIM_018.jpg	100
3188.43	0.604	603.9	congruent	Block3	congruent/STIM_019.jpg	99
3191.827	0.499	499.1	congruent	Block3	congruent/STIM_019.jpg	99
3196.05	0.496	496.2	congruent	Block3	congruent/STIM_019.jpg	100
3199.784	0.732	732.0	congruent	Block3	congruent/STIM_019.jpg	99
3202.593	0.475	475.0	congruent	Block3	congruent/STIM_019.jpg	99
3205.756	0.705	705.2	congruent	Block3	congruent/STIM_020.jpg	99
3208.628	0.758	757.6	congruent	Block3	congruent/STIM_020.jpg	100
3212.302	0.756	755.8	congruent	Block3	congruent/STIM_020.jpg	100
3216.23	0.729	729.2	congruent	Block3	congruent/STIM_020.jpg	100
3220.036	0.475	475.3	congruent	Block3	congruent/STIM_020.jpg	100
3223.436	0.616	615.9	congruent	Block3	congruent/STIM_021.jpg	99
3227.263	0.7	699.8	congruent	Block3	congruent/STIM_021.jpg	100
3231.017	0.755	755.0	congruent	Block3	congruent/STIM_021.jpg	99
3233.819	0.826	826.1	congruent	Block3	congruent/STIM_021.jpg	99
3237.802	0.632	631.8	congruent	Block3	congruent/STIM_021.jpg	100
3241.941	0.569	569.4	congruent	Block3	congruent/STIM_022.jpg	100
3245.783	0.56	559.9	congruent	Block3	congruent/STIM_022.jpg	100
3249.739	0.584	583.6	congruent	Block3	congruent/STIM_022.jpg	100
3252.721	0.632	632.2	congruent	Block3	congruent/STIM_022.jpg	99
3255.915	0.54	540.1	congruent	Block3	congruent/STIM_022.jpg	99
3260.114	0.504	504.3	congruent	Block3	congruent/STIM_023.jpg	100
3263.988	0.621	621.0	congruent	Block3	congruent/STIM_023.jpg	100
3267.578	0.495	495.0	congruent	Block3	congruent/STIM_023.jpg	99
3272.026	0.678	677.9	congruent	Block3	congruent/STIM_023.jpg	99
3275.07	0.677	677.4	congruent	Block3	congruent/STIM_023.jpg	99
3279.427	0.522	522.2	congruent	Block3	congruent/STIM_024.jpg	100
3283.08	0.707	707.2	congruent	Block3	congruent/STIM_024.jpg	99
3286.535	0.726	726.2	congruent	Block3	congruent/STIM_024.jpg	100
3290.96	0.777	776.9	congruent	Block3	congruent/STIM_024.jpg	99
3294.92	0.455	455.1	congruent	Block3	congruent/STIM_024.jpg	100
3299.528	0.546	546.1	congruent	Block3	congruent/STIM_025.jpg	99
3303.749	0.768	768.3	congruent	Block3	congruent/STIM_025.jpg	100
3306.934	0.459	458.9	congruent	Block3	congruent/STIM_025.jpg	99
3310.163	0.428	427.7	congruent	Block3	congruent/STIM_025.jpg	99
3312.776	0.727	726.7	congruent	Block3	congruent/STIM_025.jpg	99
3317.477	0.567	566.6	congruent	Block3	congruent/STIM_026.jpg	99
3320.936	0.587	586.6	congruent	Block3	congruent/STIM_026.jpg	100
3324.051	0.604	604.4	congruent	Block3	congruent/STIM_026.jpg	100
3328.136	0.634	634.4	congruent	Block3	congruent/STIM_026.jpg	100
3332.491	0.689	689.4	congruent	Block3	congruent/STIM_026.jpg	99
3336.935	0.448	448.2	congruent	Block3	congruent/STIM_027.jpg	99
3340.548	0.768	768.3	congruent	Block3	congruent/STIM_027.jpg	100
3343.692	0.678	677.5	congruent	Block3	congruent/STIM_027.jpg	99
3346.633	0.759	758.8	congruent	Block3	congruent/STIM_027.jpg	100
3350.538	0.664	663.5	congruent	Block3	congruent/STIM_027.jpg	99
3353.495	0.538	538.0	congruent	Block3	congruent/STIM_028.jpg	99
3356.798	0.664	664.4	congruent	Block3	congruent/STIM_028.jpg	100
3360.914	0.679	678.9	congruent	Block3	congruent/STIM_028.jpg	99
3363.886	0.762	761.8	congruent	Block3	congruent/STIM_028.jpg	100
3367.466	0.652	651.7	congruent	Block3	congruent/STIM_028.jpg	100
3371.362	0.557	557.1	congruent	Block3	congruent/STIM_029.jpg	100
3375.489	0.58	580.3	congruent	Block3	congruent/STIM_029.jpg	100
3378.445	0.719	718.6	congruent	Block3	congruent/STIM_029.jpg	100
3382.896	0.507	507.3	congruent	Block3	congruent/STIM_029.jpg	99
3385.805	0.364	363.6	congruent	Block3	congruent/STIM_029.jpg	99
