onset	duration	accuracy	trial_type	learning_stage	stimulus
0.0	1.567	incorrect	incongruent	Block1	incongruent/STIM_000.jpg
4.252	1.117	correct	incongruent	Block1	incongruent/STIM_000.jpg
8.604	1.539	correct	incongruent	Block1	incongruent/STIM_000.jpg
13.454	0.72	correct	incongruent	Block1	incongruent/STIM_000.jpg
17.683	1.093	correct	incongruent	Block1	incongruent/STIM_000.jpg
22.385	1.371	correct	incongruent	Block1	incongruent/STIM_001.jpg
26.415	1.246	correct	incongruent	Block1	incongruent/STIM_001.jpg
30.821	1.401	correct	incongruent	Block1	incongruent/STIM_001.jpg
35.115	1.213	correct	incongruent	Block1	incongruent/STIM_001.jpg
39.335	1.257	correct	incongruent	Block1	incongruent/STIM_001.jpg
43.415	0.828	correct	incongruent	Block1	incongruent/STIM_002.jpg
47.518	1.507	correct	incongruent	Block1	incongruent/STIM_002.jpg
52.839	0.728	correct	incongruent	Block1	incongruent/STIM_002.jpg
55.587	0.862	correct	incongruent	Block1	incongruent/STIM_002.jpg
59.28	0.866	incorrect	incongruent	Block1	incongruent/STIM_002.jpg
63.573	1.117	correct	incongruent	Block1	incongruent/STIM_003.jpg
67.319	0.902	correct	incongruent	Block1	incongruent/STIM_003.jpg
71.311	1.528	correct	incongruent	Block1	incongruent/STIM_003.jpg
76.71	0.862	incorrect	incongruent	Block1	incongruent/STIM_003.jpg
81.276	0.806	correct	incongruent	Block1	incongruent/STIM_003.jpg
84.472	1.488	correct	incongruent	Block1	incongruent/STIM_004.jpg
89.174	1.622	correct	incongruent	Block1	incongruent/STIM_004.jpg
94.064	0.959	correct	incongruent	Block1	incongruent/STIM_004.jpg
98.062	1.267	correct	incongruent	Block1	incongruent/STIM_004.jpg
101.786	0.733	correct	incongruent	Block1	incongruent/STIM_004.jpg
105.594	1.466	incorrect	incongruent	Block1	incongruent/STIM_005.jpg
110.994	0.811	correct	incongruent	Block1	incongruent/STIM_005.jpg
115.33	0.771	correct	incongruent	Block1	incongruent/STIM_005.jpg
118.22	1.208	correct	incongruent	Block1	incongruent/STIM_005.jpg
122.973	0.883	correct	incongruent	Block1	incongruent/STIM_005.jpg
126.611	1.434	correct	incongruent	Block1	incongruent/STIM_006.jpg
130.713	1.01	correct	incongruent	Block1	incongruent/STIM_006.jpg
134.392	0.857	correct	incongruent	Block1	incongruent/STIM_006.jpg
138.983	1.051	correct	incongruent	Block1	incongruent/STIM_006.jpg
142.331	0.788	correct	incongruent	Block1	incongruent/STIM_006.jpg
146.367	1.46	correct	incongruent	Block1	incongruent/STIM_007.jpg
150.191	1.361	correct	incongruent	Block1	incongruent/STIM_007.jpg
154.534	0.988	correct	incongruent	Block1	incongruent/STIM_007.jpg
158.892	0.87	correct	incongruent	Block1	incongruent/STIM_007.jpg
162.789	0.886	correct	incongruent	Block1	incongruent/STIM_007.jpg
167.01	1.254	correct	incongruent	Block1	incongruent/STIM_008.jpg
170.727	1.18	correct	incongruent	Block1	incongruent/STIM_008.jpg
174.771	1.065	correct	incongruent	Block1	incongruent/STIM_008.jpg
179.743	1.194	correct	incongruent	Block1	incongruent/STIM_008.jpg
184.126	1.199	correct	incongruent	Block1	incongruent/STIM_008.jpg
188.635	1.206	correct	incongruent	Block1	incongruent/STIM_009.jpg
193.829	1.045	correct	incongruent	Block1	incongruent/STIM_009.jpg
197.581	0.893	correct	incongruent	Block1	incongruent/STIM_009.jpg
200.536	1.391	correct	incongruent	Block1	incongruent/STIM_009.jpg
205.926	0.849	correct	incongruent	Block1	incongruent/STIM_009.jpg
210.373	0.898	correct	incongruent	Block1	incongruent/STIM_010.jpg
213.384	0.983	correct	incongruent	Block1	incongruent/STIM_010.jpg
216.722	1.333	correct	incongruent	Block1	incongruent/STIM_010.jpg
220.669	0.737	correct	incongruent	Block1	incongruent/STIM_010.jpg
225.346	1.332	correct	incongruent	Block1	incongruent/STIM_010.jpg
228.816	1.099	correct	incongruent	Block1	incongruent/STIM_011.jpg
233.002	1.06	correct	incongruent	Block1	incongruent/STIM_011.jpg
237.342	1.039	correct	incongruent	Block1	incongruent/STIM_011.jpg
240.578	1.139	correct	incongruent	Block1	incongruent/STIM_011.jpg
245.342	1.187	correct	incongruent	Block1	incongruent/STIM_011.jpg
249.842	0.808	correct	incongruent	Block1	incongruent/STIM_012.jpg
252.906	0.829	correct	incongruent	Block1	incongruent/STIM_012.jpg
256.82	1.352	correct	incongruent	Block1	incongruent/STIM_012.jpg
262.137	0.698	correct	incongruent	Block1	incongruent/STIM_012.jpg
266.168	0.929	correct	incongruent	Block1	incongruent/STIM_012.jpg
269.339	1.048	correct	incongruent	Block1	incongruent/STIM_013.jpg
273.665	1.25	incorrect	incongruent	Block1	incongruent/STIM_013.jpg
277.649	1.331	correct	incongruent	Block1	incongruent/STIM_013.jpg
282.531	1.402	correct	incongruent	Block1	incongruent/STIM_013.jpg
286.647	1.319	correct	incongruent	Block1	incongruent/STIM_013.jpg
290.854	1.252	correct	incongruent	Block1	incongruent/STIM_014.jpg
294.232	1.179	correct	incongruent	Block1	incongruent/STIM_014.jpg
297.577	0.924	correct	incongruent	Block1	incongruent/STIM_014.jpg
300.627	0.857	correct	incongruent	Block1	incongruent/STIM_014.jpg
304.309	1.365	correct	incongruent	Block1	incongruent/STIM_014.jpg
308.617	1.554	correct	incongruent	Block1	incongruent/STIM_015.jpg
312.377	0.892	correct	incongruent	Block1	incongruent/STIM_015.jpg
315.968	1.332	correct	incongruent	Block1	incongruent/STIM_015.jpg
321.002	1.245	correct	incongruent	Block1	incongruent/STIM_015.jpg
325.446	0.982	correct	incongruent	Block1	incongruent/STIM_015.jpg
329.725	1.648	correct	incongruent	Block1	incongruent/STIM_016.jpg
334.424	1.492	correct	incongruent	Block1	incongruent/STIM_016.jpg
339.149	1.03	correct	incongruent	Block1	incongruent/STIM_016.jpg
342.88	1.154	correct	incongruent	Block1	incongruent/STIM_016.jpg
346.841	0.721	correct	incongruent	Block1	incongruent/STIM_016.jpg
350.433	1.027	correct	incongruent	Block1	incongruent/STIM_017.jpg
354.471	1.069	correct	incongruent	Block1	incongruent/STIM_017.jpg
359.444	0.734	correct	incongruent	Block1	incongruent/STIM_017.jpg
362.88	0.833	correct	incongruent	Block1	incongruent/STIM_017.jpg
366.82	1.186	correct	incongruent	Block1	incongruent/STIM_017.jpg
371.55	1.709	correct	incongruent	Block1	incongruent/STIM_018.jpg
376.225	1.635	correct	incongruent	Block1	incongruent/STIM_018.jpg
380.875	0.734	correct	incongruent	Block1	incongruent/STIM_018.jpg
384.935	1.164	correct	incongruent	Block1	incongruent/STIM_018.jpg
388.875	0.651	correct	incongruent	Block1	incongruent/STIM_018.jpg
391.923	1.006	correct	incongruent	Block1	incongruent/STIM_019.jpg
394.962	0.823	correct	incongruent	Block1	incongruent/STIM_019.jpg
399.724	1.344	correct	incongruent	Block1	incongruent/STIM_019.jpg
403.51	1.445	incorrect	incongruent	Block1	incongruent/STIM_019.jpg
407.653	0.973	correct	incongruent	Block1	incongruent/STIM_019.jpg
412.048	0.838	correct	incongruent	Block1	incongruent/STIM_020.jpg
416.808	1.636	correct	incongruent	Block1	incongruent/STIM_020.jpg
420.745	0.747	correct	incongruent	Block1	incongruent/STIM_020.jpg
424.35	1.402	incorrect	incongruent	Block1	incongruent/STIM_020.jpg
427.903	0.751	correct	incongruent	Block1	incongruent/STIM_020.jpg
431.228	1.32	correct	incongruent	Block1	incongruent/STIM_021.jpg
436.096	1.155	correct	incongruent	Block1	incongruent/STIM_021.jpg
440.078	0.922	correct	incongruent	Block1	incongruent/STIM_021.jpg
443.256	0.847	correct	incongruent	Block1	incongruent/STIM_021.jpg
447.582	0.744	correct	incongruent	Block1	incongruent/STIM_021.jpg
451.228	1.611	correct	incongruent	Block1	incongruent/STIM_022.jpg
455.817	0.99	correct	incongruent	Block1	incongruent/STIM_022.jpg
460.201	0.8	correct	incongruent	Block1	incongruent/STIM_022.jpg
463.582	0.989	correct	incongruent	Block1	incongruent/STIM_022.jpg
468.315	1.177	correct	incongruent	Block1	incongruent/STIM_022.jpg
471.922	1.687	correct	incongruent	Block1	incongruent/STIM_023.jpg
477.5	1.434	correct	incongruent	Block1	incongruent/STIM_023.jpg
482.423	1.235	correct	incongruent	Block1	incongruent/STIM_023.jpg
487.078	0.776	incorrect	incongruent	Block1	incongruent/STIM_023.jpg
489.892	0.692	correct	incongruent	Block1	incongruent/STIM_023.jpg
494.302	1.221	correct	incongruent	Block1	incongruent/STIM_024.jpg
499.368	1.314	incorrect	incongruent	Block1	incongruent/STIM_024.jpg
502.696	1.268	correct	incongruent	Block1	incongruent/STIM_024.jpg
506.584	0.849	correct	incongruent	Block1	incongruent/STIM_024.jpg
509.976	0.798	correct	incongruent	Block1	incongruent/STIM_024.jpg
512.816	1.635	correct	incongruent	Block1	incongruent/STIM_025.jpg
516.583	1.396	correct	incongruent	Block1	incongruent/STIM_025.jpg
521.906	1.388	correct	incongruent	Block1	incongruent/STIM_025.jpg
527.074	1.412	correct	incongruent	Block1	incongruent/STIM_025.jpg
532.308	1.041	correct	incongruent	Block1	incongruent/STIM_025.jpg
537.244	1.634	correct	incongruent	Block1	incongruent/STIM_026.jpg
541.373	1.257	correct	incongruent	Block1	incongruent/STIM_026.jpg
544.946	1.431	correct	incongruent	Block1	incongruent/STIM_026.jpg
549.417	1.225	correct	incongruent	Block1	incongruent/STIM_026.jpg
553.411	1.288	correct	incongruent	Block1	incongruent/STIM_026.jpg
557.702	1.358	correct	incongruent	Block1	incongruent/STIM_027.jpg
563.042	0.768	correct	incongruent	Block1	incongruent/STIM_027.jpg
566.009	0.875	correct	incongruent	Block1	incongruent/STIM_027.jpg
570.732	1.357	correct	incongruent	Block1	incongruent/STIM_027.jpg
574.483	1.122	correct	incongruent	Block1	incongruent/STIM_027.jpg
578.572	1.528	correct	incongruent	Block1	incongruent/STIM_028.jpg
582.277	1.585	incorrect	incongruent	Block1	incongruent/STIM_028.jpg
587.177	1.176	correct	incongruent	Block1	incongruent/STIM_028.jpg
590.945	1.083	correct	incongruent	Block1	incongruent/STIM_028.jpg
594.797	1.353	correct	incongruent	Block1	incongruent/STIM_028.jpg
600.13	1.412	correct	incongruent	Block1	incongruent/STIM_029.jpg
604.128	0.782	correct	incongruent	Block1	incongruent/STIM_029.jpg
607.66	1.063	correct	incongruent	Block1	incongruent/STIM_029.jpg
612.689	1.07	correct	incongruent	Block1	incongruent/STIM_029.jpg
616.689	0.679	correct	incongruent	Block1	incongruent/STIM_029.jpg
619.723	0.655	correct	congruent	Block1	congruent/STIM_000.jpg
624.053	0.796	correct	congruent	Block1	congruent/STIM_000.jpg
628.126	0.994	correct	congruent	Block1	congruent/STIM_000.jpg
633.071	0.659	correct	congruent	Block1	congruent/STIM_000.jpg
636.713	0.988	correct	congruent	Block1	congruent/STIM_000.jpg
641.628	1.004	correct	congruent	Block1	congruent/STIM_001.jpg
644.935	0.666	correct	congruent	Block1	congruent/STIM_001.jpg
647.961	0.712	correct	congruent	Block1	congruent/STIM_001.jpg
652.329	0.582	correct	congruent	Block1	congruent/STIM_001.jpg
655.754	0.76	correct	congruent	Block1	congruent/STIM_001.jpg
659.665	0.677	correct	congruent	Block1	congruent/STIM_002.jpg
663.8	0.616	correct	congruent	Block1	congruent/STIM_002.jpg
667.221	0.949	correct	congruent	Block1	congruent/STIM_002.jpg
670.328	0.602	correct	congruent	Block1	congruent/STIM_002.jpg
674.761	0.895	correct	congruent	Block1	congruent/STIM_002.jpg
679.134	0.598	correct	congruent	Block1	congruent/STIM_003.jpg
683.046	0.856	correct	congruent	Block1	congruent/STIM_003.jpg
687.669	0.76	correct	congruent	Block1	congruent/STIM_003.jpg
690.685	0.834	correct	congruent	Block1	congruent/STIM_003.jpg
694.168	0.656	correct	congruent	Block1	congruent/STIM_003.jpg
697.148	0.614	correct	congruent	Block1	congruent/STIM_004.jpg
700.219	1.021	correct	congruent	Block1	congruent/STIM_004.jpg
703.61	0.62	correct	congruent	Block1	congruent/STIM_004.jpg
707.602	0.861	incorrect	congruent	Block1	congruent/STIM_004.jpg
712.144	0.753	correct	congruent	Block1	congruent/STIM_004.jpg
715.544	0.714	correct	congruent	Block1	congruent/STIM_005.jpg
718.728	0.92	correct	congruent	Block1	congruent/STIM_005.jpg
722.362	0.921	correct	congruent	Block1	congruent/STIM_005.jpg
726.091	0.776	correct	congruent	Block1	congruent/STIM_005.jpg
729.05	0.99	correct	congruent	Block1	congruent/STIM_005.jpg
732.517	0.618	correct	congruent	Block1	congruent/STIM_006.jpg
736.499	0.859	correct	congruent	Block1	congruent/STIM_006.jpg
740.576	0.619	correct	congruent	Block1	congruent/STIM_006.jpg
745.054	0.969	correct	congruent	Block1	congruent/STIM_006.jpg
748.169	0.766	correct	congruent	Block1	congruent/STIM_006.jpg
750.939	0.601	correct	congruent	Block1	congruent/STIM_007.jpg
754.184	0.626	correct	congruent	Block1	congruent/STIM_007.jpg
758.655	0.856	correct	congruent	Block1	congruent/STIM_007.jpg
762.131	0.696	correct	congruent	Block1	congruent/STIM_007.jpg
765.135	1.001	correct	congruent	Block1	congruent/STIM_007.jpg
769.099	0.882	correct	congruent	Block1	congruent/STIM_008.jpg
773.183	0.782	correct	congruent	Block1	congruent/STIM_008.jpg
776.136	0.625	correct	congruent	Block1	congruent/STIM_008.jpg
779.501	0.677	correct	congruent	Block1	congruent/STIM_008.jpg
782.979	0.74	correct	congruent	Block1	congruent/STIM_008.jpg
786.571	0.641	correct	congruent	Block1	congruent/STIM_009.jpg
791.121	0.663	incorrect	congruent	Block1	congruent/STIM_009.jpg
794.166	0.99	correct	congruent	Block1	congruent/STIM_009.jpg
797.628	0.944	correct	congruent	Block1	congruent/STIM_009.jpg
800.967	0.79	incorrect	congruent	Block1	congruent/STIM_009.jpg
804.597	0.808	correct	congruent	Block1	congruent/STIM_010.jpg
808.793	0.806	correct	congruent	Block1	congruent/STIM_010.jpg
812.989	0.676	correct	congruent	Block1	congruent/STIM_010.jpg
817.097	0.756	correct	congruent	Block1	congruent/STIM_010.jpg
821.686	0.941	correct	congruent	Block1	congruent/STIM_010.jpg
825.909	1.029	correct	congruent	Block1	congruent/STIM_011.jpg
829.8	0.951	correct	congruent	Block1	congruent/STIM_011.jpg
833.977	0.714	incorrect	congruent	Block1	congruent/STIM_011.jpg
838.429	0.798	correct	congruent	Block1	congruent/STIM_011.jpg
842.657	0.872	correct	congruent	Block1	congruent/STIM_011.jpg
845.853	0.945	correct	congruent	Block1	congruent/STIM_012.jpg
850.624	0.928	correct	congruent	Block1	congruent/STIM_012.jpg
855.258	0.861	correct	congruent	Block1	congruent/STIM_012.jpg
859.163	0.985	correct	congruent	Block1	congruent/STIM_012.jpg
863.711	0.691	correct	congruent	Block1	congruent/STIM_012.jpg
867.515	0.807	incorrect	congruent	Block1	congruent/STIM_013.jpg
870.418	0.882	correct	congruent	Block1	congruent/STIM_013.jpg
875.043	0.833	correct	congruent	Block1	congruent/STIM_013.jpg
878.392	0.749	correct	congruent	Block1	congruent/STIM_013.jpg
881.155	0.938	correct	congruent	Block1	congruent/STIM_013.jpg
884.369	0.954	correct	congruent	Block1	congruent/STIM_014.jpg
887.632	0.645	correct	congruent	Block1	congruent/STIM_014.jpg
891.515	0.77	correct	congruent	Block1	congruent/STIM_014.jpg
895.641	0.951	correct	congruent	Block1	congruent/STIM_014.jpg
899.805	0.757	correct	congruent	Block1	congruent/STIM_014.jpg
903.913	1.028	correct	congruent	Block1	congruent/STIM_015.jpg
906.956	0.912	correct	congruent	Block1	congruent/STIM_015.jpg
910.362	0.956	correct	congruent	Block1	congruent/STIM_015.jpg
914.65	0.943	correct	congruent	Block1	congruent/STIM_015.jpg
918.644	0.67	correct	congruent	Block1	congruent/STIM_015.jpg
922.573	0.941	correct	congruent	Block1	congruent/STIM_016.jpg
927.363	0.578	correct	congruent	Block1	congruent/STIM_016.jpg
931.689	1.009	correct	congruent	Block1	congruent/STIM_016.jpg
936.428	0.696	correct	congruent	Block1	congruent/STIM_016.jpg
940.114	0.955	correct	congruent	Block1	congruent/STIM_016.jpg
943.845	0.714	correct	congruent	Block1	congruent/STIM_017.jpg
947.517	0.926	correct	congruent	Block1	congruent/STIM_017.jpg
951.464	0.841	correct	congruent	Block1	congruent/STIM_017.jpg
954.627	0.75	correct	congruent	Block1	congruent/STIM_017.jpg
958.439	0.796	correct	congruent	Block1	congruent/STIM_017.jpg
961.555	0.978	correct	congruent	Block1	congruent/STIM_018.jpg
964.993	0.655	correct	congruent	Block1	congruent/STIM_018.jpg
969.164	0.968	correct	congruent	Block1	congruent/STIM_018.jpg
972.438	0.877	correct	congruent	Block1	congruent/STIM_018.jpg
975.801	0.842	correct	congruent	Block1	congruent/STIM_018.jpg
978.898	0.793	correct	congruent	Block1	congruent/STIM_019.jpg
982.987	0.809	correct	congruent	Block1	congruent/STIM_019.jpg
986.867	0.991	correct	congruent	Block1	congruent/STIM_019.jpg
990.931	0.764	correct	congruent	Block1	congruent/STIM_019.jpg
993.84	0.577	correct	congruent	Block1	congruent/STIM_019.jpg
997.895	1.007	correct	congruent	Block1	congruent/STIM_020.jpg
1001.655	0.666	incorrect	congruent	Block1	congruent/STIM_020.jpg
1005.847	0.604	correct	congruent	Block1	congruent/STIM_020.jpg
1009.613	0.763	correct	congruent	Block1	congruent/STIM_020.jpg
1012.485	0.592	correct	congruent	Block1	congruent/STIM_020.jpg
1016.649	0.628	correct	congruent	Block1	congruent/STIM_021.jpg
1020.849	0.824	correct	congruent	Block1	congruent/STIM_021.jpg
1023.839	0.63	correct	congruent	Block1	congruent/STIM_021.jpg
1026.785	0.723	correct	congruent	Block1	congruent/STIM_021.jpg
1030.405	1.023	correct	congruent	Block1	congruent/STIM_021.jpg
1033.956	1.012	correct	congruent	Block1	congruent/STIM_022.jpg
1038.852	0.628	correct	congruent	Block1	congruent/STIM_022.jpg
1042.304	0.663	correct	congruent	Block1	congruent/STIM_022.jpg
1045.681	1.027	correct	congruent	Block1	congruent/STIM_022.jpg
1049.297	0.905	correct	congruent	Block1	congruent/STIM_022.jpg
1053.121	0.722	correct	congruent	Block1	congruent/STIM_023.jpg
1056.339	0.655	correct	congruent	Block1	congruent/STIM_023.jpg
1060.868	0.878	correct	congruent	Block1	congruent/STIM_023.jpg
1064.147	0.905	correct	congruent	Block1	congruent/STIM_023.jpg
1068.252	1.025	correct	congruent	Block1	congruent/STIM_023.jpg
1071.986	0.805	correct	congruent	Block1	congruent/STIM_024.jpg
1075.761	0.652	correct	congruent	Block1	congruent/STIM_024.jpg
1080.121	0.804	correct	congruent	Block1	congruent/STIM_024.jpg
1083.278	0.721	correct	congruent	Block1	congruent/STIM_024.jpg
1087.95	0.596	correct	congruent	Block1	congruent/STIM_024.jpg
1091.83	0.984	correct	congruent	Block1	congruent/STIM_025.jpg
1096.485	0.789	correct	congruent	Block1	congruent/STIM_025.jpg
1099.966	0.961	correct	congruent	Block1	congruent/STIM_025.jpg
1104.072	1.029	correct	congruent	Block1	congruent/STIM_025.jpg
1108.808	0.818	correct	congruent	Block1	congruent/STIM_025.jpg
1112.252	1.032	incorrect	congruent	Block1	congruent/STIM_026.jpg
1116.506	0.836	incorrect	congruent	Block1	congruent/STIM_026.jpg
1121.264	1.023	correct	congruent	Block1	congruent/STIM_026.jpg
1126.235	0.73	correct	congruent	Block1	congruent/STIM_026.jpg
1129.188	0.663	correct	congruent	Block1	congruent/STIM_026.jpg
1133.088	0.647	correct	congruent	Block1	congruent/STIM_027.jpg
1135.845	0.997	correct	congruent	Block1	congruent/STIM_027.jpg
1140.482	0.876	correct	congruent	Block1	congruent/STIM_027.jpg
1143.759	0.967	correct	congruent	Block1	congruent/STIM_027.jpg
1147.486	0.733	correct	congruent	Block1	congruent/STIM_027.jpg
1151.689	0.736	incorrect	congruent	Block1	congruent/STIM_028.jpg
1156.006	0.76	correct	congruent	Block1	congruent/STIM_028.jpg
1159.779	0.748	correct	congruent	Block1	congruent/STIM_028.jpg
1163.941	0.914	correct	congruent	Block1	congruent/STIM_028.jpg
1168.612	1.023	correct	congruent	Block1	congruent/STIM_028.jpg
1173.2	0.768	correct	congruent	Block1	congruent/STIM_029.jpg
1176.534	0.873	correct	congruent	Block1	congruent/STIM_029.jpg
1180.103	0.605	correct	congruent	Block1	congruent/STIM_029.jpg
1184.631	0.969	correct	congruent	Block1	congruent/STIM_029.jpg
1188.024	0.884	correct	congruent	Block1	congruent/STIM_029.jpg
1192.306	1.188	correct	incongruent	Block2	incongruent/STIM_000.jpg
1195.855	0.979	correct	incongruent	Block2	incongruent/STIM_000.jpg
1199.504	0.88	correct	incongruent	Block2	incongruent/STIM_000.jpg
1203.959	0.585	correct	incongruent	Block2	incongruent/STIM_000.jpg
1208.155	0.771	correct	incongruent	Block2	incongruent/STIM_000.jpg
1211.264	1.032	correct	incongruent	Block2	incongruent/STIM_001.jpg
1214.95	0.669	correct	incongruent	Block2	incongruent/STIM_001.jpg
1219.018	1.03	correct	incongruent	Block2	incongruent/STIM_001.jpg
1222.062	0.781	correct	incongruent	Block2	incongruent/STIM_001.jpg
1225.742	0.671	correct	incongruent	Block2	incongruent/STIM_001.jpg
1229.229	1.265	correct	incongruent	Block2	incongruent/STIM_002.jpg
1233.337	0.874	correct	incongruent	Block2	incongruent/STIM_002.jpg
1237.343	1.133	correct	incongruent	Block2	incongruent/STIM_002.jpg
1240.991	1.194	correct	incongruent	Block2	incongruent/STIM_002.jpg
1245.216	0.631	correct	incongruent	Block2	incongruent/STIM_002.jpg
1248.902	0.924	correct	incongruent	Block2	incongruent/STIM_003.jpg
1253.621	1.146	incorrect	incongruent	Block2	incongruent/STIM_003.jpg
1258.151	0.892	correct	incongruent	Block2	incongruent/STIM_003.jpg
1261.06	0.566	correct	incongruent	Block2	incongruent/STIM_003.jpg
1265.49	0.585	incorrect	incongruent	Block2	incongruent/STIM_003.jpg
1269.489	0.99	correct	incongruent	Block2	incongruent/STIM_004.jpg
1273.863	1.198	correct	incongruent	Block2	incongruent/STIM_004.jpg
1277.873	0.728	correct	incongruent	Block2	incongruent/STIM_004.jpg
1280.708	0.634	correct	incongruent	Block2	incongruent/STIM_004.jpg
1283.353	0.949	correct	incongruent	Block2	incongruent/STIM_004.jpg
1288.13	0.792	correct	incongruent	Block2	incongruent/STIM_005.jpg
1291.518	1.134	incorrect	incongruent	Block2	incongruent/STIM_005.jpg
1296.238	0.673	correct	incongruent	Block2	incongruent/STIM_005.jpg
1300.535	0.655	correct	incongruent	Block2	incongruent/STIM_005.jpg
1304.387	0.73	correct	incongruent	Block2	incongruent/STIM_005.jpg
1308.057	0.769	correct	incongruent	Block2	incongruent/STIM_006.jpg
1312.31	1.23	correct	incongruent	Block2	incongruent/STIM_006.jpg
1316.286	0.606	correct	incongruent	Block2	incongruent/STIM_006.jpg
1319.877	0.732	correct	incongruent	Block2	incongruent/STIM_006.jpg
1322.708	1.113	correct	incongruent	Block2	incongruent/STIM_006.jpg
1327.461	0.808	correct	incongruent	Block2	incongruent/STIM_007.jpg
1332.161	1.22	correct	incongruent	Block2	incongruent/STIM_007.jpg
1337.35	0.832	correct	incongruent	Block2	incongruent/STIM_007.jpg
1340.888	0.877	correct	incongruent	Block2	incongruent/STIM_007.jpg
1344.711	1.013	correct	incongruent	Block2	incongruent/STIM_007.jpg
1349.531	1.007	correct	incongruent	Block2	incongruent/STIM_008.jpg
1352.657	1.299	correct	incongruent	Block2	incongruent/STIM_008.jpg
1356.099	1.154	correct	incongruent	Block2	incongruent/STIM_008.jpg
1359.56	0.913	correct	incongruent	Block2	incongruent/STIM_008.jpg
1363.23	0.588	correct	incongruent	Block2	incongruent/STIM_008.jpg
1367.646	1.307	correct	incongruent	Block2	incongruent/STIM_009.jpg
1371.967	0.881	correct	incongruent	Block2	incongruent/STIM_009.jpg
1376.541	0.604	correct	incongruent	Block2	incongruent/STIM_009.jpg
1379.353	1.106	incorrect	incongruent	Block2	incongruent/STIM_009.jpg
1383.803	0.916	correct	incongruent	Block2	incongruent/STIM_009.jpg
1388.263	1.286	correct	incongruent	Block2	incongruent/STIM_010.jpg
1391.645	0.951	correct	incongruent	Block2	incongruent/STIM_010.jpg
1394.884	1.277	incorrect	incongruent	Block2	incongruent/STIM_010.jpg
1398.534	1.044	correct	incongruent	Block2	incongruent/STIM_010.jpg
1402.123	1.19	incorrect	incongruent	Block2	incongruent/STIM_010.jpg
1406.118	1.346	correct	incongruent	Block2	incongruent/STIM_011.jpg
1409.902	1.048	correct	incongruent	Block2	incongruent/STIM_011.jpg
1413.598	1.138	correct	incongruent	Block2	incongruent/STIM_011.jpg
1418.281	0.595	correct	incongruent	Block2	incongruent/STIM_011.jpg
1422.72	0.846	correct	incongruent	Block2	incongruent/STIM_011.jpg
1425.672	0.945	correct	incongruent	Block2	incongruent/STIM_012.jpg
1428.802	1.352	correct	incongruent	Block2	incongruent/STIM_012.jpg
1432.323	1.103	correct	incongruent	Block2	incongruent/STIM_012.jpg
1435.546	0.806	correct	incongruent	Block2	incongruent/STIM_012.jpg
1440.295	0.698	correct	incongruent	Block2	incongruent/STIM_012.jpg
1443.144	1.443	correct	incongruent	Block2	incongruent/STIM_013.jpg
1447.246	1.037	correct	incongruent	Block2	incongruent/STIM_013.jpg
1451.456	0.834	correct	incongruent	Block2	incongruent/STIM_013.jpg
1455.587	1.163	correct	incongruent	Block2	incongruent/STIM_013.jpg
1458.776	0.662	correct	incongruent	Block2	incongruent/STIM_013.jpg
1462.82	0.831	correct	incongruent	Block2	incongruent/STIM_014.jpg
1466.575	1.005	correct	incongruent	Block2	incongruent/STIM_014.jpg
1470.738	1.122	correct	incongruent	Block2	incongruent/STIM_014.jpg
1475.026	0.855	correct	incongruent	Block2	incongruent/STIM_014.jpg
1479.304	0.712	correct	incongruent	Block2	incongruent/STIM_014.jpg
1483.669	1.275	incorrect	incongruent	Block2	incongruent/STIM_015.jpg
1487.62	1.191	correct	incongruent	Block2	incongruent/STIM_015.jpg
1492.698	1.188	correct	incongruent	Block2	incongruent/STIM_015.jpg
1497.394	0.771	correct	incongruent	Block2	incongruent/STIM_015.jpg
1500.426	0.727	correct	incongruent	Block2	incongruent/STIM_015.jpg
1503.415	1.284	correct	incongruent	Block2	incongruent/STIM_016.jpg
1508.397	1.11	correct	incongruent	Block2	incongruent/STIM_016.jpg
1512.695	1.038	incorrect	incongruent	Block2	incongruent/STIM_016.jpg
1516.681	1.049	correct	incongruent	Block2	incongruent/STIM_016.jpg
1520.114	1.151	correct	incongruent	Block2	incongruent/STIM_016.jpg
1524.977	0.78	correct	incongruent	Block2	incongruent/STIM_017.jpg
1529.268	1.331	correct	incongruent	Block2	incongruent/STIM_017.jpg
1533.041	1.031	correct	incongruent	Block2	incongruent/STIM_017.jpg
1537.433	0.984	correct	incongruent	Block2	incongruent/STIM_017.jpg
1541.79	1.102	correct	incongruent	Block2	incongruent/STIM_017.jpg
1546.161	1.128	correct	incongruent	Block2	incongruent/STIM_018.jpg
1549.963	1.051	correct	incongruent	Block2	incongruent/STIM_018.jpg
1553.857	1.265	correct	incongruent	Block2	incongruent/STIM_018.jpg
1557.939	1.095	correct	incongruent	Block2	incongruent/STIM_018.jpg
1561.644	0.947	correct	incongruent	Block2	incongruent/STIM_018.jpg
1565.197	0.738	correct	incongruent	Block2	incongruent/STIM_019.jpg
1568.615	0.671	correct	incongruent	Block2	incongruent/STIM_019.jpg
1572.542	1.035	correct	incongruent	Block2	incongruent/STIM_019.jpg
1575.968	0.984	correct	incongruent	Block2	incongruent/STIM_019.jpg
1580.622	0.629	correct	incongruent	Block2	incongruent/STIM_019.jpg
1584.676	0.949	incorrect	incongruent	Block2	incongruent/STIM_020.jpg
1589.03	1.291	correct	incongruent	Block2	incongruent/STIM_020.jpg
1593.776	0.791	correct	incongruent	Block2	incongruent/STIM_020.jpg
1598.099	0.611	correct	incongruent	Block2	incongruent/STIM_020.jpg
1601.609	1.018	correct	incongruent	Block2	incongruent/STIM_020.jpg
1606.542	1.024	correct	incongruent	Block2	incongruent/STIM_021.jpg
1610.012	0.847	correct	incongruent	Block2	incongruent/STIM_021.jpg
1613.984	1.24	incorrect	incongruent	Block2	incongruent/STIM_021.jpg
1617.24	0.747	correct	incongruent	Block2	incongruent/STIM_021.jpg
1620.67	1.091	correct	incongruent	Block2	incongruent/STIM_021.jpg
1624.981	1.399	correct	incongruent	Block2	incongruent/STIM_022.jpg
1629.71	0.92	correct	incongruent	Block2	incongruent/STIM_022.jpg
1634.222	1.04	correct	incongruent	Block2	incongruent/STIM_022.jpg
1637.768	0.564	correct	incongruent	Block2	incongruent/STIM_022.jpg
1641.667	0.708	correct	incongruent	Block2	incongruent/STIM_022.jpg
1644.975	0.686	correct	incongruent	Block2	incongruent/STIM_023.jpg
1648.147	1.028	correct	incongruent	Block2	incongruent/STIM_023.jpg
1651.336	0.76	correct	incongruent	Block2	incongruent/STIM_023.jpg
1654.462	1.071	correct	incongruent	Block2	incongruent/STIM_023.jpg
1659.456	1.088	correct	incongruent	Block2	incongruent/STIM_023.jpg
1664.373	0.89	correct	incongruent	Block2	incongruent/STIM_024.jpg
1667.871	1.17	correct	incongruent	Block2	incongruent/STIM_024.jpg
1671.647	0.786	correct	incongruent	Block2	incongruent/STIM_024.jpg
1675.127	0.637	correct	incongruent	Block2	incongruent/STIM_024.jpg
1678.786	1.139	correct	incongruent	Block2	incongruent/STIM_024.jpg
1682.676	0.928	correct	incongruent	Block2	incongruent/STIM_025.jpg
1686.647	1.068	correct	incongruent	Block2	incongruent/STIM_025.jpg
1690.434	0.701	correct	incongruent	Block2	incongruent/STIM_025.jpg
1694.782	0.994	correct	incongruent	Block2	incongruent/STIM_025.jpg
1698.997	0.72	correct	incongruent	Block2	incongruent/STIM_025.jpg
1701.784	0.877	correct	incongruent	Block2	incongruent/STIM_026.jpg
1705.234	0.736	correct	incongruent	Block2	incongruent/STIM_026.jpg
1708.253	0.727	correct	incongruent	Block2	incongruent/STIM_026.jpg
1712.217	1.028	correct	incongruent	Block2	incongruent/STIM_026.jpg
1715.934	1.125	correct	incongruent	Block2	incongruent/STIM_026.jpg
1719.65	1.392	correct	incongruent	Block2	incongruent/STIM_027.jpg
1723.851	0.729	correct	incongruent	Block2	incongruent/STIM_027.jpg
1727.888	1.026	correct	incongruent	Block2	incongruent/STIM_027.jpg
1732.54	0.743	correct	incongruent	Block2	incongruent/STIM_027.jpg
1736.553	1.013	correct	incongruent	Block2	incongruent/STIM_027.jpg
1740.894	1.331	correct	incongruent	Block2	incongruent/STIM_028.jpg
1745.262	1.137	correct	incongruent	Block2	incongruent/STIM_028.jpg
1750.24	1.158	correct	incongruent	Block2	incongruent/STIM_028.jpg
1754.19	0.983	correct	incongruent	Block2	incongruent/STIM_028.jpg
1758.774	0.776	correct	incongruent	Block2	incongruent/STIM_028.jpg
1761.584	0.689	correct	incongruent	Block2	incongruent/STIM_029.jpg
1765.389	1.349	correct	incongruent	Block2	incongruent/STIM_029.jpg
1769.272	0.88	correct	incongruent	Block2	incongruent/STIM_029.jpg
1772.59	0.962	correct	incongruent	Block2	incongruent/STIM_029.jpg
1776.604	1.158	correct	incongruent	Block2	incongruent/STIM_029.jpg
1780.599	0.746	correct	congruent	Block2	congruent/STIM_000.jpg
1785.075	0.839	correct	congruent	Block2	congruent/STIM_000.jpg
1788.825	0.95	correct	congruent	Block2	congruent/STIM_000.jpg
1792.369	0.659	correct	congruent	Block2	congruent/STIM_000.jpg
1795.328	0.934	correct	congruent	Block2	congruent/STIM_000.jpg
1799.35	0.84	correct	congruent	Block2	congruent/STIM_001.jpg
1802.982	0.578	correct	congruent	Block2	congruent/STIM_001.jpg
1806.745	0.902	correct	congruent	Block2	congruent/STIM_001.jpg
1810.297	0.958	correct	congruent	Block2	congruent/STIM_001.jpg
1814.538	0.861	incorrect	congruent	Block2	congruent/STIM_001.jpg
1817.99	0.695	correct	congruent	Block2	congruent/STIM_002.jpg
1821.976	0.947	correct	congruent	Block2	congruent/STIM_002.jpg
1826.091	0.773	correct	congruent	Block2	congruent/STIM_002.jpg
1830.026	0.899	correct	congruent	Block2	congruent/STIM_002.jpg
1834.162	0.728	correct	congruent	Block2	congruent/STIM_002.jpg
1837.963	1.002	correct	congruent	Block2	congruent/STIM_003.jpg
1841.273	0.888	correct	congruent	Block2	congruent/STIM_003.jpg
1844.465	0.718	correct	congruent	Block2	congruent/STIM_003.jpg
1848.462	0.704	correct	congruent	Block2	congruent/STIM_003.jpg
1851.839	0.902	correct	congruent	Block2	congruent/STIM_003.jpg
1854.989	0.828	correct	congruent	Block2	congruent/STIM_004.jpg
1859.449	0.966	correct	congruent	Block2	congruent/STIM_004.jpg
1863.13	0.668	correct	congruent	Block2	congruent/STIM_004.jpg
1865.918	0.595	correct	congruent	Block2	congruent/STIM_004.jpg
1869.698	0.683	correct	congruent	Block2	congruent/STIM_004.jpg
1872.72	0.722	correct	congruent	Block2	congruent/STIM_005.jpg
1877.071	0.842	correct	congruent	Block2	congruent/STIM_005.jpg
1880.535	0.698	correct	congruent	Block2	congruent/STIM_005.jpg
1883.476	0.754	correct	congruent	Block2	congruent/STIM_005.jpg
1887.649	0.673	correct	congruent	Block2	congruent/STIM_005.jpg
1891.172	1.001	correct	congruent	Block2	congruent/STIM_006.jpg
1895.55	0.728	correct	congruent	Block2	congruent/STIM_006.jpg
1899.288	0.601	correct	congruent	Block2	congruent/STIM_006.jpg
1903.048	0.727	correct	congruent	Block2	congruent/STIM_006.jpg
1906.73	0.645	correct	congruent	Block2	congruent/STIM_006.jpg
1911.253	0.905	correct	congruent	Block2	congruent/STIM_007.jpg
1914.561	0.67	correct	congruent	Block2	congruent/STIM_007.jpg
1919.126	0.79	correct	congruent	Block2	congruent/STIM_007.jpg
1923.219	0.858	correct	congruent	Block2	congruent/STIM_007.jpg
1926.532	0.762	correct	congruent	Block2	congruent/STIM_007.jpg
1930.486	0.607	correct	congruent	Block2	congruent/STIM_008.jpg
1933.531	0.649	correct	congruent	Block2	congruent/STIM_008.jpg
1937.572	0.882	correct	congruent	Block2	congruent/STIM_008.jpg
1941.284	0.866	correct	congruent	Block2	congruent/STIM_008.jpg
1946.074	0.734	correct	congruent	Block2	congruent/STIM_008.jpg
1949.533	0.591	correct	congruent	Block2	congruent/STIM_009.jpg
1952.326	0.886	correct	congruent	Block2	congruent/STIM_009.jpg
1955.602	0.655	correct	congruent	Block2	congruent/STIM_009.jpg
1959.933	0.598	correct	congruent	Block2	congruent/STIM_009.jpg
1963.381	0.859	correct	congruent	Block2	congruent/STIM_009.jpg
1967.451	0.667	correct	congruent	Block2	congruent/STIM_010.jpg
1971.946	0.726	correct	congruent	Block2	congruent/STIM_010.jpg
1975.545	0.664	correct	congruent	Block2	congruent/STIM_010.jpg
1978.759	0.619	correct	congruent	Block2	congruent/STIM_010.jpg
1982.478	0.808	correct	congruent	Block2	congruent/STIM_010.jpg
1985.331	0.697	correct	congruent	Block2	congruent/STIM_011.jpg
1988.495	0.753	correct	congruent	Block2	congruent/STIM_011.jpg
1992.376	0.786	correct	congruent	Block2	congruent/STIM_011.jpg
1995.659	0.801	correct	congruent	Block2	congruent/STIM_011.jpg
1999.476	1.034	incorrect	congruent	Block2	congruent/STIM_011.jpg
2002.567	0.815	correct	congruent	Block2	congruent/STIM_012.jpg
2006.39	0.876	correct	congruent	Block2	congruent/STIM_012.jpg
2009.706	0.675	correct	congruent	Block2	congruent/STIM_012.jpg
2012.608	0.687	correct	congruent	Block2	congruent/STIM_012.jpg
2017.12	0.748	correct	congruent	Block2	congruent/STIM_012.jpg
2021.33	0.744	correct	congruent	Block2	congruent/STIM_013.jpg
2025.199	0.732	correct	congruent	Block2	congruent/STIM_013.jpg
2028.566	0.94	correct	congruent	Block2	congruent/STIM_013.jpg
2032.978	0.726	correct	congruent	Block2	congruent/STIM_013.jpg
2037.236	0.631	correct	congruent	Block2	congruent/STIM_013.jpg
2040.988	0.604	correct	congruent	Block2	congruent/STIM_014.jpg
2043.965	0.879	correct	congruent	Block2	congruent/STIM_014.jpg
2047.001	0.934	correct	congruent	Block2	congruent/STIM_014.jpg
2050.222	0.834	correct	congruent	Block2	congruent/STIM_014.jpg
2054.537	1.002	correct	congruent	Block2	congruent/STIM_014.jpg
2058.553	0.672	correct	congruent	Block2	congruent/STIM_015.jpg
2061.378	0.961	correct	congruent	Block2	congruent/STIM_015.jpg
2066.263	0.649	correct	congruent	Block2	congruent/STIM_015.jpg
2070.867	0.823	correct	congruent	Block2	congruent/STIM_015.jpg
2074.818	1.026	correct	congruent	Block2	congruent/STIM_015.jpg
2079.611	0.708	correct	congruent	Block2	congruent/STIM_016.jpg
2083.217	0.688	incorrect	congruent	Block2	congruent/STIM_016.jpg
2086.727	0.725	correct	congruent	Block2	congruent/STIM_016.jpg
2089.935	0.744	correct	congruent	Block2	congruent/STIM_016.jpg
2093.197	0.779	correct	congruent	Block2	congruent/STIM_016.jpg
2096.399	0.897	correct	congruent	Block2	congruent/STIM_017.jpg
2101.088	0.941	correct	congruent	Block2	congruent/STIM_017.jpg
2104.592	0.724	correct	congruent	Block2	congruent/STIM_017.jpg
2108.123	0.862	correct	congruent	Block2	congruent/STIM_017.jpg
2112.514	0.76	correct	congruent	Block2	congruent/STIM_017.jpg
2115.426	0.67	correct	congruent	Block2	congruent/STIM_018.jpg
2119.883	0.821	correct	congruent	Block2	congruent/STIM_018.jpg
2124.065	1.012	correct	congruent	Block2	congruent/STIM_018.jpg
2127.286	0.684	correct	congruent	Block2	congruent/STIM_018.jpg
2131.956	0.641	correct	congruent	Block2	congruent/STIM_018.jpg
2135.055	0.913	correct	congruent	Block2	congruent/STIM_019.jpg
2138.819	0.994	correct	congruent	Block2	congruent/STIM_019.jpg
2142.857	0.631	correct	congruent	Block2	congruent/STIM_019.jpg
2145.556	0.843	correct	congruent	Block2	congruent/STIM_019.jpg
2148.433	0.938	correct	congruent	Block2	congruent/STIM_019.jpg
2152.661	0.578	correct	congruent	Block2	congruent/STIM_020.jpg
2156.72	0.908	correct	congruent	Block2	congruent/STIM_020.jpg
2160.301	0.838	correct	congruent	Block2	congruent/STIM_020.jpg
2164.135	0.922	correct	congruent	Block2	congruent/STIM_020.jpg
2168.486	0.924	correct	congruent	Block2	congruent/STIM_020.jpg
2171.945	0.809	correct	congruent	Block2	congruent/STIM_021.jpg
2176.379	0.794	correct	congruent	Block2	congruent/STIM_021.jpg
2180.491	0.953	incorrect	congruent	Block2	congruent/STIM_021.jpg
2183.886	0.957	correct	congruent	Block2	congruent/STIM_021.jpg
2186.915	0.649	correct	congruent	Block2	congruent/STIM_021.jpg
2189.782	0.651	incorrect	congruent	Block2	congruent/STIM_022.jpg
2192.889	0.953	correct	congruent	Block2	congruent/STIM_022.jpg
2196.947	0.693	correct	congruent	Block2	congruent/STIM_022.jpg
2200.597	0.595	correct	congruent	Block2	congruent/STIM_022.jpg
2203.259	0.667	correct	congruent	Block2	congruent/STIM_022.jpg
2206.175	0.955	correct	congruent	Block2	congruent/STIM_023.jpg
2210.298	0.764	correct	congruent	Block2	congruent/STIM_023.jpg
2214.789	0.812	correct	congruent	Block2	congruent/STIM_023.jpg
2219.307	0.837	correct	congruent	Block2	congruent/STIM_023.jpg
2223.743	0.693	incorrect	congruent	Block2	congruent/STIM_023.jpg
2228.375	0.728	correct	congruent	Block2	congruent/STIM_024.jpg
2231.213	1.004	correct	congruent	Block2	congruent/STIM_024.jpg
2235.032	0.796	correct	congruent	Block2	congruent/STIM_024.jpg
2238.24	0.982	correct	congruent	Block2	congruent/STIM_024.jpg
2243.092	0.724	correct	congruent	Block2	congruent/STIM_024.jpg
2247.294	0.735	correct	congruent	Block2	congruent/STIM_025.jpg
2251.975	0.689	correct	congruent	Block2	congruent/STIM_025.jpg
2256.3	0.73	correct	congruent	Block2	congruent/STIM_025.jpg
2260.123	0.701	correct	congruent	Block2	congruent/STIM_025.jpg
2263.273	0.954	correct	congruent	Block2	congruent/STIM_025.jpg
2266.992	0.789	correct	congruent	Block2	congruent/STIM_026.jpg
2270.381	0.91	correct	congruent	Block2	congruent/STIM_026.jpg
2275.209	0.73	correct	congruent	Block2	congruent/STIM_026.jpg
2279.912	1.023	correct	congruent	Block2	congruent/STIM_026.jpg
2284.307	0.815	incorrect	congruent	Block2	congruent/STIM_026.jpg
2287.144	0.865	correct	congruent	Block2	congruent/STIM_027.jpg
2290.504	0.972	correct	congruent	Block2	congruent/STIM_027.jpg
2294.701	0.736	correct	congruent	Block2	congruent/STIM_027.jpg
2298.22	0.677	correct	congruent	Block2	congruent/STIM_027.jpg
2301.783	0.609	correct	congruent	Block2	congruent/STIM_027.jpg
2306.026	0.731	correct	congruent	Block2	congruent/STIM_028.jpg
2310.654	0.932	correct	congruent	Block2	congruent/STIM_028.jpg
2314.932	0.745	correct	congruent	Block2	congruent/STIM_028.jpg
2319.124	0.713	correct	congruent	Block2	congruent/STIM_028.jpg
2322.301	0.764	correct	congruent	Block2	congruent/STIM_028.jpg
2326.426	0.766	correct	congruent	Block2	congruent/STIM_029.jpg
2330.593	0.998	correct	congruent	Block2	congruent/STIM_029.jpg
2335.108	1.012	correct	congruent	Block2	congruent/STIM_029.jpg
2338.939	0.606	correct	congruent	Block2	congruent/STIM_029.jpg
2341.855	0.963	correct	congruent	Block2	congruent/STIM_029.jpg
2344.962	0.855	correct	incongruent	Block3	incongruent/STIM_000.jpg
2348.753	0.629	correct	incongruent	Block3	incongruent/STIM_000.jpg
2352.581	0.845	correct	incongruent	Block3	incongruent/STIM_000.jpg
2357.166	0.996	correct	incongruent	Block3	incongruent/STIM_000.jpg
2361.001	0.924	correct	incongruent	Block3	incongruent/STIM_000.jpg
2364.095	1.03	correct	incongruent	Block3	incongruent/STIM_001.jpg
2368.782	0.763	correct	incongruent	Block3	incongruent/STIM_001.jpg
2373.482	1.203	correct	incongruent	Block3	incongruent/STIM_001.jpg
2378.503	0.929	correct	incongruent	Block3	incongruent/STIM_001.jpg
2383.345	0.854	correct	incongruent	Block3	incongruent/STIM_001.jpg
2386.716	1.142	correct	incongruent	Block3	incongruent/STIM_002.jpg
2391.227	1.08	correct	incongruent	Block3	incongruent/STIM_002.jpg
2394.893	0.568	correct	incongruent	Block3	incongruent/STIM_002.jpg
2398.13	0.73	correct	incongruent	Block3	incongruent/STIM_002.jpg
2401.047	0.628	correct	incongruent	Block3	incongruent/STIM_002.jpg
2404.377	0.682	correct	incongruent	Block3	incongruent/STIM_003.jpg
2407.863	1.187	correct	incongruent	Block3	incongruent/STIM_003.jpg
2412.13	0.849	correct	incongruent	Block3	incongruent/STIM_003.jpg
2415.673	0.788	correct	incongruent	Block3	incongruent/STIM_003.jpg
2419.378	0.777	correct	incongruent	Block3	incongruent/STIM_003.jpg
2423.364	0.897	correct	incongruent	Block3	incongruent/STIM_004.jpg
2426.685	0.755	correct	incongruent	Block3	incongruent/STIM_004.jpg
2431.437	0.731	correct	incongruent	Block3	incongruent/STIM_004.jpg
2434.764	0.664	correct	incongruent	Block3	incongruent/STIM_004.jpg
2438.247	0.876	correct	incongruent	Block3	incongruent/STIM_004.jpg
2442.688	1.167	correct	incongruent	Block3	incongruent/STIM_005.jpg
2447.353	0.791	correct	incongruent	Block3	incongruent/STIM_005.jpg
2451.828	1.082	correct	incongruent	Block3	incongruent/STIM_005.jpg
2456.115	0.944	correct	incongruent	Block3	incongruent/STIM_005.jpg
2460.311	0.936	correct	incongruent	Block3	incongruent/STIM_005.jpg
2463.516	0.57	correct	incongruent	Block3	incongruent/STIM_006.jpg
2466.205	0.973	correct	incongruent	Block3	incongruent/STIM_006.jpg
2470.143	0.637	correct	incongruent	Block3	incongruent/STIM_006.jpg
2473.245	0.621	correct	incongruent	Block3	incongruent/STIM_006.jpg
2476.317	0.576	correct	incongruent	Block3	incongruent/STIM_006.jpg
2479.108	0.624	correct	incongruent	Block3	incongruent/STIM_007.jpg
2483.545	0.605	correct	incongruent	Block3	incongruent/STIM_007.jpg
2486.606	0.72	correct	incongruent	Block3	incongruent/STIM_007.jpg
2490.582	0.959	correct	incongruent	Block3	incongruent/STIM_007.jpg
2495.487	1.192	correct	incongruent	Block3	incongruent/STIM_007.jpg
2500.109	0.887	correct	incongruent	Block3	incongruent/STIM_008.jpg
2504.974	0.806	correct	incongruent	Block3	incongruent/STIM_008.jpg
2508.478	0.92	correct	incongruent	Block3	incongruent/STIM_008.jpg
2513.198	0.706	correct	incongruent	Block3	incongruent/STIM_008.jpg
2517.384	0.677	correct	incongruent	Block3	incongruent/STIM_008.jpg
2521.485	0.754	correct	incongruent	Block3	incongruent/STIM_009.jpg
2524.513	1.206	correct	incongruent	Block3	incongruent/STIM_009.jpg
2528.671	0.638	correct	incongruent	Block3	incongruent/STIM_009.jpg
2532.234	1.083	correct	incongruent	Block3	incongruent/STIM_009.jpg
2536.723	0.622	correct	incongruent	Block3	incongruent/STIM_009.jpg
2540.157	1.094	correct	incongruent	Block3	incongruent/STIM_010.jpg
2544.448	0.62	correct	incongruent	Block3	incongruent/STIM_010.jpg
2548.773	0.714	correct	incongruent	Block3	incongruent/STIM_010.jpg
2552.662	1.14	correct	incongruent	Block3	incongruent/STIM_010.jpg
2556.373	0.611	correct	incongruent	Block3	incongruent/STIM_010.jpg
2560.467	0.903	correct	incongruent	Block3	incongruent/STIM_011.jpg
2563.459	1.177	correct	incongruent	Block3	incongruent/STIM_011.jpg
2568.578	1.193	correct	incongruent	Block3	incongruent/STIM_011.jpg
2571.823	1.0	correct	incongruent	Block3	incongruent/STIM_011.jpg
2575.451	0.881	correct	incongruent	Block3	incongruent/STIM_011.jpg
2578.875	0.908	correct	incongruent	Block3	incongruent/STIM_012.jpg
2582.801	1.112	correct	incongruent	Block3	incongruent/STIM_012.jpg
2587.81	0.98	correct	incongruent	Block3	incongruent/STIM_012.jpg
2591.845	1.123	correct	incongruent	Block3	incongruent/STIM_012.jpg
2595.842	0.828	correct	incongruent	Block3	incongruent/STIM_012.jpg
2600.181	0.619	correct	incongruent	Block3	incongruent/STIM_013.jpg
2604.605	0.826	correct	incongruent	Block3	incongruent/STIM_013.jpg
2608.153	0.746	correct	incongruent	Block3	incongruent/STIM_013.jpg
2611.951	0.843	incorrect	incongruent	Block3	incongruent/STIM_013.jpg
2616.405	1.042	correct	incongruent	Block3	incongruent/STIM_013.jpg
2620.332	0.721	correct	incongruent	Block3	incongruent/STIM_014.jpg
2623.801	1.119	correct	incongruent	Block3	incongruent/STIM_014.jpg
2627.203	0.676	correct	incongruent	Block3	incongruent/STIM_014.jpg
2631.323	1.085	correct	incongruent	Block3	incongruent/STIM_014.jpg
2635.441	0.738	correct	incongruent	Block3	incongruent/STIM_014.jpg
2639.207	1.19	incorrect	incongruent	Block3	incongruent/STIM_015.jpg
2644.341	0.779	correct	incongruent	Block3	incongruent/STIM_015.jpg
2647.16	0.578	correct	incongruent	Block3	incongruent/STIM_015.jpg
2651.241	0.656	correct	incongruent	Block3	incongruent/STIM_015.jpg
2654.689	1.034	correct	incongruent	Block3	incongruent/STIM_015.jpg
2658.045	1.16	correct	incongruent	Block3	incongruent/STIM_016.jpg
2662.199	0.987	correct	incongruent	Block3	incongruent/STIM_016.jpg
2666.399	0.593	correct	incongruent	Block3	incongruent/STIM_016.jpg
2669.996	0.989	incorrect	incongruent	Block3	incongruent/STIM_016.jpg
2673.687	0.569	correct	incongruent	Block3	incongruent/STIM_016.jpg
2676.863	0.994	correct	incongruent	Block3	incongruent/STIM_017.jpg
2681.795	0.743	correct	incongruent	Block3	incongruent/STIM_017.jpg
2685.216	1.022	correct	incongruent	Block3	incongruent/STIM_017.jpg
2688.426	1.058	correct	incongruent	Block3	incongruent/STIM_017.jpg
2691.51	0.78	correct	incongruent	Block3	incongruent/STIM_017.jpg
2694.745	1.061	correct	incongruent	Block3	incongruent/STIM_018.jpg
2698.385	0.907	correct	incongruent	Block3	incongruent/STIM_018.jpg
2701.532	1.141	correct	incongruent	Block3	incongruent/STIM_018.jpg
2706.253	1.066	correct	incongruent	Block3	incongruent/STIM_018.jpg
2709.847	0.988	correct	incongruent	Block3	incongruent/STIM_018.jpg
2714.665	0.942	correct	incongruent	Block3	incongruent/STIM_019.jpg
2718.254	0.808	correct	incongruent	Block3	incongruent/STIM_019.jpg
2721.179	1.14	correct	incongruent	Block3	incongruent/STIM_019.jpg
2725.798	0.902	correct	incongruent	Block3	incongruent/STIM_019.jpg
2730.594	0.87	correct	incongruent	Block3	incongruent/STIM_019.jpg
2734.345	0.6	correct	incongruent	Block3	incongruent/STIM_020.jpg
2738.167	1.022	correct	incongruent	Block3	incongruent/STIM_020.jpg
2742.092	1.207	correct	incongruent	Block3	incongruent/STIM_020.jpg
2746.218	0.913	correct	incongruent	Block3	incongruent/STIM_020.jpg
2750.692	0.972	correct	incongruent	Block3	incongruent/STIM_020.jpg
2753.909	0.705	correct	incongruent	Block3	incongruent/STIM_021.jpg
2756.809	1.082	correct	incongruent	Block3	incongruent/STIM_021.jpg
2761.322	1.195	correct	incongruent	Block3	incongruent/STIM_021.jpg
2766.405	0.878	correct	incongruent	Block3	incongruent/STIM_021.jpg
2769.558	0.615	correct	incongruent	Block3	incongruent/STIM_021.jpg
2773.154	1.058	correct	incongruent	Block3	incongruent/STIM_022.jpg
2776.641	0.866	correct	incongruent	Block3	incongruent/STIM_022.jpg
2779.832	1.142	correct	incongruent	Block3	incongruent/STIM_022.jpg
2783.538	0.794	incorrect	incongruent	Block3	incongruent/STIM_022.jpg
2787.126	0.678	correct	incongruent	Block3	incongruent/STIM_022.jpg
2791.199	0.643	correct	incongruent	Block3	incongruent/STIM_023.jpg
2794.897	0.721	correct	incongruent	Block3	incongruent/STIM_023.jpg
2797.953	0.578	correct	incongruent	Block3	incongruent/STIM_023.jpg
2800.655	1.119	correct	incongruent	Block3	incongruent/STIM_023.jpg
2805.373	0.995	correct	incongruent	Block3	incongruent/STIM_023.jpg
2808.511	0.939	correct	incongruent	Block3	incongruent/STIM_024.jpg
2811.507	0.612	correct	incongruent	Block3	incongruent/STIM_024.jpg
2814.375	0.867	correct	incongruent	Block3	incongruent/STIM_024.jpg
2819.02	0.676	correct	incongruent	Block3	incongruent/STIM_024.jpg
2822.793	0.805	correct	incongruent	Block3	incongruent/STIM_024.jpg
2826.759	0.694	correct	incongruent	Block3	incongruent/STIM_025.jpg
2831.414	0.585	correct	incongruent	Block3	incongruent/STIM_025.jpg
2835.825	0.711	correct	incongruent	Block3	incongruent/STIM_025.jpg
2838.775	1.016	correct	incongruent	Block3	incongruent/STIM_025.jpg
2842.58	1.206	correct	incongruent	Block3	incongruent/STIM_025.jpg
2845.909	0.717	correct	incongruent	Block3	incongruent/STIM_026.jpg
2849.331	0.913	correct	incongruent	Block3	incongruent/STIM_026.jpg
2853.957	0.849	correct	incongruent	Block3	incongruent/STIM_026.jpg
2857.273	0.823	correct	incongruent	Block3	incongruent/STIM_026.jpg
2862.092	0.732	correct	incongruent	Block3	incongruent/STIM_026.jpg
2865.052	0.87	correct	incongruent	Block3	incongruent/STIM_027.jpg
2868.539	0.688	correct	incongruent	Block3	incongruent/STIM_027.jpg
2872.705	0.726	correct	incongruent	Block3	incongruent/STIM_027.jpg
2876.008	0.799	correct	incongruent	Block3	incongruent/STIM_027.jpg
2880.427	0.853	incorrect	incongruent	Block3	incongruent/STIM_027.jpg
2884.164	0.852	correct	incongruent	Block3	incongruent/STIM_028.jpg
2887.342	1.135	correct	incongruent	Block3	incongruent/STIM_028.jpg
2891.758	1.199	correct	incongruent	Block3	incongruent/STIM_028.jpg
2895.357	0.628	correct	incongruent	Block3	incongruent/STIM_028.jpg
2898.956	0.605	correct	incongruent	Block3	incongruent/STIM_028.jpg
2902.445	1.202	correct	incongruent	Block3	incongruent/STIM_029.jpg
2906.742	0.577	correct	incongruent	Block3	incongruent/STIM_029.jpg
2910.434	0.896	correct	incongruent	Block3	incongruent/STIM_029.jpg
2914.809	1.203	correct	incongruent	Block3	incongruent/STIM_029.jpg
2918.189	0.623	correct	incongruent	Block3	incongruent/STIM_029.jpg
2921.529	0.75	correct	congruent	Block3	congruent/STIM_000.jpg
2926.225	0.693	correct	congruent	Block3	congruent/STIM_000.jpg
2930.585	0.969	correct	congruent	Block3	congruent/STIM_000.jpg
2933.945	0.952	correct	congruent	Block3	congruent/STIM_000.jpg
2937.469	0.787	correct	congruent	Block3	congruent/STIM_000.jpg
2940.687	0.884	correct	congruent	Block3	congruent/STIM_001.jpg
2944.14	0.636	incorrect	congruent	Block3	congruent/STIM_001.jpg
2946.931	0.744	correct	congruent	Block3	congruent/STIM_001.jpg
2950.601	0.91	correct	congruent	Block3	congruent/STIM_001.jpg
2953.857	1.032	correct	congruent	Block3	congruent/STIM_001.jpg
2956.965	0.742	correct	congruent	Block3	congruent/STIM_002.jpg
2961.347	0.632	correct	congruent	Block3	congruent/STIM_002.jpg
2964.27	1.008	correct	congruent	Block3	congruent/STIM_002.jpg
2968.54	0.857	incorrect	congruent	Block3	congruent/STIM_002.jpg
2972.815	0.838	correct	congruent	Block3	congruent/STIM_002.jpg
2975.811	0.581	correct	congruent	Block3	congruent/STIM_003.jpg
2978.93	0.592	correct	congruent	Block3	congruent/STIM_003.jpg
2983.199	0.715	correct	congruent	Block3	congruent/STIM_003.jpg
2987.079	0.97	correct	congruent	Block3	congruent/STIM_003.jpg
2991.401	0.846	correct	congruent	Block3	congruent/STIM_003.jpg
2994.313	0.612	correct	congruent	Block3	congruent/STIM_004.jpg
2998.71	0.91	correct	congruent	Block3	congruent/STIM_004.jpg
3002.52	0.681	correct	congruent	Block3	congruent/STIM_004.jpg
3006.115	0.865	correct	congruent	Block3	congruent/STIM_004.jpg
3010.898	0.737	correct	congruent	Block3	congruent/STIM_004.jpg
3014.716	0.64	correct	congruent	Block3	congruent/STIM_005.jpg
3018.793	0.986	correct	congruent	Block3	congruent/STIM_005.jpg
3022.783	0.793	correct	congruent	Block3	congruent/STIM_005.jpg
3026.574	0.629	correct	congruent	Block3	congruent/STIM_005.jpg
3031.023	0.989	correct	congruent	Block3	congruent/STIM_005.jpg
3034.844	0.648	correct	congruent	Block3	congruent/STIM_006.jpg
3039.201	0.673	correct	congruent	Block3	congruent/STIM_006.jpg
3042.639	0.729	correct	congruent	Block3	congruent/STIM_006.jpg
3047.002	0.731	correct	congruent	Block3	congruent/STIM_006.jpg
3050.754	0.959	correct	congruent	Block3	congruent/STIM_006.jpg
3055.502	0.772	correct	congruent	Block3	congruent/STIM_007.jpg
3060.017	0.599	correct	congruent	Block3	congruent/STIM_007.jpg
3064.561	0.76	correct	congruent	Block3	congruent/STIM_007.jpg
3069.139	0.966	correct	congruent	Block3	congruent/STIM_007.jpg
3073.239	0.829	correct	congruent	Block3	congruent/STIM_007.jpg
3077.523	0.596	correct	congruent	Block3	congruent/STIM_008.jpg
3080.807	0.823	correct	congruent	Block3	congruent/STIM_008.jpg
3084.92	0.82	correct	congruent	Block3	congruent/STIM_008.jpg
3089.659	0.764	correct	congruent	Block3	congruent/STIM_008.jpg
3093.495	0.953	correct	congruent	Block3	congruent/STIM_008.jpg
3096.982	0.969	correct	congruent	Block3	congruent/STIM_009.jpg
3101.392	0.62	correct	congruent	Block3	congruent/STIM_009.jpg
3104.559	0.983	correct	congruent	Block3	congruent/STIM_009.jpg
3107.977	0.832	correct	congruent	Block3	congruent/STIM_009.jpg
3111.38	0.715	correct	congruent	Block3	congruent/STIM_009.jpg
3116.032	0.828	correct	congruent	Block3	congruent/STIM_010.jpg
3120.201	0.863	correct	congruent	Block3	congruent/STIM_010.jpg
3125.019	0.979	correct	congruent	Block3	congruent/STIM_010.jpg
3128.888	0.816	correct	congruent	Block3	congruent/STIM_010.jpg
3132.376	0.633	correct	congruent	Block3	congruent/STIM_010.jpg
3135.091	0.86	correct	congruent	Block3	congruent/STIM_011.jpg
3138.53	0.865	correct	congruent	Block3	congruent/STIM_011.jpg
3142.082	0.716	correct	congruent	Block3	congruent/STIM_011.jpg
3145.342	0.644	correct	congruent	Block3	congruent/STIM_011.jpg
3149.205	0.84	correct	congruent	Block3	congruent/STIM_011.jpg
3153.327	0.976	correct	congruent	Block3	congruent/STIM_012.jpg
3157.874	0.883	correct	congruent	Block3	congruent/STIM_012.jpg
3161.278	0.809	correct	congruent	Block3	congruent/STIM_012.jpg
3166.008	0.955	correct	congruent	Block3	congruent/STIM_012.jpg
3169.587	0.849	correct	congruent	Block3	congruent/STIM_012.jpg
3173.679	0.695	correct	congruent	Block3	congruent/STIM_013.jpg
3177.147	0.765	correct	congruent	Block3	congruent/STIM_013.jpg
3181.128	0.801	correct	congruent	Block3	congruent/STIM_013.jpg
3185.492	0.612	correct	congruent	Block3	congruent/STIM_013.jpg
3189.714	0.862	correct	congruent	Block3	congruent/STIM_013.jpg
3194.271	1.013	correct	congruent	Block3	congruent/STIM_014.jpg
3199.197	0.874	correct	congruent	Block3	congruent/STIM_014.jpg
3202.579	0.834	correct	congruent	Block3	congruent/STIM_014.jpg
3207.118	0.834	correct	congruent	Block3	congruent/STIM_014.jpg
3211.447	0.859	correct	congruent	Block3	congruent/STIM_014.jpg
3215.49	0.867	correct	congruent	Block3	congruent/STIM_015.jpg
3219.219	0.847	correct	congruent	Block3	congruent/STIM_015.jpg
3222.901	0.661	correct	congruent	Block3	congruent/STIM_015.jpg
3226.703	0.819	correct	congruent	Block3	congruent/STIM_015.jpg
3231.175	0.763	correct	congruent	Block3	congruent/STIM_015.jpg
3234.149	0.636	correct	congruent	Block3	congruent/STIM_016.jpg
3238.469	0.829	correct	congruent	Block3	congruent/STIM_016.jpg
3241.411	0.794	correct	congruent	Block3	congruent/STIM_016.jpg
3245.118	1.032	correct	congruent	Block3	congruent/STIM_016.jpg
3248.271	0.834	correct	congruent	Block3	congruent/STIM_016.jpg
3252.17	0.693	correct	congruent	Block3	congruent/STIM_017.jpg
3255.62	0.963	incorrect	congruent	Block3	congruent/STIM_017.jpg
3258.913	0.75	correct	congruent	Block3	congruent/STIM_017.jpg
3262.008	0.627	correct	congruent	Block3	congruent/STIM_017.jpg
3265.734	0.999	correct	congruent	Block3	congruent/STIM_017.jpg
3269.236	0.63	correct	congruent	Block3	congruent/STIM_018.jpg
3272.55	0.934	correct	congruent	Block3	congruent/STIM_018.jpg
3277.13	0.699	correct	congruent	Block3	congruent/STIM_018.jpg
3281.772	0.764	correct	congruent	Block3	congruent/STIM_018.jpg
3285.045	0.904	correct	congruent	Block3	congruent/STIM_018.jpg
3288.878	0.597	correct	congruent	Block3	congruent/STIM_019.jpg
3293.389	0.914	correct	congruent	Block3	congruent/STIM_019.jpg
3297.718	0.611	correct	congruent	Block3	congruent/STIM_019.jpg
3302.159	0.67	correct	congruent	Block3	congruent/STIM_019.jpg
3305.613	0.922	correct	congruent	Block3	congruent/STIM_019.jpg
3309.524	0.909	correct	congruent	Block3	congruent/STIM_020.jpg
3313.62	0.88	correct	congruent	Block3	congruent/STIM_020.jpg
3318.416	0.699	correct	congruent	Block3	congruent/STIM_020.jpg
3321.124	0.89	correct	congruent	Block3	congruent/STIM_020.jpg
3325.994	0.687	correct	congruent	Block3	congruent/STIM_020.jpg
3329.532	0.704	correct	congruent	Block3	congruent/STIM_021.jpg
3332.517	0.862	correct	congruent	Block3	congruent/STIM_021.jpg
3335.8	0.699	correct	congruent	Block3	congruent/STIM_021.jpg
3339.874	0.715	correct	congruent	Block3	congruent/STIM_021.jpg
3344.401	0.669	correct	congruent	Block3	congruent/STIM_021.jpg
3348.067	0.933	correct	congruent	Block3	congruent/STIM_022.jpg
3351.098	0.697	correct	congruent	Block3	congruent/STIM_022.jpg
3354.721	0.649	correct	congruent	Block3	congruent/STIM_022.jpg
3358.812	0.603	correct	congruent	Block3	congruent/STIM_022.jpg
3361.453	0.658	correct	congruent	Block3	congruent/STIM_022.jpg
3364.87	0.734	incorrect	congruent	Block3	congruent/STIM_023.jpg
3368.901	0.863	correct	congruent	Block3	congruent/STIM_023.jpg
3371.983	0.673	correct	congruent	Block3	congruent/STIM_023.jpg
3375.591	0.778	correct	congruent	Block3	congruent/STIM_023.jpg
3378.505	0.625	correct	congruent	Block3	congruent/STIM_023.jpg
3382.406	0.894	correct	congruent	Block3	congruent/STIM_024.jpg
3387.211	0.595	correct	congruent	Block3	congruent/STIM_024.jpg
3390.476	0.854	correct	congruent	Block3	congruent/STIM_024.jpg
3394.216	0.842	correct	congruent	Block3	congruent/STIM_024.jpg
3397.861	0.943	correct	congruent	Block3	congruent/STIM_024.jpg
3402.043	0.742	correct	congruent	Block3	congruent/STIM_025.jpg
3405.27	1.02	correct	congruent	Block3	congruent/STIM_025.jpg
3410.021	0.754	correct	congruent	Block3	congruent/STIM_025.jpg
3413.664	0.606	correct	congruent	Block3	congruent/STIM_025.jpg
3417.311	0.625	correct	congruent	Block3	congruent/STIM_025.jpg
3421.068	0.978	correct	congruent	Block3	congruent/STIM_026.jpg
3424.62	0.78	correct	congruent	Block3	congruent/STIM_026.jpg
3427.417	0.849	correct	congruent	Block3	congruent/STIM_026.jpg
3431.705	0.597	correct	congruent	Block3	congruent/STIM_026.jpg
3436.245	0.851	correct	congruent	Block3	congruent/STIM_026.jpg
3439.91	0.8	incorrect	congruent	Block3	congruent/STIM_027.jpg
3444.533	0.75	correct	congruent	Block3	congruent/STIM_027.jpg
3449.03	0.754	correct	congruent	Block3	congruent/STIM_027.jpg
3453.076	0.786	correct	congruent	Block3	congruent/STIM_027.jpg
3457.847	0.948	correct	congruent	Block3	congruent/STIM_027.jpg
3462.011	0.693	correct	congruent	Block3	congruent/STIM_028.jpg
3464.771	0.979	correct	congruent	Block3	congruent/STIM_028.jpg
3468.666	1.009	correct	congruent	Block3	congruent/STIM_028.jpg
3473.185	0.96	correct	congruent	Block3	congruent/STIM_028.jpg
3476.693	0.66	correct	congruent	Block3	congruent/STIM_028.jpg
3479.374	0.968	correct	congruent	Block3	congruent/STIM_029.jpg
3483.701	0.699	correct	congruent	Block3	congruent/STIM_029.jpg
3487.087	0.713	correct	congruent	Block3	congruent/STIM_029.jpg
3491.769	0.82	correct	congruent	Block3	congruent/STIM_029.jpg
3496.103	0.737	correct	congruent	Block3	congruent/STIM_029.jpg
