onset	duration	accuracy_binary	trial_type	learning_stage	stimulus
0.0	0.769	0	incongruent	Block1	incongruent/STIM_000.jpg
4.816	0.941	1	incongruent	Block1	incongruent/STIM_000.jpg
8.071	0.557	1	incongruent	Block1	incongruent/STIM_000.jpg
11.416	1.056	1	incongruent	Block1	incongruent/STIM_000.jpg
14.77	0.833	1	incongruent	Block1	incongruent/STIM_000.jpg
18.057	0.786	1	incongruent	Block1	incongruent/STIM_001.jpg
22.198	0.544	1	incongruent	Block1	incongruent/STIM_001.jpg
25.382	0.788	1	incongruent	Block1	incongruent/STIM_001.jpg
28.617	0.649	1	incongruent	Block1	incongruent/STIM_001.jpg
31.561	0.836	1	incongruent	Block1	incongruent/STIM_001.jpg
34.907	0.668	1	incongruent	Block1	incongruent/STIM_002.jpg
38.471	0.868	1	incongruent	Block1	incongruent/STIM_002.jpg
42.985	0.906	1	incongruent	Block1	incongruent/STIM_002.jpg
48.03	1.122	1	incongruent	Block1	incongruent/STIM_002.jpg
52.915	1.006	0	incongruent	Block1	incongruent/STIM_002.jpg
56.819	0.848	1	incongruent	Block1	incongruent/STIM_003.jpg
61.175	0.622	1	incongruent	Block1	incongruent/STIM_003.jpg
65.404	1.11	1	incongruent	Block1	incongruent/STIM_003.jpg
68.909	1.077	0	incongruent	Block1	incongruent/STIM_003.jpg
72.348	0.639	1	incongruent	Block1	incongruent/STIM_003.jpg
76.692	1.246	1	incongruent	Block1	incongruent/STIM_004.jpg
80.291	0.712	1	incongruent	Block1	incongruent/STIM_004.jpg
84.167	1.069	1	incongruent	Block1	incongruent/STIM_004.jpg
87.985	0.824	1	incongruent	Block1	incongruent/STIM_004.jpg
92.904	0.987	1	incongruent	Block1	incongruent/STIM_004.jpg
97.702	0.602	0	incongruent	Block1	incongruent/STIM_005.jpg
101.088	1.151	1	incongruent	Block1	incongruent/STIM_005.jpg
105.575	1.129	1	incongruent	Block1	incongruent/STIM_005.jpg
110.485	1.207	1	incongruent	Block1	incongruent/STIM_005.jpg
113.834	0.794	1	incongruent	Block1	incongruent/STIM_005.jpg
117.006	0.897	1	incongruent	Block1	incongruent/STIM_006.jpg
120.67	0.768	1	incongruent	Block1	incongruent/STIM_006.jpg
124.812	0.629	1	incongruent	Block1	incongruent/STIM_006.jpg
129.07	0.786	1	incongruent	Block1	incongruent/STIM_006.jpg
132.168	0.694	1	incongruent	Block1	incongruent/STIM_006.jpg
135.107	1.11	1	incongruent	Block1	incongruent/STIM_007.jpg
139.014	1.226	1	incongruent	Block1	incongruent/STIM_007.jpg
142.529	0.577	1	incongruent	Block1	incongruent/STIM_007.jpg
145.308	0.754	1	incongruent	Block1	incongruent/STIM_007.jpg
150.101	0.726	1	incongruent	Block1	incongruent/STIM_007.jpg
154.253	0.918	1	incongruent	Block1	incongruent/STIM_008.jpg
159.232	1.106	1	incongruent	Block1	incongruent/STIM_008.jpg
162.793	0.632	1	incongruent	Block1	incongruent/STIM_008.jpg
166.195	0.603	1	incongruent	Block1	incongruent/STIM_008.jpg
170.208	0.434	1	incongruent	Block1	incongruent/STIM_008.jpg
174.472	0.736	1	incongruent	Block1	incongruent/STIM_009.jpg
177.741	0.717	1	incongruent	Block1	incongruent/STIM_009.jpg
182.168	1.076	1	incongruent	Block1	incongruent/STIM_009.jpg
187.167	0.905	1	incongruent	Block1	incongruent/STIM_009.jpg
191.464	0.715	1	incongruent	Block1	incongruent/STIM_009.jpg
194.514	1.3	1	incongruent	Block1	incongruent/STIM_010.jpg
199.535	1.258	1	incongruent	Block1	incongruent/STIM_010.jpg
203.55	0.799	1	incongruent	Block1	incongruent/STIM_010.jpg
207.473	0.793	1	incongruent	Block1	incongruent/STIM_010.jpg
211.378	0.977	1	incongruent	Block1	incongruent/STIM_010.jpg
214.879	1.018	1	incongruent	Block1	incongruent/STIM_011.jpg
218.477	0.85	1	incongruent	Block1	incongruent/STIM_011.jpg
223.063	0.64	0	incongruent	Block1	incongruent/STIM_011.jpg
226.818	0.713	1	incongruent	Block1	incongruent/STIM_011.jpg
231.129	0.983	1	incongruent	Block1	incongruent/STIM_011.jpg
235.553	1.045	0	incongruent	Block1	incongruent/STIM_012.jpg
239.432	0.834	1	incongruent	Block1	incongruent/STIM_012.jpg
243.065	0.74	1	incongruent	Block1	incongruent/STIM_012.jpg
246.443	0.665	1	incongruent	Block1	incongruent/STIM_012.jpg
249.359	0.498	1	incongruent	Block1	incongruent/STIM_012.jpg
252.51	0.976	1	incongruent	Block1	incongruent/STIM_013.jpg
256.886	0.991	0	incongruent	Block1	incongruent/STIM_013.jpg
260.857	0.743	1	incongruent	Block1	incongruent/STIM_013.jpg
264.2	0.846	1	incongruent	Block1	incongruent/STIM_013.jpg
268.637	0.472	1	incongruent	Block1	incongruent/STIM_013.jpg
271.513	1.195	1	incongruent	Block1	incongruent/STIM_014.jpg
276.347	1.048	1	incongruent	Block1	incongruent/STIM_014.jpg
281.503	0.953	1	incongruent	Block1	incongruent/STIM_014.jpg
286.054	0.855	1	incongruent	Block1	incongruent/STIM_014.jpg
288.962	0.98	1	incongruent	Block1	incongruent/STIM_014.jpg
292.592	1.156	1	incongruent	Block1	incongruent/STIM_015.jpg
297.392	0.572	1	incongruent	Block1	incongruent/STIM_015.jpg
301.941	0.896	1	incongruent	Block1	incongruent/STIM_015.jpg
305.834	1.07	1	incongruent	Block1	incongruent/STIM_015.jpg
310.935	0.711	1	incongruent	Block1	incongruent/STIM_015.jpg
315.506	1.213	1	incongruent	Block1	incongruent/STIM_016.jpg
320.692	1.171	1	incongruent	Block1	incongruent/STIM_016.jpg
324.055	0.975	1	incongruent	Block1	incongruent/STIM_016.jpg
328.997	0.659	1	incongruent	Block1	incongruent/STIM_016.jpg
333.801	0.93	1	incongruent	Block1	incongruent/STIM_016.jpg
338.48	0.919	1	incongruent	Block1	incongruent/STIM_017.jpg
342.068	1.106	1	incongruent	Block1	incongruent/STIM_017.jpg
345.447	0.941	1	incongruent	Block1	incongruent/STIM_017.jpg
350.135	0.776	0	incongruent	Block1	incongruent/STIM_017.jpg
354.029	0.706	1	incongruent	Block1	incongruent/STIM_017.jpg
357.548	1.287	1	incongruent	Block1	incongruent/STIM_018.jpg
362.664	1.007	1	incongruent	Block1	incongruent/STIM_018.jpg
366.89	0.693	1	incongruent	Block1	incongruent/STIM_018.jpg
370.025	1.127	1	incongruent	Block1	incongruent/STIM_018.jpg
373.265	0.905	1	incongruent	Block1	incongruent/STIM_018.jpg
376.561	1.196	0	incongruent	Block1	incongruent/STIM_019.jpg
381.152	0.747	1	incongruent	Block1	incongruent/STIM_019.jpg
385.053	0.852	1	incongruent	Block1	incongruent/STIM_019.jpg
389.989	0.686	0	incongruent	Block1	incongruent/STIM_019.jpg
393.939	0.688	1	incongruent	Block1	incongruent/STIM_019.jpg
397.601	0.796	1	incongruent	Block1	incongruent/STIM_020.jpg
401.909	0.857	0	incongruent	Block1	incongruent/STIM_020.jpg
406.208	0.904	1	incongruent	Block1	incongruent/STIM_020.jpg
410.73	1.091	0	incongruent	Block1	incongruent/STIM_020.jpg
414.328	0.858	1	incongruent	Block1	incongruent/STIM_020.jpg
417.489	1.106	1	incongruent	Block1	incongruent/STIM_021.jpg
422.266	1.054	1	incongruent	Block1	incongruent/STIM_021.jpg
426.301	0.929	1	incongruent	Block1	incongruent/STIM_021.jpg
430.882	1.168	0	incongruent	Block1	incongruent/STIM_021.jpg
434.557	0.831	1	incongruent	Block1	incongruent/STIM_021.jpg
438.218	0.724	1	incongruent	Block1	incongruent/STIM_022.jpg
441.397	1.189	1	incongruent	Block1	incongruent/STIM_022.jpg
446.009	1.206	1	incongruent	Block1	incongruent/STIM_022.jpg
449.992	0.962	1	incongruent	Block1	incongruent/STIM_022.jpg
454.054	0.72	1	incongruent	Block1	incongruent/STIM_022.jpg
457.306	0.746	1	incongruent	Block1	incongruent/STIM_023.jpg
461.245	0.664	1	incongruent	Block1	incongruent/STIM_023.jpg
464.348	1.093	1	incongruent	Block1	incongruent/STIM_023.jpg
467.841	0.68	0	incongruent	Block1	incongruent/STIM_023.jpg
470.968	0.63	1	incongruent	Block1	incongruent/STIM_023.jpg
475.419	1.005	1	incongruent	Block1	incongruent/STIM_024.jpg
478.649	0.89	1	incongruent	Block1	incongruent/STIM_024.jpg
483.275	0.984	1	incongruent	Block1	incongruent/STIM_024.jpg
487.935	0.952	1	incongruent	Block1	incongruent/STIM_024.jpg
492.072	0.92	1	incongruent	Block1	incongruent/STIM_024.jpg
496.789	1.123	1	incongruent	Block1	incongruent/STIM_025.jpg
501.563	1.12	1	incongruent	Block1	incongruent/STIM_025.jpg
504.91	0.963	1	incongruent	Block1	incongruent/STIM_025.jpg
508.894	0.813	1	incongruent	Block1	incongruent/STIM_025.jpg
512.001	0.713	1	incongruent	Block1	incongruent/STIM_025.jpg
514.832	1.217	1	incongruent	Block1	incongruent/STIM_026.jpg
518.529	0.714	1	incongruent	Block1	incongruent/STIM_026.jpg
521.771	0.48	1	incongruent	Block1	incongruent/STIM_026.jpg
525.476	0.594	1	incongruent	Block1	incongruent/STIM_026.jpg
528.914	0.655	1	incongruent	Block1	incongruent/STIM_026.jpg
532.659	1.257	1	incongruent	Block1	incongruent/STIM_027.jpg
536.582	1.05	1	incongruent	Block1	incongruent/STIM_027.jpg
540.533	0.844	1	incongruent	Block1	incongruent/STIM_027.jpg
545.297	0.662	1	incongruent	Block1	incongruent/STIM_027.jpg
549.647	0.92	1	incongruent	Block1	incongruent/STIM_027.jpg
553.778	0.923	1	incongruent	Block1	incongruent/STIM_028.jpg
558.25	1.208	0	incongruent	Block1	incongruent/STIM_028.jpg
563.292	1.075	1	incongruent	Block1	incongruent/STIM_028.jpg
567.314	0.952	1	incongruent	Block1	incongruent/STIM_028.jpg
571.637	0.634	1	incongruent	Block1	incongruent/STIM_028.jpg
575.089	1.122	1	incongruent	Block1	incongruent/STIM_029.jpg
578.629	0.665	1	incongruent	Block1	incongruent/STIM_029.jpg
583.004	0.734	1	incongruent	Block1	incongruent/STIM_029.jpg
585.816	0.641	1	incongruent	Block1	incongruent/STIM_029.jpg
588.723	0.617	1	incongruent	Block1	incongruent/STIM_029.jpg
593.133	0.558	1	congruent	Block1	congruent/STIM_000.jpg
596.089	0.67	1	congruent	Block1	congruent/STIM_000.jpg
599.438	0.658	1	congruent	Block1	congruent/STIM_000.jpg
603.564	0.594	1	congruent	Block1	congruent/STIM_000.jpg
607.046	0.746	1	congruent	Block1	congruent/STIM_000.jpg
610.786	0.478	1	congruent	Block1	congruent/STIM_001.jpg
614.58	0.69	1	congruent	Block1	congruent/STIM_001.jpg
618.907	0.804	1	congruent	Block1	congruent/STIM_001.jpg
622.737	0.661	1	congruent	Block1	congruent/STIM_001.jpg
627.157	0.484	1	congruent	Block1	congruent/STIM_001.jpg
629.915	0.643	1	congruent	Block1	congruent/STIM_002.jpg
633.809	0.844	1	congruent	Block1	congruent/STIM_002.jpg
636.777	0.362	1	congruent	Block1	congruent/STIM_002.jpg
640.789	0.753	1	congruent	Block1	congruent/STIM_002.jpg
644.679	0.583	1	congruent	Block1	congruent/STIM_002.jpg
647.51	0.384	1	congruent	Block1	congruent/STIM_003.jpg
651.73	0.716	1	congruent	Block1	congruent/STIM_003.jpg
656.104	0.424	1	congruent	Block1	congruent/STIM_003.jpg
658.94	0.731	1	congruent	Block1	congruent/STIM_003.jpg
663.459	0.623	1	congruent	Block1	congruent/STIM_003.jpg
667.808	0.634	1	congruent	Block1	congruent/STIM_004.jpg
670.63	0.667	1	congruent	Block1	congruent/STIM_004.jpg
674.71	0.473	1	congruent	Block1	congruent/STIM_004.jpg
677.395	0.53	1	congruent	Block1	congruent/STIM_004.jpg
681.375	0.744	1	congruent	Block1	congruent/STIM_004.jpg
685.752	0.641	1	congruent	Block1	congruent/STIM_005.jpg
688.702	0.544	1	congruent	Block1	congruent/STIM_005.jpg
692.011	0.622	1	congruent	Block1	congruent/STIM_005.jpg
694.944	0.802	1	congruent	Block1	congruent/STIM_005.jpg
698.294	0.648	1	congruent	Block1	congruent/STIM_005.jpg
702.934	0.742	1	congruent	Block1	congruent/STIM_006.jpg
705.693	0.442	1	congruent	Block1	congruent/STIM_006.jpg
709.855	0.604	1	congruent	Block1	congruent/STIM_006.jpg
713.831	0.567	1	congruent	Block1	congruent/STIM_006.jpg
716.774	0.779	1	congruent	Block1	congruent/STIM_006.jpg
721.147	0.68	1	congruent	Block1	congruent/STIM_007.jpg
724.846	0.494	1	congruent	Block1	congruent/STIM_007.jpg
729.058	0.633	1	congruent	Block1	congruent/STIM_007.jpg
733.458	0.667	1	congruent	Block1	congruent/STIM_007.jpg
737.122	0.592	1	congruent	Block1	congruent/STIM_007.jpg
739.968	0.566	1	congruent	Block1	congruent/STIM_008.jpg
743.127	0.736	1	congruent	Block1	congruent/STIM_008.jpg
747.116	0.532	1	congruent	Block1	congruent/STIM_008.jpg
751.219	0.401	1	congruent	Block1	congruent/STIM_008.jpg
755.293	0.626	1	congruent	Block1	congruent/STIM_008.jpg
759.6	0.645	1	congruent	Block1	congruent/STIM_009.jpg
762.647	0.648	0	congruent	Block1	congruent/STIM_009.jpg
765.646	0.428	1	congruent	Block1	congruent/STIM_009.jpg
769.065	0.587	1	congruent	Block1	congruent/STIM_009.jpg
772.945	0.486	0	congruent	Block1	congruent/STIM_009.jpg
776.672	0.623	1	congruent	Block1	congruent/STIM_010.jpg
780.529	0.526	1	congruent	Block1	congruent/STIM_010.jpg
783.577	0.765	1	congruent	Block1	congruent/STIM_010.jpg
787.325	0.675	1	congruent	Block1	congruent/STIM_010.jpg
790.953	0.724	1	congruent	Block1	congruent/STIM_010.jpg
795.545	0.764	1	congruent	Block1	congruent/STIM_011.jpg
798.58	0.688	0	congruent	Block1	congruent/STIM_011.jpg
803.174	0.868	0	congruent	Block1	congruent/STIM_011.jpg
807.987	0.716	1	congruent	Block1	congruent/STIM_011.jpg
811.966	0.636	1	congruent	Block1	congruent/STIM_011.jpg
816.149	0.577	1	congruent	Block1	congruent/STIM_012.jpg
818.797	0.809	1	congruent	Block1	congruent/STIM_012.jpg
821.954	0.566	1	congruent	Block1	congruent/STIM_012.jpg
825.225	0.789	1	congruent	Block1	congruent/STIM_012.jpg
828.555	0.485	1	congruent	Block1	congruent/STIM_012.jpg
831.335	0.6	0	congruent	Block1	congruent/STIM_013.jpg
834.309	0.514	1	congruent	Block1	congruent/STIM_013.jpg
838.503	0.54	1	congruent	Block1	congruent/STIM_013.jpg
841.214	0.489	1	congruent	Block1	congruent/STIM_013.jpg
844.102	0.542	1	congruent	Block1	congruent/STIM_013.jpg
847.112	0.754	1	congruent	Block1	congruent/STIM_014.jpg
851.357	0.608	1	congruent	Block1	congruent/STIM_014.jpg
855.427	0.845	1	congruent	Block1	congruent/STIM_014.jpg
858.571	0.484	1	congruent	Block1	congruent/STIM_014.jpg
861.764	0.669	1	congruent	Block1	congruent/STIM_014.jpg
865.277	0.803	1	congruent	Block1	congruent/STIM_015.jpg
868.624	0.694	0	congruent	Block1	congruent/STIM_015.jpg
871.926	0.681	1	congruent	Block1	congruent/STIM_015.jpg
875.812	0.536	1	congruent	Block1	congruent/STIM_015.jpg
879.118	0.838	1	congruent	Block1	congruent/STIM_015.jpg
882.956	0.682	1	congruent	Block1	congruent/STIM_016.jpg
887.198	0.503	0	congruent	Block1	congruent/STIM_016.jpg
890.093	0.793	1	congruent	Block1	congruent/STIM_016.jpg
894.269	0.629	1	congruent	Block1	congruent/STIM_016.jpg
898.85	0.413	1	congruent	Block1	congruent/STIM_016.jpg
903.113	0.662	1	congruent	Block1	congruent/STIM_017.jpg
906.731	0.707	1	congruent	Block1	congruent/STIM_017.jpg
911.111	0.806	1	congruent	Block1	congruent/STIM_017.jpg
914.617	0.654	1	congruent	Block1	congruent/STIM_017.jpg
918.563	0.682	1	congruent	Block1	congruent/STIM_017.jpg
923.037	0.481	1	congruent	Block1	congruent/STIM_018.jpg
927.592	0.454	1	congruent	Block1	congruent/STIM_018.jpg
931.855	0.796	1	congruent	Block1	congruent/STIM_018.jpg
935.323	0.808	1	congruent	Block1	congruent/STIM_018.jpg
938.306	0.596	1	congruent	Block1	congruent/STIM_018.jpg
942.279	0.527	1	congruent	Block1	congruent/STIM_019.jpg
945.614	0.464	1	congruent	Block1	congruent/STIM_019.jpg
949.743	0.755	1	congruent	Block1	congruent/STIM_019.jpg
952.952	0.589	1	congruent	Block1	congruent/STIM_019.jpg
956.953	0.632	1	congruent	Block1	congruent/STIM_019.jpg
961.508	0.703	1	congruent	Block1	congruent/STIM_020.jpg
964.909	0.472	0	congruent	Block1	congruent/STIM_020.jpg
967.914	0.456	1	congruent	Block1	congruent/STIM_020.jpg
970.912	0.624	1	congruent	Block1	congruent/STIM_020.jpg
975.244	0.612	1	congruent	Block1	congruent/STIM_020.jpg
978.718	0.63	1	congruent	Block1	congruent/STIM_021.jpg
982.15	0.696	1	congruent	Block1	congruent/STIM_021.jpg
986.457	0.69	1	congruent	Block1	congruent/STIM_021.jpg
990.255	0.763	1	congruent	Block1	congruent/STIM_021.jpg
994.582	0.503	1	congruent	Block1	congruent/STIM_021.jpg
997.816	0.703	1	congruent	Block1	congruent/STIM_022.jpg
1001.3	0.704	1	congruent	Block1	congruent/STIM_022.jpg
1005.601	0.599	1	congruent	Block1	congruent/STIM_022.jpg
1009.725	0.712	1	congruent	Block1	congruent/STIM_022.jpg
1013.962	0.737	1	congruent	Block1	congruent/STIM_022.jpg
1016.942	0.537	1	congruent	Block1	congruent/STIM_023.jpg
1020.241	0.694	1	congruent	Block1	congruent/STIM_023.jpg
1024.846	0.631	1	congruent	Block1	congruent/STIM_023.jpg
1028.01	0.553	1	congruent	Block1	congruent/STIM_023.jpg
1032.227	0.643	1	congruent	Block1	congruent/STIM_023.jpg
1035.296	0.568	1	congruent	Block1	congruent/STIM_024.jpg
1039.839	0.728	1	congruent	Block1	congruent/STIM_024.jpg
1043.423	0.48	1	congruent	Block1	congruent/STIM_024.jpg
1046.548	0.827	1	congruent	Block1	congruent/STIM_024.jpg
1050.183	0.727	1	congruent	Block1	congruent/STIM_024.jpg
1054.988	0.612	1	congruent	Block1	congruent/STIM_025.jpg
1059.47	0.645	1	congruent	Block1	congruent/STIM_025.jpg
1063.539	0.537	1	congruent	Block1	congruent/STIM_025.jpg
1067.194	0.813	1	congruent	Block1	congruent/STIM_025.jpg
1070.375	0.584	1	congruent	Block1	congruent/STIM_025.jpg
1073.579	0.743	1	congruent	Block1	congruent/STIM_026.jpg
1078.027	0.548	0	congruent	Block1	congruent/STIM_026.jpg
1082.615	0.402	1	congruent	Block1	congruent/STIM_026.jpg
1085.665	0.651	1	congruent	Block1	congruent/STIM_026.jpg
1090.283	0.686	1	congruent	Block1	congruent/STIM_026.jpg
1094.846	0.564	1	congruent	Block1	congruent/STIM_027.jpg
1098.293	0.71	1	congruent	Block1	congruent/STIM_027.jpg
1102.506	0.553	1	congruent	Block1	congruent/STIM_027.jpg
1105.631	0.766	1	congruent	Block1	congruent/STIM_027.jpg
1110.362	0.608	1	congruent	Block1	congruent/STIM_027.jpg
1114.836	0.412	0	congruent	Block1	congruent/STIM_028.jpg
1118.05	0.592	1	congruent	Block1	congruent/STIM_028.jpg
1121.014	0.561	1	congruent	Block1	congruent/STIM_028.jpg
1123.645	0.811	1	congruent	Block1	congruent/STIM_028.jpg
1127.403	0.455	1	congruent	Block1	congruent/STIM_028.jpg
1130.306	0.531	1	congruent	Block1	congruent/STIM_029.jpg
1133.153	0.7	1	congruent	Block1	congruent/STIM_029.jpg
1137.53	0.594	1	congruent	Block1	congruent/STIM_029.jpg
1140.699	0.772	1	congruent	Block1	congruent/STIM_029.jpg
1143.871	0.581	1	congruent	Block1	congruent/STIM_029.jpg
1147.153	0.97	1	incongruent	Block2	incongruent/STIM_000.jpg
1150.66	0.452	1	incongruent	Block2	incongruent/STIM_000.jpg
1153.695	0.837	1	incongruent	Block2	incongruent/STIM_000.jpg
1156.766	0.86	1	incongruent	Block2	incongruent/STIM_000.jpg
1161.173	0.638	1	incongruent	Block2	incongruent/STIM_000.jpg
1164.552	0.616	0	incongruent	Block2	incongruent/STIM_001.jpg
1168.22	0.519	1	incongruent	Block2	incongruent/STIM_001.jpg
1171.924	0.564	1	incongruent	Block2	incongruent/STIM_001.jpg
1174.857	0.713	1	incongruent	Block2	incongruent/STIM_001.jpg
1177.898	0.637	1	incongruent	Block2	incongruent/STIM_001.jpg
1182.086	0.8	1	incongruent	Block2	incongruent/STIM_002.jpg
1185.24	0.642	1	incongruent	Block2	incongruent/STIM_002.jpg
1189.755	0.544	1	incongruent	Block2	incongruent/STIM_002.jpg
1194.261	0.819	1	incongruent	Block2	incongruent/STIM_002.jpg
1198.36	0.883	1	incongruent	Block2	incongruent/STIM_002.jpg
1202.339	0.762	1	incongruent	Block2	incongruent/STIM_003.jpg
1205.299	0.553	0	incongruent	Block2	incongruent/STIM_003.jpg
1208.487	0.608	1	incongruent	Block2	incongruent/STIM_003.jpg
1212.857	0.534	1	incongruent	Block2	incongruent/STIM_003.jpg
1216.834	0.516	1	incongruent	Block2	incongruent/STIM_003.jpg
1219.876	1.11	1	incongruent	Block2	incongruent/STIM_004.jpg
1224.2	0.543	1	incongruent	Block2	incongruent/STIM_004.jpg
1227.557	0.722	1	incongruent	Block2	incongruent/STIM_004.jpg
1231.577	0.422	1	incongruent	Block2	incongruent/STIM_004.jpg
1236.004	0.832	1	incongruent	Block2	incongruent/STIM_004.jpg
1239.441	0.702	1	incongruent	Block2	incongruent/STIM_005.jpg
1243.187	0.79	1	incongruent	Block2	incongruent/STIM_005.jpg
1247.568	0.909	1	incongruent	Block2	incongruent/STIM_005.jpg
1251.192	0.369	1	incongruent	Block2	incongruent/STIM_005.jpg
1253.789	0.902	1	incongruent	Block2	incongruent/STIM_005.jpg
1258.677	1.123	1	incongruent	Block2	incongruent/STIM_006.jpg
1263.754	0.721	1	incongruent	Block2	incongruent/STIM_006.jpg
1267.557	0.649	1	incongruent	Block2	incongruent/STIM_006.jpg
1271.342	0.47	1	incongruent	Block2	incongruent/STIM_006.jpg
1275.051	0.784	1	incongruent	Block2	incongruent/STIM_006.jpg
1279.628	0.639	1	incongruent	Block2	incongruent/STIM_007.jpg
1283.969	0.762	1	incongruent	Block2	incongruent/STIM_007.jpg
1287.98	0.602	1	incongruent	Block2	incongruent/STIM_007.jpg
1292.672	0.528	1	incongruent	Block2	incongruent/STIM_007.jpg
1295.807	0.833	1	incongruent	Block2	incongruent/STIM_007.jpg
1300.114	0.772	1	incongruent	Block2	incongruent/STIM_008.jpg
1304.023	1.038	1	incongruent	Block2	incongruent/STIM_008.jpg
1308.57	0.767	1	incongruent	Block2	incongruent/STIM_008.jpg
1311.432	0.807	1	incongruent	Block2	incongruent/STIM_008.jpg
1315.095	0.599	1	incongruent	Block2	incongruent/STIM_008.jpg
1318.627	0.828	1	incongruent	Block2	incongruent/STIM_009.jpg
1321.973	0.884	1	incongruent	Block2	incongruent/STIM_009.jpg
1325.052	0.862	1	incongruent	Block2	incongruent/STIM_009.jpg
1329.16	0.734	0	incongruent	Block2	incongruent/STIM_009.jpg
1332.407	0.474	1	incongruent	Block2	incongruent/STIM_009.jpg
1335.685	0.743	1	incongruent	Block2	incongruent/STIM_010.jpg
1339.261	0.54	1	incongruent	Block2	incongruent/STIM_010.jpg
1342.677	0.983	0	incongruent	Block2	incongruent/STIM_010.jpg
1346.995	0.523	1	incongruent	Block2	incongruent/STIM_010.jpg
1350.615	0.46	0	incongruent	Block2	incongruent/STIM_010.jpg
1353.535	0.771	1	incongruent	Block2	incongruent/STIM_011.jpg
1358.149	0.764	1	incongruent	Block2	incongruent/STIM_011.jpg
1362.747	0.935	1	incongruent	Block2	incongruent/STIM_011.jpg
1366.569	0.959	1	incongruent	Block2	incongruent/STIM_011.jpg
1371.132	0.677	1	incongruent	Block2	incongruent/STIM_011.jpg
1375.297	0.521	1	incongruent	Block2	incongruent/STIM_012.jpg
1377.913	0.627	1	incongruent	Block2	incongruent/STIM_012.jpg
1381.122	0.968	1	incongruent	Block2	incongruent/STIM_012.jpg
1384.685	0.603	1	incongruent	Block2	incongruent/STIM_012.jpg
1389.036	0.616	1	incongruent	Block2	incongruent/STIM_012.jpg
1392.695	0.74	1	incongruent	Block2	incongruent/STIM_013.jpg
1395.68	0.64	1	incongruent	Block2	incongruent/STIM_013.jpg
1399.399	0.856	1	incongruent	Block2	incongruent/STIM_013.jpg
1404.024	0.779	1	incongruent	Block2	incongruent/STIM_013.jpg
1407.395	0.797	1	incongruent	Block2	incongruent/STIM_013.jpg
1411.567	0.934	1	incongruent	Block2	incongruent/STIM_014.jpg
1416.019	0.795	1	incongruent	Block2	incongruent/STIM_014.jpg
1420.824	0.831	1	incongruent	Block2	incongruent/STIM_014.jpg
1424.193	0.714	1	incongruent	Block2	incongruent/STIM_014.jpg
1428.071	0.715	1	incongruent	Block2	incongruent/STIM_014.jpg
1430.955	0.606	1	incongruent	Block2	incongruent/STIM_015.jpg
1434.44	1.067	1	incongruent	Block2	incongruent/STIM_015.jpg
1439.029	0.506	1	incongruent	Block2	incongruent/STIM_015.jpg
1442.989	0.472	1	incongruent	Block2	incongruent/STIM_015.jpg
1447.17	0.865	1	incongruent	Block2	incongruent/STIM_015.jpg
1451.026	1.15	1	incongruent	Block2	incongruent/STIM_016.jpg
1454.296	0.753	1	incongruent	Block2	incongruent/STIM_016.jpg
1457.692	0.96	0	incongruent	Block2	incongruent/STIM_016.jpg
1460.99	0.772	1	incongruent	Block2	incongruent/STIM_016.jpg
1465.064	0.758	1	incongruent	Block2	incongruent/STIM_016.jpg
1468.997	0.681	1	incongruent	Block2	incongruent/STIM_017.jpg
1472.214	0.522	1	incongruent	Block2	incongruent/STIM_017.jpg
1474.839	0.82	1	incongruent	Block2	incongruent/STIM_017.jpg
1478.317	0.708	1	incongruent	Block2	incongruent/STIM_017.jpg
1482.553	0.606	1	incongruent	Block2	incongruent/STIM_017.jpg
1486.75	0.65	1	incongruent	Block2	incongruent/STIM_018.jpg
1490.326	0.595	1	incongruent	Block2	incongruent/STIM_018.jpg
1493.495	0.738	1	incongruent	Block2	incongruent/STIM_018.jpg
1497.932	0.721	1	incongruent	Block2	incongruent/STIM_018.jpg
1500.843	0.523	1	incongruent	Block2	incongruent/STIM_018.jpg
1503.779	0.706	1	incongruent	Block2	incongruent/STIM_019.jpg
1507.886	0.817	1	incongruent	Block2	incongruent/STIM_019.jpg
1512.561	0.714	1	incongruent	Block2	incongruent/STIM_019.jpg
1515.924	0.85	1	incongruent	Block2	incongruent/STIM_019.jpg
1520.002	0.423	1	incongruent	Block2	incongruent/STIM_019.jpg
1523.925	0.975	0	incongruent	Block2	incongruent/STIM_020.jpg
1527.484	0.68	1	incongruent	Block2	incongruent/STIM_020.jpg
1530.689	0.645	1	incongruent	Block2	incongruent/STIM_020.jpg
1535.222	0.893	1	incongruent	Block2	incongruent/STIM_020.jpg
1539.903	0.744	1	incongruent	Block2	incongruent/STIM_020.jpg
1542.832	0.736	1	incongruent	Block2	incongruent/STIM_021.jpg
1547.106	0.88	1	incongruent	Block2	incongruent/STIM_021.jpg
1550.056	0.4	0	incongruent	Block2	incongruent/STIM_021.jpg
1552.827	0.638	1	incongruent	Block2	incongruent/STIM_021.jpg
1556.303	0.435	1	incongruent	Block2	incongruent/STIM_021.jpg
1558.832	1.044	1	incongruent	Block2	incongruent/STIM_022.jpg
1563.623	0.702	1	incongruent	Block2	incongruent/STIM_022.jpg
1568.006	0.541	1	incongruent	Block2	incongruent/STIM_022.jpg
1571.618	0.463	1	incongruent	Block2	incongruent/STIM_022.jpg
1574.407	0.619	1	incongruent	Block2	incongruent/STIM_022.jpg
1577.909	0.518	1	incongruent	Block2	incongruent/STIM_023.jpg
1580.989	0.481	0	incongruent	Block2	incongruent/STIM_023.jpg
1584.164	0.518	1	incongruent	Block2	incongruent/STIM_023.jpg
1586.902	0.811	1	incongruent	Block2	incongruent/STIM_023.jpg
1589.828	0.711	1	incongruent	Block2	incongruent/STIM_023.jpg
1594.227	0.7	1	incongruent	Block2	incongruent/STIM_024.jpg
1598.058	0.614	1	incongruent	Block2	incongruent/STIM_024.jpg
1600.742	0.999	1	incongruent	Block2	incongruent/STIM_024.jpg
1604.397	0.482	1	incongruent	Block2	incongruent/STIM_024.jpg
1608.892	0.416	1	incongruent	Block2	incongruent/STIM_024.jpg
1612.221	1.057	1	incongruent	Block2	incongruent/STIM_025.jpg
1615.538	0.654	1	incongruent	Block2	incongruent/STIM_025.jpg
1619.216	0.942	1	incongruent	Block2	incongruent/STIM_025.jpg
1623.63	0.868	1	incongruent	Block2	incongruent/STIM_025.jpg
1627.939	0.425	1	incongruent	Block2	incongruent/STIM_025.jpg
1631.301	0.621	1	incongruent	Block2	incongruent/STIM_026.jpg
1636.004	0.824	1	incongruent	Block2	incongruent/STIM_026.jpg
1640.667	0.491	1	incongruent	Block2	incongruent/STIM_026.jpg
1644.408	0.789	1	incongruent	Block2	incongruent/STIM_026.jpg
1648.753	0.847	1	incongruent	Block2	incongruent/STIM_026.jpg
1653.036	1.076	1	incongruent	Block2	incongruent/STIM_027.jpg
1657.669	0.61	1	incongruent	Block2	incongruent/STIM_027.jpg
1662.186	0.76	1	incongruent	Block2	incongruent/STIM_027.jpg
1666.015	0.813	1	incongruent	Block2	incongruent/STIM_027.jpg
1669.348	0.698	1	incongruent	Block2	incongruent/STIM_027.jpg
1673.722	1.0	1	incongruent	Block2	incongruent/STIM_028.jpg
1678.532	0.57	1	incongruent	Block2	incongruent/STIM_028.jpg
1682.745	0.909	1	incongruent	Block2	incongruent/STIM_028.jpg
1686.937	0.55	1	incongruent	Block2	incongruent/STIM_028.jpg
1691.533	0.476	1	incongruent	Block2	incongruent/STIM_028.jpg
1695.303	0.899	1	incongruent	Block2	incongruent/STIM_029.jpg
1699.699	0.95	0	incongruent	Block2	incongruent/STIM_029.jpg
1704.747	0.667	1	incongruent	Block2	incongruent/STIM_029.jpg
1708.783	0.558	1	incongruent	Block2	incongruent/STIM_029.jpg
1712.759	0.652	1	incongruent	Block2	incongruent/STIM_029.jpg
1715.983	0.434	1	congruent	Block2	congruent/STIM_000.jpg
1718.586	0.811	1	congruent	Block2	congruent/STIM_000.jpg
1723.021	0.677	1	congruent	Block2	congruent/STIM_000.jpg
1725.907	0.697	1	congruent	Block2	congruent/STIM_000.jpg
1730.372	0.538	1	congruent	Block2	congruent/STIM_000.jpg
1733.741	0.503	0	congruent	Block2	congruent/STIM_001.jpg
1736.902	0.502	1	congruent	Block2	congruent/STIM_001.jpg
1740.485	0.389	1	congruent	Block2	congruent/STIM_001.jpg
1743.188	0.696	1	congruent	Block2	congruent/STIM_001.jpg
1746.041	0.643	0	congruent	Block2	congruent/STIM_001.jpg
1749.726	0.553	1	congruent	Block2	congruent/STIM_002.jpg
1752.685	0.701	1	congruent	Block2	congruent/STIM_002.jpg
1756.91	0.433	1	congruent	Block2	congruent/STIM_002.jpg
1760.607	0.654	1	congruent	Block2	congruent/STIM_002.jpg
1765.062	0.712	1	congruent	Block2	congruent/STIM_002.jpg
1768.021	0.57	1	congruent	Block2	congruent/STIM_003.jpg
1771.202	0.633	1	congruent	Block2	congruent/STIM_003.jpg
1774.876	0.73	1	congruent	Block2	congruent/STIM_003.jpg
1778.082	0.705	1	congruent	Block2	congruent/STIM_003.jpg
1782.183	0.606	1	congruent	Block2	congruent/STIM_003.jpg
1785.671	0.781	1	congruent	Block2	congruent/STIM_004.jpg
1788.828	0.672	1	congruent	Block2	congruent/STIM_004.jpg
1792.6	0.793	1	congruent	Block2	congruent/STIM_004.jpg
1797.234	0.74	1	congruent	Block2	congruent/STIM_004.jpg
1801.981	0.447	1	congruent	Block2	congruent/STIM_004.jpg
1805.079	0.553	1	congruent	Block2	congruent/STIM_005.jpg
1809.367	0.623	1	congruent	Block2	congruent/STIM_005.jpg
1812.796	0.5	1	congruent	Block2	congruent/STIM_005.jpg
1817.267	0.621	1	congruent	Block2	congruent/STIM_005.jpg
1820.576	0.428	1	congruent	Block2	congruent/STIM_005.jpg
1823.84	0.655	1	congruent	Block2	congruent/STIM_006.jpg
1827.424	0.643	1	congruent	Block2	congruent/STIM_006.jpg
1830.781	0.509	1	congruent	Block2	congruent/STIM_006.jpg
1834.847	0.604	1	congruent	Block2	congruent/STIM_006.jpg
1837.936	0.548	1	congruent	Block2	congruent/STIM_006.jpg
1842.337	0.687	1	congruent	Block2	congruent/STIM_007.jpg
1846.753	0.398	1	congruent	Block2	congruent/STIM_007.jpg
1849.715	0.465	1	congruent	Block2	congruent/STIM_007.jpg
1852.311	0.612	1	congruent	Block2	congruent/STIM_007.jpg
1856.397	0.63	1	congruent	Block2	congruent/STIM_007.jpg
1861.064	0.768	1	congruent	Block2	congruent/STIM_008.jpg
1864.349	0.564	1	congruent	Block2	congruent/STIM_008.jpg
1867.68	0.514	1	congruent	Block2	congruent/STIM_008.jpg
1870.393	0.795	1	congruent	Block2	congruent/STIM_008.jpg
1874.586	0.598	1	congruent	Block2	congruent/STIM_008.jpg
1878.107	0.61	1	congruent	Block2	congruent/STIM_009.jpg
1881.875	0.834	1	congruent	Block2	congruent/STIM_009.jpg
1885.221	0.746	1	congruent	Block2	congruent/STIM_009.jpg
1888.561	0.434	1	congruent	Block2	congruent/STIM_009.jpg
1892.148	0.611	1	congruent	Block2	congruent/STIM_009.jpg
1896.589	0.719	1	congruent	Block2	congruent/STIM_010.jpg
1899.586	0.527	1	congruent	Block2	congruent/STIM_010.jpg
1904.068	0.767	1	congruent	Block2	congruent/STIM_010.jpg
1907.48	0.64	1	congruent	Block2	congruent/STIM_010.jpg
1911.991	0.482	1	congruent	Block2	congruent/STIM_010.jpg
1916.345	0.86	1	congruent	Block2	congruent/STIM_011.jpg
1920.994	0.478	1	congruent	Block2	congruent/STIM_011.jpg
1924.687	0.636	1	congruent	Block2	congruent/STIM_011.jpg
1927.832	0.684	1	congruent	Block2	congruent/STIM_011.jpg
1932.509	0.635	1	congruent	Block2	congruent/STIM_011.jpg
1935.736	0.832	1	congruent	Block2	congruent/STIM_012.jpg
1939.675	0.661	1	congruent	Block2	congruent/STIM_012.jpg
1942.893	0.563	1	congruent	Block2	congruent/STIM_012.jpg
1945.692	0.573	1	congruent	Block2	congruent/STIM_012.jpg
1949.054	0.623	1	congruent	Block2	congruent/STIM_012.jpg
1952.475	0.765	1	congruent	Block2	congruent/STIM_013.jpg
1956.373	0.685	0	congruent	Block2	congruent/STIM_013.jpg
1960.606	0.493	1	congruent	Block2	congruent/STIM_013.jpg
1963.975	0.792	1	congruent	Block2	congruent/STIM_013.jpg
1967.233	0.537	1	congruent	Block2	congruent/STIM_013.jpg
1970.052	0.553	1	congruent	Block2	congruent/STIM_014.jpg
1973.51	0.553	1	congruent	Block2	congruent/STIM_014.jpg
1976.768	0.454	1	congruent	Block2	congruent/STIM_014.jpg
1979.797	0.462	1	congruent	Block2	congruent/STIM_014.jpg
1982.777	0.702	1	congruent	Block2	congruent/STIM_014.jpg
1986.226	0.519	1	congruent	Block2	congruent/STIM_015.jpg
1990.166	0.541	1	congruent	Block2	congruent/STIM_015.jpg
1993.708	0.461	1	congruent	Block2	congruent/STIM_015.jpg
1997.598	0.687	1	congruent	Block2	congruent/STIM_015.jpg
2001.855	0.463	1	congruent	Block2	congruent/STIM_015.jpg
2005.967	0.792	1	congruent	Block2	congruent/STIM_016.jpg
2009.191	0.494	0	congruent	Block2	congruent/STIM_016.jpg
2013.125	0.641	1	congruent	Block2	congruent/STIM_016.jpg
2015.926	0.514	0	congruent	Block2	congruent/STIM_016.jpg
2019.468	0.446	1	congruent	Block2	congruent/STIM_016.jpg
2023.081	0.625	1	congruent	Block2	congruent/STIM_017.jpg
2027.276	0.858	1	congruent	Block2	congruent/STIM_017.jpg
2031.79	0.613	1	congruent	Block2	congruent/STIM_017.jpg
2035.727	0.774	1	congruent	Block2	congruent/STIM_017.jpg
2040.501	0.773	1	congruent	Block2	congruent/STIM_017.jpg
2044.333	0.759	1	congruent	Block2	congruent/STIM_018.jpg
2048.36	0.489	1	congruent	Block2	congruent/STIM_018.jpg
2052.699	0.664	1	congruent	Block2	congruent/STIM_018.jpg
2056.162	0.64	1	congruent	Block2	congruent/STIM_018.jpg
2060.092	0.449	1	congruent	Block2	congruent/STIM_018.jpg
2063.881	0.75	1	congruent	Block2	congruent/STIM_019.jpg
2068.595	0.714	1	congruent	Block2	congruent/STIM_019.jpg
2073.009	0.576	1	congruent	Block2	congruent/STIM_019.jpg
2077.044	0.719	1	congruent	Block2	congruent/STIM_019.jpg
2080.101	0.569	1	congruent	Block2	congruent/STIM_019.jpg
2083.133	0.717	1	congruent	Block2	congruent/STIM_020.jpg
2087.786	0.463	1	congruent	Block2	congruent/STIM_020.jpg
2091.059	0.394	1	congruent	Block2	congruent/STIM_020.jpg
2093.639	0.567	1	congruent	Block2	congruent/STIM_020.jpg
2096.458	0.561	1	congruent	Block2	congruent/STIM_020.jpg
2099.904	0.736	1	congruent	Block2	congruent/STIM_021.jpg
2104.178	0.741	1	congruent	Block2	congruent/STIM_021.jpg
2108.693	0.647	0	congruent	Block2	congruent/STIM_021.jpg
2111.826	0.562	1	congruent	Block2	congruent/STIM_021.jpg
2115.305	0.426	1	congruent	Block2	congruent/STIM_021.jpg
2119.066	0.534	0	congruent	Block2	congruent/STIM_022.jpg
2122.156	0.825	1	congruent	Block2	congruent/STIM_022.jpg
2126.012	0.459	1	congruent	Block2	congruent/STIM_022.jpg
2128.874	0.804	1	congruent	Block2	congruent/STIM_022.jpg
2133.184	0.526	1	congruent	Block2	congruent/STIM_022.jpg
2136.379	0.532	1	congruent	Block2	congruent/STIM_023.jpg
2140.774	0.674	1	congruent	Block2	congruent/STIM_023.jpg
2143.876	0.522	1	congruent	Block2	congruent/STIM_023.jpg
2147.68	0.503	1	congruent	Block2	congruent/STIM_023.jpg
2151.762	0.646	1	congruent	Block2	congruent/STIM_023.jpg
2155.781	0.606	1	congruent	Block2	congruent/STIM_024.jpg
2158.67	0.738	1	congruent	Block2	congruent/STIM_024.jpg
2162.27	0.703	1	congruent	Block2	congruent/STIM_024.jpg
2166.407	0.466	1	congruent	Block2	congruent/STIM_024.jpg
2169.767	0.635	1	congruent	Block2	congruent/STIM_024.jpg
2173.97	0.702	1	congruent	Block2	congruent/STIM_025.jpg
2177.714	0.741	1	congruent	Block2	congruent/STIM_025.jpg
2180.827	0.401	1	congruent	Block2	congruent/STIM_025.jpg
2184.761	0.678	1	congruent	Block2	congruent/STIM_025.jpg
2189.474	0.616	1	congruent	Block2	congruent/STIM_025.jpg
2192.751	0.475	1	congruent	Block2	congruent/STIM_026.jpg
2195.708	0.398	1	congruent	Block2	congruent/STIM_026.jpg
2198.638	0.754	1	congruent	Block2	congruent/STIM_026.jpg
2201.589	0.497	1	congruent	Block2	congruent/STIM_026.jpg
2204.27	0.78	0	congruent	Block2	congruent/STIM_026.jpg
2208.39	0.487	1	congruent	Block2	congruent/STIM_027.jpg
2211.545	0.502	1	congruent	Block2	congruent/STIM_027.jpg
2215.726	0.665	1	congruent	Block2	congruent/STIM_027.jpg
2219.814	0.509	1	congruent	Block2	congruent/STIM_027.jpg
2223.729	0.63	1	congruent	Block2	congruent/STIM_027.jpg
2226.892	0.517	1	congruent	Block2	congruent/STIM_028.jpg
2229.861	0.43	1	congruent	Block2	congruent/STIM_028.jpg
2234.124	0.707	1	congruent	Block2	congruent/STIM_028.jpg
2236.977	0.828	1	congruent	Block2	congruent/STIM_028.jpg
2241.053	0.438	1	congruent	Block2	congruent/STIM_028.jpg
2243.815	0.841	1	congruent	Block2	congruent/STIM_029.jpg
2248.248	0.731	1	congruent	Block2	congruent/STIM_029.jpg
2252.891	0.604	1	congruent	Block2	congruent/STIM_029.jpg
2256.267	0.519	1	congruent	Block2	congruent/STIM_029.jpg
2260.887	0.692	1	congruent	Block2	congruent/STIM_029.jpg
2265.486	0.724	1	incongruent	Block3	incongruent/STIM_000.jpg
2269.167	0.659	1	incongruent	Block3	incongruent/STIM_000.jpg
2273.19	0.74	1	incongruent	Block3	incongruent/STIM_000.jpg
2277.416	0.425	1	incongruent	Block3	incongruent/STIM_000.jpg
2280.509	0.994	1	incongruent	Block3	incongruent/STIM_000.jpg
2285.364	0.862	1	incongruent	Block3	incongruent/STIM_001.jpg
2289.589	0.704	1	incongruent	Block3	incongruent/STIM_001.jpg
2292.709	0.504	1	incongruent	Block3	incongruent/STIM_001.jpg
2296.994	0.803	1	incongruent	Block3	incongruent/STIM_001.jpg
2301.489	0.859	1	incongruent	Block3	incongruent/STIM_001.jpg
2305.916	0.906	1	incongruent	Block3	incongruent/STIM_002.jpg
2308.949	0.702	1	incongruent	Block3	incongruent/STIM_002.jpg
2312.897	0.728	1	incongruent	Block3	incongruent/STIM_002.jpg
2315.922	0.681	1	incongruent	Block3	incongruent/STIM_002.jpg
2320.545	0.744	1	incongruent	Block3	incongruent/STIM_002.jpg
2324.478	0.68	1	incongruent	Block3	incongruent/STIM_003.jpg
2328.89	0.457	1	incongruent	Block3	incongruent/STIM_003.jpg
2331.628	0.507	1	incongruent	Block3	incongruent/STIM_003.jpg
2335.601	0.539	1	incongruent	Block3	incongruent/STIM_003.jpg
2339.4	0.715	1	incongruent	Block3	incongruent/STIM_003.jpg
2344.141	0.836	1	incongruent	Block3	incongruent/STIM_004.jpg
2348.981	0.644	1	incongruent	Block3	incongruent/STIM_004.jpg
2353.53	0.755	1	incongruent	Block3	incongruent/STIM_004.jpg
2357.371	0.613	1	incongruent	Block3	incongruent/STIM_004.jpg
2361.106	0.904	1	incongruent	Block3	incongruent/STIM_004.jpg
2364.526	0.76	1	incongruent	Block3	incongruent/STIM_005.jpg
2367.907	0.744	1	incongruent	Block3	incongruent/STIM_005.jpg
2371.995	0.727	1	incongruent	Block3	incongruent/STIM_005.jpg
2376.575	0.652	1	incongruent	Block3	incongruent/STIM_005.jpg
2379.713	0.716	1	incongruent	Block3	incongruent/STIM_005.jpg
2383.445	0.44	0	incongruent	Block3	incongruent/STIM_006.jpg
2386.596	0.809	1	incongruent	Block3	incongruent/STIM_006.jpg
2389.755	0.814	1	incongruent	Block3	incongruent/STIM_006.jpg
2394.177	0.638	1	incongruent	Block3	incongruent/STIM_006.jpg
2397.481	0.536	1	incongruent	Block3	incongruent/STIM_006.jpg
2400.538	0.732	1	incongruent	Block3	incongruent/STIM_007.jpg
2403.713	0.552	1	incongruent	Block3	incongruent/STIM_007.jpg
2407.72	0.785	1	incongruent	Block3	incongruent/STIM_007.jpg
2411.706	0.566	1	incongruent	Block3	incongruent/STIM_007.jpg
2415.578	0.716	1	incongruent	Block3	incongruent/STIM_007.jpg
2420.092	0.513	1	incongruent	Block3	incongruent/STIM_008.jpg
2423.958	0.499	1	incongruent	Block3	incongruent/STIM_008.jpg
2427.076	0.621	1	incongruent	Block3	incongruent/STIM_008.jpg
2429.976	0.564	1	incongruent	Block3	incongruent/STIM_008.jpg
2433.052	0.499	1	incongruent	Block3	incongruent/STIM_008.jpg
2436.914	0.873	1	incongruent	Block3	incongruent/STIM_009.jpg
2441.588	0.652	1	incongruent	Block3	incongruent/STIM_009.jpg
2445.286	0.562	1	incongruent	Block3	incongruent/STIM_009.jpg
2448.954	0.431	1	incongruent	Block3	incongruent/STIM_009.jpg
2452.403	0.836	1	incongruent	Block3	incongruent/STIM_009.jpg
2456.791	0.63	1	incongruent	Block3	incongruent/STIM_010.jpg
2461.399	0.877	1	incongruent	Block3	incongruent/STIM_010.jpg
2465.939	0.636	1	incongruent	Block3	incongruent/STIM_010.jpg
2470.243	0.836	1	incongruent	Block3	incongruent/STIM_010.jpg
2474.968	0.529	1	incongruent	Block3	incongruent/STIM_010.jpg
2478.37	0.764	1	incongruent	Block3	incongruent/STIM_011.jpg
2482.782	0.706	1	incongruent	Block3	incongruent/STIM_011.jpg
2486.605	0.863	1	incongruent	Block3	incongruent/STIM_011.jpg
2490.489	0.563	1	incongruent	Block3	incongruent/STIM_011.jpg
2493.978	0.576	1	incongruent	Block3	incongruent/STIM_011.jpg
2498.563	0.673	1	incongruent	Block3	incongruent/STIM_012.jpg
2501.36	0.836	1	incongruent	Block3	incongruent/STIM_012.jpg
2505.044	0.47	1	incongruent	Block3	incongruent/STIM_012.jpg
2509.514	0.914	1	incongruent	Block3	incongruent/STIM_012.jpg
2514.098	0.705	1	incongruent	Block3	incongruent/STIM_012.jpg
2517.696	0.492	1	incongruent	Block3	incongruent/STIM_013.jpg
2521.529	0.83	1	incongruent	Block3	incongruent/STIM_013.jpg
2524.929	0.811	1	incongruent	Block3	incongruent/STIM_013.jpg
2527.842	0.628	0	incongruent	Block3	incongruent/STIM_013.jpg
2531.416	0.679	1	incongruent	Block3	incongruent/STIM_013.jpg
2534.235	0.627	1	incongruent	Block3	incongruent/STIM_014.jpg
2538.636	0.435	1	incongruent	Block3	incongruent/STIM_014.jpg
2542.394	0.585	1	incongruent	Block3	incongruent/STIM_014.jpg
2545.865	0.714	1	incongruent	Block3	incongruent/STIM_014.jpg
2548.752	0.586	1	incongruent	Block3	incongruent/STIM_014.jpg
2551.644	0.591	0	incongruent	Block3	incongruent/STIM_015.jpg
2555.103	0.874	1	incongruent	Block3	incongruent/STIM_015.jpg
2559.137	0.666	1	incongruent	Block3	incongruent/STIM_015.jpg
2563.878	0.652	1	incongruent	Block3	incongruent/STIM_015.jpg
2567.061	0.922	1	incongruent	Block3	incongruent/STIM_015.jpg
2571.511	0.666	1	incongruent	Block3	incongruent/STIM_016.jpg
2575.488	0.67	1	incongruent	Block3	incongruent/STIM_016.jpg
2578.457	0.82	1	incongruent	Block3	incongruent/STIM_016.jpg
2582.734	0.649	0	incongruent	Block3	incongruent/STIM_016.jpg
2587.278	0.517	1	incongruent	Block3	incongruent/STIM_016.jpg
2590.921	0.66	1	incongruent	Block3	incongruent/STIM_017.jpg
2593.695	0.618	1	incongruent	Block3	incongruent/STIM_017.jpg
2596.702	0.613	1	incongruent	Block3	incongruent/STIM_017.jpg
2600.981	0.923	1	incongruent	Block3	incongruent/STIM_017.jpg
2605.896	0.589	1	incongruent	Block3	incongruent/STIM_017.jpg
2609.557	0.441	1	incongruent	Block3	incongruent/STIM_018.jpg
2612.65	0.659	1	incongruent	Block3	incongruent/STIM_018.jpg
2616.062	0.742	1	incongruent	Block3	incongruent/STIM_018.jpg
2620.695	0.837	1	incongruent	Block3	incongruent/STIM_018.jpg
2623.629	0.719	1	incongruent	Block3	incongruent/STIM_018.jpg
2628.347	0.87	1	incongruent	Block3	incongruent/STIM_019.jpg
2632.446	0.42	1	incongruent	Block3	incongruent/STIM_019.jpg
2636.896	0.716	1	incongruent	Block3	incongruent/STIM_019.jpg
2640.084	0.675	1	incongruent	Block3	incongruent/STIM_019.jpg
2642.93	0.686	1	incongruent	Block3	incongruent/STIM_019.jpg
2647.075	0.839	1	incongruent	Block3	incongruent/STIM_020.jpg
2651.256	0.773	1	incongruent	Block3	incongruent/STIM_020.jpg
2654.518	0.444	1	incongruent	Block3	incongruent/STIM_020.jpg
2658.117	0.749	1	incongruent	Block3	incongruent/STIM_020.jpg
2661.987	0.837	1	incongruent	Block3	incongruent/STIM_020.jpg
2666.194	0.56	1	incongruent	Block3	incongruent/STIM_021.jpg
2670.572	0.898	1	incongruent	Block3	incongruent/STIM_021.jpg
2674.741	0.928	1	incongruent	Block3	incongruent/STIM_021.jpg
2679.129	0.448	1	incongruent	Block3	incongruent/STIM_021.jpg
2682.302	0.778	1	incongruent	Block3	incongruent/STIM_021.jpg
2687.183	0.618	1	incongruent	Block3	incongruent/STIM_022.jpg
2691.346	0.727	1	incongruent	Block3	incongruent/STIM_022.jpg
2694.676	0.57	1	incongruent	Block3	incongruent/STIM_022.jpg
2698.87	0.632	0	incongruent	Block3	incongruent/STIM_022.jpg
2701.98	0.524	1	incongruent	Block3	incongruent/STIM_022.jpg
2706.254	0.61	0	incongruent	Block3	incongruent/STIM_023.jpg
2710.825	0.637	1	incongruent	Block3	incongruent/STIM_023.jpg
2714.035	0.549	1	incongruent	Block3	incongruent/STIM_023.jpg
2718.309	0.831	1	incongruent	Block3	incongruent/STIM_023.jpg
2721.928	0.574	1	incongruent	Block3	incongruent/STIM_023.jpg
2724.79	0.83	1	incongruent	Block3	incongruent/STIM_024.jpg
2729.164	0.623	1	incongruent	Block3	incongruent/STIM_024.jpg
2733.427	0.551	1	incongruent	Block3	incongruent/STIM_024.jpg
2738.0	0.588	1	incongruent	Block3	incongruent/STIM_024.jpg
2741.453	0.895	1	incongruent	Block3	incongruent/STIM_024.jpg
2745.514	0.472	1	incongruent	Block3	incongruent/STIM_025.jpg
2749.615	0.852	1	incongruent	Block3	incongruent/STIM_025.jpg
2754.034	0.908	1	incongruent	Block3	incongruent/STIM_025.jpg
2758.113	0.676	1	incongruent	Block3	incongruent/STIM_025.jpg
2762.694	0.455	1	incongruent	Block3	incongruent/STIM_025.jpg
2766.59	0.605	1	incongruent	Block3	incongruent/STIM_026.jpg
2770.419	0.899	1	incongruent	Block3	incongruent/STIM_026.jpg
2773.997	0.83	1	incongruent	Block3	incongruent/STIM_026.jpg
2777.664	0.643	1	incongruent	Block3	incongruent/STIM_026.jpg
2780.843	0.48	1	incongruent	Block3	incongruent/STIM_026.jpg
2783.446	0.452	1	incongruent	Block3	incongruent/STIM_027.jpg
2786.647	0.727	1	incongruent	Block3	incongruent/STIM_027.jpg
2789.875	0.788	1	incongruent	Block3	incongruent/STIM_027.jpg
2794.857	0.502	1	incongruent	Block3	incongruent/STIM_027.jpg
2798.725	0.52	0	incongruent	Block3	incongruent/STIM_027.jpg
2801.769	0.943	1	incongruent	Block3	incongruent/STIM_028.jpg
2805.062	0.771	1	incongruent	Block3	incongruent/STIM_028.jpg
2809.557	0.596	1	incongruent	Block3	incongruent/STIM_028.jpg
2813.983	0.505	1	incongruent	Block3	incongruent/STIM_028.jpg
2817.381	0.695	1	incongruent	Block3	incongruent/STIM_028.jpg
2821.799	0.535	1	incongruent	Block3	incongruent/STIM_029.jpg
2824.812	0.711	1	incongruent	Block3	incongruent/STIM_029.jpg
2827.808	0.758	1	incongruent	Block3	incongruent/STIM_029.jpg
2831.012	0.86	1	incongruent	Block3	incongruent/STIM_029.jpg
2835.655	0.438	1	incongruent	Block3	incongruent/STIM_029.jpg
2838.263	0.74	1	congruent	Block3	congruent/STIM_000.jpg
2842.752	0.512	1	congruent	Block3	congruent/STIM_000.jpg
2847.062	0.711	1	congruent	Block3	congruent/STIM_000.jpg
2850.772	0.826	1	congruent	Block3	congruent/STIM_000.jpg
2854.693	0.607	1	congruent	Block3	congruent/STIM_000.jpg
2858.759	0.726	1	congruent	Block3	congruent/STIM_001.jpg
2862.033	0.431	0	congruent	Block3	congruent/STIM_001.jpg
2865.006	0.424	1	congruent	Block3	congruent/STIM_001.jpg
2868.133	0.513	1	congruent	Block3	congruent/STIM_001.jpg
2871.735	0.684	1	congruent	Block3	congruent/STIM_001.jpg
2876.175	0.619	1	congruent	Block3	congruent/STIM_002.jpg
2880.847	0.569	1	congruent	Block3	congruent/STIM_002.jpg
2884.765	0.423	1	congruent	Block3	congruent/STIM_002.jpg
2888.713	0.755	1	congruent	Block3	congruent/STIM_002.jpg
2892.699	0.562	1	congruent	Block3	congruent/STIM_002.jpg
2896.069	0.675	1	congruent	Block3	congruent/STIM_003.jpg
2900.84	0.587	1	congruent	Block3	congruent/STIM_003.jpg
2904.905	0.784	1	congruent	Block3	congruent/STIM_003.jpg
2909.146	0.796	1	congruent	Block3	congruent/STIM_003.jpg
2912.107	0.388	1	congruent	Block3	congruent/STIM_003.jpg
2916.333	0.61	1	congruent	Block3	congruent/STIM_004.jpg
2920.86	0.572	1	congruent	Block3	congruent/STIM_004.jpg
2923.635	0.551	1	congruent	Block3	congruent/STIM_004.jpg
2927.309	0.676	1	congruent	Block3	congruent/STIM_004.jpg
2931.033	0.486	1	congruent	Block3	congruent/STIM_004.jpg
2934.365	0.707	1	congruent	Block3	congruent/STIM_005.jpg
2937.845	0.469	1	congruent	Block3	congruent/STIM_005.jpg
2942.085	0.632	1	congruent	Block3	congruent/STIM_005.jpg
2946.045	0.747	1	congruent	Block3	congruent/STIM_005.jpg
2950.128	0.408	1	congruent	Block3	congruent/STIM_005.jpg
2954.24	0.616	1	congruent	Block3	congruent/STIM_006.jpg
2958.924	0.561	1	congruent	Block3	congruent/STIM_006.jpg
2961.883	0.788	1	congruent	Block3	congruent/STIM_006.jpg
2965.804	0.652	1	congruent	Block3	congruent/STIM_006.jpg
2969.366	0.618	1	congruent	Block3	congruent/STIM_006.jpg
2972.475	0.853	1	congruent	Block3	congruent/STIM_007.jpg
2977.312	0.491	1	congruent	Block3	congruent/STIM_007.jpg
2981.677	0.544	1	congruent	Block3	congruent/STIM_007.jpg
2985.366	0.724	1	congruent	Block3	congruent/STIM_007.jpg
2989.204	0.704	1	congruent	Block3	congruent/STIM_007.jpg
2992.811	0.594	1	congruent	Block3	congruent/STIM_008.jpg
2995.692	0.676	1	congruent	Block3	congruent/STIM_008.jpg
2999.789	0.83	1	congruent	Block3	congruent/STIM_008.jpg
3003.433	0.569	1	congruent	Block3	congruent/STIM_008.jpg
3006.755	0.828	1	congruent	Block3	congruent/STIM_008.jpg
3011.195	0.492	1	congruent	Block3	congruent/STIM_009.jpg
3014.009	0.408	1	congruent	Block3	congruent/STIM_009.jpg
3017.106	0.518	0	congruent	Block3	congruent/STIM_009.jpg
3021.414	0.48	1	congruent	Block3	congruent/STIM_009.jpg
3024.755	0.834	1	congruent	Block3	congruent/STIM_009.jpg
3028.747	0.799	1	congruent	Block3	congruent/STIM_010.jpg
3031.646	0.74	1	congruent	Block3	congruent/STIM_010.jpg
3036.221	0.726	1	congruent	Block3	congruent/STIM_010.jpg
3040.05	0.751	0	congruent	Block3	congruent/STIM_010.jpg
3043.156	0.648	1	congruent	Block3	congruent/STIM_010.jpg
3046.786	0.698	1	congruent	Block3	congruent/STIM_011.jpg
3050.468	0.804	1	congruent	Block3	congruent/STIM_011.jpg
3054.564	0.464	1	congruent	Block3	congruent/STIM_011.jpg
3058.045	0.624	1	congruent	Block3	congruent/STIM_011.jpg
3060.902	0.683	1	congruent	Block3	congruent/STIM_011.jpg
3064.999	0.678	1	congruent	Block3	congruent/STIM_012.jpg
3068.473	0.527	1	congruent	Block3	congruent/STIM_012.jpg
3072.425	0.528	1	congruent	Block3	congruent/STIM_012.jpg
3074.992	0.601	1	congruent	Block3	congruent/STIM_012.jpg
3078.081	0.623	1	congruent	Block3	congruent/STIM_012.jpg
3081.627	0.512	1	congruent	Block3	congruent/STIM_013.jpg
3085.626	0.78	1	congruent	Block3	congruent/STIM_013.jpg
3089.027	0.535	1	congruent	Block3	congruent/STIM_013.jpg
3092.628	0.552	1	congruent	Block3	congruent/STIM_013.jpg
3095.411	0.677	1	congruent	Block3	congruent/STIM_013.jpg
3099.707	0.713	1	congruent	Block3	congruent/STIM_014.jpg
3104.34	0.692	1	congruent	Block3	congruent/STIM_014.jpg
3107.173	0.727	1	congruent	Block3	congruent/STIM_014.jpg
3110.014	0.73	1	congruent	Block3	congruent/STIM_014.jpg
3114.151	0.414	1	congruent	Block3	congruent/STIM_014.jpg
3116.981	0.452	1	congruent	Block3	congruent/STIM_015.jpg
3121.047	0.795	1	congruent	Block3	congruent/STIM_015.jpg
3125.875	0.661	1	congruent	Block3	congruent/STIM_015.jpg
3129.146	0.506	1	congruent	Block3	congruent/STIM_015.jpg
3133.259	0.373	1	congruent	Block3	congruent/STIM_015.jpg
3137.545	0.76	1	congruent	Block3	congruent/STIM_016.jpg
3142.265	0.563	1	congruent	Block3	congruent/STIM_016.jpg
3145.795	0.504	1	congruent	Block3	congruent/STIM_016.jpg
3149.01	0.54	1	congruent	Block3	congruent/STIM_016.jpg
3151.894	0.406	1	congruent	Block3	congruent/STIM_016.jpg
3154.616	0.621	1	congruent	Block3	congruent/STIM_017.jpg
3158.793	0.612	0	congruent	Block3	congruent/STIM_017.jpg
3161.607	0.882	1	congruent	Block3	congruent/STIM_017.jpg
3165.53	0.866	1	congruent	Block3	congruent/STIM_017.jpg
3168.543	0.393	1	congruent	Block3	congruent/STIM_017.jpg
3171.191	0.567	1	congruent	Block3	congruent/STIM_018.jpg
3175.389	0.44	1	congruent	Block3	congruent/STIM_018.jpg
3178.501	0.601	0	congruent	Block3	congruent/STIM_018.jpg
3181.199	0.419	1	congruent	Block3	congruent/STIM_018.jpg
3185.071	0.752	1	congruent	Block3	congruent/STIM_018.jpg
3188.43	0.604	1	congruent	Block3	congruent/STIM_019.jpg
3191.827	0.499	1	congruent	Block3	congruent/STIM_019.jpg
3196.05	0.496	1	congruent	Block3	congruent/STIM_019.jpg
3199.784	0.732	1	congruent	Block3	congruent/STIM_019.jpg
3202.593	0.475	1	congruent	Block3	congruent/STIM_019.jpg
3205.756	0.705	1	congruent	Block3	congruent/STIM_020.jpg
3208.628	0.758	1	congruent	Block3	congruent/STIM_020.jpg
3212.302	0.756	1	congruent	Block3	congruent/STIM_020.jpg
3216.23	0.729	1	congruent	Block3	congruent/STIM_020.jpg
3220.036	0.475	1	congruent	Block3	congruent/STIM_020.jpg
3223.436	0.616	1	congruent	Block3	congruent/STIM_021.jpg
3227.263	0.7	1	congruent	Block3	congruent/STIM_021.jpg
3231.017	0.755	1	congruent	Block3	congruent/STIM_021.jpg
3233.819	0.826	1	congruent	Block3	congruent/STIM_021.jpg
3237.802	0.632	1	congruent	Block3	congruent/STIM_021.jpg
3241.941	0.569	0	congruent	Block3	congruent/STIM_022.jpg
3245.783	0.56	1	congruent	Block3	congruent/STIM_022.jpg
3249.739	0.584	1	congruent	Block3	congruent/STIM_022.jpg
3252.721	0.632	1	congruent	Block3	congruent/STIM_022.jpg
3255.915	0.54	1	congruent	Block3	congruent/STIM_022.jpg
3260.114	0.504	1	congruent	Block3	congruent/STIM_023.jpg
3263.988	0.621	0	congruent	Block3	congruent/STIM_023.jpg
3267.578	0.495	1	congruent	Block3	congruent/STIM_023.jpg
3272.026	0.678	1	congruent	Block3	congruent/STIM_023.jpg
3275.07	0.677	1	congruent	Block3	congruent/STIM_023.jpg
3279.427	0.522	1	congruent	Block3	congruent/STIM_024.jpg
3283.08	0.707	1	congruent	Block3	congruent/STIM_024.jpg
3286.535	0.726	1	congruent	Block3	congruent/STIM_024.jpg
3290.96	0.777	1	congruent	Block3	congruent/STIM_024.jpg
3294.92	0.455	1	congruent	Block3	congruent/STIM_024.jpg
3299.528	0.546	1	congruent	Block3	congruent/STIM_025.jpg
3303.749	0.768	1	congruent	Block3	congruent/STIM_025.jpg
3306.934	0.459	1	congruent	Block3	congruent/STIM_025.jpg
3310.163	0.428	1	congruent	Block3	congruent/STIM_025.jpg
3312.776	0.727	1	congruent	Block3	congruent/STIM_025.jpg
3317.477	0.567	1	congruent	Block3	congruent/STIM_026.jpg
3320.936	0.587	1	congruent	Block3	congruent/STIM_026.jpg
3324.051	0.604	1	congruent	Block3	congruent/STIM_026.jpg
3328.136	0.634	1	congruent	Block3	congruent/STIM_026.jpg
3332.491	0.689	1	congruent	Block3	congruent/STIM_026.jpg
3336.935	0.448	1	congruent	Block3	congruent/STIM_027.jpg
3340.548	0.768	1	congruent	Block3	congruent/STIM_027.jpg
3343.692	0.678	1	congruent	Block3	congruent/STIM_027.jpg
3346.633	0.759	1	congruent	Block3	congruent/STIM_027.jpg
3350.538	0.664	1	congruent	Block3	congruent/STIM_027.jpg
3353.495	0.538	1	congruent	Block3	congruent/STIM_028.jpg
3356.798	0.664	1	congruent	Block3	congruent/STIM_028.jpg
3360.914	0.679	1	congruent	Block3	congruent/STIM_028.jpg
3363.886	0.762	1	congruent	Block3	congruent/STIM_028.jpg
3367.466	0.652	1	congruent	Block3	congruent/STIM_028.jpg
3371.362	0.557	1	congruent	Block3	congruent/STIM_029.jpg
3375.489	0.58	1	congruent	Block3	congruent/STIM_029.jpg
3378.445	0.719	1	congruent	Block3	congruent/STIM_029.jpg
3382.896	0.507	1	congruent	Block3	congruent/STIM_029.jpg
3385.805	0.364	1	congruent	Block3	congruent/STIM_029.jpg
