onset	duration	response_time_ms	trial_type	learning_stage	stimulus	response_port
0.0	0.854	853.7	incongruent	Block1	incongruent/STIM_000.jpg	99
3.957	0.644	644.1	incongruent	Block1	incongruent/STIM_000.jpg	99
7.233	0.715	715.1	incongruent	Block1	incongruent/STIM_000.jpg	100
10.821	0.896	896.5	incongruent	Block1	incongruent/STIM_000.jpg	99
15.409	0.691	691.2	incongruent	Block1	incongruent/STIM_000.jpg	99
18.21	0.675	675.2	incongruent	Block1	incongruent/STIM_001.jpg	100
21.835	0.787	786.7	incongruent	Block1	incongruent/STIM_001.jpg	99
25.884	0.531	530.6	incongruent	Block1	incongruent/STIM_001.jpg	99
28.803	0.439	438.7	incongruent	Block1	incongruent/STIM_001.jpg	100
33.085	0.575	574.6	incongruent	Block1	incongruent/STIM_001.jpg	100
36.781	0.735	735.2	incongruent	Block1	incongruent/STIM_002.jpg	100
41.388	0.549	548.8	incongruent	Block1	incongruent/STIM_002.jpg	100
44.04	0.476	476.1	incongruent	Block1	incongruent/STIM_002.jpg	99
46.74	0.437	437.4	incongruent	Block1	incongruent/STIM_002.jpg	100
49.55	0.578	578.5	incongruent	Block1	incongruent/STIM_002.jpg	100
53.762	0.67	670.2	incongruent	Block1	incongruent/STIM_003.jpg	100
57.772	1.01	1009.5	incongruent	Block1	incongruent/STIM_003.jpg	99
62.034	0.551	550.6	incongruent	Block1	incongruent/STIM_003.jpg	99
64.955	0.685	685.2	incongruent	Block1	incongruent/STIM_003.jpg	99
69.137	0.732	731.9	incongruent	Block1	incongruent/STIM_003.jpg	99
72.841	0.63	630.3	incongruent	Block1	incongruent/STIM_004.jpg	99
76.79	0.735	735.4	incongruent	Block1	incongruent/STIM_004.jpg	99
79.851	0.718	718.1	incongruent	Block1	incongruent/STIM_004.jpg	99
83.804	0.836	835.9	incongruent	Block1	incongruent/STIM_004.jpg	99
87.593	0.76	759.6	incongruent	Block1	incongruent/STIM_004.jpg	99
91.245	0.62	619.6	incongruent	Block1	incongruent/STIM_005.jpg	100
95.443	0.57	569.8	incongruent	Block1	incongruent/STIM_005.jpg	100
98.721	0.983	983.3	incongruent	Block1	incongruent/STIM_005.jpg	99
102.143	0.832	831.6	incongruent	Block1	incongruent/STIM_005.jpg	100
106.374	0.776	776.5	incongruent	Block1	incongruent/STIM_005.jpg	100
109.671	0.558	558.4	incongruent	Block1	incongruent/STIM_006.jpg	99
112.359	0.627	627.0	incongruent	Block1	incongruent/STIM_006.jpg	100
115.068	0.814	814.0	incongruent	Block1	incongruent/STIM_006.jpg	100
119.338	0.597	597.1	incongruent	Block1	incongruent/STIM_006.jpg	99
123.672	0.427	427.4	incongruent	Block1	incongruent/STIM_006.jpg	99
126.585	1.022	1022.5	incongruent	Block1	incongruent/STIM_007.jpg	99
130.484	0.779	778.8	incongruent	Block1	incongruent/STIM_007.jpg	100
134.05	0.677	676.8	incongruent	Block1	incongruent/STIM_007.jpg	100
137.233	0.507	506.8	incongruent	Block1	incongruent/STIM_007.jpg	100
140.541	0.678	678.3	incongruent	Block1	incongruent/STIM_007.jpg	100
144.574	0.781	780.6	incongruent	Block1	incongruent/STIM_008.jpg	100
149.197	0.633	633.2	incongruent	Block1	incongruent/STIM_008.jpg	100
152.941	0.659	659.4	incongruent	Block1	incongruent/STIM_008.jpg	99
155.78	0.601	601.2	incongruent	Block1	incongruent/STIM_008.jpg	99
158.636	0.442	442.4	incongruent	Block1	incongruent/STIM_008.jpg	99
161.221	1.088	1088.3	incongruent	Block1	incongruent/STIM_009.jpg	99
165.571	0.766	766.5	incongruent	Block1	incongruent/STIM_009.jpg	99
169.095	0.529	528.8	incongruent	Block1	incongruent/STIM_009.jpg	99
172.099	0.487	486.9	incongruent	Block1	incongruent/STIM_009.jpg	99
176.039	0.738	738.1	incongruent	Block1	incongruent/STIM_009.jpg	100
180.156	0.954	954.2	incongruent	Block1	incongruent/STIM_010.jpg	100
183.387	0.573	573.0	incongruent	Block1	incongruent/STIM_010.jpg	99
186.532	0.565	565.2	incongruent	Block1	incongruent/STIM_010.jpg	100
190.887	0.744	744.5	incongruent	Block1	incongruent/STIM_010.jpg	100
195.372	0.779	779.0	incongruent	Block1	incongruent/STIM_010.jpg	100
199.397	0.853	853.4	incongruent	Block1	incongruent/STIM_011.jpg	99
202.796	0.868	868.1	incongruent	Block1	incongruent/STIM_011.jpg	99
206.684	0.496	495.8	incongruent	Block1	incongruent/STIM_011.jpg	99
210.692	0.547	547.3	incongruent	Block1	incongruent/STIM_011.jpg	100
213.848	0.547	547.2	incongruent	Block1	incongruent/STIM_011.jpg	99
218.101	0.985	984.8	incongruent	Block1	incongruent/STIM_012.jpg	100
222.908	0.907	907.1	incongruent	Block1	incongruent/STIM_012.jpg	100
227.195	0.75	749.9	incongruent	Block1	incongruent/STIM_012.jpg	99
231.654	0.75	749.7	incongruent	Block1	incongruent/STIM_012.jpg	99
235.61	0.671	670.6	incongruent	Block1	incongruent/STIM_012.jpg	100
239.775	0.76	760.2	incongruent	Block1	incongruent/STIM_013.jpg	99
244.164	0.964	964.5	incongruent	Block1	incongruent/STIM_013.jpg	99
249.063	0.546	545.7	incongruent	Block1	incongruent/STIM_013.jpg	99
253.604	0.794	793.7	incongruent	Block1	incongruent/STIM_013.jpg	100
257.763	0.781	781.3	incongruent	Block1	incongruent/STIM_013.jpg	100
261.59	0.766	766.0	incongruent	Block1	incongruent/STIM_014.jpg	99
264.688	0.897	896.7	incongruent	Block1	incongruent/STIM_014.jpg	100
268.524	0.682	682.2	incongruent	Block1	incongruent/STIM_014.jpg	100
272.535	0.9	900.3	incongruent	Block1	incongruent/STIM_014.jpg	100
276.415	0.833	832.9	incongruent	Block1	incongruent/STIM_014.jpg	100
279.634	1.017	1016.6	incongruent	Block1	incongruent/STIM_015.jpg	99
283.837	0.912	911.8	incongruent	Block1	incongruent/STIM_015.jpg	99
287.899	0.984	983.7	incongruent	Block1	incongruent/STIM_015.jpg	100
292.814	0.799	798.9	incongruent	Block1	incongruent/STIM_015.jpg	100
297.147	0.507	507.2	incongruent	Block1	incongruent/STIM_015.jpg	100
299.955	0.582	582.0	incongruent	Block1	incongruent/STIM_016.jpg	99
302.92	0.721	721.4	incongruent	Block1	incongruent/STIM_016.jpg	100
307.36	0.875	875.1	incongruent	Block1	incongruent/STIM_016.jpg	99
311.28	0.535	534.6	incongruent	Block1	incongruent/STIM_016.jpg	100
314.894	0.486	485.9	incongruent	Block1	incongruent/STIM_016.jpg	100
317.46	0.95	950.2	incongruent	Block1	incongruent/STIM_017.jpg	99
321.364	0.812	812.4	incongruent	Block1	incongruent/STIM_017.jpg	100
324.373	0.563	562.9	incongruent	Block1	incongruent/STIM_017.jpg	99
327.331	0.59	589.5	incongruent	Block1	incongruent/STIM_017.jpg	99
330.669	0.438	438.3	incongruent	Block1	incongruent/STIM_017.jpg	99
334.685	0.845	845.0	incongruent	Block1	incongruent/STIM_018.jpg	99
338.245	0.751	750.9	incongruent	Block1	incongruent/STIM_018.jpg	100
342.197	0.981	981.4	incongruent	Block1	incongruent/STIM_018.jpg	99
345.654	0.901	901.4	incongruent	Block1	incongruent/STIM_018.jpg	100
349.696	0.613	613.4	incongruent	Block1	incongruent/STIM_018.jpg	99
354.251	0.984	983.5	incongruent	Block1	incongruent/STIM_019.jpg	100
357.905	0.49	489.8	incongruent	Block1	incongruent/STIM_019.jpg	100
362.312	0.878	877.8	incongruent	Block1	incongruent/STIM_019.jpg	99
365.296	0.589	589.1	incongruent	Block1	incongruent/STIM_019.jpg	100
369.488	0.41	410.5	incongruent	Block1	incongruent/STIM_019.jpg	100
372.689	0.552	552.2	incongruent	Block1	incongruent/STIM_020.jpg	100
375.841	0.583	583.2	incongruent	Block1	incongruent/STIM_020.jpg	100
379.535	0.593	593.4	incongruent	Block1	incongruent/STIM_020.jpg	99
382.322	0.514	514.1	incongruent	Block1	incongruent/STIM_020.jpg	99
385.929	0.582	582.1	incongruent	Block1	incongruent/STIM_020.jpg	100
389.29	0.747	747.0	incongruent	Block1	incongruent/STIM_021.jpg	100
392.516	0.529	529.3	incongruent	Block1	incongruent/STIM_021.jpg	100
397.014	0.902	902.1	incongruent	Block1	incongruent/STIM_021.jpg	99
400.069	0.841	841.4	incongruent	Block1	incongruent/STIM_021.jpg	100
403.256	0.681	681.1	incongruent	Block1	incongruent/STIM_021.jpg	100
406.497	0.592	591.6	incongruent	Block1	incongruent/STIM_022.jpg	100
410.945	0.837	836.7	incongruent	Block1	incongruent/STIM_022.jpg	100
415.089	0.831	830.7	incongruent	Block1	incongruent/STIM_022.jpg	100
418.399	0.907	907.3	incongruent	Block1	incongruent/STIM_022.jpg	100
422.657	0.608	607.6	incongruent	Block1	incongruent/STIM_022.jpg	99
426.762	0.6	599.7	incongruent	Block1	incongruent/STIM_023.jpg	100
431.291	1.02	1020.4	incongruent	Block1	incongruent/STIM_023.jpg	99
436.225	0.882	882.1	incongruent	Block1	incongruent/STIM_023.jpg	100
440.559	0.881	880.8	incongruent	Block1	incongruent/STIM_023.jpg	99
443.785	0.422	422.3	incongruent	Block1	incongruent/STIM_023.jpg	99
447.303	0.677	676.7	incongruent	Block1	incongruent/STIM_024.jpg	100
450.699	0.755	755.2	incongruent	Block1	incongruent/STIM_024.jpg	100
453.826	0.932	931.5	incongruent	Block1	incongruent/STIM_024.jpg	100
457.996	0.829	829.1	incongruent	Block1	incongruent/STIM_024.jpg	99
461.381	0.834	834.2	incongruent	Block1	incongruent/STIM_024.jpg	100
465.511	0.924	924.5	incongruent	Block1	incongruent/STIM_025.jpg	100
470.321	0.614	614.1	incongruent	Block1	incongruent/STIM_025.jpg	100
474.218	0.958	957.5	incongruent	Block1	incongruent/STIM_025.jpg	99
477.579	0.439	439.3	incongruent	Block1	incongruent/STIM_025.jpg	99
481.088	0.74	739.7	incongruent	Block1	incongruent/STIM_025.jpg	100
485.751	0.926	926.0	incongruent	Block1	incongruent/STIM_026.jpg	100
489.099	1.037	1036.6	incongruent	Block1	incongruent/STIM_026.jpg	100
492.769	0.747	747.4	incongruent	Block1	incongruent/STIM_026.jpg	99
496.285	0.672	671.5	incongruent	Block1	incongruent/STIM_026.jpg	99
499.109	0.552	551.7	incongruent	Block1	incongruent/STIM_026.jpg	99
503.051	0.52	519.7	incongruent	Block1	incongruent/STIM_027.jpg	99
505.665	0.953	953.2	incongruent	Block1	incongruent/STIM_027.jpg	100
509.083	0.848	848.0	incongruent	Block1	incongruent/STIM_027.jpg	99
513.255	0.797	797.1	incongruent	Block1	incongruent/STIM_027.jpg	99
516.621	0.733	732.7	incongruent	Block1	incongruent/STIM_027.jpg	100
520.111	0.837	837.1	incongruent	Block1	incongruent/STIM_028.jpg	99
523.294	0.538	537.7	incongruent	Block1	incongruent/STIM_028.jpg	99
527.71	0.911	911.4	incongruent	Block1	incongruent/STIM_028.jpg	99
531.512	0.824	823.6	incongruent	Block1	incongruent/STIM_028.jpg	100
534.908	0.617	617.4	incongruent	Block1	incongruent/STIM_028.jpg	100
539.253	0.934	934.1	incongruent	Block1	incongruent/STIM_029.jpg	99
542.27	0.845	845.1	incongruent	Block1	incongruent/STIM_029.jpg	99
546.624	0.602	601.8	incongruent	Block1	incongruent/STIM_029.jpg	99
550.284	0.531	531.2	incongruent	Block1	incongruent/STIM_029.jpg	100
554.703	0.824	824.2	incongruent	Block1	incongruent/STIM_029.jpg	100
557.898	0.584	584.1	congruent	Block1	congruent/STIM_000.jpg	100
562.404	0.538	537.6	congruent	Block1	congruent/STIM_000.jpg	99
566.725	0.652	652.1	congruent	Block1	congruent/STIM_000.jpg	99
570.683	0.532	531.7	congruent	Block1	congruent/STIM_000.jpg	100
575.06	0.462	462.2	congruent	Block1	congruent/STIM_000.jpg	100
577.588	0.542	541.5	congruent	Block1	congruent/STIM_001.jpg	99
580.673	0.538	537.9	congruent	Block1	congruent/STIM_001.jpg	100
584.4	0.508	508.1	congruent	Block1	congruent/STIM_001.jpg	100
588.706	0.413	413.1	congruent	Block1	congruent/STIM_001.jpg	100
591.554	0.44	440.2	congruent	Block1	congruent/STIM_001.jpg	100
594.412	0.509	509.3	congruent	Block1	congruent/STIM_002.jpg	99
597.094	0.59	590.5	congruent	Block1	congruent/STIM_002.jpg	99
601.203	0.61	609.6	congruent	Block1	congruent/STIM_002.jpg	99
604.226	0.638	637.5	congruent	Block1	congruent/STIM_002.jpg	100
607.595	0.507	507.4	congruent	Block1	congruent/STIM_002.jpg	100
611.187	0.371	371.0	congruent	Block1	congruent/STIM_003.jpg	100
615.016	0.533	533.1	congruent	Block1	congruent/STIM_003.jpg	100
618.895	0.538	537.9	congruent	Block1	congruent/STIM_003.jpg	99
622.041	0.543	543.0	congruent	Block1	congruent/STIM_003.jpg	99
625.088	0.448	448.4	congruent	Block1	congruent/STIM_003.jpg	99
627.69	0.519	519.1	congruent	Block1	congruent/STIM_004.jpg	100
631.587	0.478	478.4	congruent	Block1	congruent/STIM_004.jpg	100
634.273	0.59	590.4	congruent	Block1	congruent/STIM_004.jpg	100
637.358	0.54	539.9	congruent	Block1	congruent/STIM_004.jpg	99
640.181	0.563	563.4	congruent	Block1	congruent/STIM_004.jpg	100
643.491	0.588	587.8	congruent	Block1	congruent/STIM_005.jpg	100
647.04	0.577	576.8	congruent	Block1	congruent/STIM_005.jpg	99
650.255	0.384	383.5	congruent	Block1	congruent/STIM_005.jpg	99
654.027	0.444	443.7	congruent	Block1	congruent/STIM_005.jpg	99
657.104	0.595	595.4	congruent	Block1	congruent/STIM_005.jpg	99
660.24	0.59	589.6	congruent	Block1	congruent/STIM_006.jpg	99
662.86	0.607	607.4	congruent	Block1	congruent/STIM_006.jpg	99
665.573	0.649	648.9	congruent	Block1	congruent/STIM_006.jpg	100
668.86	0.477	477.1	congruent	Block1	congruent/STIM_006.jpg	100
671.85	0.615	615.1	congruent	Block1	congruent/STIM_006.jpg	100
674.857	0.622	621.6	congruent	Block1	congruent/STIM_007.jpg	99
677.863	0.578	578.2	congruent	Block1	congruent/STIM_007.jpg	100
681.045	0.591	591.2	congruent	Block1	congruent/STIM_007.jpg	100
684.998	0.381	380.8	congruent	Block1	congruent/STIM_007.jpg	100
687.529	0.584	583.9	congruent	Block1	congruent/STIM_007.jpg	99
691.651	0.626	626.1	congruent	Block1	congruent/STIM_008.jpg	100
695.633	0.6	599.5	congruent	Block1	congruent/STIM_008.jpg	99
698.291	0.415	414.6	congruent	Block1	congruent/STIM_008.jpg	100
702.581	0.577	577.0	congruent	Block1	congruent/STIM_008.jpg	99
707.142	0.573	573.3	congruent	Block1	congruent/STIM_008.jpg	100
710.998	0.43	430.2	congruent	Block1	congruent/STIM_009.jpg	99
714.65	0.563	562.7	congruent	Block1	congruent/STIM_009.jpg	100
717.995	0.526	526.3	congruent	Block1	congruent/STIM_009.jpg	100
721.966	0.539	538.8	congruent	Block1	congruent/STIM_009.jpg	99
726.123	0.588	587.6	congruent	Block1	congruent/STIM_009.jpg	100
728.969	0.565	565.2	congruent	Block1	congruent/STIM_010.jpg	100
733.027	0.446	446.3	congruent	Block1	congruent/STIM_010.jpg	100
736.936	0.536	536.3	congruent	Block1	congruent/STIM_010.jpg	99
739.607	0.375	375.1	congruent	Block1	congruent/STIM_010.jpg	99
742.385	0.469	468.8	congruent	Block1	congruent/STIM_010.jpg	100
745.051	0.592	591.8	congruent	Block1	congruent/STIM_011.jpg	99
748.981	0.425	424.7	congruent	Block1	congruent/STIM_011.jpg	99
752.939	0.434	433.7	congruent	Block1	congruent/STIM_011.jpg	100
756.48	0.622	621.7	congruent	Block1	congruent/STIM_011.jpg	99
760.962	0.459	458.9	congruent	Block1	congruent/STIM_011.jpg	99
764.514	0.58	580.1	congruent	Block1	congruent/STIM_012.jpg	99
768.27	0.466	466.4	congruent	Block1	congruent/STIM_012.jpg	100
772.577	0.648	647.6	congruent	Block1	congruent/STIM_012.jpg	99
775.621	0.5	499.6	congruent	Block1	congruent/STIM_012.jpg	99
779.552	0.544	543.9	congruent	Block1	congruent/STIM_012.jpg	99
783.159	0.471	471.3	congruent	Block1	congruent/STIM_013.jpg	99
787.369	0.377	376.9	congruent	Block1	congruent/STIM_013.jpg	99
791.051	0.565	565.4	congruent	Block1	congruent/STIM_013.jpg	100
795.158	0.434	433.7	congruent	Block1	congruent/STIM_013.jpg	99
797.783	0.386	386.2	congruent	Block1	congruent/STIM_013.jpg	100
801.738	0.479	479.0	congruent	Block1	congruent/STIM_014.jpg	100
805.394	0.44	439.7	congruent	Block1	congruent/STIM_014.jpg	100
809.672	0.56	560.4	congruent	Block1	congruent/STIM_014.jpg	100
814.095	0.445	444.6	congruent	Block1	congruent/STIM_014.jpg	100
817.401	0.487	487.0	congruent	Block1	congruent/STIM_014.jpg	100
821.152	0.476	475.8	congruent	Block1	congruent/STIM_015.jpg	100
824.743	0.621	621.1	congruent	Block1	congruent/STIM_015.jpg	100
828.761	0.386	386.5	congruent	Block1	congruent/STIM_015.jpg	100
831.421	0.44	440.4	congruent	Block1	congruent/STIM_015.jpg	99
834.842	0.603	602.9	congruent	Block1	congruent/STIM_015.jpg	100
837.849	0.584	584.4	congruent	Block1	congruent/STIM_016.jpg	99
840.58	0.507	507.3	congruent	Block1	congruent/STIM_016.jpg	99
844.734	0.643	642.8	congruent	Block1	congruent/STIM_016.jpg	99
848.666	0.59	589.5	congruent	Block1	congruent/STIM_016.jpg	100
853.104	0.396	395.9	congruent	Block1	congruent/STIM_016.jpg	99
857.002	0.392	392.3	congruent	Block1	congruent/STIM_017.jpg	100
859.846	0.413	412.9	congruent	Block1	congruent/STIM_017.jpg	100
862.718	0.38	380.2	congruent	Block1	congruent/STIM_017.jpg	100
865.871	0.48	479.9	congruent	Block1	congruent/STIM_017.jpg	99
870.081	0.613	613.1	congruent	Block1	congruent/STIM_017.jpg	100
874.598	0.58	579.8	congruent	Block1	congruent/STIM_018.jpg	99
878.155	0.511	510.7	congruent	Block1	congruent/STIM_018.jpg	100
881.756	0.448	448.4	congruent	Block1	congruent/STIM_018.jpg	99
885.586	0.518	517.7	congruent	Block1	congruent/STIM_018.jpg	99
888.414	0.536	535.9	congruent	Block1	congruent/STIM_018.jpg	100
891.44	0.506	506.4	congruent	Block1	congruent/STIM_019.jpg	100
894.166	0.453	452.9	congruent	Block1	congruent/STIM_019.jpg	100
896.688	0.374	374.0	congruent	Block1	congruent/STIM_019.jpg	100
900.319	0.464	464.5	congruent	Block1	congruent/STIM_019.jpg	99
903.955	0.55	550.2	congruent	Block1	congruent/STIM_019.jpg	100
906.939	0.473	473.2	congruent	Block1	congruent/STIM_020.jpg	99
910.652	0.491	491.3	congruent	Block1	congruent/STIM_020.jpg	100
914.028	0.4	400.0	congruent	Block1	congruent/STIM_020.jpg	100
916.975	0.616	615.5	congruent	Block1	congruent/STIM_020.jpg	100
921.427	0.532	531.5	congruent	Block1	congruent/STIM_020.jpg	100
925.198	0.574	573.9	congruent	Block1	congruent/STIM_021.jpg	100
928.584	0.599	599.4	congruent	Block1	congruent/STIM_021.jpg	100
932.973	0.544	543.6	congruent	Block1	congruent/STIM_021.jpg	99
936.605	0.47	469.6	congruent	Block1	congruent/STIM_021.jpg	100
939.298	0.378	377.8	congruent	Block1	congruent/STIM_021.jpg	99
942.531	0.574	574.2	congruent	Block1	congruent/STIM_022.jpg	100
945.974	0.391	391.2	congruent	Block1	congruent/STIM_022.jpg	100
948.946	0.585	585.3	congruent	Block1	congruent/STIM_022.jpg	99
952.602	0.431	431.0	congruent	Block1	congruent/STIM_022.jpg	99
955.534	0.378	378.3	congruent	Block1	congruent/STIM_022.jpg	99
959.637	0.455	455.1	congruent	Block1	congruent/STIM_023.jpg	100
962.889	0.421	421.3	congruent	Block1	congruent/STIM_023.jpg	100
966.7	0.578	577.6	congruent	Block1	congruent/STIM_023.jpg	100
970.557	0.544	543.7	congruent	Block1	congruent/STIM_023.jpg	99
974.754	0.486	486.5	congruent	Block1	congruent/STIM_023.jpg	99
978.135	0.505	505.3	congruent	Block1	congruent/STIM_024.jpg	99
981.628	0.475	475.2	congruent	Block1	congruent/STIM_024.jpg	99
984.283	0.639	639.3	congruent	Block1	congruent/STIM_024.jpg	99
987.562	0.453	453.3	congruent	Block1	congruent/STIM_024.jpg	100
990.263	0.391	391.0	congruent	Block1	congruent/STIM_024.jpg	99
994.531	0.601	600.7	congruent	Block1	congruent/STIM_025.jpg	100
998.238	0.566	566.0	congruent	Block1	congruent/STIM_025.jpg	100
1001.88	0.595	594.8	congruent	Block1	congruent/STIM_025.jpg	99
1006.452	0.472	471.7	congruent	Block1	congruent/STIM_025.jpg	99
1010.761	0.394	393.5	congruent	Block1	congruent/STIM_025.jpg	99
1015.049	0.511	510.9	congruent	Block1	congruent/STIM_026.jpg	100
1018.061	0.473	473.3	congruent	Block1	congruent/STIM_026.jpg	100
1021.839	0.56	560.1	congruent	Block1	congruent/STIM_026.jpg	99
1025.691	0.53	530.3	congruent	Block1	congruent/STIM_026.jpg	100
1028.51	0.436	436.4	congruent	Block1	congruent/STIM_026.jpg	100
1031.055	0.479	478.9	congruent	Block1	congruent/STIM_027.jpg	99
1034.817	0.441	440.7	congruent	Block1	congruent/STIM_027.jpg	99
1037.564	0.53	530.1	congruent	Block1	congruent/STIM_027.jpg	99
1041.352	0.58	580.2	congruent	Block1	congruent/STIM_027.jpg	99
1045.267	0.619	618.7	congruent	Block1	congruent/STIM_027.jpg	99
1049.265	0.482	482.0	congruent	Block1	congruent/STIM_028.jpg	99
1052.26	0.539	539.1	congruent	Block1	congruent/STIM_028.jpg	100
1055.105	0.63	629.8	congruent	Block1	congruent/STIM_028.jpg	100
1058.897	0.649	648.9	congruent	Block1	congruent/STIM_028.jpg	100
1063.32	0.619	619.1	congruent	Block1	congruent/STIM_028.jpg	100
1066.111	0.394	393.5	congruent	Block1	congruent/STIM_029.jpg	99
1069.021	0.437	437.1	congruent	Block1	congruent/STIM_029.jpg	100
1072.048	0.568	568.4	congruent	Block1	congruent/STIM_029.jpg	100
1075.868	0.461	461.0	congruent	Block1	congruent/STIM_029.jpg	99
1078.385	0.484	484.0	congruent	Block1	congruent/STIM_029.jpg	99
1081.85	0.534	534.5	incongruent	Block2	incongruent/STIM_000.jpg	99
1086.374	0.746	746.3	incongruent	Block2	incongruent/STIM_000.jpg	99
1089.127	0.759	758.7	incongruent	Block2	incongruent/STIM_000.jpg	99
1092.067	0.369	369.1	incongruent	Block2	incongruent/STIM_000.jpg	100
1095.65	0.479	478.8	incongruent	Block2	incongruent/STIM_000.jpg	99
1098.86	0.793	792.8	incongruent	Block2	incongruent/STIM_001.jpg	99
1102.183	0.84	840.5	incongruent	Block2	incongruent/STIM_001.jpg	100
1106.208	0.435	435.1	incongruent	Block2	incongruent/STIM_001.jpg	100
1108.851	0.664	664.5	incongruent	Block2	incongruent/STIM_001.jpg	100
1112.142	0.73	730.3	incongruent	Block2	incongruent/STIM_001.jpg	100
1115.042	0.832	832.2	incongruent	Block2	incongruent/STIM_002.jpg	100
1119.42	0.528	527.6	incongruent	Block2	incongruent/STIM_002.jpg	99
1122.101	0.749	749.3	incongruent	Block2	incongruent/STIM_002.jpg	100
1126.659	0.688	687.9	incongruent	Block2	incongruent/STIM_002.jpg	100
1130.714	0.547	547.1	incongruent	Block2	incongruent/STIM_002.jpg	99
1135.229	0.656	655.8	incongruent	Block2	incongruent/STIM_003.jpg	100
1139.161	0.759	759.4	incongruent	Block2	incongruent/STIM_003.jpg	100
1143.114	0.403	403.0	incongruent	Block2	incongruent/STIM_003.jpg	100
1145.763	0.649	648.6	incongruent	Block2	incongruent/STIM_003.jpg	100
1149.29	0.488	487.6	incongruent	Block2	incongruent/STIM_003.jpg	100
1151.938	0.438	437.8	incongruent	Block2	incongruent/STIM_004.jpg	100
1154.428	0.784	783.9	incongruent	Block2	incongruent/STIM_004.jpg	99
1157.755	0.513	513.4	incongruent	Block2	incongruent/STIM_004.jpg	99
1161.124	0.57	570.5	incongruent	Block2	incongruent/STIM_004.jpg	99
1164.005	0.566	565.6	incongruent	Block2	incongruent/STIM_004.jpg	100
1167.473	0.729	729.4	incongruent	Block2	incongruent/STIM_005.jpg	100
1172.143	0.685	684.8	incongruent	Block2	incongruent/STIM_005.jpg	99
1175.305	0.389	388.9	incongruent	Block2	incongruent/STIM_005.jpg	100
1177.806	0.625	625.1	incongruent	Block2	incongruent/STIM_005.jpg	100
1182.019	0.516	516.4	incongruent	Block2	incongruent/STIM_005.jpg	99
1185.891	0.644	644.4	incongruent	Block2	incongruent/STIM_006.jpg	100
1189.538	0.672	672.0	incongruent	Block2	incongruent/STIM_006.jpg	99
1192.418	0.49	490.5	incongruent	Block2	incongruent/STIM_006.jpg	100
1195.367	0.718	717.5	incongruent	Block2	incongruent/STIM_006.jpg	100
1198.22	0.397	397.4	incongruent	Block2	incongruent/STIM_006.jpg	99
1201.999	0.609	609.0	incongruent	Block2	incongruent/STIM_007.jpg	100
1204.995	0.59	590.0	incongruent	Block2	incongruent/STIM_007.jpg	99
1209.041	0.496	496.0	incongruent	Block2	incongruent/STIM_007.jpg	99
1213.009	0.679	678.9	incongruent	Block2	incongruent/STIM_007.jpg	99
1216.685	0.653	653.0	incongruent	Block2	incongruent/STIM_007.jpg	100
1221.324	0.581	581.4	incongruent	Block2	incongruent/STIM_008.jpg	100
1225.147	0.522	521.7	incongruent	Block2	incongruent/STIM_008.jpg	100
1229.0	0.697	696.7	incongruent	Block2	incongruent/STIM_008.jpg	99
1232.53	0.686	685.7	incongruent	Block2	incongruent/STIM_008.jpg	100
1235.487	0.534	533.5	incongruent	Block2	incongruent/STIM_008.jpg	100
1239.059	0.527	527.3	incongruent	Block2	incongruent/STIM_009.jpg	99
1243.568	0.836	835.9	incongruent	Block2	incongruent/STIM_009.jpg	99
1246.606	0.745	744.9	incongruent	Block2	incongruent/STIM_009.jpg	99
1250.068	0.471	470.7	incongruent	Block2	incongruent/STIM_009.jpg	99
1254.327	0.56	560.0	incongruent	Block2	incongruent/STIM_009.jpg	100
1257.923	0.56	559.8	incongruent	Block2	incongruent/STIM_010.jpg	100
1261.574	0.529	529.4	incongruent	Block2	incongruent/STIM_010.jpg	99
1264.201	0.428	427.8	incongruent	Block2	incongruent/STIM_010.jpg	100
1268.188	0.589	588.6	incongruent	Block2	incongruent/STIM_010.jpg	100
1272.284	0.526	525.9	incongruent	Block2	incongruent/STIM_010.jpg	100
1276.068	0.867	866.7	incongruent	Block2	incongruent/STIM_011.jpg	99
1280.186	0.722	721.5	incongruent	Block2	incongruent/STIM_011.jpg	100
1283.155	0.473	473.4	incongruent	Block2	incongruent/STIM_011.jpg	100
1286.777	0.728	728.3	incongruent	Block2	incongruent/STIM_011.jpg	100
1291.362	0.594	594.5	incongruent	Block2	incongruent/STIM_011.jpg	100
1294.441	0.456	456.1	incongruent	Block2	incongruent/STIM_012.jpg	99
1298.893	0.709	708.9	incongruent	Block2	incongruent/STIM_012.jpg	100
1301.875	0.727	727.2	incongruent	Block2	incongruent/STIM_012.jpg	99
1306.287	0.393	392.9	incongruent	Block2	incongruent/STIM_012.jpg	99
1308.836	0.464	463.7	incongruent	Block2	incongruent/STIM_012.jpg	100
1312.409	0.498	497.7	incongruent	Block2	incongruent/STIM_013.jpg	99
1315.677	0.818	818.3	incongruent	Block2	incongruent/STIM_013.jpg	100
1319.457	0.738	738.0	incongruent	Block2	incongruent/STIM_013.jpg	99
1323.88	0.526	526.0	incongruent	Block2	incongruent/STIM_013.jpg	99
1326.779	0.662	661.8	incongruent	Block2	incongruent/STIM_013.jpg	100
1329.453	0.7	699.9	incongruent	Block2	incongruent/STIM_014.jpg	99
1332.772	0.413	412.7	incongruent	Block2	incongruent/STIM_014.jpg	100
1335.254	0.661	661.2	incongruent	Block2	incongruent/STIM_014.jpg	99
1338.13	0.519	518.6	incongruent	Block2	incongruent/STIM_014.jpg	99
1342.241	0.517	517.0	incongruent	Block2	incongruent/STIM_014.jpg	100
1346.617	0.918	918.1	incongruent	Block2	incongruent/STIM_015.jpg	99
1350.094	0.528	528.5	incongruent	Block2	incongruent/STIM_015.jpg	99
1354.378	0.743	743.3	incongruent	Block2	incongruent/STIM_015.jpg	100
1358.888	0.469	469.0	incongruent	Block2	incongruent/STIM_015.jpg	100
1362.078	0.692	692.2	incongruent	Block2	incongruent/STIM_015.jpg	100
1366.53	0.455	455.0	incongruent	Block2	incongruent/STIM_016.jpg	100
1370.431	0.825	824.6	incongruent	Block2	incongruent/STIM_016.jpg	99
1374.075	0.724	724.5	incongruent	Block2	incongruent/STIM_016.jpg	99
1377.583	0.439	439.2	incongruent	Block2	incongruent/STIM_016.jpg	99
1380.535	0.405	404.6	incongruent	Block2	incongruent/STIM_016.jpg	99
1384.468	0.652	652.4	incongruent	Block2	incongruent/STIM_017.jpg	99
1387.398	0.613	613.1	incongruent	Block2	incongruent/STIM_017.jpg	100
1391.532	0.464	463.7	incongruent	Block2	incongruent/STIM_017.jpg	99
1395.475	0.456	456.5	incongruent	Block2	incongruent/STIM_017.jpg	100
1398.667	0.497	496.7	incongruent	Block2	incongruent/STIM_017.jpg	99
1401.576	0.676	675.5	incongruent	Block2	incongruent/STIM_018.jpg	99
1405.778	0.637	636.6	incongruent	Block2	incongruent/STIM_018.jpg	100
1409.911	0.422	422.4	incongruent	Block2	incongruent/STIM_018.jpg	100
1413.461	0.654	653.6	incongruent	Block2	incongruent/STIM_018.jpg	100
1417.546	0.539	538.6	incongruent	Block2	incongruent/STIM_018.jpg	99
1421.35	0.912	912.5	incongruent	Block2	incongruent/STIM_019.jpg	99
1424.547	0.426	425.8	incongruent	Block2	incongruent/STIM_019.jpg	99
1427.898	0.678	677.8	incongruent	Block2	incongruent/STIM_019.jpg	100
1430.955	0.441	441.1	incongruent	Block2	incongruent/STIM_019.jpg	100
1434.531	0.455	455.2	incongruent	Block2	incongruent/STIM_019.jpg	100
1438.095	0.91	909.6	incongruent	Block2	incongruent/STIM_020.jpg	100
1441.744	0.768	767.8	incongruent	Block2	incongruent/STIM_020.jpg	100
1444.612	0.814	813.7	incongruent	Block2	incongruent/STIM_020.jpg	99
1448.38	0.701	700.9	incongruent	Block2	incongruent/STIM_020.jpg	100
1452.227	0.674	673.6	incongruent	Block2	incongruent/STIM_020.jpg	99
1455.865	0.604	603.9	incongruent	Block2	incongruent/STIM_021.jpg	99
1459.454	0.508	508.0	incongruent	Block2	incongruent/STIM_021.jpg	100
1462.002	0.534	533.9	incongruent	Block2	incongruent/STIM_021.jpg	99
1465.84	0.415	415.1	incongruent	Block2	incongruent/STIM_021.jpg	99
1469.104	0.394	394.2	incongruent	Block2	incongruent/STIM_021.jpg	100
1473.042	0.509	509.2	incongruent	Block2	incongruent/STIM_022.jpg	100
1475.883	0.792	791.6	incongruent	Block2	incongruent/STIM_022.jpg	99
1479.951	0.439	438.8	incongruent	Block2	incongruent/STIM_022.jpg	99
1483.457	0.484	483.6	incongruent	Block2	incongruent/STIM_022.jpg	100
1486.38	0.393	392.9	incongruent	Block2	incongruent/STIM_022.jpg	99
1490.646	0.809	809.4	incongruent	Block2	incongruent/STIM_023.jpg	100
1495.148	0.826	826.2	incongruent	Block2	incongruent/STIM_023.jpg	99
1499.722	0.729	729.3	incongruent	Block2	incongruent/STIM_023.jpg	100
1504.018	0.552	552.3	incongruent	Block2	incongruent/STIM_023.jpg	100
1506.577	0.692	692.3	incongruent	Block2	incongruent/STIM_023.jpg	99
1511.006	0.867	867.3	incongruent	Block2	incongruent/STIM_024.jpg	100
1514.232	0.647	647.4	incongruent	Block2	incongruent/STIM_024.jpg	99
1517.34	0.71	710.4	incongruent	Block2	incongruent/STIM_024.jpg	99
1522.008	0.656	655.6	incongruent	Block2	incongruent/STIM_024.jpg	100
1524.67	0.666	666.5	incongruent	Block2	incongruent/STIM_024.jpg	99
1528.649	0.715	714.9	incongruent	Block2	incongruent/STIM_025.jpg	99
1532.299	0.63	630.2	incongruent	Block2	incongruent/STIM_025.jpg	99
1535.014	0.386	386.2	incongruent	Block2	incongruent/STIM_025.jpg	100
1538.012	0.63	630.5	incongruent	Block2	incongruent/STIM_025.jpg	99
1541.552	0.697	696.9	incongruent	Block2	incongruent/STIM_025.jpg	100
1545.762	0.813	813.3	incongruent	Block2	incongruent/STIM_026.jpg	100
1550.55	0.429	428.8	incongruent	Block2	incongruent/STIM_026.jpg	100
1554.919	0.623	623.3	incongruent	Block2	incongruent/STIM_026.jpg	100
1558.123	0.562	562.1	incongruent	Block2	incongruent/STIM_026.jpg	100
1561.748	0.61	610.5	incongruent	Block2	incongruent/STIM_026.jpg	100
1565.597	0.927	926.7	incongruent	Block2	incongruent/STIM_027.jpg	99
1570.0	0.674	674.1	incongruent	Block2	incongruent/STIM_027.jpg	99
1573.964	0.762	762.5	incongruent	Block2	incongruent/STIM_027.jpg	99
1578.681	0.757	756.8	incongruent	Block2	incongruent/STIM_027.jpg	99
1582.12	0.526	526.4	incongruent	Block2	incongruent/STIM_027.jpg	100
1584.831	0.717	717.1	incongruent	Block2	incongruent/STIM_028.jpg	99
1587.652	0.431	431.2	incongruent	Block2	incongruent/STIM_028.jpg	99
1591.589	0.524	524.5	incongruent	Block2	incongruent/STIM_028.jpg	99
1595.303	0.742	742.5	incongruent	Block2	incongruent/STIM_028.jpg	100
1598.506	0.402	401.8	incongruent	Block2	incongruent/STIM_028.jpg	99
1601.701	0.563	563.0	incongruent	Block2	incongruent/STIM_029.jpg	99
1605.97	0.494	493.7	incongruent	Block2	incongruent/STIM_029.jpg	100
1609.086	0.654	653.6	incongruent	Block2	incongruent/STIM_029.jpg	99
1612.149	0.733	732.8	incongruent	Block2	incongruent/STIM_029.jpg	100
1616.843	0.549	549.1	incongruent	Block2	incongruent/STIM_029.jpg	100
1620.419	0.496	495.7	congruent	Block2	congruent/STIM_000.jpg	99
1624.154	0.497	496.8	congruent	Block2	congruent/STIM_000.jpg	100
1628.103	0.491	491.2	congruent	Block2	congruent/STIM_000.jpg	99
1631.366	0.602	602.2	congruent	Block2	congruent/STIM_000.jpg	100
1634.991	0.572	572.5	congruent	Block2	congruent/STIM_000.jpg	100
1638.862	0.541	541.3	congruent	Block2	congruent/STIM_001.jpg	99
1642.355	0.396	396.0	congruent	Block2	congruent/STIM_001.jpg	100
1646.262	0.404	403.8	congruent	Block2	congruent/STIM_001.jpg	100
1650.378	0.578	577.7	congruent	Block2	congruent/STIM_001.jpg	99
1653.281	0.552	552.2	congruent	Block2	congruent/STIM_001.jpg	100
1656.412	0.481	480.7	congruent	Block2	congruent/STIM_002.jpg	100
1660.702	0.392	392.1	congruent	Block2	congruent/STIM_002.jpg	99
1664.724	0.574	574.4	congruent	Block2	congruent/STIM_002.jpg	99
1668.15	0.516	516.4	congruent	Block2	congruent/STIM_002.jpg	100
1671.546	0.543	542.7	congruent	Block2	congruent/STIM_002.jpg	99
1674.651	0.517	516.8	congruent	Block2	congruent/STIM_003.jpg	100
1678.696	0.457	457.1	congruent	Block2	congruent/STIM_003.jpg	99
1682.429	0.418	417.5	congruent	Block2	congruent/STIM_003.jpg	100
1685.945	0.552	552.1	congruent	Block2	congruent/STIM_003.jpg	99
1689.278	0.419	419.3	congruent	Block2	congruent/STIM_003.jpg	100
1692.735	0.402	402.5	congruent	Block2	congruent/STIM_004.jpg	99
1696.305	0.508	507.7	congruent	Block2	congruent/STIM_004.jpg	99
1699.2	0.634	633.6	congruent	Block2	congruent/STIM_004.jpg	100
1703.697	0.591	591.3	congruent	Block2	congruent/STIM_004.jpg	100
1706.462	0.481	481.3	congruent	Block2	congruent/STIM_004.jpg	99
1709.97	0.391	390.9	congruent	Block2	congruent/STIM_005.jpg	99
1713.915	0.558	558.3	congruent	Block2	congruent/STIM_005.jpg	99
1716.979	0.449	449.0	congruent	Block2	congruent/STIM_005.jpg	99
1719.809	0.392	392.5	congruent	Block2	congruent/STIM_005.jpg	100
1722.218	0.512	511.7	congruent	Block2	congruent/STIM_005.jpg	100
1726.293	0.482	482.2	congruent	Block2	congruent/STIM_006.jpg	99
1728.916	0.544	543.8	congruent	Block2	congruent/STIM_006.jpg	100
1731.992	0.591	591.4	congruent	Block2	congruent/STIM_006.jpg	100
1736.432	0.64	640.2	congruent	Block2	congruent/STIM_006.jpg	100
1739.341	0.433	433.4	congruent	Block2	congruent/STIM_006.jpg	99
1741.884	0.574	574.1	congruent	Block2	congruent/STIM_007.jpg	99
1745.471	0.511	510.9	congruent	Block2	congruent/STIM_007.jpg	100
1749.581	0.594	593.7	congruent	Block2	congruent/STIM_007.jpg	100
1752.941	0.398	398.3	congruent	Block2	congruent/STIM_007.jpg	99
1756.739	0.436	436.0	congruent	Block2	congruent/STIM_007.jpg	99
1760.073	0.427	426.6	congruent	Block2	congruent/STIM_008.jpg	100
1762.782	0.486	486.4	congruent	Block2	congruent/STIM_008.jpg	99
1766.783	0.656	655.9	congruent	Block2	congruent/STIM_008.jpg	100
1770.653	0.545	544.7	congruent	Block2	congruent/STIM_008.jpg	100
1773.522	0.382	382.5	congruent	Block2	congruent/STIM_008.jpg	99
1776.225	0.474	473.8	congruent	Block2	congruent/STIM_009.jpg	99
1779.81	0.613	612.7	congruent	Block2	congruent/STIM_009.jpg	99
1782.664	0.385	384.7	congruent	Block2	congruent/STIM_009.jpg	100
1785.512	0.464	464.2	congruent	Block2	congruent/STIM_009.jpg	100
1788.895	0.389	389.2	congruent	Block2	congruent/STIM_009.jpg	99
1792.652	0.54	540.2	congruent	Block2	congruent/STIM_010.jpg	100
1796.053	0.444	444.3	congruent	Block2	congruent/STIM_010.jpg	99
1799.207	0.515	515.1	congruent	Block2	congruent/STIM_010.jpg	100
1802.511	0.557	557.0	congruent	Block2	congruent/STIM_010.jpg	100
1805.107	0.468	467.6	congruent	Block2	congruent/STIM_010.jpg	99
1807.894	0.532	531.7	congruent	Block2	congruent/STIM_011.jpg	99
1811.158	0.37	369.8	congruent	Block2	congruent/STIM_011.jpg	100
1815.178	0.615	614.7	congruent	Block2	congruent/STIM_011.jpg	99
1818.999	0.495	494.6	congruent	Block2	congruent/STIM_011.jpg	99
1822.363	0.517	517.4	congruent	Block2	congruent/STIM_011.jpg	99
1825.788	0.619	618.7	congruent	Block2	congruent/STIM_012.jpg	100
1830.008	0.581	580.7	congruent	Block2	congruent/STIM_012.jpg	99
1833.213	0.606	606.0	congruent	Block2	congruent/STIM_012.jpg	99
1836.502	0.504	504.1	congruent	Block2	congruent/STIM_012.jpg	99
1840.705	0.506	506.0	congruent	Block2	congruent/STIM_012.jpg	100
1843.734	0.534	533.9	congruent	Block2	congruent/STIM_013.jpg	99
1848.076	0.442	442.3	congruent	Block2	congruent/STIM_013.jpg	100
1851.067	0.542	541.6	congruent	Block2	congruent/STIM_013.jpg	100
1854.973	0.417	417.1	congruent	Block2	congruent/STIM_013.jpg	99
1859.334	0.515	514.6	congruent	Block2	congruent/STIM_013.jpg	99
1862.715	0.595	594.8	congruent	Block2	congruent/STIM_014.jpg	100
1866.98	0.47	470.1	congruent	Block2	congruent/STIM_014.jpg	99
1870.318	0.646	645.6	congruent	Block2	congruent/STIM_014.jpg	100
1874.746	0.638	638.2	congruent	Block2	congruent/STIM_014.jpg	100
1879.214	0.62	620.5	congruent	Block2	congruent/STIM_014.jpg	100
1883.587	0.515	515.0	congruent	Block2	congruent/STIM_015.jpg	99
1886.579	0.658	657.9	congruent	Block2	congruent/STIM_015.jpg	100
1889.443	0.505	505.5	congruent	Block2	congruent/STIM_015.jpg	99
1893.413	0.479	479.2	congruent	Block2	congruent/STIM_015.jpg	99
1897.15	0.551	551.4	congruent	Block2	congruent/STIM_015.jpg	99
1900.448	0.382	381.7	congruent	Block2	congruent/STIM_016.jpg	100
1903.962	0.615	615.4	congruent	Block2	congruent/STIM_016.jpg	99
1906.719	0.481	480.9	congruent	Block2	congruent/STIM_016.jpg	100
1910.602	0.632	631.5	congruent	Block2	congruent/STIM_016.jpg	100
1914.932	0.409	408.8	congruent	Block2	congruent/STIM_016.jpg	100
1917.487	0.498	497.8	congruent	Block2	congruent/STIM_017.jpg	99
1920.625	0.408	408.5	congruent	Block2	congruent/STIM_017.jpg	99
1923.794	0.37	370.2	congruent	Block2	congruent/STIM_017.jpg	100
1927.053	0.616	615.6	congruent	Block2	congruent/STIM_017.jpg	99
1930.667	0.428	428.2	congruent	Block2	congruent/STIM_017.jpg	99
1935.012	0.657	656.8	congruent	Block2	congruent/STIM_018.jpg	100
1938.229	0.522	522.3	congruent	Block2	congruent/STIM_018.jpg	100
1940.941	0.51	509.7	congruent	Block2	congruent/STIM_018.jpg	99
1944.113	0.566	566.4	congruent	Block2	congruent/STIM_018.jpg	99
1947.796	0.432	431.7	congruent	Block2	congruent/STIM_018.jpg	99
1951.062	0.394	393.6	congruent	Block2	congruent/STIM_019.jpg	100
1954.417	0.506	506.4	congruent	Block2	congruent/STIM_019.jpg	99
1958.74	0.637	636.8	congruent	Block2	congruent/STIM_019.jpg	99
1962.293	0.521	520.8	congruent	Block2	congruent/STIM_019.jpg	100
1965.558	0.637	637.3	congruent	Block2	congruent/STIM_019.jpg	99
1969.495	0.431	430.6	congruent	Block2	congruent/STIM_020.jpg	99
1972.717	0.369	369.1	congruent	Block2	congruent/STIM_020.jpg	100
1976.971	0.384	383.7	congruent	Block2	congruent/STIM_020.jpg	100
1981.014	0.507	507.5	congruent	Block2	congruent/STIM_020.jpg	100
1984.447	0.512	511.7	congruent	Block2	congruent/STIM_020.jpg	100
1988.117	0.537	537.0	congruent	Block2	congruent/STIM_021.jpg	100
1991.515	0.527	527.2	congruent	Block2	congruent/STIM_021.jpg	99
1994.198	0.622	622.3	congruent	Block2	congruent/STIM_021.jpg	100
1997.904	0.541	541.0	congruent	Block2	congruent/STIM_021.jpg	99
2001.577	0.639	638.6	congruent	Block2	congruent/STIM_021.jpg	100
2004.333	0.569	569.4	congruent	Block2	congruent/STIM_022.jpg	99
2008.537	0.39	390.3	congruent	Block2	congruent/STIM_022.jpg	100
2012.505	0.431	431.2	congruent	Block2	congruent/STIM_022.jpg	100
2015.448	0.648	647.8	congruent	Block2	congruent/STIM_022.jpg	100
2020.038	0.642	641.7	congruent	Block2	congruent/STIM_022.jpg	100
2023.178	0.478	477.5	congruent	Block2	congruent/STIM_023.jpg	100
2027.331	0.584	584.4	congruent	Block2	congruent/STIM_023.jpg	99
2030.225	0.57	569.9	congruent	Block2	congruent/STIM_023.jpg	99
2034.446	0.524	524.1	congruent	Block2	congruent/STIM_023.jpg	100
2037.77	0.648	648.3	congruent	Block2	congruent/STIM_023.jpg	99
2041.389	0.423	423.2	congruent	Block2	congruent/STIM_024.jpg	100
2044.842	0.447	447.2	congruent	Block2	congruent/STIM_024.jpg	99
2047.946	0.599	598.7	congruent	Block2	congruent/STIM_024.jpg	99
2051.51	0.561	560.7	congruent	Block2	congruent/STIM_024.jpg	100
2054.603	0.497	497.3	congruent	Block2	congruent/STIM_024.jpg	100
2057.556	0.61	610.0	congruent	Block2	congruent/STIM_025.jpg	99
2060.438	0.536	536.4	congruent	Block2	congruent/STIM_025.jpg	100
2063.93	0.42	420.5	congruent	Block2	congruent/STIM_025.jpg	99
2067.641	0.604	603.8	congruent	Block2	congruent/STIM_025.jpg	100
2071.531	0.433	433.3	congruent	Block2	congruent/STIM_025.jpg	99
2074.919	0.409	408.6	congruent	Block2	congruent/STIM_026.jpg	99
2078.719	0.652	651.9	congruent	Block2	congruent/STIM_026.jpg	100
2081.635	0.456	455.7	congruent	Block2	congruent/STIM_026.jpg	100
2086.005	0.588	587.8	congruent	Block2	congruent/STIM_026.jpg	99
2089.181	0.412	411.5	congruent	Block2	congruent/STIM_026.jpg	99
2093.335	0.41	409.8	congruent	Block2	congruent/STIM_027.jpg	100
2096.802	0.582	581.7	congruent	Block2	congruent/STIM_027.jpg	100
2100.621	0.621	621.1	congruent	Block2	congruent/STIM_027.jpg	100
2104.389	0.612	611.6	congruent	Block2	congruent/STIM_027.jpg	100
2108.722	0.506	506.2	congruent	Block2	congruent/STIM_027.jpg	99
2111.644	0.449	448.6	congruent	Block2	congruent/STIM_028.jpg	100
2114.788	0.581	581.1	congruent	Block2	congruent/STIM_028.jpg	99
2118.1	0.464	464.3	congruent	Block2	congruent/STIM_028.jpg	100
2122.019	0.383	383.4	congruent	Block2	congruent/STIM_028.jpg	99
2125.065	0.638	637.7	congruent	Block2	congruent/STIM_028.jpg	100
2128.008	0.601	600.7	congruent	Block2	congruent/STIM_029.jpg	100
2132.081	0.609	609.3	congruent	Block2	congruent/STIM_029.jpg	100
2135.6	0.414	413.5	congruent	Block2	congruent/STIM_029.jpg	99
2139.379	0.582	582.3	congruent	Block2	congruent/STIM_029.jpg	100
2143.935	0.462	462.0	congruent	Block2	congruent/STIM_029.jpg	100
2147.231	0.396	396.3	incongruent	Block3	incongruent/STIM_000.jpg	100
2151.191	0.372	371.8	incongruent	Block3	incongruent/STIM_000.jpg	99
2154.555	0.489	488.6	incongruent	Block3	incongruent/STIM_000.jpg	99
2158.484	0.757	757.3	incongruent	Block3	incongruent/STIM_000.jpg	100
2162.618	0.4	400.4	incongruent	Block3	incongruent/STIM_000.jpg	99
2165.415	0.62	619.5	incongruent	Block3	incongruent/STIM_001.jpg	99
2168.361	0.463	463.2	incongruent	Block3	incongruent/STIM_001.jpg	100
2171.488	0.686	686.3	incongruent	Block3	incongruent/STIM_001.jpg	99
2175.979	0.6	600.5	incongruent	Block3	incongruent/STIM_001.jpg	100
2179.885	0.538	538.5	incongruent	Block3	incongruent/STIM_001.jpg	99
2182.94	0.444	444.0	incongruent	Block3	incongruent/STIM_002.jpg	99
2186.023	0.435	435.3	incongruent	Block3	incongruent/STIM_002.jpg	100
2190.166	0.653	652.9	incongruent	Block3	incongruent/STIM_002.jpg	99
2192.954	0.729	728.6	incongruent	Block3	incongruent/STIM_002.jpg	99
2197.279	0.438	437.5	incongruent	Block3	incongruent/STIM_002.jpg	100
2200.371	0.724	724.2	incongruent	Block3	incongruent/STIM_003.jpg	100
2204.237	0.488	487.6	incongruent	Block3	incongruent/STIM_003.jpg	99
2208.019	0.747	746.7	incongruent	Block3	incongruent/STIM_003.jpg	99
2211.986	0.37	369.5	incongruent	Block3	incongruent/STIM_003.jpg	100
2216.115	0.716	716.4	incongruent	Block3	incongruent/STIM_003.jpg	100
2220.463	0.722	722.2	incongruent	Block3	incongruent/STIM_004.jpg	99
2224.209	0.433	433.0	incongruent	Block3	incongruent/STIM_004.jpg	99
2228.544	0.522	521.6	incongruent	Block3	incongruent/STIM_004.jpg	99
2231.762	0.365	365.4	incongruent	Block3	incongruent/STIM_004.jpg	99
2236.08	0.428	428.1	incongruent	Block3	incongruent/STIM_004.jpg	100
2239.725	0.398	398.0	incongruent	Block3	incongruent/STIM_005.jpg	99
2243.494	0.56	560.5	incongruent	Block3	incongruent/STIM_005.jpg	100
2246.66	0.671	671.1	incongruent	Block3	incongruent/STIM_005.jpg	100
2249.957	0.614	613.8	incongruent	Block3	incongruent/STIM_005.jpg	99
2253.173	0.44	440.2	incongruent	Block3	incongruent/STIM_005.jpg	99
2255.876	0.679	678.8	incongruent	Block3	incongruent/STIM_006.jpg	100
2259.537	0.586	586.1	incongruent	Block3	incongruent/STIM_006.jpg	99
2263.23	0.63	630.3	incongruent	Block3	incongruent/STIM_006.jpg	99
2267.269	0.457	457.2	incongruent	Block3	incongruent/STIM_006.jpg	100
2270.66	0.379	378.7	incongruent	Block3	incongruent/STIM_006.jpg	99
2273.697	0.555	555.1	incongruent	Block3	incongruent/STIM_007.jpg	99
2276.991	0.621	621.3	incongruent	Block3	incongruent/STIM_007.jpg	100
2279.69	0.622	621.7	incongruent	Block3	incongruent/STIM_007.jpg	99
2283.126	0.648	647.8	incongruent	Block3	incongruent/STIM_007.jpg	100
2287.12	0.478	478.2	incongruent	Block3	incongruent/STIM_007.jpg	99
2291.509	0.668	668.3	incongruent	Block3	incongruent/STIM_008.jpg	99
2294.532	0.446	446.0	incongruent	Block3	incongruent/STIM_008.jpg	100
2297.595	0.415	415.1	incongruent	Block3	incongruent/STIM_008.jpg	99
2301.348	0.492	491.9	incongruent	Block3	incongruent/STIM_008.jpg	99
2305.542	0.652	651.9	incongruent	Block3	incongruent/STIM_008.jpg	99
2309.99	0.608	608.5	incongruent	Block3	incongruent/STIM_009.jpg	100
2313.498	0.399	399.2	incongruent	Block3	incongruent/STIM_009.jpg	100
2316.144	0.658	657.6	incongruent	Block3	incongruent/STIM_009.jpg	100
2320.403	0.553	553.4	incongruent	Block3	incongruent/STIM_009.jpg	100
2322.98	0.501	500.7	incongruent	Block3	incongruent/STIM_009.jpg	100
2326.512	0.672	672.4	incongruent	Block3	incongruent/STIM_010.jpg	99
2331.13	0.46	460.1	incongruent	Block3	incongruent/STIM_010.jpg	99
2334.446	0.584	584.4	incongruent	Block3	incongruent/STIM_010.jpg	99
2337.081	0.708	707.5	incongruent	Block3	incongruent/STIM_010.jpg	100
2340.065	0.731	731.0	incongruent	Block3	incongruent/STIM_010.jpg	100
2344.482	0.494	494.2	incongruent	Block3	incongruent/STIM_011.jpg	99
2347.35	0.468	468.2	incongruent	Block3	incongruent/STIM_011.jpg	100
2350.937	0.372	371.5	incongruent	Block3	incongruent/STIM_011.jpg	99
2354.84	0.648	647.7	incongruent	Block3	incongruent/STIM_011.jpg	99
2357.554	0.485	484.6	incongruent	Block3	incongruent/STIM_011.jpg	100
2360.577	0.576	575.6	incongruent	Block3	incongruent/STIM_012.jpg	100
2363.755	0.642	641.5	incongruent	Block3	incongruent/STIM_012.jpg	100
2367.427	0.618	617.7	incongruent	Block3	incongruent/STIM_012.jpg	99
2371.974	0.698	698.1	incongruent	Block3	incongruent/STIM_012.jpg	100
2375.601	0.69	690.0	incongruent	Block3	incongruent/STIM_012.jpg	99
2379.002	0.385	384.6	incongruent	Block3	incongruent/STIM_013.jpg	100
2381.989	0.625	624.7	incongruent	Block3	incongruent/STIM_013.jpg	100
2385.308	0.737	736.6	incongruent	Block3	incongruent/STIM_013.jpg	100
2388.046	0.733	732.7	incongruent	Block3	incongruent/STIM_013.jpg	99
2391.739	0.4	399.6	incongruent	Block3	incongruent/STIM_013.jpg	100
2394.942	0.741	741.2	incongruent	Block3	incongruent/STIM_014.jpg	100
2399.629	0.72	720.1	incongruent	Block3	incongruent/STIM_014.jpg	99
2402.973	0.458	457.8	incongruent	Block3	incongruent/STIM_014.jpg	99
2406.18	0.694	694.0	incongruent	Block3	incongruent/STIM_014.jpg	100
2410.245	0.627	627.3	incongruent	Block3	incongruent/STIM_014.jpg	99
2414.833	0.705	705.1	incongruent	Block3	incongruent/STIM_015.jpg	100
2418.586	0.404	404.0	incongruent	Block3	incongruent/STIM_015.jpg	99
2421.74	0.601	600.6	incongruent	Block3	incongruent/STIM_015.jpg	99
2424.906	0.711	710.6	incongruent	Block3	incongruent/STIM_015.jpg	100
2428.234	0.447	446.9	incongruent	Block3	incongruent/STIM_015.jpg	100
2431.035	0.542	542.5	incongruent	Block3	incongruent/STIM_016.jpg	100
2434.504	0.573	572.8	incongruent	Block3	incongruent/STIM_016.jpg	99
2438.425	0.714	713.9	incongruent	Block3	incongruent/STIM_016.jpg	100
2441.724	0.762	762.1	incongruent	Block3	incongruent/STIM_016.jpg	100
2444.645	0.683	683.2	incongruent	Block3	incongruent/STIM_016.jpg	100
2448.623	0.412	412.1	incongruent	Block3	incongruent/STIM_017.jpg	99
2452.07	0.435	434.7	incongruent	Block3	incongruent/STIM_017.jpg	99
2455.659	0.637	637.1	incongruent	Block3	incongruent/STIM_017.jpg	99
2459.925	0.604	603.5	incongruent	Block3	incongruent/STIM_017.jpg	99
2464.195	0.734	733.7	incongruent	Block3	incongruent/STIM_017.jpg	100
2468.268	0.703	702.9	incongruent	Block3	incongruent/STIM_018.jpg	99
2472.201	0.479	479.4	incongruent	Block3	incongruent/STIM_018.jpg	100
2474.795	0.638	637.7	incongruent	Block3	incongruent/STIM_018.jpg	100
2479.407	0.408	408.1	incongruent	Block3	incongruent/STIM_018.jpg	100
2483.688	0.738	737.5	incongruent	Block3	incongruent/STIM_018.jpg	99
2487.226	0.725	724.6	incongruent	Block3	incongruent/STIM_019.jpg	99
2490.659	0.562	561.9	incongruent	Block3	incongruent/STIM_019.jpg	99
2493.597	0.734	733.7	incongruent	Block3	incongruent/STIM_019.jpg	99
2497.892	0.718	718.2	incongruent	Block3	incongruent/STIM_019.jpg	100
2501.621	0.668	668.2	incongruent	Block3	incongruent/STIM_019.jpg	100
2505.325	0.559	559.1	incongruent	Block3	incongruent/STIM_020.jpg	100
2508.537	0.472	471.6	incongruent	Block3	incongruent/STIM_020.jpg	99
2511.605	0.586	585.5	incongruent	Block3	incongruent/STIM_020.jpg	100
2514.95	0.645	644.7	incongruent	Block3	incongruent/STIM_020.jpg	100
2517.733	0.439	439.0	incongruent	Block3	incongruent/STIM_020.jpg	100
2520.257	0.694	693.5	incongruent	Block3	incongruent/STIM_021.jpg	100
2523.679	0.462	461.7	incongruent	Block3	incongruent/STIM_021.jpg	100
2527.181	0.51	509.9	incongruent	Block3	incongruent/STIM_021.jpg	100
2531.193	0.557	557.1	incongruent	Block3	incongruent/STIM_021.jpg	100
2535.227	0.584	583.8	incongruent	Block3	incongruent/STIM_021.jpg	100
2539.515	0.606	606.3	incongruent	Block3	incongruent/STIM_022.jpg	99
2542.509	0.509	508.8	incongruent	Block3	incongruent/STIM_022.jpg	99
2546.568	0.468	467.6	incongruent	Block3	incongruent/STIM_022.jpg	100
2549.746	0.691	690.6	incongruent	Block3	incongruent/STIM_022.jpg	100
2553.911	0.525	525.0	incongruent	Block3	incongruent/STIM_022.jpg	100
2556.623	0.611	610.8	incongruent	Block3	incongruent/STIM_023.jpg	100
2560.803	0.709	708.8	incongruent	Block3	incongruent/STIM_023.jpg	100
2564.423	0.419	419.2	incongruent	Block3	incongruent/STIM_023.jpg	100
2568.223	0.523	523.0	incongruent	Block3	incongruent/STIM_023.jpg	100
2572.743	0.684	683.7	incongruent	Block3	incongruent/STIM_023.jpg	100
2575.451	0.41	410.0	incongruent	Block3	incongruent/STIM_024.jpg	99
2579.376	0.444	443.7	incongruent	Block3	incongruent/STIM_024.jpg	100
2581.945	0.638	637.5	incongruent	Block3	incongruent/STIM_024.jpg	100
2586.226	0.496	496.4	incongruent	Block3	incongruent/STIM_024.jpg	100
2589.337	0.55	550.0	incongruent	Block3	incongruent/STIM_024.jpg	100
2592.647	0.362	362.3	incongruent	Block3	incongruent/STIM_025.jpg	100
2596.848	0.452	452.1	incongruent	Block3	incongruent/STIM_025.jpg	100
2599.806	0.721	721.0	incongruent	Block3	incongruent/STIM_025.jpg	99
2604.437	0.7	699.9	incongruent	Block3	incongruent/STIM_025.jpg	99
2608.359	0.454	454.4	incongruent	Block3	incongruent/STIM_025.jpg	100
2611.64	0.599	598.6	incongruent	Block3	incongruent/STIM_026.jpg	99
2614.517	0.543	543.2	incongruent	Block3	incongruent/STIM_026.jpg	100
2618.631	0.368	367.9	incongruent	Block3	incongruent/STIM_026.jpg	99
2621.834	0.522	522.2	incongruent	Block3	incongruent/STIM_026.jpg	100
2624.43	0.437	437.2	incongruent	Block3	incongruent/STIM_026.jpg	100
2628.118	0.601	601.0	incongruent	Block3	incongruent/STIM_027.jpg	100
2632.086	0.755	755.4	incongruent	Block3	incongruent/STIM_027.jpg	100
2636.448	0.508	508.2	incongruent	Block3	incongruent/STIM_027.jpg	100
2639.45	0.67	670.1	incongruent	Block3	incongruent/STIM_027.jpg	99
2642.613	0.505	505.1	incongruent	Block3	incongruent/STIM_027.jpg	100
2646.506	0.625	625.0	incongruent	Block3	incongruent/STIM_028.jpg	99
2650.475	0.639	639.1	incongruent	Block3	incongruent/STIM_028.jpg	100
2653.572	0.438	438.1	incongruent	Block3	incongruent/STIM_028.jpg	100
2656.372	0.548	548.3	incongruent	Block3	incongruent/STIM_028.jpg	99
2659.153	0.36	360.5	incongruent	Block3	incongruent/STIM_028.jpg	100
2662.542	0.662	662.2	incongruent	Block3	incongruent/STIM_029.jpg	100
2666.426	0.614	614.5	incongruent	Block3	incongruent/STIM_029.jpg	99
2669.448	0.366	365.8	incongruent	Block3	incongruent/STIM_029.jpg	99
2673.123	0.581	580.7	incongruent	Block3	incongruent/STIM_029.jpg	100
2676.929	0.539	539.3	incongruent	Block3	incongruent/STIM_029.jpg	99
2679.623	0.377	376.9	congruent	Block3	congruent/STIM_000.jpg	100
2682.956	0.597	596.6	congruent	Block3	congruent/STIM_000.jpg	100
2687.149	0.594	594.0	congruent	Block3	congruent/STIM_000.jpg	99
2691.409	0.655	655.1	congruent	Block3	congruent/STIM_000.jpg	100
2694.452	0.622	622.3	congruent	Block3	congruent/STIM_000.jpg	100
2697.575	0.373	372.6	congruent	Block3	congruent/STIM_001.jpg	99
2700.97	0.369	368.8	congruent	Block3	congruent/STIM_001.jpg	99
2704.411	0.429	429.4	congruent	Block3	congruent/STIM_001.jpg	99
2706.893	0.529	529.4	congruent	Block3	congruent/STIM_001.jpg	99
2709.815	0.438	437.6	congruent	Block3	congruent/STIM_001.jpg	99
2712.322	0.648	647.7	congruent	Block3	congruent/STIM_002.jpg	100
2716.643	0.642	641.9	congruent	Block3	congruent/STIM_002.jpg	100
2719.965	0.415	414.9	congruent	Block3	congruent/STIM_002.jpg	100
2723.612	0.609	609.2	congruent	Block3	congruent/STIM_002.jpg	100
2727.955	0.553	552.6	congruent	Block3	congruent/STIM_002.jpg	99
2731.568	0.652	651.7	congruent	Block3	congruent/STIM_003.jpg	99
2735.101	0.626	626.5	congruent	Block3	congruent/STIM_003.jpg	100
2738.273	0.636	635.8	congruent	Block3	congruent/STIM_003.jpg	100
2742.635	0.386	385.9	congruent	Block3	congruent/STIM_003.jpg	99
2745.991	0.376	375.8	congruent	Block3	congruent/STIM_003.jpg	100
2749.931	0.548	548.5	congruent	Block3	congruent/STIM_004.jpg	99
2753.042	0.376	376.1	congruent	Block3	congruent/STIM_004.jpg	100
2756.554	0.526	525.9	congruent	Block3	congruent/STIM_004.jpg	100
2759.584	0.55	550.0	congruent	Block3	congruent/STIM_004.jpg	100
2764.002	0.528	527.6	congruent	Block3	congruent/STIM_004.jpg	99
2767.887	0.391	390.6	congruent	Block3	congruent/STIM_005.jpg	100
2771.634	0.403	402.9	congruent	Block3	congruent/STIM_005.jpg	100
2775.172	0.602	602.0	congruent	Block3	congruent/STIM_005.jpg	100
2779.41	0.374	374.0	congruent	Block3	congruent/STIM_005.jpg	99
2782.317	0.563	562.6	congruent	Block3	congruent/STIM_005.jpg	99
2785.35	0.462	462.4	congruent	Block3	congruent/STIM_006.jpg	99
2789.8	0.423	423.2	congruent	Block3	congruent/STIM_006.jpg	100
2793.409	0.449	449.3	congruent	Block3	congruent/STIM_006.jpg	100
2796.606	0.595	595.4	congruent	Block3	congruent/STIM_006.jpg	100
2801.169	0.41	410.2	congruent	Block3	congruent/STIM_006.jpg	99
2805.458	0.397	397.1	congruent	Block3	congruent/STIM_007.jpg	100
2808.344	0.374	374.1	congruent	Block3	congruent/STIM_007.jpg	100
2811.589	0.576	575.6	congruent	Block3	congruent/STIM_007.jpg	100
2815.284	0.65	650.4	congruent	Block3	congruent/STIM_007.jpg	100
2818.408	0.496	495.6	congruent	Block3	congruent/STIM_007.jpg	99
2821.684	0.622	621.7	congruent	Block3	congruent/STIM_008.jpg	100
2825.597	0.396	396.3	congruent	Block3	congruent/STIM_008.jpg	100
2828.126	0.615	614.7	congruent	Block3	congruent/STIM_008.jpg	99
2831.801	0.375	375.3	congruent	Block3	congruent/STIM_008.jpg	99
2834.595	0.562	562.2	congruent	Block3	congruent/STIM_008.jpg	100
2838.364	0.551	551.2	congruent	Block3	congruent/STIM_009.jpg	100
2842.195	0.507	506.6	congruent	Block3	congruent/STIM_009.jpg	99
2846.399	0.469	469.4	congruent	Block3	congruent/STIM_009.jpg	99
2850.176	0.466	465.9	congruent	Block3	congruent/STIM_009.jpg	99
2853.483	0.402	402.0	congruent	Block3	congruent/STIM_009.jpg	99
2857.466	0.385	384.6	congruent	Block3	congruent/STIM_010.jpg	99
2861.841	0.577	576.8	congruent	Block3	congruent/STIM_010.jpg	99
2864.917	0.571	571.4	congruent	Block3	congruent/STIM_010.jpg	99
2868.581	0.405	405.2	congruent	Block3	congruent/STIM_010.jpg	99
2872.134	0.514	514.3	congruent	Block3	congruent/STIM_010.jpg	99
2876.097	0.586	586.2	congruent	Block3	congruent/STIM_011.jpg	100
2878.98	0.521	521.1	congruent	Block3	congruent/STIM_011.jpg	100
2883.013	0.649	648.6	congruent	Block3	congruent/STIM_011.jpg	99
2885.816	0.529	529.0	congruent	Block3	congruent/STIM_011.jpg	99
2889.881	0.578	577.6	congruent	Block3	congruent/STIM_011.jpg	99
2893.84	0.655	654.6	congruent	Block3	congruent/STIM_012.jpg	100
2897.944	0.634	633.8	congruent	Block3	congruent/STIM_012.jpg	99
2900.589	0.484	483.5	congruent	Block3	congruent/STIM_012.jpg	100
2903.67	0.555	555.0	congruent	Block3	congruent/STIM_012.jpg	99
2907.732	0.574	573.9	congruent	Block3	congruent/STIM_012.jpg	100
2912.039	0.561	561.4	congruent	Block3	congruent/STIM_013.jpg	99
2915.689	0.528	527.9	congruent	Block3	congruent/STIM_013.jpg	99
2918.839	0.63	630.0	congruent	Block3	congruent/STIM_013.jpg	99
2922.934	0.603	603.4	congruent	Block3	congruent/STIM_013.jpg	99
2925.709	0.557	556.6	congruent	Block3	congruent/STIM_013.jpg	100
2928.577	0.588	587.7	congruent	Block3	congruent/STIM_014.jpg	100
2931.63	0.472	472.4	congruent	Block3	congruent/STIM_014.jpg	99
2934.7	0.489	488.8	congruent	Block3	congruent/STIM_014.jpg	99
2938.002	0.52	519.8	congruent	Block3	congruent/STIM_014.jpg	99
2942.065	0.393	393.4	congruent	Block3	congruent/STIM_014.jpg	99
2945.306	0.574	573.5	congruent	Block3	congruent/STIM_015.jpg	100
2948.048	0.477	476.6	congruent	Block3	congruent/STIM_015.jpg	100
2952.397	0.383	382.9	congruent	Block3	congruent/STIM_015.jpg	99
2955.816	0.545	544.7	congruent	Block3	congruent/STIM_015.jpg	99
2958.732	0.471	471.0	congruent	Block3	congruent/STIM_015.jpg	100
2963.188	0.564	564.2	congruent	Block3	congruent/STIM_016.jpg	99
2966.725	0.367	367.3	congruent	Block3	congruent/STIM_016.jpg	99
2970.814	0.567	567.4	congruent	Block3	congruent/STIM_016.jpg	99
2974.065	0.605	604.8	congruent	Block3	congruent/STIM_016.jpg	99
2977.079	0.421	420.6	congruent	Block3	congruent/STIM_016.jpg	99
2980.965	0.623	623.1	congruent	Block3	congruent/STIM_017.jpg	100
2983.805	0.597	597.2	congruent	Block3	congruent/STIM_017.jpg	99
2988.273	0.441	441.1	congruent	Block3	congruent/STIM_017.jpg	100
2992.666	0.586	586.1	congruent	Block3	congruent/STIM_017.jpg	99
2995.754	0.38	379.6	congruent	Block3	congruent/STIM_017.jpg	99
2998.293	0.591	591.0	congruent	Block3	congruent/STIM_018.jpg	100
3001.918	0.39	389.6	congruent	Block3	congruent/STIM_018.jpg	99
3005.321	0.553	552.9	congruent	Block3	congruent/STIM_018.jpg	99
3007.912	0.623	623.3	congruent	Block3	congruent/STIM_018.jpg	100
3012.164	0.39	390.4	congruent	Block3	congruent/STIM_018.jpg	100
3016.519	0.436	435.5	congruent	Block3	congruent/STIM_019.jpg	100
3020.174	0.556	556.3	congruent	Block3	congruent/STIM_019.jpg	99
3023.959	0.479	478.6	congruent	Block3	congruent/STIM_019.jpg	99
3028.348	0.645	645.2	congruent	Block3	congruent/STIM_019.jpg	100
3031.527	0.46	460.2	congruent	Block3	congruent/STIM_019.jpg	99
3034.564	0.52	520.1	congruent	Block3	congruent/STIM_020.jpg	100
3039.036	0.45	449.9	congruent	Block3	congruent/STIM_020.jpg	99
3041.501	0.488	488.4	congruent	Block3	congruent/STIM_020.jpg	99
3044.278	0.643	643.3	congruent	Block3	congruent/STIM_020.jpg	100
3047.483	0.54	540.5	congruent	Block3	congruent/STIM_020.jpg	100
3051.682	0.502	501.6	congruent	Block3	congruent/STIM_021.jpg	100
3054.785	0.466	466.2	congruent	Block3	congruent/STIM_021.jpg	100
3058.93	0.483	483.3	congruent	Block3	congruent/STIM_021.jpg	100
3062.505	0.455	454.6	congruent	Block3	congruent/STIM_021.jpg	100
3066.409	0.561	560.9	congruent	Block3	congruent/STIM_021.jpg	100
3070.203	0.537	536.7	congruent	Block3	congruent/STIM_022.jpg	99
3074.618	0.565	564.6	congruent	Block3	congruent/STIM_022.jpg	99
3078.324	0.538	537.8	congruent	Block3	congruent/STIM_022.jpg	99
3082.374	0.405	404.7	congruent	Block3	congruent/STIM_022.jpg	99
3086.253	0.409	408.9	congruent	Block3	congruent/STIM_022.jpg	99
3089.772	0.53	530.0	congruent	Block3	congruent/STIM_023.jpg	100
3093.025	0.561	561.3	congruent	Block3	congruent/STIM_023.jpg	99
3096.643	0.423	422.8	congruent	Block3	congruent/STIM_023.jpg	100
3099.39	0.59	590.3	congruent	Block3	congruent/STIM_023.jpg	100
3102.845	0.408	408.3	congruent	Block3	congruent/STIM_023.jpg	100
3105.662	0.544	544.0	congruent	Block3	congruent/STIM_024.jpg	99
3109.095	0.645	645.0	congruent	Block3	congruent/STIM_024.jpg	100
3112.85	0.423	423.2	congruent	Block3	congruent/STIM_024.jpg	100
3117.177	0.524	524.2	congruent	Block3	congruent/STIM_024.jpg	99
3121.514	0.547	546.9	congruent	Block3	congruent/STIM_024.jpg	100
3125.97	0.596	595.6	congruent	Block3	congruent/STIM_025.jpg	100
3128.866	0.486	486.4	congruent	Block3	congruent/STIM_025.jpg	100
3132.701	0.636	636.4	congruent	Block3	congruent/STIM_025.jpg	99
3136.166	0.61	609.8	congruent	Block3	congruent/STIM_025.jpg	99
3140.439	0.658	657.7	congruent	Block3	congruent/STIM_025.jpg	99
3144.669	0.555	555.0	congruent	Block3	congruent/STIM_026.jpg	100
3147.876	0.61	610.4	congruent	Block3	congruent/STIM_026.jpg	99
3150.583	0.57	569.9	congruent	Block3	congruent/STIM_026.jpg	99
3154.852	0.639	639.0	congruent	Block3	congruent/STIM_026.jpg	100
3158.879	0.429	429.0	congruent	Block3	congruent/STIM_026.jpg	99
3161.925	0.611	610.6	congruent	Block3	congruent/STIM_027.jpg	100
3166.083	0.535	535.0	congruent	Block3	congruent/STIM_027.jpg	100
3168.861	0.518	518.5	congruent	Block3	congruent/STIM_027.jpg	100
3173.208	0.498	497.5	congruent	Block3	congruent/STIM_027.jpg	99
3176.665	0.623	622.6	congruent	Block3	congruent/STIM_027.jpg	99
3179.557	0.413	412.8	congruent	Block3	congruent/STIM_028.jpg	99
3183.382	0.396	396.4	congruent	Block3	congruent/STIM_028.jpg	99
3187.56	0.398	398.1	congruent	Block3	congruent/STIM_028.jpg	99
3190.675	0.484	484.3	congruent	Block3	congruent/STIM_028.jpg	99
3194.347	0.44	440.0	congruent	Block3	congruent/STIM_028.jpg	99
3198.555	0.48	480.3	congruent	Block3	congruent/STIM_029.jpg	99
3201.55	0.45	449.5	congruent	Block3	congruent/STIM_029.jpg	100
3205.727	0.383	382.9	congruent	Block3	congruent/STIM_029.jpg	100
3208.484	0.418	417.7	congruent	Block3	congruent/STIM_029.jpg	99
3211.108	0.501	501.1	congruent	Block3	congruent/STIM_029.jpg	99
