onset	duration	response_time_ms	trial_type	learning_stage	stimulus	response_port
0.0	2.048	2048.3	generate	Run1	generate/STIM_000.jpg	100
4.704	1.104	1103.5	generate	Run1	generate/STIM_000.jpg	99
9.337	1.41	1410.0	generate	Run1	generate/STIM_000.jpg	100
13.125	1.288	1288.2	generate	Run1	generate/STIM_000.jpg	99
18.094	1.092	1092.5	generate	Run1	generate/STIM_000.jpg	99
22.795	2.493	2493.1	generate	Run1	generate/STIM_001.jpg	99
29.546	1.88	1879.9	generate	Run1	generate/STIM_001.jpg	99
35.649	2.19	2190.2	generate	Run1	generate/STIM_001.jpg	100
40.953	2.161	2161.3	generate	Run1	generate/STIM_001.jpg	99
46.391	1.574	1574.5	generate	Run1	generate/STIM_001.jpg	100
52.215	1.592	1592.2	generate	Run1	generate/STIM_002.jpg	99
57.814	1.776	1775.9	generate	Run1	generate/STIM_002.jpg	100
63.738	1.944	1944.2	generate	Run1	generate/STIM_002.jpg	100
68.93	1.87	1869.8	generate	Run1	generate/STIM_002.jpg	99
75.062	1.75	1749.7	generate	Run1	generate/STIM_002.jpg	99
80.846	2.13	2129.9	generate	Run1	generate/STIM_003.jpg	99
86.322	1.54	1539.5	generate	Run1	generate/STIM_003.jpg	100
90.896	1.635	1635.3	generate	Run1	generate/STIM_003.jpg	99
94.854	1.662	1662.3	generate	Run1	generate/STIM_003.jpg	100
100.427	1.314	1314.3	generate	Run1	generate/STIM_003.jpg	100
105.971	1.309	1308.9	generate	Run1	generate/STIM_004.jpg	100
109.85	1.515	1514.6	generate	Run1	generate/STIM_004.jpg	100
115.187	1.47	1470.2	generate	Run1	generate/STIM_004.jpg	100
120.853	1.708	1707.8	generate	Run1	generate/STIM_004.jpg	100
126.188	1.289	1288.9	generate	Run1	generate/STIM_004.jpg	99
129.848	1.326	1325.6	generate	Run1	generate/STIM_005.jpg	99
133.563	1.382	1382.4	generate	Run1	generate/STIM_005.jpg	100
138.976	1.051	1051.4	generate	Run1	generate/STIM_005.jpg	100
144.037	1.347	1347.1	generate	Run1	generate/STIM_005.jpg	100
149.591	1.37	1369.8	generate	Run1	generate/STIM_005.jpg	100
154.355	2.218	2218.0	generate	Run1	generate/STIM_006.jpg	100
160.045	2.042	2042.5	generate	Run1	generate/STIM_006.jpg	99
165.966	2.046	2045.7	generate	Run1	generate/STIM_006.jpg	100
171.918	1.666	1666.2	generate	Run1	generate/STIM_006.jpg	100
176.439	1.878	1878.5	generate	Run1	generate/STIM_006.jpg	99
182.127	1.813	1813.4	generate	Run1	generate/STIM_007.jpg	99
187.645	1.983	1982.9	generate	Run1	generate/STIM_007.jpg	100
193.629	2.257	2257.4	generate	Run1	generate/STIM_007.jpg	99
198.395	1.618	1618.2	generate	Run1	generate/STIM_007.jpg	100
203.587	1.135	1135.2	generate	Run1	generate/STIM_007.jpg	100
208.603	1.703	1703.4	generate	Run1	generate/STIM_008.jpg	99
213.713	1.994	1993.8	generate	Run1	generate/STIM_008.jpg	100
219.383	1.13	1129.8	generate	Run1	generate/STIM_008.jpg	100
223.431	1.505	1505.1	generate	Run1	generate/STIM_008.jpg	99
227.545	1.209	1209.0	generate	Run1	generate/STIM_008.jpg	100
232.136	1.382	1381.8	generate	Run1	generate/STIM_009.jpg	100
236.328	1.244	1244.2	generate	Run1	generate/STIM_009.jpg	100
241.068	1.924	1924.5	generate	Run1	generate/STIM_009.jpg	100
245.32	1.58	1580.5	generate	Run1	generate/STIM_009.jpg	99
249.449	1.613	1613.1	generate	Run1	generate/STIM_009.jpg	100
253.649	2.513	2512.9	generate	Run1	generate/STIM_010.jpg	99
260.374	1.98	1979.5	generate	Run1	generate/STIM_010.jpg	99
264.921	1.803	1802.6	generate	Run1	generate/STIM_010.jpg	100
269.942	2.027	2026.8	generate	Run1	generate/STIM_010.jpg	100
275.539	1.905	1904.9	generate	Run1	generate/STIM_010.jpg	99
281.071	1.508	1507.5	generate	Run1	generate/STIM_011.jpg	100
284.953	1.543	1543.4	generate	Run1	generate/STIM_011.jpg	100
289.453	2.337	2337.4	generate	Run1	generate/STIM_011.jpg	100
294.603	2.224	2223.9	generate	Run1	generate/STIM_011.jpg	100
299.244	1.892	1892.5	generate	Run1	generate/STIM_011.jpg	100
304.044	1.687	1687.0	generate	Run1	generate/STIM_012.jpg	100
308.714	2.038	2038.1	generate	Run1	generate/STIM_012.jpg	100
314.63	2.082	2082.0	generate	Run1	generate/STIM_012.jpg	100
319.999	1.445	1444.8	generate	Run1	generate/STIM_012.jpg	100
325.303	1.734	1733.7	generate	Run1	generate/STIM_012.jpg	99
329.372	1.745	1745.2	generate	Run1	generate/STIM_013.jpg	99
333.785	1.24	1240.2	generate	Run1	generate/STIM_013.jpg	100
337.965	1.454	1454.5	generate	Run1	generate/STIM_013.jpg	100
342.862	0.903	903.1	generate	Run1	generate/STIM_013.jpg	100
346.488	1.991	1991.4	generate	Run1	generate/STIM_013.jpg	100
352.098	2.232	2231.5	generate	Run1	generate/STIM_014.jpg	99
357.487	0.98	980.5	generate	Run1	generate/STIM_014.jpg	99
361.252	2.298	2297.8	generate	Run1	generate/STIM_014.jpg	100
367.201	2.139	2139.4	generate	Run1	generate/STIM_014.jpg	99
373.666	1.523	1523.1	generate	Run1	generate/STIM_014.jpg	100
378.336	1.692	1691.5	generate	Run1	generate/STIM_015.jpg	99
383.52	1.863	1862.9	generate	Run1	generate/STIM_015.jpg	99
388.161	1.36	1360.5	generate	Run1	generate/STIM_015.jpg	99
392.09	2.043	2042.7	generate	Run1	generate/STIM_015.jpg	99
397.36	1.803	1803.2	generate	Run1	generate/STIM_015.jpg	100
402.744	1.468	1468.3	generate	Run1	generate/STIM_016.jpg	99
406.556	1.714	1714.0	generate	Run1	generate/STIM_016.jpg	99
411.79	1.31	1310.0	generate	Run1	generate/STIM_016.jpg	99
415.836	1.272	1272.5	generate	Run1	generate/STIM_016.jpg	100
420.782	1.355	1354.8	generate	Run1	generate/STIM_016.jpg	99
425.284	1.908	1907.9	generate	Run1	generate/STIM_017.jpg	99
430.378	2.061	2060.8	generate	Run1	generate/STIM_017.jpg	99
436.531	1.681	1681.1	generate	Run1	generate/STIM_017.jpg	100
441.883	1.746	1746.0	generate	Run1	generate/STIM_017.jpg	100
446.586	1.681	1680.8	generate	Run1	generate/STIM_017.jpg	100
451.767	1.712	1712.0	generate	Run1	generate/STIM_018.jpg	100
456.959	2.235	2235.3	generate	Run1	generate/STIM_018.jpg	100
462.538	2.173	2172.8	generate	Run1	generate/STIM_018.jpg	100
467.999	1.784	1784.4	generate	Run1	generate/STIM_018.jpg	100
472.045	1.135	1135.2	generate	Run1	generate/STIM_018.jpg	99
476.001	1.962	1962.2	generate	Run1	generate/STIM_019.jpg	100
481.07	2.086	2086.4	generate	Run1	generate/STIM_019.jpg	99
486.291	0.929	929.1	generate	Run1	generate/STIM_019.jpg	99
490.132	1.101	1101.1	generate	Run1	generate/STIM_019.jpg	99
495.459	0.944	943.6	generate	Run1	generate/STIM_019.jpg	99
498.928	1.781	1780.6	generate	Run1	generate/STIM_020.jpg	100
503.777	1.753	1752.8	generate	Run1	generate/STIM_020.jpg	100
508.127	1.691	1690.9	generate	Run1	generate/STIM_020.jpg	100
513.701	1.779	1778.9	generate	Run1	generate/STIM_020.jpg	100
518.517	1.688	1688.4	generate	Run1	generate/STIM_020.jpg	100
523.307	1.418	1418.4	generate	Run1	generate/STIM_021.jpg	99
528.274	1.637	1637.3	generate	Run1	generate/STIM_021.jpg	100
533.318	1.208	1208.2	generate	Run1	generate/STIM_021.jpg	100
538.114	1.289	1289.0	generate	Run1	generate/STIM_021.jpg	99
543.166	1.917	1917.2	generate	Run1	generate/STIM_021.jpg	100
548.293	2.131	2130.8	generate	Run1	generate/STIM_022.jpg	99
554.295	2.312	2311.9	generate	Run1	generate/STIM_022.jpg	99
559.261	1.791	1790.6	generate	Run1	generate/STIM_022.jpg	100
564.247	2.193	2193.1	generate	Run1	generate/STIM_022.jpg	99
570.316	1.512	1511.7	generate	Run1	generate/STIM_022.jpg	99
575.879	1.528	1528.0	generate	Run1	generate/STIM_023.jpg	99
579.835	1.281	1281.3	generate	Run1	generate/STIM_023.jpg	100
583.915	2.127	2127.4	generate	Run1	generate/STIM_023.jpg	99
588.716	1.612	1611.6	generate	Run1	generate/STIM_023.jpg	99
593.194	1.149	1149.2	generate	Run1	generate/STIM_023.jpg	99
597.698	1.32	1320.3	generate	Run1	generate/STIM_024.jpg	99
602.142	2.175	2174.7	generate	Run1	generate/STIM_024.jpg	99
607.708	1.804	1804.5	generate	Run1	generate/STIM_024.jpg	100
612.417	1.123	1123.3	generate	Run1	generate/STIM_024.jpg	99
616.051	1.942	1941.9	generate	Run1	generate/STIM_024.jpg	100
621.151	0.613	613.4	repeat	Run1	repeat/STIM_000.jpg	100
624.955	0.641	641.0	repeat	Run1	repeat/STIM_000.jpg	99
628.003	0.859	858.8	repeat	Run1	repeat/STIM_000.jpg	99
632.127	0.374	374.5	repeat	Run1	repeat/STIM_000.jpg	99
635.257	0.596	596.2	repeat	Run1	repeat/STIM_000.jpg	100
638.221	0.645	644.6	repeat	Run1	repeat/STIM_001.jpg	99
641.438	0.745	745.2	repeat	Run1	repeat/STIM_001.jpg	99
645.668	0.794	793.9	repeat	Run1	repeat/STIM_001.jpg	100
649.806	0.422	421.5	repeat	Run1	repeat/STIM_001.jpg	100
654.383	0.778	777.6	repeat	Run1	repeat/STIM_001.jpg	100
658.777	0.605	604.6	repeat	Run1	repeat/STIM_002.jpg	99
661.732	0.571	571.1	repeat	Run1	repeat/STIM_002.jpg	99
665.957	0.671	671.0	repeat	Run1	repeat/STIM_002.jpg	100
670.325	0.896	895.9	repeat	Run1	repeat/STIM_002.jpg	100
674.031	0.534	533.6	repeat	Run1	repeat/STIM_002.jpg	99
677.443	0.701	701.0	repeat	Run1	repeat/STIM_003.jpg	100
682.172	0.675	674.8	repeat	Run1	repeat/STIM_003.jpg	99
685.019	0.866	866.5	repeat	Run1	repeat/STIM_003.jpg	100
688.517	0.854	854.1	repeat	Run1	repeat/STIM_003.jpg	99
693.35	0.834	833.5	repeat	Run1	repeat/STIM_003.jpg	99
696.764	0.722	721.8	repeat	Run1	repeat/STIM_004.jpg	99
699.874	0.563	562.7	repeat	Run1	repeat/STIM_004.jpg	99
703.795	0.644	643.9	repeat	Run1	repeat/STIM_004.jpg	100
706.779	0.661	661.3	repeat	Run1	repeat/STIM_004.jpg	100
710.621	0.802	801.8	repeat	Run1	repeat/STIM_004.jpg	99
713.841	0.757	756.7	repeat	Run1	repeat/STIM_005.jpg	99
716.743	0.472	472.2	repeat	Run1	repeat/STIM_005.jpg	100
721.005	0.732	731.9	repeat	Run1	repeat/STIM_005.jpg	100
724.181	0.607	606.7	repeat	Run1	repeat/STIM_005.jpg	100
727.144	0.796	795.9	repeat	Run1	repeat/STIM_005.jpg	100
730.711	0.837	837.2	repeat	Run1	repeat/STIM_006.jpg	99
735.587	0.485	485.2	repeat	Run1	repeat/STIM_006.jpg	100
740.009	0.829	829.1	repeat	Run1	repeat/STIM_006.jpg	99
743.748	0.527	526.8	repeat	Run1	repeat/STIM_006.jpg	99
747.136	0.425	425.4	repeat	Run1	repeat/STIM_006.jpg	99
750.485	0.867	866.9	repeat	Run1	repeat/STIM_007.jpg	100
754.68	0.478	478.2	repeat	Run1	repeat/STIM_007.jpg	100
757.596	0.558	558.3	repeat	Run1	repeat/STIM_007.jpg	100
760.428	0.378	377.8	repeat	Run1	repeat/STIM_007.jpg	99
763.935	0.808	807.7	repeat	Run1	repeat/STIM_007.jpg	100
767.424	0.799	798.7	repeat	Run1	repeat/STIM_008.jpg	99
772.027	0.709	708.7	repeat	Run1	repeat/STIM_008.jpg	99
776.185	0.756	756.2	repeat	Run1	repeat/STIM_008.jpg	100
779.696	0.855	855.3	repeat	Run1	repeat/STIM_008.jpg	99
783.505	0.702	702.0	repeat	Run1	repeat/STIM_008.jpg	100
786.747	0.683	683.0	repeat	Run1	repeat/STIM_009.jpg	99
789.694	0.552	551.8	repeat	Run1	repeat/STIM_009.jpg	99
792.655	0.948	947.7	repeat	Run1	repeat/STIM_009.jpg	99
796.358	0.578	578.3	repeat	Run1	repeat/STIM_009.jpg	99
799.56	0.416	415.9	repeat	Run1	repeat/STIM_009.jpg	100
803.854	0.552	552.5	repeat	Run1	repeat/STIM_010.jpg	100
806.888	0.495	495.4	repeat	Run1	repeat/STIM_010.jpg	99
810.999	0.744	744.5	repeat	Run1	repeat/STIM_010.jpg	99
815.181	0.774	774.2	repeat	Run1	repeat/STIM_010.jpg	100
819.89	0.35	350.4	repeat	Run1	repeat/STIM_010.jpg	99
822.723	0.746	746.4	repeat	Run1	repeat/STIM_011.jpg	99
826.375	0.809	808.7	repeat	Run1	repeat/STIM_011.jpg	100
829.677	0.641	640.8	repeat	Run1	repeat/STIM_011.jpg	99
834.413	0.762	761.7	repeat	Run1	repeat/STIM_011.jpg	100
837.731	0.565	565.4	repeat	Run1	repeat/STIM_011.jpg	100
842.019	0.409	409.2	repeat	Run1	repeat/STIM_012.jpg	100
845.791	0.81	810.4	repeat	Run1	repeat/STIM_012.jpg	99
850.632	0.736	736.4	repeat	Run1	repeat/STIM_012.jpg	100
854.677	0.529	528.9	repeat	Run1	repeat/STIM_012.jpg	99
857.479	0.867	866.6	repeat	Run1	repeat/STIM_012.jpg	100
860.854	0.703	702.8	repeat	Run1	repeat/STIM_013.jpg	99
863.885	0.804	803.9	repeat	Run1	repeat/STIM_013.jpg	100
867.23	0.706	705.9	repeat	Run1	repeat/STIM_013.jpg	99
871.596	0.555	555.0	repeat	Run1	repeat/STIM_013.jpg	99
874.939	0.606	606.0	repeat	Run1	repeat/STIM_013.jpg	99
879.625	0.761	760.9	repeat	Run1	repeat/STIM_014.jpg	100
883.581	0.479	479.4	repeat	Run1	repeat/STIM_014.jpg	100
886.847	0.814	814.4	repeat	Run1	repeat/STIM_014.jpg	100
891.153	0.689	688.7	repeat	Run1	repeat/STIM_014.jpg	100
894.291	0.451	450.9	repeat	Run1	repeat/STIM_014.jpg	99
896.929	1.825	1824.6	generate	Run2	generate/STIM_000.jpg	100
901.137	1.367	1367.0	generate	Run2	generate/STIM_000.jpg	100
906.614	1.409	1408.7	generate	Run2	generate/STIM_000.jpg	100
912.074	1.399	1399.4	generate	Run2	generate/STIM_000.jpg	99
915.783	1.744	1743.6	generate	Run2	generate/STIM_000.jpg	99
921.442	2.056	2056.0	generate	Run2	generate/STIM_001.jpg	100
925.967	1.488	1488.1	generate	Run2	generate/STIM_001.jpg	99
930.527	1.215	1214.9	generate	Run2	generate/STIM_001.jpg	100
934.686	1.212	1211.6	generate	Run2	generate/STIM_001.jpg	99
939.791	1.246	1246.0	generate	Run2	generate/STIM_001.jpg	99
943.545	1.508	1508.0	generate	Run2	generate/STIM_002.jpg	99
948.224	1.747	1747.2	generate	Run2	generate/STIM_002.jpg	99
954.086	0.984	983.5	generate	Run2	generate/STIM_002.jpg	99
957.34	1.816	1816.0	generate	Run2	generate/STIM_002.jpg	99
962.642	1.827	1827.2	generate	Run2	generate/STIM_002.jpg	100
967.053	1.14	1140.2	generate	Run2	generate/STIM_003.jpg	99
970.333	1.822	1821.7	generate	Run2	generate/STIM_003.jpg	100
975.476	1.29	1290.1	generate	Run2	generate/STIM_003.jpg	99
979.081	0.83	830.1	generate	Run2	generate/STIM_003.jpg	100
983.891	0.705	705.3	generate	Run2	generate/STIM_003.jpg	100
988.614	2.093	2093.3	generate	Run2	generate/STIM_004.jpg	100
993.883	1.161	1161.1	generate	Run2	generate/STIM_004.jpg	99
997.708	0.893	893.3	generate	Run2	generate/STIM_004.jpg	100
1002.076	1.629	1628.7	generate	Run2	generate/STIM_004.jpg	100
1006.69	1.28	1279.5	generate	Run2	generate/STIM_004.jpg	100
1011.755	1.045	1044.7	generate	Run2	generate/STIM_005.jpg	99
1015.082	1.098	1097.9	generate	Run2	generate/STIM_005.jpg	99
1018.745	1.902	1901.8	generate	Run2	generate/STIM_005.jpg	100
1023.918	1.281	1281.2	generate	Run2	generate/STIM_005.jpg	99
1028.434	1.695	1694.6	generate	Run2	generate/STIM_005.jpg	99
1033.481	1.443	1442.9	generate	Run2	generate/STIM_006.jpg	100
1037.83	1.183	1183.1	generate	Run2	generate/STIM_006.jpg	99
1041.631	0.891	891.3	generate	Run2	generate/STIM_006.jpg	100
1046.566	1.408	1407.5	generate	Run2	generate/STIM_006.jpg	99
1050.578	1.776	1775.6	generate	Run2	generate/STIM_006.jpg	99
1056.266	1.985	1984.8	generate	Run2	generate/STIM_007.jpg	100
1061.634	1.419	1419.2	generate	Run2	generate/STIM_007.jpg	99
1067.225	1.91	1910.4	generate	Run2	generate/STIM_007.jpg	100
1073.37	1.518	1518.3	generate	Run2	generate/STIM_007.jpg	99
1077.801	1.66	1659.5	generate	Run2	generate/STIM_007.jpg	100
1082.367	1.217	1217.1	generate	Run2	generate/STIM_008.jpg	99
1087.013	1.234	1234.0	generate	Run2	generate/STIM_008.jpg	99
1091.349	1.798	1798.4	generate	Run2	generate/STIM_008.jpg	100
1095.664	1.42	1420.4	generate	Run2	generate/STIM_008.jpg	100
1099.284	0.862	862.0	generate	Run2	generate/STIM_008.jpg	100
1102.726	1.551	1550.7	generate	Run2	generate/STIM_009.jpg	100
1107.959	2.008	2008.3	generate	Run2	generate/STIM_009.jpg	100
1112.683	1.087	1087.1	generate	Run2	generate/STIM_009.jpg	99
1117.392	0.742	742.0	generate	Run2	generate/STIM_009.jpg	99
1121.534	0.893	893.1	generate	Run2	generate/STIM_009.jpg	99
1126.562	1.976	1976.3	generate	Run2	generate/STIM_010.jpg	99
1132.009	1.354	1354.5	generate	Run2	generate/STIM_010.jpg	100
1137.124	0.883	883.0	generate	Run2	generate/STIM_010.jpg	99
1141.648	1.39	1389.6	generate	Run2	generate/STIM_010.jpg	100
1146.195	1.215	1214.9	generate	Run2	generate/STIM_010.jpg	100
1150.322	1.741	1741.3	generate	Run2	generate/STIM_011.jpg	99
1155.718	1.944	1943.8	generate	Run2	generate/STIM_011.jpg	99
1161.096	1.623	1623.4	generate	Run2	generate/STIM_011.jpg	99
1166.848	1.423	1423.1	generate	Run2	generate/STIM_011.jpg	99
1171.819	1.101	1101.1	generate	Run2	generate/STIM_011.jpg	100
1175.283	1.161	1161.2	generate	Run2	generate/STIM_012.jpg	99
1179.228	1.879	1878.8	generate	Run2	generate/STIM_012.jpg	99
1184.698	1.641	1641.2	generate	Run2	generate/STIM_012.jpg	100
1190.523	0.818	818.2	generate	Run2	generate/STIM_012.jpg	100
1194.048	1.542	1541.6	generate	Run2	generate/STIM_012.jpg	99
1198.548	2.027	2026.9	generate	Run2	generate/STIM_013.jpg	100
1203.521	1.295	1295.3	generate	Run2	generate/STIM_013.jpg	100
1207.585	1.346	1345.5	generate	Run2	generate/STIM_013.jpg	99
1213.092	1.291	1290.6	generate	Run2	generate/STIM_013.jpg	99
1217.209	1.565	1564.9	generate	Run2	generate/STIM_013.jpg	100
1221.474	1.636	1635.9	generate	Run2	generate/STIM_014.jpg	99
1226.267	1.797	1796.9	generate	Run2	generate/STIM_014.jpg	99
1232.102	1.057	1057.0	generate	Run2	generate/STIM_014.jpg	100
1235.823	1.487	1487.1	generate	Run2	generate/STIM_014.jpg	100
1241.009	1.726	1725.7	generate	Run2	generate/STIM_014.jpg	99
1245.51	1.855	1855.3	generate	Run2	generate/STIM_015.jpg	99
1250.26	1.024	1024.3	generate	Run2	generate/STIM_015.jpg	99
1254.216	1.859	1858.8	generate	Run2	generate/STIM_015.jpg	100
1259.362	0.889	889.0	generate	Run2	generate/STIM_015.jpg	100
1262.929	1.755	1754.6	generate	Run2	generate/STIM_015.jpg	100
1268.898	1.271	1270.8	generate	Run2	generate/STIM_016.jpg	99
1273.954	1.094	1093.8	generate	Run2	generate/STIM_016.jpg	100
1278.363	0.792	792.3	generate	Run2	generate/STIM_016.jpg	100
1281.398	1.036	1036.3	generate	Run2	generate/STIM_016.jpg	99
1285.603	1.719	1719.3	generate	Run2	generate/STIM_016.jpg	99
1290.907	1.274	1274.4	generate	Run2	generate/STIM_017.jpg	99
1296.173	0.914	914.4	generate	Run2	generate/STIM_017.jpg	99
1299.95	1.849	1849.4	generate	Run2	generate/STIM_017.jpg	100
1305.213	1.561	1561.4	generate	Run2	generate/STIM_017.jpg	100
1310.415	0.746	745.5	generate	Run2	generate/STIM_017.jpg	100
1314.708	1.807	1807.0	generate	Run2	generate/STIM_018.jpg	100
1319.164	1.889	1889.2	generate	Run2	generate/STIM_018.jpg	99
1323.324	1.005	1005.0	generate	Run2	generate/STIM_018.jpg	99
1327.096	0.717	717.1	generate	Run2	generate/STIM_018.jpg	99
1330.437	0.948	947.8	generate	Run2	generate/STIM_018.jpg	100
1333.727	1.712	1712.4	generate	Run2	generate/STIM_019.jpg	100
1338.78	1.645	1645.2	generate	Run2	generate/STIM_019.jpg	99
1342.827	1.461	1461.4	generate	Run2	generate/STIM_019.jpg	100
1348.295	1.155	1155.2	generate	Run2	generate/STIM_019.jpg	100
1352.416	0.889	889.1	generate	Run2	generate/STIM_019.jpg	99
1356.129	1.886	1885.6	generate	Run2	generate/STIM_020.jpg	100
1361.911	1.238	1238.0	generate	Run2	generate/STIM_020.jpg	99
1366.352	1.361	1361.3	generate	Run2	generate/STIM_020.jpg	99
1370.41	0.934	933.7	generate	Run2	generate/STIM_020.jpg	99
1375.441	0.914	914.4	generate	Run2	generate/STIM_020.jpg	100
1380.311	1.835	1835.2	generate	Run2	generate/STIM_021.jpg	100
1386.029	0.91	909.5	generate	Run2	generate/STIM_021.jpg	99
1391.037	1.766	1765.8	generate	Run2	generate/STIM_021.jpg	100
1396.147	1.165	1164.9	generate	Run2	generate/STIM_021.jpg	100
1400.322	1.607	1607.0	generate	Run2	generate/STIM_021.jpg	100
1405.911	1.763	1762.7	generate	Run2	generate/STIM_022.jpg	99
1411.55	1.288	1288.4	generate	Run2	generate/STIM_022.jpg	99
1415.558	0.782	782.3	generate	Run2	generate/STIM_022.jpg	100
1419.374	1.361	1360.7	generate	Run2	generate/STIM_022.jpg	100
1424.161	0.885	885.3	generate	Run2	generate/STIM_022.jpg	99
1428.378	1.696	1695.8	generate	Run2	generate/STIM_023.jpg	100
1434.322	0.852	851.9	generate	Run2	generate/STIM_023.jpg	99
1438.807	1.774	1773.8	generate	Run2	generate/STIM_023.jpg	100
1444.462	1.162	1162.5	generate	Run2	generate/STIM_023.jpg	100
1448.941	1.146	1146.3	generate	Run2	generate/STIM_023.jpg	100
1453.857	1.592	1592.5	generate	Run2	generate/STIM_024.jpg	99
1459.165	0.987	986.8	generate	Run2	generate/STIM_024.jpg	99
1462.74	1.898	1897.7	generate	Run2	generate/STIM_024.jpg	99
1467.802	1.032	1032.2	generate	Run2	generate/STIM_024.jpg	100
1471.233	1.531	1531.3	generate	Run2	generate/STIM_024.jpg	99
1475.249	0.754	754.1	repeat	Run2	repeat/STIM_000.jpg	100
1479.326	0.662	662.5	repeat	Run2	repeat/STIM_000.jpg	100
1483.448	0.806	806.1	repeat	Run2	repeat/STIM_000.jpg	100
1488.387	0.466	466.3	repeat	Run2	repeat/STIM_000.jpg	99
1492.055	0.866	866.3	repeat	Run2	repeat/STIM_000.jpg	99
1495.559	0.553	553.1	repeat	Run2	repeat/STIM_001.jpg	100
1499.182	0.882	882.2	repeat	Run2	repeat/STIM_001.jpg	99
1502.24	0.505	504.8	repeat	Run2	repeat/STIM_001.jpg	100
1505.441	0.565	565.0	repeat	Run2	repeat/STIM_001.jpg	99
1509.643	0.789	789.0	repeat	Run2	repeat/STIM_001.jpg	99
1513.227	0.896	895.5	repeat	Run2	repeat/STIM_002.jpg	100
1517.11	0.65	649.6	repeat	Run2	repeat/STIM_002.jpg	100
1520.652	0.858	858.5	repeat	Run2	repeat/STIM_002.jpg	100
1525.547	0.829	829.2	repeat	Run2	repeat/STIM_002.jpg	100
1529.32	0.576	575.9	repeat	Run2	repeat/STIM_002.jpg	100
1533.791	0.461	461.1	repeat	Run2	repeat/STIM_003.jpg	100
1536.582	0.678	678.0	repeat	Run2	repeat/STIM_003.jpg	100
1541.137	0.642	642.1	repeat	Run2	repeat/STIM_003.jpg	99
1545.461	0.812	811.8	repeat	Run2	repeat/STIM_003.jpg	99
1550.421	0.791	791.2	repeat	Run2	repeat/STIM_003.jpg	100
1555.025	0.809	809.0	repeat	Run2	repeat/STIM_004.jpg	100
1558.72	0.782	781.9	repeat	Run2	repeat/STIM_004.jpg	99
1562.277	0.958	957.7	repeat	Run2	repeat/STIM_004.jpg	100
1567.034	0.71	709.8	repeat	Run2	repeat/STIM_004.jpg	99
1570.004	0.731	730.6	repeat	Run2	repeat/STIM_004.jpg	100
1574.383	0.618	618.3	repeat	Run2	repeat/STIM_005.jpg	100
1579.127	0.811	810.8	repeat	Run2	repeat/STIM_005.jpg	99
1583.227	0.705	704.8	repeat	Run2	repeat/STIM_005.jpg	100
1587.621	0.745	744.7	repeat	Run2	repeat/STIM_005.jpg	100
1590.752	0.676	675.9	repeat	Run2	repeat/STIM_005.jpg	100
1595.444	0.593	592.9	repeat	Run2	repeat/STIM_006.jpg	100
1600.005	0.489	489.3	repeat	Run2	repeat/STIM_006.jpg	100
1603.809	0.754	754.1	repeat	Run2	repeat/STIM_006.jpg	99
1606.92	0.688	688.3	repeat	Run2	repeat/STIM_006.jpg	99
1610.493	0.616	616.2	repeat	Run2	repeat/STIM_006.jpg	99
1614.583	0.623	622.6	repeat	Run2	repeat/STIM_007.jpg	99
1618.96	0.598	597.9	repeat	Run2	repeat/STIM_007.jpg	99
1622.68	0.78	780.0	repeat	Run2	repeat/STIM_007.jpg	100
1626.726	0.474	473.6	repeat	Run2	repeat/STIM_007.jpg	99
1631.106	0.796	796.1	repeat	Run2	repeat/STIM_007.jpg	100
1635.026	0.493	492.8	repeat	Run2	repeat/STIM_008.jpg	99
1639.333	0.768	767.5	repeat	Run2	repeat/STIM_008.jpg	99
1643.203	0.752	751.6	repeat	Run2	repeat/STIM_008.jpg	100
1646.728	0.474	474.2	repeat	Run2	repeat/STIM_008.jpg	99
1649.708	0.843	843.1	repeat	Run2	repeat/STIM_008.jpg	100
1652.765	0.66	660.1	repeat	Run2	repeat/STIM_009.jpg	99
1656.46	0.467	466.8	repeat	Run2	repeat/STIM_009.jpg	100
1659.939	0.855	854.7	repeat	Run2	repeat/STIM_009.jpg	99
1663.556	0.719	719.4	repeat	Run2	repeat/STIM_009.jpg	99
1668.25	0.606	606.3	repeat	Run2	repeat/STIM_009.jpg	99
1671.237	0.536	536.0	repeat	Run2	repeat/STIM_010.jpg	99
1674.855	0.738	738.4	repeat	Run2	repeat/STIM_010.jpg	100
1678.293	0.513	512.7	repeat	Run2	repeat/STIM_010.jpg	99
1681.15	0.754	753.5	repeat	Run2	repeat/STIM_010.jpg	100
1685.251	0.763	762.7	repeat	Run2	repeat/STIM_010.jpg	100
1688.815	0.522	522.4	repeat	Run2	repeat/STIM_011.jpg	99
1693.046	0.814	814.5	repeat	Run2	repeat/STIM_011.jpg	99
1697.272	0.815	814.7	repeat	Run2	repeat/STIM_011.jpg	100
1701.767	0.675	675.2	repeat	Run2	repeat/STIM_011.jpg	99
1705.226	0.521	520.6	repeat	Run2	repeat/STIM_011.jpg	99
1709.364	0.661	661.3	repeat	Run2	repeat/STIM_012.jpg	100
1713.755	0.574	574.4	repeat	Run2	repeat/STIM_012.jpg	100
1717.912	0.806	805.9	repeat	Run2	repeat/STIM_012.jpg	100
1721.063	0.495	495.0	repeat	Run2	repeat/STIM_012.jpg	99
1724.411	0.593	593.1	repeat	Run2	repeat/STIM_012.jpg	100
1728.636	0.779	778.8	repeat	Run2	repeat/STIM_013.jpg	100
1731.862	0.79	790.1	repeat	Run2	repeat/STIM_013.jpg	99
1735.625	0.517	517.1	repeat	Run2	repeat/STIM_013.jpg	99
1739.808	0.367	367.3	repeat	Run2	repeat/STIM_013.jpg	100
1743.691	0.761	761.1	repeat	Run2	repeat/STIM_013.jpg	99
1747.276	0.641	640.7	repeat	Run2	repeat/STIM_014.jpg	99
1750.053	0.68	679.8	repeat	Run2	repeat/STIM_014.jpg	99
1753.878	0.449	448.6	repeat	Run2	repeat/STIM_014.jpg	99
1757.749	0.592	592.5	repeat	Run2	repeat/STIM_014.jpg	99
1761.731	0.424	424.3	repeat	Run2	repeat/STIM_014.jpg	99
1765.829	1.113	1112.8	generate	Run3	generate/STIM_000.jpg	99
1769.289	1.202	1202.4	generate	Run3	generate/STIM_000.jpg	99
1773.658	1.254	1254.4	generate	Run3	generate/STIM_000.jpg	99
1777.932	0.97	969.9	generate	Run3	generate/STIM_000.jpg	100
1781.479	1.68	1679.5	generate	Run3	generate/STIM_000.jpg	99
1786.01	0.968	968.3	generate	Run3	generate/STIM_001.jpg	100
1789.974	1.22	1219.8	generate	Run3	generate/STIM_001.jpg	99
1794.893	1.432	1432.1	generate	Run3	generate/STIM_001.jpg	99
1799.172	1.302	1301.9	generate	Run3	generate/STIM_001.jpg	99
1804.344	1.199	1199.4	generate	Run3	generate/STIM_001.jpg	100
1809.326	1.778	1778.3	generate	Run3	generate/STIM_002.jpg	99
1814.607	0.9	900.1	generate	Run3	generate/STIM_002.jpg	100
1818.027	0.768	768.2	generate	Run3	generate/STIM_002.jpg	100
1821.672	0.914	913.8	generate	Run3	generate/STIM_002.jpg	100
1825.651	0.871	870.9	generate	Run3	generate/STIM_002.jpg	99
1829.011	1.64	1639.9	generate	Run3	generate/STIM_003.jpg	99
1833.176	0.676	675.7	generate	Run3	generate/STIM_003.jpg	99
1837.104	1.279	1279.0	generate	Run3	generate/STIM_003.jpg	99
1841.36	0.965	965.2	generate	Run3	generate/STIM_003.jpg	99
1846.282	0.965	965.2	generate	Run3	generate/STIM_003.jpg	100
1849.737	1.327	1326.8	generate	Run3	generate/STIM_004.jpg	99
1853.661	1.174	1174.2	generate	Run3	generate/STIM_004.jpg	100
1857.486	1.41	1409.8	generate	Run3	generate/STIM_004.jpg	99
1861.65	1.024	1023.9	generate	Run3	generate/STIM_004.jpg	100
1865.695	1.532	1531.6	generate	Run3	generate/STIM_004.jpg	99
1870.614	1.804	1803.9	generate	Run3	generate/STIM_005.jpg	100
1876.551	1.348	1347.9	generate	Run3	generate/STIM_005.jpg	100
1880.83	0.846	846.1	generate	Run3	generate/STIM_005.jpg	99
1884.568	1.549	1549.0	generate	Run3	generate/STIM_005.jpg	99
1890.259	1.228	1227.9	generate	Run3	generate/STIM_005.jpg	99
1893.724	1.294	1293.9	generate	Run3	generate/STIM_006.jpg	99
1898.534	1.443	1443.1	generate	Run3	generate/STIM_006.jpg	99
1904.203	1.188	1187.7	generate	Run3	generate/STIM_006.jpg	100
1908.471	0.944	944.5	generate	Run3	generate/STIM_006.jpg	99
1912.697	1.408	1408.5	generate	Run3	generate/STIM_006.jpg	100
1917.207	1.332	1332.3	generate	Run3	generate/STIM_007.jpg	99
1921.905	1.236	1236.1	generate	Run3	generate/STIM_007.jpg	100
1927.329	1.881	1881.0	generate	Run3	generate/STIM_007.jpg	100
1931.638	1.056	1055.7	generate	Run3	generate/STIM_007.jpg	99
1936.321	1.648	1647.8	generate	Run3	generate/STIM_007.jpg	100
1942.054	1.687	1686.6	generate	Run3	generate/STIM_008.jpg	100
1948.01	1.768	1767.8	generate	Run3	generate/STIM_008.jpg	100
1952.515	1.012	1012.2	generate	Run3	generate/STIM_008.jpg	99
1957.586	1.408	1407.7	generate	Run3	generate/STIM_008.jpg	100
1961.73	0.734	734.3	generate	Run3	generate/STIM_008.jpg	100
1965.096	0.76	759.6	generate	Run3	generate/STIM_009.jpg	100
1968.481	1.374	1373.8	generate	Run3	generate/STIM_009.jpg	100
1972.096	1.555	1555.1	generate	Run3	generate/STIM_009.jpg	99
1975.91	1.658	1657.9	generate	Run3	generate/STIM_009.jpg	99
1981.685	1.215	1214.9	generate	Run3	generate/STIM_009.jpg	100
1985.538	1.492	1492.2	generate	Run3	generate/STIM_010.jpg	100
1989.779	1.111	1110.7	generate	Run3	generate/STIM_010.jpg	99
1993.253	1.425	1425.3	generate	Run3	generate/STIM_010.jpg	99
1998.192	1.34	1340.1	generate	Run3	generate/STIM_010.jpg	99
2003.456	0.948	947.8	generate	Run3	generate/STIM_010.jpg	100
2008.398	0.733	732.6	generate	Run3	generate/STIM_011.jpg	100
2012.504	1.744	1743.5	generate	Run3	generate/STIM_011.jpg	100
2018.292	0.96	959.6	generate	Run3	generate/STIM_011.jpg	99
2023.129	1.254	1254.1	generate	Run3	generate/STIM_011.jpg	100
2028.299	1.347	1346.7	generate	Run3	generate/STIM_011.jpg	100
2033.475	0.844	844.2	generate	Run3	generate/STIM_012.jpg	99
2038.09	1.37	1369.9	generate	Run3	generate/STIM_012.jpg	99
2042.074	0.712	712.4	generate	Run3	generate/STIM_012.jpg	99
2046.762	1.458	1458.1	generate	Run3	generate/STIM_012.jpg	100
2052.059	0.84	840.5	generate	Run3	generate/STIM_012.jpg	100
2055.914	1.635	1634.6	generate	Run3	generate/STIM_013.jpg	99
2060.577	1.56	1559.7	generate	Run3	generate/STIM_013.jpg	100
2064.935	1.602	1602.2	generate	Run3	generate/STIM_013.jpg	99
2069.438	1.256	1256.3	generate	Run3	generate/STIM_013.jpg	99
2073.45	0.894	893.9	generate	Run3	generate/STIM_013.jpg	100
2077.464	0.795	795.3	generate	Run3	generate/STIM_014.jpg	99
2081.474	1.412	1411.8	generate	Run3	generate/STIM_014.jpg	99
2085.626	1.065	1064.9	generate	Run3	generate/STIM_014.jpg	100
2090.262	0.947	947.3	generate	Run3	generate/STIM_014.jpg	100
2093.881	1.427	1427.2	generate	Run3	generate/STIM_014.jpg	99
2099.097	1.118	1118.1	generate	Run3	generate/STIM_015.jpg	99
2104.01	1.811	1811.1	generate	Run3	generate/STIM_015.jpg	100
2109.405	1.104	1104.4	generate	Run3	generate/STIM_015.jpg	100
2113.865	1.676	1675.8	generate	Run3	generate/STIM_015.jpg	99
2118.827	1.59	1590.3	generate	Run3	generate/STIM_015.jpg	100
2122.685	0.92	919.5	generate	Run3	generate/STIM_016.jpg	99
2126.636	1.038	1037.5	generate	Run3	generate/STIM_016.jpg	99
2129.814	1.509	1508.8	generate	Run3	generate/STIM_016.jpg	100
2134.602	1.712	1712.0	generate	Run3	generate/STIM_016.jpg	100
2138.666	0.991	990.6	generate	Run3	generate/STIM_016.jpg	100
2143.307	1.801	1801.3	generate	Run3	generate/STIM_017.jpg	99
2148.97	0.742	741.9	generate	Run3	generate/STIM_017.jpg	100
2152.557	1.746	1746.3	generate	Run3	generate/STIM_017.jpg	100
2157.837	1.65	1649.9	generate	Run3	generate/STIM_017.jpg	99
2162.342	1.054	1054.1	generate	Run3	generate/STIM_017.jpg	99
2166.667	0.733	733.2	generate	Run3	generate/STIM_018.jpg	100
2170.717	0.838	838.1	generate	Run3	generate/STIM_018.jpg	100
2174.063	1.087	1087.2	generate	Run3	generate/STIM_018.jpg	100
2179.038	1.507	1507.1	generate	Run3	generate/STIM_018.jpg	99
2184.116	1.54	1540.0	generate	Run3	generate/STIM_018.jpg	99
2189.286	1.349	1348.9	generate	Run3	generate/STIM_019.jpg	99
2193.028	1.584	1584.0	generate	Run3	generate/STIM_019.jpg	100
2198.87	1.541	1541.0	generate	Run3	generate/STIM_019.jpg	99
2202.742	0.804	804.0	generate	Run3	generate/STIM_019.jpg	100
2207.23	1.685	1685.1	generate	Run3	generate/STIM_019.jpg	99
2211.75	1.547	1547.1	generate	Run3	generate/STIM_020.jpg	100
2215.975	1.086	1085.6	generate	Run3	generate/STIM_020.jpg	100
2219.863	1.518	1517.7	generate	Run3	generate/STIM_020.jpg	100
2225.003	1.709	1709.4	generate	Run3	generate/STIM_020.jpg	100
2230.829	1.467	1467.1	generate	Run3	generate/STIM_020.jpg	100
2234.985	1.147	1147.2	generate	Run3	generate/STIM_021.jpg	99
2239.57	1.615	1615.4	generate	Run3	generate/STIM_021.jpg	99
2243.777	0.777	776.7	generate	Run3	generate/STIM_021.jpg	100
2248.471	0.894	894.1	generate	Run3	generate/STIM_021.jpg	99
2251.642	1.246	1245.5	generate	Run3	generate/STIM_021.jpg	100
2255.69	0.831	831.1	generate	Run3	generate/STIM_022.jpg	99
2260.464	0.878	877.6	generate	Run3	generate/STIM_022.jpg	100
2263.822	0.734	734.1	generate	Run3	generate/STIM_022.jpg	99
2268.666	1.635	1635.1	generate	Run3	generate/STIM_022.jpg	100
2273.864	1.66	1659.5	generate	Run3	generate/STIM_022.jpg	99
2278.456	1.484	1483.9	generate	Run3	generate/STIM_023.jpg	99
2283.835	1.79	1789.6	generate	Run3	generate/STIM_023.jpg	100
2288.352	0.99	989.6	generate	Run3	generate/STIM_023.jpg	100
2292.879	1.379	1378.6	generate	Run3	generate/STIM_023.jpg	100
2297.062	1.298	1297.8	generate	Run3	generate/STIM_023.jpg	100
2301.524	1.243	1243.4	generate	Run3	generate/STIM_024.jpg	99
2305.164	1.531	1530.7	generate	Run3	generate/STIM_024.jpg	99
2310.776	1.357	1356.7	generate	Run3	generate/STIM_024.jpg	99
2315.442	1.187	1186.6	generate	Run3	generate/STIM_024.jpg	99
2319.149	0.977	976.9	generate	Run3	generate/STIM_024.jpg	100
2323.778	0.625	624.7	repeat	Run3	repeat/STIM_000.jpg	99
2327.78	0.576	575.7	repeat	Run3	repeat/STIM_000.jpg	99
2330.614	0.452	451.8	repeat	Run3	repeat/STIM_000.jpg	100
2333.364	0.455	455.0	repeat	Run3	repeat/STIM_000.jpg	99
2337.457	0.528	528.2	repeat	Run3	repeat/STIM_000.jpg	99
2341.899	0.795	794.7	repeat	Run3	repeat/STIM_001.jpg	100
2346.525	0.475	474.6	repeat	Run3	repeat/STIM_001.jpg	99
2351.029	0.532	531.7	repeat	Run3	repeat/STIM_001.jpg	99
2354.767	0.814	814.0	repeat	Run3	repeat/STIM_001.jpg	99
2358.621	0.598	598.2	repeat	Run3	repeat/STIM_001.jpg	100
2362.21	0.501	501.3	repeat	Run3	repeat/STIM_002.jpg	99
2365.543	0.666	665.6	repeat	Run3	repeat/STIM_002.jpg	99
2369.363	0.683	683.3	repeat	Run3	repeat/STIM_002.jpg	99
2372.14	0.5	500.1	repeat	Run3	repeat/STIM_002.jpg	100
2375.38	0.428	427.5	repeat	Run3	repeat/STIM_002.jpg	99
2379.675	0.64	639.6	repeat	Run3	repeat/STIM_003.jpg	99
2382.722	0.424	423.5	repeat	Run3	repeat/STIM_003.jpg	99
2385.968	0.776	776.0	repeat	Run3	repeat/STIM_003.jpg	99
2389.041	0.866	865.7	repeat	Run3	repeat/STIM_003.jpg	99
2392.386	0.818	817.7	repeat	Run3	repeat/STIM_003.jpg	100
2397.165	0.524	524.2	repeat	Run3	repeat/STIM_004.jpg	99
2399.916	0.822	821.6	repeat	Run3	repeat/STIM_004.jpg	99
2403.629	0.777	776.8	repeat	Run3	repeat/STIM_004.jpg	100
2407.589	0.433	433.2	repeat	Run3	repeat/STIM_004.jpg	99
2410.47	0.758	758.2	repeat	Run3	repeat/STIM_004.jpg	100
2413.399	0.694	693.5	repeat	Run3	repeat/STIM_005.jpg	100
2416.604	0.671	670.8	repeat	Run3	repeat/STIM_005.jpg	100
2420.851	0.918	917.6	repeat	Run3	repeat/STIM_005.jpg	100
2424.251	0.73	729.5	repeat	Run3	repeat/STIM_005.jpg	100
2427.288	0.669	668.9	repeat	Run3	repeat/STIM_005.jpg	99
2430.318	0.539	539.1	repeat	Run3	repeat/STIM_006.jpg	100
2434.536	0.463	462.9	repeat	Run3	repeat/STIM_006.jpg	99
2438.966	0.799	799.2	repeat	Run3	repeat/STIM_006.jpg	100
2443.603	0.404	403.9	repeat	Run3	repeat/STIM_006.jpg	100
2447.72	0.564	564.3	repeat	Run3	repeat/STIM_006.jpg	100
2451.848	0.536	536.2	repeat	Run3	repeat/STIM_007.jpg	100
2455.472	0.535	535.1	repeat	Run3	repeat/STIM_007.jpg	99
2459.124	0.898	898.0	repeat	Run3	repeat/STIM_007.jpg	99
2463.254	0.628	627.9	repeat	Run3	repeat/STIM_007.jpg	100
2466.033	0.554	554.5	repeat	Run3	repeat/STIM_007.jpg	99
2469.871	0.498	498.5	repeat	Run3	repeat/STIM_008.jpg	99
2473.513	0.733	733.3	repeat	Run3	repeat/STIM_008.jpg	99
2476.472	0.798	797.6	repeat	Run3	repeat/STIM_008.jpg	100
2479.665	0.671	671.0	repeat	Run3	repeat/STIM_008.jpg	100
2482.701	0.8	799.9	repeat	Run3	repeat/STIM_008.jpg	99
2486.999	0.614	613.5	repeat	Run3	repeat/STIM_009.jpg	99
2490.176	0.69	689.6	repeat	Run3	repeat/STIM_009.jpg	99
2493.775	0.549	549.1	repeat	Run3	repeat/STIM_009.jpg	100
2498.221	0.57	570.4	repeat	Run3	repeat/STIM_009.jpg	99
2501.397	0.658	658.4	repeat	Run3	repeat/STIM_009.jpg	100
2504.857	0.368	367.9	repeat	Run3	repeat/STIM_010.jpg	100
2508.02	0.545	545.3	repeat	Run3	repeat/STIM_010.jpg	99
2512.087	0.683	683.1	repeat	Run3	repeat/STIM_010.jpg	100
2516.58	0.697	697.1	repeat	Run3	repeat/STIM_010.jpg	100
2519.562	0.476	476.3	repeat	Run3	repeat/STIM_010.jpg	99
2522.079	0.488	487.6	repeat	Run3	repeat/STIM_011.jpg	99
2524.753	0.585	584.8	repeat	Run3	repeat/STIM_011.jpg	99
2529.319	0.816	815.8	repeat	Run3	repeat/STIM_011.jpg	100
2533.384	0.885	884.9	repeat	Run3	repeat/STIM_011.jpg	100
2537.766	0.681	680.6	repeat	Run3	repeat/STIM_011.jpg	99
2541.931	0.539	539.3	repeat	Run3	repeat/STIM_012.jpg	100
2546.25	0.534	534.4	repeat	Run3	repeat/STIM_012.jpg	100
2550.208	0.804	804.3	repeat	Run3	repeat/STIM_012.jpg	100
2554.967	0.59	590.1	repeat	Run3	repeat/STIM_012.jpg	100
2557.778	0.774	774.5	repeat	Run3	repeat/STIM_012.jpg	100
2561.226	0.77	770.0	repeat	Run3	repeat/STIM_013.jpg	100
2565.985	0.77	770.0	repeat	Run3	repeat/STIM_013.jpg	100
2569.642	0.799	799.1	repeat	Run3	repeat/STIM_013.jpg	99
2573.783	0.644	643.5	repeat	Run3	repeat/STIM_013.jpg	100
2578.291	0.767	767.3	repeat	Run3	repeat/STIM_013.jpg	100
2581.991	0.579	578.6	repeat	Run3	repeat/STIM_014.jpg	99
2586.285	0.512	511.7	repeat	Run3	repeat/STIM_014.jpg	99
2590.492	0.818	818.1	repeat	Run3	repeat/STIM_014.jpg	100
2594.826	0.436	436.0	repeat	Run3	repeat/STIM_014.jpg	99
2599.257	0.48	480.1	repeat	Run3	repeat/STIM_014.jpg	99
2602.779	1.478	1477.5	generate	Run4	generate/STIM_000.jpg	100
2607.885	1.108	1107.6	generate	Run4	generate/STIM_000.jpg	99
2612.295	1.746	1745.6	generate	Run4	generate/STIM_000.jpg	100
2618.158	0.702	702.2	generate	Run4	generate/STIM_000.jpg	99
2622.054	0.752	751.5	generate	Run4	generate/STIM_000.jpg	100
2625.422	0.736	736.3	generate	Run4	generate/STIM_001.jpg	99
2629.161	1.875	1874.7	generate	Run4	generate/STIM_001.jpg	99
2633.751	1.779	1779.2	generate	Run4	generate/STIM_001.jpg	100
2638.476	1.234	1234.4	generate	Run4	generate/STIM_001.jpg	100
2643.548	1.078	1078.0	generate	Run4	generate/STIM_001.jpg	100
2647.172	1.288	1288.0	generate	Run4	generate/STIM_002.jpg	99
2651.545	1.485	1485.4	generate	Run4	generate/STIM_002.jpg	99
2656.352	1.305	1305.0	generate	Run4	generate/STIM_002.jpg	100
2660.134	1.662	1662.5	generate	Run4	generate/STIM_002.jpg	99
2665.703	0.995	995.2	generate	Run4	generate/STIM_002.jpg	100
2669.224	1.237	1236.7	generate	Run4	generate/STIM_003.jpg	100
2673.247	0.811	811.1	generate	Run4	generate/STIM_003.jpg	99
2678.232	1.508	1508.2	generate	Run4	generate/STIM_003.jpg	99
2682.567	1.459	1459.1	generate	Run4	generate/STIM_003.jpg	100
2687.508	1.564	1563.8	generate	Run4	generate/STIM_003.jpg	99
2691.815	1.311	1311.3	generate	Run4	generate/STIM_004.jpg	99
2696.47	1.429	1429.2	generate	Run4	generate/STIM_004.jpg	99
2700.361	1.759	1758.8	generate	Run4	generate/STIM_004.jpg	100
2704.571	1.014	1014.1	generate	Run4	generate/STIM_004.jpg	99
2708.461	0.901	900.7	generate	Run4	generate/STIM_004.jpg	100
2711.75	0.921	920.7	generate	Run4	generate/STIM_005.jpg	99
2715.05	1.702	1702.1	generate	Run4	generate/STIM_005.jpg	99
2719.695	1.254	1254.4	generate	Run4	generate/STIM_005.jpg	99
2724.772	1.374	1373.8	generate	Run4	generate/STIM_005.jpg	100
2729.472	1.596	1595.7	generate	Run4	generate/STIM_005.jpg	99
2733.419	1.453	1453.1	generate	Run4	generate/STIM_006.jpg	99
2737.81	1.342	1342.3	generate	Run4	generate/STIM_006.jpg	100
2742.665	1.349	1349.2	generate	Run4	generate/STIM_006.jpg	100
2747.148	1.661	1661.1	generate	Run4	generate/STIM_006.jpg	100
2752.405	0.838	838.4	generate	Run4	generate/STIM_006.jpg	100
2757.103	1.806	1806.2	generate	Run4	generate/STIM_007.jpg	99
2762.8	1.744	1744.3	generate	Run4	generate/STIM_007.jpg	100
2768.316	0.875	874.9	generate	Run4	generate/STIM_007.jpg	99
2772.773	1.689	1689.3	generate	Run4	generate/STIM_007.jpg	100
2777.652	1.454	1454.1	generate	Run4	generate/STIM_007.jpg	100
2781.854	0.755	755.3	generate	Run4	generate/STIM_008.jpg	99
2785.076	1.842	1841.7	generate	Run4	generate/STIM_008.jpg	100
2789.37	1.209	1209.2	generate	Run4	generate/STIM_008.jpg	99
2792.911	1.555	1554.8	generate	Run4	generate/STIM_008.jpg	99
2798.546	1.1	1099.8	generate	Run4	generate/STIM_008.jpg	99
2802.18	1.503	1502.7	generate	Run4	generate/STIM_009.jpg	99
2807.138	1.557	1557.1	generate	Run4	generate/STIM_009.jpg	99
2812.551	1.788	1788.1	generate	Run4	generate/STIM_009.jpg	100
2818.175	1.069	1068.9	generate	Run4	generate/STIM_009.jpg	99
2821.464	1.069	1069.3	generate	Run4	generate/STIM_009.jpg	99
2825.852	1.401	1401.2	generate	Run4	generate/STIM_010.jpg	100
2830.183	1.354	1354.0	generate	Run4	generate/STIM_010.jpg	100
2835.489	1.088	1087.9	generate	Run4	generate/STIM_010.jpg	99
2838.805	0.864	863.8	generate	Run4	generate/STIM_010.jpg	99
2843.435	0.868	868.1	generate	Run4	generate/STIM_010.jpg	100
2846.866	0.874	873.8	generate	Run4	generate/STIM_011.jpg	100
2850.959	1.228	1228.2	generate	Run4	generate/STIM_011.jpg	99
2854.529	1.521	1520.7	generate	Run4	generate/STIM_011.jpg	100
2858.692	1.031	1030.8	generate	Run4	generate/STIM_011.jpg	99
2862.494	1.446	1446.1	generate	Run4	generate/STIM_011.jpg	100
2867.599	1.587	1587.2	generate	Run4	generate/STIM_012.jpg	100
2871.823	1.026	1026.3	generate	Run4	generate/STIM_012.jpg	100
2876.108	0.949	948.7	generate	Run4	generate/STIM_012.jpg	99
2880.407	1.168	1167.7	generate	Run4	generate/STIM_012.jpg	100
2884.469	1.514	1513.5	generate	Run4	generate/STIM_012.jpg	100
2889.548	0.789	788.8	generate	Run4	generate/STIM_013.jpg	99
2893.166	1.204	1204.4	generate	Run4	generate/STIM_013.jpg	99
2897.7	0.791	790.8	generate	Run4	generate/STIM_013.jpg	100
2901.912	1.072	1071.5	generate	Run4	generate/STIM_013.jpg	100
2905.947	1.702	1702.0	generate	Run4	generate/STIM_013.jpg	99
2910.557	1.292	1291.9	generate	Run4	generate/STIM_014.jpg	100
2915.18	1.627	1627.0	generate	Run4	generate/STIM_014.jpg	99
2919.936	1.127	1127.2	generate	Run4	generate/STIM_014.jpg	100
2923.482	1.772	1771.5	generate	Run4	generate/STIM_014.jpg	99
2929.175	1.351	1351.3	generate	Run4	generate/STIM_014.jpg	100
2934.437	1.5	1500.1	generate	Run4	generate/STIM_015.jpg	99
2938.866	1.377	1376.9	generate	Run4	generate/STIM_015.jpg	99
2944.118	1.236	1235.9	generate	Run4	generate/STIM_015.jpg	99
2948.43	1.77	1770.0	generate	Run4	generate/STIM_015.jpg	100
2954.368	0.929	929.1	generate	Run4	generate/STIM_015.jpg	100
2959.303	0.968	968.0	generate	Run4	generate/STIM_016.jpg	100
2963.232	1.7	1700.0	generate	Run4	generate/STIM_016.jpg	100
2969.167	0.695	695.0	generate	Run4	generate/STIM_016.jpg	99
2972.601	1.67	1669.8	generate	Run4	generate/STIM_016.jpg	100
2978.4	0.972	972.2	generate	Run4	generate/STIM_016.jpg	99
2981.609	1.29	1290.0	generate	Run4	generate/STIM_017.jpg	99
2986.916	0.872	872.1	generate	Run4	generate/STIM_017.jpg	99
2990.486	1.628	1627.5	generate	Run4	generate/STIM_017.jpg	100
2994.682	1.041	1041.0	generate	Run4	generate/STIM_017.jpg	100
2999.305	0.906	905.9	generate	Run4	generate/STIM_017.jpg	100
3004.029	0.912	911.8	generate	Run4	generate/STIM_018.jpg	99
3007.919	1.269	1269.1	generate	Run4	generate/STIM_018.jpg	100
3012.049	1.496	1495.6	generate	Run4	generate/STIM_018.jpg	99
3016.192	0.847	846.8	generate	Run4	generate/STIM_018.jpg	99
3021.04	0.949	949.1	generate	Run4	generate/STIM_018.jpg	100
3025.55	1.108	1107.5	generate	Run4	generate/STIM_019.jpg	100
3030.564	1.543	1542.8	generate	Run4	generate/STIM_019.jpg	100
3036.165	1.136	1135.6	generate	Run4	generate/STIM_019.jpg	100
3041.102	0.858	858.4	generate	Run4	generate/STIM_019.jpg	99
3044.206	0.898	897.5	generate	Run4	generate/STIM_019.jpg	99
3048.464	0.919	918.8	generate	Run4	generate/STIM_020.jpg	100
3053.168	0.901	900.7	generate	Run4	generate/STIM_020.jpg	100
3057.88	0.87	870.4	generate	Run4	generate/STIM_020.jpg	100
3062.217	1.53	1530.5	generate	Run4	generate/STIM_020.jpg	100
3066.619	0.891	891.1	generate	Run4	generate/STIM_020.jpg	99
3070.732	1.577	1576.6	generate	Run4	generate/STIM_021.jpg	99
3075.761	1.051	1051.0	generate	Run4	generate/STIM_021.jpg	100
3079.765	1.732	1731.5	generate	Run4	generate/STIM_021.jpg	100
3083.816	1.408	1407.9	generate	Run4	generate/STIM_021.jpg	100
3087.931	1.074	1074.1	generate	Run4	generate/STIM_021.jpg	99
3091.628	0.764	764.4	generate	Run4	generate/STIM_022.jpg	100
3096.368	0.756	755.7	generate	Run4	generate/STIM_022.jpg	100
3100.04	0.732	732.0	generate	Run4	generate/STIM_022.jpg	99
3104.834	1.228	1228.0	generate	Run4	generate/STIM_022.jpg	99
3108.589	1.082	1082.5	generate	Run4	generate/STIM_022.jpg	100
3113.17	1.443	1443.1	generate	Run4	generate/STIM_023.jpg	99
3118.503	1.087	1086.9	generate	Run4	generate/STIM_023.jpg	99
3121.914	1.511	1511.3	generate	Run4	generate/STIM_023.jpg	99
3126.232	1.847	1847.2	generate	Run4	generate/STIM_023.jpg	99
3130.762	1.508	1507.9	generate	Run4	generate/STIM_023.jpg	99
3135.114	1.236	1236.0	generate	Run4	generate/STIM_024.jpg	100
3140.041	1.212	1212.4	generate	Run4	generate/STIM_024.jpg	100
3145.358	1.702	1702.4	generate	Run4	generate/STIM_024.jpg	99
3150.233	1.378	1378.4	generate	Run4	generate/STIM_024.jpg	100
3154.625	1.511	1511.2	generate	Run4	generate/STIM_024.jpg	99
3158.876	0.768	767.5	repeat	Run4	repeat/STIM_000.jpg	100
3161.966	0.452	452.1	repeat	Run4	repeat/STIM_000.jpg	100
3166.454	0.584	583.8	repeat	Run4	repeat/STIM_000.jpg	99
3169.0	0.635	635.2	repeat	Run4	repeat/STIM_000.jpg	100
3173.638	0.522	522.4	repeat	Run4	repeat/STIM_000.jpg	99
3178.339	0.57	570.4	repeat	Run4	repeat/STIM_001.jpg	100
3181.417	0.802	801.7	repeat	Run4	repeat/STIM_001.jpg	100
3184.675	0.839	839.1	repeat	Run4	repeat/STIM_001.jpg	99
3188.611	0.507	506.6	repeat	Run4	repeat/STIM_001.jpg	99
3191.347	0.748	747.9	repeat	Run4	repeat/STIM_001.jpg	99
3195.251	0.521	521.2	repeat	Run4	repeat/STIM_002.jpg	99
3199.141	0.69	689.7	repeat	Run4	repeat/STIM_002.jpg	100
3203.912	0.454	454.3	repeat	Run4	repeat/STIM_002.jpg	100
3208.364	0.599	599.4	repeat	Run4	repeat/STIM_002.jpg	100
3211.636	0.564	564.1	repeat	Run4	repeat/STIM_002.jpg	99
3215.213	0.663	663.1	repeat	Run4	repeat/STIM_003.jpg	100
3218.955	0.711	710.6	repeat	Run4	repeat/STIM_003.jpg	99
3222.448	0.569	569.4	repeat	Run4	repeat/STIM_003.jpg	99
3226.324	0.657	657.4	repeat	Run4	repeat/STIM_003.jpg	100
3231.054	0.495	495.3	repeat	Run4	repeat/STIM_003.jpg	100
3235.382	0.725	725.2	repeat	Run4	repeat/STIM_004.jpg	100
3238.327	0.5	499.7	repeat	Run4	repeat/STIM_004.jpg	99
3241.705	0.536	536.5	repeat	Run4	repeat/STIM_004.jpg	99
3244.728	0.777	777.0	repeat	Run4	repeat/STIM_004.jpg	99
3248.371	0.622	621.8	repeat	Run4	repeat/STIM_004.jpg	99
3253.0	0.698	697.9	repeat	Run4	repeat/STIM_005.jpg	100
3257.185	0.898	897.6	repeat	Run4	repeat/STIM_005.jpg	100
3260.227	0.744	743.5	repeat	Run4	repeat/STIM_005.jpg	99
3263.436	0.684	683.9	repeat	Run4	repeat/STIM_005.jpg	99
3266.193	0.54	539.8	repeat	Run4	repeat/STIM_005.jpg	99
3269.019	0.606	605.7	repeat	Run4	repeat/STIM_006.jpg	99
3271.941	0.484	484.1	repeat	Run4	repeat/STIM_006.jpg	99
3275.235	0.804	803.9	repeat	Run4	repeat/STIM_006.jpg	99
3279.989	0.613	612.8	repeat	Run4	repeat/STIM_006.jpg	100
3284.624	0.54	540.1	repeat	Run4	repeat/STIM_006.jpg	99
3287.714	0.781	781.3	repeat	Run4	repeat/STIM_007.jpg	100
3292.46	0.518	518.3	repeat	Run4	repeat/STIM_007.jpg	99
3295.528	0.555	555.2	repeat	Run4	repeat/STIM_007.jpg	99
3299.464	0.586	586.4	repeat	Run4	repeat/STIM_007.jpg	99
3302.546	0.851	850.7	repeat	Run4	repeat/STIM_007.jpg	99
3306.862	0.73	729.9	repeat	Run4	repeat/STIM_008.jpg	100
3309.937	0.727	727.0	repeat	Run4	repeat/STIM_008.jpg	99
3313.076	0.756	755.8	repeat	Run4	repeat/STIM_008.jpg	99
3316.691	0.545	545.4	repeat	Run4	repeat/STIM_008.jpg	100
3320.596	0.609	609.1	repeat	Run4	repeat/STIM_008.jpg	99
3323.899	0.557	557.2	repeat	Run4	repeat/STIM_009.jpg	100
3327.197	0.428	428.1	repeat	Run4	repeat/STIM_009.jpg	100
3331.134	0.659	658.9	repeat	Run4	repeat/STIM_009.jpg	99
3334.003	0.674	673.7	repeat	Run4	repeat/STIM_009.jpg	100
3337.547	0.826	826.5	repeat	Run4	repeat/STIM_009.jpg	100
3342.181	0.522	521.6	repeat	Run4	repeat/STIM_010.jpg	100
3346.595	0.65	649.8	repeat	Run4	repeat/STIM_010.jpg	100
3350.875	0.746	745.7	repeat	Run4	repeat/STIM_010.jpg	99
3355.692	0.683	683.0	repeat	Run4	repeat/STIM_010.jpg	100
3358.656	0.759	758.9	repeat	Run4	repeat/STIM_010.jpg	100
3362.856	0.473	472.7	repeat	Run4	repeat/STIM_011.jpg	100
3366.357	0.487	486.7	repeat	Run4	repeat/STIM_011.jpg	100
3369.655	0.8	799.7	repeat	Run4	repeat/STIM_011.jpg	99
3372.978	0.554	553.8	repeat	Run4	repeat/STIM_011.jpg	100
3377.326	0.825	824.8	repeat	Run4	repeat/STIM_011.jpg	100
3381.011	0.715	714.8	repeat	Run4	repeat/STIM_012.jpg	100
3384.703	0.628	628.0	repeat	Run4	repeat/STIM_012.jpg	99
3389.21	0.622	622.4	repeat	Run4	repeat/STIM_012.jpg	99
3393.68	0.51	509.7	repeat	Run4	repeat/STIM_012.jpg	100
3397.17	0.855	854.6	repeat	Run4	repeat/STIM_012.jpg	99
3401.982	0.608	608.5	repeat	Run4	repeat/STIM_013.jpg	99
3405.568	0.682	682.0	repeat	Run4	repeat/STIM_013.jpg	99
3409.997	0.44	439.5	repeat	Run4	repeat/STIM_013.jpg	99
3413.974	0.662	661.9	repeat	Run4	repeat/STIM_013.jpg	99
3417.956	0.38	380.0	repeat	Run4	repeat/STIM_013.jpg	100
3421.479	0.828	828.1	repeat	Run4	repeat/STIM_014.jpg	99
3424.752	0.636	636.1	repeat	Run4	repeat/STIM_014.jpg	100
3429.13	0.459	459.0	repeat	Run4	repeat/STIM_014.jpg	99
3432.986	0.647	647.3	repeat	Run4	repeat/STIM_014.jpg	100
3436.793	0.57	569.6	repeat	Run4	repeat/STIM_014.jpg	100
