onset	duration	accuracy_binary	trial_type	learning_stage	stimulus
0.0	0.877	1	incongruent	Block1	incongruent/STIM_000.jpg
3.818	0.628	1	incongruent	Block1	incongruent/STIM_000.jpg
7.363	0.545	1	incongruent	Block1	incongruent/STIM_000.jpg
11.246	0.964	0	incongruent	Block1	incongruent/STIM_000.jpg
14.843	0.558	0	incongruent	Block1	incongruent/STIM_000.jpg
19.255	0.605	0	incongruent	Block1	incongruent/STIM_001.jpg
23.592	0.813	1	incongruent	Block1	incongruent/STIM_001.jpg
27.66	0.539	1	incongruent	Block1	incongruent/STIM_001.jpg
30.357	0.989	1	incongruent	Block1	incongruent/STIM_001.jpg
33.457	0.756	1	incongruent	Block1	incongruent/STIM_001.jpg
37.828	0.746	0	incongruent	Block1	incongruent/STIM_002.jpg
42.321	0.854	1	incongruent	Block1	incongruent/STIM_002.jpg
46.611	0.726	1	incongruent	Block1	incongruent/STIM_002.jpg
49.534	0.595	1	incongruent	Block1	incongruent/STIM_002.jpg
53.998	0.566	1	incongruent	Block1	incongruent/STIM_002.jpg
57.436	0.933	1	incongruent	Block1	incongruent/STIM_003.jpg
60.476	0.752	1	incongruent	Block1	incongruent/STIM_003.jpg
63.321	0.655	1	incongruent	Block1	incongruent/STIM_003.jpg
67.971	0.991	1	incongruent	Block1	incongruent/STIM_003.jpg
71.224	0.79	1	incongruent	Block1	incongruent/STIM_003.jpg
75.853	1.122	1	incongruent	Block1	incongruent/STIM_004.jpg
80.065	0.945	1	incongruent	Block1	incongruent/STIM_004.jpg
83.012	0.563	0	incongruent	Block1	incongruent/STIM_004.jpg
87.486	0.991	1	incongruent	Block1	incongruent/STIM_004.jpg
90.594	0.739	1	incongruent	Block1	incongruent/STIM_004.jpg
93.846	0.548	1	incongruent	Block1	incongruent/STIM_005.jpg
96.784	0.552	1	incongruent	Block1	incongruent/STIM_005.jpg
100.208	1.035	1	incongruent	Block1	incongruent/STIM_005.jpg
103.974	0.829	0	incongruent	Block1	incongruent/STIM_005.jpg
107.571	0.62	1	incongruent	Block1	incongruent/STIM_005.jpg
111.357	0.658	1	incongruent	Block1	incongruent/STIM_006.jpg
115.348	0.636	1	incongruent	Block1	incongruent/STIM_006.jpg
119.185	0.68	0	incongruent	Block1	incongruent/STIM_006.jpg
123.492	0.848	1	incongruent	Block1	incongruent/STIM_006.jpg
128.328	0.857	1	incongruent	Block1	incongruent/STIM_006.jpg
132.895	1.102	1	incongruent	Block1	incongruent/STIM_007.jpg
136.943	0.902	1	incongruent	Block1	incongruent/STIM_007.jpg
140.395	0.773	1	incongruent	Block1	incongruent/STIM_007.jpg
144.596	0.477	1	incongruent	Block1	incongruent/STIM_007.jpg
147.878	0.919	1	incongruent	Block1	incongruent/STIM_007.jpg
151.205	1.155	0	incongruent	Block1	incongruent/STIM_008.jpg
155.346	0.831	1	incongruent	Block1	incongruent/STIM_008.jpg
159.56	0.82	1	incongruent	Block1	incongruent/STIM_008.jpg
163.06	0.605	1	incongruent	Block1	incongruent/STIM_008.jpg
166.681	0.445	1	incongruent	Block1	incongruent/STIM_008.jpg
170.046	0.869	1	incongruent	Block1	incongruent/STIM_009.jpg
173.291	0.869	0	incongruent	Block1	incongruent/STIM_009.jpg
177.698	0.926	0	incongruent	Block1	incongruent/STIM_009.jpg
181.796	0.803	1	incongruent	Block1	incongruent/STIM_009.jpg
185.313	0.476	1	incongruent	Block1	incongruent/STIM_009.jpg
189.276	0.589	1	incongruent	Block1	incongruent/STIM_010.jpg
192.92	0.831	1	incongruent	Block1	incongruent/STIM_010.jpg
197.007	0.704	1	incongruent	Block1	incongruent/STIM_010.jpg
200.779	0.569	1	incongruent	Block1	incongruent/STIM_010.jpg
203.406	0.665	1	incongruent	Block1	incongruent/STIM_010.jpg
206.144	0.856	0	incongruent	Block1	incongruent/STIM_011.jpg
209.017	0.701	1	incongruent	Block1	incongruent/STIM_011.jpg
212.546	0.561	0	incongruent	Block1	incongruent/STIM_011.jpg
216.98	0.624	0	incongruent	Block1	incongruent/STIM_011.jpg
219.692	0.889	1	incongruent	Block1	incongruent/STIM_011.jpg
222.912	0.835	1	incongruent	Block1	incongruent/STIM_012.jpg
225.788	0.61	1	incongruent	Block1	incongruent/STIM_012.jpg
229.523	0.797	1	incongruent	Block1	incongruent/STIM_012.jpg
232.486	0.471	1	incongruent	Block1	incongruent/STIM_012.jpg
236.083	0.579	0	incongruent	Block1	incongruent/STIM_012.jpg
238.683	0.718	1	incongruent	Block1	incongruent/STIM_013.jpg
242.84	0.824	1	incongruent	Block1	incongruent/STIM_013.jpg
246.732	0.728	1	incongruent	Block1	incongruent/STIM_013.jpg
250.413	0.918	1	incongruent	Block1	incongruent/STIM_013.jpg
254.492	0.773	1	incongruent	Block1	incongruent/STIM_013.jpg
259.0	0.863	1	incongruent	Block1	incongruent/STIM_014.jpg
262.594	0.652	1	incongruent	Block1	incongruent/STIM_014.jpg
267.139	0.738	1	incongruent	Block1	incongruent/STIM_014.jpg
269.887	0.928	1	incongruent	Block1	incongruent/STIM_014.jpg
273.07	0.76	1	incongruent	Block1	incongruent/STIM_014.jpg
276.877	1.145	1	incongruent	Block1	incongruent/STIM_015.jpg
281.04	1.063	1	incongruent	Block1	incongruent/STIM_015.jpg
285.289	0.614	1	incongruent	Block1	incongruent/STIM_015.jpg
289.284	0.5	1	incongruent	Block1	incongruent/STIM_015.jpg
292.827	0.85	1	incongruent	Block1	incongruent/STIM_015.jpg
297.43	0.843	0	incongruent	Block1	incongruent/STIM_016.jpg
301.706	0.555	0	incongruent	Block1	incongruent/STIM_016.jpg
306.148	0.703	1	incongruent	Block1	incongruent/STIM_016.jpg
310.111	0.673	1	incongruent	Block1	incongruent/STIM_016.jpg
313.689	0.783	1	incongruent	Block1	incongruent/STIM_016.jpg
317.427	0.815	1	incongruent	Block1	incongruent/STIM_017.jpg
320.371	1.015	1	incongruent	Block1	incongruent/STIM_017.jpg
323.761	0.83	1	incongruent	Block1	incongruent/STIM_017.jpg
326.812	0.966	0	incongruent	Block1	incongruent/STIM_017.jpg
331.4	0.458	1	incongruent	Block1	incongruent/STIM_017.jpg
334.255	0.636	0	incongruent	Block1	incongruent/STIM_018.jpg
337.298	0.61	1	incongruent	Block1	incongruent/STIM_018.jpg
340.214	1.037	1	incongruent	Block1	incongruent/STIM_018.jpg
343.265	0.497	1	incongruent	Block1	incongruent/STIM_018.jpg
347.704	0.44	1	incongruent	Block1	incongruent/STIM_018.jpg
351.963	0.826	1	incongruent	Block1	incongruent/STIM_019.jpg
355.324	0.92	1	incongruent	Block1	incongruent/STIM_019.jpg
358.78	0.606	0	incongruent	Block1	incongruent/STIM_019.jpg
362.485	0.719	0	incongruent	Block1	incongruent/STIM_019.jpg
366.028	0.9	1	incongruent	Block1	incongruent/STIM_019.jpg
370.337	1.049	1	incongruent	Block1	incongruent/STIM_020.jpg
374.878	0.848	1	incongruent	Block1	incongruent/STIM_020.jpg
378.464	0.681	1	incongruent	Block1	incongruent/STIM_020.jpg
381.707	0.848	0	incongruent	Block1	incongruent/STIM_020.jpg
385.209	0.739	1	incongruent	Block1	incongruent/STIM_020.jpg
388.272	0.778	0	incongruent	Block1	incongruent/STIM_021.jpg
392.554	0.91	1	incongruent	Block1	incongruent/STIM_021.jpg
396.109	0.631	1	incongruent	Block1	incongruent/STIM_021.jpg
399.494	0.916	0	incongruent	Block1	incongruent/STIM_021.jpg
404.119	0.654	1	incongruent	Block1	incongruent/STIM_021.jpg
407.994	1.105	1	incongruent	Block1	incongruent/STIM_022.jpg
412.258	0.963	0	incongruent	Block1	incongruent/STIM_022.jpg
417.003	0.626	1	incongruent	Block1	incongruent/STIM_022.jpg
421.205	0.849	1	incongruent	Block1	incongruent/STIM_022.jpg
424.727	0.511	1	incongruent	Block1	incongruent/STIM_022.jpg
428.951	0.974	0	incongruent	Block1	incongruent/STIM_023.jpg
432.834	0.773	1	incongruent	Block1	incongruent/STIM_023.jpg
436.556	0.639	0	incongruent	Block1	incongruent/STIM_023.jpg
439.373	0.621	0	incongruent	Block1	incongruent/STIM_023.jpg
442.259	0.874	1	incongruent	Block1	incongruent/STIM_023.jpg
446.819	0.721	0	incongruent	Block1	incongruent/STIM_024.jpg
451.427	0.692	1	incongruent	Block1	incongruent/STIM_024.jpg
455.456	0.877	1	incongruent	Block1	incongruent/STIM_024.jpg
459.034	0.698	1	incongruent	Block1	incongruent/STIM_024.jpg
461.992	0.758	1	incongruent	Block1	incongruent/STIM_024.jpg
466.744	0.552	1	incongruent	Block1	incongruent/STIM_025.jpg
471.19	0.553	0	incongruent	Block1	incongruent/STIM_025.jpg
475.138	0.77	1	incongruent	Block1	incongruent/STIM_025.jpg
479.207	0.852	1	incongruent	Block1	incongruent/STIM_025.jpg
482.586	0.87	1	incongruent	Block1	incongruent/STIM_025.jpg
487.286	0.694	1	incongruent	Block1	incongruent/STIM_026.jpg
491.015	0.784	1	incongruent	Block1	incongruent/STIM_026.jpg
493.949	0.724	1	incongruent	Block1	incongruent/STIM_026.jpg
496.887	0.702	1	incongruent	Block1	incongruent/STIM_026.jpg
499.778	0.847	1	incongruent	Block1	incongruent/STIM_026.jpg
504.02	0.724	0	incongruent	Block1	incongruent/STIM_027.jpg
508.345	1.097	1	incongruent	Block1	incongruent/STIM_027.jpg
512.733	1.041	1	incongruent	Block1	incongruent/STIM_027.jpg
516.266	0.478	1	incongruent	Block1	incongruent/STIM_027.jpg
520.282	0.66	1	incongruent	Block1	incongruent/STIM_027.jpg
523.064	1.028	1	incongruent	Block1	incongruent/STIM_028.jpg
526.615	0.871	0	incongruent	Block1	incongruent/STIM_028.jpg
530.723	0.585	1	incongruent	Block1	incongruent/STIM_028.jpg
534.436	0.666	1	incongruent	Block1	incongruent/STIM_028.jpg
537.311	0.564	0	incongruent	Block1	incongruent/STIM_028.jpg
540.374	1.014	0	incongruent	Block1	incongruent/STIM_029.jpg
543.853	0.98	1	incongruent	Block1	incongruent/STIM_029.jpg
547.591	0.804	0	incongruent	Block1	incongruent/STIM_029.jpg
550.676	0.784	0	incongruent	Block1	incongruent/STIM_029.jpg
553.685	0.87	1	incongruent	Block1	incongruent/STIM_029.jpg
556.952	0.403	1	congruent	Block1	congruent/STIM_000.jpg
560.924	0.446	1	congruent	Block1	congruent/STIM_000.jpg
564.903	0.415	1	congruent	Block1	congruent/STIM_000.jpg
569.146	0.558	0	congruent	Block1	congruent/STIM_000.jpg
571.869	0.563	1	congruent	Block1	congruent/STIM_000.jpg
576.17	0.495	1	congruent	Block1	congruent/STIM_001.jpg
579.698	0.672	1	congruent	Block1	congruent/STIM_001.jpg
582.818	0.448	1	congruent	Block1	congruent/STIM_001.jpg
586.985	0.677	1	congruent	Block1	congruent/STIM_001.jpg
590.338	0.589	1	congruent	Block1	congruent/STIM_001.jpg
594.015	0.506	1	congruent	Block1	congruent/STIM_002.jpg
596.862	0.547	1	congruent	Block1	congruent/STIM_002.jpg
600.722	0.527	0	congruent	Block1	congruent/STIM_002.jpg
603.372	0.492	1	congruent	Block1	congruent/STIM_002.jpg
607.318	0.541	1	congruent	Block1	congruent/STIM_002.jpg
611.815	0.487	1	congruent	Block1	congruent/STIM_003.jpg
615.638	0.564	1	congruent	Block1	congruent/STIM_003.jpg
618.866	0.654	1	congruent	Block1	congruent/STIM_003.jpg
621.612	0.667	1	congruent	Block1	congruent/STIM_003.jpg
625.887	0.575	1	congruent	Block1	congruent/STIM_003.jpg
628.53	0.502	1	congruent	Block1	congruent/STIM_004.jpg
632.887	0.545	1	congruent	Block1	congruent/STIM_004.jpg
636.418	0.476	0	congruent	Block1	congruent/STIM_004.jpg
640.673	0.616	1	congruent	Block1	congruent/STIM_004.jpg
645.133	0.692	1	congruent	Block1	congruent/STIM_004.jpg
648.193	0.583	1	congruent	Block1	congruent/STIM_005.jpg
651.183	0.653	1	congruent	Block1	congruent/STIM_005.jpg
654.022	0.459	1	congruent	Block1	congruent/STIM_005.jpg
656.672	0.44	1	congruent	Block1	congruent/STIM_005.jpg
659.496	0.557	1	congruent	Block1	congruent/STIM_005.jpg
663.808	0.585	0	congruent	Block1	congruent/STIM_006.jpg
667.686	0.647	1	congruent	Block1	congruent/STIM_006.jpg
671.278	0.637	1	congruent	Block1	congruent/STIM_006.jpg
673.953	0.441	0	congruent	Block1	congruent/STIM_006.jpg
677.259	0.535	1	congruent	Block1	congruent/STIM_006.jpg
679.863	0.543	0	congruent	Block1	congruent/STIM_007.jpg
682.493	0.411	1	congruent	Block1	congruent/STIM_007.jpg
685.117	0.673	1	congruent	Block1	congruent/STIM_007.jpg
688.762	0.575	1	congruent	Block1	congruent/STIM_007.jpg
692.125	0.65	1	congruent	Block1	congruent/STIM_007.jpg
695.549	0.503	1	congruent	Block1	congruent/STIM_008.jpg
699.133	0.647	1	congruent	Block1	congruent/STIM_008.jpg
702.483	0.633	1	congruent	Block1	congruent/STIM_008.jpg
705.72	0.606	1	congruent	Block1	congruent/STIM_008.jpg
708.822	0.426	1	congruent	Block1	congruent/STIM_008.jpg
711.68	0.645	1	congruent	Block1	congruent/STIM_009.jpg
715.306	0.581	1	congruent	Block1	congruent/STIM_009.jpg
719.554	0.521	1	congruent	Block1	congruent/STIM_009.jpg
723.535	0.633	1	congruent	Block1	congruent/STIM_009.jpg
727.216	0.659	1	congruent	Block1	congruent/STIM_009.jpg
730.785	0.644	1	congruent	Block1	congruent/STIM_010.jpg
733.738	0.436	1	congruent	Block1	congruent/STIM_010.jpg
738.087	0.53	1	congruent	Block1	congruent/STIM_010.jpg
740.825	0.425	1	congruent	Block1	congruent/STIM_010.jpg
743.6	0.497	1	congruent	Block1	congruent/STIM_010.jpg
747.705	0.479	1	congruent	Block1	congruent/STIM_011.jpg
751.618	0.55	1	congruent	Block1	congruent/STIM_011.jpg
754.909	0.519	0	congruent	Block1	congruent/STIM_011.jpg
758.055	0.434	1	congruent	Block1	congruent/STIM_011.jpg
762.216	0.506	1	congruent	Block1	congruent/STIM_011.jpg
764.727	0.641	1	congruent	Block1	congruent/STIM_012.jpg
769.016	0.423	1	congruent	Block1	congruent/STIM_012.jpg
771.833	0.625	0	congruent	Block1	congruent/STIM_012.jpg
775.67	0.581	1	congruent	Block1	congruent/STIM_012.jpg
779.21	0.495	1	congruent	Block1	congruent/STIM_012.jpg
782.97	0.47	0	congruent	Block1	congruent/STIM_013.jpg
787.16	0.565	0	congruent	Block1	congruent/STIM_013.jpg
790.32	0.468	1	congruent	Block1	congruent/STIM_013.jpg
793.197	0.682	1	congruent	Block1	congruent/STIM_013.jpg
797.558	0.561	0	congruent	Block1	congruent/STIM_013.jpg
801.42	0.672	1	congruent	Block1	congruent/STIM_014.jpg
804.447	0.488	1	congruent	Block1	congruent/STIM_014.jpg
807.922	0.524	1	congruent	Block1	congruent/STIM_014.jpg
810.765	0.67	1	congruent	Block1	congruent/STIM_014.jpg
813.591	0.644	1	congruent	Block1	congruent/STIM_014.jpg
816.799	0.628	1	congruent	Block1	congruent/STIM_015.jpg
819.67	0.676	1	congruent	Block1	congruent/STIM_015.jpg
823.577	0.451	1	congruent	Block1	congruent/STIM_015.jpg
827.459	0.392	1	congruent	Block1	congruent/STIM_015.jpg
830.659	0.583	1	congruent	Block1	congruent/STIM_015.jpg
833.694	0.426	1	congruent	Block1	congruent/STIM_016.jpg
836.422	0.502	1	congruent	Block1	congruent/STIM_016.jpg
839.569	0.506	0	congruent	Block1	congruent/STIM_016.jpg
843.523	0.674	1	congruent	Block1	congruent/STIM_016.jpg
847.053	0.573	0	congruent	Block1	congruent/STIM_016.jpg
850.394	0.627	1	congruent	Block1	congruent/STIM_017.jpg
853.459	0.536	1	congruent	Block1	congruent/STIM_017.jpg
857.178	0.408	1	congruent	Block1	congruent/STIM_017.jpg
861.135	0.572	1	congruent	Block1	congruent/STIM_017.jpg
863.85	0.516	1	congruent	Block1	congruent/STIM_017.jpg
867.994	0.627	1	congruent	Block1	congruent/STIM_018.jpg
871.967	0.629	1	congruent	Block1	congruent/STIM_018.jpg
875.512	0.68	1	congruent	Block1	congruent/STIM_018.jpg
878.972	0.477	1	congruent	Block1	congruent/STIM_018.jpg
881.643	0.697	1	congruent	Block1	congruent/STIM_018.jpg
886.225	0.615	1	congruent	Block1	congruent/STIM_019.jpg
889.047	0.642	1	congruent	Block1	congruent/STIM_019.jpg
893.184	0.493	1	congruent	Block1	congruent/STIM_019.jpg
897.055	0.577	1	congruent	Block1	congruent/STIM_019.jpg
901.348	0.678	1	congruent	Block1	congruent/STIM_019.jpg
905.91	0.528	1	congruent	Block1	congruent/STIM_020.jpg
908.654	0.514	1	congruent	Block1	congruent/STIM_020.jpg
912.857	0.61	0	congruent	Block1	congruent/STIM_020.jpg
915.525	0.412	1	congruent	Block1	congruent/STIM_020.jpg
918.695	0.415	1	congruent	Block1	congruent/STIM_020.jpg
922.934	0.463	1	congruent	Block1	congruent/STIM_021.jpg
926.547	0.687	1	congruent	Block1	congruent/STIM_021.jpg
930.703	0.639	1	congruent	Block1	congruent/STIM_021.jpg
933.802	0.447	1	congruent	Block1	congruent/STIM_021.jpg
937.917	0.665	1	congruent	Block1	congruent/STIM_021.jpg
940.909	0.686	1	congruent	Block1	congruent/STIM_022.jpg
944.272	0.555	1	congruent	Block1	congruent/STIM_022.jpg
947.051	0.466	1	congruent	Block1	congruent/STIM_022.jpg
949.907	0.401	0	congruent	Block1	congruent/STIM_022.jpg
953.63	0.5	1	congruent	Block1	congruent/STIM_022.jpg
957.698	0.394	1	congruent	Block1	congruent/STIM_023.jpg
961.957	0.636	1	congruent	Block1	congruent/STIM_023.jpg
966.232	0.54	1	congruent	Block1	congruent/STIM_023.jpg
969.008	0.632	0	congruent	Block1	congruent/STIM_023.jpg
972.174	0.66	1	congruent	Block1	congruent/STIM_023.jpg
975.003	0.455	1	congruent	Block1	congruent/STIM_024.jpg
979.018	0.515	1	congruent	Block1	congruent/STIM_024.jpg
982.78	0.546	1	congruent	Block1	congruent/STIM_024.jpg
985.439	0.455	1	congruent	Block1	congruent/STIM_024.jpg
989.762	0.467	0	congruent	Block1	congruent/STIM_024.jpg
992.784	0.582	1	congruent	Block1	congruent/STIM_025.jpg
996.513	0.592	1	congruent	Block1	congruent/STIM_025.jpg
999.502	0.537	1	congruent	Block1	congruent/STIM_025.jpg
1003.445	0.549	1	congruent	Block1	congruent/STIM_025.jpg
1006.496	0.457	1	congruent	Block1	congruent/STIM_025.jpg
1010.114	0.417	1	congruent	Block1	congruent/STIM_026.jpg
1014.187	0.637	0	congruent	Block1	congruent/STIM_026.jpg
1017.932	0.625	1	congruent	Block1	congruent/STIM_026.jpg
1022.276	0.675	1	congruent	Block1	congruent/STIM_026.jpg
1025.484	0.495	1	congruent	Block1	congruent/STIM_026.jpg
1028.862	0.628	0	congruent	Block1	congruent/STIM_027.jpg
1032.416	0.616	1	congruent	Block1	congruent/STIM_027.jpg
1036.424	0.456	0	congruent	Block1	congruent/STIM_027.jpg
1039.942	0.652	1	congruent	Block1	congruent/STIM_027.jpg
1044.483	0.552	0	congruent	Block1	congruent/STIM_027.jpg
1048.171	0.694	1	congruent	Block1	congruent/STIM_028.jpg
1051.549	0.695	1	congruent	Block1	congruent/STIM_028.jpg
1054.909	0.537	1	congruent	Block1	congruent/STIM_028.jpg
1058.147	0.546	0	congruent	Block1	congruent/STIM_028.jpg
1061.278	0.567	0	congruent	Block1	congruent/STIM_028.jpg
1065.111	0.44	1	congruent	Block1	congruent/STIM_029.jpg
1069.107	0.7	1	congruent	Block1	congruent/STIM_029.jpg
1072.952	0.683	1	congruent	Block1	congruent/STIM_029.jpg
1076.217	0.498	1	congruent	Block1	congruent/STIM_029.jpg
1079.265	0.636	1	congruent	Block1	congruent/STIM_029.jpg
1082.462	0.843	1	incongruent	Block2	incongruent/STIM_000.jpg
1086.841	0.618	1	incongruent	Block2	incongruent/STIM_000.jpg
1091.42	0.835	1	incongruent	Block2	incongruent/STIM_000.jpg
1096.221	0.729	1	incongruent	Block2	incongruent/STIM_000.jpg
1099.269	0.471	1	incongruent	Block2	incongruent/STIM_000.jpg
1101.843	0.849	1	incongruent	Block2	incongruent/STIM_001.jpg
1106.14	0.554	1	incongruent	Block2	incongruent/STIM_001.jpg
1108.722	0.459	1	incongruent	Block2	incongruent/STIM_001.jpg
1111.566	0.705	1	incongruent	Block2	incongruent/STIM_001.jpg
1115.465	0.812	1	incongruent	Block2	incongruent/STIM_001.jpg
1118.995	0.511	1	incongruent	Block2	incongruent/STIM_002.jpg
1122.353	0.882	1	incongruent	Block2	incongruent/STIM_002.jpg
1125.901	0.584	1	incongruent	Block2	incongruent/STIM_002.jpg
1128.507	0.464	1	incongruent	Block2	incongruent/STIM_002.jpg
1132.735	0.792	0	incongruent	Block2	incongruent/STIM_002.jpg
1137.037	0.659	1	incongruent	Block2	incongruent/STIM_003.jpg
1140.14	0.71	1	incongruent	Block2	incongruent/STIM_003.jpg
1144.706	0.505	1	incongruent	Block2	incongruent/STIM_003.jpg
1148.261	0.554	1	incongruent	Block2	incongruent/STIM_003.jpg
1151.161	0.741	1	incongruent	Block2	incongruent/STIM_003.jpg
1155.434	0.984	1	incongruent	Block2	incongruent/STIM_004.jpg
1159.547	0.821	1	incongruent	Block2	incongruent/STIM_004.jpg
1162.37	0.746	1	incongruent	Block2	incongruent/STIM_004.jpg
1165.874	0.54	1	incongruent	Block2	incongruent/STIM_004.jpg
1169.163	0.535	1	incongruent	Block2	incongruent/STIM_004.jpg
1173.451	0.534	1	incongruent	Block2	incongruent/STIM_005.jpg
1177.353	0.748	1	incongruent	Block2	incongruent/STIM_005.jpg
1180.857	0.614	1	incongruent	Block2	incongruent/STIM_005.jpg
1184.526	0.435	1	incongruent	Block2	incongruent/STIM_005.jpg
1188.596	0.518	1	incongruent	Block2	incongruent/STIM_005.jpg
1191.987	0.875	0	incongruent	Block2	incongruent/STIM_006.jpg
1196.279	0.796	1	incongruent	Block2	incongruent/STIM_006.jpg
1200.445	0.714	1	incongruent	Block2	incongruent/STIM_006.jpg
1203.945	0.802	1	incongruent	Block2	incongruent/STIM_006.jpg
1207.807	0.682	1	incongruent	Block2	incongruent/STIM_006.jpg
1210.9	0.569	1	incongruent	Block2	incongruent/STIM_007.jpg
1214.505	0.69	1	incongruent	Block2	incongruent/STIM_007.jpg
1217.217	0.68	1	incongruent	Block2	incongruent/STIM_007.jpg
1220.301	0.76	1	incongruent	Block2	incongruent/STIM_007.jpg
1223.545	0.619	1	incongruent	Block2	incongruent/STIM_007.jpg
1227.571	0.781	1	incongruent	Block2	incongruent/STIM_008.jpg
1232.108	0.473	1	incongruent	Block2	incongruent/STIM_008.jpg
1235.834	0.533	1	incongruent	Block2	incongruent/STIM_008.jpg
1239.959	0.415	1	incongruent	Block2	incongruent/STIM_008.jpg
1243.033	0.815	1	incongruent	Block2	incongruent/STIM_008.jpg
1247.193	0.574	1	incongruent	Block2	incongruent/STIM_009.jpg
1250.58	0.481	1	incongruent	Block2	incongruent/STIM_009.jpg
1254.153	0.523	1	incongruent	Block2	incongruent/STIM_009.jpg
1256.685	0.659	0	incongruent	Block2	incongruent/STIM_009.jpg
1259.478	0.419	1	incongruent	Block2	incongruent/STIM_009.jpg
1263.512	0.958	1	incongruent	Block2	incongruent/STIM_010.jpg
1266.723	0.573	1	incongruent	Block2	incongruent/STIM_010.jpg
1269.984	0.642	1	incongruent	Block2	incongruent/STIM_010.jpg
1274.058	0.812	0	incongruent	Block2	incongruent/STIM_010.jpg
1278.805	0.638	1	incongruent	Block2	incongruent/STIM_010.jpg
1281.464	0.768	1	incongruent	Block2	incongruent/STIM_011.jpg
1284.242	0.654	1	incongruent	Block2	incongruent/STIM_011.jpg
1288.078	0.79	1	incongruent	Block2	incongruent/STIM_011.jpg
1291.169	0.45	1	incongruent	Block2	incongruent/STIM_011.jpg
1294.641	0.461	1	incongruent	Block2	incongruent/STIM_011.jpg
1298.826	0.475	1	incongruent	Block2	incongruent/STIM_012.jpg
1301.767	0.437	1	incongruent	Block2	incongruent/STIM_012.jpg
1305.498	0.502	1	incongruent	Block2	incongruent/STIM_012.jpg
1308.973	0.633	1	incongruent	Block2	incongruent/STIM_012.jpg
1312.978	0.68	1	incongruent	Block2	incongruent/STIM_012.jpg
1316.128	0.983	1	incongruent	Block2	incongruent/STIM_013.jpg
1320.551	0.87	1	incongruent	Block2	incongruent/STIM_013.jpg
1324.369	0.548	1	incongruent	Block2	incongruent/STIM_013.jpg
1328.854	0.534	1	incongruent	Block2	incongruent/STIM_013.jpg
1333.258	0.789	1	incongruent	Block2	incongruent/STIM_013.jpg
1336.156	0.806	1	incongruent	Block2	incongruent/STIM_014.jpg
1340.71	0.925	1	incongruent	Block2	incongruent/STIM_014.jpg
1343.922	0.496	1	incongruent	Block2	incongruent/STIM_014.jpg
1346.744	0.805	1	incongruent	Block2	incongruent/STIM_014.jpg
1350.049	0.578	1	incongruent	Block2	incongruent/STIM_014.jpg
1354.468	0.558	1	incongruent	Block2	incongruent/STIM_015.jpg
1357.532	0.826	1	incongruent	Block2	incongruent/STIM_015.jpg
1360.608	0.533	1	incongruent	Block2	incongruent/STIM_015.jpg
1364.706	0.743	1	incongruent	Block2	incongruent/STIM_015.jpg
1368.771	0.734	1	incongruent	Block2	incongruent/STIM_015.jpg
1372.612	0.467	1	incongruent	Block2	incongruent/STIM_016.jpg
1376.829	0.889	1	incongruent	Block2	incongruent/STIM_016.jpg
1380.493	0.545	1	incongruent	Block2	incongruent/STIM_016.jpg
1384.031	0.53	1	incongruent	Block2	incongruent/STIM_016.jpg
1386.579	0.45	1	incongruent	Block2	incongruent/STIM_016.jpg
1389.54	0.863	0	incongruent	Block2	incongruent/STIM_017.jpg
1392.638	0.448	1	incongruent	Block2	incongruent/STIM_017.jpg
1396.897	0.724	1	incongruent	Block2	incongruent/STIM_017.jpg
1401.067	0.69	0	incongruent	Block2	incongruent/STIM_017.jpg
1404.219	0.44	1	incongruent	Block2	incongruent/STIM_017.jpg
1408.467	0.485	1	incongruent	Block2	incongruent/STIM_018.jpg
1411.016	0.538	1	incongruent	Block2	incongruent/STIM_018.jpg
1413.558	0.792	1	incongruent	Block2	incongruent/STIM_018.jpg
1417.698	0.699	1	incongruent	Block2	incongruent/STIM_018.jpg
1420.564	0.582	1	incongruent	Block2	incongruent/STIM_018.jpg
1424.383	0.81	1	incongruent	Block2	incongruent/STIM_019.jpg
1428.924	0.555	1	incongruent	Block2	incongruent/STIM_019.jpg
1432.074	0.863	1	incongruent	Block2	incongruent/STIM_019.jpg
1436.029	0.813	1	incongruent	Block2	incongruent/STIM_019.jpg
1440.179	0.403	1	incongruent	Block2	incongruent/STIM_019.jpg
1443.957	0.873	0	incongruent	Block2	incongruent/STIM_020.jpg
1447.266	0.446	1	incongruent	Block2	incongruent/STIM_020.jpg
1450.925	0.593	1	incongruent	Block2	incongruent/STIM_020.jpg
1453.518	0.405	1	incongruent	Block2	incongruent/STIM_020.jpg
1457.123	0.445	1	incongruent	Block2	incongruent/STIM_020.jpg
1460.625	0.986	1	incongruent	Block2	incongruent/STIM_021.jpg
1464.72	0.485	0	incongruent	Block2	incongruent/STIM_021.jpg
1468.807	0.844	1	incongruent	Block2	incongruent/STIM_021.jpg
1473.388	0.619	1	incongruent	Block2	incongruent/STIM_021.jpg
1476.255	0.567	1	incongruent	Block2	incongruent/STIM_021.jpg
1479.15	0.487	1	incongruent	Block2	incongruent/STIM_022.jpg
1482.228	0.851	1	incongruent	Block2	incongruent/STIM_022.jpg
1486.594	0.743	1	incongruent	Block2	incongruent/STIM_022.jpg
1490.766	0.615	1	incongruent	Block2	incongruent/STIM_022.jpg
1495.35	0.523	1	incongruent	Block2	incongruent/STIM_022.jpg
1499.72	0.992	1	incongruent	Block2	incongruent/STIM_023.jpg
1503.932	0.869	1	incongruent	Block2	incongruent/STIM_023.jpg
1508.352	0.508	1	incongruent	Block2	incongruent/STIM_023.jpg
1511.108	0.715	1	incongruent	Block2	incongruent/STIM_023.jpg
1515.715	0.752	1	incongruent	Block2	incongruent/STIM_023.jpg
1519.344	0.926	1	incongruent	Block2	incongruent/STIM_024.jpg
1522.744	0.656	1	incongruent	Block2	incongruent/STIM_024.jpg
1525.744	0.579	1	incongruent	Block2	incongruent/STIM_024.jpg
1530.022	0.723	1	incongruent	Block2	incongruent/STIM_024.jpg
1533.263	0.494	1	incongruent	Block2	incongruent/STIM_024.jpg
1536.058	0.502	1	incongruent	Block2	incongruent/STIM_025.jpg
1538.849	0.865	1	incongruent	Block2	incongruent/STIM_025.jpg
1542.423	0.616	1	incongruent	Block2	incongruent/STIM_025.jpg
1546.713	0.732	1	incongruent	Block2	incongruent/STIM_025.jpg
1549.741	0.664	1	incongruent	Block2	incongruent/STIM_025.jpg
1552.784	0.762	1	incongruent	Block2	incongruent/STIM_026.jpg
1556.646	0.688	1	incongruent	Block2	incongruent/STIM_026.jpg
1560.185	0.662	1	incongruent	Block2	incongruent/STIM_026.jpg
1564.27	0.754	1	incongruent	Block2	incongruent/STIM_026.jpg
1567.409	0.534	1	incongruent	Block2	incongruent/STIM_026.jpg
1570.469	0.915	1	incongruent	Block2	incongruent/STIM_027.jpg
1574.908	0.679	1	incongruent	Block2	incongruent/STIM_027.jpg
1578.61	0.564	1	incongruent	Block2	incongruent/STIM_027.jpg
1582.154	0.601	1	incongruent	Block2	incongruent/STIM_027.jpg
1585.299	0.682	1	incongruent	Block2	incongruent/STIM_027.jpg
1589.697	0.63	0	incongruent	Block2	incongruent/STIM_028.jpg
1593.944	0.89	1	incongruent	Block2	incongruent/STIM_028.jpg
1598.738	0.525	1	incongruent	Block2	incongruent/STIM_028.jpg
1601.281	0.747	1	incongruent	Block2	incongruent/STIM_028.jpg
1605.478	0.61	1	incongruent	Block2	incongruent/STIM_028.jpg
1609.216	0.714	1	incongruent	Block2	incongruent/STIM_029.jpg
1613.828	0.773	1	incongruent	Block2	incongruent/STIM_029.jpg
1616.79	0.517	1	incongruent	Block2	incongruent/STIM_029.jpg
1620.339	0.755	1	incongruent	Block2	incongruent/STIM_029.jpg
1623.598	0.781	1	incongruent	Block2	incongruent/STIM_029.jpg
1627.674	0.662	1	congruent	Block2	congruent/STIM_000.jpg
1631.84	0.573	1	congruent	Block2	congruent/STIM_000.jpg
1634.977	0.596	1	congruent	Block2	congruent/STIM_000.jpg
1637.667	0.458	1	congruent	Block2	congruent/STIM_000.jpg
1640.271	0.605	1	congruent	Block2	congruent/STIM_000.jpg
1644.871	0.465	1	congruent	Block2	congruent/STIM_001.jpg
1649.215	0.472	1	congruent	Block2	congruent/STIM_001.jpg
1652.289	0.69	1	congruent	Block2	congruent/STIM_001.jpg
1656.877	0.471	1	congruent	Block2	congruent/STIM_001.jpg
1660.924	0.482	1	congruent	Block2	congruent/STIM_001.jpg
1665.154	0.425	1	congruent	Block2	congruent/STIM_002.jpg
1668.109	0.44	1	congruent	Block2	congruent/STIM_002.jpg
1670.832	0.395	1	congruent	Block2	congruent/STIM_002.jpg
1673.471	0.584	1	congruent	Block2	congruent/STIM_002.jpg
1676.448	0.556	1	congruent	Block2	congruent/STIM_002.jpg
1679.552	0.516	1	congruent	Block2	congruent/STIM_003.jpg
1682.582	0.663	1	congruent	Block2	congruent/STIM_003.jpg
1685.739	0.444	0	congruent	Block2	congruent/STIM_003.jpg
1689.115	0.479	1	congruent	Block2	congruent/STIM_003.jpg
1691.601	0.436	0	congruent	Block2	congruent/STIM_003.jpg
1695.324	0.454	1	congruent	Block2	congruent/STIM_004.jpg
1698.969	0.43	1	congruent	Block2	congruent/STIM_004.jpg
1702.393	0.621	1	congruent	Block2	congruent/STIM_004.jpg
1705.792	0.641	1	congruent	Block2	congruent/STIM_004.jpg
1709.943	0.48	1	congruent	Block2	congruent/STIM_004.jpg
1712.503	0.603	0	congruent	Block2	congruent/STIM_005.jpg
1716.172	0.421	1	congruent	Block2	congruent/STIM_005.jpg
1719.29	0.443	0	congruent	Block2	congruent/STIM_005.jpg
1722.384	0.406	1	congruent	Block2	congruent/STIM_005.jpg
1726.188	0.69	1	congruent	Block2	congruent/STIM_005.jpg
1730.824	0.51	1	congruent	Block2	congruent/STIM_006.jpg
1734.88	0.422	1	congruent	Block2	congruent/STIM_006.jpg
1738.757	0.588	1	congruent	Block2	congruent/STIM_006.jpg
1743.166	0.692	0	congruent	Block2	congruent/STIM_006.jpg
1746.398	0.55	1	congruent	Block2	congruent/STIM_006.jpg
1749.94	0.47	1	congruent	Block2	congruent/STIM_007.jpg
1754.071	0.493	1	congruent	Block2	congruent/STIM_007.jpg
1757.146	0.523	1	congruent	Block2	congruent/STIM_007.jpg
1761.108	0.575	1	congruent	Block2	congruent/STIM_007.jpg
1765.03	0.543	1	congruent	Block2	congruent/STIM_007.jpg
1768.87	0.536	1	congruent	Block2	congruent/STIM_008.jpg
1772.168	0.439	1	congruent	Block2	congruent/STIM_008.jpg
1775.322	0.692	1	congruent	Block2	congruent/STIM_008.jpg
1779.984	0.516	1	congruent	Block2	congruent/STIM_008.jpg
1782.798	0.588	1	congruent	Block2	congruent/STIM_008.jpg
1785.539	0.511	1	congruent	Block2	congruent/STIM_009.jpg
1789.351	0.45	1	congruent	Block2	congruent/STIM_009.jpg
1792.238	0.653	1	congruent	Block2	congruent/STIM_009.jpg
1796.792	0.503	0	congruent	Block2	congruent/STIM_009.jpg
1799.9	0.641	1	congruent	Block2	congruent/STIM_009.jpg
1803.325	0.503	1	congruent	Block2	congruent/STIM_010.jpg
1807.438	0.66	1	congruent	Block2	congruent/STIM_010.jpg
1811.321	0.523	1	congruent	Block2	congruent/STIM_010.jpg
1814.917	0.696	1	congruent	Block2	congruent/STIM_010.jpg
1817.773	0.457	1	congruent	Block2	congruent/STIM_010.jpg
1821.066	0.57	1	congruent	Block2	congruent/STIM_011.jpg
1824.088	0.454	1	congruent	Block2	congruent/STIM_011.jpg
1828.185	0.598	1	congruent	Block2	congruent/STIM_011.jpg
1831.647	0.514	1	congruent	Block2	congruent/STIM_011.jpg
1835.823	0.658	1	congruent	Block2	congruent/STIM_011.jpg
1839.083	0.64	1	congruent	Block2	congruent/STIM_012.jpg
1843.015	0.551	1	congruent	Block2	congruent/STIM_012.jpg
1846.291	0.599	1	congruent	Block2	congruent/STIM_012.jpg
1849.59	0.641	0	congruent	Block2	congruent/STIM_012.jpg
1853.922	0.559	1	congruent	Block2	congruent/STIM_012.jpg
1857.994	0.65	1	congruent	Block2	congruent/STIM_013.jpg
1861.022	0.524	1	congruent	Block2	congruent/STIM_013.jpg
1865.523	0.642	1	congruent	Block2	congruent/STIM_013.jpg
1868.174	0.458	1	congruent	Block2	congruent/STIM_013.jpg
1872.304	0.561	1	congruent	Block2	congruent/STIM_013.jpg
1875.125	0.602	0	congruent	Block2	congruent/STIM_014.jpg
1878.84	0.55	1	congruent	Block2	congruent/STIM_014.jpg
1882.862	0.578	0	congruent	Block2	congruent/STIM_014.jpg
1886.41	0.696	1	congruent	Block2	congruent/STIM_014.jpg
1890.934	0.609	1	congruent	Block2	congruent/STIM_014.jpg
1893.719	0.43	1	congruent	Block2	congruent/STIM_015.jpg
1896.893	0.515	1	congruent	Block2	congruent/STIM_015.jpg
1900.222	0.425	1	congruent	Block2	congruent/STIM_015.jpg
1904.504	0.592	1	congruent	Block2	congruent/STIM_015.jpg
1907.37	0.579	1	congruent	Block2	congruent/STIM_015.jpg
1910.329	0.631	1	congruent	Block2	congruent/STIM_016.jpg
1913.468	0.682	1	congruent	Block2	congruent/STIM_016.jpg
1916.37	0.686	1	congruent	Block2	congruent/STIM_016.jpg
1920.897	0.512	0	congruent	Block2	congruent/STIM_016.jpg
1923.584	0.654	1	congruent	Block2	congruent/STIM_016.jpg
1927.836	0.467	1	congruent	Block2	congruent/STIM_017.jpg
1931.869	0.578	0	congruent	Block2	congruent/STIM_017.jpg
1935.103	0.589	1	congruent	Block2	congruent/STIM_017.jpg
1939.387	0.527	1	congruent	Block2	congruent/STIM_017.jpg
1942.85	0.408	1	congruent	Block2	congruent/STIM_017.jpg
1945.776	0.48	1	congruent	Block2	congruent/STIM_018.jpg
1949.405	0.528	1	congruent	Block2	congruent/STIM_018.jpg
1953.175	0.417	1	congruent	Block2	congruent/STIM_018.jpg
1955.794	0.685	1	congruent	Block2	congruent/STIM_018.jpg
1958.887	0.604	1	congruent	Block2	congruent/STIM_018.jpg
1962.119	0.638	1	congruent	Block2	congruent/STIM_019.jpg
1965.692	0.514	1	congruent	Block2	congruent/STIM_019.jpg
1968.361	0.665	1	congruent	Block2	congruent/STIM_019.jpg
1972.56	0.542	1	congruent	Block2	congruent/STIM_019.jpg
1976.712	0.514	1	congruent	Block2	congruent/STIM_019.jpg
1980.465	0.68	1	congruent	Block2	congruent/STIM_020.jpg
1985.076	0.61	1	congruent	Block2	congruent/STIM_020.jpg
1988.895	0.442	1	congruent	Block2	congruent/STIM_020.jpg
1992.004	0.534	1	congruent	Block2	congruent/STIM_020.jpg
1995.645	0.605	0	congruent	Block2	congruent/STIM_020.jpg
1999.877	0.598	1	congruent	Block2	congruent/STIM_021.jpg
2003.259	0.679	1	congruent	Block2	congruent/STIM_021.jpg
2006.562	0.544	0	congruent	Block2	congruent/STIM_021.jpg
2009.72	0.43	1	congruent	Block2	congruent/STIM_021.jpg
2012.689	0.695	0	congruent	Block2	congruent/STIM_021.jpg
2016.329	0.624	1	congruent	Block2	congruent/STIM_022.jpg
2020.353	0.645	1	congruent	Block2	congruent/STIM_022.jpg
2023.913	0.508	1	congruent	Block2	congruent/STIM_022.jpg
2027.381	0.476	1	congruent	Block2	congruent/STIM_022.jpg
2031.121	0.436	1	congruent	Block2	congruent/STIM_022.jpg
2034.028	0.691	0	congruent	Block2	congruent/STIM_023.jpg
2038.059	0.471	0	congruent	Block2	congruent/STIM_023.jpg
2040.879	0.507	1	congruent	Block2	congruent/STIM_023.jpg
2045.138	0.442	1	congruent	Block2	congruent/STIM_023.jpg
2048.606	0.403	1	congruent	Block2	congruent/STIM_023.jpg
2052.151	0.574	0	congruent	Block2	congruent/STIM_024.jpg
2055.514	0.561	1	congruent	Block2	congruent/STIM_024.jpg
2059.663	0.605	1	congruent	Block2	congruent/STIM_024.jpg
2062.641	0.612	1	congruent	Block2	congruent/STIM_024.jpg
2065.973	0.451	1	congruent	Block2	congruent/STIM_024.jpg
2068.661	0.509	1	congruent	Block2	congruent/STIM_025.jpg
2071.91	0.643	1	congruent	Block2	congruent/STIM_025.jpg
2075.193	0.66	0	congruent	Block2	congruent/STIM_025.jpg
2079.834	0.509	1	congruent	Block2	congruent/STIM_025.jpg
2082.464	0.5	1	congruent	Block2	congruent/STIM_025.jpg
2086.86	0.492	1	congruent	Block2	congruent/STIM_026.jpg
2089.36	0.66	1	congruent	Block2	congruent/STIM_026.jpg
2092.322	0.408	1	congruent	Block2	congruent/STIM_026.jpg
2095.005	0.655	1	congruent	Block2	congruent/STIM_026.jpg
2099.159	0.398	0	congruent	Block2	congruent/STIM_026.jpg
2103.012	0.469	1	congruent	Block2	congruent/STIM_027.jpg
2105.888	0.478	1	congruent	Block2	congruent/STIM_027.jpg
2110.065	0.546	1	congruent	Block2	congruent/STIM_027.jpg
2114.103	0.632	1	congruent	Block2	congruent/STIM_027.jpg
2118.695	0.561	1	congruent	Block2	congruent/STIM_027.jpg
2123.044	0.539	1	congruent	Block2	congruent/STIM_028.jpg
2125.805	0.488	1	congruent	Block2	congruent/STIM_028.jpg
2129.933	0.392	0	congruent	Block2	congruent/STIM_028.jpg
2134.16	0.579	1	congruent	Block2	congruent/STIM_028.jpg
2138.591	0.574	1	congruent	Block2	congruent/STIM_028.jpg
2142.004	0.602	1	congruent	Block2	congruent/STIM_029.jpg
2144.866	0.55	1	congruent	Block2	congruent/STIM_029.jpg
2148.772	0.416	0	congruent	Block2	congruent/STIM_029.jpg
2151.235	0.632	1	congruent	Block2	congruent/STIM_029.jpg
2155.683	0.574	0	congruent	Block2	congruent/STIM_029.jpg
2159.969	0.531	0	incongruent	Block3	incongruent/STIM_000.jpg
2164.236	0.649	1	incongruent	Block3	incongruent/STIM_000.jpg
2168.735	0.41	1	incongruent	Block3	incongruent/STIM_000.jpg
2171.316	0.666	1	incongruent	Block3	incongruent/STIM_000.jpg
2174.86	0.382	0	incongruent	Block3	incongruent/STIM_000.jpg
2178.725	0.487	1	incongruent	Block3	incongruent/STIM_001.jpg
2182.151	0.595	1	incongruent	Block3	incongruent/STIM_001.jpg
2185.835	0.782	0	incongruent	Block3	incongruent/STIM_001.jpg
2189.74	0.674	1	incongruent	Block3	incongruent/STIM_001.jpg
2192.701	0.507	0	incongruent	Block3	incongruent/STIM_001.jpg
2195.231	0.795	1	incongruent	Block3	incongruent/STIM_002.jpg
2199.204	0.388	1	incongruent	Block3	incongruent/STIM_002.jpg
2203.398	0.612	1	incongruent	Block3	incongruent/STIM_002.jpg
2206.614	0.802	1	incongruent	Block3	incongruent/STIM_002.jpg
2211.133	0.571	1	incongruent	Block3	incongruent/STIM_002.jpg
2213.743	0.7	0	incongruent	Block3	incongruent/STIM_003.jpg
2217.125	0.553	1	incongruent	Block3	incongruent/STIM_003.jpg
2219.881	0.814	1	incongruent	Block3	incongruent/STIM_003.jpg
2224.245	0.577	1	incongruent	Block3	incongruent/STIM_003.jpg
2228.486	0.56	1	incongruent	Block3	incongruent/STIM_003.jpg
2232.999	0.534	1	incongruent	Block3	incongruent/STIM_004.jpg
2236.25	0.601	1	incongruent	Block3	incongruent/STIM_004.jpg
2239.789	0.727	1	incongruent	Block3	incongruent/STIM_004.jpg
2242.687	0.814	1	incongruent	Block3	incongruent/STIM_004.jpg
2246.864	0.632	1	incongruent	Block3	incongruent/STIM_004.jpg
2249.697	0.7	1	incongruent	Block3	incongruent/STIM_005.jpg
2252.467	0.493	1	incongruent	Block3	incongruent/STIM_005.jpg
2256.88	0.57	1	incongruent	Block3	incongruent/STIM_005.jpg
2260.91	0.578	1	incongruent	Block3	incongruent/STIM_005.jpg
2264.733	0.642	1	incongruent	Block3	incongruent/STIM_005.jpg
2268.275	0.445	1	incongruent	Block3	incongruent/STIM_006.jpg
2272.042	0.524	0	incongruent	Block3	incongruent/STIM_006.jpg
2275.946	0.768	1	incongruent	Block3	incongruent/STIM_006.jpg
2279.307	0.664	1	incongruent	Block3	incongruent/STIM_006.jpg
2283.362	0.693	0	incongruent	Block3	incongruent/STIM_006.jpg
2286.87	0.419	1	incongruent	Block3	incongruent/STIM_007.jpg
2290.769	0.416	1	incongruent	Block3	incongruent/STIM_007.jpg
2293.81	0.397	1	incongruent	Block3	incongruent/STIM_007.jpg
2296.982	0.655	1	incongruent	Block3	incongruent/STIM_007.jpg
2300.674	0.533	1	incongruent	Block3	incongruent/STIM_007.jpg
2303.991	0.747	1	incongruent	Block3	incongruent/STIM_008.jpg
2307.12	0.777	0	incongruent	Block3	incongruent/STIM_008.jpg
2309.936	0.488	1	incongruent	Block3	incongruent/STIM_008.jpg
2312.693	0.711	1	incongruent	Block3	incongruent/STIM_008.jpg
2317.208	0.774	1	incongruent	Block3	incongruent/STIM_008.jpg
2320.24	0.384	1	incongruent	Block3	incongruent/STIM_009.jpg
2322.737	0.52	0	incongruent	Block3	incongruent/STIM_009.jpg
2325.968	0.402	1	incongruent	Block3	incongruent/STIM_009.jpg
2330.309	0.443	1	incongruent	Block3	incongruent/STIM_009.jpg
2333.306	0.769	1	incongruent	Block3	incongruent/STIM_009.jpg
2336.161	0.446	1	incongruent	Block3	incongruent/STIM_010.jpg
2339.574	0.758	1	incongruent	Block3	incongruent/STIM_010.jpg
2342.978	0.457	1	incongruent	Block3	incongruent/STIM_010.jpg
2346.426	0.384	1	incongruent	Block3	incongruent/STIM_010.jpg
2349.271	0.815	1	incongruent	Block3	incongruent/STIM_010.jpg
2352.361	0.54	1	incongruent	Block3	incongruent/STIM_011.jpg
2356.106	0.422	1	incongruent	Block3	incongruent/STIM_011.jpg
2358.65	0.727	1	incongruent	Block3	incongruent/STIM_011.jpg
2362.513	0.421	1	incongruent	Block3	incongruent/STIM_011.jpg
2366.52	0.458	1	incongruent	Block3	incongruent/STIM_011.jpg
2369.56	0.597	1	incongruent	Block3	incongruent/STIM_012.jpg
2372.554	0.575	1	incongruent	Block3	incongruent/STIM_012.jpg
2375.818	0.577	1	incongruent	Block3	incongruent/STIM_012.jpg
2378.51	0.739	1	incongruent	Block3	incongruent/STIM_012.jpg
2381.748	0.538	1	incongruent	Block3	incongruent/STIM_012.jpg
2385.479	0.742	1	incongruent	Block3	incongruent/STIM_013.jpg
2389.093	0.651	1	incongruent	Block3	incongruent/STIM_013.jpg
2393.383	0.55	1	incongruent	Block3	incongruent/STIM_013.jpg
2397.552	0.591	0	incongruent	Block3	incongruent/STIM_013.jpg
2402.117	0.404	1	incongruent	Block3	incongruent/STIM_013.jpg
2405.233	0.807	1	incongruent	Block3	incongruent/STIM_014.jpg
2409.501	0.512	1	incongruent	Block3	incongruent/STIM_014.jpg
2412.436	0.616	1	incongruent	Block3	incongruent/STIM_014.jpg
2416.302	0.662	1	incongruent	Block3	incongruent/STIM_014.jpg
2419.163	0.779	1	incongruent	Block3	incongruent/STIM_014.jpg
2422.591	0.77	1	incongruent	Block3	incongruent/STIM_015.jpg
2426.201	0.758	1	incongruent	Block3	incongruent/STIM_015.jpg
2430.002	0.522	1	incongruent	Block3	incongruent/STIM_015.jpg
2434.303	0.409	1	incongruent	Block3	incongruent/STIM_015.jpg
2436.761	0.515	1	incongruent	Block3	incongruent/STIM_015.jpg
2440.864	0.603	1	incongruent	Block3	incongruent/STIM_016.jpg
2444.448	0.711	1	incongruent	Block3	incongruent/STIM_016.jpg
2448.22	0.578	1	incongruent	Block3	incongruent/STIM_016.jpg
2452.752	0.524	1	incongruent	Block3	incongruent/STIM_016.jpg
2455.374	0.425	1	incongruent	Block3	incongruent/STIM_016.jpg
2458.602	0.721	1	incongruent	Block3	incongruent/STIM_017.jpg
2461.843	0.439	1	incongruent	Block3	incongruent/STIM_017.jpg
2465.96	0.455	1	incongruent	Block3	incongruent/STIM_017.jpg
2469.924	0.396	0	incongruent	Block3	incongruent/STIM_017.jpg
2472.544	0.815	1	incongruent	Block3	incongruent/STIM_017.jpg
2476.034	0.732	1	incongruent	Block3	incongruent/STIM_018.jpg
2480.334	0.735	1	incongruent	Block3	incongruent/STIM_018.jpg
2484.658	0.791	1	incongruent	Block3	incongruent/STIM_018.jpg
2489.184	0.714	1	incongruent	Block3	incongruent/STIM_018.jpg
2492.19	0.556	1	incongruent	Block3	incongruent/STIM_018.jpg
2495.426	0.55	1	incongruent	Block3	incongruent/STIM_019.jpg
2499.737	0.611	1	incongruent	Block3	incongruent/STIM_019.jpg
2503.954	0.6	1	incongruent	Block3	incongruent/STIM_019.jpg
2507.684	0.758	1	incongruent	Block3	incongruent/STIM_019.jpg
2511.977	0.759	1	incongruent	Block3	incongruent/STIM_019.jpg
2516.637	0.615	0	incongruent	Block3	incongruent/STIM_020.jpg
2520.947	0.44	1	incongruent	Block3	incongruent/STIM_020.jpg
2525.077	0.464	1	incongruent	Block3	incongruent/STIM_020.jpg
2528.873	0.39	1	incongruent	Block3	incongruent/STIM_020.jpg
2531.306	0.723	1	incongruent	Block3	incongruent/STIM_020.jpg
2535.268	0.798	1	incongruent	Block3	incongruent/STIM_021.jpg
2538.319	0.47	1	incongruent	Block3	incongruent/STIM_021.jpg
2541.784	0.589	1	incongruent	Block3	incongruent/STIM_021.jpg
2545.302	0.612	1	incongruent	Block3	incongruent/STIM_021.jpg
2548.158	0.74	1	incongruent	Block3	incongruent/STIM_021.jpg
2552.397	0.648	1	incongruent	Block3	incongruent/STIM_022.jpg
2555.232	0.788	1	incongruent	Block3	incongruent/STIM_022.jpg
2558.366	0.436	1	incongruent	Block3	incongruent/STIM_022.jpg
2561.759	0.544	1	incongruent	Block3	incongruent/STIM_022.jpg
2565.851	0.74	1	incongruent	Block3	incongruent/STIM_022.jpg
2568.64	0.565	0	incongruent	Block3	incongruent/STIM_023.jpg
2572.543	0.415	1	incongruent	Block3	incongruent/STIM_023.jpg
2575.844	0.805	1	incongruent	Block3	incongruent/STIM_023.jpg
2579.499	0.501	1	incongruent	Block3	incongruent/STIM_023.jpg
2583.656	0.752	1	incongruent	Block3	incongruent/STIM_023.jpg
2588.299	0.554	1	incongruent	Block3	incongruent/STIM_024.jpg
2591.935	0.519	1	incongruent	Block3	incongruent/STIM_024.jpg
2595.229	0.637	1	incongruent	Block3	incongruent/STIM_024.jpg
2598.072	0.624	1	incongruent	Block3	incongruent/STIM_024.jpg
2601.206	0.576	1	incongruent	Block3	incongruent/STIM_024.jpg
2603.822	0.458	1	incongruent	Block3	incongruent/STIM_025.jpg
2606.28	0.784	1	incongruent	Block3	incongruent/STIM_025.jpg
2609.386	0.407	1	incongruent	Block3	incongruent/STIM_025.jpg
2613.34	0.651	1	incongruent	Block3	incongruent/STIM_025.jpg
2616.584	0.572	1	incongruent	Block3	incongruent/STIM_025.jpg
2620.825	0.454	1	incongruent	Block3	incongruent/STIM_026.jpg
2624.662	0.612	1	incongruent	Block3	incongruent/STIM_026.jpg
2629.024	0.405	1	incongruent	Block3	incongruent/STIM_026.jpg
2631.481	0.666	1	incongruent	Block3	incongruent/STIM_026.jpg
2635.386	0.421	1	incongruent	Block3	incongruent/STIM_026.jpg
2638.66	0.516	0	incongruent	Block3	incongruent/STIM_027.jpg
2641.572	0.803	1	incongruent	Block3	incongruent/STIM_027.jpg
2646.119	0.602	0	incongruent	Block3	incongruent/STIM_027.jpg
2648.81	0.569	1	incongruent	Block3	incongruent/STIM_027.jpg
2651.404	0.575	0	incongruent	Block3	incongruent/STIM_027.jpg
2655.391	0.546	1	incongruent	Block3	incongruent/STIM_028.jpg
2659.482	0.584	1	incongruent	Block3	incongruent/STIM_028.jpg
2663.245	0.426	1	incongruent	Block3	incongruent/STIM_028.jpg
2666.374	0.81	1	incongruent	Block3	incongruent/STIM_028.jpg
2670.749	0.413	1	incongruent	Block3	incongruent/STIM_028.jpg
2674.965	0.398	0	incongruent	Block3	incongruent/STIM_029.jpg
2677.563	0.625	1	incongruent	Block3	incongruent/STIM_029.jpg
2681.412	0.438	1	incongruent	Block3	incongruent/STIM_029.jpg
2684.929	0.649	0	incongruent	Block3	incongruent/STIM_029.jpg
2689.166	0.668	1	incongruent	Block3	incongruent/STIM_029.jpg
2692.729	0.414	0	congruent	Block3	congruent/STIM_000.jpg
2696.739	0.601	1	congruent	Block3	congruent/STIM_000.jpg
2699.538	0.528	1	congruent	Block3	congruent/STIM_000.jpg
2703.531	0.556	1	congruent	Block3	congruent/STIM_000.jpg
2708.04	0.514	1	congruent	Block3	congruent/STIM_000.jpg
2711.211	0.628	1	congruent	Block3	congruent/STIM_001.jpg
2714.598	0.646	1	congruent	Block3	congruent/STIM_001.jpg
2719.144	0.672	1	congruent	Block3	congruent/STIM_001.jpg
2722.669	0.519	1	congruent	Block3	congruent/STIM_001.jpg
2726.361	0.602	0	congruent	Block3	congruent/STIM_001.jpg
2729.663	0.466	1	congruent	Block3	congruent/STIM_002.jpg
2732.862	0.445	1	congruent	Block3	congruent/STIM_002.jpg
2735.323	0.54	1	congruent	Block3	congruent/STIM_002.jpg
2738.377	0.561	1	congruent	Block3	congruent/STIM_002.jpg
2741.543	0.476	1	congruent	Block3	congruent/STIM_002.jpg
2744.629	0.495	1	congruent	Block3	congruent/STIM_003.jpg
2747.801	0.662	1	congruent	Block3	congruent/STIM_003.jpg
2751.446	0.42	1	congruent	Block3	congruent/STIM_003.jpg
2754.111	0.491	0	congruent	Block3	congruent/STIM_003.jpg
2757.888	0.444	1	congruent	Block3	congruent/STIM_003.jpg
2761.334	0.686	1	congruent	Block3	congruent/STIM_004.jpg
2765.808	0.691	1	congruent	Block3	congruent/STIM_004.jpg
2768.762	0.558	1	congruent	Block3	congruent/STIM_004.jpg
2772.475	0.42	1	congruent	Block3	congruent/STIM_004.jpg
2776.204	0.425	1	congruent	Block3	congruent/STIM_004.jpg
2780.104	0.656	1	congruent	Block3	congruent/STIM_005.jpg
2783.416	0.545	1	congruent	Block3	congruent/STIM_005.jpg
2787.502	0.48	1	congruent	Block3	congruent/STIM_005.jpg
2791.791	0.573	1	congruent	Block3	congruent/STIM_005.jpg
2795.919	0.576	0	congruent	Block3	congruent/STIM_005.jpg
2800.366	0.541	0	congruent	Block3	congruent/STIM_006.jpg
2804.8	0.444	1	congruent	Block3	congruent/STIM_006.jpg
2808.391	0.662	1	congruent	Block3	congruent/STIM_006.jpg
2811.444	0.564	1	congruent	Block3	congruent/STIM_006.jpg
2814.693	0.654	1	congruent	Block3	congruent/STIM_006.jpg
2817.78	0.586	1	congruent	Block3	congruent/STIM_007.jpg
2822.21	0.626	0	congruent	Block3	congruent/STIM_007.jpg
2825.104	0.45	1	congruent	Block3	congruent/STIM_007.jpg
2828.7	0.612	0	congruent	Block3	congruent/STIM_007.jpg
2832.604	0.617	1	congruent	Block3	congruent/STIM_007.jpg
2837.088	0.431	1	congruent	Block3	congruent/STIM_008.jpg
2841.481	0.655	1	congruent	Block3	congruent/STIM_008.jpg
2845.146	0.425	1	congruent	Block3	congruent/STIM_008.jpg
2848.051	0.414	1	congruent	Block3	congruent/STIM_008.jpg
2852.329	0.631	1	congruent	Block3	congruent/STIM_008.jpg
2855.497	0.417	1	congruent	Block3	congruent/STIM_009.jpg
2859.386	0.453	1	congruent	Block3	congruent/STIM_009.jpg
2861.952	0.659	1	congruent	Block3	congruent/STIM_009.jpg
2864.805	0.556	1	congruent	Block3	congruent/STIM_009.jpg
2867.429	0.525	1	congruent	Block3	congruent/STIM_009.jpg
2870.528	0.391	1	congruent	Block3	congruent/STIM_010.jpg
2874.001	0.657	1	congruent	Block3	congruent/STIM_010.jpg
2877.049	0.52	1	congruent	Block3	congruent/STIM_010.jpg
2880.615	0.671	1	congruent	Block3	congruent/STIM_010.jpg
2885.001	0.447	1	congruent	Block3	congruent/STIM_010.jpg
2889.038	0.593	1	congruent	Block3	congruent/STIM_011.jpg
2893.069	0.432	1	congruent	Block3	congruent/STIM_011.jpg
2896.641	0.457	1	congruent	Block3	congruent/STIM_011.jpg
2900.698	0.399	0	congruent	Block3	congruent/STIM_011.jpg
2903.629	0.452	1	congruent	Block3	congruent/STIM_011.jpg
2907.199	0.515	1	congruent	Block3	congruent/STIM_012.jpg
2910.431	0.698	1	congruent	Block3	congruent/STIM_012.jpg
2914.346	0.464	1	congruent	Block3	congruent/STIM_012.jpg
2918.172	0.471	0	congruent	Block3	congruent/STIM_012.jpg
2922.183	0.557	1	congruent	Block3	congruent/STIM_012.jpg
2924.852	0.639	1	congruent	Block3	congruent/STIM_013.jpg
2928.261	0.699	1	congruent	Block3	congruent/STIM_013.jpg
2931.499	0.57	1	congruent	Block3	congruent/STIM_013.jpg
2935.552	0.532	1	congruent	Block3	congruent/STIM_013.jpg
2939.866	0.587	1	congruent	Block3	congruent/STIM_013.jpg
2943.884	0.602	1	congruent	Block3	congruent/STIM_014.jpg
2947.482	0.396	1	congruent	Block3	congruent/STIM_014.jpg
2950.161	0.485	1	congruent	Block3	congruent/STIM_014.jpg
2953.79	0.561	1	congruent	Block3	congruent/STIM_014.jpg
2958.251	0.452	1	congruent	Block3	congruent/STIM_014.jpg
2962.244	0.41	1	congruent	Block3	congruent/STIM_015.jpg
2964.693	0.483	1	congruent	Block3	congruent/STIM_015.jpg
2969.104	0.439	1	congruent	Block3	congruent/STIM_015.jpg
2972.86	0.616	1	congruent	Block3	congruent/STIM_015.jpg
2977.32	0.48	1	congruent	Block3	congruent/STIM_015.jpg
2980.424	0.596	0	congruent	Block3	congruent/STIM_016.jpg
2983.942	0.666	1	congruent	Block3	congruent/STIM_016.jpg
2986.781	0.644	1	congruent	Block3	congruent/STIM_016.jpg
2990.801	0.451	0	congruent	Block3	congruent/STIM_016.jpg
2993.274	0.488	1	congruent	Block3	congruent/STIM_016.jpg
2996.738	0.629	1	congruent	Block3	congruent/STIM_017.jpg
2999.513	0.46	1	congruent	Block3	congruent/STIM_017.jpg
3002.244	0.566	1	congruent	Block3	congruent/STIM_017.jpg
3005.239	0.488	1	congruent	Block3	congruent/STIM_017.jpg
3008.888	0.533	1	congruent	Block3	congruent/STIM_017.jpg
3011.639	0.625	1	congruent	Block3	congruent/STIM_018.jpg
3014.584	0.418	1	congruent	Block3	congruent/STIM_018.jpg
3017.316	0.564	0	congruent	Block3	congruent/STIM_018.jpg
3021.113	0.573	1	congruent	Block3	congruent/STIM_018.jpg
3025.663	0.42	1	congruent	Block3	congruent/STIM_018.jpg
3029.895	0.581	1	congruent	Block3	congruent/STIM_019.jpg
3033.535	0.471	1	congruent	Block3	congruent/STIM_019.jpg
3036.359	0.666	1	congruent	Block3	congruent/STIM_019.jpg
3039.377	0.567	0	congruent	Block3	congruent/STIM_019.jpg
3042.436	0.691	1	congruent	Block3	congruent/STIM_019.jpg
3045.357	0.683	1	congruent	Block3	congruent/STIM_020.jpg
3049.834	0.533	1	congruent	Block3	congruent/STIM_020.jpg
3053.449	0.672	1	congruent	Block3	congruent/STIM_020.jpg
3057.017	0.436	1	congruent	Block3	congruent/STIM_020.jpg
3061.174	0.532	1	congruent	Block3	congruent/STIM_020.jpg
3064.45	0.56	1	congruent	Block3	congruent/STIM_021.jpg
3068.337	0.44	1	congruent	Block3	congruent/STIM_021.jpg
3072.05	0.389	1	congruent	Block3	congruent/STIM_021.jpg
3075.594	0.668	1	congruent	Block3	congruent/STIM_021.jpg
3080.016	0.652	1	congruent	Block3	congruent/STIM_021.jpg
3084.143	0.4	0	congruent	Block3	congruent/STIM_022.jpg
3087.942	0.664	1	congruent	Block3	congruent/STIM_022.jpg
3092.102	0.421	1	congruent	Block3	congruent/STIM_022.jpg
3095.953	0.587	1	congruent	Block3	congruent/STIM_022.jpg
3100.214	0.563	1	congruent	Block3	congruent/STIM_022.jpg
3104.275	0.516	1	congruent	Block3	congruent/STIM_023.jpg
3106.941	0.642	1	congruent	Block3	congruent/STIM_023.jpg
3111.492	0.695	1	congruent	Block3	congruent/STIM_023.jpg
3116.18	0.638	1	congruent	Block3	congruent/STIM_023.jpg
3118.821	0.419	0	congruent	Block3	congruent/STIM_023.jpg
3121.572	0.46	1	congruent	Block3	congruent/STIM_024.jpg
3124.626	0.605	0	congruent	Block3	congruent/STIM_024.jpg
3127.715	0.522	1	congruent	Block3	congruent/STIM_024.jpg
3131.592	0.6	1	congruent	Block3	congruent/STIM_024.jpg
3135.148	0.693	1	congruent	Block3	congruent/STIM_024.jpg
3138.135	0.64	1	congruent	Block3	congruent/STIM_025.jpg
3142.049	0.525	1	congruent	Block3	congruent/STIM_025.jpg
3145.722	0.546	1	congruent	Block3	congruent/STIM_025.jpg
3149.203	0.574	1	congruent	Block3	congruent/STIM_025.jpg
3152.057	0.687	1	congruent	Block3	congruent/STIM_025.jpg
3155.235	0.562	1	congruent	Block3	congruent/STIM_026.jpg
3159.551	0.54	1	congruent	Block3	congruent/STIM_026.jpg
3163.606	0.449	1	congruent	Block3	congruent/STIM_026.jpg
3167.394	0.549	1	congruent	Block3	congruent/STIM_026.jpg
3170.8	0.415	1	congruent	Block3	congruent/STIM_026.jpg
3173.326	0.398	0	congruent	Block3	congruent/STIM_027.jpg
3176.461	0.624	1	congruent	Block3	congruent/STIM_027.jpg
3179.891	0.418	1	congruent	Block3	congruent/STIM_027.jpg
3183.155	0.617	1	congruent	Block3	congruent/STIM_027.jpg
3187.25	0.575	1	congruent	Block3	congruent/STIM_027.jpg
3190.841	0.55	1	congruent	Block3	congruent/STIM_028.jpg
3195.188	0.699	0	congruent	Block3	congruent/STIM_028.jpg
3198.833	0.52	1	congruent	Block3	congruent/STIM_028.jpg
3202.283	0.603	1	congruent	Block3	congruent/STIM_028.jpg
3206.064	0.447	0	congruent	Block3	congruent/STIM_028.jpg
3209.668	0.618	1	congruent	Block3	congruent/STIM_029.jpg
3213.847	0.4	1	congruent	Block3	congruent/STIM_029.jpg
3216.283	0.517	1	congruent	Block3	congruent/STIM_029.jpg
3218.921	0.435	1	congruent	Block3	congruent/STIM_029.jpg
3221.535	0.416	0	congruent	Block3	congruent/STIM_029.jpg
