onset	duration	accuracy_binary	trial_type	learning_stage	stimulus
0.0	1.428	1	generate	Run1	generate/STIM_000.jpg
4.221	2.8	1	generate	Run1	generate/STIM_000.jpg
9.955	1.768	0	generate	Run1	generate/STIM_000.jpg
14.449	2.239	1	generate	Run1	generate/STIM_000.jpg
18.88	1.971	1	generate	Run1	generate/STIM_000.jpg
24.82	2.313	1	generate	Run1	generate/STIM_001.jpg
30.943	2.053	0	generate	Run1	generate/STIM_001.jpg
35.591	1.836	1	generate	Run1	generate/STIM_001.jpg
40.406	2.315	1	generate	Run1	generate/STIM_001.jpg
45.299	2.207	1	generate	Run1	generate/STIM_001.jpg
49.836	2.503	0	generate	Run1	generate/STIM_002.jpg
55.248	1.316	1	generate	Run1	generate/STIM_002.jpg
59.725	2.673	1	generate	Run1	generate/STIM_002.jpg
65.585	2.085	1	generate	Run1	generate/STIM_002.jpg
70.743	2.11	1	generate	Run1	generate/STIM_002.jpg
76.463	1.479	1	generate	Run1	generate/STIM_003.jpg
80.752	1.68	0	generate	Run1	generate/STIM_003.jpg
85.495	1.849	1	generate	Run1	generate/STIM_003.jpg
90.786	2.42	0	generate	Run1	generate/STIM_003.jpg
96.527	2.508	1	generate	Run1	generate/STIM_003.jpg
101.928	2.11	1	generate	Run1	generate/STIM_004.jpg
106.214	2.801	0	generate	Run1	generate/STIM_004.jpg
111.982	2.437	1	generate	Run1	generate/STIM_004.jpg
117.441	2.201	1	generate	Run1	generate/STIM_004.jpg
121.842	1.535	1	generate	Run1	generate/STIM_004.jpg
126.956	1.449	0	generate	Run1	generate/STIM_005.jpg
131.249	2.052	1	generate	Run1	generate/STIM_005.jpg
136.475	2.184	0	generate	Run1	generate/STIM_005.jpg
140.812	2.404	0	generate	Run1	generate/STIM_005.jpg
145.338	2.317	0	generate	Run1	generate/STIM_005.jpg
149.737	1.659	1	generate	Run1	generate/STIM_006.jpg
153.87	1.884	1	generate	Run1	generate/STIM_006.jpg
159.674	1.383	0	generate	Run1	generate/STIM_006.jpg
163.895	2.64	1	generate	Run1	generate/STIM_006.jpg
169.265	1.868	0	generate	Run1	generate/STIM_006.jpg
174.077	1.536	0	generate	Run1	generate/STIM_007.jpg
178.015	2.256	1	generate	Run1	generate/STIM_007.jpg
182.678	2.333	1	generate	Run1	generate/STIM_007.jpg
188.257	1.28	1	generate	Run1	generate/STIM_007.jpg
191.583	1.658	0	generate	Run1	generate/STIM_007.jpg
197.096	3.108	1	generate	Run1	generate/STIM_008.jpg
203.586	1.289	1	generate	Run1	generate/STIM_008.jpg
208.543	1.204	1	generate	Run1	generate/STIM_008.jpg
213.024	1.132	1	generate	Run1	generate/STIM_008.jpg
217.392	1.948	1	generate	Run1	generate/STIM_008.jpg
222.048	1.992	1	generate	Run1	generate/STIM_009.jpg
227.21	2.655	0	generate	Run1	generate/STIM_009.jpg
233.488	2.35	1	generate	Run1	generate/STIM_009.jpg
239.692	1.252	0	generate	Run1	generate/STIM_009.jpg
243.306	2.016	0	generate	Run1	generate/STIM_009.jpg
249.127	2.069	0	generate	Run1	generate/STIM_010.jpg
254.917	2.489	0	generate	Run1	generate/STIM_010.jpg
259.685	2.54	1	generate	Run1	generate/STIM_010.jpg
266.164	2.083	1	generate	Run1	generate/STIM_010.jpg
271.39	1.029	1	generate	Run1	generate/STIM_010.jpg
274.484	3.021	1	generate	Run1	generate/STIM_011.jpg
280.865	2.428	1	generate	Run1	generate/STIM_011.jpg
285.502	2.035	1	generate	Run1	generate/STIM_011.jpg
291.477	2.644	1	generate	Run1	generate/STIM_011.jpg
296.332	1.12	1	generate	Run1	generate/STIM_011.jpg
301.292	1.829	1	generate	Run1	generate/STIM_012.jpg
306.397	2.128	1	generate	Run1	generate/STIM_012.jpg
312.133	2.148	1	generate	Run1	generate/STIM_012.jpg
317.763	1.972	1	generate	Run1	generate/STIM_012.jpg
323.247	1.052	1	generate	Run1	generate/STIM_012.jpg
327.75	1.871	1	generate	Run1	generate/STIM_013.jpg
333.208	2.318	1	generate	Run1	generate/STIM_013.jpg
338.216	1.372	1	generate	Run1	generate/STIM_013.jpg
342.887	2.038	0	generate	Run1	generate/STIM_013.jpg
347.174	1.851	1	generate	Run1	generate/STIM_013.jpg
351.817	1.354	0	generate	Run1	generate/STIM_014.jpg
356.856	2.107	1	generate	Run1	generate/STIM_014.jpg
362.555	1.866	0	generate	Run1	generate/STIM_014.jpg
367.795	2.156	0	generate	Run1	generate/STIM_014.jpg
372.072	1.672	1	generate	Run1	generate/STIM_014.jpg
376.242	2.404	0	generate	Run1	generate/STIM_015.jpg
381.018	1.626	0	generate	Run1	generate/STIM_015.jpg
385.601	2.862	0	generate	Run1	generate/STIM_015.jpg
390.96	1.735	0	generate	Run1	generate/STIM_015.jpg
396.331	2.083	1	generate	Run1	generate/STIM_015.jpg
402.028	1.669	0	generate	Run1	generate/STIM_016.jpg
407.489	1.37	1	generate	Run1	generate/STIM_016.jpg
411.138	2.661	1	generate	Run1	generate/STIM_016.jpg
417.441	2.342	1	generate	Run1	generate/STIM_016.jpg
422.341	1.738	1	generate	Run1	generate/STIM_016.jpg
426.393	2.534	1	generate	Run1	generate/STIM_017.jpg
432.777	2.929	1	generate	Run1	generate/STIM_017.jpg
438.686	2.746	1	generate	Run1	generate/STIM_017.jpg
444.557	1.538	1	generate	Run1	generate/STIM_017.jpg
449.772	2.452	0	generate	Run1	generate/STIM_017.jpg
455.766	2.989	1	generate	Run1	generate/STIM_018.jpg
461.49	1.356	1	generate	Run1	generate/STIM_018.jpg
466.035	1.204	1	generate	Run1	generate/STIM_018.jpg
470.057	1.594	1	generate	Run1	generate/STIM_018.jpg
474.664	1.426	1	generate	Run1	generate/STIM_018.jpg
479.394	2.655	0	generate	Run1	generate/STIM_019.jpg
484.13	1.502	1	generate	Run1	generate/STIM_019.jpg
489.498	1.575	1	generate	Run1	generate/STIM_019.jpg
493.7	2.061	1	generate	Run1	generate/STIM_019.jpg
499.04	2.348	0	generate	Run1	generate/STIM_019.jpg
505.268	1.809	1	generate	Run1	generate/STIM_020.jpg
510.73	1.357	1	generate	Run1	generate/STIM_020.jpg
514.931	2.077	0	generate	Run1	generate/STIM_020.jpg
519.472	1.315	0	generate	Run1	generate/STIM_020.jpg
522.949	2.038	1	generate	Run1	generate/STIM_020.jpg
527.957	2.347	0	generate	Run1	generate/STIM_021.jpg
533.797	1.723	1	generate	Run1	generate/STIM_021.jpg
537.637	1.522	1	generate	Run1	generate/STIM_021.jpg
541.22	1.219	1	generate	Run1	generate/STIM_021.jpg
545.729	1.961	1	generate	Run1	generate/STIM_021.jpg
550.994	2.308	1	generate	Run1	generate/STIM_022.jpg
555.562	1.328	0	generate	Run1	generate/STIM_022.jpg
558.974	1.182	1	generate	Run1	generate/STIM_022.jpg
563.301	2.551	1	generate	Run1	generate/STIM_022.jpg
569.184	1.306	1	generate	Run1	generate/STIM_022.jpg
573.434	2.697	1	generate	Run1	generate/STIM_023.jpg
578.689	2.694	1	generate	Run1	generate/STIM_023.jpg
585.132	2.352	1	generate	Run1	generate/STIM_023.jpg
589.88	1.482	1	generate	Run1	generate/STIM_023.jpg
593.71	1.742	0	generate	Run1	generate/STIM_023.jpg
597.541	2.852	1	generate	Run1	generate/STIM_024.jpg
602.803	1.598	1	generate	Run1	generate/STIM_024.jpg
607.742	1.279	0	generate	Run1	generate/STIM_024.jpg
612.077	1.627	1	generate	Run1	generate/STIM_024.jpg
616.7	1.547	1	generate	Run1	generate/STIM_024.jpg
620.627	0.697	1	repeat	Run1	repeat/STIM_000.jpg
625.063	0.854	1	repeat	Run1	repeat/STIM_000.jpg
627.925	0.971	0	repeat	Run1	repeat/STIM_000.jpg
632.691	0.994	1	repeat	Run1	repeat/STIM_000.jpg
637.415	0.724	1	repeat	Run1	repeat/STIM_000.jpg
640.344	0.781	1	repeat	Run1	repeat/STIM_001.jpg
643.501	0.79	1	repeat	Run1	repeat/STIM_001.jpg
646.966	0.924	1	repeat	Run1	repeat/STIM_001.jpg
650.825	0.692	1	repeat	Run1	repeat/STIM_001.jpg
653.606	0.537	1	repeat	Run1	repeat/STIM_001.jpg
656.575	0.702	1	repeat	Run1	repeat/STIM_002.jpg
660.502	0.78	1	repeat	Run1	repeat/STIM_002.jpg
663.433	0.989	1	repeat	Run1	repeat/STIM_002.jpg
667.347	0.933	0	repeat	Run1	repeat/STIM_002.jpg
671.609	0.794	1	repeat	Run1	repeat/STIM_002.jpg
676.272	0.806	0	repeat	Run1	repeat/STIM_003.jpg
680.261	1.052	1	repeat	Run1	repeat/STIM_003.jpg
683.348	0.666	1	repeat	Run1	repeat/STIM_003.jpg
687.208	0.58	1	repeat	Run1	repeat/STIM_003.jpg
691.216	0.732	1	repeat	Run1	repeat/STIM_003.jpg
695.313	1.033	1	repeat	Run1	repeat/STIM_004.jpg
700.214	1.013	1	repeat	Run1	repeat/STIM_004.jpg
704.962	0.775	1	repeat	Run1	repeat/STIM_004.jpg
709.266	0.59	1	repeat	Run1	repeat/STIM_004.jpg
713.506	0.596	0	repeat	Run1	repeat/STIM_004.jpg
717.827	1.036	1	repeat	Run1	repeat/STIM_005.jpg
721.674	0.902	1	repeat	Run1	repeat/STIM_005.jpg
726.303	0.844	1	repeat	Run1	repeat/STIM_005.jpg
731.084	0.536	1	repeat	Run1	repeat/STIM_005.jpg
734.891	0.692	1	repeat	Run1	repeat/STIM_005.jpg
737.763	0.556	1	repeat	Run1	repeat/STIM_006.jpg
740.495	1.029	1	repeat	Run1	repeat/STIM_006.jpg
744.181	0.836	0	repeat	Run1	repeat/STIM_006.jpg
747.199	0.685	1	repeat	Run1	repeat/STIM_006.jpg
751.448	0.972	1	repeat	Run1	repeat/STIM_006.jpg
756.354	1.054	1	repeat	Run1	repeat/STIM_007.jpg
761.246	0.852	1	repeat	Run1	repeat/STIM_007.jpg
764.365	0.843	1	repeat	Run1	repeat/STIM_007.jpg
767.41	0.883	1	repeat	Run1	repeat/STIM_007.jpg
771.237	0.58	1	repeat	Run1	repeat/STIM_007.jpg
774.693	0.938	0	repeat	Run1	repeat/STIM_008.jpg
779.334	0.941	1	repeat	Run1	repeat/STIM_008.jpg
783.847	0.858	1	repeat	Run1	repeat/STIM_008.jpg
788.17	0.805	1	repeat	Run1	repeat/STIM_008.jpg
792.097	0.653	1	repeat	Run1	repeat/STIM_008.jpg
795.796	0.583	1	repeat	Run1	repeat/STIM_009.jpg
798.953	0.554	1	repeat	Run1	repeat/STIM_009.jpg
802.234	0.796	1	repeat	Run1	repeat/STIM_009.jpg
806.694	0.791	1	repeat	Run1	repeat/STIM_009.jpg
811.128	1.032	1	repeat	Run1	repeat/STIM_009.jpg
814.238	0.976	1	repeat	Run1	repeat/STIM_010.jpg
817.938	1.024	1	repeat	Run1	repeat/STIM_010.jpg
821.139	0.856	1	repeat	Run1	repeat/STIM_010.jpg
824.314	0.63	1	repeat	Run1	repeat/STIM_010.jpg
828.379	1.055	1	repeat	Run1	repeat/STIM_010.jpg
832.747	0.674	1	repeat	Run1	repeat/STIM_011.jpg
836.897	0.661	1	repeat	Run1	repeat/STIM_011.jpg
841.199	0.654	1	repeat	Run1	repeat/STIM_011.jpg
845.308	0.904	1	repeat	Run1	repeat/STIM_011.jpg
848.388	0.563	1	repeat	Run1	repeat/STIM_011.jpg
851.915	0.74	1	repeat	Run1	repeat/STIM_012.jpg
855.507	0.678	1	repeat	Run1	repeat/STIM_012.jpg
858.269	0.651	1	repeat	Run1	repeat/STIM_012.jpg
862.378	0.862	1	repeat	Run1	repeat/STIM_012.jpg
865.583	0.612	1	repeat	Run1	repeat/STIM_012.jpg
870.039	0.713	1	repeat	Run1	repeat/STIM_013.jpg
872.77	0.801	1	repeat	Run1	repeat/STIM_013.jpg
876.215	0.975	0	repeat	Run1	repeat/STIM_013.jpg
880.909	0.542	1	repeat	Run1	repeat/STIM_013.jpg
883.74	0.779	0	repeat	Run1	repeat/STIM_013.jpg
886.732	0.626	1	repeat	Run1	repeat/STIM_014.jpg
890.984	1.031	1	repeat	Run1	repeat/STIM_014.jpg
894.117	0.64	1	repeat	Run1	repeat/STIM_014.jpg
897.162	0.61	1	repeat	Run1	repeat/STIM_014.jpg
900.813	0.952	1	repeat	Run1	repeat/STIM_014.jpg
904.86	2.679	0	generate	Run2	generate/STIM_000.jpg
909.807	2.275	1	generate	Run2	generate/STIM_000.jpg
915.078	2.388	1	generate	Run2	generate/STIM_000.jpg
919.923	1.802	1	generate	Run2	generate/STIM_000.jpg
924.493	1.962	1	generate	Run2	generate/STIM_000.jpg
929.57	2.357	0	generate	Run2	generate/STIM_001.jpg
934.618	2.132	0	generate	Run2	generate/STIM_001.jpg
939.969	2.312	1	generate	Run2	generate/STIM_001.jpg
946.046	1.561	0	generate	Run2	generate/STIM_001.jpg
950.91	1.394	1	generate	Run2	generate/STIM_001.jpg
955.019	2.316	0	generate	Run2	generate/STIM_002.jpg
960.699	2.19	1	generate	Run2	generate/STIM_002.jpg
965.198	1.321	1	generate	Run2	generate/STIM_002.jpg
969.138	1.264	1	generate	Run2	generate/STIM_002.jpg
972.991	1.162	1	generate	Run2	generate/STIM_002.jpg
977.362	2.317	1	generate	Run2	generate/STIM_003.jpg
983.333	1.911	1	generate	Run2	generate/STIM_003.jpg
987.735	1.353	1	generate	Run2	generate/STIM_003.jpg
991.44	1.816	1	generate	Run2	generate/STIM_003.jpg
996.993	1.769	0	generate	Run2	generate/STIM_003.jpg
1002.072	1.629	1	generate	Run2	generate/STIM_004.jpg
1006.139	1.926	0	generate	Run2	generate/STIM_004.jpg
1011.384	2.1	1	generate	Run2	generate/STIM_004.jpg
1016.857	1.99	1	generate	Run2	generate/STIM_004.jpg
1021.224	1.471	1	generate	Run2	generate/STIM_004.jpg
1025.862	2.297	1	generate	Run2	generate/STIM_005.jpg
1031.361	1.514	1	generate	Run2	generate/STIM_005.jpg
1035.212	1.691	1	generate	Run2	generate/STIM_005.jpg
1040.442	1.464	1	generate	Run2	generate/STIM_005.jpg
1045.835	0.97	1	generate	Run2	generate/STIM_005.jpg
1049.648	2.443	1	generate	Run2	generate/STIM_006.jpg
1054.906	1.689	0	generate	Run2	generate/STIM_006.jpg
1059.996	1.787	1	generate	Run2	generate/STIM_006.jpg
1064.77	0.968	1	generate	Run2	generate/STIM_006.jpg
1069.072	1.08	1	generate	Run2	generate/STIM_006.jpg
1072.481	1.759	1	generate	Run2	generate/STIM_007.jpg
1076.935	1.299	1	generate	Run2	generate/STIM_007.jpg
1080.507	1.498	1	generate	Run2	generate/STIM_007.jpg
1085.579	1.808	1	generate	Run2	generate/STIM_007.jpg
1089.983	2.017	0	generate	Run2	generate/STIM_007.jpg
1095.646	1.921	1	generate	Run2	generate/STIM_008.jpg
1101.277	1.57	1	generate	Run2	generate/STIM_008.jpg
1105.93	2.353	1	generate	Run2	generate/STIM_008.jpg
1111.306	0.992	1	generate	Run2	generate/STIM_008.jpg
1116.276	1.226	1	generate	Run2	generate/STIM_008.jpg
1120.701	1.484	1	generate	Run2	generate/STIM_009.jpg
1126.161	1.499	1	generate	Run2	generate/STIM_009.jpg
1131.539	2.054	0	generate	Run2	generate/STIM_009.jpg
1136.202	1.426	1	generate	Run2	generate/STIM_009.jpg
1141.554	1.55	1	generate	Run2	generate/STIM_009.jpg
1146.684	1.844	0	generate	Run2	generate/STIM_010.jpg
1150.645	2.276	1	generate	Run2	generate/STIM_010.jpg
1156.915	2.061	0	generate	Run2	generate/STIM_010.jpg
1161.409	0.944	0	generate	Run2	generate/STIM_010.jpg
1165.985	1.618	1	generate	Run2	generate/STIM_010.jpg
1171.015	1.195	0	generate	Run2	generate/STIM_011.jpg
1175.557	2.404	1	generate	Run2	generate/STIM_011.jpg
1180.334	1.09	1	generate	Run2	generate/STIM_011.jpg
1185.104	0.921	1	generate	Run2	generate/STIM_011.jpg
1189.733	1.866	1	generate	Run2	generate/STIM_011.jpg
1195.222	1.104	1	generate	Run2	generate/STIM_012.jpg
1199.413	1.483	1	generate	Run2	generate/STIM_012.jpg
1203.282	1.322	1	generate	Run2	generate/STIM_012.jpg
1208.224	2.098	1	generate	Run2	generate/STIM_012.jpg
1214.236	1.986	1	generate	Run2	generate/STIM_012.jpg
1220.05	2.4	1	generate	Run2	generate/STIM_013.jpg
1225.311	1.136	0	generate	Run2	generate/STIM_013.jpg
1230.326	1.727	1	generate	Run2	generate/STIM_013.jpg
1235.238	2.081	1	generate	Run2	generate/STIM_013.jpg
1240.415	1.386	1	generate	Run2	generate/STIM_013.jpg
1244.192	1.606	1	generate	Run2	generate/STIM_014.jpg
1248.605	2.41	1	generate	Run2	generate/STIM_014.jpg
1254.93	1.03	1	generate	Run2	generate/STIM_014.jpg
1259.086	0.9	1	generate	Run2	generate/STIM_014.jpg
1262.163	0.96	1	generate	Run2	generate/STIM_014.jpg
1266.976	2.525	1	generate	Run2	generate/STIM_015.jpg
1273.478	1.167	1	generate	Run2	generate/STIM_015.jpg
1277.058	2.113	1	generate	Run2	generate/STIM_015.jpg
1282.361	0.946	0	generate	Run2	generate/STIM_015.jpg
1286.166	2.113	1	generate	Run2	generate/STIM_015.jpg
1290.291	2.338	0	generate	Run2	generate/STIM_016.jpg
1295.86	2.118	0	generate	Run2	generate/STIM_016.jpg
1300.018	2.113	1	generate	Run2	generate/STIM_016.jpg
1304.552	1.358	1	generate	Run2	generate/STIM_016.jpg
1307.967	1.291	1	generate	Run2	generate/STIM_016.jpg
1312.258	1.906	1	generate	Run2	generate/STIM_017.jpg
1317.128	2.013	0	generate	Run2	generate/STIM_017.jpg
1321.41	1.4	1	generate	Run2	generate/STIM_017.jpg
1326.582	1.024	1	generate	Run2	generate/STIM_017.jpg
1330.71	1.634	0	generate	Run2	generate/STIM_017.jpg
1335.978	2.084	1	generate	Run2	generate/STIM_018.jpg
1340.495	2.125	1	generate	Run2	generate/STIM_018.jpg
1345.196	1.258	1	generate	Run2	generate/STIM_018.jpg
1349.155	1.236	1	generate	Run2	generate/STIM_018.jpg
1352.911	1.786	1	generate	Run2	generate/STIM_018.jpg
1357.218	1.155	1	generate	Run2	generate/STIM_019.jpg
1362.12	1.044	0	generate	Run2	generate/STIM_019.jpg
1365.177	1.761	1	generate	Run2	generate/STIM_019.jpg
1369.247	1.24	1	generate	Run2	generate/STIM_019.jpg
1372.598	2.142	1	generate	Run2	generate/STIM_019.jpg
1378.119	1.579	1	generate	Run2	generate/STIM_020.jpg
1382.289	1.453	1	generate	Run2	generate/STIM_020.jpg
1387.43	0.965	1	generate	Run2	generate/STIM_020.jpg
1391.097	1.499	0	generate	Run2	generate/STIM_020.jpg
1395.884	1.008	1	generate	Run2	generate/STIM_020.jpg
1399.224	1.889	1	generate	Run2	generate/STIM_021.jpg
1403.192	1.552	1	generate	Run2	generate/STIM_021.jpg
1408.035	1.852	1	generate	Run2	generate/STIM_021.jpg
1413.009	1.647	1	generate	Run2	generate/STIM_021.jpg
1418.617	1.729	1	generate	Run2	generate/STIM_021.jpg
1423.61	1.542	1	generate	Run2	generate/STIM_022.jpg
1427.663	1.167	1	generate	Run2	generate/STIM_022.jpg
1432.088	2.192	0	generate	Run2	generate/STIM_022.jpg
1436.854	2.075	1	generate	Run2	generate/STIM_022.jpg
1442.5	1.95	1	generate	Run2	generate/STIM_022.jpg
1447.452	2.02	1	generate	Run2	generate/STIM_023.jpg
1452.429	2.057	1	generate	Run2	generate/STIM_023.jpg
1457.147	1.213	1	generate	Run2	generate/STIM_023.jpg
1460.556	1.132	1	generate	Run2	generate/STIM_023.jpg
1464.118	1.082	1	generate	Run2	generate/STIM_023.jpg
1468.778	2.056	1	generate	Run2	generate/STIM_024.jpg
1473.817	1.598	1	generate	Run2	generate/STIM_024.jpg
1478.895	1.503	1	generate	Run2	generate/STIM_024.jpg
1484.002	2.238	1	generate	Run2	generate/STIM_024.jpg
1489.838	1.705	1	generate	Run2	generate/STIM_024.jpg
1495.196	0.925	1	repeat	Run2	repeat/STIM_000.jpg
1499.015	0.932	1	repeat	Run2	repeat/STIM_000.jpg
1503.309	1.023	0	repeat	Run2	repeat/STIM_000.jpg
1507.717	0.768	1	repeat	Run2	repeat/STIM_000.jpg
1512.41	0.856	1	repeat	Run2	repeat/STIM_000.jpg
1516.736	1.059	1	repeat	Run2	repeat/STIM_001.jpg
1520.071	0.934	1	repeat	Run2	repeat/STIM_001.jpg
1524.276	0.686	1	repeat	Run2	repeat/STIM_001.jpg
1528.409	0.651	1	repeat	Run2	repeat/STIM_001.jpg
1531.756	0.578	1	repeat	Run2	repeat/STIM_001.jpg
1534.567	0.968	1	repeat	Run2	repeat/STIM_002.jpg
1539.517	0.712	1	repeat	Run2	repeat/STIM_002.jpg
1543.942	0.607	0	repeat	Run2	repeat/STIM_002.jpg
1547.534	0.652	1	repeat	Run2	repeat/STIM_002.jpg
1550.594	0.605	1	repeat	Run2	repeat/STIM_002.jpg
1555.092	0.628	1	repeat	Run2	repeat/STIM_003.jpg
1558.434	0.613	1	repeat	Run2	repeat/STIM_003.jpg
1562.375	1.047	0	repeat	Run2	repeat/STIM_003.jpg
1566.375	0.876	1	repeat	Run2	repeat/STIM_003.jpg
1570.779	1.035	1	repeat	Run2	repeat/STIM_003.jpg
1574.771	0.558	1	repeat	Run2	repeat/STIM_004.jpg
1578.219	0.544	1	repeat	Run2	repeat/STIM_004.jpg
1582.003	0.782	1	repeat	Run2	repeat/STIM_004.jpg
1585.697	0.955	1	repeat	Run2	repeat/STIM_004.jpg
1590.018	1.049	1	repeat	Run2	repeat/STIM_004.jpg
1593.161	0.883	1	repeat	Run2	repeat/STIM_005.jpg
1596.168	0.953	1	repeat	Run2	repeat/STIM_005.jpg
1600.209	0.604	1	repeat	Run2	repeat/STIM_005.jpg
1602.993	1.001	1	repeat	Run2	repeat/STIM_005.jpg
1606.325	0.576	1	repeat	Run2	repeat/STIM_005.jpg
1609.888	0.805	1	repeat	Run2	repeat/STIM_006.jpg
1612.974	0.838	1	repeat	Run2	repeat/STIM_006.jpg
1617.038	0.54	1	repeat	Run2	repeat/STIM_006.jpg
1621.404	1.031	1	repeat	Run2	repeat/STIM_006.jpg
1624.775	0.937	1	repeat	Run2	repeat/STIM_006.jpg
1628.089	1.016	1	repeat	Run2	repeat/STIM_007.jpg
1632.521	1.054	1	repeat	Run2	repeat/STIM_007.jpg
1637.412	0.819	1	repeat	Run2	repeat/STIM_007.jpg
1640.497	0.78	1	repeat	Run2	repeat/STIM_007.jpg
1643.81	0.542	1	repeat	Run2	repeat/STIM_007.jpg
1646.398	0.659	1	repeat	Run2	repeat/STIM_008.jpg
1649.776	0.754	1	repeat	Run2	repeat/STIM_008.jpg
1654.075	0.949	1	repeat	Run2	repeat/STIM_008.jpg
1657.429	0.893	1	repeat	Run2	repeat/STIM_008.jpg
1661.346	0.739	1	repeat	Run2	repeat/STIM_008.jpg
1664.533	1.068	0	repeat	Run2	repeat/STIM_009.jpg
1669.406	0.668	1	repeat	Run2	repeat/STIM_009.jpg
1673.827	0.617	1	repeat	Run2	repeat/STIM_009.jpg
1677.934	0.938	1	repeat	Run2	repeat/STIM_009.jpg
1681.696	0.735	1	repeat	Run2	repeat/STIM_009.jpg
1684.763	0.572	1	repeat	Run2	repeat/STIM_010.jpg
1687.598	0.996	1	repeat	Run2	repeat/STIM_010.jpg
1691.018	0.573	1	repeat	Run2	repeat/STIM_010.jpg
1694.483	1.002	1	repeat	Run2	repeat/STIM_010.jpg
1698.517	0.921	1	repeat	Run2	repeat/STIM_010.jpg
1701.96	0.672	1	repeat	Run2	repeat/STIM_011.jpg
1704.762	0.668	1	repeat	Run2	repeat/STIM_011.jpg
1708.266	1.034	1	repeat	Run2	repeat/STIM_011.jpg
1713.206	0.855	1	repeat	Run2	repeat/STIM_011.jpg
1716.348	0.757	0	repeat	Run2	repeat/STIM_011.jpg
1720.279	0.81	1	repeat	Run2	repeat/STIM_012.jpg
1723.115	1.062	1	repeat	Run2	repeat/STIM_012.jpg
1728.013	1.018	0	repeat	Run2	repeat/STIM_012.jpg
1731.513	0.935	1	repeat	Run2	repeat/STIM_012.jpg
1734.857	0.684	0	repeat	Run2	repeat/STIM_012.jpg
1738.43	0.639	1	repeat	Run2	repeat/STIM_013.jpg
1741.573	0.837	1	repeat	Run2	repeat/STIM_013.jpg
1745.223	0.58	1	repeat	Run2	repeat/STIM_013.jpg
1748.001	0.639	1	repeat	Run2	repeat/STIM_013.jpg
1751.572	0.897	1	repeat	Run2	repeat/STIM_013.jpg
1754.822	0.743	1	repeat	Run2	repeat/STIM_014.jpg
1759.369	0.968	1	repeat	Run2	repeat/STIM_014.jpg
1762.748	0.77	1	repeat	Run2	repeat/STIM_014.jpg
1765.739	0.957	1	repeat	Run2	repeat/STIM_014.jpg
1769.825	0.987	1	repeat	Run2	repeat/STIM_014.jpg
1774.039	1.061	1	generate	Run3	generate/STIM_000.jpg
1777.334	2.233	1	generate	Run3	generate/STIM_000.jpg
1782.59	1.298	1	generate	Run3	generate/STIM_000.jpg
1787.34	1.003	1	generate	Run3	generate/STIM_000.jpg
1792.274	1.418	1	generate	Run3	generate/STIM_000.jpg
1797.504	2.218	0	generate	Run3	generate/STIM_001.jpg
1801.812	1.544	0	generate	Run3	generate/STIM_001.jpg
1805.821	1.233	1	generate	Run3	generate/STIM_001.jpg
1810.731	0.986	1	generate	Run3	generate/STIM_001.jpg
1814.678	1.107	1	generate	Run3	generate/STIM_001.jpg
1818.303	0.947	1	generate	Run3	generate/STIM_002.jpg
1822.25	1.434	1	generate	Run3	generate/STIM_002.jpg
1827.662	0.996	1	generate	Run3	generate/STIM_002.jpg
1832.137	1.928	1	generate	Run3	generate/STIM_002.jpg
1837.205	1.358	1	generate	Run3	generate/STIM_002.jpg
1841.812	2.219	1	generate	Run3	generate/STIM_003.jpg
1847.78	1.937	0	generate	Run3	generate/STIM_003.jpg
1851.919	2.181	1	generate	Run3	generate/STIM_003.jpg
1856.847	2.045	1	generate	Run3	generate/STIM_003.jpg
1862.047	1.606	1	generate	Run3	generate/STIM_003.jpg
1866.069	1.276	1	generate	Run3	generate/STIM_004.jpg
1869.518	1.729	1	generate	Run3	generate/STIM_004.jpg
1874.462	1.703	1	generate	Run3	generate/STIM_004.jpg
1878.946	1.465	1	generate	Run3	generate/STIM_004.jpg
1884.03	0.979	1	generate	Run3	generate/STIM_004.jpg
1888.235	1.476	1	generate	Run3	generate/STIM_005.jpg
1893.518	1.985	1	generate	Run3	generate/STIM_005.jpg
1897.65	1.373	1	generate	Run3	generate/STIM_005.jpg
1902.995	1.293	0	generate	Run3	generate/STIM_005.jpg
1907.075	2.12	0	generate	Run3	generate/STIM_005.jpg
1913.099	2.001	0	generate	Run3	generate/STIM_006.jpg
1918.257	1.987	1	generate	Run3	generate/STIM_006.jpg
1923.901	1.164	1	generate	Run3	generate/STIM_006.jpg
1928.064	1.689	1	generate	Run3	generate/STIM_006.jpg
1932.754	1.666	1	generate	Run3	generate/STIM_006.jpg
1936.99	1.342	0	generate	Run3	generate/STIM_007.jpg
1940.722	0.912	1	generate	Run3	generate/STIM_007.jpg
1943.665	1.246	1	generate	Run3	generate/STIM_007.jpg
1946.929	2.03	1	generate	Run3	generate/STIM_007.jpg
1952.119	1.115	1	generate	Run3	generate/STIM_007.jpg
1956.127	0.95	1	generate	Run3	generate/STIM_008.jpg
1960.575	1.684	1	generate	Run3	generate/STIM_008.jpg
1964.447	1.94	1	generate	Run3	generate/STIM_008.jpg
1968.851	1.079	0	generate	Run3	generate/STIM_008.jpg
1973.113	2.15	1	generate	Run3	generate/STIM_008.jpg
1977.289	1.979	0	generate	Run3	generate/STIM_009.jpg
1982.714	1.642	1	generate	Run3	generate/STIM_009.jpg
1987.468	1.931	0	generate	Run3	generate/STIM_009.jpg
1993.183	2.11	1	generate	Run3	generate/STIM_009.jpg
1997.8	1.062	1	generate	Run3	generate/STIM_009.jpg
2002.178	1.684	1	generate	Run3	generate/STIM_010.jpg
2006.613	1.979	1	generate	Run3	generate/STIM_010.jpg
2010.926	1.768	0	generate	Run3	generate/STIM_010.jpg
2015.4	2.192	1	generate	Run3	generate/STIM_010.jpg
2021.381	1.466	0	generate	Run3	generate/STIM_010.jpg
2025.89	1.502	1	generate	Run3	generate/STIM_011.jpg
2030.755	1.556	1	generate	Run3	generate/STIM_011.jpg
2036.165	1.114	1	generate	Run3	generate/STIM_011.jpg
2039.848	2.192	1	generate	Run3	generate/STIM_011.jpg
2045.458	2.037	1	generate	Run3	generate/STIM_011.jpg
2050.897	1.515	0	generate	Run3	generate/STIM_012.jpg
2054.699	2.007	1	generate	Run3	generate/STIM_012.jpg
2058.885	1.884	1	generate	Run3	generate/STIM_012.jpg
2063.82	1.828	1	generate	Run3	generate/STIM_012.jpg
2068.842	1.904	0	generate	Run3	generate/STIM_012.jpg
2073.575	1.443	1	generate	Run3	generate/STIM_013.jpg
2077.118	1.01	1	generate	Run3	generate/STIM_013.jpg
2081.411	1.073	1	generate	Run3	generate/STIM_013.jpg
2086.243	1.572	1	generate	Run3	generate/STIM_013.jpg
2091.495	2.197	1	generate	Run3	generate/STIM_013.jpg
2095.816	1.467	1	generate	Run3	generate/STIM_014.jpg
2100.907	1.698	1	generate	Run3	generate/STIM_014.jpg
2105.606	1.901	1	generate	Run3	generate/STIM_014.jpg
2111.168	1.503	1	generate	Run3	generate/STIM_014.jpg
2116.057	0.968	1	generate	Run3	generate/STIM_014.jpg
2119.072	1.31	0	generate	Run3	generate/STIM_015.jpg
2124.043	1.496	1	generate	Run3	generate/STIM_015.jpg
2128.407	1.928	1	generate	Run3	generate/STIM_015.jpg
2133.907	2.243	1	generate	Run3	generate/STIM_015.jpg
2139.773	1.837	1	generate	Run3	generate/STIM_015.jpg
2144.674	1.427	1	generate	Run3	generate/STIM_016.jpg
2148.987	1.186	1	generate	Run3	generate/STIM_016.jpg
2152.616	1.858	1	generate	Run3	generate/STIM_016.jpg
2156.968	1.417	1	generate	Run3	generate/STIM_016.jpg
2160.578	0.91	1	generate	Run3	generate/STIM_016.jpg
2165.297	1.676	0	generate	Run3	generate/STIM_017.jpg
2169.156	1.432	1	generate	Run3	generate/STIM_017.jpg
2172.812	1.474	1	generate	Run3	generate/STIM_017.jpg
2176.762	1.437	1	generate	Run3	generate/STIM_017.jpg
2180.314	1.332	1	generate	Run3	generate/STIM_017.jpg
2183.729	1.517	1	generate	Run3	generate/STIM_018.jpg
2188.03	1.132	1	generate	Run3	generate/STIM_018.jpg
2192.398	2.152	1	generate	Run3	generate/STIM_018.jpg
2198.045	1.175	1	generate	Run3	generate/STIM_018.jpg
2202.25	1.445	1	generate	Run3	generate/STIM_018.jpg
2207.549	1.279	1	generate	Run3	generate/STIM_019.jpg
2211.397	1.718	1	generate	Run3	generate/STIM_019.jpg
2215.882	2.129	1	generate	Run3	generate/STIM_019.jpg
2220.277	1.572	0	generate	Run3	generate/STIM_019.jpg
2224.448	1.111	1	generate	Run3	generate/STIM_019.jpg
2227.9	1.356	0	generate	Run3	generate/STIM_020.jpg
2231.811	1.474	1	generate	Run3	generate/STIM_020.jpg
2235.974	1.214	1	generate	Run3	generate/STIM_020.jpg
2240.314	2.039	0	generate	Run3	generate/STIM_020.jpg
2245.235	1.171	1	generate	Run3	generate/STIM_020.jpg
2249.405	2.229	1	generate	Run3	generate/STIM_021.jpg
2254.835	1.989	1	generate	Run3	generate/STIM_021.jpg
2259.437	1.327	0	generate	Run3	generate/STIM_021.jpg
2263.689	2.202	1	generate	Run3	generate/STIM_021.jpg
2268.905	0.953	1	generate	Run3	generate/STIM_021.jpg
2272.492	2.15	1	generate	Run3	generate/STIM_022.jpg
2278.621	2.241	1	generate	Run3	generate/STIM_022.jpg
2283.452	1.381	1	generate	Run3	generate/STIM_022.jpg
2287.59	1.708	1	generate	Run3	generate/STIM_022.jpg
2291.726	1.861	1	generate	Run3	generate/STIM_022.jpg
2295.628	1.144	1	generate	Run3	generate/STIM_023.jpg
2300.733	1.332	1	generate	Run3	generate/STIM_023.jpg
2304.332	1.903	1	generate	Run3	generate/STIM_023.jpg
2309.821	1.933	1	generate	Run3	generate/STIM_023.jpg
2315.098	1.892	0	generate	Run3	generate/STIM_023.jpg
2320.943	0.916	1	generate	Run3	generate/STIM_024.jpg
2325.694	1.03	1	generate	Run3	generate/STIM_024.jpg
2330.686	0.976	0	generate	Run3	generate/STIM_024.jpg
2333.875	2.047	1	generate	Run3	generate/STIM_024.jpg
2338.654	1.574	1	generate	Run3	generate/STIM_024.jpg
2343.644	0.591	1	repeat	Run3	repeat/STIM_000.jpg
2347.459	0.99	1	repeat	Run3	repeat/STIM_000.jpg
2351.251	0.875	1	repeat	Run3	repeat/STIM_000.jpg
2355.916	0.884	1	repeat	Run3	repeat/STIM_000.jpg
2359.904	0.671	1	repeat	Run3	repeat/STIM_000.jpg
2362.83	0.959	1	repeat	Run3	repeat/STIM_001.jpg
2366.026	0.894	1	repeat	Run3	repeat/STIM_001.jpg
2369.812	0.902	0	repeat	Run3	repeat/STIM_001.jpg
2372.97	0.718	1	repeat	Run3	repeat/STIM_001.jpg
2376.749	0.668	1	repeat	Run3	repeat/STIM_001.jpg
2379.725	0.814	1	repeat	Run3	repeat/STIM_002.jpg
2383.894	1.055	1	repeat	Run3	repeat/STIM_002.jpg
2387.615	0.813	1	repeat	Run3	repeat/STIM_002.jpg
2390.458	0.737	1	repeat	Run3	repeat/STIM_002.jpg
2393.252	0.831	1	repeat	Run3	repeat/STIM_002.jpg
2396.15	0.765	1	repeat	Run3	repeat/STIM_003.jpg
2399.452	0.916	1	repeat	Run3	repeat/STIM_003.jpg
2403.061	0.716	1	repeat	Run3	repeat/STIM_003.jpg
2407.564	0.9	1	repeat	Run3	repeat/STIM_003.jpg
2411.863	0.667	1	repeat	Run3	repeat/STIM_003.jpg
2414.676	0.553	0	repeat	Run3	repeat/STIM_004.jpg
2418.242	0.669	1	repeat	Run3	repeat/STIM_004.jpg
2421.131	0.729	0	repeat	Run3	repeat/STIM_004.jpg
2424.804	0.681	0	repeat	Run3	repeat/STIM_004.jpg
2428.851	0.976	1	repeat	Run3	repeat/STIM_004.jpg
2433.666	0.696	1	repeat	Run3	repeat/STIM_005.jpg
2436.724	0.608	1	repeat	Run3	repeat/STIM_005.jpg
2441.147	0.683	1	repeat	Run3	repeat/STIM_005.jpg
2444.905	0.874	1	repeat	Run3	repeat/STIM_005.jpg
2448.219	0.696	1	repeat	Run3	repeat/STIM_005.jpg
2452.029	0.94	1	repeat	Run3	repeat/STIM_006.jpg
2456.278	0.918	1	repeat	Run3	repeat/STIM_006.jpg
2460.736	0.549	1	repeat	Run3	repeat/STIM_006.jpg
2464.252	0.917	1	repeat	Run3	repeat/STIM_006.jpg
2468.73	0.799	1	repeat	Run3	repeat/STIM_006.jpg
2472.747	0.693	1	repeat	Run3	repeat/STIM_007.jpg
2475.879	0.799	1	repeat	Run3	repeat/STIM_007.jpg
2479.225	0.878	1	repeat	Run3	repeat/STIM_007.jpg
2483.33	0.957	1	repeat	Run3	repeat/STIM_007.jpg
2487.544	0.84	1	repeat	Run3	repeat/STIM_007.jpg
2491.556	0.565	1	repeat	Run3	repeat/STIM_008.jpg
2495.183	0.834	1	repeat	Run3	repeat/STIM_008.jpg
2499.101	0.817	0	repeat	Run3	repeat/STIM_008.jpg
2503.019	0.641	1	repeat	Run3	repeat/STIM_008.jpg
2506.825	0.964	1	repeat	Run3	repeat/STIM_008.jpg
2511.05	1.064	1	repeat	Run3	repeat/STIM_009.jpg
2516.018	0.883	1	repeat	Run3	repeat/STIM_009.jpg
2520.681	1.026	1	repeat	Run3	repeat/STIM_009.jpg
2524.216	0.609	1	repeat	Run3	repeat/STIM_009.jpg
2527.864	0.781	1	repeat	Run3	repeat/STIM_009.jpg
2532.037	0.587	1	repeat	Run3	repeat/STIM_010.jpg
2536.299	0.589	1	repeat	Run3	repeat/STIM_010.jpg
2539.733	0.64	1	repeat	Run3	repeat/STIM_010.jpg
2542.395	0.746	1	repeat	Run3	repeat/STIM_010.jpg
2546.921	0.592	1	repeat	Run3	repeat/STIM_010.jpg
2550.437	0.644	1	repeat	Run3	repeat/STIM_011.jpg
2553.147	0.838	1	repeat	Run3	repeat/STIM_011.jpg
2557.75	0.731	1	repeat	Run3	repeat/STIM_011.jpg
2562.124	0.614	1	repeat	Run3	repeat/STIM_011.jpg
2566.015	0.788	1	repeat	Run3	repeat/STIM_011.jpg
2569.878	0.537	1	repeat	Run3	repeat/STIM_012.jpg
2573.887	0.738	1	repeat	Run3	repeat/STIM_012.jpg
2577.885	1.0	1	repeat	Run3	repeat/STIM_012.jpg
2580.921	0.605	0	repeat	Run3	repeat/STIM_012.jpg
2584.738	0.558	0	repeat	Run3	repeat/STIM_012.jpg
2587.711	0.969	1	repeat	Run3	repeat/STIM_013.jpg
2591.6	0.849	1	repeat	Run3	repeat/STIM_013.jpg
2595.336	0.837	1	repeat	Run3	repeat/STIM_013.jpg
2599.86	0.6	0	repeat	Run3	repeat/STIM_013.jpg
2604.419	0.999	1	repeat	Run3	repeat/STIM_013.jpg
2609.332	0.797	1	repeat	Run3	repeat/STIM_014.jpg
2613.496	0.595	1	repeat	Run3	repeat/STIM_014.jpg
2617.39	0.546	1	repeat	Run3	repeat/STIM_014.jpg
2620.578	0.855	0	repeat	Run3	repeat/STIM_014.jpg
2623.949	0.665	1	repeat	Run3	repeat/STIM_014.jpg
2627.544	1.797	1	generate	Run4	generate/STIM_000.jpg
2633.087	1.922	1	generate	Run4	generate/STIM_000.jpg
2638.801	1.772	1	generate	Run4	generate/STIM_000.jpg
2643.101	1.799	1	generate	Run4	generate/STIM_000.jpg
2648.038	1.68	1	generate	Run4	generate/STIM_000.jpg
2652.765	2.078	1	generate	Run4	generate/STIM_001.jpg
2658.489	1.094	1	generate	Run4	generate/STIM_001.jpg
2662.459	2.064	1	generate	Run4	generate/STIM_001.jpg
2668.353	1.165	1	generate	Run4	generate/STIM_001.jpg
2671.699	2.245	1	generate	Run4	generate/STIM_001.jpg
2676.515	1.44	1	generate	Run4	generate/STIM_002.jpg
2681.756	1.525	1	generate	Run4	generate/STIM_002.jpg
2685.614	1.929	1	generate	Run4	generate/STIM_002.jpg
2690.626	1.633	1	generate	Run4	generate/STIM_002.jpg
2695.055	2.09	0	generate	Run4	generate/STIM_002.jpg
2700.259	2.016	1	generate	Run4	generate/STIM_003.jpg
2705.478	1.6	1	generate	Run4	generate/STIM_003.jpg
2709.21	1.926	1	generate	Run4	generate/STIM_003.jpg
2713.154	1.676	1	generate	Run4	generate/STIM_003.jpg
2718.19	1.631	1	generate	Run4	generate/STIM_003.jpg
2722.36	1.519	1	generate	Run4	generate/STIM_004.jpg
2727.447	1.986	1	generate	Run4	generate/STIM_004.jpg
2731.761	1.828	1	generate	Run4	generate/STIM_004.jpg
2736.413	2.144	1	generate	Run4	generate/STIM_004.jpg
2742.315	1.293	1	generate	Run4	generate/STIM_004.jpg
2747.063	2.073	1	generate	Run4	generate/STIM_005.jpg
2751.46	1.841	0	generate	Run4	generate/STIM_005.jpg
2756.57	1.033	1	generate	Run4	generate/STIM_005.jpg
2760.0	0.957	1	generate	Run4	generate/STIM_005.jpg
2763.326	1.273	1	generate	Run4	generate/STIM_005.jpg
2767.366	1.556	1	generate	Run4	generate/STIM_006.jpg
2772.74	1.749	1	generate	Run4	generate/STIM_006.jpg
2777.678	1.315	1	generate	Run4	generate/STIM_006.jpg
2782.006	1.541	1	generate	Run4	generate/STIM_006.jpg
2786.887	1.772	1	generate	Run4	generate/STIM_006.jpg
2792.059	1.64	1	generate	Run4	generate/STIM_007.jpg
2797.07	1.667	1	generate	Run4	generate/STIM_007.jpg
2802.314	0.924	1	generate	Run4	generate/STIM_007.jpg
2805.594	1.358	0	generate	Run4	generate/STIM_007.jpg
2810.568	1.762	1	generate	Run4	generate/STIM_007.jpg
2815.19	1.99	1	generate	Run4	generate/STIM_008.jpg
2820.621	1.315	1	generate	Run4	generate/STIM_008.jpg
2824.858	1.074	1	generate	Run4	generate/STIM_008.jpg
2828.816	1.111	1	generate	Run4	generate/STIM_008.jpg
2833.873	0.904	1	generate	Run4	generate/STIM_008.jpg
2837.472	1.358	0	generate	Run4	generate/STIM_009.jpg
2842.615	1.046	1	generate	Run4	generate/STIM_009.jpg
2846.592	1.421	1	generate	Run4	generate/STIM_009.jpg
2850.705	1.735	1	generate	Run4	generate/STIM_009.jpg
2855.952	1.247	1	generate	Run4	generate/STIM_009.jpg
2859.646	2.216	0	generate	Run4	generate/STIM_010.jpg
2864.96	1.891	1	generate	Run4	generate/STIM_010.jpg
2869.394	2.147	1	generate	Run4	generate/STIM_010.jpg
2875.134	1.409	1	generate	Run4	generate/STIM_010.jpg
2879.17	2.202	1	generate	Run4	generate/STIM_010.jpg
2883.398	1.14	1	generate	Run4	generate/STIM_011.jpg
2888.371	1.897	0	generate	Run4	generate/STIM_011.jpg
2892.895	2.215	1	generate	Run4	generate/STIM_011.jpg
2898.865	1.083	1	generate	Run4	generate/STIM_011.jpg
2903.465	1.917	1	generate	Run4	generate/STIM_011.jpg
2908.298	1.53	1	generate	Run4	generate/STIM_012.jpg
2912.14	1.95	1	generate	Run4	generate/STIM_012.jpg
2917.772	2.174	1	generate	Run4	generate/STIM_012.jpg
2922.681	1.515	0	generate	Run4	generate/STIM_012.jpg
2926.663	1.796	1	generate	Run4	generate/STIM_012.jpg
2932.096	0.989	1	generate	Run4	generate/STIM_013.jpg
2936.47	1.592	1	generate	Run4	generate/STIM_013.jpg
2940.354	1.786	1	generate	Run4	generate/STIM_013.jpg
2944.557	1.061	1	generate	Run4	generate/STIM_013.jpg
2948.474	0.936	1	generate	Run4	generate/STIM_013.jpg
2952.176	1.578	1	generate	Run4	generate/STIM_014.jpg
2957.752	1.757	1	generate	Run4	generate/STIM_014.jpg
2961.871	1.198	1	generate	Run4	generate/STIM_014.jpg
2965.821	1.709	1	generate	Run4	generate/STIM_014.jpg
2970.341	1.494	1	generate	Run4	generate/STIM_014.jpg
2974.48	2.173	0	generate	Run4	generate/STIM_015.jpg
2980.488	1.954	1	generate	Run4	generate/STIM_015.jpg
2985.129	1.918	1	generate	Run4	generate/STIM_015.jpg
2989.112	1.788	1	generate	Run4	generate/STIM_015.jpg
2992.988	1.264	1	generate	Run4	generate/STIM_015.jpg
2998.178	1.239	1	generate	Run4	generate/STIM_016.jpg
3003.365	1.205	1	generate	Run4	generate/STIM_016.jpg
3007.656	2.039	1	generate	Run4	generate/STIM_016.jpg
3011.786	1.728	1	generate	Run4	generate/STIM_016.jpg
3015.653	2.049	1	generate	Run4	generate/STIM_016.jpg
3020.308	2.142	1	generate	Run4	generate/STIM_017.jpg
3026.238	1.311	1	generate	Run4	generate/STIM_017.jpg
3029.614	1.868	1	generate	Run4	generate/STIM_017.jpg
3033.991	0.927	1	generate	Run4	generate/STIM_017.jpg
3036.943	1.123	1	generate	Run4	generate/STIM_017.jpg
3040.428	2.044	1	generate	Run4	generate/STIM_018.jpg
3045.436	1.101	0	generate	Run4	generate/STIM_018.jpg
3049.267	1.025	1	generate	Run4	generate/STIM_018.jpg
3053.528	1.044	1	generate	Run4	generate/STIM_018.jpg
3057.957	2.163	1	generate	Run4	generate/STIM_018.jpg
3062.674	1.393	1	generate	Run4	generate/STIM_019.jpg
3067.054	1.58	1	generate	Run4	generate/STIM_019.jpg
3071.347	2.225	1	generate	Run4	generate/STIM_019.jpg
3076.331	1.529	1	generate	Run4	generate/STIM_019.jpg
3081.189	2.025	1	generate	Run4	generate/STIM_019.jpg
3085.986	1.898	1	generate	Run4	generate/STIM_020.jpg
3091.402	1.946	1	generate	Run4	generate/STIM_020.jpg
3095.746	1.785	1	generate	Run4	generate/STIM_020.jpg
3100.821	0.97	1	generate	Run4	generate/STIM_020.jpg
3104.928	1.463	1	generate	Run4	generate/STIM_020.jpg
3109.45	1.037	1	generate	Run4	generate/STIM_021.jpg
3114.347	1.105	1	generate	Run4	generate/STIM_021.jpg
3118.966	1.159	1	generate	Run4	generate/STIM_021.jpg
3123.566	1.042	1	generate	Run4	generate/STIM_021.jpg
3128.228	1.99	1	generate	Run4	generate/STIM_021.jpg
3133.596	1.743	0	generate	Run4	generate/STIM_022.jpg
3137.674	1.009	1	generate	Run4	generate/STIM_022.jpg
3141.208	2.005	1	generate	Run4	generate/STIM_022.jpg
3146.505	1.581	1	generate	Run4	generate/STIM_022.jpg
3150.304	1.91	1	generate	Run4	generate/STIM_022.jpg
3155.297	1.573	1	generate	Run4	generate/STIM_023.jpg
3159.409	1.986	1	generate	Run4	generate/STIM_023.jpg
3164.161	1.907	1	generate	Run4	generate/STIM_023.jpg
3168.402	1.202	1	generate	Run4	generate/STIM_023.jpg
3172.821	1.672	1	generate	Run4	generate/STIM_023.jpg
3177.623	1.687	1	generate	Run4	generate/STIM_024.jpg
3182.067	1.257	0	generate	Run4	generate/STIM_024.jpg
3185.944	1.628	1	generate	Run4	generate/STIM_024.jpg
3190.095	1.644	1	generate	Run4	generate/STIM_024.jpg
3194.524	0.93	1	generate	Run4	generate/STIM_024.jpg
3198.544	0.909	0	repeat	Run4	repeat/STIM_000.jpg
3203.376	0.917	1	repeat	Run4	repeat/STIM_000.jpg
3207.848	0.781	1	repeat	Run4	repeat/STIM_000.jpg
3211.246	0.749	1	repeat	Run4	repeat/STIM_000.jpg
3215.935	0.722	0	repeat	Run4	repeat/STIM_000.jpg
3219.098	0.877	1	repeat	Run4	repeat/STIM_001.jpg
3222.553	1.044	1	repeat	Run4	repeat/STIM_001.jpg
3226.2	0.801	1	repeat	Run4	repeat/STIM_001.jpg
3230.434	0.93	0	repeat	Run4	repeat/STIM_001.jpg
3234.926	0.742	1	repeat	Run4	repeat/STIM_001.jpg
3238.37	0.635	1	repeat	Run4	repeat/STIM_002.jpg
3241.857	1.048	1	repeat	Run4	repeat/STIM_002.jpg
3245.967	1.064	0	repeat	Run4	repeat/STIM_002.jpg
3249.361	1.009	1	repeat	Run4	repeat/STIM_002.jpg
3253.198	0.55	1	repeat	Run4	repeat/STIM_002.jpg
3257.432	0.8	1	repeat	Run4	repeat/STIM_003.jpg
3262.094	0.89	1	repeat	Run4	repeat/STIM_003.jpg
3265.642	0.585	1	repeat	Run4	repeat/STIM_003.jpg
3268.415	0.596	1	repeat	Run4	repeat/STIM_003.jpg
3272.084	0.969	1	repeat	Run4	repeat/STIM_003.jpg
3276.321	0.61	1	repeat	Run4	repeat/STIM_004.jpg
3279.316	0.555	1	repeat	Run4	repeat/STIM_004.jpg
3283.281	1.064	1	repeat	Run4	repeat/STIM_004.jpg
3288.284	0.806	1	repeat	Run4	repeat/STIM_004.jpg
3291.224	0.965	1	repeat	Run4	repeat/STIM_004.jpg
3295.117	0.835	1	repeat	Run4	repeat/STIM_005.jpg
3299.067	0.737	1	repeat	Run4	repeat/STIM_005.jpg
3303.14	0.857	1	repeat	Run4	repeat/STIM_005.jpg
3307.624	1.047	1	repeat	Run4	repeat/STIM_005.jpg
3311.383	0.846	1	repeat	Run4	repeat/STIM_005.jpg
3314.322	0.931	1	repeat	Run4	repeat/STIM_006.jpg
3317.335	1.045	1	repeat	Run4	repeat/STIM_006.jpg
3322.145	0.781	1	repeat	Run4	repeat/STIM_006.jpg
3325.844	0.951	1	repeat	Run4	repeat/STIM_006.jpg
3330.029	0.651	0	repeat	Run4	repeat/STIM_006.jpg
3334.041	0.778	1	repeat	Run4	repeat/STIM_007.jpg
3338.749	0.54	1	repeat	Run4	repeat/STIM_007.jpg
3342.353	1.0	1	repeat	Run4	repeat/STIM_007.jpg
3346.881	0.68	1	repeat	Run4	repeat/STIM_007.jpg
3351.318	0.808	1	repeat	Run4	repeat/STIM_007.jpg
3354.898	0.733	1	repeat	Run4	repeat/STIM_008.jpg
3359.21	0.758	1	repeat	Run4	repeat/STIM_008.jpg
3363.378	0.838	1	repeat	Run4	repeat/STIM_008.jpg
3367.017	0.789	1	repeat	Run4	repeat/STIM_008.jpg
3371.266	0.986	1	repeat	Run4	repeat/STIM_008.jpg
3375.023	0.553	1	repeat	Run4	repeat/STIM_009.jpg
3379.531	0.955	1	repeat	Run4	repeat/STIM_009.jpg
3383.42	0.782	1	repeat	Run4	repeat/STIM_009.jpg
3386.589	0.789	1	repeat	Run4	repeat/STIM_009.jpg
3389.397	0.886	1	repeat	Run4	repeat/STIM_009.jpg
3392.447	0.538	0	repeat	Run4	repeat/STIM_010.jpg
3396.908	0.889	1	repeat	Run4	repeat/STIM_010.jpg
3400.381	0.843	1	repeat	Run4	repeat/STIM_010.jpg
3405.079	0.721	0	repeat	Run4	repeat/STIM_010.jpg
3409.368	0.986	1	repeat	Run4	repeat/STIM_010.jpg
3414.093	0.828	1	repeat	Run4	repeat/STIM_011.jpg
3417.347	0.94	1	repeat	Run4	repeat/STIM_011.jpg
3421.256	0.99	1	repeat	Run4	repeat/STIM_011.jpg
3424.776	0.781	1	repeat	Run4	repeat/STIM_011.jpg
3427.662	0.664	1	repeat	Run4	repeat/STIM_011.jpg
3430.929	0.701	1	repeat	Run4	repeat/STIM_012.jpg
3434.383	1.062	1	repeat	Run4	repeat/STIM_012.jpg
3438.916	1.049	1	repeat	Run4	repeat/STIM_012.jpg
3443.366	1.02	1	repeat	Run4	repeat/STIM_012.jpg
3448.149	0.577	1	repeat	Run4	repeat/STIM_012.jpg
3452.642	0.969	1	repeat	Run4	repeat/STIM_013.jpg
3457.107	0.775	1	repeat	Run4	repeat/STIM_013.jpg
3460.034	0.842	1	repeat	Run4	repeat/STIM_013.jpg
3463.349	0.542	1	repeat	Run4	repeat/STIM_013.jpg
3466.719	0.673	1	repeat	Run4	repeat/STIM_013.jpg
3470.659	0.819	1	repeat	Run4	repeat/STIM_014.jpg
3474.73	0.934	1	repeat	Run4	repeat/STIM_014.jpg
3477.786	0.641	1	repeat	Run4	repeat/STIM_014.jpg
3480.458	0.906	1	repeat	Run4	repeat/STIM_014.jpg
3484.785	0.577	1	repeat	Run4	repeat/STIM_014.jpg
