onset	duration	response_time_ms	trial_type	learning_stage	stimulus	response_port
0.0	1.428	1428.5	generate	Run1	generate/STIM_000.jpg	100
4.221	2.8	2799.5	generate	Run1	generate/STIM_000.jpg	100
9.955	1.768	1767.6	generate	Run1	generate/STIM_000.jpg	100
14.449	2.239	2238.8	generate	Run1	generate/STIM_000.jpg	99
18.88	1.971	1970.6	generate	Run1	generate/STIM_000.jpg	99
24.82	2.313	2312.6	generate	Run1	generate/STIM_001.jpg	100
30.943	2.053	2052.7	generate	Run1	generate/STIM_001.jpg	100
35.591	1.836	1835.5	generate	Run1	generate/STIM_001.jpg	100
40.406	2.315	2314.8	generate	Run1	generate/STIM_001.jpg	99
45.299	2.207	2206.8	generate	Run1	generate/STIM_001.jpg	99
49.836	2.503	2502.8	generate	Run1	generate/STIM_002.jpg	99
55.248	1.316	1315.9	generate	Run1	generate/STIM_002.jpg	99
59.725	2.673	2673.2	generate	Run1	generate/STIM_002.jpg	100
65.585	2.085	2085.2	generate	Run1	generate/STIM_002.jpg	99
70.743	2.11	2110.5	generate	Run1	generate/STIM_002.jpg	99
76.463	1.479	1479.3	generate	Run1	generate/STIM_003.jpg	100
80.752	1.68	1679.7	generate	Run1	generate/STIM_003.jpg	100
85.495	1.849	1849.0	generate	Run1	generate/STIM_003.jpg	99
90.786	2.42	2420.5	generate	Run1	generate/STIM_003.jpg	100
96.527	2.508	2508.3	generate	Run1	generate/STIM_003.jpg	100
101.928	2.11	2110.3	generate	Run1	generate/STIM_004.jpg	100
106.214	2.801	2801.4	generate	Run1	generate/STIM_004.jpg	99
111.982	2.437	2436.9	generate	Run1	generate/STIM_004.jpg	100
117.441	2.201	2200.6	generate	Run1	generate/STIM_004.jpg	99
121.842	1.535	1534.9	generate	Run1	generate/STIM_004.jpg	100
126.956	1.449	1449.3	generate	Run1	generate/STIM_005.jpg	100
131.249	2.052	2052.0	generate	Run1	generate/STIM_005.jpg	100
136.475	2.184	2183.9	generate	Run1	generate/STIM_005.jpg	100
140.812	2.404	2404.2	generate	Run1	generate/STIM_005.jpg	99
145.338	2.317	2316.6	generate	Run1	generate/STIM_005.jpg	99
149.737	1.659	1658.6	generate	Run1	generate/STIM_006.jpg	99
153.87	1.884	1884.4	generate	Run1	generate/STIM_006.jpg	100
159.674	1.383	1383.3	generate	Run1	generate/STIM_006.jpg	100
163.895	2.64	2639.8	generate	Run1	generate/STIM_006.jpg	100
169.265	1.868	1868.4	generate	Run1	generate/STIM_006.jpg	99
174.077	1.536	1535.5	generate	Run1	generate/STIM_007.jpg	100
178.015	2.256	2255.7	generate	Run1	generate/STIM_007.jpg	100
182.678	2.333	2333.4	generate	Run1	generate/STIM_007.jpg	100
188.257	1.28	1279.8	generate	Run1	generate/STIM_007.jpg	100
191.583	1.658	1658.0	generate	Run1	generate/STIM_007.jpg	99
197.096	3.108	3108.1	generate	Run1	generate/STIM_008.jpg	100
203.586	1.289	1288.7	generate	Run1	generate/STIM_008.jpg	100
208.543	1.204	1204.5	generate	Run1	generate/STIM_008.jpg	100
213.024	1.132	1131.5	generate	Run1	generate/STIM_008.jpg	99
217.392	1.948	1948.1	generate	Run1	generate/STIM_008.jpg	100
222.048	1.992	1992.3	generate	Run1	generate/STIM_009.jpg	99
227.21	2.655	2655.0	generate	Run1	generate/STIM_009.jpg	100
233.488	2.35	2350.5	generate	Run1	generate/STIM_009.jpg	99
239.692	1.252	1252.4	generate	Run1	generate/STIM_009.jpg	100
243.306	2.016	2016.1	generate	Run1	generate/STIM_009.jpg	100
249.127	2.069	2069.4	generate	Run1	generate/STIM_010.jpg	100
254.917	2.489	2489.1	generate	Run1	generate/STIM_010.jpg	99
259.685	2.54	2539.6	generate	Run1	generate/STIM_010.jpg	99
266.164	2.083	2082.8	generate	Run1	generate/STIM_010.jpg	100
271.39	1.029	1028.7	generate	Run1	generate/STIM_010.jpg	100
274.484	3.021	3020.9	generate	Run1	generate/STIM_011.jpg	99
280.865	2.428	2427.6	generate	Run1	generate/STIM_011.jpg	100
285.502	2.035	2035.4	generate	Run1	generate/STIM_011.jpg	100
291.477	2.644	2644.1	generate	Run1	generate/STIM_011.jpg	99
296.332	1.12	1119.7	generate	Run1	generate/STIM_011.jpg	99
301.292	1.829	1829.2	generate	Run1	generate/STIM_012.jpg	99
306.397	2.128	2127.9	generate	Run1	generate/STIM_012.jpg	99
312.133	2.148	2147.7	generate	Run1	generate/STIM_012.jpg	100
317.763	1.972	1971.9	generate	Run1	generate/STIM_012.jpg	99
323.247	1.052	1051.6	generate	Run1	generate/STIM_012.jpg	100
327.75	1.871	1871.1	generate	Run1	generate/STIM_013.jpg	99
333.208	2.318	2318.1	generate	Run1	generate/STIM_013.jpg	100
338.216	1.372	1371.5	generate	Run1	generate/STIM_013.jpg	100
342.887	2.038	2038.4	generate	Run1	generate/STIM_013.jpg	99
347.174	1.851	1851.1	generate	Run1	generate/STIM_013.jpg	99
351.817	1.354	1353.9	generate	Run1	generate/STIM_014.jpg	99
356.856	2.107	2107.3	generate	Run1	generate/STIM_014.jpg	100
362.555	1.866	1865.6	generate	Run1	generate/STIM_014.jpg	100
367.795	2.156	2155.9	generate	Run1	generate/STIM_014.jpg	99
372.072	1.672	1672.5	generate	Run1	generate/STIM_014.jpg	99
376.242	2.404	2404.3	generate	Run1	generate/STIM_015.jpg	100
381.018	1.626	1626.3	generate	Run1	generate/STIM_015.jpg	100
385.601	2.862	2861.9	generate	Run1	generate/STIM_015.jpg	99
390.96	1.735	1734.8	generate	Run1	generate/STIM_015.jpg	99
396.331	2.083	2082.8	generate	Run1	generate/STIM_015.jpg	99
402.028	1.669	1669.1	generate	Run1	generate/STIM_016.jpg	100
407.489	1.37	1370.3	generate	Run1	generate/STIM_016.jpg	100
411.138	2.661	2660.7	generate	Run1	generate/STIM_016.jpg	100
417.441	2.342	2341.6	generate	Run1	generate/STIM_016.jpg	100
422.341	1.738	1738.3	generate	Run1	generate/STIM_016.jpg	99
426.393	2.534	2533.9	generate	Run1	generate/STIM_017.jpg	100
432.777	2.929	2928.9	generate	Run1	generate/STIM_017.jpg	99
438.686	2.746	2746.3	generate	Run1	generate/STIM_017.jpg	99
444.557	1.538	1537.9	generate	Run1	generate/STIM_017.jpg	99
449.772	2.452	2452.3	generate	Run1	generate/STIM_017.jpg	100
455.766	2.989	2989.2	generate	Run1	generate/STIM_018.jpg	100
461.49	1.356	1356.0	generate	Run1	generate/STIM_018.jpg	99
466.035	1.204	1204.3	generate	Run1	generate/STIM_018.jpg	100
470.057	1.594	1594.4	generate	Run1	generate/STIM_018.jpg	100
474.664	1.426	1425.8	generate	Run1	generate/STIM_018.jpg	99
479.394	2.655	2655.1	generate	Run1	generate/STIM_019.jpg	99
484.13	1.502	1502.5	generate	Run1	generate/STIM_019.jpg	100
489.498	1.575	1574.8	generate	Run1	generate/STIM_019.jpg	100
493.7	2.061	2060.8	generate	Run1	generate/STIM_019.jpg	100
499.04	2.348	2347.6	generate	Run1	generate/STIM_019.jpg	100
505.268	1.809	1808.9	generate	Run1	generate/STIM_020.jpg	99
510.73	1.357	1357.0	generate	Run1	generate/STIM_020.jpg	100
514.931	2.077	2077.2	generate	Run1	generate/STIM_020.jpg	99
519.472	1.315	1315.0	generate	Run1	generate/STIM_020.jpg	99
522.949	2.038	2037.5	generate	Run1	generate/STIM_020.jpg	100
527.957	2.347	2347.2	generate	Run1	generate/STIM_021.jpg	100
533.797	1.723	1723.0	generate	Run1	generate/STIM_021.jpg	100
537.637	1.522	1521.7	generate	Run1	generate/STIM_021.jpg	100
541.22	1.219	1218.8	generate	Run1	generate/STIM_021.jpg	100
545.729	1.961	1960.7	generate	Run1	generate/STIM_021.jpg	99
550.994	2.308	2307.9	generate	Run1	generate/STIM_022.jpg	99
555.562	1.328	1328.4	generate	Run1	generate/STIM_022.jpg	100
558.974	1.182	1181.9	generate	Run1	generate/STIM_022.jpg	99
563.301	2.551	2550.9	generate	Run1	generate/STIM_022.jpg	99
569.184	1.306	1305.8	generate	Run1	generate/STIM_022.jpg	100
573.434	2.697	2697.1	generate	Run1	generate/STIM_023.jpg	99
578.689	2.694	2693.5	generate	Run1	generate/STIM_023.jpg	100
585.132	2.352	2352.5	generate	Run1	generate/STIM_023.jpg	99
589.88	1.482	1482.0	generate	Run1	generate/STIM_023.jpg	99
593.71	1.742	1741.6	generate	Run1	generate/STIM_023.jpg	100
597.541	2.852	2851.7	generate	Run1	generate/STIM_024.jpg	99
602.803	1.598	1597.6	generate	Run1	generate/STIM_024.jpg	99
607.742	1.279	1278.8	generate	Run1	generate/STIM_024.jpg	99
612.077	1.627	1627.0	generate	Run1	generate/STIM_024.jpg	99
616.7	1.547	1547.2	generate	Run1	generate/STIM_024.jpg	99
620.627	0.697	697.0	repeat	Run1	repeat/STIM_000.jpg	100
625.063	0.854	854.5	repeat	Run1	repeat/STIM_000.jpg	99
627.925	0.971	970.7	repeat	Run1	repeat/STIM_000.jpg	99
632.691	0.994	993.5	repeat	Run1	repeat/STIM_000.jpg	100
637.415	0.724	724.0	repeat	Run1	repeat/STIM_000.jpg	100
640.344	0.781	781.0	repeat	Run1	repeat/STIM_001.jpg	99
643.501	0.79	790.2	repeat	Run1	repeat/STIM_001.jpg	99
646.966	0.924	924.1	repeat	Run1	repeat/STIM_001.jpg	99
650.825	0.692	692.5	repeat	Run1	repeat/STIM_001.jpg	100
653.606	0.537	537.4	repeat	Run1	repeat/STIM_001.jpg	99
656.575	0.702	701.5	repeat	Run1	repeat/STIM_002.jpg	99
660.502	0.78	779.5	repeat	Run1	repeat/STIM_002.jpg	99
663.433	0.989	989.0	repeat	Run1	repeat/STIM_002.jpg	99
667.347	0.933	933.2	repeat	Run1	repeat/STIM_002.jpg	99
671.609	0.794	793.7	repeat	Run1	repeat/STIM_002.jpg	99
676.272	0.806	806.3	repeat	Run1	repeat/STIM_003.jpg	100
680.261	1.052	1051.9	repeat	Run1	repeat/STIM_003.jpg	99
683.348	0.666	666.3	repeat	Run1	repeat/STIM_003.jpg	100
687.208	0.58	580.5	repeat	Run1	repeat/STIM_003.jpg	100
691.216	0.732	732.5	repeat	Run1	repeat/STIM_003.jpg	99
695.313	1.033	1032.9	repeat	Run1	repeat/STIM_004.jpg	99
700.214	1.013	1012.9	repeat	Run1	repeat/STIM_004.jpg	100
704.962	0.775	774.8	repeat	Run1	repeat/STIM_004.jpg	100
709.266	0.59	590.5	repeat	Run1	repeat/STIM_004.jpg	100
713.506	0.596	595.6	repeat	Run1	repeat/STIM_004.jpg	99
717.827	1.036	1036.3	repeat	Run1	repeat/STIM_005.jpg	100
721.674	0.902	902.3	repeat	Run1	repeat/STIM_005.jpg	99
726.303	0.844	844.3	repeat	Run1	repeat/STIM_005.jpg	100
731.084	0.536	535.7	repeat	Run1	repeat/STIM_005.jpg	99
734.891	0.692	691.9	repeat	Run1	repeat/STIM_005.jpg	99
737.763	0.556	555.9	repeat	Run1	repeat/STIM_006.jpg	100
740.495	1.029	1029.1	repeat	Run1	repeat/STIM_006.jpg	100
744.181	0.836	836.3	repeat	Run1	repeat/STIM_006.jpg	99
747.199	0.685	685.4	repeat	Run1	repeat/STIM_006.jpg	100
751.448	0.972	972.1	repeat	Run1	repeat/STIM_006.jpg	99
756.354	1.054	1054.3	repeat	Run1	repeat/STIM_007.jpg	100
761.246	0.852	851.7	repeat	Run1	repeat/STIM_007.jpg	100
764.365	0.843	843.0	repeat	Run1	repeat/STIM_007.jpg	100
767.41	0.883	882.8	repeat	Run1	repeat/STIM_007.jpg	99
771.237	0.58	580.3	repeat	Run1	repeat/STIM_007.jpg	100
774.693	0.938	937.5	repeat	Run1	repeat/STIM_008.jpg	100
779.334	0.941	940.6	repeat	Run1	repeat/STIM_008.jpg	100
783.847	0.858	857.5	repeat	Run1	repeat/STIM_008.jpg	100
788.17	0.805	804.7	repeat	Run1	repeat/STIM_008.jpg	100
792.097	0.653	653.4	repeat	Run1	repeat/STIM_008.jpg	100
795.796	0.583	582.6	repeat	Run1	repeat/STIM_009.jpg	100
798.953	0.554	553.6	repeat	Run1	repeat/STIM_009.jpg	99
802.234	0.796	795.8	repeat	Run1	repeat/STIM_009.jpg	99
806.694	0.791	790.9	repeat	Run1	repeat/STIM_009.jpg	99
811.128	1.032	1032.1	repeat	Run1	repeat/STIM_009.jpg	99
814.238	0.976	975.6	repeat	Run1	repeat/STIM_010.jpg	100
817.938	1.024	1024.4	repeat	Run1	repeat/STIM_010.jpg	100
821.139	0.856	855.6	repeat	Run1	repeat/STIM_010.jpg	99
824.314	0.63	629.6	repeat	Run1	repeat/STIM_010.jpg	99
828.379	1.055	1055.1	repeat	Run1	repeat/STIM_010.jpg	99
832.747	0.674	674.3	repeat	Run1	repeat/STIM_011.jpg	99
836.897	0.661	660.8	repeat	Run1	repeat/STIM_011.jpg	100
841.199	0.654	653.9	repeat	Run1	repeat/STIM_011.jpg	100
845.308	0.904	904.4	repeat	Run1	repeat/STIM_011.jpg	99
848.388	0.563	563.4	repeat	Run1	repeat/STIM_011.jpg	100
851.915	0.74	739.8	repeat	Run1	repeat/STIM_012.jpg	100
855.507	0.678	678.4	repeat	Run1	repeat/STIM_012.jpg	100
858.269	0.651	651.0	repeat	Run1	repeat/STIM_012.jpg	100
862.378	0.862	861.6	repeat	Run1	repeat/STIM_012.jpg	100
865.583	0.612	612.1	repeat	Run1	repeat/STIM_012.jpg	99
870.039	0.713	712.9	repeat	Run1	repeat/STIM_013.jpg	100
872.77	0.801	800.9	repeat	Run1	repeat/STIM_013.jpg	99
876.215	0.975	975.4	repeat	Run1	repeat/STIM_013.jpg	99
880.909	0.542	542.1	repeat	Run1	repeat/STIM_013.jpg	100
883.74	0.779	778.7	repeat	Run1	repeat/STIM_013.jpg	99
886.732	0.626	625.8	repeat	Run1	repeat/STIM_014.jpg	100
890.984	1.031	1030.7	repeat	Run1	repeat/STIM_014.jpg	100
894.117	0.64	639.7	repeat	Run1	repeat/STIM_014.jpg	100
897.162	0.61	609.5	repeat	Run1	repeat/STIM_014.jpg	100
900.813	0.952	952.5	repeat	Run1	repeat/STIM_014.jpg	100
904.86	2.679	2679.0	generate	Run2	generate/STIM_000.jpg	100
909.807	2.275	2274.9	generate	Run2	generate/STIM_000.jpg	100
915.078	2.388	2387.5	generate	Run2	generate/STIM_000.jpg	99
919.923	1.802	1802.5	generate	Run2	generate/STIM_000.jpg	99
924.493	1.962	1961.7	generate	Run2	generate/STIM_000.jpg	100
929.57	2.357	2356.8	generate	Run2	generate/STIM_001.jpg	100
934.618	2.132	2131.7	generate	Run2	generate/STIM_001.jpg	99
939.969	2.312	2312.4	generate	Run2	generate/STIM_001.jpg	100
946.046	1.561	1561.1	generate	Run2	generate/STIM_001.jpg	99
950.91	1.394	1393.7	generate	Run2	generate/STIM_001.jpg	99
955.019	2.316	2316.2	generate	Run2	generate/STIM_002.jpg	100
960.699	2.19	2189.8	generate	Run2	generate/STIM_002.jpg	100
965.198	1.321	1321.2	generate	Run2	generate/STIM_002.jpg	100
969.138	1.264	1264.1	generate	Run2	generate/STIM_002.jpg	100
972.991	1.162	1161.6	generate	Run2	generate/STIM_002.jpg	99
977.362	2.317	2317.4	generate	Run2	generate/STIM_003.jpg	100
983.333	1.911	1910.9	generate	Run2	generate/STIM_003.jpg	99
987.735	1.353	1352.8	generate	Run2	generate/STIM_003.jpg	100
991.44	1.816	1815.8	generate	Run2	generate/STIM_003.jpg	100
996.993	1.769	1769.2	generate	Run2	generate/STIM_003.jpg	100
1002.072	1.629	1628.8	generate	Run2	generate/STIM_004.jpg	100
1006.139	1.926	1926.5	generate	Run2	generate/STIM_004.jpg	100
1011.384	2.1	2099.7	generate	Run2	generate/STIM_004.jpg	99
1016.857	1.99	1989.8	generate	Run2	generate/STIM_004.jpg	99
1021.224	1.471	1471.1	generate	Run2	generate/STIM_004.jpg	99
1025.862	2.297	2296.8	generate	Run2	generate/STIM_005.jpg	99
1031.361	1.514	1514.1	generate	Run2	generate/STIM_005.jpg	99
1035.212	1.691	1690.7	generate	Run2	generate/STIM_005.jpg	100
1040.442	1.464	1464.1	generate	Run2	generate/STIM_005.jpg	100
1045.835	0.97	969.8	generate	Run2	generate/STIM_005.jpg	99
1049.648	2.443	2442.8	generate	Run2	generate/STIM_006.jpg	100
1054.906	1.689	1689.2	generate	Run2	generate/STIM_006.jpg	99
1059.996	1.787	1787.2	generate	Run2	generate/STIM_006.jpg	99
1064.77	0.968	968.3	generate	Run2	generate/STIM_006.jpg	99
1069.072	1.08	1080.0	generate	Run2	generate/STIM_006.jpg	100
1072.481	1.759	1759.1	generate	Run2	generate/STIM_007.jpg	100
1076.935	1.299	1298.9	generate	Run2	generate/STIM_007.jpg	100
1080.507	1.498	1497.5	generate	Run2	generate/STIM_007.jpg	99
1085.579	1.808	1808.0	generate	Run2	generate/STIM_007.jpg	99
1089.983	2.017	2017.4	generate	Run2	generate/STIM_007.jpg	100
1095.646	1.921	1920.8	generate	Run2	generate/STIM_008.jpg	100
1101.277	1.57	1569.5	generate	Run2	generate/STIM_008.jpg	100
1105.93	2.353	2353.2	generate	Run2	generate/STIM_008.jpg	99
1111.306	0.992	991.5	generate	Run2	generate/STIM_008.jpg	100
1116.276	1.226	1225.5	generate	Run2	generate/STIM_008.jpg	100
1120.701	1.484	1483.7	generate	Run2	generate/STIM_009.jpg	99
1126.161	1.499	1499.0	generate	Run2	generate/STIM_009.jpg	100
1131.539	2.054	2054.5	generate	Run2	generate/STIM_009.jpg	99
1136.202	1.426	1426.5	generate	Run2	generate/STIM_009.jpg	99
1141.554	1.55	1550.0	generate	Run2	generate/STIM_009.jpg	99
1146.684	1.844	1843.6	generate	Run2	generate/STIM_010.jpg	99
1150.645	2.276	2276.1	generate	Run2	generate/STIM_010.jpg	100
1156.915	2.061	2060.8	generate	Run2	generate/STIM_010.jpg	100
1161.409	0.944	944.4	generate	Run2	generate/STIM_010.jpg	100
1165.985	1.618	1617.7	generate	Run2	generate/STIM_010.jpg	100
1171.015	1.195	1195.1	generate	Run2	generate/STIM_011.jpg	99
1175.557	2.404	2403.8	generate	Run2	generate/STIM_011.jpg	99
1180.334	1.09	1090.1	generate	Run2	generate/STIM_011.jpg	99
1185.104	0.921	920.6	generate	Run2	generate/STIM_011.jpg	100
1189.733	1.866	1866.4	generate	Run2	generate/STIM_011.jpg	100
1195.222	1.104	1104.3	generate	Run2	generate/STIM_012.jpg	100
1199.413	1.483	1483.1	generate	Run2	generate/STIM_012.jpg	99
1203.282	1.322	1322.0	generate	Run2	generate/STIM_012.jpg	99
1208.224	2.098	2097.6	generate	Run2	generate/STIM_012.jpg	100
1214.236	1.986	1986.3	generate	Run2	generate/STIM_012.jpg	99
1220.05	2.4	2400.0	generate	Run2	generate/STIM_013.jpg	99
1225.311	1.136	1136.0	generate	Run2	generate/STIM_013.jpg	100
1230.326	1.727	1727.3	generate	Run2	generate/STIM_013.jpg	100
1235.238	2.081	2080.6	generate	Run2	generate/STIM_013.jpg	99
1240.415	1.386	1385.5	generate	Run2	generate/STIM_013.jpg	99
1244.192	1.606	1606.0	generate	Run2	generate/STIM_014.jpg	99
1248.605	2.41	2410.0	generate	Run2	generate/STIM_014.jpg	99
1254.93	1.03	1030.4	generate	Run2	generate/STIM_014.jpg	99
1259.086	0.9	900.0	generate	Run2	generate/STIM_014.jpg	100
1262.163	0.96	959.8	generate	Run2	generate/STIM_014.jpg	99
1266.976	2.525	2525.4	generate	Run2	generate/STIM_015.jpg	100
1273.478	1.167	1167.2	generate	Run2	generate/STIM_015.jpg	99
1277.058	2.113	2112.6	generate	Run2	generate/STIM_015.jpg	99
1282.361	0.946	946.3	generate	Run2	generate/STIM_015.jpg	100
1286.166	2.113	2112.9	generate	Run2	generate/STIM_015.jpg	100
1290.291	2.338	2337.7	generate	Run2	generate/STIM_016.jpg	99
1295.86	2.118	2118.4	generate	Run2	generate/STIM_016.jpg	100
1300.018	2.113	2112.9	generate	Run2	generate/STIM_016.jpg	99
1304.552	1.358	1357.6	generate	Run2	generate/STIM_016.jpg	100
1307.967	1.291	1291.3	generate	Run2	generate/STIM_016.jpg	99
1312.258	1.906	1906.3	generate	Run2	generate/STIM_017.jpg	99
1317.128	2.013	2013.0	generate	Run2	generate/STIM_017.jpg	99
1321.41	1.4	1400.2	generate	Run2	generate/STIM_017.jpg	99
1326.582	1.024	1024.1	generate	Run2	generate/STIM_017.jpg	99
1330.71	1.634	1634.3	generate	Run2	generate/STIM_017.jpg	100
1335.978	2.084	2084.5	generate	Run2	generate/STIM_018.jpg	99
1340.495	2.125	2124.9	generate	Run2	generate/STIM_018.jpg	100
1345.196	1.258	1258.4	generate	Run2	generate/STIM_018.jpg	99
1349.155	1.236	1236.5	generate	Run2	generate/STIM_018.jpg	99
1352.911	1.786	1786.0	generate	Run2	generate/STIM_018.jpg	100
1357.218	1.155	1154.9	generate	Run2	generate/STIM_019.jpg	100
1362.12	1.044	1043.8	generate	Run2	generate/STIM_019.jpg	99
1365.177	1.761	1761.4	generate	Run2	generate/STIM_019.jpg	99
1369.247	1.24	1239.7	generate	Run2	generate/STIM_019.jpg	99
1372.598	2.142	2142.1	generate	Run2	generate/STIM_019.jpg	100
1378.119	1.579	1578.9	generate	Run2	generate/STIM_020.jpg	100
1382.289	1.453	1453.2	generate	Run2	generate/STIM_020.jpg	99
1387.43	0.965	964.9	generate	Run2	generate/STIM_020.jpg	99
1391.097	1.499	1499.2	generate	Run2	generate/STIM_020.jpg	99
1395.884	1.008	1007.7	generate	Run2	generate/STIM_020.jpg	100
1399.224	1.889	1889.0	generate	Run2	generate/STIM_021.jpg	99
1403.192	1.552	1552.1	generate	Run2	generate/STIM_021.jpg	99
1408.035	1.852	1851.9	generate	Run2	generate/STIM_021.jpg	99
1413.009	1.647	1647.0	generate	Run2	generate/STIM_021.jpg	99
1418.617	1.729	1728.6	generate	Run2	generate/STIM_021.jpg	100
1423.61	1.542	1542.4	generate	Run2	generate/STIM_022.jpg	99
1427.663	1.167	1166.7	generate	Run2	generate/STIM_022.jpg	99
1432.088	2.192	2192.3	generate	Run2	generate/STIM_022.jpg	100
1436.854	2.075	2074.8	generate	Run2	generate/STIM_022.jpg	100
1442.5	1.95	1950.1	generate	Run2	generate/STIM_022.jpg	99
1447.452	2.02	2019.8	generate	Run2	generate/STIM_023.jpg	100
1452.429	2.057	2056.6	generate	Run2	generate/STIM_023.jpg	100
1457.147	1.213	1213.0	generate	Run2	generate/STIM_023.jpg	100
1460.556	1.132	1131.5	generate	Run2	generate/STIM_023.jpg	100
1464.118	1.082	1082.2	generate	Run2	generate/STIM_023.jpg	99
1468.778	2.056	2056.1	generate	Run2	generate/STIM_024.jpg	100
1473.817	1.598	1597.6	generate	Run2	generate/STIM_024.jpg	99
1478.895	1.503	1502.9	generate	Run2	generate/STIM_024.jpg	99
1484.002	2.238	2238.2	generate	Run2	generate/STIM_024.jpg	100
1489.838	1.705	1704.6	generate	Run2	generate/STIM_024.jpg	100
1495.196	0.925	924.6	repeat	Run2	repeat/STIM_000.jpg	100
1499.015	0.932	931.8	repeat	Run2	repeat/STIM_000.jpg	100
1503.309	1.023	1023.0	repeat	Run2	repeat/STIM_000.jpg	100
1507.717	0.768	767.5	repeat	Run2	repeat/STIM_000.jpg	99
1512.41	0.856	856.4	repeat	Run2	repeat/STIM_000.jpg	99
1516.736	1.059	1059.1	repeat	Run2	repeat/STIM_001.jpg	99
1520.071	0.934	934.5	repeat	Run2	repeat/STIM_001.jpg	99
1524.276	0.686	686.4	repeat	Run2	repeat/STIM_001.jpg	100
1528.409	0.651	650.7	repeat	Run2	repeat/STIM_001.jpg	100
1531.756	0.578	578.0	repeat	Run2	repeat/STIM_001.jpg	100
1534.567	0.968	968.3	repeat	Run2	repeat/STIM_002.jpg	100
1539.517	0.712	711.9	repeat	Run2	repeat/STIM_002.jpg	100
1543.942	0.607	607.2	repeat	Run2	repeat/STIM_002.jpg	100
1547.534	0.652	652.2	repeat	Run2	repeat/STIM_002.jpg	99
1550.594	0.605	604.9	repeat	Run2	repeat/STIM_002.jpg	100
1555.092	0.628	628.5	repeat	Run2	repeat/STIM_003.jpg	99
1558.434	0.613	612.9	repeat	Run2	repeat/STIM_003.jpg	100
1562.375	1.047	1047.1	repeat	Run2	repeat/STIM_003.jpg	100
1566.375	0.876	876.0	repeat	Run2	repeat/STIM_003.jpg	99
1570.779	1.035	1034.8	repeat	Run2	repeat/STIM_003.jpg	99
1574.771	0.558	558.1	repeat	Run2	repeat/STIM_004.jpg	100
1578.219	0.544	544.3	repeat	Run2	repeat/STIM_004.jpg	99
1582.003	0.782	782.0	repeat	Run2	repeat/STIM_004.jpg	100
1585.697	0.955	954.9	repeat	Run2	repeat/STIM_004.jpg	100
1590.018	1.049	1048.6	repeat	Run2	repeat/STIM_004.jpg	100
1593.161	0.883	882.7	repeat	Run2	repeat/STIM_005.jpg	100
1596.168	0.953	952.7	repeat	Run2	repeat/STIM_005.jpg	99
1600.209	0.604	604.3	repeat	Run2	repeat/STIM_005.jpg	100
1602.993	1.001	1000.7	repeat	Run2	repeat/STIM_005.jpg	99
1606.325	0.576	576.1	repeat	Run2	repeat/STIM_005.jpg	99
1609.888	0.805	804.8	repeat	Run2	repeat/STIM_006.jpg	99
1612.974	0.838	837.6	repeat	Run2	repeat/STIM_006.jpg	100
1617.038	0.54	539.9	repeat	Run2	repeat/STIM_006.jpg	100
1621.404	1.031	1031.4	repeat	Run2	repeat/STIM_006.jpg	100
1624.775	0.937	937.3	repeat	Run2	repeat/STIM_006.jpg	100
1628.089	1.016	1016.4	repeat	Run2	repeat/STIM_007.jpg	99
1632.521	1.054	1053.6	repeat	Run2	repeat/STIM_007.jpg	100
1637.412	0.819	818.9	repeat	Run2	repeat/STIM_007.jpg	99
1640.497	0.78	780.3	repeat	Run2	repeat/STIM_007.jpg	100
1643.81	0.542	542.1	repeat	Run2	repeat/STIM_007.jpg	99
1646.398	0.659	658.6	repeat	Run2	repeat/STIM_008.jpg	99
1649.776	0.754	754.5	repeat	Run2	repeat/STIM_008.jpg	99
1654.075	0.949	949.2	repeat	Run2	repeat/STIM_008.jpg	100
1657.429	0.893	892.8	repeat	Run2	repeat/STIM_008.jpg	99
1661.346	0.739	739.1	repeat	Run2	repeat/STIM_008.jpg	99
1664.533	1.068	1067.6	repeat	Run2	repeat/STIM_009.jpg	99
1669.406	0.668	668.3	repeat	Run2	repeat/STIM_009.jpg	99
1673.827	0.617	616.8	repeat	Run2	repeat/STIM_009.jpg	99
1677.934	0.938	937.8	repeat	Run2	repeat/STIM_009.jpg	100
1681.696	0.735	734.8	repeat	Run2	repeat/STIM_009.jpg	99
1684.763	0.572	572.3	repeat	Run2	repeat/STIM_010.jpg	99
1687.598	0.996	996.0	repeat	Run2	repeat/STIM_010.jpg	99
1691.018	0.573	573.0	repeat	Run2	repeat/STIM_010.jpg	99
1694.483	1.002	1002.4	repeat	Run2	repeat/STIM_010.jpg	99
1698.517	0.921	921.0	repeat	Run2	repeat/STIM_010.jpg	100
1701.96	0.672	672.5	repeat	Run2	repeat/STIM_011.jpg	100
1704.762	0.668	667.8	repeat	Run2	repeat/STIM_011.jpg	99
1708.266	1.034	1033.6	repeat	Run2	repeat/STIM_011.jpg	99
1713.206	0.855	855.2	repeat	Run2	repeat/STIM_011.jpg	100
1716.348	0.757	757.1	repeat	Run2	repeat/STIM_011.jpg	99
1720.279	0.81	809.8	repeat	Run2	repeat/STIM_012.jpg	99
1723.115	1.062	1061.6	repeat	Run2	repeat/STIM_012.jpg	99
1728.013	1.018	1018.0	repeat	Run2	repeat/STIM_012.jpg	99
1731.513	0.935	935.1	repeat	Run2	repeat/STIM_012.jpg	99
1734.857	0.684	684.0	repeat	Run2	repeat/STIM_012.jpg	100
1738.43	0.639	639.4	repeat	Run2	repeat/STIM_013.jpg	100
1741.573	0.837	836.6	repeat	Run2	repeat/STIM_013.jpg	99
1745.223	0.58	579.7	repeat	Run2	repeat/STIM_013.jpg	99
1748.001	0.639	638.7	repeat	Run2	repeat/STIM_013.jpg	100
1751.572	0.897	897.0	repeat	Run2	repeat/STIM_013.jpg	100
1754.822	0.743	743.4	repeat	Run2	repeat/STIM_014.jpg	99
1759.369	0.968	968.0	repeat	Run2	repeat/STIM_014.jpg	100
1762.748	0.77	770.3	repeat	Run2	repeat/STIM_014.jpg	99
1765.739	0.957	956.9	repeat	Run2	repeat/STIM_014.jpg	99
1769.825	0.987	987.1	repeat	Run2	repeat/STIM_014.jpg	100
1774.039	1.061	1060.6	generate	Run3	generate/STIM_000.jpg	99
1777.334	2.233	2233.2	generate	Run3	generate/STIM_000.jpg	100
1782.59	1.298	1298.1	generate	Run3	generate/STIM_000.jpg	99
1787.34	1.003	1003.2	generate	Run3	generate/STIM_000.jpg	99
1792.274	1.418	1418.4	generate	Run3	generate/STIM_000.jpg	100
1797.504	2.218	2218.5	generate	Run3	generate/STIM_001.jpg	99
1801.812	1.544	1544.3	generate	Run3	generate/STIM_001.jpg	99
1805.821	1.233	1232.8	generate	Run3	generate/STIM_001.jpg	99
1810.731	0.986	985.8	generate	Run3	generate/STIM_001.jpg	100
1814.678	1.107	1106.8	generate	Run3	generate/STIM_001.jpg	99
1818.303	0.947	946.6	generate	Run3	generate/STIM_002.jpg	100
1822.25	1.434	1434.2	generate	Run3	generate/STIM_002.jpg	100
1827.662	0.996	996.4	generate	Run3	generate/STIM_002.jpg	99
1832.137	1.928	1928.4	generate	Run3	generate/STIM_002.jpg	100
1837.205	1.358	1357.9	generate	Run3	generate/STIM_002.jpg	100
1841.812	2.219	2218.6	generate	Run3	generate/STIM_003.jpg	100
1847.78	1.937	1937.2	generate	Run3	generate/STIM_003.jpg	100
1851.919	2.181	2180.8	generate	Run3	generate/STIM_003.jpg	100
1856.847	2.045	2045.3	generate	Run3	generate/STIM_003.jpg	99
1862.047	1.606	1606.4	generate	Run3	generate/STIM_003.jpg	100
1866.069	1.276	1275.9	generate	Run3	generate/STIM_004.jpg	100
1869.518	1.729	1729.4	generate	Run3	generate/STIM_004.jpg	100
1874.462	1.703	1702.8	generate	Run3	generate/STIM_004.jpg	100
1878.946	1.465	1465.2	generate	Run3	generate/STIM_004.jpg	100
1884.03	0.979	979.0	generate	Run3	generate/STIM_004.jpg	100
1888.235	1.476	1476.5	generate	Run3	generate/STIM_005.jpg	100
1893.518	1.985	1984.6	generate	Run3	generate/STIM_005.jpg	100
1897.65	1.373	1372.8	generate	Run3	generate/STIM_005.jpg	100
1902.995	1.293	1292.7	generate	Run3	generate/STIM_005.jpg	100
1907.075	2.12	2119.9	generate	Run3	generate/STIM_005.jpg	99
1913.099	2.001	2000.6	generate	Run3	generate/STIM_006.jpg	100
1918.257	1.987	1987.0	generate	Run3	generate/STIM_006.jpg	99
1923.901	1.164	1164.1	generate	Run3	generate/STIM_006.jpg	100
1928.064	1.689	1688.8	generate	Run3	generate/STIM_006.jpg	99
1932.754	1.666	1665.7	generate	Run3	generate/STIM_006.jpg	100
1936.99	1.342	1342.5	generate	Run3	generate/STIM_007.jpg	100
1940.722	0.912	911.9	generate	Run3	generate/STIM_007.jpg	99
1943.665	1.246	1246.0	generate	Run3	generate/STIM_007.jpg	100
1946.929	2.03	2029.9	generate	Run3	generate/STIM_007.jpg	100
1952.119	1.115	1115.2	generate	Run3	generate/STIM_007.jpg	99
1956.127	0.95	950.5	generate	Run3	generate/STIM_008.jpg	100
1960.575	1.684	1683.6	generate	Run3	generate/STIM_008.jpg	100
1964.447	1.94	1939.7	generate	Run3	generate/STIM_008.jpg	100
1968.851	1.079	1079.0	generate	Run3	generate/STIM_008.jpg	100
1973.113	2.15	2150.4	generate	Run3	generate/STIM_008.jpg	99
1977.289	1.979	1979.3	generate	Run3	generate/STIM_009.jpg	99
1982.714	1.642	1642.0	generate	Run3	generate/STIM_009.jpg	99
1987.468	1.931	1931.1	generate	Run3	generate/STIM_009.jpg	100
1993.183	2.11	2110.0	generate	Run3	generate/STIM_009.jpg	100
1997.8	1.062	1062.1	generate	Run3	generate/STIM_009.jpg	99
2002.178	1.684	1684.5	generate	Run3	generate/STIM_010.jpg	100
2006.613	1.979	1978.9	generate	Run3	generate/STIM_010.jpg	99
2010.926	1.768	1768.2	generate	Run3	generate/STIM_010.jpg	100
2015.4	2.192	2192.2	generate	Run3	generate/STIM_010.jpg	99
2021.381	1.466	1466.3	generate	Run3	generate/STIM_010.jpg	99
2025.89	1.502	1502.4	generate	Run3	generate/STIM_011.jpg	99
2030.755	1.556	1556.2	generate	Run3	generate/STIM_011.jpg	100
2036.165	1.114	1114.2	generate	Run3	generate/STIM_011.jpg	99
2039.848	2.192	2191.6	generate	Run3	generate/STIM_011.jpg	99
2045.458	2.037	2037.4	generate	Run3	generate/STIM_011.jpg	99
2050.897	1.515	1514.6	generate	Run3	generate/STIM_012.jpg	100
2054.699	2.007	2007.4	generate	Run3	generate/STIM_012.jpg	99
2058.885	1.884	1883.5	generate	Run3	generate/STIM_012.jpg	100
2063.82	1.828	1827.7	generate	Run3	generate/STIM_012.jpg	99
2068.842	1.904	1904.4	generate	Run3	generate/STIM_012.jpg	99
2073.575	1.443	1442.6	generate	Run3	generate/STIM_013.jpg	100
2077.118	1.01	1010.0	generate	Run3	generate/STIM_013.jpg	100
2081.411	1.073	1073.4	generate	Run3	generate/STIM_013.jpg	100
2086.243	1.572	1572.0	generate	Run3	generate/STIM_013.jpg	99
2091.495	2.197	2196.9	generate	Run3	generate/STIM_013.jpg	99
2095.816	1.467	1466.9	generate	Run3	generate/STIM_014.jpg	100
2100.907	1.698	1698.2	generate	Run3	generate/STIM_014.jpg	100
2105.606	1.901	1901.2	generate	Run3	generate/STIM_014.jpg	99
2111.168	1.503	1503.0	generate	Run3	generate/STIM_014.jpg	100
2116.057	0.968	967.7	generate	Run3	generate/STIM_014.jpg	100
2119.072	1.31	1309.8	generate	Run3	generate/STIM_015.jpg	99
2124.043	1.496	1495.9	generate	Run3	generate/STIM_015.jpg	100
2128.407	1.928	1928.2	generate	Run3	generate/STIM_015.jpg	100
2133.907	2.243	2243.0	generate	Run3	generate/STIM_015.jpg	99
2139.773	1.837	1836.8	generate	Run3	generate/STIM_015.jpg	99
2144.674	1.427	1426.6	generate	Run3	generate/STIM_016.jpg	99
2148.987	1.186	1185.6	generate	Run3	generate/STIM_016.jpg	99
2152.616	1.858	1858.5	generate	Run3	generate/STIM_016.jpg	99
2156.968	1.417	1417.0	generate	Run3	generate/STIM_016.jpg	99
2160.578	0.91	910.1	generate	Run3	generate/STIM_016.jpg	99
2165.297	1.676	1675.8	generate	Run3	generate/STIM_017.jpg	100
2169.156	1.432	1431.6	generate	Run3	generate/STIM_017.jpg	99
2172.812	1.474	1473.6	generate	Run3	generate/STIM_017.jpg	100
2176.762	1.437	1436.9	generate	Run3	generate/STIM_017.jpg	100
2180.314	1.332	1331.9	generate	Run3	generate/STIM_017.jpg	100
2183.729	1.517	1516.6	generate	Run3	generate/STIM_018.jpg	99
2188.03	1.132	1132.2	generate	Run3	generate/STIM_018.jpg	99
2192.398	2.152	2152.1	generate	Run3	generate/STIM_018.jpg	100
2198.045	1.175	1174.9	generate	Run3	generate/STIM_018.jpg	100
2202.25	1.445	1445.1	generate	Run3	generate/STIM_018.jpg	100
2207.549	1.279	1279.1	generate	Run3	generate/STIM_019.jpg	100
2211.397	1.718	1718.0	generate	Run3	generate/STIM_019.jpg	99
2215.882	2.129	2128.8	generate	Run3	generate/STIM_019.jpg	99
2220.277	1.572	1572.2	generate	Run3	generate/STIM_019.jpg	100
2224.448	1.111	1111.2	generate	Run3	generate/STIM_019.jpg	100
2227.9	1.356	1356.0	generate	Run3	generate/STIM_020.jpg	99
2231.811	1.474	1473.5	generate	Run3	generate/STIM_020.jpg	99
2235.974	1.214	1213.7	generate	Run3	generate/STIM_020.jpg	99
2240.314	2.039	2039.0	generate	Run3	generate/STIM_020.jpg	100
2245.235	1.171	1170.9	generate	Run3	generate/STIM_020.jpg	99
2249.405	2.229	2229.4	generate	Run3	generate/STIM_021.jpg	100
2254.835	1.989	1988.6	generate	Run3	generate/STIM_021.jpg	99
2259.437	1.327	1327.1	generate	Run3	generate/STIM_021.jpg	99
2263.689	2.202	2201.9	generate	Run3	generate/STIM_021.jpg	100
2268.905	0.953	952.9	generate	Run3	generate/STIM_021.jpg	99
2272.492	2.15	2150.3	generate	Run3	generate/STIM_022.jpg	100
2278.621	2.241	2240.7	generate	Run3	generate/STIM_022.jpg	99
2283.452	1.381	1381.3	generate	Run3	generate/STIM_022.jpg	99
2287.59	1.708	1708.2	generate	Run3	generate/STIM_022.jpg	99
2291.726	1.861	1860.9	generate	Run3	generate/STIM_022.jpg	100
2295.628	1.144	1144.5	generate	Run3	generate/STIM_023.jpg	100
2300.733	1.332	1332.3	generate	Run3	generate/STIM_023.jpg	99
2304.332	1.903	1903.0	generate	Run3	generate/STIM_023.jpg	99
2309.821	1.933	1932.6	generate	Run3	generate/STIM_023.jpg	99
2315.098	1.892	1891.9	generate	Run3	generate/STIM_023.jpg	100
2320.943	0.916	915.9	generate	Run3	generate/STIM_024.jpg	100
2325.694	1.03	1030.0	generate	Run3	generate/STIM_024.jpg	100
2330.686	0.976	975.6	generate	Run3	generate/STIM_024.jpg	99
2333.875	2.047	2047.2	generate	Run3	generate/STIM_024.jpg	100
2338.654	1.574	1573.6	generate	Run3	generate/STIM_024.jpg	100
2343.644	0.591	591.1	repeat	Run3	repeat/STIM_000.jpg	100
2347.459	0.99	990.1	repeat	Run3	repeat/STIM_000.jpg	100
2351.251	0.875	875.0	repeat	Run3	repeat/STIM_000.jpg	100
2355.916	0.884	884.5	repeat	Run3	repeat/STIM_000.jpg	99
2359.904	0.671	671.1	repeat	Run3	repeat/STIM_000.jpg	99
2362.83	0.959	959.1	repeat	Run3	repeat/STIM_001.jpg	100
2366.026	0.894	894.5	repeat	Run3	repeat/STIM_001.jpg	99
2369.812	0.902	902.2	repeat	Run3	repeat/STIM_001.jpg	100
2372.97	0.718	717.7	repeat	Run3	repeat/STIM_001.jpg	99
2376.749	0.668	668.0	repeat	Run3	repeat/STIM_001.jpg	99
2379.725	0.814	813.7	repeat	Run3	repeat/STIM_002.jpg	99
2383.894	1.055	1054.6	repeat	Run3	repeat/STIM_002.jpg	100
2387.615	0.813	813.1	repeat	Run3	repeat/STIM_002.jpg	100
2390.458	0.737	736.9	repeat	Run3	repeat/STIM_002.jpg	100
2393.252	0.831	831.0	repeat	Run3	repeat/STIM_002.jpg	99
2396.15	0.765	765.2	repeat	Run3	repeat/STIM_003.jpg	99
2399.452	0.916	915.7	repeat	Run3	repeat/STIM_003.jpg	100
2403.061	0.716	715.9	repeat	Run3	repeat/STIM_003.jpg	99
2407.564	0.9	899.5	repeat	Run3	repeat/STIM_003.jpg	99
2411.863	0.667	667.1	repeat	Run3	repeat/STIM_003.jpg	100
2414.676	0.553	553.4	repeat	Run3	repeat/STIM_004.jpg	100
2418.242	0.669	668.7	repeat	Run3	repeat/STIM_004.jpg	99
2421.131	0.729	729.4	repeat	Run3	repeat/STIM_004.jpg	100
2424.804	0.681	681.2	repeat	Run3	repeat/STIM_004.jpg	99
2428.851	0.976	976.3	repeat	Run3	repeat/STIM_004.jpg	99
2433.666	0.696	696.1	repeat	Run3	repeat/STIM_005.jpg	100
2436.724	0.608	608.2	repeat	Run3	repeat/STIM_005.jpg	99
2441.147	0.683	683.2	repeat	Run3	repeat/STIM_005.jpg	100
2444.905	0.874	873.6	repeat	Run3	repeat/STIM_005.jpg	99
2448.219	0.696	696.2	repeat	Run3	repeat/STIM_005.jpg	100
2452.029	0.94	940.2	repeat	Run3	repeat/STIM_006.jpg	99
2456.278	0.918	917.5	repeat	Run3	repeat/STIM_006.jpg	100
2460.736	0.549	548.6	repeat	Run3	repeat/STIM_006.jpg	99
2464.252	0.917	917.1	repeat	Run3	repeat/STIM_006.jpg	100
2468.73	0.799	798.9	repeat	Run3	repeat/STIM_006.jpg	100
2472.747	0.693	692.8	repeat	Run3	repeat/STIM_007.jpg	99
2475.879	0.799	799.2	repeat	Run3	repeat/STIM_007.jpg	100
2479.225	0.878	878.1	repeat	Run3	repeat/STIM_007.jpg	99
2483.33	0.957	957.2	repeat	Run3	repeat/STIM_007.jpg	99
2487.544	0.84	840.3	repeat	Run3	repeat/STIM_007.jpg	100
2491.556	0.565	565.0	repeat	Run3	repeat/STIM_008.jpg	99
2495.183	0.834	834.1	repeat	Run3	repeat/STIM_008.jpg	100
2499.101	0.817	816.8	repeat	Run3	repeat/STIM_008.jpg	100
2503.019	0.641	641.0	repeat	Run3	repeat/STIM_008.jpg	99
2506.825	0.964	964.3	repeat	Run3	repeat/STIM_008.jpg	99
2511.05	1.064	1064.5	repeat	Run3	repeat/STIM_009.jpg	99
2516.018	0.883	882.7	repeat	Run3	repeat/STIM_009.jpg	100
2520.681	1.026	1026.3	repeat	Run3	repeat/STIM_009.jpg	99
2524.216	0.609	608.6	repeat	Run3	repeat/STIM_009.jpg	100
2527.864	0.781	781.3	repeat	Run3	repeat/STIM_009.jpg	100
2532.037	0.587	587.2	repeat	Run3	repeat/STIM_010.jpg	100
2536.299	0.589	589.2	repeat	Run3	repeat/STIM_010.jpg	99
2539.733	0.64	639.8	repeat	Run3	repeat/STIM_010.jpg	99
2542.395	0.746	746.0	repeat	Run3	repeat/STIM_010.jpg	99
2546.921	0.592	592.2	repeat	Run3	repeat/STIM_010.jpg	99
2550.437	0.644	644.3	repeat	Run3	repeat/STIM_011.jpg	99
2553.147	0.838	838.2	repeat	Run3	repeat/STIM_011.jpg	99
2557.75	0.731	730.9	repeat	Run3	repeat/STIM_011.jpg	100
2562.124	0.614	614.3	repeat	Run3	repeat/STIM_011.jpg	99
2566.015	0.788	787.5	repeat	Run3	repeat/STIM_011.jpg	99
2569.878	0.537	536.9	repeat	Run3	repeat/STIM_012.jpg	99
2573.887	0.738	738.0	repeat	Run3	repeat/STIM_012.jpg	99
2577.885	1.0	1000.0	repeat	Run3	repeat/STIM_012.jpg	99
2580.921	0.605	605.2	repeat	Run3	repeat/STIM_012.jpg	99
2584.738	0.558	558.1	repeat	Run3	repeat/STIM_012.jpg	99
2587.711	0.969	969.0	repeat	Run3	repeat/STIM_013.jpg	100
2591.6	0.849	849.2	repeat	Run3	repeat/STIM_013.jpg	100
2595.336	0.837	836.6	repeat	Run3	repeat/STIM_013.jpg	99
2599.86	0.6	599.6	repeat	Run3	repeat/STIM_013.jpg	99
2604.419	0.999	999.2	repeat	Run3	repeat/STIM_013.jpg	100
2609.332	0.797	797.3	repeat	Run3	repeat/STIM_014.jpg	99
2613.496	0.595	594.7	repeat	Run3	repeat/STIM_014.jpg	100
2617.39	0.546	546.3	repeat	Run3	repeat/STIM_014.jpg	100
2620.578	0.855	854.7	repeat	Run3	repeat/STIM_014.jpg	100
2623.949	0.665	664.8	repeat	Run3	repeat/STIM_014.jpg	100
2627.544	1.797	1796.8	generate	Run4	generate/STIM_000.jpg	99
2633.087	1.922	1922.0	generate	Run4	generate/STIM_000.jpg	99
2638.801	1.772	1772.1	generate	Run4	generate/STIM_000.jpg	99
2643.101	1.799	1798.7	generate	Run4	generate/STIM_000.jpg	100
2648.038	1.68	1680.1	generate	Run4	generate/STIM_000.jpg	100
2652.765	2.078	2077.9	generate	Run4	generate/STIM_001.jpg	100
2658.489	1.094	1094.0	generate	Run4	generate/STIM_001.jpg	100
2662.459	2.064	2063.8	generate	Run4	generate/STIM_001.jpg	100
2668.353	1.165	1165.2	generate	Run4	generate/STIM_001.jpg	100
2671.699	2.245	2245.1	generate	Run4	generate/STIM_001.jpg	100
2676.515	1.44	1439.6	generate	Run4	generate/STIM_002.jpg	99
2681.756	1.525	1525.2	generate	Run4	generate/STIM_002.jpg	99
2685.614	1.929	1929.3	generate	Run4	generate/STIM_002.jpg	100
2690.626	1.633	1633.0	generate	Run4	generate/STIM_002.jpg	100
2695.055	2.09	2090.3	generate	Run4	generate/STIM_002.jpg	99
2700.259	2.016	2016.3	generate	Run4	generate/STIM_003.jpg	99
2705.478	1.6	1600.1	generate	Run4	generate/STIM_003.jpg	99
2709.21	1.926	1925.8	generate	Run4	generate/STIM_003.jpg	99
2713.154	1.676	1675.7	generate	Run4	generate/STIM_003.jpg	99
2718.19	1.631	1631.3	generate	Run4	generate/STIM_003.jpg	100
2722.36	1.519	1519.1	generate	Run4	generate/STIM_004.jpg	99
2727.447	1.986	1985.9	generate	Run4	generate/STIM_004.jpg	100
2731.761	1.828	1827.8	generate	Run4	generate/STIM_004.jpg	99
2736.413	2.144	2143.6	generate	Run4	generate/STIM_004.jpg	99
2742.315	1.293	1292.8	generate	Run4	generate/STIM_004.jpg	100
2747.063	2.073	2072.7	generate	Run4	generate/STIM_005.jpg	100
2751.46	1.841	1841.3	generate	Run4	generate/STIM_005.jpg	99
2756.57	1.033	1032.8	generate	Run4	generate/STIM_005.jpg	99
2760.0	0.957	957.1	generate	Run4	generate/STIM_005.jpg	99
2763.326	1.273	1273.0	generate	Run4	generate/STIM_005.jpg	99
2767.366	1.556	1555.8	generate	Run4	generate/STIM_006.jpg	100
2772.74	1.749	1748.7	generate	Run4	generate/STIM_006.jpg	100
2777.678	1.315	1315.2	generate	Run4	generate/STIM_006.jpg	99
2782.006	1.541	1540.8	generate	Run4	generate/STIM_006.jpg	99
2786.887	1.772	1772.5	generate	Run4	generate/STIM_006.jpg	100
2792.059	1.64	1640.3	generate	Run4	generate/STIM_007.jpg	99
2797.07	1.667	1666.6	generate	Run4	generate/STIM_007.jpg	99
2802.314	0.924	923.8	generate	Run4	generate/STIM_007.jpg	99
2805.594	1.358	1358.3	generate	Run4	generate/STIM_007.jpg	99
2810.568	1.762	1762.1	generate	Run4	generate/STIM_007.jpg	99
2815.19	1.99	1989.9	generate	Run4	generate/STIM_008.jpg	99
2820.621	1.315	1314.6	generate	Run4	generate/STIM_008.jpg	100
2824.858	1.074	1073.9	generate	Run4	generate/STIM_008.jpg	100
2828.816	1.111	1110.8	generate	Run4	generate/STIM_008.jpg	100
2833.873	0.904	904.0	generate	Run4	generate/STIM_008.jpg	99
2837.472	1.358	1357.5	generate	Run4	generate/STIM_009.jpg	100
2842.615	1.046	1045.5	generate	Run4	generate/STIM_009.jpg	100
2846.592	1.421	1420.9	generate	Run4	generate/STIM_009.jpg	100
2850.705	1.735	1735.4	generate	Run4	generate/STIM_009.jpg	100
2855.952	1.247	1246.9	generate	Run4	generate/STIM_009.jpg	99
2859.646	2.216	2215.7	generate	Run4	generate/STIM_010.jpg	100
2864.96	1.891	1891.0	generate	Run4	generate/STIM_010.jpg	99
2869.394	2.147	2146.8	generate	Run4	generate/STIM_010.jpg	99
2875.134	1.409	1408.7	generate	Run4	generate/STIM_010.jpg	99
2879.17	2.202	2201.5	generate	Run4	generate/STIM_010.jpg	100
2883.398	1.14	1139.6	generate	Run4	generate/STIM_011.jpg	99
2888.371	1.897	1897.1	generate	Run4	generate/STIM_011.jpg	100
2892.895	2.215	2214.9	generate	Run4	generate/STIM_011.jpg	100
2898.865	1.083	1083.4	generate	Run4	generate/STIM_011.jpg	99
2903.465	1.917	1916.7	generate	Run4	generate/STIM_011.jpg	100
2908.298	1.53	1530.4	generate	Run4	generate/STIM_012.jpg	99
2912.14	1.95	1949.7	generate	Run4	generate/STIM_012.jpg	100
2917.772	2.174	2173.9	generate	Run4	generate/STIM_012.jpg	99
2922.681	1.515	1514.7	generate	Run4	generate/STIM_012.jpg	99
2926.663	1.796	1796.1	generate	Run4	generate/STIM_012.jpg	100
2932.096	0.989	989.3	generate	Run4	generate/STIM_013.jpg	99
2936.47	1.592	1591.8	generate	Run4	generate/STIM_013.jpg	100
2940.354	1.786	1786.3	generate	Run4	generate/STIM_013.jpg	99
2944.557	1.061	1060.6	generate	Run4	generate/STIM_013.jpg	99
2948.474	0.936	935.9	generate	Run4	generate/STIM_013.jpg	100
2952.176	1.578	1578.5	generate	Run4	generate/STIM_014.jpg	100
2957.752	1.757	1757.0	generate	Run4	generate/STIM_014.jpg	100
2961.871	1.198	1198.1	generate	Run4	generate/STIM_014.jpg	99
2965.821	1.709	1708.7	generate	Run4	generate/STIM_014.jpg	100
2970.341	1.494	1494.3	generate	Run4	generate/STIM_014.jpg	100
2974.48	2.173	2173.1	generate	Run4	generate/STIM_015.jpg	100
2980.488	1.954	1954.3	generate	Run4	generate/STIM_015.jpg	100
2985.129	1.918	1917.7	generate	Run4	generate/STIM_015.jpg	100
2989.112	1.788	1787.8	generate	Run4	generate/STIM_015.jpg	99
2992.988	1.264	1263.7	generate	Run4	generate/STIM_015.jpg	100
2998.178	1.239	1239.2	generate	Run4	generate/STIM_016.jpg	99
3003.365	1.205	1205.1	generate	Run4	generate/STIM_016.jpg	99
3007.656	2.039	2039.3	generate	Run4	generate/STIM_016.jpg	99
3011.786	1.728	1728.4	generate	Run4	generate/STIM_016.jpg	99
3015.653	2.049	2049.3	generate	Run4	generate/STIM_016.jpg	99
3020.308	2.142	2142.1	generate	Run4	generate/STIM_017.jpg	100
3026.238	1.311	1311.3	generate	Run4	generate/STIM_017.jpg	100
3029.614	1.868	1868.5	generate	Run4	generate/STIM_017.jpg	99
3033.991	0.927	927.1	generate	Run4	generate/STIM_017.jpg	99
3036.943	1.123	1122.6	generate	Run4	generate/STIM_017.jpg	100
3040.428	2.044	2044.0	generate	Run4	generate/STIM_018.jpg	99
3045.436	1.101	1100.7	generate	Run4	generate/STIM_018.jpg	100
3049.267	1.025	1025.1	generate	Run4	generate/STIM_018.jpg	100
3053.528	1.044	1044.2	generate	Run4	generate/STIM_018.jpg	99
3057.957	2.163	2162.8	generate	Run4	generate/STIM_018.jpg	100
3062.674	1.393	1393.1	generate	Run4	generate/STIM_019.jpg	100
3067.054	1.58	1579.9	generate	Run4	generate/STIM_019.jpg	100
3071.347	2.225	2224.6	generate	Run4	generate/STIM_019.jpg	100
3076.331	1.529	1528.9	generate	Run4	generate/STIM_019.jpg	100
3081.189	2.025	2025.0	generate	Run4	generate/STIM_019.jpg	99
3085.986	1.898	1897.7	generate	Run4	generate/STIM_020.jpg	99
3091.402	1.946	1945.7	generate	Run4	generate/STIM_020.jpg	100
3095.746	1.785	1785.4	generate	Run4	generate/STIM_020.jpg	100
3100.821	0.97	970.4	generate	Run4	generate/STIM_020.jpg	99
3104.928	1.463	1463.4	generate	Run4	generate/STIM_020.jpg	99
3109.45	1.037	1036.8	generate	Run4	generate/STIM_021.jpg	99
3114.347	1.105	1105.3	generate	Run4	generate/STIM_021.jpg	100
3118.966	1.159	1159.1	generate	Run4	generate/STIM_021.jpg	99
3123.566	1.042	1041.9	generate	Run4	generate/STIM_021.jpg	99
3128.228	1.99	1990.2	generate	Run4	generate/STIM_021.jpg	99
3133.596	1.743	1742.8	generate	Run4	generate/STIM_022.jpg	100
3137.674	1.009	1008.7	generate	Run4	generate/STIM_022.jpg	100
3141.208	2.005	2005.4	generate	Run4	generate/STIM_022.jpg	99
3146.505	1.581	1580.8	generate	Run4	generate/STIM_022.jpg	99
3150.304	1.91	1910.5	generate	Run4	generate/STIM_022.jpg	100
3155.297	1.573	1572.9	generate	Run4	generate/STIM_023.jpg	100
3159.409	1.986	1985.9	generate	Run4	generate/STIM_023.jpg	99
3164.161	1.907	1906.7	generate	Run4	generate/STIM_023.jpg	100
3168.402	1.202	1202.2	generate	Run4	generate/STIM_023.jpg	99
3172.821	1.672	1671.5	generate	Run4	generate/STIM_023.jpg	99
3177.623	1.687	1687.1	generate	Run4	generate/STIM_024.jpg	99
3182.067	1.257	1257.2	generate	Run4	generate/STIM_024.jpg	99
3185.944	1.628	1627.5	generate	Run4	generate/STIM_024.jpg	99
3190.095	1.644	1644.2	generate	Run4	generate/STIM_024.jpg	100
3194.524	0.93	930.5	generate	Run4	generate/STIM_024.jpg	99
3198.544	0.909	908.8	repeat	Run4	repeat/STIM_000.jpg	100
3203.376	0.917	916.8	repeat	Run4	repeat/STIM_000.jpg	100
3207.848	0.781	781.2	repeat	Run4	repeat/STIM_000.jpg	99
3211.246	0.749	748.7	repeat	Run4	repeat/STIM_000.jpg	100
3215.935	0.722	722.1	repeat	Run4	repeat/STIM_000.jpg	99
3219.098	0.877	877.4	repeat	Run4	repeat/STIM_001.jpg	99
3222.553	1.044	1043.8	repeat	Run4	repeat/STIM_001.jpg	100
3226.2	0.801	800.6	repeat	Run4	repeat/STIM_001.jpg	99
3230.434	0.93	929.8	repeat	Run4	repeat/STIM_001.jpg	99
3234.926	0.742	742.3	repeat	Run4	repeat/STIM_001.jpg	100
3238.37	0.635	635.2	repeat	Run4	repeat/STIM_002.jpg	99
3241.857	1.048	1047.6	repeat	Run4	repeat/STIM_002.jpg	100
3245.967	1.064	1063.9	repeat	Run4	repeat/STIM_002.jpg	100
3249.361	1.009	1009.0	repeat	Run4	repeat/STIM_002.jpg	100
3253.198	0.55	550.4	repeat	Run4	repeat/STIM_002.jpg	100
3257.432	0.8	800.1	repeat	Run4	repeat/STIM_003.jpg	99
3262.094	0.89	890.4	repeat	Run4	repeat/STIM_003.jpg	100
3265.642	0.585	584.8	repeat	Run4	repeat/STIM_003.jpg	100
3268.415	0.596	596.5	repeat	Run4	repeat/STIM_003.jpg	100
3272.084	0.969	968.7	repeat	Run4	repeat/STIM_003.jpg	99
3276.321	0.61	610.2	repeat	Run4	repeat/STIM_004.jpg	99
3279.316	0.555	555.2	repeat	Run4	repeat/STIM_004.jpg	100
3283.281	1.064	1064.4	repeat	Run4	repeat/STIM_004.jpg	100
3288.284	0.806	806.3	repeat	Run4	repeat/STIM_004.jpg	100
3291.224	0.965	965.3	repeat	Run4	repeat/STIM_004.jpg	99
3295.117	0.835	834.6	repeat	Run4	repeat/STIM_005.jpg	99
3299.067	0.737	736.8	repeat	Run4	repeat/STIM_005.jpg	99
3303.14	0.857	856.8	repeat	Run4	repeat/STIM_005.jpg	100
3307.624	1.047	1046.6	repeat	Run4	repeat/STIM_005.jpg	100
3311.383	0.846	845.9	repeat	Run4	repeat/STIM_005.jpg	100
3314.322	0.931	931.4	repeat	Run4	repeat/STIM_006.jpg	99
3317.335	1.045	1045.0	repeat	Run4	repeat/STIM_006.jpg	100
3322.145	0.781	781.0	repeat	Run4	repeat/STIM_006.jpg	99
3325.844	0.951	950.9	repeat	Run4	repeat/STIM_006.jpg	99
3330.029	0.651	651.2	repeat	Run4	repeat/STIM_006.jpg	100
3334.041	0.778	778.1	repeat	Run4	repeat/STIM_007.jpg	100
3338.749	0.54	540.3	repeat	Run4	repeat/STIM_007.jpg	100
3342.353	1.0	999.8	repeat	Run4	repeat/STIM_007.jpg	99
3346.881	0.68	680.3	repeat	Run4	repeat/STIM_007.jpg	100
3351.318	0.808	807.7	repeat	Run4	repeat/STIM_007.jpg	99
3354.898	0.733	732.6	repeat	Run4	repeat/STIM_008.jpg	100
3359.21	0.758	758.4	repeat	Run4	repeat/STIM_008.jpg	100
3363.378	0.838	838.0	repeat	Run4	repeat/STIM_008.jpg	99
3367.017	0.789	788.8	repeat	Run4	repeat/STIM_008.jpg	100
3371.266	0.986	985.8	repeat	Run4	repeat/STIM_008.jpg	99
3375.023	0.553	553.0	repeat	Run4	repeat/STIM_009.jpg	99
3379.531	0.955	955.4	repeat	Run4	repeat/STIM_009.jpg	99
3383.42	0.782	782.2	repeat	Run4	repeat/STIM_009.jpg	100
3386.589	0.789	789.3	repeat	Run4	repeat/STIM_009.jpg	100
3389.397	0.886	886.4	repeat	Run4	repeat/STIM_009.jpg	100
3392.447	0.538	538.4	repeat	Run4	repeat/STIM_010.jpg	100
3396.908	0.889	888.7	repeat	Run4	repeat/STIM_010.jpg	100
3400.381	0.843	842.7	repeat	Run4	repeat/STIM_010.jpg	99
3405.079	0.721	720.8	repeat	Run4	repeat/STIM_010.jpg	99
3409.368	0.986	986.5	repeat	Run4	repeat/STIM_010.jpg	99
3414.093	0.828	828.3	repeat	Run4	repeat/STIM_011.jpg	99
3417.347	0.94	940.0	repeat	Run4	repeat/STIM_011.jpg	100
3421.256	0.99	990.1	repeat	Run4	repeat/STIM_011.jpg	100
3424.776	0.781	781.2	repeat	Run4	repeat/STIM_011.jpg	100
3427.662	0.664	663.5	repeat	Run4	repeat/STIM_011.jpg	99
3430.929	0.701	700.7	repeat	Run4	repeat/STIM_012.jpg	100
3434.383	1.062	1061.8	repeat	Run4	repeat/STIM_012.jpg	100
3438.916	1.049	1048.9	repeat	Run4	repeat/STIM_012.jpg	99
3443.366	1.02	1020.3	repeat	Run4	repeat/STIM_012.jpg	99
3448.149	0.577	577.3	repeat	Run4	repeat/STIM_012.jpg	100
3452.642	0.969	968.6	repeat	Run4	repeat/STIM_013.jpg	100
3457.107	0.775	774.9	repeat	Run4	repeat/STIM_013.jpg	100
3460.034	0.842	842.5	repeat	Run4	repeat/STIM_013.jpg	100
3463.349	0.542	542.4	repeat	Run4	repeat/STIM_013.jpg	100
3466.719	0.673	673.4	repeat	Run4	repeat/STIM_013.jpg	100
3470.659	0.819	818.9	repeat	Run4	repeat/STIM_014.jpg	99
3474.73	0.934	934.2	repeat	Run4	repeat/STIM_014.jpg	99
3477.786	0.641	641.0	repeat	Run4	repeat/STIM_014.jpg	100
3480.458	0.906	905.8	repeat	Run4	repeat/STIM_014.jpg	99
3484.785	0.577	577.2	repeat	Run4	repeat/STIM_014.jpg	99
