onset	duration	accuracy	trial_type	learning_stage	stimulus
0.0	2.643	incorrect	navigation	Trial1	navigation/STIM_000.jpg
6.252	3.474	incorrect	navigation	Trial1	navigation/STIM_000.jpg
13.719	2.699	incorrect	navigation	Trial1	navigation/STIM_000.jpg
19.484	2.702	incorrect	navigation	Trial1	navigation/STIM_000.jpg
24.791	2.975	incorrect	navigation	Trial1	navigation/STIM_000.jpg
31.633	2.952	correct	navigation	Trial1	navigation/STIM_000.jpg
38.189	4.144	incorrect	navigation	Trial1	navigation/STIM_001.jpg
45.854	2.297	incorrect	navigation	Trial1	navigation/STIM_001.jpg
50.599	1.577	incorrect	navigation	Trial1	navigation/STIM_001.jpg
55.428	3.383	correct	navigation	Trial1	navigation/STIM_001.jpg
60.866	1.492	correct	navigation	Trial1	navigation/STIM_001.jpg
65.548	2.014	correct	navigation	Trial1	navigation/STIM_001.jpg
69.963	3.452	incorrect	navigation	Trial1	navigation/STIM_002.jpg
76.787	3.143	correct	navigation	Trial1	navigation/STIM_002.jpg
82.337	2.472	correct	navigation	Trial1	navigation/STIM_002.jpg
88.315	1.448	correct	navigation	Trial1	navigation/STIM_002.jpg
93.262	2.512	correct	navigation	Trial1	navigation/STIM_002.jpg
98.813	2.369	correct	navigation	Trial1	navigation/STIM_002.jpg
103.552	3.326	correct	navigation	Trial1	navigation/STIM_003.jpg
109.536	3.298	correct	navigation	Trial1	navigation/STIM_003.jpg
115.434	1.771	incorrect	navigation	Trial1	navigation/STIM_003.jpg
120.104	3.43	incorrect	navigation	Trial1	navigation/STIM_003.jpg
127.43	1.528	correct	navigation	Trial1	navigation/STIM_003.jpg
132.493	2.329	incorrect	navigation	Trial1	navigation/STIM_003.jpg
136.889	4.241	incorrect	navigation	Trial1	navigation/STIM_004.jpg
144.413	1.933	incorrect	navigation	Trial1	navigation/STIM_004.jpg
149.445	3.671	incorrect	navigation	Trial1	navigation/STIM_004.jpg
156.914	2.799	correct	navigation	Trial1	navigation/STIM_004.jpg
163.423	2.218	incorrect	navigation	Trial1	navigation/STIM_004.jpg
167.693	2.118	correct	navigation	Trial1	navigation/STIM_004.jpg
173.397	2.195	correct	navigation	Trial1	navigation/STIM_005.jpg
177.663	1.927	incorrect	navigation	Trial1	navigation/STIM_005.jpg
181.681	2.837	correct	navigation	Trial1	navigation/STIM_005.jpg
186.933	1.884	incorrect	navigation	Trial1	navigation/STIM_005.jpg
191.725	2.393	incorrect	navigation	Trial1	navigation/STIM_005.jpg
197.849	2.99	incorrect	navigation	Trial1	navigation/STIM_005.jpg
203.949	3.948	correct	navigation	Trial1	navigation/STIM_006.jpg
210.116	2.006	incorrect	navigation	Trial1	navigation/STIM_006.jpg
215.992	2.428	incorrect	navigation	Trial1	navigation/STIM_006.jpg
221.441	1.987	correct	navigation	Trial1	navigation/STIM_006.jpg
226.303	2.369	incorrect	navigation	Trial1	navigation/STIM_006.jpg
230.823	1.977	correct	navigation	Trial1	navigation/STIM_006.jpg
236.069	2.674	correct	navigation	Trial1	navigation/STIM_007.jpg
242.105	2.126	incorrect	navigation	Trial1	navigation/STIM_007.jpg
247.743	3.38	correct	navigation	Trial1	navigation/STIM_007.jpg
254.492	2.132	correct	navigation	Trial1	navigation/STIM_007.jpg
259.064	2.084	correct	navigation	Trial1	navigation/STIM_007.jpg
263.521	2.216	correct	navigation	Trial1	navigation/STIM_007.jpg
268.209	3.627	correct	navigation	Trial1	navigation/STIM_008.jpg
275.271	3.945	correct	navigation	Trial1	navigation/STIM_008.jpg
282.05	2.953	incorrect	navigation	Trial1	navigation/STIM_008.jpg
288.041	2.938	correct	navigation	Trial1	navigation/STIM_008.jpg
293.509	3.394	correct	navigation	Trial1	navigation/STIM_008.jpg
300.354	1.409	incorrect	navigation	Trial1	navigation/STIM_008.jpg
305.132	3.877	incorrect	navigation	Trial1	navigation/STIM_009.jpg
311.504	2.329	correct	navigation	Trial1	navigation/STIM_009.jpg
316.601	2.614	incorrect	navigation	Trial1	navigation/STIM_009.jpg
322.756	3.285	correct	navigation	Trial1	navigation/STIM_009.jpg
329.589	3.363	incorrect	navigation	Trial1	navigation/STIM_009.jpg
335.806	2.657	correct	navigation	Trial1	navigation/STIM_009.jpg
340.648	2.674	incorrect	navigation	Trial1	navigation/STIM_010.jpg
347.223	3.777	correct	navigation	Trial1	navigation/STIM_010.jpg
353.454	1.858	correct	navigation	Trial1	navigation/STIM_010.jpg
358.013	2.31	correct	navigation	Trial1	navigation/STIM_010.jpg
363.37	2.77	incorrect	navigation	Trial1	navigation/STIM_010.jpg
369.478	2.934	incorrect	navigation	Trial1	navigation/STIM_010.jpg
375.751	1.94	incorrect	navigation	Trial1	navigation/STIM_011.jpg
381.185	2.136	correct	navigation	Trial1	navigation/STIM_011.jpg
386.753	2.417	incorrect	navigation	Trial1	navigation/STIM_011.jpg
391.448	3.185	incorrect	navigation	Trial1	navigation/STIM_011.jpg
397.6	1.773	incorrect	navigation	Trial1	navigation/STIM_011.jpg
402.844	3.084	correct	navigation	Trial1	navigation/STIM_011.jpg
408.415	1.27	incorrect	pointing	Trial1	pointing/STIM_000.jpg
413.365	0.742	correct	pointing	Trial1	pointing/STIM_000.jpg
418.045	1.252	incorrect	pointing	Trial1	pointing/STIM_000.jpg
422.042	0.694	correct	pointing	Trial1	pointing/STIM_000.jpg
426.21	0.692	incorrect	pointing	Trial1	pointing/STIM_000.jpg
429.434	1.086	correct	pointing	Trial1	pointing/STIM_000.jpg
433.646	0.947	incorrect	pointing	Trial1	pointing/STIM_001.jpg
436.671	0.873	correct	pointing	Trial1	pointing/STIM_001.jpg
439.623	0.933	incorrect	pointing	Trial1	pointing/STIM_001.jpg
444.489	0.789	correct	pointing	Trial1	pointing/STIM_001.jpg
448.565	0.736	incorrect	pointing	Trial1	pointing/STIM_001.jpg
451.383	0.877	correct	pointing	Trial1	pointing/STIM_001.jpg
455.455	0.791	correct	pointing	Trial1	pointing/STIM_002.jpg
458.558	1.031	correct	pointing	Trial1	pointing/STIM_002.jpg
463.316	0.862	correct	pointing	Trial1	pointing/STIM_002.jpg
466.621	0.948	incorrect	pointing	Trial1	pointing/STIM_002.jpg
471.494	1.129	correct	pointing	Trial1	pointing/STIM_002.jpg
474.736	0.983	correct	pointing	Trial1	pointing/STIM_002.jpg
477.828	1.141	correct	pointing	Trial1	pointing/STIM_003.jpg
481.24	1.22	correct	pointing	Trial1	pointing/STIM_003.jpg
486.319	0.907	correct	pointing	Trial1	pointing/STIM_003.jpg
490.393	1.2	incorrect	pointing	Trial1	pointing/STIM_003.jpg
493.935	0.865	correct	pointing	Trial1	pointing/STIM_003.jpg
498.137	1.052	correct	pointing	Trial1	pointing/STIM_003.jpg
502.803	1.126	incorrect	pointing	Trial1	pointing/STIM_004.jpg
506.485	0.777	correct	pointing	Trial1	pointing/STIM_004.jpg
509.672	0.782	correct	pointing	Trial1	pointing/STIM_004.jpg
513.132	0.854	correct	pointing	Trial1	pointing/STIM_004.jpg
516.781	0.744	correct	pointing	Trial1	pointing/STIM_004.jpg
519.804	0.712	correct	pointing	Trial1	pointing/STIM_004.jpg
524.329	1.212	incorrect	pointing	Trial1	pointing/STIM_005.jpg
528.081	0.846	incorrect	pointing	Trial1	pointing/STIM_005.jpg
531.363	0.763	correct	pointing	Trial1	pointing/STIM_005.jpg
535.88	0.881	correct	pointing	Trial1	pointing/STIM_005.jpg
539.176	0.833	correct	pointing	Trial1	pointing/STIM_005.jpg
543.016	1.146	correct	pointing	Trial1	pointing/STIM_005.jpg
547.653	0.732	correct	pointing	Trial1	pointing/STIM_006.jpg
551.011	0.885	correct	pointing	Trial1	pointing/STIM_006.jpg
554.681	0.75	incorrect	pointing	Trial1	pointing/STIM_006.jpg
558.481	1.055	incorrect	pointing	Trial1	pointing/STIM_006.jpg
563.065	0.991	correct	pointing	Trial1	pointing/STIM_006.jpg
567.209	0.735	correct	pointing	Trial1	pointing/STIM_006.jpg
571.313	0.904	correct	pointing	Trial1	pointing/STIM_007.jpg
574.655	1.261	correct	pointing	Trial1	pointing/STIM_007.jpg
579.434	1.134	correct	pointing	Trial1	pointing/STIM_007.jpg
583.28	0.835	correct	pointing	Trial1	pointing/STIM_007.jpg
587.711	1.208	correct	pointing	Trial1	pointing/STIM_007.jpg
591.484	1.03	correct	pointing	Trial1	pointing/STIM_007.jpg
596.424	1.203	correct	pointing	Trial1	pointing/STIM_008.jpg
601.542	1.18	incorrect	pointing	Trial1	pointing/STIM_008.jpg
606.006	1.152	correct	pointing	Trial1	pointing/STIM_008.jpg
610.65	0.803	incorrect	pointing	Trial1	pointing/STIM_008.jpg
614.511	0.843	incorrect	pointing	Trial1	pointing/STIM_008.jpg
617.934	0.845	correct	pointing	Trial1	pointing/STIM_008.jpg
621.075	0.741	correct	pointing	Trial1	pointing/STIM_009.jpg
625.537	1.212	correct	pointing	Trial1	pointing/STIM_009.jpg
630.158	0.783	incorrect	pointing	Trial1	pointing/STIM_009.jpg
634.201	0.812	incorrect	pointing	Trial1	pointing/STIM_009.jpg
638.805	1.083	correct	pointing	Trial1	pointing/STIM_009.jpg
642.655	1.056	correct	pointing	Trial1	pointing/STIM_009.jpg
647.256	0.785	incorrect	pointing	Trial1	pointing/STIM_010.jpg
650.47	1.238	correct	pointing	Trial1	pointing/STIM_010.jpg
655.077	0.765	correct	pointing	Trial1	pointing/STIM_010.jpg
658.061	0.988	correct	pointing	Trial1	pointing/STIM_010.jpg
662.267	1.025	correct	pointing	Trial1	pointing/STIM_010.jpg
666.064	1.229	correct	pointing	Trial1	pointing/STIM_010.jpg
669.785	1.134	correct	pointing	Trial1	pointing/STIM_011.jpg
673.169	0.908	incorrect	pointing	Trial1	pointing/STIM_011.jpg
677.262	1.013	correct	pointing	Trial1	pointing/STIM_011.jpg
680.765	0.711	incorrect	pointing	Trial1	pointing/STIM_011.jpg
683.972	0.715	correct	pointing	Trial1	pointing/STIM_011.jpg
687.095	0.922	correct	pointing	Trial1	pointing/STIM_011.jpg
690.31	3.337	correct	navigation	Trial2	navigation/STIM_000.jpg
697.338	2.118	incorrect	navigation	Trial2	navigation/STIM_000.jpg
702.73	2.623	correct	navigation	Trial2	navigation/STIM_000.jpg
708.959	2.276	correct	navigation	Trial2	navigation/STIM_000.jpg
714.293	2.144	correct	navigation	Trial2	navigation/STIM_000.jpg
719.109	1.422	correct	navigation	Trial2	navigation/STIM_000.jpg
724.162	2.809	correct	navigation	Trial2	navigation/STIM_001.jpg
730.254	3.129	correct	navigation	Trial2	navigation/STIM_001.jpg
735.696	2.184	correct	navigation	Trial2	navigation/STIM_001.jpg
741.796	1.613	correct	navigation	Trial2	navigation/STIM_001.jpg
747.242	2.483	correct	navigation	Trial2	navigation/STIM_001.jpg
753.354	2.282	incorrect	navigation	Trial2	navigation/STIM_001.jpg
758.411	3.229	incorrect	navigation	Trial2	navigation/STIM_002.jpg
763.743	2.132	correct	navigation	Trial2	navigation/STIM_002.jpg
768.929	2.286	incorrect	navigation	Trial2	navigation/STIM_002.jpg
773.455	2.591	correct	navigation	Trial2	navigation/STIM_002.jpg
778.457	2.689	incorrect	navigation	Trial2	navigation/STIM_002.jpg
784.541	2.438	correct	navigation	Trial2	navigation/STIM_002.jpg
789.89	2.933	correct	navigation	Trial2	navigation/STIM_003.jpg
796.096	2.385	incorrect	navigation	Trial2	navigation/STIM_003.jpg
801.859	3.139	correct	navigation	Trial2	navigation/STIM_003.jpg
807.586	1.216	incorrect	navigation	Trial2	navigation/STIM_003.jpg
812.009	1.681	correct	navigation	Trial2	navigation/STIM_003.jpg
817.165	2.778	correct	navigation	Trial2	navigation/STIM_003.jpg
822.529	1.8	incorrect	navigation	Trial2	navigation/STIM_004.jpg
827.485	1.743	incorrect	navigation	Trial2	navigation/STIM_004.jpg
831.727	3.043	correct	navigation	Trial2	navigation/STIM_004.jpg
836.852	2.477	correct	navigation	Trial2	navigation/STIM_004.jpg
841.838	1.938	incorrect	navigation	Trial2	navigation/STIM_004.jpg
846.028	1.239	correct	navigation	Trial2	navigation/STIM_004.jpg
850.817	1.996	correct	navigation	Trial2	navigation/STIM_005.jpg
854.968	3.165	incorrect	navigation	Trial2	navigation/STIM_005.jpg
860.475	1.514	incorrect	navigation	Trial2	navigation/STIM_005.jpg
864.389	1.826	incorrect	navigation	Trial2	navigation/STIM_005.jpg
869.168	2.072	correct	navigation	Trial2	navigation/STIM_005.jpg
873.727	2.911	incorrect	navigation	Trial2	navigation/STIM_005.jpg
879.26	2.982	correct	navigation	Trial2	navigation/STIM_006.jpg
884.408	2.579	incorrect	navigation	Trial2	navigation/STIM_006.jpg
889.433	1.816	incorrect	navigation	Trial2	navigation/STIM_006.jpg
893.773	2.266	correct	navigation	Trial2	navigation/STIM_006.jpg
899.636	1.575	correct	navigation	Trial2	navigation/STIM_006.jpg
904.176	2.406	incorrect	navigation	Trial2	navigation/STIM_006.jpg
908.863	2.53	correct	navigation	Trial2	navigation/STIM_007.jpg
915.015	2.014	correct	navigation	Trial2	navigation/STIM_007.jpg
920.137	1.602	incorrect	navigation	Trial2	navigation/STIM_007.jpg
924.108	2.071	incorrect	navigation	Trial2	navigation/STIM_007.jpg
928.426	1.225	incorrect	navigation	Trial2	navigation/STIM_007.jpg
931.919	2.646	correct	navigation	Trial2	navigation/STIM_007.jpg
936.918	2.872	correct	navigation	Trial2	navigation/STIM_008.jpg
943.506	2.973	incorrect	navigation	Trial2	navigation/STIM_008.jpg
950.284	2.346	incorrect	navigation	Trial2	navigation/STIM_008.jpg
955.6	1.947	correct	navigation	Trial2	navigation/STIM_008.jpg
960.283	1.949	correct	navigation	Trial2	navigation/STIM_008.jpg
964.247	1.655	incorrect	navigation	Trial2	navigation/STIM_008.jpg
969.509	3.111	correct	navigation	Trial2	navigation/STIM_009.jpg
975.731	2.811	correct	navigation	Trial2	navigation/STIM_009.jpg
981.012	1.385	incorrect	navigation	Trial2	navigation/STIM_009.jpg
984.884	2.358	incorrect	navigation	Trial2	navigation/STIM_009.jpg
990.427	1.87	correct	navigation	Trial2	navigation/STIM_009.jpg
995.944	1.485	incorrect	navigation	Trial2	navigation/STIM_009.jpg
1001.179	2.494	correct	navigation	Trial2	navigation/STIM_010.jpg
1007.665	1.925	incorrect	navigation	Trial2	navigation/STIM_010.jpg
1012.0	1.675	incorrect	navigation	Trial2	navigation/STIM_010.jpg
1015.86	2.366	correct	navigation	Trial2	navigation/STIM_010.jpg
1021.854	1.342	incorrect	navigation	Trial2	navigation/STIM_010.jpg
1026.286	1.862	correct	navigation	Trial2	navigation/STIM_010.jpg
1031.172	3.107	correct	navigation	Trial2	navigation/STIM_011.jpg
1036.43	2.72	correct	navigation	Trial2	navigation/STIM_011.jpg
1041.689	1.81	correct	navigation	Trial2	navigation/STIM_011.jpg
1047.076	1.468	incorrect	navigation	Trial2	navigation/STIM_011.jpg
1051.517	2.869	incorrect	navigation	Trial2	navigation/STIM_011.jpg
1057.094	1.324	correct	navigation	Trial2	navigation/STIM_011.jpg
1062.01	0.849	correct	pointing	Trial2	pointing/STIM_000.jpg
1065.639	0.906	correct	pointing	Trial2	pointing/STIM_000.jpg
1068.646	1.219	correct	pointing	Trial2	pointing/STIM_000.jpg
1073.232	1.184	correct	pointing	Trial2	pointing/STIM_000.jpg
1077.273	1.211	correct	pointing	Trial2	pointing/STIM_000.jpg
1082.466	1.007	incorrect	pointing	Trial2	pointing/STIM_000.jpg
1085.713	0.732	correct	pointing	Trial2	pointing/STIM_001.jpg
1088.516	1.102	incorrect	pointing	Trial2	pointing/STIM_001.jpg
1093.608	0.732	correct	pointing	Trial2	pointing/STIM_001.jpg
1097.484	1.238	correct	pointing	Trial2	pointing/STIM_001.jpg
1100.922	1.127	incorrect	pointing	Trial2	pointing/STIM_001.jpg
1104.759	0.736	correct	pointing	Trial2	pointing/STIM_001.jpg
1109.216	1.056	correct	pointing	Trial2	pointing/STIM_002.jpg
1113.625	0.8	incorrect	pointing	Trial2	pointing/STIM_002.jpg
1116.627	1.17	correct	pointing	Trial2	pointing/STIM_002.jpg
1120.286	1.161	correct	pointing	Trial2	pointing/STIM_002.jpg
1124.753	0.855	correct	pointing	Trial2	pointing/STIM_002.jpg
1128.54	0.891	correct	pointing	Trial2	pointing/STIM_002.jpg
1131.823	0.702	correct	pointing	Trial2	pointing/STIM_003.jpg
1135.714	1.127	correct	pointing	Trial2	pointing/STIM_003.jpg
1140.515	0.679	correct	pointing	Trial2	pointing/STIM_003.jpg
1143.3	0.744	correct	pointing	Trial2	pointing/STIM_003.jpg
1147.458	1.124	correct	pointing	Trial2	pointing/STIM_003.jpg
1151.749	0.98	correct	pointing	Trial2	pointing/STIM_003.jpg
1155.506	1.051	incorrect	pointing	Trial2	pointing/STIM_004.jpg
1160.461	0.975	correct	pointing	Trial2	pointing/STIM_004.jpg
1163.821	1.184	correct	pointing	Trial2	pointing/STIM_004.jpg
1168.617	0.938	correct	pointing	Trial2	pointing/STIM_004.jpg
1171.631	0.903	incorrect	pointing	Trial2	pointing/STIM_004.jpg
1175.32	0.957	correct	pointing	Trial2	pointing/STIM_004.jpg
1179.399	0.71	incorrect	pointing	Trial2	pointing/STIM_005.jpg
1183.095	0.911	correct	pointing	Trial2	pointing/STIM_005.jpg
1187.69	1.073	incorrect	pointing	Trial2	pointing/STIM_005.jpg
1192.332	1.234	correct	pointing	Trial2	pointing/STIM_005.jpg
1196.398	1.016	correct	pointing	Trial2	pointing/STIM_005.jpg
1200.907	1.066	correct	pointing	Trial2	pointing/STIM_005.jpg
1204.067	1.184	incorrect	pointing	Trial2	pointing/STIM_006.jpg
1208.121	0.76	correct	pointing	Trial2	pointing/STIM_006.jpg
1210.904	0.948	incorrect	pointing	Trial2	pointing/STIM_006.jpg
1214.056	1.024	incorrect	pointing	Trial2	pointing/STIM_006.jpg
1217.668	1.032	incorrect	pointing	Trial2	pointing/STIM_006.jpg
1221.81	1.2	incorrect	pointing	Trial2	pointing/STIM_006.jpg
1225.453	0.971	correct	pointing	Trial2	pointing/STIM_007.jpg
1228.636	0.893	correct	pointing	Trial2	pointing/STIM_007.jpg
1232.315	1.088	correct	pointing	Trial2	pointing/STIM_007.jpg
1236.697	0.891	correct	pointing	Trial2	pointing/STIM_007.jpg
1240.5	1.262	incorrect	pointing	Trial2	pointing/STIM_007.jpg
1243.958	0.953	correct	pointing	Trial2	pointing/STIM_007.jpg
1248.223	1.048	correct	pointing	Trial2	pointing/STIM_008.jpg
1253.04	0.876	correct	pointing	Trial2	pointing/STIM_008.jpg
1257.196	1.231	incorrect	pointing	Trial2	pointing/STIM_008.jpg
1261.333	1.163	correct	pointing	Trial2	pointing/STIM_008.jpg
1265.388	0.688	correct	pointing	Trial2	pointing/STIM_008.jpg
1268.177	0.816	correct	pointing	Trial2	pointing/STIM_008.jpg
1272.435	1.169	correct	pointing	Trial2	pointing/STIM_009.jpg
1277.19	0.767	correct	pointing	Trial2	pointing/STIM_009.jpg
1281.207	1.175	correct	pointing	Trial2	pointing/STIM_009.jpg
1284.467	1.132	correct	pointing	Trial2	pointing/STIM_009.jpg
1287.979	0.81	incorrect	pointing	Trial2	pointing/STIM_009.jpg
1290.962	0.868	correct	pointing	Trial2	pointing/STIM_009.jpg
1293.891	1.156	incorrect	pointing	Trial2	pointing/STIM_010.jpg
1298.851	1.12	incorrect	pointing	Trial2	pointing/STIM_010.jpg
1303.802	0.805	correct	pointing	Trial2	pointing/STIM_010.jpg
1308.062	0.759	incorrect	pointing	Trial2	pointing/STIM_010.jpg
1311.943	0.997	incorrect	pointing	Trial2	pointing/STIM_010.jpg
1316.846	0.935	correct	pointing	Trial2	pointing/STIM_010.jpg
1320.587	0.68	incorrect	pointing	Trial2	pointing/STIM_011.jpg
1323.464	1.224	correct	pointing	Trial2	pointing/STIM_011.jpg
1328.588	0.971	correct	pointing	Trial2	pointing/STIM_011.jpg
1332.716	0.961	incorrect	pointing	Trial2	pointing/STIM_011.jpg
1337.261	0.776	correct	pointing	Trial2	pointing/STIM_011.jpg
1340.243	1.102	incorrect	pointing	Trial2	pointing/STIM_011.jpg
1344.879	1.397	correct	navigation	Trial3	navigation/STIM_000.jpg
1349.012	2.148	incorrect	navigation	Trial3	navigation/STIM_000.jpg
1354.878	2.456	correct	navigation	Trial3	navigation/STIM_000.jpg
1361.219	2.669	correct	navigation	Trial3	navigation/STIM_000.jpg
1367.1	2.644	correct	navigation	Trial3	navigation/STIM_000.jpg
1373.494	1.934	correct	navigation	Trial3	navigation/STIM_000.jpg
1379.109	2.329	correct	navigation	Trial3	navigation/STIM_001.jpg
1384.495	2.537	incorrect	navigation	Trial3	navigation/STIM_001.jpg
1389.036	1.683	incorrect	navigation	Trial3	navigation/STIM_001.jpg
1394.01	2.166	correct	navigation	Trial3	navigation/STIM_001.jpg
1398.818	2.343	correct	navigation	Trial3	navigation/STIM_001.jpg
1403.251	1.437	incorrect	navigation	Trial3	navigation/STIM_001.jpg
1407.237	2.81	correct	navigation	Trial3	navigation/STIM_002.jpg
1412.412	2.824	correct	navigation	Trial3	navigation/STIM_002.jpg
1417.608	1.838	correct	navigation	Trial3	navigation/STIM_002.jpg
1422.141	2.014	correct	navigation	Trial3	navigation/STIM_002.jpg
1428.113	1.471	incorrect	navigation	Trial3	navigation/STIM_002.jpg
1432.604	2.094	correct	navigation	Trial3	navigation/STIM_002.jpg
1437.083	1.921	correct	navigation	Trial3	navigation/STIM_003.jpg
1442.156	1.262	correct	navigation	Trial3	navigation/STIM_003.jpg
1446.704	2.026	correct	navigation	Trial3	navigation/STIM_003.jpg
1452.603	2.041	correct	navigation	Trial3	navigation/STIM_003.jpg
1458.497	2.782	correct	navigation	Trial3	navigation/STIM_003.jpg
1464.188	2.96	correct	navigation	Trial3	navigation/STIM_003.jpg
1469.628	2.417	incorrect	navigation	Trial3	navigation/STIM_004.jpg
1474.85	1.216	incorrect	navigation	Trial3	navigation/STIM_004.jpg
1478.99	1.418	correct	navigation	Trial3	navigation/STIM_004.jpg
1483.436	2.765	incorrect	navigation	Trial3	navigation/STIM_004.jpg
1489.777	1.669	correct	navigation	Trial3	navigation/STIM_004.jpg
1494.434	1.704	correct	navigation	Trial3	navigation/STIM_004.jpg
1499.28	2.33	correct	navigation	Trial3	navigation/STIM_005.jpg
1503.717	2.706	incorrect	navigation	Trial3	navigation/STIM_005.jpg
1509.786	1.36	correct	navigation	Trial3	navigation/STIM_005.jpg
1514.797	2.028	correct	navigation	Trial3	navigation/STIM_005.jpg
1519.865	1.467	correct	navigation	Trial3	navigation/STIM_005.jpg
1524.38	2.012	correct	navigation	Trial3	navigation/STIM_005.jpg
1529.733	2.159	incorrect	navigation	Trial3	navigation/STIM_006.jpg
1534.236	1.631	correct	navigation	Trial3	navigation/STIM_006.jpg
1539.272	1.296	incorrect	navigation	Trial3	navigation/STIM_006.jpg
1544.279	2.398	correct	navigation	Trial3	navigation/STIM_006.jpg
1549.737	1.887	incorrect	navigation	Trial3	navigation/STIM_006.jpg
1554.936	2.646	correct	navigation	Trial3	navigation/STIM_006.jpg
1560.769	1.865	correct	navigation	Trial3	navigation/STIM_007.jpg
1565.491	2.531	incorrect	navigation	Trial3	navigation/STIM_007.jpg
1571.626	2.177	correct	navigation	Trial3	navigation/STIM_007.jpg
1577.013	1.354	correct	navigation	Trial3	navigation/STIM_007.jpg
1581.045	2.452	correct	navigation	Trial3	navigation/STIM_007.jpg
1586.633	2.152	correct	navigation	Trial3	navigation/STIM_007.jpg
1592.527	1.34	correct	navigation	Trial3	navigation/STIM_008.jpg
1596.55	1.887	incorrect	navigation	Trial3	navigation/STIM_008.jpg
1602.14	2.583	incorrect	navigation	Trial3	navigation/STIM_008.jpg
1607.681	2.321	correct	navigation	Trial3	navigation/STIM_008.jpg
1612.833	1.839	correct	navigation	Trial3	navigation/STIM_008.jpg
1618.53	2.12	correct	navigation	Trial3	navigation/STIM_008.jpg
1623.101	2.727	correct	navigation	Trial3	navigation/STIM_009.jpg
1628.594	1.872	correct	navigation	Trial3	navigation/STIM_009.jpg
1634.291	1.303	correct	navigation	Trial3	navigation/STIM_009.jpg
1638.831	2.762	correct	navigation	Trial3	navigation/STIM_009.jpg
1644.704	1.98	correct	navigation	Trial3	navigation/STIM_009.jpg
1650.436	2.969	incorrect	navigation	Trial3	navigation/STIM_009.jpg
1656.109	2.289	correct	navigation	Trial3	navigation/STIM_010.jpg
1661.649	1.822	correct	navigation	Trial3	navigation/STIM_010.jpg
1667.46	2.642	correct	navigation	Trial3	navigation/STIM_010.jpg
1673.155	2.023	incorrect	navigation	Trial3	navigation/STIM_010.jpg
1677.518	2.149	correct	navigation	Trial3	navigation/STIM_010.jpg
1682.183	2.271	correct	navigation	Trial3	navigation/STIM_010.jpg
1688.41	1.204	correct	navigation	Trial3	navigation/STIM_011.jpg
1693.046	2.843	correct	navigation	Trial3	navigation/STIM_011.jpg
1698.659	1.83	correct	navigation	Trial3	navigation/STIM_011.jpg
1703.926	1.56	incorrect	navigation	Trial3	navigation/STIM_011.jpg
1707.73	1.52	correct	navigation	Trial3	navigation/STIM_011.jpg
1712.683	2.568	correct	navigation	Trial3	navigation/STIM_011.jpg
1719.175	0.808	correct	pointing	Trial3	pointing/STIM_000.jpg
1723.716	0.88	incorrect	pointing	Trial3	pointing/STIM_000.jpg
1727.859	0.998	correct	pointing	Trial3	pointing/STIM_000.jpg
1731.512	1.136	correct	pointing	Trial3	pointing/STIM_000.jpg
1734.98	0.748	incorrect	pointing	Trial3	pointing/STIM_000.jpg
1739.125	0.958	correct	pointing	Trial3	pointing/STIM_000.jpg
1742.501	1.228	incorrect	pointing	Trial3	pointing/STIM_001.jpg
1747.38	0.996	correct	pointing	Trial3	pointing/STIM_001.jpg
1751.63	1.166	incorrect	pointing	Trial3	pointing/STIM_001.jpg
1754.999	1.21	correct	pointing	Trial3	pointing/STIM_001.jpg
1759.041	1.087	incorrect	pointing	Trial3	pointing/STIM_001.jpg
1763.871	1.265	correct	pointing	Trial3	pointing/STIM_001.jpg
1768.734	0.892	correct	pointing	Trial3	pointing/STIM_002.jpg
1772.692	0.926	correct	pointing	Trial3	pointing/STIM_002.jpg
1775.623	1.166	correct	pointing	Trial3	pointing/STIM_002.jpg
1778.871	1.123	correct	pointing	Trial3	pointing/STIM_002.jpg
1782.205	0.791	incorrect	pointing	Trial3	pointing/STIM_002.jpg
1785.327	1.051	correct	pointing	Trial3	pointing/STIM_002.jpg
1788.739	1.2	correct	pointing	Trial3	pointing/STIM_003.jpg
1793.117	0.889	incorrect	pointing	Trial3	pointing/STIM_003.jpg
1797.382	1.168	correct	pointing	Trial3	pointing/STIM_003.jpg
1800.769	0.819	correct	pointing	Trial3	pointing/STIM_003.jpg
1803.778	0.955	correct	pointing	Trial3	pointing/STIM_003.jpg
1806.906	0.682	incorrect	pointing	Trial3	pointing/STIM_003.jpg
1810.698	0.926	correct	pointing	Trial3	pointing/STIM_004.jpg
1814.8	0.828	correct	pointing	Trial3	pointing/STIM_004.jpg
1819.424	0.88	incorrect	pointing	Trial3	pointing/STIM_004.jpg
1823.047	1.223	correct	pointing	Trial3	pointing/STIM_004.jpg
1827.891	0.909	correct	pointing	Trial3	pointing/STIM_004.jpg
1832.474	1.032	correct	pointing	Trial3	pointing/STIM_004.jpg
1835.784	0.938	correct	pointing	Trial3	pointing/STIM_005.jpg
1838.752	1.123	incorrect	pointing	Trial3	pointing/STIM_005.jpg
1841.879	1.115	correct	pointing	Trial3	pointing/STIM_005.jpg
1846.762	0.704	correct	pointing	Trial3	pointing/STIM_005.jpg
1850.436	1.16	correct	pointing	Trial3	pointing/STIM_005.jpg
1855.155	1.232	correct	pointing	Trial3	pointing/STIM_005.jpg
1858.608	0.759	correct	pointing	Trial3	pointing/STIM_006.jpg
1862.26	1.135	incorrect	pointing	Trial3	pointing/STIM_006.jpg
1867.307	1.23	correct	pointing	Trial3	pointing/STIM_006.jpg
1871.161	0.769	incorrect	pointing	Trial3	pointing/STIM_006.jpg
1874.129	1.112	correct	pointing	Trial3	pointing/STIM_006.jpg
1878.326	1.005	correct	pointing	Trial3	pointing/STIM_006.jpg
1881.999	1.022	correct	pointing	Trial3	pointing/STIM_007.jpg
1885.824	0.97	correct	pointing	Trial3	pointing/STIM_007.jpg
1889.995	0.817	correct	pointing	Trial3	pointing/STIM_007.jpg
1893.066	1.126	incorrect	pointing	Trial3	pointing/STIM_007.jpg
1896.926	0.819	correct	pointing	Trial3	pointing/STIM_007.jpg
1901.332	1.001	correct	pointing	Trial3	pointing/STIM_007.jpg
1904.656	1.032	correct	pointing	Trial3	pointing/STIM_008.jpg
1908.52	0.714	correct	pointing	Trial3	pointing/STIM_008.jpg
1912.738	0.773	correct	pointing	Trial3	pointing/STIM_008.jpg
1916.588	0.989	incorrect	pointing	Trial3	pointing/STIM_008.jpg
1919.659	1.218	correct	pointing	Trial3	pointing/STIM_008.jpg
1923.97	1.048	incorrect	pointing	Trial3	pointing/STIM_008.jpg
1928.28	0.768	incorrect	pointing	Trial3	pointing/STIM_009.jpg
1931.747	0.933	correct	pointing	Trial3	pointing/STIM_009.jpg
1935.117	0.772	correct	pointing	Trial3	pointing/STIM_009.jpg
1939.153	0.834	correct	pointing	Trial3	pointing/STIM_009.jpg
1942.942	1.029	incorrect	pointing	Trial3	pointing/STIM_009.jpg
1947.581	1.084	correct	pointing	Trial3	pointing/STIM_009.jpg
1951.639	0.976	incorrect	pointing	Trial3	pointing/STIM_010.jpg
1956.386	0.746	correct	pointing	Trial3	pointing/STIM_010.jpg
1960.352	0.824	correct	pointing	Trial3	pointing/STIM_010.jpg
1963.607	0.692	correct	pointing	Trial3	pointing/STIM_010.jpg
1967.568	1.001	correct	pointing	Trial3	pointing/STIM_010.jpg
1971.906	1.161	correct	pointing	Trial3	pointing/STIM_010.jpg
1975.827	1.224	correct	pointing	Trial3	pointing/STIM_011.jpg
1979.326	1.048	correct	pointing	Trial3	pointing/STIM_011.jpg
1983.878	1.128	correct	pointing	Trial3	pointing/STIM_011.jpg
1987.495	1.207	correct	pointing	Trial3	pointing/STIM_011.jpg
1991.428	1.178	incorrect	pointing	Trial3	pointing/STIM_011.jpg
1995.833	0.741	correct	pointing	Trial3	pointing/STIM_011.jpg
