onset	duration	response_time_ms	trial_type	learning_stage	stimulus	response_port
0.0	2.643	2642.6	navigation	Trial1	navigation/STIM_000.jpg	99
6.252	3.474	3474.5	navigation	Trial1	navigation/STIM_000.jpg	99
13.719	2.699	2699.1	navigation	Trial1	navigation/STIM_000.jpg	100
19.484	2.702	2701.5	navigation	Trial1	navigation/STIM_000.jpg	100
24.791	2.975	2975.1	navigation	Trial1	navigation/STIM_000.jpg	99
31.633	2.952	2952.4	navigation	Trial1	navigation/STIM_000.jpg	100
38.189	4.144	4143.8	navigation	Trial1	navigation/STIM_001.jpg	100
45.854	2.297	2297.0	navigation	Trial1	navigation/STIM_001.jpg	99
50.599	1.577	1577.3	navigation	Trial1	navigation/STIM_001.jpg	100
55.428	3.383	3383.2	navigation	Trial1	navigation/STIM_001.jpg	100
60.866	1.492	1492.1	navigation	Trial1	navigation/STIM_001.jpg	100
65.548	2.014	2013.5	navigation	Trial1	navigation/STIM_001.jpg	100
69.963	3.452	3452.2	navigation	Trial1	navigation/STIM_002.jpg	100
76.787	3.143	3142.9	navigation	Trial1	navigation/STIM_002.jpg	100
82.337	2.472	2472.3	navigation	Trial1	navigation/STIM_002.jpg	99
88.315	1.448	1447.8	navigation	Trial1	navigation/STIM_002.jpg	99
93.262	2.512	2512.2	navigation	Trial1	navigation/STIM_002.jpg	100
98.813	2.369	2368.6	navigation	Trial1	navigation/STIM_002.jpg	100
103.552	3.326	3325.8	navigation	Trial1	navigation/STIM_003.jpg	100
109.536	3.298	3297.7	navigation	Trial1	navigation/STIM_003.jpg	99
115.434	1.771	1771.4	navigation	Trial1	navigation/STIM_003.jpg	99
120.104	3.43	3430.4	navigation	Trial1	navigation/STIM_003.jpg	99
127.43	1.528	1528.0	navigation	Trial1	navigation/STIM_003.jpg	99
132.493	2.329	2329.3	navigation	Trial1	navigation/STIM_003.jpg	99
136.889	4.241	4240.6	navigation	Trial1	navigation/STIM_004.jpg	99
144.413	1.933	1933.3	navigation	Trial1	navigation/STIM_004.jpg	99
149.445	3.671	3670.8	navigation	Trial1	navigation/STIM_004.jpg	100
156.914	2.799	2799.3	navigation	Trial1	navigation/STIM_004.jpg	99
163.423	2.218	2217.9	navigation	Trial1	navigation/STIM_004.jpg	99
167.693	2.118	2117.7	navigation	Trial1	navigation/STIM_004.jpg	99
173.397	2.195	2194.6	navigation	Trial1	navigation/STIM_005.jpg	100
177.663	1.927	1927.1	navigation	Trial1	navigation/STIM_005.jpg	100
181.681	2.837	2837.3	navigation	Trial1	navigation/STIM_005.jpg	100
186.933	1.884	1883.6	navigation	Trial1	navigation/STIM_005.jpg	100
191.725	2.393	2392.8	navigation	Trial1	navigation/STIM_005.jpg	99
197.849	2.99	2990.5	navigation	Trial1	navigation/STIM_005.jpg	100
203.949	3.948	3947.7	navigation	Trial1	navigation/STIM_006.jpg	99
210.116	2.006	2006.5	navigation	Trial1	navigation/STIM_006.jpg	99
215.992	2.428	2428.5	navigation	Trial1	navigation/STIM_006.jpg	99
221.441	1.987	1986.6	navigation	Trial1	navigation/STIM_006.jpg	100
226.303	2.369	2369.3	navigation	Trial1	navigation/STIM_006.jpg	100
230.823	1.977	1977.4	navigation	Trial1	navigation/STIM_006.jpg	100
236.069	2.674	2674.5	navigation	Trial1	navigation/STIM_007.jpg	100
242.105	2.126	2125.9	navigation	Trial1	navigation/STIM_007.jpg	99
247.743	3.38	3380.5	navigation	Trial1	navigation/STIM_007.jpg	99
254.492	2.132	2131.8	navigation	Trial1	navigation/STIM_007.jpg	100
259.064	2.084	2083.5	navigation	Trial1	navigation/STIM_007.jpg	100
263.521	2.216	2215.9	navigation	Trial1	navigation/STIM_007.jpg	99
268.209	3.627	3626.6	navigation	Trial1	navigation/STIM_008.jpg	100
275.271	3.945	3945.1	navigation	Trial1	navigation/STIM_008.jpg	100
282.05	2.953	2952.8	navigation	Trial1	navigation/STIM_008.jpg	99
288.041	2.938	2938.2	navigation	Trial1	navigation/STIM_008.jpg	100
293.509	3.394	3394.2	navigation	Trial1	navigation/STIM_008.jpg	99
300.354	1.409	1408.6	navigation	Trial1	navigation/STIM_008.jpg	100
305.132	3.877	3877.4	navigation	Trial1	navigation/STIM_009.jpg	99
311.504	2.329	2328.7	navigation	Trial1	navigation/STIM_009.jpg	100
316.601	2.614	2614.5	navigation	Trial1	navigation/STIM_009.jpg	100
322.756	3.285	3285.3	navigation	Trial1	navigation/STIM_009.jpg	99
329.589	3.363	3362.7	navigation	Trial1	navigation/STIM_009.jpg	100
335.806	2.657	2656.9	navigation	Trial1	navigation/STIM_009.jpg	99
340.648	2.674	2674.2	navigation	Trial1	navigation/STIM_010.jpg	100
347.223	3.777	3777.0	navigation	Trial1	navigation/STIM_010.jpg	100
353.454	1.858	1857.5	navigation	Trial1	navigation/STIM_010.jpg	99
358.013	2.31	2309.5	navigation	Trial1	navigation/STIM_010.jpg	99
363.37	2.77	2769.8	navigation	Trial1	navigation/STIM_010.jpg	100
369.478	2.934	2934.1	navigation	Trial1	navigation/STIM_010.jpg	99
375.751	1.94	1939.8	navigation	Trial1	navigation/STIM_011.jpg	99
381.185	2.136	2136.2	navigation	Trial1	navigation/STIM_011.jpg	100
386.753	2.417	2417.0	navigation	Trial1	navigation/STIM_011.jpg	99
391.448	3.185	3185.1	navigation	Trial1	navigation/STIM_011.jpg	100
397.6	1.773	1773.4	navigation	Trial1	navigation/STIM_011.jpg	100
402.844	3.084	3084.3	navigation	Trial1	navigation/STIM_011.jpg	100
408.415	1.27	1270.2	pointing	Trial1	pointing/STIM_000.jpg	100
413.365	0.742	741.7	pointing	Trial1	pointing/STIM_000.jpg	99
418.045	1.252	1252.3	pointing	Trial1	pointing/STIM_000.jpg	100
422.042	0.694	694.3	pointing	Trial1	pointing/STIM_000.jpg	100
426.21	0.692	692.0	pointing	Trial1	pointing/STIM_000.jpg	99
429.434	1.086	1086.2	pointing	Trial1	pointing/STIM_000.jpg	99
433.646	0.947	947.2	pointing	Trial1	pointing/STIM_001.jpg	100
436.671	0.873	873.2	pointing	Trial1	pointing/STIM_001.jpg	99
439.623	0.933	933.4	pointing	Trial1	pointing/STIM_001.jpg	99
444.489	0.789	788.8	pointing	Trial1	pointing/STIM_001.jpg	100
448.565	0.736	735.6	pointing	Trial1	pointing/STIM_001.jpg	99
451.383	0.877	876.8	pointing	Trial1	pointing/STIM_001.jpg	100
455.455	0.791	791.2	pointing	Trial1	pointing/STIM_002.jpg	100
458.558	1.031	1031.0	pointing	Trial1	pointing/STIM_002.jpg	99
463.316	0.862	862.2	pointing	Trial1	pointing/STIM_002.jpg	100
466.621	0.948	947.6	pointing	Trial1	pointing/STIM_002.jpg	99
471.494	1.129	1129.1	pointing	Trial1	pointing/STIM_002.jpg	100
474.736	0.983	982.6	pointing	Trial1	pointing/STIM_002.jpg	99
477.828	1.141	1140.8	pointing	Trial1	pointing/STIM_003.jpg	100
481.24	1.22	1219.6	pointing	Trial1	pointing/STIM_003.jpg	100
486.319	0.907	907.4	pointing	Trial1	pointing/STIM_003.jpg	100
490.393	1.2	1199.6	pointing	Trial1	pointing/STIM_003.jpg	99
493.935	0.865	864.7	pointing	Trial1	pointing/STIM_003.jpg	99
498.137	1.052	1052.3	pointing	Trial1	pointing/STIM_003.jpg	99
502.803	1.126	1126.4	pointing	Trial1	pointing/STIM_004.jpg	99
506.485	0.777	776.6	pointing	Trial1	pointing/STIM_004.jpg	100
509.672	0.782	782.0	pointing	Trial1	pointing/STIM_004.jpg	99
513.132	0.854	854.4	pointing	Trial1	pointing/STIM_004.jpg	99
516.781	0.744	744.0	pointing	Trial1	pointing/STIM_004.jpg	100
519.804	0.712	711.5	pointing	Trial1	pointing/STIM_004.jpg	99
524.329	1.212	1212.1	pointing	Trial1	pointing/STIM_005.jpg	100
528.081	0.846	845.5	pointing	Trial1	pointing/STIM_005.jpg	100
531.363	0.763	763.4	pointing	Trial1	pointing/STIM_005.jpg	99
535.88	0.881	881.4	pointing	Trial1	pointing/STIM_005.jpg	100
539.176	0.833	833.3	pointing	Trial1	pointing/STIM_005.jpg	99
543.016	1.146	1145.6	pointing	Trial1	pointing/STIM_005.jpg	100
547.653	0.732	732.1	pointing	Trial1	pointing/STIM_006.jpg	100
551.011	0.885	885.2	pointing	Trial1	pointing/STIM_006.jpg	100
554.681	0.75	750.2	pointing	Trial1	pointing/STIM_006.jpg	100
558.481	1.055	1055.1	pointing	Trial1	pointing/STIM_006.jpg	100
563.065	0.991	990.7	pointing	Trial1	pointing/STIM_006.jpg	99
567.209	0.735	734.8	pointing	Trial1	pointing/STIM_006.jpg	99
571.313	0.904	904.3	pointing	Trial1	pointing/STIM_007.jpg	99
574.655	1.261	1260.6	pointing	Trial1	pointing/STIM_007.jpg	100
579.434	1.134	1134.0	pointing	Trial1	pointing/STIM_007.jpg	99
583.28	0.835	835.4	pointing	Trial1	pointing/STIM_007.jpg	100
587.711	1.208	1208.1	pointing	Trial1	pointing/STIM_007.jpg	100
591.484	1.03	1030.1	pointing	Trial1	pointing/STIM_007.jpg	100
596.424	1.203	1203.1	pointing	Trial1	pointing/STIM_008.jpg	100
601.542	1.18	1180.0	pointing	Trial1	pointing/STIM_008.jpg	100
606.006	1.152	1152.5	pointing	Trial1	pointing/STIM_008.jpg	99
610.65	0.803	802.6	pointing	Trial1	pointing/STIM_008.jpg	99
614.511	0.843	842.8	pointing	Trial1	pointing/STIM_008.jpg	100
617.934	0.845	844.7	pointing	Trial1	pointing/STIM_008.jpg	100
621.075	0.741	741.1	pointing	Trial1	pointing/STIM_009.jpg	99
625.537	1.212	1212.4	pointing	Trial1	pointing/STIM_009.jpg	100
630.158	0.783	782.9	pointing	Trial1	pointing/STIM_009.jpg	100
634.201	0.812	812.1	pointing	Trial1	pointing/STIM_009.jpg	99
638.805	1.083	1083.1	pointing	Trial1	pointing/STIM_009.jpg	100
642.655	1.056	1055.5	pointing	Trial1	pointing/STIM_009.jpg	100
647.256	0.785	785.1	pointing	Trial1	pointing/STIM_010.jpg	100
650.47	1.238	1237.6	pointing	Trial1	pointing/STIM_010.jpg	100
655.077	0.765	765.3	pointing	Trial1	pointing/STIM_010.jpg	100
658.061	0.988	988.1	pointing	Trial1	pointing/STIM_010.jpg	100
662.267	1.025	1025.0	pointing	Trial1	pointing/STIM_010.jpg	100
666.064	1.229	1229.3	pointing	Trial1	pointing/STIM_010.jpg	100
669.785	1.134	1134.1	pointing	Trial1	pointing/STIM_011.jpg	100
673.169	0.908	908.5	pointing	Trial1	pointing/STIM_011.jpg	99
677.262	1.013	1013.0	pointing	Trial1	pointing/STIM_011.jpg	100
680.765	0.711	711.4	pointing	Trial1	pointing/STIM_011.jpg	99
683.972	0.715	715.4	pointing	Trial1	pointing/STIM_011.jpg	99
687.095	0.922	921.7	pointing	Trial1	pointing/STIM_011.jpg	99
690.31	3.337	3336.6	navigation	Trial2	navigation/STIM_000.jpg	99
697.338	2.118	2118.5	navigation	Trial2	navigation/STIM_000.jpg	99
702.73	2.623	2622.6	navigation	Trial2	navigation/STIM_000.jpg	100
708.959	2.276	2276.5	navigation	Trial2	navigation/STIM_000.jpg	99
714.293	2.144	2143.6	navigation	Trial2	navigation/STIM_000.jpg	99
719.109	1.422	1421.6	navigation	Trial2	navigation/STIM_000.jpg	100
724.162	2.809	2809.1	navigation	Trial2	navigation/STIM_001.jpg	100
730.254	3.129	3128.8	navigation	Trial2	navigation/STIM_001.jpg	99
735.696	2.184	2183.6	navigation	Trial2	navigation/STIM_001.jpg	100
741.796	1.613	1613.3	navigation	Trial2	navigation/STIM_001.jpg	99
747.242	2.483	2483.1	navigation	Trial2	navigation/STIM_001.jpg	100
753.354	2.282	2282.1	navigation	Trial2	navigation/STIM_001.jpg	99
758.411	3.229	3228.6	navigation	Trial2	navigation/STIM_002.jpg	99
763.743	2.132	2132.5	navigation	Trial2	navigation/STIM_002.jpg	99
768.929	2.286	2286.0	navigation	Trial2	navigation/STIM_002.jpg	100
773.455	2.591	2590.7	navigation	Trial2	navigation/STIM_002.jpg	99
778.457	2.689	2689.4	navigation	Trial2	navigation/STIM_002.jpg	99
784.541	2.438	2438.4	navigation	Trial2	navigation/STIM_002.jpg	100
789.89	2.933	2933.2	navigation	Trial2	navigation/STIM_003.jpg	100
796.096	2.385	2385.4	navigation	Trial2	navigation/STIM_003.jpg	99
801.859	3.139	3138.8	navigation	Trial2	navigation/STIM_003.jpg	100
807.586	1.216	1216.5	navigation	Trial2	navigation/STIM_003.jpg	99
812.009	1.681	1680.7	navigation	Trial2	navigation/STIM_003.jpg	99
817.165	2.778	2778.1	navigation	Trial2	navigation/STIM_003.jpg	99
822.529	1.8	1800.0	navigation	Trial2	navigation/STIM_004.jpg	99
827.485	1.743	1743.4	navigation	Trial2	navigation/STIM_004.jpg	100
831.727	3.043	3043.0	navigation	Trial2	navigation/STIM_004.jpg	99
836.852	2.477	2477.3	navigation	Trial2	navigation/STIM_004.jpg	99
841.838	1.938	1938.3	navigation	Trial2	navigation/STIM_004.jpg	99
846.028	1.239	1238.8	navigation	Trial2	navigation/STIM_004.jpg	99
850.817	1.996	1996.4	navigation	Trial2	navigation/STIM_005.jpg	100
854.968	3.165	3165.3	navigation	Trial2	navigation/STIM_005.jpg	99
860.475	1.514	1514.2	navigation	Trial2	navigation/STIM_005.jpg	100
864.389	1.826	1826.3	navigation	Trial2	navigation/STIM_005.jpg	100
869.168	2.072	2071.7	navigation	Trial2	navigation/STIM_005.jpg	99
873.727	2.911	2910.7	navigation	Trial2	navigation/STIM_005.jpg	99
879.26	2.982	2982.2	navigation	Trial2	navigation/STIM_006.jpg	100
884.408	2.579	2579.4	navigation	Trial2	navigation/STIM_006.jpg	100
889.433	1.816	1815.7	navigation	Trial2	navigation/STIM_006.jpg	100
893.773	2.266	2266.5	navigation	Trial2	navigation/STIM_006.jpg	100
899.636	1.575	1575.4	navigation	Trial2	navigation/STIM_006.jpg	100
904.176	2.406	2406.2	navigation	Trial2	navigation/STIM_006.jpg	99
908.863	2.53	2529.7	navigation	Trial2	navigation/STIM_007.jpg	100
915.015	2.014	2013.6	navigation	Trial2	navigation/STIM_007.jpg	100
920.137	1.602	1602.0	navigation	Trial2	navigation/STIM_007.jpg	100
924.108	2.071	2071.3	navigation	Trial2	navigation/STIM_007.jpg	99
928.426	1.225	1225.0	navigation	Trial2	navigation/STIM_007.jpg	100
931.919	2.646	2645.7	navigation	Trial2	navigation/STIM_007.jpg	99
936.918	2.872	2872.3	navigation	Trial2	navigation/STIM_008.jpg	99
943.506	2.973	2972.6	navigation	Trial2	navigation/STIM_008.jpg	100
950.284	2.346	2345.6	navigation	Trial2	navigation/STIM_008.jpg	99
955.6	1.947	1947.2	navigation	Trial2	navigation/STIM_008.jpg	99
960.283	1.949	1949.0	navigation	Trial2	navigation/STIM_008.jpg	99
964.247	1.655	1654.7	navigation	Trial2	navigation/STIM_008.jpg	100
969.509	3.111	3111.0	navigation	Trial2	navigation/STIM_009.jpg	100
975.731	2.811	2811.4	navigation	Trial2	navigation/STIM_009.jpg	99
981.012	1.385	1385.3	navigation	Trial2	navigation/STIM_009.jpg	100
984.884	2.358	2358.2	navigation	Trial2	navigation/STIM_009.jpg	100
990.427	1.87	1870.4	navigation	Trial2	navigation/STIM_009.jpg	100
995.944	1.485	1484.8	navigation	Trial2	navigation/STIM_009.jpg	99
1001.179	2.494	2493.9	navigation	Trial2	navigation/STIM_010.jpg	99
1007.665	1.925	1925.4	navigation	Trial2	navigation/STIM_010.jpg	99
1012.0	1.675	1674.7	navigation	Trial2	navigation/STIM_010.jpg	100
1015.86	2.366	2365.9	navigation	Trial2	navigation/STIM_010.jpg	99
1021.854	1.342	1342.3	navigation	Trial2	navigation/STIM_010.jpg	100
1026.286	1.862	1862.2	navigation	Trial2	navigation/STIM_010.jpg	99
1031.172	3.107	3106.6	navigation	Trial2	navigation/STIM_011.jpg	99
1036.43	2.72	2720.5	navigation	Trial2	navigation/STIM_011.jpg	100
1041.689	1.81	1810.5	navigation	Trial2	navigation/STIM_011.jpg	100
1047.076	1.468	1468.1	navigation	Trial2	navigation/STIM_011.jpg	100
1051.517	2.869	2869.1	navigation	Trial2	navigation/STIM_011.jpg	99
1057.094	1.324	1324.0	navigation	Trial2	navigation/STIM_011.jpg	99
1062.01	0.849	849.4	pointing	Trial2	pointing/STIM_000.jpg	100
1065.639	0.906	905.9	pointing	Trial2	pointing/STIM_000.jpg	100
1068.646	1.219	1219.0	pointing	Trial2	pointing/STIM_000.jpg	100
1073.232	1.184	1183.9	pointing	Trial2	pointing/STIM_000.jpg	100
1077.273	1.211	1211.2	pointing	Trial2	pointing/STIM_000.jpg	99
1082.466	1.007	1006.7	pointing	Trial2	pointing/STIM_000.jpg	99
1085.713	0.732	732.5	pointing	Trial2	pointing/STIM_001.jpg	100
1088.516	1.102	1102.1	pointing	Trial2	pointing/STIM_001.jpg	100
1093.608	0.732	731.8	pointing	Trial2	pointing/STIM_001.jpg	99
1097.484	1.238	1238.0	pointing	Trial2	pointing/STIM_001.jpg	100
1100.922	1.127	1127.1	pointing	Trial2	pointing/STIM_001.jpg	100
1104.759	0.736	736.0	pointing	Trial2	pointing/STIM_001.jpg	100
1109.216	1.056	1055.9	pointing	Trial2	pointing/STIM_002.jpg	99
1113.625	0.8	799.7	pointing	Trial2	pointing/STIM_002.jpg	99
1116.627	1.17	1170.2	pointing	Trial2	pointing/STIM_002.jpg	99
1120.286	1.161	1160.8	pointing	Trial2	pointing/STIM_002.jpg	99
1124.753	0.855	855.0	pointing	Trial2	pointing/STIM_002.jpg	100
1128.54	0.891	890.8	pointing	Trial2	pointing/STIM_002.jpg	99
1131.823	0.702	702.2	pointing	Trial2	pointing/STIM_003.jpg	100
1135.714	1.127	1127.4	pointing	Trial2	pointing/STIM_003.jpg	99
1140.515	0.679	679.4	pointing	Trial2	pointing/STIM_003.jpg	100
1143.3	0.744	743.6	pointing	Trial2	pointing/STIM_003.jpg	100
1147.458	1.124	1123.9	pointing	Trial2	pointing/STIM_003.jpg	99
1151.749	0.98	979.7	pointing	Trial2	pointing/STIM_003.jpg	100
1155.506	1.051	1051.0	pointing	Trial2	pointing/STIM_004.jpg	99
1160.461	0.975	974.9	pointing	Trial2	pointing/STIM_004.jpg	100
1163.821	1.184	1184.0	pointing	Trial2	pointing/STIM_004.jpg	100
1168.617	0.938	938.4	pointing	Trial2	pointing/STIM_004.jpg	99
1171.631	0.903	902.8	pointing	Trial2	pointing/STIM_004.jpg	99
1175.32	0.957	957.2	pointing	Trial2	pointing/STIM_004.jpg	100
1179.399	0.71	710.2	pointing	Trial2	pointing/STIM_005.jpg	99
1183.095	0.911	910.6	pointing	Trial2	pointing/STIM_005.jpg	100
1187.69	1.073	1073.2	pointing	Trial2	pointing/STIM_005.jpg	99
1192.332	1.234	1234.2	pointing	Trial2	pointing/STIM_005.jpg	100
1196.398	1.016	1016.0	pointing	Trial2	pointing/STIM_005.jpg	99
1200.907	1.066	1066.1	pointing	Trial2	pointing/STIM_005.jpg	99
1204.067	1.184	1183.6	pointing	Trial2	pointing/STIM_006.jpg	99
1208.121	0.76	760.1	pointing	Trial2	pointing/STIM_006.jpg	99
1210.904	0.948	947.8	pointing	Trial2	pointing/STIM_006.jpg	100
1214.056	1.024	1024.5	pointing	Trial2	pointing/STIM_006.jpg	100
1217.668	1.032	1031.5	pointing	Trial2	pointing/STIM_006.jpg	100
1221.81	1.2	1200.5	pointing	Trial2	pointing/STIM_006.jpg	99
1225.453	0.971	970.9	pointing	Trial2	pointing/STIM_007.jpg	99
1228.636	0.893	892.9	pointing	Trial2	pointing/STIM_007.jpg	99
1232.315	1.088	1088.1	pointing	Trial2	pointing/STIM_007.jpg	100
1236.697	0.891	890.8	pointing	Trial2	pointing/STIM_007.jpg	100
1240.5	1.262	1262.5	pointing	Trial2	pointing/STIM_007.jpg	99
1243.958	0.953	952.7	pointing	Trial2	pointing/STIM_007.jpg	99
1248.223	1.048	1047.8	pointing	Trial2	pointing/STIM_008.jpg	99
1253.04	0.876	876.1	pointing	Trial2	pointing/STIM_008.jpg	99
1257.196	1.231	1231.1	pointing	Trial2	pointing/STIM_008.jpg	99
1261.333	1.163	1163.0	pointing	Trial2	pointing/STIM_008.jpg	99
1265.388	0.688	688.3	pointing	Trial2	pointing/STIM_008.jpg	100
1268.177	0.816	815.7	pointing	Trial2	pointing/STIM_008.jpg	100
1272.435	1.169	1169.4	pointing	Trial2	pointing/STIM_009.jpg	99
1277.19	0.767	767.2	pointing	Trial2	pointing/STIM_009.jpg	99
1281.207	1.175	1174.8	pointing	Trial2	pointing/STIM_009.jpg	100
1284.467	1.132	1132.1	pointing	Trial2	pointing/STIM_009.jpg	100
1287.979	0.81	809.8	pointing	Trial2	pointing/STIM_009.jpg	100
1290.962	0.868	868.5	pointing	Trial2	pointing/STIM_009.jpg	99
1293.891	1.156	1155.8	pointing	Trial2	pointing/STIM_010.jpg	100
1298.851	1.12	1120.2	pointing	Trial2	pointing/STIM_010.jpg	100
1303.802	0.805	805.3	pointing	Trial2	pointing/STIM_010.jpg	100
1308.062	0.759	759.0	pointing	Trial2	pointing/STIM_010.jpg	100
1311.943	0.997	996.8	pointing	Trial2	pointing/STIM_010.jpg	100
1316.846	0.935	934.6	pointing	Trial2	pointing/STIM_010.jpg	99
1320.587	0.68	680.1	pointing	Trial2	pointing/STIM_011.jpg	99
1323.464	1.224	1224.1	pointing	Trial2	pointing/STIM_011.jpg	99
1328.588	0.971	970.8	pointing	Trial2	pointing/STIM_011.jpg	99
1332.716	0.961	961.4	pointing	Trial2	pointing/STIM_011.jpg	100
1337.261	0.776	775.5	pointing	Trial2	pointing/STIM_011.jpg	100
1340.243	1.102	1101.5	pointing	Trial2	pointing/STIM_011.jpg	100
1344.879	1.397	1396.8	navigation	Trial3	navigation/STIM_000.jpg	99
1349.012	2.148	2148.1	navigation	Trial3	navigation/STIM_000.jpg	100
1354.878	2.456	2455.6	navigation	Trial3	navigation/STIM_000.jpg	99
1361.219	2.669	2669.4	navigation	Trial3	navigation/STIM_000.jpg	100
1367.1	2.644	2643.5	navigation	Trial3	navigation/STIM_000.jpg	99
1373.494	1.934	1933.6	navigation	Trial3	navigation/STIM_000.jpg	100
1379.109	2.329	2329.3	navigation	Trial3	navigation/STIM_001.jpg	99
1384.495	2.537	2536.6	navigation	Trial3	navigation/STIM_001.jpg	99
1389.036	1.683	1683.3	navigation	Trial3	navigation/STIM_001.jpg	99
1394.01	2.166	2165.9	navigation	Trial3	navigation/STIM_001.jpg	99
1398.818	2.343	2342.7	navigation	Trial3	navigation/STIM_001.jpg	100
1403.251	1.437	1436.6	navigation	Trial3	navigation/STIM_001.jpg	100
1407.237	2.81	2810.4	navigation	Trial3	navigation/STIM_002.jpg	100
1412.412	2.824	2824.0	navigation	Trial3	navigation/STIM_002.jpg	100
1417.608	1.838	1838.4	navigation	Trial3	navigation/STIM_002.jpg	99
1422.141	2.014	2013.5	navigation	Trial3	navigation/STIM_002.jpg	99
1428.113	1.471	1471.1	navigation	Trial3	navigation/STIM_002.jpg	100
1432.604	2.094	2094.5	navigation	Trial3	navigation/STIM_002.jpg	100
1437.083	1.921	1920.8	navigation	Trial3	navigation/STIM_003.jpg	100
1442.156	1.262	1261.7	navigation	Trial3	navigation/STIM_003.jpg	100
1446.704	2.026	2025.8	navigation	Trial3	navigation/STIM_003.jpg	100
1452.603	2.041	2040.8	navigation	Trial3	navigation/STIM_003.jpg	100
1458.497	2.782	2782.3	navigation	Trial3	navigation/STIM_003.jpg	99
1464.188	2.96	2959.6	navigation	Trial3	navigation/STIM_003.jpg	99
1469.628	2.417	2416.8	navigation	Trial3	navigation/STIM_004.jpg	99
1474.85	1.216	1216.4	navigation	Trial3	navigation/STIM_004.jpg	100
1478.99	1.418	1418.2	navigation	Trial3	navigation/STIM_004.jpg	99
1483.436	2.765	2764.8	navigation	Trial3	navigation/STIM_004.jpg	100
1489.777	1.669	1669.0	navigation	Trial3	navigation/STIM_004.jpg	99
1494.434	1.704	1704.1	navigation	Trial3	navigation/STIM_004.jpg	100
1499.28	2.33	2330.5	navigation	Trial3	navigation/STIM_005.jpg	100
1503.717	2.706	2705.8	navigation	Trial3	navigation/STIM_005.jpg	100
1509.786	1.36	1359.9	navigation	Trial3	navigation/STIM_005.jpg	99
1514.797	2.028	2027.9	navigation	Trial3	navigation/STIM_005.jpg	100
1519.865	1.467	1466.7	navigation	Trial3	navigation/STIM_005.jpg	100
1524.38	2.012	2011.8	navigation	Trial3	navigation/STIM_005.jpg	99
1529.733	2.159	2159.3	navigation	Trial3	navigation/STIM_006.jpg	99
1534.236	1.631	1630.9	navigation	Trial3	navigation/STIM_006.jpg	99
1539.272	1.296	1295.6	navigation	Trial3	navigation/STIM_006.jpg	99
1544.279	2.398	2397.7	navigation	Trial3	navigation/STIM_006.jpg	100
1549.737	1.887	1887.0	navigation	Trial3	navigation/STIM_006.jpg	100
1554.936	2.646	2645.5	navigation	Trial3	navigation/STIM_006.jpg	100
1560.769	1.865	1865.4	navigation	Trial3	navigation/STIM_007.jpg	99
1565.491	2.531	2530.7	navigation	Trial3	navigation/STIM_007.jpg	99
1571.626	2.177	2177.2	navigation	Trial3	navigation/STIM_007.jpg	100
1577.013	1.354	1354.1	navigation	Trial3	navigation/STIM_007.jpg	99
1581.045	2.452	2451.9	navigation	Trial3	navigation/STIM_007.jpg	100
1586.633	2.152	2151.8	navigation	Trial3	navigation/STIM_007.jpg	99
1592.527	1.34	1339.5	navigation	Trial3	navigation/STIM_008.jpg	99
1596.55	1.887	1886.6	navigation	Trial3	navigation/STIM_008.jpg	100
1602.14	2.583	2583.2	navigation	Trial3	navigation/STIM_008.jpg	99
1607.681	2.321	2321.0	navigation	Trial3	navigation/STIM_008.jpg	99
1612.833	1.839	1839.3	navigation	Trial3	navigation/STIM_008.jpg	100
1618.53	2.12	2120.5	navigation	Trial3	navigation/STIM_008.jpg	100
1623.101	2.727	2727.3	navigation	Trial3	navigation/STIM_009.jpg	100
1628.594	1.872	1872.3	navigation	Trial3	navigation/STIM_009.jpg	99
1634.291	1.303	1303.2	navigation	Trial3	navigation/STIM_009.jpg	99
1638.831	2.762	2762.5	navigation	Trial3	navigation/STIM_009.jpg	99
1644.704	1.98	1979.9	navigation	Trial3	navigation/STIM_009.jpg	99
1650.436	2.969	2969.4	navigation	Trial3	navigation/STIM_009.jpg	100
1656.109	2.289	2289.3	navigation	Trial3	navigation/STIM_010.jpg	99
1661.649	1.822	1822.4	navigation	Trial3	navigation/STIM_010.jpg	100
1667.46	2.642	2641.6	navigation	Trial3	navigation/STIM_010.jpg	100
1673.155	2.023	2023.1	navigation	Trial3	navigation/STIM_010.jpg	99
1677.518	2.149	2149.3	navigation	Trial3	navigation/STIM_010.jpg	100
1682.183	2.271	2271.1	navigation	Trial3	navigation/STIM_010.jpg	100
1688.41	1.204	1204.0	navigation	Trial3	navigation/STIM_011.jpg	99
1693.046	2.843	2843.4	navigation	Trial3	navigation/STIM_011.jpg	100
1698.659	1.83	1830.4	navigation	Trial3	navigation/STIM_011.jpg	99
1703.926	1.56	1559.5	navigation	Trial3	navigation/STIM_011.jpg	99
1707.73	1.52	1520.3	navigation	Trial3	navigation/STIM_011.jpg	100
1712.683	2.568	2567.6	navigation	Trial3	navigation/STIM_011.jpg	100
1719.175	0.808	808.5	pointing	Trial3	pointing/STIM_000.jpg	100
1723.716	0.88	879.5	pointing	Trial3	pointing/STIM_000.jpg	100
1727.859	0.998	998.2	pointing	Trial3	pointing/STIM_000.jpg	100
1731.512	1.136	1135.8	pointing	Trial3	pointing/STIM_000.jpg	100
1734.98	0.748	748.2	pointing	Trial3	pointing/STIM_000.jpg	99
1739.125	0.958	957.5	pointing	Trial3	pointing/STIM_000.jpg	99
1742.501	1.228	1227.6	pointing	Trial3	pointing/STIM_001.jpg	100
1747.38	0.996	995.9	pointing	Trial3	pointing/STIM_001.jpg	99
1751.63	1.166	1166.4	pointing	Trial3	pointing/STIM_001.jpg	99
1754.999	1.21	1209.8	pointing	Trial3	pointing/STIM_001.jpg	99
1759.041	1.087	1086.8	pointing	Trial3	pointing/STIM_001.jpg	99
1763.871	1.265	1265.3	pointing	Trial3	pointing/STIM_001.jpg	99
1768.734	0.892	892.2	pointing	Trial3	pointing/STIM_002.jpg	100
1772.692	0.926	926.2	pointing	Trial3	pointing/STIM_002.jpg	99
1775.623	1.166	1165.6	pointing	Trial3	pointing/STIM_002.jpg	99
1778.871	1.123	1122.7	pointing	Trial3	pointing/STIM_002.jpg	99
1782.205	0.791	791.0	pointing	Trial3	pointing/STIM_002.jpg	99
1785.327	1.051	1050.9	pointing	Trial3	pointing/STIM_002.jpg	99
1788.739	1.2	1199.7	pointing	Trial3	pointing/STIM_003.jpg	100
1793.117	0.889	889.4	pointing	Trial3	pointing/STIM_003.jpg	99
1797.382	1.168	1167.5	pointing	Trial3	pointing/STIM_003.jpg	99
1800.769	0.819	818.7	pointing	Trial3	pointing/STIM_003.jpg	99
1803.778	0.955	955.0	pointing	Trial3	pointing/STIM_003.jpg	100
1806.906	0.682	681.5	pointing	Trial3	pointing/STIM_003.jpg	99
1810.698	0.926	925.9	pointing	Trial3	pointing/STIM_004.jpg	99
1814.8	0.828	828.4	pointing	Trial3	pointing/STIM_004.jpg	100
1819.424	0.88	880.1	pointing	Trial3	pointing/STIM_004.jpg	100
1823.047	1.223	1223.1	pointing	Trial3	pointing/STIM_004.jpg	100
1827.891	0.909	908.9	pointing	Trial3	pointing/STIM_004.jpg	100
1832.474	1.032	1032.3	pointing	Trial3	pointing/STIM_004.jpg	100
1835.784	0.938	937.5	pointing	Trial3	pointing/STIM_005.jpg	100
1838.752	1.123	1122.9	pointing	Trial3	pointing/STIM_005.jpg	99
1841.879	1.115	1115.0	pointing	Trial3	pointing/STIM_005.jpg	100
1846.762	0.704	704.0	pointing	Trial3	pointing/STIM_005.jpg	100
1850.436	1.16	1159.5	pointing	Trial3	pointing/STIM_005.jpg	100
1855.155	1.232	1231.5	pointing	Trial3	pointing/STIM_005.jpg	99
1858.608	0.759	759.4	pointing	Trial3	pointing/STIM_006.jpg	99
1862.26	1.135	1135.2	pointing	Trial3	pointing/STIM_006.jpg	100
1867.307	1.23	1229.5	pointing	Trial3	pointing/STIM_006.jpg	99
1871.161	0.769	769.3	pointing	Trial3	pointing/STIM_006.jpg	100
1874.129	1.112	1111.5	pointing	Trial3	pointing/STIM_006.jpg	99
1878.326	1.005	1005.2	pointing	Trial3	pointing/STIM_006.jpg	100
1881.999	1.022	1022.3	pointing	Trial3	pointing/STIM_007.jpg	100
1885.824	0.97	969.8	pointing	Trial3	pointing/STIM_007.jpg	100
1889.995	0.817	817.1	pointing	Trial3	pointing/STIM_007.jpg	100
1893.066	1.126	1125.7	pointing	Trial3	pointing/STIM_007.jpg	100
1896.926	0.819	819.2	pointing	Trial3	pointing/STIM_007.jpg	100
1901.332	1.001	1001.0	pointing	Trial3	pointing/STIM_007.jpg	100
1904.656	1.032	1032.1	pointing	Trial3	pointing/STIM_008.jpg	99
1908.52	0.714	713.8	pointing	Trial3	pointing/STIM_008.jpg	100
1912.738	0.773	772.9	pointing	Trial3	pointing/STIM_008.jpg	100
1916.588	0.989	988.8	pointing	Trial3	pointing/STIM_008.jpg	100
1919.659	1.218	1218.4	pointing	Trial3	pointing/STIM_008.jpg	100
1923.97	1.048	1048.0	pointing	Trial3	pointing/STIM_008.jpg	99
1928.28	0.768	768.5	pointing	Trial3	pointing/STIM_009.jpg	99
1931.747	0.933	932.7	pointing	Trial3	pointing/STIM_009.jpg	100
1935.117	0.772	771.8	pointing	Trial3	pointing/STIM_009.jpg	99
1939.153	0.834	833.5	pointing	Trial3	pointing/STIM_009.jpg	100
1942.942	1.029	1029.3	pointing	Trial3	pointing/STIM_009.jpg	100
1947.581	1.084	1083.7	pointing	Trial3	pointing/STIM_009.jpg	100
1951.639	0.976	975.8	pointing	Trial3	pointing/STIM_010.jpg	99
1956.386	0.746	746.4	pointing	Trial3	pointing/STIM_010.jpg	99
1960.352	0.824	824.3	pointing	Trial3	pointing/STIM_010.jpg	100
1963.607	0.692	691.9	pointing	Trial3	pointing/STIM_010.jpg	99
1967.568	1.001	1001.0	pointing	Trial3	pointing/STIM_010.jpg	99
1971.906	1.161	1161.0	pointing	Trial3	pointing/STIM_010.jpg	99
1975.827	1.224	1224.5	pointing	Trial3	pointing/STIM_011.jpg	99
1979.326	1.048	1048.4	pointing	Trial3	pointing/STIM_011.jpg	99
1983.878	1.128	1127.6	pointing	Trial3	pointing/STIM_011.jpg	100
1987.495	1.207	1207.1	pointing	Trial3	pointing/STIM_011.jpg	99
1991.428	1.178	1177.8	pointing	Trial3	pointing/STIM_011.jpg	99
1995.833	0.741	741.4	pointing	Trial3	pointing/STIM_011.jpg	100
