onset	duration	accuracy	trial_type	learning_stage	stimulus
0.0	3.767	incorrect	navigation	Trial1	navigation/STIM_000.jpg
6.826	3.199	correct	navigation	Trial1	navigation/STIM_000.jpg
14.18	2.448	correct	navigation	Trial1	navigation/STIM_000.jpg
20.465	1.95	incorrect	navigation	Trial1	navigation/STIM_000.jpg
26.057	1.839	incorrect	navigation	Trial1	navigation/STIM_000.jpg
30.368	1.548	correct	navigation	Trial1	navigation/STIM_000.jpg
35.377	4.373	incorrect	navigation	Trial1	navigation/STIM_001.jpg
42.513	1.91	incorrect	navigation	Trial1	navigation/STIM_001.jpg
47.696	4.03	incorrect	navigation	Trial1	navigation/STIM_001.jpg
55.502	3.24	correct	navigation	Trial1	navigation/STIM_001.jpg
61.813	1.924	correct	navigation	Trial1	navigation/STIM_001.jpg
67.722	2.688	correct	navigation	Trial1	navigation/STIM_001.jpg
73.095	3.412	correct	navigation	Trial1	navigation/STIM_002.jpg
79.923	3.504	correct	navigation	Trial1	navigation/STIM_002.jpg
86.989	3.51	correct	navigation	Trial1	navigation/STIM_002.jpg
93.497	2.08	correct	navigation	Trial1	navigation/STIM_002.jpg
98.553	2.554	correct	navigation	Trial1	navigation/STIM_002.jpg
104.254	1.404	correct	navigation	Trial1	navigation/STIM_002.jpg
109.289	3.041	correct	navigation	Trial1	navigation/STIM_003.jpg
114.873	3.626	correct	navigation	Trial1	navigation/STIM_003.jpg
122.672	2.065	incorrect	navigation	Trial1	navigation/STIM_003.jpg
127.227	1.568	incorrect	navigation	Trial1	navigation/STIM_003.jpg
132.851	1.849	correct	navigation	Trial1	navigation/STIM_003.jpg
138.17	2.872	incorrect	navigation	Trial1	navigation/STIM_003.jpg
145.138	3.853	correct	navigation	Trial1	navigation/STIM_004.jpg
151.746	2.594	correct	navigation	Trial1	navigation/STIM_004.jpg
157.062	3.434	correct	navigation	Trial1	navigation/STIM_004.jpg
164.09	1.625	correct	navigation	Trial1	navigation/STIM_004.jpg
169.743	1.482	incorrect	navigation	Trial1	navigation/STIM_004.jpg
175.262	2.533	correct	navigation	Trial1	navigation/STIM_004.jpg
181.153	4.171	correct	navigation	Trial1	navigation/STIM_005.jpg
189.001	3.038	incorrect	navigation	Trial1	navigation/STIM_005.jpg
195.855	2.212	correct	navigation	Trial1	navigation/STIM_005.jpg
201.508	1.789	correct	navigation	Trial1	navigation/STIM_005.jpg
206.123	1.647	incorrect	navigation	Trial1	navigation/STIM_005.jpg
210.727	1.335	incorrect	navigation	Trial1	navigation/STIM_005.jpg
214.601	3.015	correct	navigation	Trial1	navigation/STIM_006.jpg
221.956	2.325	correct	navigation	Trial1	navigation/STIM_006.jpg
228.627	3.37	incorrect	navigation	Trial1	navigation/STIM_006.jpg
236.292	2.71	correct	navigation	Trial1	navigation/STIM_006.jpg
241.821	2.504	incorrect	navigation	Trial1	navigation/STIM_006.jpg
246.754	2.648	correct	navigation	Trial1	navigation/STIM_006.jpg
252.19	4.285	correct	navigation	Trial1	navigation/STIM_007.jpg
259.447	2.945	incorrect	navigation	Trial1	navigation/STIM_007.jpg
266.015	3.768	correct	navigation	Trial1	navigation/STIM_007.jpg
273.379	2.67	correct	navigation	Trial1	navigation/STIM_007.jpg
280.161	3.398	correct	navigation	Trial1	navigation/STIM_007.jpg
287.81	2.227	correct	navigation	Trial1	navigation/STIM_007.jpg
294.063	2.606	correct	navigation	Trial1	navigation/STIM_008.jpg
300.742	2.26	correct	navigation	Trial1	navigation/STIM_008.jpg
305.825	2.715	incorrect	navigation	Trial1	navigation/STIM_008.jpg
312.815	2.281	correct	navigation	Trial1	navigation/STIM_008.jpg
317.548	1.566	correct	navigation	Trial1	navigation/STIM_008.jpg
322.138	1.259	incorrect	navigation	Trial1	navigation/STIM_008.jpg
326.28	2.375	incorrect	navigation	Trial1	navigation/STIM_009.jpg
331.229	1.734	correct	navigation	Trial1	navigation/STIM_009.jpg
336.803	2.561	incorrect	navigation	Trial1	navigation/STIM_009.jpg
342.435	2.648	correct	navigation	Trial1	navigation/STIM_009.jpg
348.95	2.077	correct	navigation	Trial1	navigation/STIM_009.jpg
354.423	2.296	correct	navigation	Trial1	navigation/STIM_009.jpg
360.771	3.426	incorrect	navigation	Trial1	navigation/STIM_010.jpg
367.726	3.249	correct	navigation	Trial1	navigation/STIM_010.jpg
374.687	2.132	correct	navigation	Trial1	navigation/STIM_010.jpg
379.303	2.613	correct	navigation	Trial1	navigation/STIM_010.jpg
385.943	2.688	correct	navigation	Trial1	navigation/STIM_010.jpg
391.71	2.509	incorrect	navigation	Trial1	navigation/STIM_010.jpg
396.885	3.189	incorrect	navigation	Trial1	navigation/STIM_011.jpg
403.601	2.972	correct	navigation	Trial1	navigation/STIM_011.jpg
410.773	2.562	correct	navigation	Trial1	navigation/STIM_011.jpg
416.345	1.997	incorrect	navigation	Trial1	navigation/STIM_011.jpg
421.382	2.846	incorrect	navigation	Trial1	navigation/STIM_011.jpg
427.505	1.838	correct	navigation	Trial1	navigation/STIM_011.jpg
431.906	0.852	correct	pointing	Trial1	pointing/STIM_000.jpg
435.077	0.849	correct	pointing	Trial1	pointing/STIM_000.jpg
439.909	1.0	incorrect	pointing	Trial1	pointing/STIM_000.jpg
444.375	1.279	correct	pointing	Trial1	pointing/STIM_000.jpg
449.125	1.018	correct	pointing	Trial1	pointing/STIM_000.jpg
454.117	0.812	correct	pointing	Trial1	pointing/STIM_000.jpg
457.231	0.796	correct	pointing	Trial1	pointing/STIM_001.jpg
461.789	0.844	correct	pointing	Trial1	pointing/STIM_001.jpg
466.273	1.128	incorrect	pointing	Trial1	pointing/STIM_001.jpg
471.169	1.231	correct	pointing	Trial1	pointing/STIM_001.jpg
475.946	1.172	correct	pointing	Trial1	pointing/STIM_001.jpg
481.21	0.814	correct	pointing	Trial1	pointing/STIM_001.jpg
484.737	0.781	correct	pointing	Trial1	pointing/STIM_002.jpg
487.921	0.7	correct	pointing	Trial1	pointing/STIM_002.jpg
492.508	1.092	correct	pointing	Trial1	pointing/STIM_002.jpg
496.053	0.89	correct	pointing	Trial1	pointing/STIM_002.jpg
500.186	0.742	correct	pointing	Trial1	pointing/STIM_002.jpg
504.534	1.192	correct	pointing	Trial1	pointing/STIM_002.jpg
508.437	1.045	correct	pointing	Trial1	pointing/STIM_003.jpg
513.224	1.322	correct	pointing	Trial1	pointing/STIM_003.jpg
518.118	1.073	correct	pointing	Trial1	pointing/STIM_003.jpg
523.131	1.227	correct	pointing	Trial1	pointing/STIM_003.jpg
528.163	1.002	correct	pointing	Trial1	pointing/STIM_003.jpg
531.655	0.984	correct	pointing	Trial1	pointing/STIM_003.jpg
536.364	0.997	incorrect	pointing	Trial1	pointing/STIM_004.jpg
539.769	1.08	correct	pointing	Trial1	pointing/STIM_004.jpg
544.464	1.315	correct	pointing	Trial1	pointing/STIM_004.jpg
548.25	0.894	correct	pointing	Trial1	pointing/STIM_004.jpg
552.857	1.191	correct	pointing	Trial1	pointing/STIM_004.jpg
557.278	0.632	correct	pointing	Trial1	pointing/STIM_004.jpg
561.864	1.157	correct	pointing	Trial1	pointing/STIM_005.jpg
565.371	1.094	correct	pointing	Trial1	pointing/STIM_005.jpg
570.573	0.932	correct	pointing	Trial1	pointing/STIM_005.jpg
575.092	1.191	correct	pointing	Trial1	pointing/STIM_005.jpg
579.716	0.815	correct	pointing	Trial1	pointing/STIM_005.jpg
582.775	1.24	correct	pointing	Trial1	pointing/STIM_005.jpg
587.792	1.036	correct	pointing	Trial1	pointing/STIM_006.jpg
592.557	1.015	correct	pointing	Trial1	pointing/STIM_006.jpg
596.681	0.956	correct	pointing	Trial1	pointing/STIM_006.jpg
601.801	0.776	incorrect	pointing	Trial1	pointing/STIM_006.jpg
605.063	1.099	correct	pointing	Trial1	pointing/STIM_006.jpg
608.829	1.028	correct	pointing	Trial1	pointing/STIM_006.jpg
612.639	1.316	correct	pointing	Trial1	pointing/STIM_007.jpg
617.115	0.766	correct	pointing	Trial1	pointing/STIM_007.jpg
620.587	1.25	correct	pointing	Trial1	pointing/STIM_007.jpg
624.075	0.848	correct	pointing	Trial1	pointing/STIM_007.jpg
628.531	0.9	correct	pointing	Trial1	pointing/STIM_007.jpg
631.599	1.194	correct	pointing	Trial1	pointing/STIM_007.jpg
635.156	0.813	correct	pointing	Trial1	pointing/STIM_008.jpg
638.02	0.935	correct	pointing	Trial1	pointing/STIM_008.jpg
642.429	1.297	correct	pointing	Trial1	pointing/STIM_008.jpg
647.782	0.922	correct	pointing	Trial1	pointing/STIM_008.jpg
652.793	1.108	incorrect	pointing	Trial1	pointing/STIM_008.jpg
657.537	1.211	correct	pointing	Trial1	pointing/STIM_008.jpg
662.11	1.17	correct	pointing	Trial1	pointing/STIM_009.jpg
666.558	0.67	correct	pointing	Trial1	pointing/STIM_009.jpg
670.218	0.998	correct	pointing	Trial1	pointing/STIM_009.jpg
674.647	1.232	correct	pointing	Trial1	pointing/STIM_009.jpg
678.349	1.282	correct	pointing	Trial1	pointing/STIM_009.jpg
683.631	0.774	correct	pointing	Trial1	pointing/STIM_009.jpg
687.682	1.327	correct	pointing	Trial1	pointing/STIM_010.jpg
692.869	0.778	correct	pointing	Trial1	pointing/STIM_010.jpg
696.013	0.86	correct	pointing	Trial1	pointing/STIM_010.jpg
699.181	1.326	correct	pointing	Trial1	pointing/STIM_010.jpg
702.948	1.058	correct	pointing	Trial1	pointing/STIM_010.jpg
706.965	1.013	correct	pointing	Trial1	pointing/STIM_010.jpg
711.116	1.278	correct	pointing	Trial1	pointing/STIM_011.jpg
715.601	0.858	incorrect	pointing	Trial1	pointing/STIM_011.jpg
720.288	1.202	correct	pointing	Trial1	pointing/STIM_011.jpg
725.572	0.75	correct	pointing	Trial1	pointing/STIM_011.jpg
729.058	1.056	correct	pointing	Trial1	pointing/STIM_011.jpg
733.304	0.998	correct	pointing	Trial1	pointing/STIM_011.jpg
737.664	1.599	correct	navigation	Trial2	navigation/STIM_000.jpg
743.236	2.578	correct	navigation	Trial2	navigation/STIM_000.jpg
748.721	1.812	correct	navigation	Trial2	navigation/STIM_000.jpg
754.212	1.74	correct	navigation	Trial2	navigation/STIM_000.jpg
758.213	2.677	correct	navigation	Trial2	navigation/STIM_000.jpg
763.738	1.981	correct	navigation	Trial2	navigation/STIM_000.jpg
769.859	2.943	correct	navigation	Trial2	navigation/STIM_001.jpg
776.722	2.822	correct	navigation	Trial2	navigation/STIM_001.jpg
783.241	2.079	correct	navigation	Trial2	navigation/STIM_001.jpg
788.382	2.386	correct	navigation	Trial2	navigation/STIM_001.jpg
794.571	2.906	correct	navigation	Trial2	navigation/STIM_001.jpg
801.347	2.832	incorrect	navigation	Trial2	navigation/STIM_001.jpg
806.626	1.961	correct	navigation	Trial2	navigation/STIM_002.jpg
811.046	2.78	correct	navigation	Trial2	navigation/STIM_002.jpg
816.593	1.855	incorrect	navigation	Trial2	navigation/STIM_002.jpg
821.797	1.798	correct	navigation	Trial2	navigation/STIM_002.jpg
827.468	1.416	correct	navigation	Trial2	navigation/STIM_002.jpg
832.642	1.877	correct	navigation	Trial2	navigation/STIM_002.jpg
837.83	1.575	correct	navigation	Trial2	navigation/STIM_003.jpg
843.147	1.672	incorrect	navigation	Trial2	navigation/STIM_003.jpg
847.748	3.162	correct	navigation	Trial2	navigation/STIM_003.jpg
855.072	1.794	correct	navigation	Trial2	navigation/STIM_003.jpg
861.028	2.817	correct	navigation	Trial2	navigation/STIM_003.jpg
866.783	2.918	correct	navigation	Trial2	navigation/STIM_003.jpg
873.122	2.67	incorrect	navigation	Trial2	navigation/STIM_004.jpg
879.187	2.198	incorrect	navigation	Trial2	navigation/STIM_004.jpg
884.865	2.2	correct	navigation	Trial2	navigation/STIM_004.jpg
891.203	1.748	correct	navigation	Trial2	navigation/STIM_004.jpg
895.583	1.961	correct	navigation	Trial2	navigation/STIM_004.jpg
901.36	2.502	correct	navigation	Trial2	navigation/STIM_004.jpg
906.586	1.601	correct	navigation	Trial2	navigation/STIM_005.jpg
912.004	3.293	correct	navigation	Trial2	navigation/STIM_005.jpg
918.131	2.207	incorrect	navigation	Trial2	navigation/STIM_005.jpg
923.22	2.724	incorrect	navigation	Trial2	navigation/STIM_005.jpg
928.603	1.342	correct	navigation	Trial2	navigation/STIM_005.jpg
933.573	2.231	incorrect	navigation	Trial2	navigation/STIM_005.jpg
939.129	2.245	correct	navigation	Trial2	navigation/STIM_006.jpg
945.231	2.559	correct	navigation	Trial2	navigation/STIM_006.jpg
950.269	1.602	correct	navigation	Trial2	navigation/STIM_006.jpg
954.68	2.648	correct	navigation	Trial2	navigation/STIM_006.jpg
959.808	1.434	correct	navigation	Trial2	navigation/STIM_006.jpg
964.927	1.738	correct	navigation	Trial2	navigation/STIM_006.jpg
969.034	1.695	correct	navigation	Trial2	navigation/STIM_007.jpg
973.421	2.59	correct	navigation	Trial2	navigation/STIM_007.jpg
979.775	3.168	incorrect	navigation	Trial2	navigation/STIM_007.jpg
987.29	2.821	correct	navigation	Trial2	navigation/STIM_007.jpg
992.728	1.425	incorrect	navigation	Trial2	navigation/STIM_007.jpg
996.512	2.274	correct	navigation	Trial2	navigation/STIM_007.jpg
1002.282	2.266	correct	navigation	Trial2	navigation/STIM_008.jpg
1006.994	3.194	correct	navigation	Trial2	navigation/STIM_008.jpg
1012.709	1.419	correct	navigation	Trial2	navigation/STIM_008.jpg
1016.932	2.477	correct	navigation	Trial2	navigation/STIM_008.jpg
1021.853	1.63	correct	navigation	Trial2	navigation/STIM_008.jpg
1026.097	1.646	incorrect	navigation	Trial2	navigation/STIM_008.jpg
1031.372	1.465	correct	navigation	Trial2	navigation/STIM_009.jpg
1035.589	2.749	correct	navigation	Trial2	navigation/STIM_009.jpg
1041.728	3.289	correct	navigation	Trial2	navigation/STIM_009.jpg
1049.192	2.315	correct	navigation	Trial2	navigation/STIM_009.jpg
1054.004	2.246	correct	navigation	Trial2	navigation/STIM_009.jpg
1058.956	1.337	correct	navigation	Trial2	navigation/STIM_009.jpg
1063.806	3.234	correct	navigation	Trial2	navigation/STIM_010.jpg
1069.83	2.262	incorrect	navigation	Trial2	navigation/STIM_010.jpg
1075.876	1.759	correct	navigation	Trial2	navigation/STIM_010.jpg
1081.35	1.633	correct	navigation	Trial2	navigation/STIM_010.jpg
1087.094	2.964	incorrect	navigation	Trial2	navigation/STIM_010.jpg
1094.512	1.923	correct	navigation	Trial2	navigation/STIM_010.jpg
1099.663	2.114	correct	navigation	Trial2	navigation/STIM_011.jpg
1105.332	2.648	correct	navigation	Trial2	navigation/STIM_011.jpg
1110.601	3.015	correct	navigation	Trial2	navigation/STIM_011.jpg
1117.235	2.744	incorrect	navigation	Trial2	navigation/STIM_011.jpg
1123.946	2.561	incorrect	navigation	Trial2	navigation/STIM_011.jpg
1129.277	2.763	correct	navigation	Trial2	navigation/STIM_011.jpg
1135.953	1.316	correct	pointing	Trial2	pointing/STIM_000.jpg
1140.691	1.185	correct	pointing	Trial2	pointing/STIM_000.jpg
1145.604	0.772	correct	pointing	Trial2	pointing/STIM_000.jpg
1150.276	1.183	correct	pointing	Trial2	pointing/STIM_000.jpg
1153.992	1.155	correct	pointing	Trial2	pointing/STIM_000.jpg
1159.255	1.145	correct	pointing	Trial2	pointing/STIM_000.jpg
1162.777	0.913	correct	pointing	Trial2	pointing/STIM_001.jpg
1167.355	0.958	correct	pointing	Trial2	pointing/STIM_001.jpg
1170.946	0.974	correct	pointing	Trial2	pointing/STIM_001.jpg
1175.209	0.773	correct	pointing	Trial2	pointing/STIM_001.jpg
1178.143	0.741	correct	pointing	Trial2	pointing/STIM_001.jpg
1182.267	1.093	correct	pointing	Trial2	pointing/STIM_001.jpg
1186.046	1.032	correct	pointing	Trial2	pointing/STIM_002.jpg
1189.393	1.136	correct	pointing	Trial2	pointing/STIM_002.jpg
1193.72	1.288	correct	pointing	Trial2	pointing/STIM_002.jpg
1197.933	1.203	correct	pointing	Trial2	pointing/STIM_002.jpg
1201.806	0.894	correct	pointing	Trial2	pointing/STIM_002.jpg
1206.035	1.227	correct	pointing	Trial2	pointing/STIM_002.jpg
1210.146	0.926	correct	pointing	Trial2	pointing/STIM_003.jpg
1215.013	0.997	correct	pointing	Trial2	pointing/STIM_003.jpg
1218.686	0.724	correct	pointing	Trial2	pointing/STIM_003.jpg
1222.05	0.853	correct	pointing	Trial2	pointing/STIM_003.jpg
1225.628	0.764	correct	pointing	Trial2	pointing/STIM_003.jpg
1229.517	1.33	correct	pointing	Trial2	pointing/STIM_003.jpg
1234.414	0.724	correct	pointing	Trial2	pointing/STIM_004.jpg
1237.374	1.202	correct	pointing	Trial2	pointing/STIM_004.jpg
1240.993	1.066	correct	pointing	Trial2	pointing/STIM_004.jpg
1244.317	1.023	correct	pointing	Trial2	pointing/STIM_004.jpg
1247.962	0.872	correct	pointing	Trial2	pointing/STIM_004.jpg
1252.409	1.009	correct	pointing	Trial2	pointing/STIM_004.jpg
1257.295	1.086	incorrect	pointing	Trial2	pointing/STIM_005.jpg
1261.913	1.206	correct	pointing	Trial2	pointing/STIM_005.jpg
1266.502	1.228	correct	pointing	Trial2	pointing/STIM_005.jpg
1270.81	1.344	correct	pointing	Trial2	pointing/STIM_005.jpg
1274.318	0.898	correct	pointing	Trial2	pointing/STIM_005.jpg
1278.585	0.81	correct	pointing	Trial2	pointing/STIM_005.jpg
1282.05	0.816	incorrect	pointing	Trial2	pointing/STIM_006.jpg
1286.309	1.097	correct	pointing	Trial2	pointing/STIM_006.jpg
1289.747	1.262	correct	pointing	Trial2	pointing/STIM_006.jpg
1293.802	1.122	correct	pointing	Trial2	pointing/STIM_006.jpg
1297.983	0.712	correct	pointing	Trial2	pointing/STIM_006.jpg
1302.284	1.184	incorrect	pointing	Trial2	pointing/STIM_006.jpg
1306.987	0.833	correct	pointing	Trial2	pointing/STIM_007.jpg
1311.731	0.785	correct	pointing	Trial2	pointing/STIM_007.jpg
1314.941	0.689	correct	pointing	Trial2	pointing/STIM_007.jpg
1318.639	1.136	correct	pointing	Trial2	pointing/STIM_007.jpg
1323.243	0.827	correct	pointing	Trial2	pointing/STIM_007.jpg
1328.12	0.829	correct	pointing	Trial2	pointing/STIM_007.jpg
1331.288	0.752	correct	pointing	Trial2	pointing/STIM_008.jpg
1334.596	0.849	correct	pointing	Trial2	pointing/STIM_008.jpg
1339.258	1.033	incorrect	pointing	Trial2	pointing/STIM_008.jpg
1343.048	0.837	correct	pointing	Trial2	pointing/STIM_008.jpg
1347.279	0.978	correct	pointing	Trial2	pointing/STIM_008.jpg
1352.397	1.117	correct	pointing	Trial2	pointing/STIM_008.jpg
1356.078	0.832	correct	pointing	Trial2	pointing/STIM_009.jpg
1360.754	0.953	correct	pointing	Trial2	pointing/STIM_009.jpg
1363.849	0.702	correct	pointing	Trial2	pointing/STIM_009.jpg
1367.709	1.107	correct	pointing	Trial2	pointing/STIM_009.jpg
1372.042	0.977	correct	pointing	Trial2	pointing/STIM_009.jpg
1375.941	1.302	correct	pointing	Trial2	pointing/STIM_009.jpg
1380.441	1.309	incorrect	pointing	Trial2	pointing/STIM_010.jpg
1385.042	0.798	correct	pointing	Trial2	pointing/STIM_010.jpg
1389.014	1.105	correct	pointing	Trial2	pointing/STIM_010.jpg
1394.015	1.045	correct	pointing	Trial2	pointing/STIM_010.jpg
1398.889	0.684	incorrect	pointing	Trial2	pointing/STIM_010.jpg
1403.352	0.844	correct	pointing	Trial2	pointing/STIM_010.jpg
1407.823	1.092	correct	pointing	Trial2	pointing/STIM_011.jpg
1412.61	1.252	correct	pointing	Trial2	pointing/STIM_011.jpg
1416.231	0.874	correct	pointing	Trial2	pointing/STIM_011.jpg
1419.186	0.868	incorrect	pointing	Trial2	pointing/STIM_011.jpg
1423.364	1.234	correct	pointing	Trial2	pointing/STIM_011.jpg
1426.896	0.77	correct	pointing	Trial2	pointing/STIM_011.jpg
1431.691	1.453	correct	navigation	Trial3	navigation/STIM_000.jpg
1436.026	1.396	correct	navigation	Trial3	navigation/STIM_000.jpg
1441.215	1.912	correct	navigation	Trial3	navigation/STIM_000.jpg
1445.395	3.018	correct	navigation	Trial3	navigation/STIM_000.jpg
1451.008	1.708	correct	navigation	Trial3	navigation/STIM_000.jpg
1456.249	2.382	correct	navigation	Trial3	navigation/STIM_000.jpg
1461.554	2.278	correct	navigation	Trial3	navigation/STIM_001.jpg
1466.253	2.046	correct	navigation	Trial3	navigation/STIM_001.jpg
1470.744	2.995	correct	navigation	Trial3	navigation/STIM_001.jpg
1476.731	1.484	correct	navigation	Trial3	navigation/STIM_001.jpg
1480.74	2.353	correct	navigation	Trial3	navigation/STIM_001.jpg
1485.536	1.707	correct	navigation	Trial3	navigation/STIM_001.jpg
1491.329	1.395	correct	navigation	Trial3	navigation/STIM_002.jpg
1495.278	1.456	correct	navigation	Trial3	navigation/STIM_002.jpg
1500.321	2.491	correct	navigation	Trial3	navigation/STIM_002.jpg
1505.661	1.538	correct	navigation	Trial3	navigation/STIM_002.jpg
1511.052	1.593	correct	navigation	Trial3	navigation/STIM_002.jpg
1514.879	2.633	correct	navigation	Trial3	navigation/STIM_002.jpg
1521.398	1.44	correct	navigation	Trial3	navigation/STIM_003.jpg
1525.405	2.619	correct	navigation	Trial3	navigation/STIM_003.jpg
1532.302	1.848	correct	navigation	Trial3	navigation/STIM_003.jpg
1537.997	2.172	correct	navigation	Trial3	navigation/STIM_003.jpg
1544.283	1.958	correct	navigation	Trial3	navigation/STIM_003.jpg
1550.053	2.311	correct	navigation	Trial3	navigation/STIM_003.jpg
1556.409	1.751	correct	navigation	Trial3	navigation/STIM_004.jpg
1562.181	2.236	correct	navigation	Trial3	navigation/STIM_004.jpg
1568.653	2.493	correct	navigation	Trial3	navigation/STIM_004.jpg
1574.778	2.61	correct	navigation	Trial3	navigation/STIM_004.jpg
1580.023	1.648	correct	navigation	Trial3	navigation/STIM_004.jpg
1584.335	2.745	correct	navigation	Trial3	navigation/STIM_004.jpg
1590.435	2.715	correct	navigation	Trial3	navigation/STIM_005.jpg
1596.327	1.598	incorrect	navigation	Trial3	navigation/STIM_005.jpg
1601.323	1.822	correct	navigation	Trial3	navigation/STIM_005.jpg
1606.656	2.234	correct	navigation	Trial3	navigation/STIM_005.jpg
1612.3	2.316	correct	navigation	Trial3	navigation/STIM_005.jpg
1617.16	2.691	correct	navigation	Trial3	navigation/STIM_005.jpg
1623.908	2.685	correct	navigation	Trial3	navigation/STIM_006.jpg
1629.903	2.615	correct	navigation	Trial3	navigation/STIM_006.jpg
1635.912	1.27	correct	navigation	Trial3	navigation/STIM_006.jpg
1640.464	2.584	correct	navigation	Trial3	navigation/STIM_006.jpg
1647.148	2.307	correct	navigation	Trial3	navigation/STIM_006.jpg
1653.379	2.83	correct	navigation	Trial3	navigation/STIM_006.jpg
1660.158	1.863	correct	navigation	Trial3	navigation/STIM_007.jpg
1665.81	2.347	correct	navigation	Trial3	navigation/STIM_007.jpg
1670.866	2.94	correct	navigation	Trial3	navigation/STIM_007.jpg
1676.812	1.704	correct	navigation	Trial3	navigation/STIM_007.jpg
1682.499	2.898	correct	navigation	Trial3	navigation/STIM_007.jpg
1687.947	1.567	correct	navigation	Trial3	navigation/STIM_007.jpg
1693.466	1.554	correct	navigation	Trial3	navigation/STIM_008.jpg
1699.113	2.197	incorrect	navigation	Trial3	navigation/STIM_008.jpg
1705.319	2.313	correct	navigation	Trial3	navigation/STIM_008.jpg
1711.277	2.625	correct	navigation	Trial3	navigation/STIM_008.jpg
1716.328	1.431	correct	navigation	Trial3	navigation/STIM_008.jpg
1720.218	2.04	correct	navigation	Trial3	navigation/STIM_008.jpg
1725.014	1.937	correct	navigation	Trial3	navigation/STIM_009.jpg
1730.994	2.097	correct	navigation	Trial3	navigation/STIM_009.jpg
1736.327	2.547	correct	navigation	Trial3	navigation/STIM_009.jpg
1742.839	1.178	correct	navigation	Trial3	navigation/STIM_009.jpg
1748.043	1.528	correct	navigation	Trial3	navigation/STIM_009.jpg
1753.443	2.315	incorrect	navigation	Trial3	navigation/STIM_009.jpg
1759.439	1.453	correct	navigation	Trial3	navigation/STIM_010.jpg
1763.306	1.72	correct	navigation	Trial3	navigation/STIM_010.jpg
1767.839	2.505	correct	navigation	Trial3	navigation/STIM_010.jpg
1774.549	2.838	incorrect	navigation	Trial3	navigation/STIM_010.jpg
1779.898	1.633	correct	navigation	Trial3	navigation/STIM_010.jpg
1784.842	1.739	correct	navigation	Trial3	navigation/STIM_010.jpg
1790.496	1.21	correct	navigation	Trial3	navigation/STIM_011.jpg
1795.354	1.562	correct	navigation	Trial3	navigation/STIM_011.jpg
1800.423	2.257	correct	navigation	Trial3	navigation/STIM_011.jpg
1805.077	3.016	correct	navigation	Trial3	navigation/STIM_011.jpg
1810.821	1.26	correct	navigation	Trial3	navigation/STIM_011.jpg
1814.373	1.112	correct	navigation	Trial3	navigation/STIM_011.jpg
1818.903	1.032	correct	pointing	Trial3	pointing/STIM_000.jpg
1823.312	1.055	correct	pointing	Trial3	pointing/STIM_000.jpg
1826.826	1.298	correct	pointing	Trial3	pointing/STIM_000.jpg
1831.187	0.783	correct	pointing	Trial3	pointing/STIM_000.jpg
1835.239	1.024	correct	pointing	Trial3	pointing/STIM_000.jpg
1839.827	0.784	correct	pointing	Trial3	pointing/STIM_000.jpg
1843.651	1.164	incorrect	pointing	Trial3	pointing/STIM_001.jpg
1848.915	0.685	correct	pointing	Trial3	pointing/STIM_001.jpg
1853.751	1.076	incorrect	pointing	Trial3	pointing/STIM_001.jpg
1857.096	1.007	correct	pointing	Trial3	pointing/STIM_001.jpg
1861.383	1.02	correct	pointing	Trial3	pointing/STIM_001.jpg
1866.009	1.089	correct	pointing	Trial3	pointing/STIM_001.jpg
1869.748	0.751	correct	pointing	Trial3	pointing/STIM_002.jpg
1874.586	1.107	correct	pointing	Trial3	pointing/STIM_002.jpg
1879.509	1.156	correct	pointing	Trial3	pointing/STIM_002.jpg
1884.769	1.179	correct	pointing	Trial3	pointing/STIM_002.jpg
1888.973	0.75	correct	pointing	Trial3	pointing/STIM_002.jpg
1893.054	1.231	correct	pointing	Trial3	pointing/STIM_002.jpg
1897.646	0.78	correct	pointing	Trial3	pointing/STIM_003.jpg
1901.475	1.012	correct	pointing	Trial3	pointing/STIM_003.jpg
1905.921	1.386	correct	pointing	Trial3	pointing/STIM_003.jpg
1910.44	1.267	correct	pointing	Trial3	pointing/STIM_003.jpg
1914.32	1.008	correct	pointing	Trial3	pointing/STIM_003.jpg
1917.819	0.761	correct	pointing	Trial3	pointing/STIM_003.jpg
1921.423	0.885	correct	pointing	Trial3	pointing/STIM_004.jpg
1924.457	0.82	correct	pointing	Trial3	pointing/STIM_004.jpg
1928.988	0.874	correct	pointing	Trial3	pointing/STIM_004.jpg
1932.309	0.958	correct	pointing	Trial3	pointing/STIM_004.jpg
1937.134	0.868	correct	pointing	Trial3	pointing/STIM_004.jpg
1941.951	1.232	correct	pointing	Trial3	pointing/STIM_004.jpg
1945.488	0.959	correct	pointing	Trial3	pointing/STIM_005.jpg
1948.935	1.077	correct	pointing	Trial3	pointing/STIM_005.jpg
1953.108	0.775	correct	pointing	Trial3	pointing/STIM_005.jpg
1957.357	0.713	correct	pointing	Trial3	pointing/STIM_005.jpg
1960.512	1.224	correct	pointing	Trial3	pointing/STIM_005.jpg
1964.481	1.084	correct	pointing	Trial3	pointing/STIM_005.jpg
1968.23	0.946	correct	pointing	Trial3	pointing/STIM_006.jpg
1971.462	0.917	correct	pointing	Trial3	pointing/STIM_006.jpg
1976.105	1.046	correct	pointing	Trial3	pointing/STIM_006.jpg
1979.91	1.156	incorrect	pointing	Trial3	pointing/STIM_006.jpg
1983.84	1.226	correct	pointing	Trial3	pointing/STIM_006.jpg
1988.542	1.158	correct	pointing	Trial3	pointing/STIM_006.jpg
1992.972	0.639	correct	pointing	Trial3	pointing/STIM_007.jpg
1995.943	0.912	correct	pointing	Trial3	pointing/STIM_007.jpg
1998.992	1.123	correct	pointing	Trial3	pointing/STIM_007.jpg
2003.514	0.949	incorrect	pointing	Trial3	pointing/STIM_007.jpg
2006.641	1.203	correct	pointing	Trial3	pointing/STIM_007.jpg
2011.779	0.928	correct	pointing	Trial3	pointing/STIM_007.jpg
2016.669	1.175	correct	pointing	Trial3	pointing/STIM_008.jpg
2020.194	0.708	correct	pointing	Trial3	pointing/STIM_008.jpg
2023.136	1.287	correct	pointing	Trial3	pointing/STIM_008.jpg
2027.45	1.043	correct	pointing	Trial3	pointing/STIM_008.jpg
2031.014	1.217	correct	pointing	Trial3	pointing/STIM_008.jpg
2034.878	1.001	incorrect	pointing	Trial3	pointing/STIM_008.jpg
2039.884	0.848	incorrect	pointing	Trial3	pointing/STIM_009.jpg
2044.535	0.825	correct	pointing	Trial3	pointing/STIM_009.jpg
2049.415	1.314	correct	pointing	Trial3	pointing/STIM_009.jpg
2053.443	0.873	correct	pointing	Trial3	pointing/STIM_009.jpg
2056.763	1.157	correct	pointing	Trial3	pointing/STIM_009.jpg
2061.981	1.015	correct	pointing	Trial3	pointing/STIM_009.jpg
2065.515	0.751	correct	pointing	Trial3	pointing/STIM_010.jpg
2070.095	1.029	correct	pointing	Trial3	pointing/STIM_010.jpg
2073.691	0.91	correct	pointing	Trial3	pointing/STIM_010.jpg
2077.858	0.812	correct	pointing	Trial3	pointing/STIM_010.jpg
2081.443	0.705	correct	pointing	Trial3	pointing/STIM_010.jpg
2085.544	0.725	correct	pointing	Trial3	pointing/STIM_010.jpg
2089.465	1.114	correct	pointing	Trial3	pointing/STIM_011.jpg
2094.007	1.081	correct	pointing	Trial3	pointing/STIM_011.jpg
2098.014	1.165	correct	pointing	Trial3	pointing/STIM_011.jpg
2102.57	1.168	correct	pointing	Trial3	pointing/STIM_011.jpg
2106.294	1.257	correct	pointing	Trial3	pointing/STIM_011.jpg
2110.035	1.293	correct	pointing	Trial3	pointing/STIM_011.jpg
