onset	duration	accuracy	trial_type	learning_stage	stimulus
0.0	1.387	incorrect	generate	Run1	generate/STIM_000.jpg
3.51	2.027	correct	generate	Run1	generate/STIM_000.jpg
8.47	2.234	correct	generate	Run1	generate/STIM_000.jpg
13.678	1.721	correct	generate	Run1	generate/STIM_000.jpg
18.387	2.141	correct	generate	Run1	generate/STIM_000.jpg
23.149	2.364	incorrect	generate	Run1	generate/STIM_001.jpg
27.677	1.421	correct	generate	Run1	generate/STIM_001.jpg
31.481	1.529	correct	generate	Run1	generate/STIM_001.jpg
36.683	1.937	correct	generate	Run1	generate/STIM_001.jpg
41.137	1.811	incorrect	generate	Run1	generate/STIM_001.jpg
45.519	1.731	correct	generate	Run1	generate/STIM_002.jpg
49.281	2.366	correct	generate	Run1	generate/STIM_002.jpg
53.721	2.091	correct	generate	Run1	generate/STIM_002.jpg
58.768	1.357	correct	generate	Run1	generate/STIM_002.jpg
63.11	1.501	correct	generate	Run1	generate/STIM_002.jpg
66.638	1.202	correct	generate	Run1	generate/STIM_003.jpg
70.675	1.887	incorrect	generate	Run1	generate/STIM_003.jpg
75.184	1.637	correct	generate	Run1	generate/STIM_003.jpg
78.947	0.995	incorrect	generate	Run1	generate/STIM_003.jpg
83.482	1.024	incorrect	generate	Run1	generate/STIM_003.jpg
87.657	1.927	correct	generate	Run1	generate/STIM_004.jpg
92.373	2.162	incorrect	generate	Run1	generate/STIM_004.jpg
97.213	1.19	correct	generate	Run1	generate/STIM_004.jpg
102.289	1.651	incorrect	generate	Run1	generate/STIM_004.jpg
107.311	1.035	correct	generate	Run1	generate/STIM_004.jpg
111.725	2.39	correct	generate	Run1	generate/STIM_005.jpg
116.191	1.162	correct	generate	Run1	generate/STIM_005.jpg
120.244	1.321	correct	generate	Run1	generate/STIM_005.jpg
123.676	2.255	incorrect	generate	Run1	generate/STIM_005.jpg
129.539	0.926	correct	generate	Run1	generate/STIM_005.jpg
133.472	2.311	correct	generate	Run1	generate/STIM_006.jpg
139.475	1.464	correct	generate	Run1	generate/STIM_006.jpg
144.749	1.664	correct	generate	Run1	generate/STIM_006.jpg
149.434	2.11	correct	generate	Run1	generate/STIM_006.jpg
153.977	1.52	correct	generate	Run1	generate/STIM_006.jpg
157.812	1.392	correct	generate	Run1	generate/STIM_007.jpg
161.351	2.525	correct	generate	Run1	generate/STIM_007.jpg
165.921	2.193	correct	generate	Run1	generate/STIM_007.jpg
171.87	1.598	incorrect	generate	Run1	generate/STIM_007.jpg
176.506	0.997	correct	generate	Run1	generate/STIM_007.jpg
180.409	1.956	correct	generate	Run1	generate/STIM_008.jpg
185.934	1.127	correct	generate	Run1	generate/STIM_008.jpg
190.496	0.997	incorrect	generate	Run1	generate/STIM_008.jpg
195.021	1.886	correct	generate	Run1	generate/STIM_008.jpg
200.754	1.626	correct	generate	Run1	generate/STIM_008.jpg
206.311	1.271	incorrect	generate	Run1	generate/STIM_009.jpg
210.052	1.653	correct	generate	Run1	generate/STIM_009.jpg
214.441	1.016	correct	generate	Run1	generate/STIM_009.jpg
218.759	2.238	correct	generate	Run1	generate/STIM_009.jpg
223.504	1.164	correct	generate	Run1	generate/STIM_009.jpg
227.751	1.986	correct	generate	Run1	generate/STIM_010.jpg
233.424	1.869	correct	generate	Run1	generate/STIM_010.jpg
237.522	2.441	incorrect	generate	Run1	generate/STIM_010.jpg
242.342	0.978	incorrect	generate	Run1	generate/STIM_010.jpg
246.477	1.171	correct	generate	Run1	generate/STIM_010.jpg
251.144	1.172	correct	generate	Run1	generate/STIM_011.jpg
254.846	2.498	correct	generate	Run1	generate/STIM_011.jpg
260.729	1.667	correct	generate	Run1	generate/STIM_011.jpg
266.224	1.118	correct	generate	Run1	generate/STIM_011.jpg
270.667	1.752	correct	generate	Run1	generate/STIM_011.jpg
274.853	1.679	correct	generate	Run1	generate/STIM_012.jpg
280.009	1.982	correct	generate	Run1	generate/STIM_012.jpg
284.638	1.921	correct	generate	Run1	generate/STIM_012.jpg
290.321	2.005	correct	generate	Run1	generate/STIM_012.jpg
295.157	1.355	correct	generate	Run1	generate/STIM_012.jpg
299.288	1.424	incorrect	generate	Run1	generate/STIM_013.jpg
303.262	1.369	correct	generate	Run1	generate/STIM_013.jpg
307.03	1.127	incorrect	generate	Run1	generate/STIM_013.jpg
310.722	2.268	correct	generate	Run1	generate/STIM_013.jpg
316.181	1.57	correct	generate	Run1	generate/STIM_013.jpg
321.187	1.153	correct	generate	Run1	generate/STIM_014.jpg
324.862	2.139	correct	generate	Run1	generate/STIM_014.jpg
329.429	1.183	correct	generate	Run1	generate/STIM_014.jpg
334.212	1.003	correct	generate	Run1	generate/STIM_014.jpg
338.758	1.765	correct	generate	Run1	generate/STIM_014.jpg
343.541	1.727	correct	generate	Run1	generate/STIM_015.jpg
347.427	2.441	incorrect	generate	Run1	generate/STIM_015.jpg
353.199	2.246	correct	generate	Run1	generate/STIM_015.jpg
357.508	1.913	correct	generate	Run1	generate/STIM_015.jpg
361.67	1.488	incorrect	generate	Run1	generate/STIM_015.jpg
366.883	2.643	correct	generate	Run1	generate/STIM_016.jpg
372.076	1.63	incorrect	generate	Run1	generate/STIM_016.jpg
376.892	1.159	correct	generate	Run1	generate/STIM_016.jpg
381.991	1.336	correct	generate	Run1	generate/STIM_016.jpg
387.114	0.983	correct	generate	Run1	generate/STIM_016.jpg
390.476	2.161	correct	generate	Run1	generate/STIM_017.jpg
394.945	1.137	correct	generate	Run1	generate/STIM_017.jpg
398.711	1.718	correct	generate	Run1	generate/STIM_017.jpg
404.316	1.162	correct	generate	Run1	generate/STIM_017.jpg
407.936	2.01	correct	generate	Run1	generate/STIM_017.jpg
413.664	1.179	incorrect	generate	Run1	generate/STIM_018.jpg
418.731	1.174	correct	generate	Run1	generate/STIM_018.jpg
423.127	1.701	correct	generate	Run1	generate/STIM_018.jpg
428.511	2.148	correct	generate	Run1	generate/STIM_018.jpg
432.864	1.801	correct	generate	Run1	generate/STIM_018.jpg
437.668	1.623	incorrect	generate	Run1	generate/STIM_019.jpg
442.66	1.173	correct	generate	Run1	generate/STIM_019.jpg
446.219	2.144	correct	generate	Run1	generate/STIM_019.jpg
450.963	1.509	correct	generate	Run1	generate/STIM_019.jpg
456.27	1.662	correct	generate	Run1	generate/STIM_019.jpg
460.105	2.5	correct	generate	Run1	generate/STIM_020.jpg
464.697	2.205	correct	generate	Run1	generate/STIM_020.jpg
470.256	2.279	correct	generate	Run1	generate/STIM_020.jpg
475.422	0.935	correct	generate	Run1	generate/STIM_020.jpg
478.86	1.422	correct	generate	Run1	generate/STIM_020.jpg
483.233	1.328	correct	generate	Run1	generate/STIM_021.jpg
487.102	2.296	incorrect	generate	Run1	generate/STIM_021.jpg
492.771	0.995	incorrect	generate	Run1	generate/STIM_021.jpg
497.268	1.272	correct	generate	Run1	generate/STIM_021.jpg
502.203	1.893	correct	generate	Run1	generate/STIM_021.jpg
506.858	2.691	correct	generate	Run1	generate/STIM_022.jpg
511.615	2.309	correct	generate	Run1	generate/STIM_022.jpg
516.733	1.674	correct	generate	Run1	generate/STIM_022.jpg
522.147	1.397	correct	generate	Run1	generate/STIM_022.jpg
526.784	2.06	incorrect	generate	Run1	generate/STIM_022.jpg
531.681	1.885	correct	generate	Run1	generate/STIM_023.jpg
536.972	1.718	correct	generate	Run1	generate/STIM_023.jpg
541.602	1.673	incorrect	generate	Run1	generate/STIM_023.jpg
546.306	1.297	incorrect	generate	Run1	generate/STIM_023.jpg
551.354	2.164	incorrect	generate	Run1	generate/STIM_023.jpg
556.8	1.77	incorrect	generate	Run1	generate/STIM_024.jpg
561.498	1.147	incorrect	generate	Run1	generate/STIM_024.jpg
565.835	1.509	correct	generate	Run1	generate/STIM_024.jpg
570.964	1.021	correct	generate	Run1	generate/STIM_024.jpg
575.701	1.364	incorrect	generate	Run1	generate/STIM_024.jpg
580.805	0.534	correct	repeat	Run1	repeat/STIM_000.jpg
584.753	0.591	correct	repeat	Run1	repeat/STIM_000.jpg
587.746	0.642	correct	repeat	Run1	repeat/STIM_000.jpg
590.502	0.688	correct	repeat	Run1	repeat/STIM_000.jpg
594.457	0.731	correct	repeat	Run1	repeat/STIM_000.jpg
597.661	0.851	correct	repeat	Run1	repeat/STIM_001.jpg
600.723	0.815	correct	repeat	Run1	repeat/STIM_001.jpg
605.152	0.854	correct	repeat	Run1	repeat/STIM_001.jpg
608.551	0.705	correct	repeat	Run1	repeat/STIM_001.jpg
612.578	0.456	correct	repeat	Run1	repeat/STIM_001.jpg
616.568	0.542	correct	repeat	Run1	repeat/STIM_002.jpg
619.288	0.487	correct	repeat	Run1	repeat/STIM_002.jpg
622.359	0.613	correct	repeat	Run1	repeat/STIM_002.jpg
625.58	0.87	correct	repeat	Run1	repeat/STIM_002.jpg
629.413	0.617	correct	repeat	Run1	repeat/STIM_002.jpg
632.592	0.74	correct	repeat	Run1	repeat/STIM_003.jpg
636.921	0.692	incorrect	repeat	Run1	repeat/STIM_003.jpg
639.685	0.772	correct	repeat	Run1	repeat/STIM_003.jpg
643.396	0.595	correct	repeat	Run1	repeat/STIM_003.jpg
646.593	0.821	incorrect	repeat	Run1	repeat/STIM_003.jpg
650.771	0.455	correct	repeat	Run1	repeat/STIM_004.jpg
655.053	0.595	correct	repeat	Run1	repeat/STIM_004.jpg
659.385	0.796	incorrect	repeat	Run1	repeat/STIM_004.jpg
662.555	0.667	correct	repeat	Run1	repeat/STIM_004.jpg
665.973	0.603	correct	repeat	Run1	repeat/STIM_004.jpg
668.718	0.757	correct	repeat	Run1	repeat/STIM_005.jpg
671.594	0.556	correct	repeat	Run1	repeat/STIM_005.jpg
674.596	0.74	incorrect	repeat	Run1	repeat/STIM_005.jpg
677.756	0.849	correct	repeat	Run1	repeat/STIM_005.jpg
682.509	0.568	incorrect	repeat	Run1	repeat/STIM_005.jpg
685.413	0.679	correct	repeat	Run1	repeat/STIM_006.jpg
689.836	0.537	correct	repeat	Run1	repeat/STIM_006.jpg
693.683	0.492	correct	repeat	Run1	repeat/STIM_006.jpg
696.757	0.62	correct	repeat	Run1	repeat/STIM_006.jpg
699.422	0.644	correct	repeat	Run1	repeat/STIM_006.jpg
703.303	0.598	correct	repeat	Run1	repeat/STIM_007.jpg
706.845	0.826	correct	repeat	Run1	repeat/STIM_007.jpg
711.084	0.81	correct	repeat	Run1	repeat/STIM_007.jpg
714.343	0.77	correct	repeat	Run1	repeat/STIM_007.jpg
718.16	0.566	correct	repeat	Run1	repeat/STIM_007.jpg
721.819	0.828	correct	repeat	Run1	repeat/STIM_008.jpg
725.355	0.577	correct	repeat	Run1	repeat/STIM_008.jpg
729.53	0.461	correct	repeat	Run1	repeat/STIM_008.jpg
733.916	0.89	correct	repeat	Run1	repeat/STIM_008.jpg
738.242	0.657	correct	repeat	Run1	repeat/STIM_008.jpg
741.975	0.809	correct	repeat	Run1	repeat/STIM_009.jpg
746.24	0.734	correct	repeat	Run1	repeat/STIM_009.jpg
750.161	0.678	correct	repeat	Run1	repeat/STIM_009.jpg
754.167	0.682	correct	repeat	Run1	repeat/STIM_009.jpg
758.73	0.616	correct	repeat	Run1	repeat/STIM_009.jpg
762.607	0.721	correct	repeat	Run1	repeat/STIM_010.jpg
767.265	0.739	correct	repeat	Run1	repeat/STIM_010.jpg
771.046	0.58	correct	repeat	Run1	repeat/STIM_010.jpg
774.854	0.868	incorrect	repeat	Run1	repeat/STIM_010.jpg
779.692	0.76	correct	repeat	Run1	repeat/STIM_010.jpg
783.164	0.802	correct	repeat	Run1	repeat/STIM_011.jpg
787.674	0.466	correct	repeat	Run1	repeat/STIM_011.jpg
791.736	0.605	correct	repeat	Run1	repeat/STIM_011.jpg
794.472	0.777	correct	repeat	Run1	repeat/STIM_011.jpg
797.886	0.628	correct	repeat	Run1	repeat/STIM_011.jpg
800.525	0.596	correct	repeat	Run1	repeat/STIM_012.jpg
803.61	0.549	correct	repeat	Run1	repeat/STIM_012.jpg
806.199	0.643	correct	repeat	Run1	repeat/STIM_012.jpg
808.925	0.587	correct	repeat	Run1	repeat/STIM_012.jpg
812.196	0.637	correct	repeat	Run1	repeat/STIM_012.jpg
815.113	0.54	correct	repeat	Run1	repeat/STIM_013.jpg
818.199	0.489	correct	repeat	Run1	repeat/STIM_013.jpg
822.222	0.689	correct	repeat	Run1	repeat/STIM_013.jpg
826.889	0.693	correct	repeat	Run1	repeat/STIM_013.jpg
831.274	0.716	correct	repeat	Run1	repeat/STIM_013.jpg
835.202	0.468	correct	repeat	Run1	repeat/STIM_014.jpg
838.821	0.621	correct	repeat	Run1	repeat/STIM_014.jpg
843.386	0.836	correct	repeat	Run1	repeat/STIM_014.jpg
847.436	0.684	correct	repeat	Run1	repeat/STIM_014.jpg
850.898	0.861	correct	repeat	Run1	repeat/STIM_014.jpg
854.637	1.422	correct	generate	Run2	generate/STIM_000.jpg
859.44	2.004	correct	generate	Run2	generate/STIM_000.jpg
865.303	1.587	incorrect	generate	Run2	generate/STIM_000.jpg
869.849	0.855	incorrect	generate	Run2	generate/STIM_000.jpg
873.47	1.354	correct	generate	Run2	generate/STIM_000.jpg
877.792	1.726	correct	generate	Run2	generate/STIM_001.jpg
882.491	1.544	correct	generate	Run2	generate/STIM_001.jpg
887.53	1.304	incorrect	generate	Run2	generate/STIM_001.jpg
890.883	1.686	incorrect	generate	Run2	generate/STIM_001.jpg
895.559	0.987	incorrect	generate	Run2	generate/STIM_001.jpg
898.901	1.127	correct	generate	Run2	generate/STIM_002.jpg
903.336	1.051	incorrect	generate	Run2	generate/STIM_002.jpg
906.696	1.192	correct	generate	Run2	generate/STIM_002.jpg
909.916	1.025	correct	generate	Run2	generate/STIM_002.jpg
913.811	1.327	incorrect	generate	Run2	generate/STIM_002.jpg
917.981	2.149	correct	generate	Run2	generate/STIM_003.jpg
922.272	1.037	correct	generate	Run2	generate/STIM_003.jpg
927.132	1.757	correct	generate	Run2	generate/STIM_003.jpg
931.776	0.841	incorrect	generate	Run2	generate/STIM_003.jpg
935.213	0.936	incorrect	generate	Run2	generate/STIM_003.jpg
938.421	1.24	correct	generate	Run2	generate/STIM_004.jpg
943.247	1.524	correct	generate	Run2	generate/STIM_004.jpg
948.741	1.251	correct	generate	Run2	generate/STIM_004.jpg
953.782	1.184	incorrect	generate	Run2	generate/STIM_004.jpg
957.471	0.788	correct	generate	Run2	generate/STIM_004.jpg
960.405	1.638	correct	generate	Run2	generate/STIM_005.jpg
964.416	1.002	correct	generate	Run2	generate/STIM_005.jpg
967.431	1.108	correct	generate	Run2	generate/STIM_005.jpg
970.736	1.618	correct	generate	Run2	generate/STIM_005.jpg
975.884	1.874	correct	generate	Run2	generate/STIM_005.jpg
980.292	1.799	correct	generate	Run2	generate/STIM_006.jpg
985.288	1.01	incorrect	generate	Run2	generate/STIM_006.jpg
988.554	1.935	correct	generate	Run2	generate/STIM_006.jpg
993.85	1.62	correct	generate	Run2	generate/STIM_006.jpg
997.642	1.417	correct	generate	Run2	generate/STIM_006.jpg
1001.424	1.285	correct	generate	Run2	generate/STIM_007.jpg
1006.621	1.255	correct	generate	Run2	generate/STIM_007.jpg
1011.161	1.751	correct	generate	Run2	generate/STIM_007.jpg
1015.226	1.4	correct	generate	Run2	generate/STIM_007.jpg
1018.727	1.285	correct	generate	Run2	generate/STIM_007.jpg
1023.182	1.074	correct	generate	Run2	generate/STIM_008.jpg
1027.847	1.483	correct	generate	Run2	generate/STIM_008.jpg
1032.5	1.847	correct	generate	Run2	generate/STIM_008.jpg
1037.244	0.812	correct	generate	Run2	generate/STIM_008.jpg
1040.458	1.625	correct	generate	Run2	generate/STIM_008.jpg
1045.658	2.114	incorrect	generate	Run2	generate/STIM_009.jpg
1050.61	2.111	correct	generate	Run2	generate/STIM_009.jpg
1054.917	1.583	correct	generate	Run2	generate/STIM_009.jpg
1058.813	1.437	correct	generate	Run2	generate/STIM_009.jpg
1063.478	1.18	correct	generate	Run2	generate/STIM_009.jpg
1068.607	1.966	correct	generate	Run2	generate/STIM_010.jpg
1073.461	0.917	incorrect	generate	Run2	generate/STIM_010.jpg
1078.177	1.19	correct	generate	Run2	generate/STIM_010.jpg
1082.945	1.074	correct	generate	Run2	generate/STIM_010.jpg
1087.725	1.0	correct	generate	Run2	generate/STIM_010.jpg
1092.217	1.178	correct	generate	Run2	generate/STIM_011.jpg
1096.215	1.154	incorrect	generate	Run2	generate/STIM_011.jpg
1100.58	1.297	correct	generate	Run2	generate/STIM_011.jpg
1103.922	1.43	correct	generate	Run2	generate/STIM_011.jpg
1109.129	0.822	correct	generate	Run2	generate/STIM_011.jpg
1111.974	1.574	correct	generate	Run2	generate/STIM_012.jpg
1117.207	1.279	correct	generate	Run2	generate/STIM_012.jpg
1120.969	1.177	correct	generate	Run2	generate/STIM_012.jpg
1124.262	1.514	correct	generate	Run2	generate/STIM_012.jpg
1128.953	0.768	correct	generate	Run2	generate/STIM_012.jpg
1133.27	1.693	correct	generate	Run2	generate/STIM_013.jpg
1138.535	1.162	correct	generate	Run2	generate/STIM_013.jpg
1142.622	1.568	incorrect	generate	Run2	generate/STIM_013.jpg
1147.757	1.564	correct	generate	Run2	generate/STIM_013.jpg
1152.75	1.704	correct	generate	Run2	generate/STIM_013.jpg
1157.386	1.008	correct	generate	Run2	generate/STIM_014.jpg
1161.657	1.534	correct	generate	Run2	generate/STIM_014.jpg
1165.286	1.326	correct	generate	Run2	generate/STIM_014.jpg
1168.896	1.189	correct	generate	Run2	generate/STIM_014.jpg
1173.585	0.952	correct	generate	Run2	generate/STIM_014.jpg
1176.739	2.208	correct	generate	Run2	generate/STIM_015.jpg
1182.238	1.427	incorrect	generate	Run2	generate/STIM_015.jpg
1187.276	1.29	incorrect	generate	Run2	generate/STIM_015.jpg
1192.397	0.89	correct	generate	Run2	generate/STIM_015.jpg
1196.506	1.584	correct	generate	Run2	generate/STIM_015.jpg
1201.666	1.106	correct	generate	Run2	generate/STIM_016.jpg
1205.764	1.065	correct	generate	Run2	generate/STIM_016.jpg
1209.269	1.045	correct	generate	Run2	generate/STIM_016.jpg
1212.645	1.62	correct	generate	Run2	generate/STIM_016.jpg
1218.239	1.831	correct	generate	Run2	generate/STIM_016.jpg
1222.505	2.224	correct	generate	Run2	generate/STIM_017.jpg
1227.036	2.128	incorrect	generate	Run2	generate/STIM_017.jpg
1232.476	1.028	correct	generate	Run2	generate/STIM_017.jpg
1236.978	0.79	correct	generate	Run2	generate/STIM_017.jpg
1241.037	1.341	correct	generate	Run2	generate/STIM_017.jpg
1246.107	1.414	incorrect	generate	Run2	generate/STIM_018.jpg
1250.748	2.108	correct	generate	Run2	generate/STIM_018.jpg
1256.174	1.587	incorrect	generate	Run2	generate/STIM_018.jpg
1260.92	0.85	correct	generate	Run2	generate/STIM_018.jpg
1264.757	1.044	correct	generate	Run2	generate/STIM_018.jpg
1268.854	2.087	correct	generate	Run2	generate/STIM_019.jpg
1273.407	1.294	correct	generate	Run2	generate/STIM_019.jpg
1277.02	1.68	correct	generate	Run2	generate/STIM_019.jpg
1281.33	1.459	correct	generate	Run2	generate/STIM_019.jpg
1286.112	1.603	incorrect	generate	Run2	generate/STIM_019.jpg
1291.141	1.418	correct	generate	Run2	generate/STIM_020.jpg
1295.201	1.179	correct	generate	Run2	generate/STIM_020.jpg
1299.655	1.29	correct	generate	Run2	generate/STIM_020.jpg
1303.948	1.766	correct	generate	Run2	generate/STIM_020.jpg
1308.52	1.557	correct	generate	Run2	generate/STIM_020.jpg
1313.364	1.537	correct	generate	Run2	generate/STIM_021.jpg
1318.38	2.052	correct	generate	Run2	generate/STIM_021.jpg
1322.491	1.729	correct	generate	Run2	generate/STIM_021.jpg
1327.369	0.908	correct	generate	Run2	generate/STIM_021.jpg
1331.652	0.973	correct	generate	Run2	generate/STIM_021.jpg
1336.288	1.495	correct	generate	Run2	generate/STIM_022.jpg
1341.409	1.57	incorrect	generate	Run2	generate/STIM_022.jpg
1346.14	1.839	correct	generate	Run2	generate/STIM_022.jpg
1350.312	1.893	incorrect	generate	Run2	generate/STIM_022.jpg
1355.357	1.062	correct	generate	Run2	generate/STIM_022.jpg
1358.97	1.303	correct	generate	Run2	generate/STIM_023.jpg
1363.961	1.686	correct	generate	Run2	generate/STIM_023.jpg
1369.531	1.788	incorrect	generate	Run2	generate/STIM_023.jpg
1374.942	1.521	incorrect	generate	Run2	generate/STIM_023.jpg
1379.358	1.624	incorrect	generate	Run2	generate/STIM_023.jpg
1383.542	1.831	correct	generate	Run2	generate/STIM_024.jpg
1388.044	0.931	correct	generate	Run2	generate/STIM_024.jpg
1391.957	1.374	correct	generate	Run2	generate/STIM_024.jpg
1396.088	1.561	correct	generate	Run2	generate/STIM_024.jpg
1401.518	1.563	correct	generate	Run2	generate/STIM_024.jpg
1406.664	0.47	correct	repeat	Run2	repeat/STIM_000.jpg
1410.791	0.889	correct	repeat	Run2	repeat/STIM_000.jpg
1414.345	0.836	correct	repeat	Run2	repeat/STIM_000.jpg
1417.78	0.619	correct	repeat	Run2	repeat/STIM_000.jpg
1421.609	0.633	correct	repeat	Run2	repeat/STIM_000.jpg
1424.499	0.543	correct	repeat	Run2	repeat/STIM_001.jpg
1427.695	0.81	correct	repeat	Run2	repeat/STIM_001.jpg
1430.871	0.688	correct	repeat	Run2	repeat/STIM_001.jpg
1434.45	0.682	correct	repeat	Run2	repeat/STIM_001.jpg
1438.25	0.502	correct	repeat	Run2	repeat/STIM_001.jpg
1442.267	0.612	correct	repeat	Run2	repeat/STIM_002.jpg
1446.744	0.744	correct	repeat	Run2	repeat/STIM_002.jpg
1449.545	0.894	correct	repeat	Run2	repeat/STIM_002.jpg
1452.854	0.454	correct	repeat	Run2	repeat/STIM_002.jpg
1456.402	0.71	correct	repeat	Run2	repeat/STIM_002.jpg
1460.681	0.739	correct	repeat	Run2	repeat/STIM_003.jpg
1465.031	0.894	correct	repeat	Run2	repeat/STIM_003.jpg
1468.954	0.809	correct	repeat	Run2	repeat/STIM_003.jpg
1472.846	0.488	incorrect	repeat	Run2	repeat/STIM_003.jpg
1476.075	0.694	correct	repeat	Run2	repeat/STIM_003.jpg
1479.03	0.761	correct	repeat	Run2	repeat/STIM_004.jpg
1482.826	0.742	correct	repeat	Run2	repeat/STIM_004.jpg
1486.389	0.554	correct	repeat	Run2	repeat/STIM_004.jpg
1489.099	0.494	correct	repeat	Run2	repeat/STIM_004.jpg
1491.736	0.853	incorrect	repeat	Run2	repeat/STIM_004.jpg
1495.355	0.708	correct	repeat	Run2	repeat/STIM_005.jpg
1499.036	0.512	correct	repeat	Run2	repeat/STIM_005.jpg
1502.404	0.649	correct	repeat	Run2	repeat/STIM_005.jpg
1506.827	0.658	correct	repeat	Run2	repeat/STIM_005.jpg
1510.914	0.831	correct	repeat	Run2	repeat/STIM_005.jpg
1514.045	0.466	correct	repeat	Run2	repeat/STIM_006.jpg
1518.006	0.491	correct	repeat	Run2	repeat/STIM_006.jpg
1522.3	0.599	correct	repeat	Run2	repeat/STIM_006.jpg
1525.008	0.495	correct	repeat	Run2	repeat/STIM_006.jpg
1528.733	0.653	correct	repeat	Run2	repeat/STIM_006.jpg
1532.571	0.825	correct	repeat	Run2	repeat/STIM_007.jpg
1536.58	0.738	correct	repeat	Run2	repeat/STIM_007.jpg
1539.783	0.527	correct	repeat	Run2	repeat/STIM_007.jpg
1542.742	0.616	correct	repeat	Run2	repeat/STIM_007.jpg
1546.603	0.73	correct	repeat	Run2	repeat/STIM_007.jpg
1549.481	0.68	correct	repeat	Run2	repeat/STIM_008.jpg
1552.725	0.509	correct	repeat	Run2	repeat/STIM_008.jpg
1555.769	0.472	correct	repeat	Run2	repeat/STIM_008.jpg
1559.827	0.863	correct	repeat	Run2	repeat/STIM_008.jpg
1563.841	0.782	correct	repeat	Run2	repeat/STIM_008.jpg
1568.253	0.549	correct	repeat	Run2	repeat/STIM_009.jpg
1572.032	0.81	correct	repeat	Run2	repeat/STIM_009.jpg
1576.563	0.804	correct	repeat	Run2	repeat/STIM_009.jpg
1580.413	0.509	correct	repeat	Run2	repeat/STIM_009.jpg
1583.979	0.476	correct	repeat	Run2	repeat/STIM_009.jpg
1587.934	0.731	correct	repeat	Run2	repeat/STIM_010.jpg
1591.419	0.544	correct	repeat	Run2	repeat/STIM_010.jpg
1595.147	0.885	correct	repeat	Run2	repeat/STIM_010.jpg
1598.896	0.798	correct	repeat	Run2	repeat/STIM_010.jpg
1602.873	0.814	correct	repeat	Run2	repeat/STIM_010.jpg
1607.52	0.519	correct	repeat	Run2	repeat/STIM_011.jpg
1610.131	0.564	correct	repeat	Run2	repeat/STIM_011.jpg
1614.611	0.801	correct	repeat	Run2	repeat/STIM_011.jpg
1617.93	0.572	correct	repeat	Run2	repeat/STIM_011.jpg
1622.378	0.535	correct	repeat	Run2	repeat/STIM_011.jpg
1626.753	0.583	correct	repeat	Run2	repeat/STIM_012.jpg
1630.314	0.464	incorrect	repeat	Run2	repeat/STIM_012.jpg
1633.538	0.816	correct	repeat	Run2	repeat/STIM_012.jpg
1637.766	0.484	correct	repeat	Run2	repeat/STIM_012.jpg
1642.021	0.498	correct	repeat	Run2	repeat/STIM_012.jpg
1645.122	0.612	correct	repeat	Run2	repeat/STIM_013.jpg
1648.25	0.684	correct	repeat	Run2	repeat/STIM_013.jpg
1652.527	0.597	correct	repeat	Run2	repeat/STIM_013.jpg
1655.163	0.775	correct	repeat	Run2	repeat/STIM_013.jpg
1659.005	0.871	correct	repeat	Run2	repeat/STIM_013.jpg
1663.608	0.599	incorrect	repeat	Run2	repeat/STIM_014.jpg
1666.228	0.529	incorrect	repeat	Run2	repeat/STIM_014.jpg
1670.318	0.653	correct	repeat	Run2	repeat/STIM_014.jpg
1673.412	0.874	correct	repeat	Run2	repeat/STIM_014.jpg
1677.586	0.745	incorrect	repeat	Run2	repeat/STIM_014.jpg
1682.095	0.933	incorrect	generate	Run3	generate/STIM_000.jpg
1685.817	1.702	correct	generate	Run3	generate/STIM_000.jpg
1690.707	1.051	correct	generate	Run3	generate/STIM_000.jpg
1694.004	0.904	correct	generate	Run3	generate/STIM_000.jpg
1698.056	1.597	incorrect	generate	Run3	generate/STIM_000.jpg
1703.416	1.697	correct	generate	Run3	generate/STIM_001.jpg
1708.21	0.961	correct	generate	Run3	generate/STIM_001.jpg
1711.725	1.458	correct	generate	Run3	generate/STIM_001.jpg
1715.256	1.302	incorrect	generate	Run3	generate/STIM_001.jpg
1720.469	0.998	correct	generate	Run3	generate/STIM_001.jpg
1725.062	1.898	correct	generate	Run3	generate/STIM_002.jpg
1729.193	1.884	correct	generate	Run3	generate/STIM_002.jpg
1733.365	0.889	correct	generate	Run3	generate/STIM_002.jpg
1737.315	1.259	correct	generate	Run3	generate/STIM_002.jpg
1741.269	1.778	incorrect	generate	Run3	generate/STIM_002.jpg
1745.853	1.691	correct	generate	Run3	generate/STIM_003.jpg
1751.042	1.816	incorrect	generate	Run3	generate/STIM_003.jpg
1756.695	1.582	correct	generate	Run3	generate/STIM_003.jpg
1761.911	0.909	correct	generate	Run3	generate/STIM_003.jpg
1765.067	1.31	correct	generate	Run3	generate/STIM_003.jpg
1770.216	1.548	correct	generate	Run3	generate/STIM_004.jpg
1775.193	1.884	correct	generate	Run3	generate/STIM_004.jpg
1779.977	0.793	correct	generate	Run3	generate/STIM_004.jpg
1782.774	1.551	correct	generate	Run3	generate/STIM_004.jpg
1786.725	1.772	correct	generate	Run3	generate/STIM_004.jpg
1790.548	1.392	correct	generate	Run3	generate/STIM_005.jpg
1794.869	1.319	correct	generate	Run3	generate/STIM_005.jpg
1799.881	1.195	correct	generate	Run3	generate/STIM_005.jpg
1803.419	1.387	correct	generate	Run3	generate/STIM_005.jpg
1806.886	1.357	correct	generate	Run3	generate/STIM_005.jpg
1811.939	1.286	correct	generate	Run3	generate/STIM_006.jpg
1817.014	1.183	incorrect	generate	Run3	generate/STIM_006.jpg
1820.55	1.667	correct	generate	Run3	generate/STIM_006.jpg
1824.945	1.748	correct	generate	Run3	generate/STIM_006.jpg
1829.09	1.826	correct	generate	Run3	generate/STIM_006.jpg
1834.137	1.481	correct	generate	Run3	generate/STIM_007.jpg
1837.887	0.847	correct	generate	Run3	generate/STIM_007.jpg
1841.824	1.284	correct	generate	Run3	generate/STIM_007.jpg
1846.273	1.385	correct	generate	Run3	generate/STIM_007.jpg
1849.807	1.351	correct	generate	Run3	generate/STIM_007.jpg
1854.327	1.134	incorrect	generate	Run3	generate/STIM_008.jpg
1858.085	1.215	correct	generate	Run3	generate/STIM_008.jpg
1862.382	1.619	correct	generate	Run3	generate/STIM_008.jpg
1867.693	0.849	incorrect	generate	Run3	generate/STIM_008.jpg
1871.255	1.626	correct	generate	Run3	generate/STIM_008.jpg
1875.103	1.061	incorrect	generate	Run3	generate/STIM_009.jpg
1879.711	0.946	correct	generate	Run3	generate/STIM_009.jpg
1884.457	1.083	correct	generate	Run3	generate/STIM_009.jpg
1887.817	1.018	correct	generate	Run3	generate/STIM_009.jpg
1892.014	1.026	correct	generate	Run3	generate/STIM_009.jpg
1895.846	0.998	correct	generate	Run3	generate/STIM_010.jpg
1899.13	1.295	correct	generate	Run3	generate/STIM_010.jpg
1904.33	0.843	correct	generate	Run3	generate/STIM_010.jpg
1908.197	1.669	correct	generate	Run3	generate/STIM_010.jpg
1912.241	0.855	correct	generate	Run3	generate/STIM_010.jpg
1915.408	1.537	correct	generate	Run3	generate/STIM_011.jpg
1919.822	1.501	correct	generate	Run3	generate/STIM_011.jpg
1923.602	0.924	correct	generate	Run3	generate/STIM_011.jpg
1927.299	1.072	correct	generate	Run3	generate/STIM_011.jpg
1930.476	1.785	correct	generate	Run3	generate/STIM_011.jpg
1935.478	1.737	correct	generate	Run3	generate/STIM_012.jpg
1939.609	1.049	incorrect	generate	Run3	generate/STIM_012.jpg
1944.472	0.833	correct	generate	Run3	generate/STIM_012.jpg
1947.484	0.955	correct	generate	Run3	generate/STIM_012.jpg
1951.146	1.049	correct	generate	Run3	generate/STIM_012.jpg
1954.824	1.698	correct	generate	Run3	generate/STIM_013.jpg
1959.096	0.806	correct	generate	Run3	generate/STIM_013.jpg
1963.147	0.931	correct	generate	Run3	generate/STIM_013.jpg
1966.955	1.194	correct	generate	Run3	generate/STIM_013.jpg
1971.089	1.095	correct	generate	Run3	generate/STIM_013.jpg
1974.762	1.065	incorrect	generate	Run3	generate/STIM_014.jpg
1978.943	1.384	correct	generate	Run3	generate/STIM_014.jpg
1982.376	1.521	correct	generate	Run3	generate/STIM_014.jpg
1986.267	0.937	correct	generate	Run3	generate/STIM_014.jpg
1989.552	0.898	correct	generate	Run3	generate/STIM_014.jpg
1992.842	1.389	correct	generate	Run3	generate/STIM_015.jpg
1997.506	1.4	incorrect	generate	Run3	generate/STIM_015.jpg
2002.048	0.941	incorrect	generate	Run3	generate/STIM_015.jpg
2006.071	1.319	correct	generate	Run3	generate/STIM_015.jpg
2009.649	1.792	correct	generate	Run3	generate/STIM_015.jpg
2015.273	1.86	incorrect	generate	Run3	generate/STIM_016.jpg
2021.102	1.728	incorrect	generate	Run3	generate/STIM_016.jpg
2025.36	1.087	incorrect	generate	Run3	generate/STIM_016.jpg
2029.379	1.153	correct	generate	Run3	generate/STIM_016.jpg
2033.577	1.175	correct	generate	Run3	generate/STIM_016.jpg
2036.805	1.713	correct	generate	Run3	generate/STIM_017.jpg
2041.617	1.769	correct	generate	Run3	generate/STIM_017.jpg
2047.237	1.173	correct	generate	Run3	generate/STIM_017.jpg
2051.208	1.132	correct	generate	Run3	generate/STIM_017.jpg
2056.243	1.459	correct	generate	Run3	generate/STIM_017.jpg
2060.858	1.736	incorrect	generate	Run3	generate/STIM_018.jpg
2066.432	1.161	correct	generate	Run3	generate/STIM_018.jpg
2070.484	0.847	correct	generate	Run3	generate/STIM_018.jpg
2074.951	1.344	correct	generate	Run3	generate/STIM_018.jpg
2078.373	1.431	correct	generate	Run3	generate/STIM_018.jpg
2083.426	1.551	correct	generate	Run3	generate/STIM_019.jpg
2087.107	0.869	correct	generate	Run3	generate/STIM_019.jpg
2091.167	0.826	correct	generate	Run3	generate/STIM_019.jpg
2094.491	1.872	correct	generate	Run3	generate/STIM_019.jpg
2098.624	1.112	correct	generate	Run3	generate/STIM_019.jpg
2103.236	1.126	correct	generate	Run3	generate/STIM_020.jpg
2106.393	0.857	correct	generate	Run3	generate/STIM_020.jpg
2110.988	1.238	correct	generate	Run3	generate/STIM_020.jpg
2115.349	1.048	correct	generate	Run3	generate/STIM_020.jpg
2119.449	1.117	correct	generate	Run3	generate/STIM_020.jpg
2123.972	1.488	correct	generate	Run3	generate/STIM_021.jpg
2129.185	1.122	correct	generate	Run3	generate/STIM_021.jpg
2132.705	1.178	correct	generate	Run3	generate/STIM_021.jpg
2137.119	1.231	correct	generate	Run3	generate/STIM_021.jpg
2141.804	1.377	correct	generate	Run3	generate/STIM_021.jpg
2146.798	1.113	correct	generate	Run3	generate/STIM_022.jpg
2150.952	1.78	correct	generate	Run3	generate/STIM_022.jpg
2154.804	1.236	correct	generate	Run3	generate/STIM_022.jpg
2159.98	1.821	correct	generate	Run3	generate/STIM_022.jpg
2164.55	1.079	correct	generate	Run3	generate/STIM_022.jpg
2169.564	0.796	correct	generate	Run3	generate/STIM_023.jpg
2172.384	1.572	correct	generate	Run3	generate/STIM_023.jpg
2176.7	1.807	correct	generate	Run3	generate/STIM_023.jpg
2181.502	0.957	incorrect	generate	Run3	generate/STIM_023.jpg
2185.362	1.254	correct	generate	Run3	generate/STIM_023.jpg
2189.46	1.832	correct	generate	Run3	generate/STIM_024.jpg
2193.639	0.836	correct	generate	Run3	generate/STIM_024.jpg
2196.549	1.828	incorrect	generate	Run3	generate/STIM_024.jpg
2200.683	1.294	correct	generate	Run3	generate/STIM_024.jpg
2204.011	0.845	correct	generate	Run3	generate/STIM_024.jpg
2208.316	0.609	correct	repeat	Run3	repeat/STIM_000.jpg
2211.359	0.704	incorrect	repeat	Run3	repeat/STIM_000.jpg
2214.956	0.765	correct	repeat	Run3	repeat/STIM_000.jpg
2217.889	0.539	correct	repeat	Run3	repeat/STIM_000.jpg
2221.571	0.567	correct	repeat	Run3	repeat/STIM_000.jpg
2224.284	0.622	incorrect	repeat	Run3	repeat/STIM_001.jpg
2226.922	0.709	correct	repeat	Run3	repeat/STIM_001.jpg
2229.986	0.839	correct	repeat	Run3	repeat/STIM_001.jpg
2234.644	0.556	incorrect	repeat	Run3	repeat/STIM_001.jpg
2237.664	0.701	correct	repeat	Run3	repeat/STIM_001.jpg
2240.837	0.898	correct	repeat	Run3	repeat/STIM_002.jpg
2245.037	0.861	correct	repeat	Run3	repeat/STIM_002.jpg
2248.557	0.735	correct	repeat	Run3	repeat/STIM_002.jpg
2251.637	0.7	correct	repeat	Run3	repeat/STIM_002.jpg
2254.46	0.654	correct	repeat	Run3	repeat/STIM_002.jpg
2257.221	0.647	correct	repeat	Run3	repeat/STIM_003.jpg
2261.339	0.613	correct	repeat	Run3	repeat/STIM_003.jpg
2264.709	0.493	correct	repeat	Run3	repeat/STIM_003.jpg
2268.812	0.851	incorrect	repeat	Run3	repeat/STIM_003.jpg
2272.125	0.906	correct	repeat	Run3	repeat/STIM_003.jpg
2276.066	0.893	correct	repeat	Run3	repeat/STIM_004.jpg
2280.349	0.773	correct	repeat	Run3	repeat/STIM_004.jpg
2283.987	0.684	correct	repeat	Run3	repeat/STIM_004.jpg
2286.802	0.687	incorrect	repeat	Run3	repeat/STIM_004.jpg
2291.36	0.462	correct	repeat	Run3	repeat/STIM_004.jpg
2293.992	0.657	correct	repeat	Run3	repeat/STIM_005.jpg
2297.413	0.706	correct	repeat	Run3	repeat/STIM_005.jpg
2300.676	0.638	correct	repeat	Run3	repeat/STIM_005.jpg
2304.789	0.787	correct	repeat	Run3	repeat/STIM_005.jpg
2308.339	0.679	correct	repeat	Run3	repeat/STIM_005.jpg
2311.063	0.635	correct	repeat	Run3	repeat/STIM_006.jpg
2314.704	0.468	incorrect	repeat	Run3	repeat/STIM_006.jpg
2318.352	0.717	correct	repeat	Run3	repeat/STIM_006.jpg
2322.475	0.633	correct	repeat	Run3	repeat/STIM_006.jpg
2326.879	0.471	incorrect	repeat	Run3	repeat/STIM_006.jpg
2331.28	0.746	correct	repeat	Run3	repeat/STIM_007.jpg
2335.23	0.534	correct	repeat	Run3	repeat/STIM_007.jpg
2339.163	0.783	correct	repeat	Run3	repeat/STIM_007.jpg
2343.491	0.9	correct	repeat	Run3	repeat/STIM_007.jpg
2347.01	0.552	correct	repeat	Run3	repeat/STIM_007.jpg
2350.363	0.496	correct	repeat	Run3	repeat/STIM_008.jpg
2353.712	0.808	correct	repeat	Run3	repeat/STIM_008.jpg
2357.464	0.897	correct	repeat	Run3	repeat/STIM_008.jpg
2360.405	0.728	correct	repeat	Run3	repeat/STIM_008.jpg
2364.586	0.896	correct	repeat	Run3	repeat/STIM_008.jpg
2369.323	0.487	correct	repeat	Run3	repeat/STIM_009.jpg
2373.064	0.867	correct	repeat	Run3	repeat/STIM_009.jpg
2377.232	0.825	correct	repeat	Run3	repeat/STIM_009.jpg
2380.119	0.896	correct	repeat	Run3	repeat/STIM_009.jpg
2383.542	0.79	correct	repeat	Run3	repeat/STIM_009.jpg
2387.438	0.638	correct	repeat	Run3	repeat/STIM_010.jpg
2391.202	0.528	correct	repeat	Run3	repeat/STIM_010.jpg
2393.919	0.744	correct	repeat	Run3	repeat/STIM_010.jpg
2398.63	0.476	correct	repeat	Run3	repeat/STIM_010.jpg
2402.667	0.901	correct	repeat	Run3	repeat/STIM_010.jpg
2406.266	0.507	correct	repeat	Run3	repeat/STIM_011.jpg
2410.352	0.51	correct	repeat	Run3	repeat/STIM_011.jpg
2414.85	0.63	correct	repeat	Run3	repeat/STIM_011.jpg
2419.044	0.691	correct	repeat	Run3	repeat/STIM_011.jpg
2423.01	0.801	correct	repeat	Run3	repeat/STIM_011.jpg
2426.543	0.718	correct	repeat	Run3	repeat/STIM_012.jpg
2430.251	0.81	correct	repeat	Run3	repeat/STIM_012.jpg
2433.073	0.598	correct	repeat	Run3	repeat/STIM_012.jpg
2437.037	0.801	correct	repeat	Run3	repeat/STIM_012.jpg
2441.204	0.903	incorrect	repeat	Run3	repeat/STIM_012.jpg
2444.564	0.54	correct	repeat	Run3	repeat/STIM_013.jpg
2449.009	0.468	correct	repeat	Run3	repeat/STIM_013.jpg
2452.11	0.822	correct	repeat	Run3	repeat/STIM_013.jpg
2456.183	0.484	correct	repeat	Run3	repeat/STIM_013.jpg
2459.424	0.474	correct	repeat	Run3	repeat/STIM_013.jpg
2463.331	0.476	correct	repeat	Run3	repeat/STIM_014.jpg
2467.317	0.729	correct	repeat	Run3	repeat/STIM_014.jpg
2470.444	0.849	incorrect	repeat	Run3	repeat/STIM_014.jpg
2473.353	0.757	correct	repeat	Run3	repeat/STIM_014.jpg
2476.936	0.633	correct	repeat	Run3	repeat/STIM_014.jpg
2479.713	1.598	correct	generate	Run4	generate/STIM_000.jpg
2484.665	1.3	correct	generate	Run4	generate/STIM_000.jpg
2488.793	1.882	correct	generate	Run4	generate/STIM_000.jpg
2494.128	1.636	correct	generate	Run4	generate/STIM_000.jpg
2498.009	1.086	correct	generate	Run4	generate/STIM_000.jpg
2501.154	1.107	correct	generate	Run4	generate/STIM_001.jpg
2506.261	1.312	correct	generate	Run4	generate/STIM_001.jpg
2509.643	0.984	incorrect	generate	Run4	generate/STIM_001.jpg
2513.743	1.779	correct	generate	Run4	generate/STIM_001.jpg
2518.587	1.622	correct	generate	Run4	generate/STIM_001.jpg
2522.311	1.681	correct	generate	Run4	generate/STIM_002.jpg
2527.455	0.906	correct	generate	Run4	generate/STIM_002.jpg
2531.223	1.643	correct	generate	Run4	generate/STIM_002.jpg
2536.143	1.462	correct	generate	Run4	generate/STIM_002.jpg
2540.208	0.919	correct	generate	Run4	generate/STIM_002.jpg
2543.455	1.272	incorrect	generate	Run4	generate/STIM_003.jpg
2548.376	1.328	correct	generate	Run4	generate/STIM_003.jpg
2552.013	1.115	correct	generate	Run4	generate/STIM_003.jpg
2555.302	1.005	correct	generate	Run4	generate/STIM_003.jpg
2560.133	1.078	correct	generate	Run4	generate/STIM_003.jpg
2565.031	0.874	correct	generate	Run4	generate/STIM_004.jpg
2569.566	1.742	correct	generate	Run4	generate/STIM_004.jpg
2573.627	1.543	correct	generate	Run4	generate/STIM_004.jpg
2577.234	0.836	correct	generate	Run4	generate/STIM_004.jpg
2580.251	1.87	correct	generate	Run4	generate/STIM_004.jpg
2584.339	1.867	correct	generate	Run4	generate/STIM_005.jpg
2590.196	0.828	correct	generate	Run4	generate/STIM_005.jpg
2593.516	0.776	correct	generate	Run4	generate/STIM_005.jpg
2597.491	1.759	correct	generate	Run4	generate/STIM_005.jpg
2602.53	1.489	correct	generate	Run4	generate/STIM_005.jpg
2606.85	1.493	correct	generate	Run4	generate/STIM_006.jpg
2611.323	1.632	correct	generate	Run4	generate/STIM_006.jpg
2616.541	0.782	correct	generate	Run4	generate/STIM_006.jpg
2620.462	1.875	correct	generate	Run4	generate/STIM_006.jpg
2624.933	1.596	correct	generate	Run4	generate/STIM_006.jpg
2628.792	1.887	correct	generate	Run4	generate/STIM_007.jpg
2633.059	1.605	correct	generate	Run4	generate/STIM_007.jpg
2637.838	1.094	correct	generate	Run4	generate/STIM_007.jpg
2641.454	0.884	correct	generate	Run4	generate/STIM_007.jpg
2645.583	1.114	correct	generate	Run4	generate/STIM_007.jpg
2649.782	1.866	correct	generate	Run4	generate/STIM_008.jpg
2655.448	1.346	correct	generate	Run4	generate/STIM_008.jpg
2658.825	1.38	correct	generate	Run4	generate/STIM_008.jpg
2663.426	1.741	correct	generate	Run4	generate/STIM_008.jpg
2668.35	0.859	correct	generate	Run4	generate/STIM_008.jpg
2671.418	1.66	correct	generate	Run4	generate/STIM_009.jpg
2676.384	1.561	correct	generate	Run4	generate/STIM_009.jpg
2681.704	1.9	correct	generate	Run4	generate/STIM_009.jpg
2686.531	1.668	correct	generate	Run4	generate/STIM_009.jpg
2690.45	1.874	correct	generate	Run4	generate/STIM_009.jpg
2694.97	1.185	correct	generate	Run4	generate/STIM_010.jpg
2699.664	1.192	correct	generate	Run4	generate/STIM_010.jpg
2703.996	1.72	correct	generate	Run4	generate/STIM_010.jpg
2708.627	0.892	correct	generate	Run4	generate/STIM_010.jpg
2713.395	1.622	correct	generate	Run4	generate/STIM_010.jpg
2717.192	1.848	correct	generate	Run4	generate/STIM_011.jpg
2721.371	1.701	correct	generate	Run4	generate/STIM_011.jpg
2726.243	1.201	correct	generate	Run4	generate/STIM_011.jpg
2730.158	0.77	correct	generate	Run4	generate/STIM_011.jpg
2734.599	1.841	correct	generate	Run4	generate/STIM_011.jpg
2739.528	0.772	incorrect	generate	Run4	generate/STIM_012.jpg
2743.169	1.867	correct	generate	Run4	generate/STIM_012.jpg
2747.111	1.006	correct	generate	Run4	generate/STIM_012.jpg
2751.476	1.069	correct	generate	Run4	generate/STIM_012.jpg
2755.187	1.649	correct	generate	Run4	generate/STIM_012.jpg
2760.586	1.122	correct	generate	Run4	generate/STIM_013.jpg
2765.036	1.839	correct	generate	Run4	generate/STIM_013.jpg
2769.493	1.881	correct	generate	Run4	generate/STIM_013.jpg
2774.986	1.069	correct	generate	Run4	generate/STIM_013.jpg
2779.428	1.444	correct	generate	Run4	generate/STIM_013.jpg
2782.973	1.258	correct	generate	Run4	generate/STIM_014.jpg
2787.712	1.86	correct	generate	Run4	generate/STIM_014.jpg
2791.901	0.936	correct	generate	Run4	generate/STIM_014.jpg
2796.542	1.416	correct	generate	Run4	generate/STIM_014.jpg
2800.845	0.975	correct	generate	Run4	generate/STIM_014.jpg
2804.273	1.382	correct	generate	Run4	generate/STIM_015.jpg
2808.848	1.88	correct	generate	Run4	generate/STIM_015.jpg
2814.323	1.091	incorrect	generate	Run4	generate/STIM_015.jpg
2818.221	1.336	correct	generate	Run4	generate/STIM_015.jpg
2821.597	1.346	correct	generate	Run4	generate/STIM_015.jpg
2826.769	0.839	correct	generate	Run4	generate/STIM_016.jpg
2830.521	1.854	correct	generate	Run4	generate/STIM_016.jpg
2835.007	1.86	correct	generate	Run4	generate/STIM_016.jpg
2840.459	1.531	correct	generate	Run4	generate/STIM_016.jpg
2845.081	1.556	correct	generate	Run4	generate/STIM_016.jpg
2848.637	0.806	correct	generate	Run4	generate/STIM_017.jpg
2851.926	0.996	correct	generate	Run4	generate/STIM_017.jpg
2855.55	1.016	incorrect	generate	Run4	generate/STIM_017.jpg
2859.462	1.509	correct	generate	Run4	generate/STIM_017.jpg
2864.876	1.157	incorrect	generate	Run4	generate/STIM_017.jpg
2869.433	1.319	correct	generate	Run4	generate/STIM_018.jpg
2874.344	1.054	correct	generate	Run4	generate/STIM_018.jpg
2877.634	1.745	correct	generate	Run4	generate/STIM_018.jpg
2881.752	1.592	correct	generate	Run4	generate/STIM_018.jpg
2885.44	1.278	correct	generate	Run4	generate/STIM_018.jpg
2889.634	1.734	correct	generate	Run4	generate/STIM_019.jpg
2895.101	1.101	correct	generate	Run4	generate/STIM_019.jpg
2899.139	1.231	correct	generate	Run4	generate/STIM_019.jpg
2903.278	1.088	correct	generate	Run4	generate/STIM_019.jpg
2907.61	1.26	correct	generate	Run4	generate/STIM_019.jpg
2911.418	1.704	correct	generate	Run4	generate/STIM_020.jpg
2915.581	1.898	correct	generate	Run4	generate/STIM_020.jpg
2920.631	1.443	correct	generate	Run4	generate/STIM_020.jpg
2924.806	0.881	correct	generate	Run4	generate/STIM_020.jpg
2928.284	1.815	correct	generate	Run4	generate/STIM_020.jpg
2933.299	0.807	correct	generate	Run4	generate/STIM_021.jpg
2936.507	1.668	correct	generate	Run4	generate/STIM_021.jpg
2940.997	1.821	correct	generate	Run4	generate/STIM_021.jpg
2946.316	1.056	correct	generate	Run4	generate/STIM_021.jpg
2949.562	1.795	correct	generate	Run4	generate/STIM_021.jpg
2953.448	1.286	correct	generate	Run4	generate/STIM_022.jpg
2957.72	0.837	correct	generate	Run4	generate/STIM_022.jpg
2961.178	1.412	correct	generate	Run4	generate/STIM_022.jpg
2965.136	1.629	correct	generate	Run4	generate/STIM_022.jpg
2969.327	1.674	correct	generate	Run4	generate/STIM_022.jpg
2973.386	1.895	correct	generate	Run4	generate/STIM_023.jpg
2977.863	1.362	correct	generate	Run4	generate/STIM_023.jpg
2982.137	1.771	correct	generate	Run4	generate/STIM_023.jpg
2987.47	1.127	correct	generate	Run4	generate/STIM_023.jpg
2992.456	1.313	correct	generate	Run4	generate/STIM_023.jpg
2996.092	1.112	correct	generate	Run4	generate/STIM_024.jpg
2999.69	1.05	correct	generate	Run4	generate/STIM_024.jpg
3003.626	1.886	correct	generate	Run4	generate/STIM_024.jpg
3008.63	1.512	correct	generate	Run4	generate/STIM_024.jpg
3013.114	1.61	incorrect	generate	Run4	generate/STIM_024.jpg
3018.061	0.482	correct	repeat	Run4	repeat/STIM_000.jpg
3020.662	0.573	correct	repeat	Run4	repeat/STIM_000.jpg
3024.44	0.516	correct	repeat	Run4	repeat/STIM_000.jpg
3028.091	0.769	correct	repeat	Run4	repeat/STIM_000.jpg
3031.914	0.796	correct	repeat	Run4	repeat/STIM_000.jpg
3036.279	0.678	correct	repeat	Run4	repeat/STIM_001.jpg
3040.939	0.632	correct	repeat	Run4	repeat/STIM_001.jpg
3045.252	0.592	correct	repeat	Run4	repeat/STIM_001.jpg
3049.003	0.62	correct	repeat	Run4	repeat/STIM_001.jpg
3053.481	0.646	correct	repeat	Run4	repeat/STIM_001.jpg
3057.949	0.798	correct	repeat	Run4	repeat/STIM_002.jpg
3061.416	0.496	correct	repeat	Run4	repeat/STIM_002.jpg
3064.099	0.525	correct	repeat	Run4	repeat/STIM_002.jpg
3067.223	0.71	correct	repeat	Run4	repeat/STIM_002.jpg
3070.684	0.533	correct	repeat	Run4	repeat/STIM_002.jpg
3074.097	0.607	correct	repeat	Run4	repeat/STIM_003.jpg
3078.534	0.466	incorrect	repeat	Run4	repeat/STIM_003.jpg
3081.193	0.48	correct	repeat	Run4	repeat/STIM_003.jpg
3084.141	0.514	correct	repeat	Run4	repeat/STIM_003.jpg
3087.887	0.659	correct	repeat	Run4	repeat/STIM_003.jpg
3092.254	0.834	correct	repeat	Run4	repeat/STIM_004.jpg
3095.623	0.664	correct	repeat	Run4	repeat/STIM_004.jpg
3099.867	0.849	correct	repeat	Run4	repeat/STIM_004.jpg
3103.397	0.533	correct	repeat	Run4	repeat/STIM_004.jpg
3106.771	0.484	correct	repeat	Run4	repeat/STIM_004.jpg
3110.766	0.709	correct	repeat	Run4	repeat/STIM_005.jpg
3113.808	0.872	correct	repeat	Run4	repeat/STIM_005.jpg
3117.009	0.63	correct	repeat	Run4	repeat/STIM_005.jpg
3121.212	0.761	correct	repeat	Run4	repeat/STIM_005.jpg
3124.457	0.723	correct	repeat	Run4	repeat/STIM_005.jpg
3127.435	0.602	correct	repeat	Run4	repeat/STIM_006.jpg
3131.41	0.758	correct	repeat	Run4	repeat/STIM_006.jpg
3135.847	0.597	correct	repeat	Run4	repeat/STIM_006.jpg
3139.82	0.586	correct	repeat	Run4	repeat/STIM_006.jpg
3142.724	0.57	correct	repeat	Run4	repeat/STIM_006.jpg
3145.815	0.606	correct	repeat	Run4	repeat/STIM_007.jpg
3148.985	0.453	correct	repeat	Run4	repeat/STIM_007.jpg
3152.808	0.673	correct	repeat	Run4	repeat/STIM_007.jpg
3156.151	0.596	correct	repeat	Run4	repeat/STIM_007.jpg
3159.758	0.741	correct	repeat	Run4	repeat/STIM_007.jpg
3163.346	0.635	correct	repeat	Run4	repeat/STIM_008.jpg
3167.623	0.892	correct	repeat	Run4	repeat/STIM_008.jpg
3170.623	0.704	correct	repeat	Run4	repeat/STIM_008.jpg
3175.32	0.563	correct	repeat	Run4	repeat/STIM_008.jpg
3178.663	0.753	correct	repeat	Run4	repeat/STIM_008.jpg
3181.904	0.722	correct	repeat	Run4	repeat/STIM_009.jpg
3186.305	0.756	incorrect	repeat	Run4	repeat/STIM_009.jpg
3190.591	0.461	correct	repeat	Run4	repeat/STIM_009.jpg
3194.144	0.702	correct	repeat	Run4	repeat/STIM_009.jpg
3197.599	0.752	incorrect	repeat	Run4	repeat/STIM_009.jpg
3202.22	0.622	correct	repeat	Run4	repeat/STIM_010.jpg
3206.61	0.694	correct	repeat	Run4	repeat/STIM_010.jpg
3209.555	0.561	correct	repeat	Run4	repeat/STIM_010.jpg
3213.758	0.714	correct	repeat	Run4	repeat/STIM_010.jpg
3217.664	0.549	correct	repeat	Run4	repeat/STIM_010.jpg
3220.86	0.561	correct	repeat	Run4	repeat/STIM_011.jpg
3223.599	0.718	correct	repeat	Run4	repeat/STIM_011.jpg
3228.039	0.857	correct	repeat	Run4	repeat/STIM_011.jpg
3231.065	0.614	correct	repeat	Run4	repeat/STIM_011.jpg
3234.763	0.662	correct	repeat	Run4	repeat/STIM_011.jpg
3237.682	0.728	correct	repeat	Run4	repeat/STIM_012.jpg
3240.858	0.65	incorrect	repeat	Run4	repeat/STIM_012.jpg
3243.601	0.498	correct	repeat	Run4	repeat/STIM_012.jpg
3247.628	0.74	correct	repeat	Run4	repeat/STIM_012.jpg
3251.967	0.818	correct	repeat	Run4	repeat/STIM_012.jpg
3255.129	0.732	correct	repeat	Run4	repeat/STIM_013.jpg
3257.897	0.698	correct	repeat	Run4	repeat/STIM_013.jpg
3262.074	0.488	correct	repeat	Run4	repeat/STIM_013.jpg
3265.605	0.794	correct	repeat	Run4	repeat/STIM_013.jpg
3270.068	0.684	correct	repeat	Run4	repeat/STIM_013.jpg
3273.882	0.732	correct	repeat	Run4	repeat/STIM_014.jpg
3278.395	0.781	correct	repeat	Run4	repeat/STIM_014.jpg
3281.988	0.606	correct	repeat	Run4	repeat/STIM_014.jpg
3286.243	0.57	correct	repeat	Run4	repeat/STIM_014.jpg
3289.459	0.602	correct	repeat	Run4	repeat/STIM_014.jpg
