onset	duration	accuracy	trial_type	learning_stage	stimulus
0.0	1.222	incorrect	generate	Run1	generate/STIM_000.jpg
3.826	1.787	correct	generate	Run1	generate/STIM_000.jpg
9.486	2.231	correct	generate	Run1	generate/STIM_000.jpg
14.483	1.272	correct	generate	Run1	generate/STIM_000.jpg
19.487	2.129	correct	generate	Run1	generate/STIM_000.jpg
25.7	1.405	incorrect	generate	Run1	generate/STIM_001.jpg
29.715	2.138	correct	generate	Run1	generate/STIM_001.jpg
34.692	1.939	correct	generate	Run1	generate/STIM_001.jpg
40.39	1.369	correct	generate	Run1	generate/STIM_001.jpg
44.077	0.932	incorrect	generate	Run1	generate/STIM_001.jpg
48.481	2.129	correct	generate	Run1	generate/STIM_002.jpg
53.312	1.466	correct	generate	Run1	generate/STIM_002.jpg
58.852	1.696	correct	generate	Run1	generate/STIM_002.jpg
64.507	1.019	correct	generate	Run1	generate/STIM_002.jpg
68.143	1.691	correct	generate	Run1	generate/STIM_002.jpg
73.247	2.33	correct	generate	Run1	generate/STIM_003.jpg
78.408	1.092	incorrect	generate	Run1	generate/STIM_003.jpg
82.393	2.157	correct	generate	Run1	generate/STIM_003.jpg
87.922	1.017	incorrect	generate	Run1	generate/STIM_003.jpg
92.298	1.464	incorrect	generate	Run1	generate/STIM_003.jpg
97.788	1.414	correct	generate	Run1	generate/STIM_004.jpg
101.594	1.151	correct	generate	Run1	generate/STIM_004.jpg
106.119	1.564	correct	generate	Run1	generate/STIM_004.jpg
111.684	1.826	incorrect	generate	Run1	generate/STIM_004.jpg
116.946	1.75	correct	generate	Run1	generate/STIM_004.jpg
122.052	1.18	correct	generate	Run1	generate/STIM_005.jpg
126.354	2.189	incorrect	generate	Run1	generate/STIM_005.jpg
131.971	2.269	incorrect	generate	Run1	generate/STIM_005.jpg
136.839	1.908	incorrect	generate	Run1	generate/STIM_005.jpg
141.975	1.913	correct	generate	Run1	generate/STIM_005.jpg
146.429	1.66	correct	generate	Run1	generate/STIM_006.jpg
151.486	2.023	correct	generate	Run1	generate/STIM_006.jpg
157.421	1.562	correct	generate	Run1	generate/STIM_006.jpg
162.771	1.279	correct	generate	Run1	generate/STIM_006.jpg
167.047	1.637	correct	generate	Run1	generate/STIM_006.jpg
171.647	1.915	correct	generate	Run1	generate/STIM_007.jpg
175.9	1.108	correct	generate	Run1	generate/STIM_007.jpg
179.413	1.244	correct	generate	Run1	generate/STIM_007.jpg
183.737	2.312	correct	generate	Run1	generate/STIM_007.jpg
189.77	2.17	incorrect	generate	Run1	generate/STIM_007.jpg
194.437	1.696	correct	generate	Run1	generate/STIM_008.jpg
199.471	2.513	correct	generate	Run1	generate/STIM_008.jpg
205.864	1.853	incorrect	generate	Run1	generate/STIM_008.jpg
210.041	1.223	correct	generate	Run1	generate/STIM_008.jpg
214.713	2.066	correct	generate	Run1	generate/STIM_008.jpg
219.381	2.516	correct	generate	Run1	generate/STIM_009.jpg
224.139	2.328	correct	generate	Run1	generate/STIM_009.jpg
229.094	2.328	correct	generate	Run1	generate/STIM_009.jpg
235.393	1.842	correct	generate	Run1	generate/STIM_009.jpg
241.392	1.92	correct	generate	Run1	generate/STIM_009.jpg
245.494	2.053	correct	generate	Run1	generate/STIM_010.jpg
250.75	1.49	incorrect	generate	Run1	generate/STIM_010.jpg
255.674	1.687	correct	generate	Run1	generate/STIM_010.jpg
259.547	1.31	incorrect	generate	Run1	generate/STIM_010.jpg
264.781	1.372	correct	generate	Run1	generate/STIM_010.jpg
268.45	2.186	correct	generate	Run1	generate/STIM_011.jpg
274.634	1.496	correct	generate	Run1	generate/STIM_011.jpg
279.962	2.323	correct	generate	Run1	generate/STIM_011.jpg
286.185	1.929	correct	generate	Run1	generate/STIM_011.jpg
292.262	1.307	correct	generate	Run1	generate/STIM_011.jpg
297.069	1.364	correct	generate	Run1	generate/STIM_012.jpg
300.568	1.729	correct	generate	Run1	generate/STIM_012.jpg
304.606	2.173	correct	generate	Run1	generate/STIM_012.jpg
309.002	1.756	correct	generate	Run1	generate/STIM_012.jpg
313.521	1.47	correct	generate	Run1	generate/STIM_012.jpg
317.245	1.822	incorrect	generate	Run1	generate/STIM_013.jpg
321.572	1.821	correct	generate	Run1	generate/STIM_013.jpg
327.103	2.088	incorrect	generate	Run1	generate/STIM_013.jpg
331.505	1.042	correct	generate	Run1	generate/STIM_013.jpg
335.25	2.153	correct	generate	Run1	generate/STIM_013.jpg
340.468	2.624	correct	generate	Run1	generate/STIM_014.jpg
346.635	1.446	correct	generate	Run1	generate/STIM_014.jpg
350.863	2.41	correct	generate	Run1	generate/STIM_014.jpg
356.309	1.832	correct	generate	Run1	generate/STIM_014.jpg
360.959	1.248	correct	generate	Run1	generate/STIM_014.jpg
365.661	1.744	correct	generate	Run1	generate/STIM_015.jpg
371.44	2.517	incorrect	generate	Run1	generate/STIM_015.jpg
376.463	1.545	correct	generate	Run1	generate/STIM_015.jpg
381.275	2.243	correct	generate	Run1	generate/STIM_015.jpg
387.026	1.53	incorrect	generate	Run1	generate/STIM_015.jpg
391.817	1.379	correct	generate	Run1	generate/STIM_016.jpg
395.616	2.198	correct	generate	Run1	generate/STIM_016.jpg
401.323	1.418	correct	generate	Run1	generate/STIM_016.jpg
406.751	1.28	correct	generate	Run1	generate/STIM_016.jpg
412.022	0.886	correct	generate	Run1	generate/STIM_016.jpg
416.127	2.53	correct	generate	Run1	generate/STIM_017.jpg
422.755	2.137	correct	generate	Run1	generate/STIM_017.jpg
427.694	1.068	incorrect	generate	Run1	generate/STIM_017.jpg
432.147	1.352	correct	generate	Run1	generate/STIM_017.jpg
436.023	2.02	correct	generate	Run1	generate/STIM_017.jpg
440.905	2.122	incorrect	generate	Run1	generate/STIM_018.jpg
446.334	1.504	correct	generate	Run1	generate/STIM_018.jpg
451.506	1.084	correct	generate	Run1	generate/STIM_018.jpg
455.45	1.34	correct	generate	Run1	generate/STIM_018.jpg
460.369	1.7	correct	generate	Run1	generate/STIM_018.jpg
465.529	2.082	incorrect	generate	Run1	generate/STIM_019.jpg
471.052	2.543	correct	generate	Run1	generate/STIM_019.jpg
476.029	1.833	correct	generate	Run1	generate/STIM_019.jpg
480.919	1.763	correct	generate	Run1	generate/STIM_019.jpg
486.243	2.162	correct	generate	Run1	generate/STIM_019.jpg
491.482	2.738	correct	generate	Run1	generate/STIM_020.jpg
497.413	1.628	correct	generate	Run1	generate/STIM_020.jpg
502.195	1.326	correct	generate	Run1	generate/STIM_020.jpg
507.225	1.464	correct	generate	Run1	generate/STIM_020.jpg
511.854	1.579	correct	generate	Run1	generate/STIM_020.jpg
515.679	2.579	correct	generate	Run1	generate/STIM_021.jpg
521.367	2.246	incorrect	generate	Run1	generate/STIM_021.jpg
526.13	2.215	incorrect	generate	Run1	generate/STIM_021.jpg
532.297	2.144	correct	generate	Run1	generate/STIM_021.jpg
537.122	1.124	correct	generate	Run1	generate/STIM_021.jpg
540.484	2.574	correct	generate	Run1	generate/STIM_022.jpg
546.794	2.416	correct	generate	Run1	generate/STIM_022.jpg
552.417	1.78	correct	generate	Run1	generate/STIM_022.jpg
557.365	1.338	correct	generate	Run1	generate/STIM_022.jpg
560.829	1.212	correct	generate	Run1	generate/STIM_022.jpg
565.997	1.595	correct	generate	Run1	generate/STIM_023.jpg
570.461	2.189	correct	generate	Run1	generate/STIM_023.jpg
575.258	1.303	correct	generate	Run1	generate/STIM_023.jpg
579.061	1.053	incorrect	generate	Run1	generate/STIM_023.jpg
582.719	1.812	incorrect	generate	Run1	generate/STIM_023.jpg
587.923	1.599	correct	generate	Run1	generate/STIM_024.jpg
593.553	1.168	correct	generate	Run1	generate/STIM_024.jpg
598.649	2.179	correct	generate	Run1	generate/STIM_024.jpg
604.143	0.939	correct	generate	Run1	generate/STIM_024.jpg
608.101	1.026	incorrect	generate	Run1	generate/STIM_024.jpg
612.137	0.495	correct	repeat	Run1	repeat/STIM_000.jpg
615.065	0.876	correct	repeat	Run1	repeat/STIM_000.jpg
618.711	0.492	correct	repeat	Run1	repeat/STIM_000.jpg
622.368	0.859	correct	repeat	Run1	repeat/STIM_000.jpg
627.113	0.911	correct	repeat	Run1	repeat/STIM_000.jpg
631.842	0.686	correct	repeat	Run1	repeat/STIM_001.jpg
635.544	0.888	correct	repeat	Run1	repeat/STIM_001.jpg
639.072	0.839	correct	repeat	Run1	repeat/STIM_001.jpg
643.547	0.523	correct	repeat	Run1	repeat/STIM_001.jpg
647.64	0.519	correct	repeat	Run1	repeat/STIM_001.jpg
651.978	0.862	correct	repeat	Run1	repeat/STIM_002.jpg
656.784	0.758	correct	repeat	Run1	repeat/STIM_002.jpg
659.95	0.545	correct	repeat	Run1	repeat/STIM_002.jpg
664.16	0.792	correct	repeat	Run1	repeat/STIM_002.jpg
667.933	0.843	correct	repeat	Run1	repeat/STIM_002.jpg
672.74	0.603	correct	repeat	Run1	repeat/STIM_003.jpg
675.906	0.779	incorrect	repeat	Run1	repeat/STIM_003.jpg
679.783	0.778	correct	repeat	Run1	repeat/STIM_003.jpg
684.105	0.842	correct	repeat	Run1	repeat/STIM_003.jpg
687.022	0.799	incorrect	repeat	Run1	repeat/STIM_003.jpg
690.34	0.647	correct	repeat	Run1	repeat/STIM_004.jpg
694.196	0.728	correct	repeat	Run1	repeat/STIM_004.jpg
698.259	0.876	incorrect	repeat	Run1	repeat/STIM_004.jpg
702.115	0.73	correct	repeat	Run1	repeat/STIM_004.jpg
705.208	0.796	correct	repeat	Run1	repeat/STIM_004.jpg
708.229	0.561	correct	repeat	Run1	repeat/STIM_005.jpg
711.65	0.838	correct	repeat	Run1	repeat/STIM_005.jpg
715.83	0.474	correct	repeat	Run1	repeat/STIM_005.jpg
719.675	0.734	correct	repeat	Run1	repeat/STIM_005.jpg
723.957	0.525	correct	repeat	Run1	repeat/STIM_005.jpg
727.45	0.608	correct	repeat	Run1	repeat/STIM_006.jpg
730.983	0.686	correct	repeat	Run1	repeat/STIM_006.jpg
734.604	0.606	correct	repeat	Run1	repeat/STIM_006.jpg
738.202	0.878	correct	repeat	Run1	repeat/STIM_006.jpg
741.785	0.888	correct	repeat	Run1	repeat/STIM_006.jpg
745.791	0.781	correct	repeat	Run1	repeat/STIM_007.jpg
748.786	0.743	correct	repeat	Run1	repeat/STIM_007.jpg
752.98	0.792	correct	repeat	Run1	repeat/STIM_007.jpg
756.798	0.912	correct	repeat	Run1	repeat/STIM_007.jpg
761.656	0.919	correct	repeat	Run1	repeat/STIM_007.jpg
765.981	0.732	correct	repeat	Run1	repeat/STIM_008.jpg
769.454	0.481	correct	repeat	Run1	repeat/STIM_008.jpg
772.321	0.66	correct	repeat	Run1	repeat/STIM_008.jpg
776.303	0.552	correct	repeat	Run1	repeat/STIM_008.jpg
779.589	0.671	correct	repeat	Run1	repeat/STIM_008.jpg
783.216	0.763	correct	repeat	Run1	repeat/STIM_009.jpg
786.522	0.583	correct	repeat	Run1	repeat/STIM_009.jpg
790.153	0.805	correct	repeat	Run1	repeat/STIM_009.jpg
794.009	0.9	correct	repeat	Run1	repeat/STIM_009.jpg
798.764	0.864	correct	repeat	Run1	repeat/STIM_009.jpg
802.769	0.795	correct	repeat	Run1	repeat/STIM_010.jpg
806.198	0.824	correct	repeat	Run1	repeat/STIM_010.jpg
809.884	0.736	correct	repeat	Run1	repeat/STIM_010.jpg
814.266	0.862	correct	repeat	Run1	repeat/STIM_010.jpg
818.439	0.575	correct	repeat	Run1	repeat/STIM_010.jpg
822.75	0.799	correct	repeat	Run1	repeat/STIM_011.jpg
827.48	0.633	correct	repeat	Run1	repeat/STIM_011.jpg
831.059	0.717	correct	repeat	Run1	repeat/STIM_011.jpg
834.612	0.726	correct	repeat	Run1	repeat/STIM_011.jpg
837.891	0.578	correct	repeat	Run1	repeat/STIM_011.jpg
841.132	0.533	correct	repeat	Run1	repeat/STIM_012.jpg
844.414	0.787	correct	repeat	Run1	repeat/STIM_012.jpg
848.827	0.704	correct	repeat	Run1	repeat/STIM_012.jpg
853.113	0.827	correct	repeat	Run1	repeat/STIM_012.jpg
857.087	0.616	correct	repeat	Run1	repeat/STIM_012.jpg
861.509	0.803	correct	repeat	Run1	repeat/STIM_013.jpg
866.253	0.893	correct	repeat	Run1	repeat/STIM_013.jpg
869.266	0.53	correct	repeat	Run1	repeat/STIM_013.jpg
873.427	0.617	correct	repeat	Run1	repeat/STIM_013.jpg
876.569	0.653	correct	repeat	Run1	repeat/STIM_013.jpg
880.565	0.744	correct	repeat	Run1	repeat/STIM_014.jpg
884.736	0.568	correct	repeat	Run1	repeat/STIM_014.jpg
889.091	0.918	correct	repeat	Run1	repeat/STIM_014.jpg
893.79	0.874	correct	repeat	Run1	repeat/STIM_014.jpg
897.747	0.59	correct	repeat	Run1	repeat/STIM_014.jpg
900.442	1.47	correct	generate	Run2	generate/STIM_000.jpg
904.924	1.75	correct	generate	Run2	generate/STIM_000.jpg
910.403	1.07	incorrect	generate	Run2	generate/STIM_000.jpg
913.941	1.572	correct	generate	Run2	generate/STIM_000.jpg
918.54	1.093	correct	generate	Run2	generate/STIM_000.jpg
923.323	2.182	correct	generate	Run2	generate/STIM_001.jpg
929.347	1.233	correct	generate	Run2	generate/STIM_001.jpg
934.26	1.397	incorrect	generate	Run2	generate/STIM_001.jpg
938.839	0.875	incorrect	generate	Run2	generate/STIM_001.jpg
943.215	1.04	correct	generate	Run2	generate/STIM_001.jpg
948.253	1.552	correct	generate	Run2	generate/STIM_002.jpg
953.341	1.713	incorrect	generate	Run2	generate/STIM_002.jpg
957.639	1.264	correct	generate	Run2	generate/STIM_002.jpg
962.74	0.98	correct	generate	Run2	generate/STIM_002.jpg
967.394	1.337	correct	generate	Run2	generate/STIM_002.jpg
971.11	2.297	correct	generate	Run2	generate/STIM_003.jpg
976.822	2.046	correct	generate	Run2	generate/STIM_003.jpg
981.337	2.01	correct	generate	Run2	generate/STIM_003.jpg
987.314	0.927	correct	generate	Run2	generate/STIM_003.jpg
991.498	1.436	correct	generate	Run2	generate/STIM_003.jpg
995.676	1.657	correct	generate	Run2	generate/STIM_004.jpg
999.649	0.886	correct	generate	Run2	generate/STIM_004.jpg
1003.434	1.368	correct	generate	Run2	generate/STIM_004.jpg
1007.686	1.62	correct	generate	Run2	generate/STIM_004.jpg
1013.03	0.874	correct	generate	Run2	generate/STIM_004.jpg
1016.905	1.962	correct	generate	Run2	generate/STIM_005.jpg
1022.385	1.179	correct	generate	Run2	generate/STIM_005.jpg
1027.227	1.888	correct	generate	Run2	generate/STIM_005.jpg
1032.661	1.809	correct	generate	Run2	generate/STIM_005.jpg
1038.3	1.572	correct	generate	Run2	generate/STIM_005.jpg
1043.935	1.122	correct	generate	Run2	generate/STIM_006.jpg
1049.111	1.315	incorrect	generate	Run2	generate/STIM_006.jpg
1054.413	1.56	correct	generate	Run2	generate/STIM_006.jpg
1058.185	1.362	correct	generate	Run2	generate/STIM_006.jpg
1062.344	1.31	correct	generate	Run2	generate/STIM_006.jpg
1066.823	2.158	correct	generate	Run2	generate/STIM_007.jpg
1072.382	1.359	incorrect	generate	Run2	generate/STIM_007.jpg
1076.35	1.03	correct	generate	Run2	generate/STIM_007.jpg
1080.819	1.054	correct	generate	Run2	generate/STIM_007.jpg
1084.551	0.779	correct	generate	Run2	generate/STIM_007.jpg
1087.848	1.763	correct	generate	Run2	generate/STIM_008.jpg
1092.089	1.286	correct	generate	Run2	generate/STIM_008.jpg
1095.661	1.017	correct	generate	Run2	generate/STIM_008.jpg
1098.983	0.808	correct	generate	Run2	generate/STIM_008.jpg
1102.414	0.998	correct	generate	Run2	generate/STIM_008.jpg
1106.163	2.267	incorrect	generate	Run2	generate/STIM_009.jpg
1111.023	2.004	correct	generate	Run2	generate/STIM_009.jpg
1116.614	0.946	correct	generate	Run2	generate/STIM_009.jpg
1119.685	0.893	correct	generate	Run2	generate/STIM_009.jpg
1124.081	1.228	correct	generate	Run2	generate/STIM_009.jpg
1128.839	1.03	correct	generate	Run2	generate/STIM_010.jpg
1132.458	1.606	incorrect	generate	Run2	generate/STIM_010.jpg
1137.271	1.154	correct	generate	Run2	generate/STIM_010.jpg
1142.272	1.535	correct	generate	Run2	generate/STIM_010.jpg
1146.416	1.467	correct	generate	Run2	generate/STIM_010.jpg
1151.241	1.77	correct	generate	Run2	generate/STIM_011.jpg
1156.404	1.632	incorrect	generate	Run2	generate/STIM_011.jpg
1160.655	2.041	correct	generate	Run2	generate/STIM_011.jpg
1166.588	0.824	correct	generate	Run2	generate/STIM_011.jpg
1170.462	0.873	correct	generate	Run2	generate/STIM_011.jpg
1174.645	1.562	correct	generate	Run2	generate/STIM_012.jpg
1180.325	1.161	correct	generate	Run2	generate/STIM_012.jpg
1184.017	2.037	correct	generate	Run2	generate/STIM_012.jpg
1189.038	1.755	correct	generate	Run2	generate/STIM_012.jpg
1194.101	1.465	correct	generate	Run2	generate/STIM_012.jpg
1199.32	1.053	correct	generate	Run2	generate/STIM_013.jpg
1202.504	1.916	correct	generate	Run2	generate/STIM_013.jpg
1207.306	1.085	incorrect	generate	Run2	generate/STIM_013.jpg
1211.255	1.294	correct	generate	Run2	generate/STIM_013.jpg
1215.617	1.836	correct	generate	Run2	generate/STIM_013.jpg
1220.514	1.453	correct	generate	Run2	generate/STIM_014.jpg
1226.036	1.723	correct	generate	Run2	generate/STIM_014.jpg
1231.377	1.502	incorrect	generate	Run2	generate/STIM_014.jpg
1236.065	0.921	correct	generate	Run2	generate/STIM_014.jpg
1240.36	1.922	correct	generate	Run2	generate/STIM_014.jpg
1245.646	1.948	correct	generate	Run2	generate/STIM_015.jpg
1250.843	1.69	incorrect	generate	Run2	generate/STIM_015.jpg
1255.758	1.636	incorrect	generate	Run2	generate/STIM_015.jpg
1260.868	1.388	correct	generate	Run2	generate/STIM_015.jpg
1265.042	1.741	correct	generate	Run2	generate/STIM_015.jpg
1270.53	1.34	correct	generate	Run2	generate/STIM_016.jpg
1274.088	1.05	correct	generate	Run2	generate/STIM_016.jpg
1278.645	2.063	correct	generate	Run2	generate/STIM_016.jpg
1283.23	1.41	correct	generate	Run2	generate/STIM_016.jpg
1288.315	1.372	correct	generate	Run2	generate/STIM_016.jpg
1292.831	2.003	correct	generate	Run2	generate/STIM_017.jpg
1297.822	2.002	correct	generate	Run2	generate/STIM_017.jpg
1302.499	1.116	correct	generate	Run2	generate/STIM_017.jpg
1305.756	1.806	correct	generate	Run2	generate/STIM_017.jpg
1310.06	1.572	correct	generate	Run2	generate/STIM_017.jpg
1314.7	1.344	incorrect	generate	Run2	generate/STIM_018.jpg
1319.508	1.913	correct	generate	Run2	generate/STIM_018.jpg
1323.911	0.941	correct	generate	Run2	generate/STIM_018.jpg
1328.018	1.906	correct	generate	Run2	generate/STIM_018.jpg
1332.497	0.858	correct	generate	Run2	generate/STIM_018.jpg
1335.621	1.863	correct	generate	Run2	generate/STIM_019.jpg
1341.314	2.007	correct	generate	Run2	generate/STIM_019.jpg
1346.135	1.953	correct	generate	Run2	generate/STIM_019.jpg
1352.186	0.982	correct	generate	Run2	generate/STIM_019.jpg
1355.291	0.891	incorrect	generate	Run2	generate/STIM_019.jpg
1359.937	1.758	correct	generate	Run2	generate/STIM_020.jpg
1365.182	2.197	correct	generate	Run2	generate/STIM_020.jpg
1370.109	1.774	correct	generate	Run2	generate/STIM_020.jpg
1374.506	1.003	correct	generate	Run2	generate/STIM_020.jpg
1377.821	1.406	correct	generate	Run2	generate/STIM_020.jpg
1381.364	2.115	correct	generate	Run2	generate/STIM_021.jpg
1386.132	2.2	correct	generate	Run2	generate/STIM_021.jpg
1391.317	1.52	correct	generate	Run2	generate/STIM_021.jpg
1396.129	1.378	correct	generate	Run2	generate/STIM_021.jpg
1401.327	1.854	correct	generate	Run2	generate/STIM_021.jpg
1406.781	1.167	correct	generate	Run2	generate/STIM_022.jpg
1411.827	2.02	correct	generate	Run2	generate/STIM_022.jpg
1417.103	1.243	correct	generate	Run2	generate/STIM_022.jpg
1421.115	1.669	incorrect	generate	Run2	generate/STIM_022.jpg
1426.803	1.195	correct	generate	Run2	generate/STIM_022.jpg
1430.16	2.234	correct	generate	Run2	generate/STIM_023.jpg
1435.138	1.285	correct	generate	Run2	generate/STIM_023.jpg
1440.171	1.915	incorrect	generate	Run2	generate/STIM_023.jpg
1444.878	1.846	correct	generate	Run2	generate/STIM_023.jpg
1450.232	1.475	incorrect	generate	Run2	generate/STIM_023.jpg
1454.641	1.404	correct	generate	Run2	generate/STIM_024.jpg
1458.916	1.379	correct	generate	Run2	generate/STIM_024.jpg
1463.348	1.558	correct	generate	Run2	generate/STIM_024.jpg
1467.375	1.437	correct	generate	Run2	generate/STIM_024.jpg
1472.351	1.408	correct	generate	Run2	generate/STIM_024.jpg
1477.847	0.886	correct	repeat	Run2	repeat/STIM_000.jpg
1481.596	0.725	correct	repeat	Run2	repeat/STIM_000.jpg
1486.097	0.876	correct	repeat	Run2	repeat/STIM_000.jpg
1490.13	0.701	correct	repeat	Run2	repeat/STIM_000.jpg
1493.172	0.487	correct	repeat	Run2	repeat/STIM_000.jpg
1497.597	0.667	correct	repeat	Run2	repeat/STIM_001.jpg
1502.276	0.792	correct	repeat	Run2	repeat/STIM_001.jpg
1505.48	0.577	correct	repeat	Run2	repeat/STIM_001.jpg
1508.303	0.704	correct	repeat	Run2	repeat/STIM_001.jpg
1512.588	0.756	correct	repeat	Run2	repeat/STIM_001.jpg
1516.213	0.565	correct	repeat	Run2	repeat/STIM_002.jpg
1519.199	0.701	correct	repeat	Run2	repeat/STIM_002.jpg
1523.541	0.759	correct	repeat	Run2	repeat/STIM_002.jpg
1526.454	0.793	correct	repeat	Run2	repeat/STIM_002.jpg
1530.361	0.504	correct	repeat	Run2	repeat/STIM_002.jpg
1534.155	0.808	correct	repeat	Run2	repeat/STIM_003.jpg
1537.905	0.895	correct	repeat	Run2	repeat/STIM_003.jpg
1540.891	0.673	correct	repeat	Run2	repeat/STIM_003.jpg
1543.633	0.501	incorrect	repeat	Run2	repeat/STIM_003.jpg
1546.364	0.758	correct	repeat	Run2	repeat/STIM_003.jpg
1549.298	0.498	correct	repeat	Run2	repeat/STIM_004.jpg
1553.016	0.506	correct	repeat	Run2	repeat/STIM_004.jpg
1556.72	0.532	correct	repeat	Run2	repeat/STIM_004.jpg
1560.724	0.65	correct	repeat	Run2	repeat/STIM_004.jpg
1565.404	0.708	incorrect	repeat	Run2	repeat/STIM_004.jpg
1569.842	0.68	correct	repeat	Run2	repeat/STIM_005.jpg
1573.033	0.68	correct	repeat	Run2	repeat/STIM_005.jpg
1576.593	0.476	correct	repeat	Run2	repeat/STIM_005.jpg
1579.907	0.842	correct	repeat	Run2	repeat/STIM_005.jpg
1584.431	0.626	correct	repeat	Run2	repeat/STIM_005.jpg
1588.775	0.848	correct	repeat	Run2	repeat/STIM_006.jpg
1592.903	0.596	correct	repeat	Run2	repeat/STIM_006.jpg
1595.612	0.487	correct	repeat	Run2	repeat/STIM_006.jpg
1598.809	0.701	correct	repeat	Run2	repeat/STIM_006.jpg
1601.977	0.916	correct	repeat	Run2	repeat/STIM_006.jpg
1606.086	0.679	correct	repeat	Run2	repeat/STIM_007.jpg
1610.668	0.478	correct	repeat	Run2	repeat/STIM_007.jpg
1613.381	0.48	correct	repeat	Run2	repeat/STIM_007.jpg
1617.134	0.874	correct	repeat	Run2	repeat/STIM_007.jpg
1621.877	0.613	correct	repeat	Run2	repeat/STIM_007.jpg
1626.271	0.642	correct	repeat	Run2	repeat/STIM_008.jpg
1629.782	0.744	correct	repeat	Run2	repeat/STIM_008.jpg
1633.398	0.807	correct	repeat	Run2	repeat/STIM_008.jpg
1637.49	0.839	correct	repeat	Run2	repeat/STIM_008.jpg
1641.072	0.725	correct	repeat	Run2	repeat/STIM_008.jpg
1645.686	0.803	correct	repeat	Run2	repeat/STIM_009.jpg
1648.658	0.842	correct	repeat	Run2	repeat/STIM_009.jpg
1652.785	0.902	correct	repeat	Run2	repeat/STIM_009.jpg
1656.495	0.484	correct	repeat	Run2	repeat/STIM_009.jpg
1660.826	0.519	correct	repeat	Run2	repeat/STIM_009.jpg
1663.905	0.82	correct	repeat	Run2	repeat/STIM_010.jpg
1668.265	0.714	correct	repeat	Run2	repeat/STIM_010.jpg
1671.125	0.899	correct	repeat	Run2	repeat/STIM_010.jpg
1675.791	0.613	correct	repeat	Run2	repeat/STIM_010.jpg
1678.827	0.671	correct	repeat	Run2	repeat/STIM_010.jpg
1682.192	0.613	correct	repeat	Run2	repeat/STIM_011.jpg
1686.596	0.671	correct	repeat	Run2	repeat/STIM_011.jpg
1690.528	0.677	correct	repeat	Run2	repeat/STIM_011.jpg
1693.376	0.503	correct	repeat	Run2	repeat/STIM_011.jpg
1697.106	0.683	correct	repeat	Run2	repeat/STIM_011.jpg
1701.055	0.51	correct	repeat	Run2	repeat/STIM_012.jpg
1704.652	0.871	incorrect	repeat	Run2	repeat/STIM_012.jpg
1707.858	0.688	correct	repeat	Run2	repeat/STIM_012.jpg
1711.921	0.593	correct	repeat	Run2	repeat/STIM_012.jpg
1715.211	0.582	correct	repeat	Run2	repeat/STIM_012.jpg
1718.374	0.477	correct	repeat	Run2	repeat/STIM_013.jpg
1721.413	0.556	correct	repeat	Run2	repeat/STIM_013.jpg
1724.504	0.659	correct	repeat	Run2	repeat/STIM_013.jpg
1728.401	0.772	correct	repeat	Run2	repeat/STIM_013.jpg
1732.7	0.463	correct	repeat	Run2	repeat/STIM_013.jpg
1736.94	0.706	correct	repeat	Run2	repeat/STIM_014.jpg
1741.321	0.835	incorrect	repeat	Run2	repeat/STIM_014.jpg
1744.5	0.633	correct	repeat	Run2	repeat/STIM_014.jpg
1748.132	0.752	correct	repeat	Run2	repeat/STIM_014.jpg
1751.172	0.89	incorrect	repeat	Run2	repeat/STIM_014.jpg
1754.346	1.192	correct	generate	Run3	generate/STIM_000.jpg
1757.835	0.809	correct	generate	Run3	generate/STIM_000.jpg
1761.556	1.125	correct	generate	Run3	generate/STIM_000.jpg
1765.874	1.405	correct	generate	Run3	generate/STIM_000.jpg
1770.047	1.443	incorrect	generate	Run3	generate/STIM_000.jpg
1773.812	1.739	correct	generate	Run3	generate/STIM_001.jpg
1778.575	1.921	correct	generate	Run3	generate/STIM_001.jpg
1783.979	1.361	correct	generate	Run3	generate/STIM_001.jpg
1789.167	1.694	correct	generate	Run3	generate/STIM_001.jpg
1794.215	1.9	correct	generate	Run3	generate/STIM_001.jpg
1799.456	1.167	correct	generate	Run3	generate/STIM_002.jpg
1804.071	0.999	correct	generate	Run3	generate/STIM_002.jpg
1808.957	1.199	correct	generate	Run3	generate/STIM_002.jpg
1813.499	0.974	correct	generate	Run3	generate/STIM_002.jpg
1817.537	1.186	incorrect	generate	Run3	generate/STIM_002.jpg
1821.492	1.034	correct	generate	Run3	generate/STIM_003.jpg
1824.781	0.936	incorrect	generate	Run3	generate/STIM_003.jpg
1828.297	0.817	correct	generate	Run3	generate/STIM_003.jpg
1831.552	0.927	correct	generate	Run3	generate/STIM_003.jpg
1834.603	0.829	correct	generate	Run3	generate/STIM_003.jpg
1838.363	1.494	correct	generate	Run3	generate/STIM_004.jpg
1843.46	1.132	correct	generate	Run3	generate/STIM_004.jpg
1847.407	1.107	correct	generate	Run3	generate/STIM_004.jpg
1852.436	1.638	correct	generate	Run3	generate/STIM_004.jpg
1857.06	1.425	correct	generate	Run3	generate/STIM_004.jpg
1862.256	1.09	correct	generate	Run3	generate/STIM_005.jpg
1866.825	1.919	correct	generate	Run3	generate/STIM_005.jpg
1871.249	1.401	correct	generate	Run3	generate/STIM_005.jpg
1875.512	1.833	correct	generate	Run3	generate/STIM_005.jpg
1879.515	1.743	correct	generate	Run3	generate/STIM_005.jpg
1884.013	1.034	correct	generate	Run3	generate/STIM_006.jpg
1888.996	1.44	incorrect	generate	Run3	generate/STIM_006.jpg
1892.956	0.84	correct	generate	Run3	generate/STIM_006.jpg
1897.588	1.552	correct	generate	Run3	generate/STIM_006.jpg
1902.04	1.874	correct	generate	Run3	generate/STIM_006.jpg
1907.408	1.018	correct	generate	Run3	generate/STIM_007.jpg
1911.868	1.271	correct	generate	Run3	generate/STIM_007.jpg
1915.87	0.869	incorrect	generate	Run3	generate/STIM_007.jpg
1919.869	1.657	correct	generate	Run3	generate/STIM_007.jpg
1925.161	1.008	correct	generate	Run3	generate/STIM_007.jpg
1929.154	1.224	incorrect	generate	Run3	generate/STIM_008.jpg
1934.134	1.19	correct	generate	Run3	generate/STIM_008.jpg
1938.451	0.899	correct	generate	Run3	generate/STIM_008.jpg
1942.189	1.382	correct	generate	Run3	generate/STIM_008.jpg
1946.294	1.435	correct	generate	Run3	generate/STIM_008.jpg
1950.671	1.607	incorrect	generate	Run3	generate/STIM_009.jpg
1956.311	1.415	correct	generate	Run3	generate/STIM_009.jpg
1961.717	0.978	correct	generate	Run3	generate/STIM_009.jpg
1966.757	0.987	correct	generate	Run3	generate/STIM_009.jpg
1970.459	1.298	correct	generate	Run3	generate/STIM_009.jpg
1973.88	0.826	correct	generate	Run3	generate/STIM_010.jpg
1977.571	1.45	correct	generate	Run3	generate/STIM_010.jpg
1982.074	1.306	correct	generate	Run3	generate/STIM_010.jpg
1986.95	0.978	correct	generate	Run3	generate/STIM_010.jpg
1990.228	1.795	correct	generate	Run3	generate/STIM_010.jpg
1994.954	1.396	correct	generate	Run3	generate/STIM_011.jpg
1998.893	1.184	correct	generate	Run3	generate/STIM_011.jpg
2003.859	1.523	correct	generate	Run3	generate/STIM_011.jpg
2008.961	1.749	correct	generate	Run3	generate/STIM_011.jpg
2014.857	1.899	correct	generate	Run3	generate/STIM_011.jpg
2019.54	1.032	correct	generate	Run3	generate/STIM_012.jpg
2023.898	0.858	incorrect	generate	Run3	generate/STIM_012.jpg
2027.176	1.862	correct	generate	Run3	generate/STIM_012.jpg
2032.352	0.825	correct	generate	Run3	generate/STIM_012.jpg
2036.676	1.375	correct	generate	Run3	generate/STIM_012.jpg
2040.458	1.177	correct	generate	Run3	generate/STIM_013.jpg
2045.494	1.699	correct	generate	Run3	generate/STIM_013.jpg
2051.186	1.514	correct	generate	Run3	generate/STIM_013.jpg
2056.533	0.886	correct	generate	Run3	generate/STIM_013.jpg
2060.45	1.131	correct	generate	Run3	generate/STIM_013.jpg
2064.688	1.291	incorrect	generate	Run3	generate/STIM_014.jpg
2068.174	1.413	correct	generate	Run3	generate/STIM_014.jpg
2071.76	1.116	correct	generate	Run3	generate/STIM_014.jpg
2076.185	1.4	correct	generate	Run3	generate/STIM_014.jpg
2079.816	1.577	correct	generate	Run3	generate/STIM_014.jpg
2084.956	1.634	correct	generate	Run3	generate/STIM_015.jpg
2089.137	1.064	incorrect	generate	Run3	generate/STIM_015.jpg
2092.395	1.142	correct	generate	Run3	generate/STIM_015.jpg
2095.959	1.517	correct	generate	Run3	generate/STIM_015.jpg
2101.308	1.702	correct	generate	Run3	generate/STIM_015.jpg
2107.133	0.999	incorrect	generate	Run3	generate/STIM_016.jpg
2111.8	0.849	incorrect	generate	Run3	generate/STIM_016.jpg
2116.249	1.006	incorrect	generate	Run3	generate/STIM_016.jpg
2119.954	1.4	correct	generate	Run3	generate/STIM_016.jpg
2124.202	1.796	correct	generate	Run3	generate/STIM_016.jpg
2129.652	0.91	correct	generate	Run3	generate/STIM_017.jpg
2133.807	1.745	correct	generate	Run3	generate/STIM_017.jpg
2138.682	1.918	correct	generate	Run3	generate/STIM_017.jpg
2142.969	0.822	correct	generate	Run3	generate/STIM_017.jpg
2147.617	1.726	correct	generate	Run3	generate/STIM_017.jpg
2151.933	1.004	incorrect	generate	Run3	generate/STIM_018.jpg
2156.262	1.706	correct	generate	Run3	generate/STIM_018.jpg
2161.629	1.062	correct	generate	Run3	generate/STIM_018.jpg
2165.282	1.469	correct	generate	Run3	generate/STIM_018.jpg
2170.053	1.85	correct	generate	Run3	generate/STIM_018.jpg
2175.296	1.737	correct	generate	Run3	generate/STIM_019.jpg
2180.369	1.591	correct	generate	Run3	generate/STIM_019.jpg
2184.188	0.933	correct	generate	Run3	generate/STIM_019.jpg
2188.225	1.013	correct	generate	Run3	generate/STIM_019.jpg
2191.901	1.201	correct	generate	Run3	generate/STIM_019.jpg
2195.605	0.795	correct	generate	Run3	generate/STIM_020.jpg
2198.69	1.774	correct	generate	Run3	generate/STIM_020.jpg
2203.094	1.928	correct	generate	Run3	generate/STIM_020.jpg
2208.815	1.384	incorrect	generate	Run3	generate/STIM_020.jpg
2213.696	0.829	correct	generate	Run3	generate/STIM_020.jpg
2218.419	1.366	correct	generate	Run3	generate/STIM_021.jpg
2222.144	1.073	correct	generate	Run3	generate/STIM_021.jpg
2225.385	1.361	correct	generate	Run3	generate/STIM_021.jpg
2230.55	0.902	correct	generate	Run3	generate/STIM_021.jpg
2234.674	0.786	correct	generate	Run3	generate/STIM_021.jpg
2238.309	0.924	correct	generate	Run3	generate/STIM_022.jpg
2241.39	1.005	correct	generate	Run3	generate/STIM_022.jpg
2245.754	1.841	correct	generate	Run3	generate/STIM_022.jpg
2250.461	0.997	correct	generate	Run3	generate/STIM_022.jpg
2253.58	1.462	correct	generate	Run3	generate/STIM_022.jpg
2258.208	1.582	correct	generate	Run3	generate/STIM_023.jpg
2263.666	0.78	correct	generate	Run3	generate/STIM_023.jpg
2266.521	1.493	correct	generate	Run3	generate/STIM_023.jpg
2271.195	1.272	correct	generate	Run3	generate/STIM_023.jpg
2276.448	0.91	correct	generate	Run3	generate/STIM_023.jpg
2280.267	1.707	correct	generate	Run3	generate/STIM_024.jpg
2285.822	1.462	correct	generate	Run3	generate/STIM_024.jpg
2290.441	1.245	correct	generate	Run3	generate/STIM_024.jpg
2295.601	1.213	correct	generate	Run3	generate/STIM_024.jpg
2300.418	1.929	correct	generate	Run3	generate/STIM_024.jpg
2304.582	0.737	correct	repeat	Run3	repeat/STIM_000.jpg
2308.928	0.801	incorrect	repeat	Run3	repeat/STIM_000.jpg
2313.386	0.462	correct	repeat	Run3	repeat/STIM_000.jpg
2316.483	0.867	correct	repeat	Run3	repeat/STIM_000.jpg
2319.778	0.82	correct	repeat	Run3	repeat/STIM_000.jpg
2323.476	0.891	correct	repeat	Run3	repeat/STIM_001.jpg
2327.154	0.61	correct	repeat	Run3	repeat/STIM_001.jpg
2330.271	0.898	correct	repeat	Run3	repeat/STIM_001.jpg
2335.091	0.618	incorrect	repeat	Run3	repeat/STIM_001.jpg
2339.358	0.906	correct	repeat	Run3	repeat/STIM_001.jpg
2344.203	0.829	correct	repeat	Run3	repeat/STIM_002.jpg
2348.582	0.695	correct	repeat	Run3	repeat/STIM_002.jpg
2352.132	0.822	correct	repeat	Run3	repeat/STIM_002.jpg
2355.826	0.67	correct	repeat	Run3	repeat/STIM_002.jpg
2359.979	0.732	correct	repeat	Run3	repeat/STIM_002.jpg
2363.188	0.604	correct	repeat	Run3	repeat/STIM_003.jpg
2366.703	0.74	correct	repeat	Run3	repeat/STIM_003.jpg
2371.364	0.777	correct	repeat	Run3	repeat/STIM_003.jpg
2375.624	0.549	incorrect	repeat	Run3	repeat/STIM_003.jpg
2378.538	0.691	correct	repeat	Run3	repeat/STIM_003.jpg
2382.761	0.791	correct	repeat	Run3	repeat/STIM_004.jpg
2385.834	0.642	correct	repeat	Run3	repeat/STIM_004.jpg
2388.72	0.833	correct	repeat	Run3	repeat/STIM_004.jpg
2391.994	0.483	correct	repeat	Run3	repeat/STIM_004.jpg
2395.577	0.811	correct	repeat	Run3	repeat/STIM_004.jpg
2398.943	0.625	correct	repeat	Run3	repeat/STIM_005.jpg
2403.55	0.571	correct	repeat	Run3	repeat/STIM_005.jpg
2406.246	0.829	correct	repeat	Run3	repeat/STIM_005.jpg
2410.83	0.748	correct	repeat	Run3	repeat/STIM_005.jpg
2414.647	0.523	correct	repeat	Run3	repeat/STIM_005.jpg
2417.975	0.496	correct	repeat	Run3	repeat/STIM_006.jpg
2420.947	0.596	correct	repeat	Run3	repeat/STIM_006.jpg
2424.695	0.897	correct	repeat	Run3	repeat/STIM_006.jpg
2428.518	0.768	correct	repeat	Run3	repeat/STIM_006.jpg
2433.038	0.499	incorrect	repeat	Run3	repeat/STIM_006.jpg
2436.084	0.715	correct	repeat	Run3	repeat/STIM_007.jpg
2439.284	0.754	correct	repeat	Run3	repeat/STIM_007.jpg
2443.777	0.747	correct	repeat	Run3	repeat/STIM_007.jpg
2446.954	0.522	correct	repeat	Run3	repeat/STIM_007.jpg
2451.294	0.86	correct	repeat	Run3	repeat/STIM_007.jpg
2455.725	0.886	correct	repeat	Run3	repeat/STIM_008.jpg
2459.437	0.808	correct	repeat	Run3	repeat/STIM_008.jpg
2463.584	0.918	correct	repeat	Run3	repeat/STIM_008.jpg
2468.324	0.473	correct	repeat	Run3	repeat/STIM_008.jpg
2472.777	0.829	correct	repeat	Run3	repeat/STIM_008.jpg
2475.981	0.596	correct	repeat	Run3	repeat/STIM_009.jpg
2479.485	0.857	correct	repeat	Run3	repeat/STIM_009.jpg
2483.197	0.621	correct	repeat	Run3	repeat/STIM_009.jpg
2487.167	0.48	correct	repeat	Run3	repeat/STIM_009.jpg
2491.399	0.915	correct	repeat	Run3	repeat/STIM_009.jpg
2495.529	0.672	correct	repeat	Run3	repeat/STIM_010.jpg
2500.007	0.692	correct	repeat	Run3	repeat/STIM_010.jpg
2504.71	0.566	correct	repeat	Run3	repeat/STIM_010.jpg
2507.479	0.486	correct	repeat	Run3	repeat/STIM_010.jpg
2511.345	0.503	correct	repeat	Run3	repeat/STIM_010.jpg
2515.127	0.676	correct	repeat	Run3	repeat/STIM_011.jpg
2518.393	0.531	correct	repeat	Run3	repeat/STIM_011.jpg
2521.657	0.853	correct	repeat	Run3	repeat/STIM_011.jpg
2524.722	0.552	correct	repeat	Run3	repeat/STIM_011.jpg
2528.154	0.766	correct	repeat	Run3	repeat/STIM_011.jpg
2531.569	0.54	correct	repeat	Run3	repeat/STIM_012.jpg
2534.264	0.836	correct	repeat	Run3	repeat/STIM_012.jpg
2538.433	0.594	correct	repeat	Run3	repeat/STIM_012.jpg
2541.755	0.577	correct	repeat	Run3	repeat/STIM_012.jpg
2544.549	0.791	incorrect	repeat	Run3	repeat/STIM_012.jpg
2547.905	0.506	correct	repeat	Run3	repeat/STIM_013.jpg
2550.48	0.473	correct	repeat	Run3	repeat/STIM_013.jpg
2553.821	0.482	correct	repeat	Run3	repeat/STIM_013.jpg
2557.564	0.553	correct	repeat	Run3	repeat/STIM_013.jpg
2560.189	0.499	correct	repeat	Run3	repeat/STIM_013.jpg
2563.4	0.516	correct	repeat	Run3	repeat/STIM_014.jpg
2567.883	0.821	correct	repeat	Run3	repeat/STIM_014.jpg
2571.069	0.811	correct	repeat	Run3	repeat/STIM_014.jpg
2575.535	0.539	correct	repeat	Run3	repeat/STIM_014.jpg
2579.003	0.755	correct	repeat	Run3	repeat/STIM_014.jpg
2581.989	0.954	incorrect	generate	Run4	generate/STIM_000.jpg
2586.076	0.963	correct	generate	Run4	generate/STIM_000.jpg
2589.465	1.764	correct	generate	Run4	generate/STIM_000.jpg
2593.97	1.119	correct	generate	Run4	generate/STIM_000.jpg
2597.306	1.8	correct	generate	Run4	generate/STIM_000.jpg
2601.955	1.415	correct	generate	Run4	generate/STIM_001.jpg
2607.288	1.316	correct	generate	Run4	generate/STIM_001.jpg
2611.656	1.712	correct	generate	Run4	generate/STIM_001.jpg
2616.353	0.939	correct	generate	Run4	generate/STIM_001.jpg
2619.714	1.889	correct	generate	Run4	generate/STIM_001.jpg
2624.422	1.49	correct	generate	Run4	generate/STIM_002.jpg
2629.243	1.623	correct	generate	Run4	generate/STIM_002.jpg
2633.966	1.814	correct	generate	Run4	generate/STIM_002.jpg
2639.251	0.987	correct	generate	Run4	generate/STIM_002.jpg
2643.1	1.691	correct	generate	Run4	generate/STIM_002.jpg
2648.638	1.225	correct	generate	Run4	generate/STIM_003.jpg
2652.464	1.503	correct	generate	Run4	generate/STIM_003.jpg
2656.678	0.866	correct	generate	Run4	generate/STIM_003.jpg
2661.29	0.945	correct	generate	Run4	generate/STIM_003.jpg
2664.449	1.835	correct	generate	Run4	generate/STIM_003.jpg
2670.291	1.34	incorrect	generate	Run4	generate/STIM_004.jpg
2674.836	1.877	correct	generate	Run4	generate/STIM_004.jpg
2680.13	1.357	correct	generate	Run4	generate/STIM_004.jpg
2683.607	1.105	correct	generate	Run4	generate/STIM_004.jpg
2687.99	0.971	correct	generate	Run4	generate/STIM_004.jpg
2692.554	0.956	incorrect	generate	Run4	generate/STIM_005.jpg
2697.108	1.638	correct	generate	Run4	generate/STIM_005.jpg
2701.008	0.874	correct	generate	Run4	generate/STIM_005.jpg
2705.07	1.225	correct	generate	Run4	generate/STIM_005.jpg
2709.941	1.438	correct	generate	Run4	generate/STIM_005.jpg
2714.15	0.927	correct	generate	Run4	generate/STIM_006.jpg
2718.143	1.647	correct	generate	Run4	generate/STIM_006.jpg
2723.257	0.93	correct	generate	Run4	generate/STIM_006.jpg
2727.738	0.995	correct	generate	Run4	generate/STIM_006.jpg
2732.111	1.603	correct	generate	Run4	generate/STIM_006.jpg
2736.993	0.798	correct	generate	Run4	generate/STIM_007.jpg
2740.739	1.163	correct	generate	Run4	generate/STIM_007.jpg
2744.019	1.032	correct	generate	Run4	generate/STIM_007.jpg
2748.263	1.269	correct	generate	Run4	generate/STIM_007.jpg
2752.168	1.284	correct	generate	Run4	generate/STIM_007.jpg
2757.247	1.809	correct	generate	Run4	generate/STIM_008.jpg
2763.208	1.456	incorrect	generate	Run4	generate/STIM_008.jpg
2768.056	0.9	correct	generate	Run4	generate/STIM_008.jpg
2772.363	1.28	correct	generate	Run4	generate/STIM_008.jpg
2777.59	1.375	correct	generate	Run4	generate/STIM_008.jpg
2781.178	0.861	correct	generate	Run4	generate/STIM_009.jpg
2786.014	1.659	correct	generate	Run4	generate/STIM_009.jpg
2790.115	1.508	correct	generate	Run4	generate/STIM_009.jpg
2795.441	1.794	correct	generate	Run4	generate/STIM_009.jpg
2800.92	1.567	correct	generate	Run4	generate/STIM_009.jpg
2806.245	0.818	correct	generate	Run4	generate/STIM_010.jpg
2809.28	1.416	correct	generate	Run4	generate/STIM_010.jpg
2814.008	1.816	correct	generate	Run4	generate/STIM_010.jpg
2819.326	1.473	correct	generate	Run4	generate/STIM_010.jpg
2823.261	1.554	correct	generate	Run4	generate/STIM_010.jpg
2827.966	1.225	correct	generate	Run4	generate/STIM_011.jpg
2831.953	0.82	correct	generate	Run4	generate/STIM_011.jpg
2835.394	1.239	correct	generate	Run4	generate/STIM_011.jpg
2840.288	1.466	correct	generate	Run4	generate/STIM_011.jpg
2844.254	0.849	correct	generate	Run4	generate/STIM_011.jpg
2848.771	1.437	incorrect	generate	Run4	generate/STIM_012.jpg
2853.836	1.664	correct	generate	Run4	generate/STIM_012.jpg
2858.604	1.171	correct	generate	Run4	generate/STIM_012.jpg
2862.05	1.127	correct	generate	Run4	generate/STIM_012.jpg
2867.185	1.158	correct	generate	Run4	generate/STIM_012.jpg
2870.833	1.006	correct	generate	Run4	generate/STIM_013.jpg
2875.536	1.251	correct	generate	Run4	generate/STIM_013.jpg
2880.043	1.828	correct	generate	Run4	generate/STIM_013.jpg
2886.021	1.12	correct	generate	Run4	generate/STIM_013.jpg
2890.987	1.59	correct	generate	Run4	generate/STIM_013.jpg
2894.961	0.873	correct	generate	Run4	generate/STIM_014.jpg
2899.148	0.882	correct	generate	Run4	generate/STIM_014.jpg
2902.632	1.772	correct	generate	Run4	generate/STIM_014.jpg
2907.441	1.03	correct	generate	Run4	generate/STIM_014.jpg
2911.004	1.549	correct	generate	Run4	generate/STIM_014.jpg
2914.755	1.72	correct	generate	Run4	generate/STIM_015.jpg
2919.94	1.371	correct	generate	Run4	generate/STIM_015.jpg
2924.457	1.504	correct	generate	Run4	generate/STIM_015.jpg
2929.41	1.098	correct	generate	Run4	generate/STIM_015.jpg
2932.706	1.599	correct	generate	Run4	generate/STIM_015.jpg
2936.656	1.025	correct	generate	Run4	generate/STIM_016.jpg
2940.325	1.466	correct	generate	Run4	generate/STIM_016.jpg
2945.65	1.366	correct	generate	Run4	generate/STIM_016.jpg
2950.672	1.412	correct	generate	Run4	generate/STIM_016.jpg
2956.055	1.511	correct	generate	Run4	generate/STIM_016.jpg
2961.033	1.588	correct	generate	Run4	generate/STIM_017.jpg
2966.04	1.63	correct	generate	Run4	generate/STIM_017.jpg
2970.991	1.816	correct	generate	Run4	generate/STIM_017.jpg
2975.676	1.628	correct	generate	Run4	generate/STIM_017.jpg
2980.598	1.226	correct	generate	Run4	generate/STIM_017.jpg
2984.079	1.492	correct	generate	Run4	generate/STIM_018.jpg
2988.228	1.735	incorrect	generate	Run4	generate/STIM_018.jpg
2993.199	1.708	correct	generate	Run4	generate/STIM_018.jpg
2997.08	1.57	correct	generate	Run4	generate/STIM_018.jpg
3001.796	1.543	correct	generate	Run4	generate/STIM_018.jpg
3006.169	1.556	correct	generate	Run4	generate/STIM_019.jpg
3011.8	0.79	correct	generate	Run4	generate/STIM_019.jpg
3016.33	1.835	correct	generate	Run4	generate/STIM_019.jpg
3021.819	1.496	correct	generate	Run4	generate/STIM_019.jpg
3025.797	1.908	correct	generate	Run4	generate/STIM_019.jpg
3031.266	1.622	correct	generate	Run4	generate/STIM_020.jpg
3036.328	0.916	correct	generate	Run4	generate/STIM_020.jpg
3040.006	0.934	correct	generate	Run4	generate/STIM_020.jpg
3043.924	1.828	correct	generate	Run4	generate/STIM_020.jpg
3048.605	1.03	correct	generate	Run4	generate/STIM_020.jpg
3053.003	1.122	correct	generate	Run4	generate/STIM_021.jpg
3056.252	1.308	incorrect	generate	Run4	generate/STIM_021.jpg
3060.001	1.253	correct	generate	Run4	generate/STIM_021.jpg
3063.421	1.632	correct	generate	Run4	generate/STIM_021.jpg
3068.364	0.991	correct	generate	Run4	generate/STIM_021.jpg
3072.527	1.789	correct	generate	Run4	generate/STIM_022.jpg
3077.991	1.12	correct	generate	Run4	generate/STIM_022.jpg
3081.324	1.392	correct	generate	Run4	generate/STIM_022.jpg
3085.071	0.804	correct	generate	Run4	generate/STIM_022.jpg
3088.712	1.187	correct	generate	Run4	generate/STIM_022.jpg
3092.039	1.246	correct	generate	Run4	generate/STIM_023.jpg
3096.721	1.524	incorrect	generate	Run4	generate/STIM_023.jpg
3102.289	1.169	correct	generate	Run4	generate/STIM_023.jpg
3105.807	0.995	correct	generate	Run4	generate/STIM_023.jpg
3109.083	1.71	correct	generate	Run4	generate/STIM_023.jpg
3114.632	1.086	correct	generate	Run4	generate/STIM_024.jpg
3119.029	1.182	correct	generate	Run4	generate/STIM_024.jpg
3124.08	1.835	correct	generate	Run4	generate/STIM_024.jpg
3129.835	0.82	correct	generate	Run4	generate/STIM_024.jpg
3134.255	1.301	correct	generate	Run4	generate/STIM_024.jpg
3138.966	0.588	correct	repeat	Run4	repeat/STIM_000.jpg
3142.722	0.84	correct	repeat	Run4	repeat/STIM_000.jpg
3147.207	0.686	correct	repeat	Run4	repeat/STIM_000.jpg
3150.385	0.641	correct	repeat	Run4	repeat/STIM_000.jpg
3154.533	0.59	correct	repeat	Run4	repeat/STIM_000.jpg
3157.801	0.643	correct	repeat	Run4	repeat/STIM_001.jpg
3161.894	0.899	correct	repeat	Run4	repeat/STIM_001.jpg
3165.715	0.588	correct	repeat	Run4	repeat/STIM_001.jpg
3170.211	0.663	correct	repeat	Run4	repeat/STIM_001.jpg
3173.791	0.464	correct	repeat	Run4	repeat/STIM_001.jpg
3177.162	0.622	correct	repeat	Run4	repeat/STIM_002.jpg
3180.427	0.505	correct	repeat	Run4	repeat/STIM_002.jpg
3184.442	0.808	correct	repeat	Run4	repeat/STIM_002.jpg
3188.489	0.546	correct	repeat	Run4	repeat/STIM_002.jpg
3192.669	0.815	correct	repeat	Run4	repeat/STIM_002.jpg
3197.289	0.657	correct	repeat	Run4	repeat/STIM_003.jpg
3201.959	0.627	incorrect	repeat	Run4	repeat/STIM_003.jpg
3206.248	0.881	correct	repeat	Run4	repeat/STIM_003.jpg
3211.016	0.76	correct	repeat	Run4	repeat/STIM_003.jpg
3215.752	0.7	correct	repeat	Run4	repeat/STIM_003.jpg
3219.978	0.546	correct	repeat	Run4	repeat/STIM_004.jpg
3224.438	0.5	correct	repeat	Run4	repeat/STIM_004.jpg
3228.938	0.861	correct	repeat	Run4	repeat/STIM_004.jpg
3232.758	0.503	correct	repeat	Run4	repeat/STIM_004.jpg
3235.394	0.527	correct	repeat	Run4	repeat/STIM_004.jpg
3238.763	0.874	correct	repeat	Run4	repeat/STIM_005.jpg
3242.659	0.79	correct	repeat	Run4	repeat/STIM_005.jpg
3247.331	0.869	correct	repeat	Run4	repeat/STIM_005.jpg
3250.761	0.567	correct	repeat	Run4	repeat/STIM_005.jpg
3253.498	0.472	correct	repeat	Run4	repeat/STIM_005.jpg
3256.579	0.891	correct	repeat	Run4	repeat/STIM_006.jpg
3259.741	0.568	correct	repeat	Run4	repeat/STIM_006.jpg
3263.835	0.698	correct	repeat	Run4	repeat/STIM_006.jpg
3267.035	0.721	correct	repeat	Run4	repeat/STIM_006.jpg
3271.053	0.793	correct	repeat	Run4	repeat/STIM_006.jpg
3275.388	0.569	correct	repeat	Run4	repeat/STIM_007.jpg
3279.084	0.529	correct	repeat	Run4	repeat/STIM_007.jpg
3281.666	0.534	correct	repeat	Run4	repeat/STIM_007.jpg
3286.156	0.8	correct	repeat	Run4	repeat/STIM_007.jpg
3289.824	0.784	correct	repeat	Run4	repeat/STIM_007.jpg
3293.053	0.877	correct	repeat	Run4	repeat/STIM_008.jpg
3297.513	0.711	correct	repeat	Run4	repeat/STIM_008.jpg
3300.566	0.817	correct	repeat	Run4	repeat/STIM_008.jpg
3304.398	0.463	correct	repeat	Run4	repeat/STIM_008.jpg
3308.195	0.546	correct	repeat	Run4	repeat/STIM_008.jpg
3311.961	0.5	correct	repeat	Run4	repeat/STIM_009.jpg
3316.437	0.867	correct	repeat	Run4	repeat/STIM_009.jpg
3319.673	0.772	correct	repeat	Run4	repeat/STIM_009.jpg
3322.66	0.821	correct	repeat	Run4	repeat/STIM_009.jpg
3326.972	0.714	correct	repeat	Run4	repeat/STIM_009.jpg
3331.662	0.672	correct	repeat	Run4	repeat/STIM_010.jpg
3336.14	0.52	correct	repeat	Run4	repeat/STIM_010.jpg
3340.259	0.726	correct	repeat	Run4	repeat/STIM_010.jpg
3344.934	0.748	correct	repeat	Run4	repeat/STIM_010.jpg
3348.101	0.844	correct	repeat	Run4	repeat/STIM_010.jpg
3352.368	0.749	correct	repeat	Run4	repeat/STIM_011.jpg
3355.897	0.581	correct	repeat	Run4	repeat/STIM_011.jpg
3359.254	0.637	correct	repeat	Run4	repeat/STIM_011.jpg
3362.99	0.874	correct	repeat	Run4	repeat/STIM_011.jpg
3366.196	0.555	correct	repeat	Run4	repeat/STIM_011.jpg
3370.336	0.618	correct	repeat	Run4	repeat/STIM_012.jpg
3373.292	0.711	incorrect	repeat	Run4	repeat/STIM_012.jpg
3376.694	0.672	correct	repeat	Run4	repeat/STIM_012.jpg
3381.266	0.782	correct	repeat	Run4	repeat/STIM_012.jpg
3384.813	0.513	correct	repeat	Run4	repeat/STIM_012.jpg
3388.954	0.874	correct	repeat	Run4	repeat/STIM_013.jpg
3393.829	0.687	correct	repeat	Run4	repeat/STIM_013.jpg
3397.304	0.462	correct	repeat	Run4	repeat/STIM_013.jpg
3401.796	0.685	correct	repeat	Run4	repeat/STIM_013.jpg
3406.054	0.575	correct	repeat	Run4	repeat/STIM_013.jpg
3408.852	0.847	correct	repeat	Run4	repeat/STIM_014.jpg
3412.35	0.505	correct	repeat	Run4	repeat/STIM_014.jpg
3416.798	0.905	correct	repeat	Run4	repeat/STIM_014.jpg
3420.105	0.505	correct	repeat	Run4	repeat/STIM_014.jpg
3423.064	0.563	correct	repeat	Run4	repeat/STIM_014.jpg
