onset	duration	response_time_ms	trial_type	learning_stage	stimulus	response_port
0.0	1.222	1221.9	generate	Run1	generate/STIM_000.jpg	100
3.826	1.787	1786.7	generate	Run1	generate/STIM_000.jpg	100
9.486	2.231	2231.4	generate	Run1	generate/STIM_000.jpg	100
14.483	1.272	1272.0	generate	Run1	generate/STIM_000.jpg	99
19.487	2.129	2128.8	generate	Run1	generate/STIM_000.jpg	99
25.7	1.405	1405.0	generate	Run1	generate/STIM_001.jpg	99
29.715	2.138	2138.0	generate	Run1	generate/STIM_001.jpg	100
34.692	1.939	1938.9	generate	Run1	generate/STIM_001.jpg	99
40.39	1.369	1368.7	generate	Run1	generate/STIM_001.jpg	100
44.077	0.932	932.0	generate	Run1	generate/STIM_001.jpg	99
48.481	2.129	2128.9	generate	Run1	generate/STIM_002.jpg	100
53.312	1.466	1465.9	generate	Run1	generate/STIM_002.jpg	100
58.852	1.696	1695.5	generate	Run1	generate/STIM_002.jpg	99
64.507	1.019	1018.7	generate	Run1	generate/STIM_002.jpg	100
68.143	1.691	1691.2	generate	Run1	generate/STIM_002.jpg	100
73.247	2.33	2329.9	generate	Run1	generate/STIM_003.jpg	100
78.408	1.092	1092.3	generate	Run1	generate/STIM_003.jpg	100
82.393	2.157	2157.2	generate	Run1	generate/STIM_003.jpg	99
87.922	1.017	1016.6	generate	Run1	generate/STIM_003.jpg	100
92.298	1.464	1463.6	generate	Run1	generate/STIM_003.jpg	100
97.788	1.414	1413.5	generate	Run1	generate/STIM_004.jpg	99
101.594	1.151	1151.0	generate	Run1	generate/STIM_004.jpg	100
106.119	1.564	1563.7	generate	Run1	generate/STIM_004.jpg	100
111.684	1.826	1826.5	generate	Run1	generate/STIM_004.jpg	100
116.946	1.75	1750.3	generate	Run1	generate/STIM_004.jpg	99
122.052	1.18	1180.1	generate	Run1	generate/STIM_005.jpg	99
126.354	2.189	2188.8	generate	Run1	generate/STIM_005.jpg	100
131.971	2.269	2269.0	generate	Run1	generate/STIM_005.jpg	99
136.839	1.908	1907.9	generate	Run1	generate/STIM_005.jpg	99
141.975	1.913	1913.4	generate	Run1	generate/STIM_005.jpg	100
146.429	1.66	1659.5	generate	Run1	generate/STIM_006.jpg	99
151.486	2.023	2023.4	generate	Run1	generate/STIM_006.jpg	100
157.421	1.562	1562.5	generate	Run1	generate/STIM_006.jpg	100
162.771	1.279	1278.7	generate	Run1	generate/STIM_006.jpg	99
167.047	1.637	1636.7	generate	Run1	generate/STIM_006.jpg	99
171.647	1.915	1914.9	generate	Run1	generate/STIM_007.jpg	100
175.9	1.108	1107.8	generate	Run1	generate/STIM_007.jpg	99
179.413	1.244	1244.3	generate	Run1	generate/STIM_007.jpg	99
183.737	2.312	2311.9	generate	Run1	generate/STIM_007.jpg	99
189.77	2.17	2170.4	generate	Run1	generate/STIM_007.jpg	100
194.437	1.696	1695.8	generate	Run1	generate/STIM_008.jpg	100
199.471	2.513	2512.9	generate	Run1	generate/STIM_008.jpg	100
205.864	1.853	1853.3	generate	Run1	generate/STIM_008.jpg	99
210.041	1.223	1223.2	generate	Run1	generate/STIM_008.jpg	99
214.713	2.066	2066.0	generate	Run1	generate/STIM_008.jpg	99
219.381	2.516	2515.9	generate	Run1	generate/STIM_009.jpg	99
224.139	2.328	2327.9	generate	Run1	generate/STIM_009.jpg	100
229.094	2.328	2327.6	generate	Run1	generate/STIM_009.jpg	99
235.393	1.842	1841.6	generate	Run1	generate/STIM_009.jpg	99
241.392	1.92	1920.2	generate	Run1	generate/STIM_009.jpg	100
245.494	2.053	2053.0	generate	Run1	generate/STIM_010.jpg	100
250.75	1.49	1490.2	generate	Run1	generate/STIM_010.jpg	99
255.674	1.687	1687.3	generate	Run1	generate/STIM_010.jpg	100
259.547	1.31	1310.0	generate	Run1	generate/STIM_010.jpg	100
264.781	1.372	1372.2	generate	Run1	generate/STIM_010.jpg	100
268.45	2.186	2185.5	generate	Run1	generate/STIM_011.jpg	99
274.634	1.496	1495.9	generate	Run1	generate/STIM_011.jpg	99
279.962	2.323	2323.1	generate	Run1	generate/STIM_011.jpg	99
286.185	1.929	1928.9	generate	Run1	generate/STIM_011.jpg	99
292.262	1.307	1306.7	generate	Run1	generate/STIM_011.jpg	99
297.069	1.364	1364.0	generate	Run1	generate/STIM_012.jpg	100
300.568	1.729	1728.8	generate	Run1	generate/STIM_012.jpg	99
304.606	2.173	2173.3	generate	Run1	generate/STIM_012.jpg	99
309.002	1.756	1755.7	generate	Run1	generate/STIM_012.jpg	99
313.521	1.47	1469.5	generate	Run1	generate/STIM_012.jpg	100
317.245	1.822	1821.9	generate	Run1	generate/STIM_013.jpg	99
321.572	1.821	1821.0	generate	Run1	generate/STIM_013.jpg	99
327.103	2.088	2087.9	generate	Run1	generate/STIM_013.jpg	99
331.505	1.042	1042.2	generate	Run1	generate/STIM_013.jpg	99
335.25	2.153	2153.4	generate	Run1	generate/STIM_013.jpg	100
340.468	2.624	2624.3	generate	Run1	generate/STIM_014.jpg	99
346.635	1.446	1445.8	generate	Run1	generate/STIM_014.jpg	100
350.863	2.41	2410.0	generate	Run1	generate/STIM_014.jpg	100
356.309	1.832	1832.2	generate	Run1	generate/STIM_014.jpg	99
360.959	1.248	1248.5	generate	Run1	generate/STIM_014.jpg	100
365.661	1.744	1743.5	generate	Run1	generate/STIM_015.jpg	100
371.44	2.517	2517.3	generate	Run1	generate/STIM_015.jpg	99
376.463	1.545	1545.0	generate	Run1	generate/STIM_015.jpg	100
381.275	2.243	2243.1	generate	Run1	generate/STIM_015.jpg	99
387.026	1.53	1530.0	generate	Run1	generate/STIM_015.jpg	99
391.817	1.379	1379.4	generate	Run1	generate/STIM_016.jpg	100
395.616	2.198	2198.1	generate	Run1	generate/STIM_016.jpg	100
401.323	1.418	1417.6	generate	Run1	generate/STIM_016.jpg	100
406.751	1.28	1280.5	generate	Run1	generate/STIM_016.jpg	99
412.022	0.886	885.7	generate	Run1	generate/STIM_016.jpg	99
416.127	2.53	2530.2	generate	Run1	generate/STIM_017.jpg	99
422.755	2.137	2137.4	generate	Run1	generate/STIM_017.jpg	99
427.694	1.068	1068.4	generate	Run1	generate/STIM_017.jpg	99
432.147	1.352	1352.2	generate	Run1	generate/STIM_017.jpg	99
436.023	2.02	2019.6	generate	Run1	generate/STIM_017.jpg	99
440.905	2.122	2121.5	generate	Run1	generate/STIM_018.jpg	100
446.334	1.504	1504.4	generate	Run1	generate/STIM_018.jpg	100
451.506	1.084	1083.8	generate	Run1	generate/STIM_018.jpg	100
455.45	1.34	1339.8	generate	Run1	generate/STIM_018.jpg	100
460.369	1.7	1699.9	generate	Run1	generate/STIM_018.jpg	99
465.529	2.082	2081.7	generate	Run1	generate/STIM_019.jpg	100
471.052	2.543	2542.7	generate	Run1	generate/STIM_019.jpg	99
476.029	1.833	1833.1	generate	Run1	generate/STIM_019.jpg	100
480.919	1.763	1763.2	generate	Run1	generate/STIM_019.jpg	99
486.243	2.162	2162.4	generate	Run1	generate/STIM_019.jpg	100
491.482	2.738	2738.1	generate	Run1	generate/STIM_020.jpg	100
497.413	1.628	1628.1	generate	Run1	generate/STIM_020.jpg	100
502.195	1.326	1326.3	generate	Run1	generate/STIM_020.jpg	100
507.225	1.464	1464.5	generate	Run1	generate/STIM_020.jpg	100
511.854	1.579	1579.0	generate	Run1	generate/STIM_020.jpg	100
515.679	2.579	2578.8	generate	Run1	generate/STIM_021.jpg	100
521.367	2.246	2246.1	generate	Run1	generate/STIM_021.jpg	99
526.13	2.215	2214.9	generate	Run1	generate/STIM_021.jpg	99
532.297	2.144	2144.4	generate	Run1	generate/STIM_021.jpg	100
537.122	1.124	1123.8	generate	Run1	generate/STIM_021.jpg	99
540.484	2.574	2574.1	generate	Run1	generate/STIM_022.jpg	100
546.794	2.416	2415.6	generate	Run1	generate/STIM_022.jpg	99
552.417	1.78	1779.8	generate	Run1	generate/STIM_022.jpg	99
557.365	1.338	1338.0	generate	Run1	generate/STIM_022.jpg	99
560.829	1.212	1211.8	generate	Run1	generate/STIM_022.jpg	99
565.997	1.595	1594.9	generate	Run1	generate/STIM_023.jpg	100
570.461	2.189	2189.4	generate	Run1	generate/STIM_023.jpg	100
575.258	1.303	1302.8	generate	Run1	generate/STIM_023.jpg	99
579.061	1.053	1053.4	generate	Run1	generate/STIM_023.jpg	99
582.719	1.812	1812.3	generate	Run1	generate/STIM_023.jpg	100
587.923	1.599	1599.0	generate	Run1	generate/STIM_024.jpg	100
593.553	1.168	1167.5	generate	Run1	generate/STIM_024.jpg	100
598.649	2.179	2179.3	generate	Run1	generate/STIM_024.jpg	100
604.143	0.939	939.4	generate	Run1	generate/STIM_024.jpg	100
608.101	1.026	1026.1	generate	Run1	generate/STIM_024.jpg	100
612.137	0.495	495.4	repeat	Run1	repeat/STIM_000.jpg	100
615.065	0.876	875.5	repeat	Run1	repeat/STIM_000.jpg	100
618.711	0.492	492.2	repeat	Run1	repeat/STIM_000.jpg	99
622.368	0.859	859.4	repeat	Run1	repeat/STIM_000.jpg	99
627.113	0.911	911.3	repeat	Run1	repeat/STIM_000.jpg	99
631.842	0.686	686.0	repeat	Run1	repeat/STIM_001.jpg	99
635.544	0.888	887.7	repeat	Run1	repeat/STIM_001.jpg	100
639.072	0.839	839.2	repeat	Run1	repeat/STIM_001.jpg	99
643.547	0.523	522.6	repeat	Run1	repeat/STIM_001.jpg	99
647.64	0.519	518.7	repeat	Run1	repeat/STIM_001.jpg	99
651.978	0.862	862.3	repeat	Run1	repeat/STIM_002.jpg	99
656.784	0.758	758.5	repeat	Run1	repeat/STIM_002.jpg	100
659.95	0.545	545.2	repeat	Run1	repeat/STIM_002.jpg	99
664.16	0.792	792.0	repeat	Run1	repeat/STIM_002.jpg	100
667.933	0.843	843.3	repeat	Run1	repeat/STIM_002.jpg	99
672.74	0.603	603.2	repeat	Run1	repeat/STIM_003.jpg	100
675.906	0.779	779.0	repeat	Run1	repeat/STIM_003.jpg	100
679.783	0.778	778.4	repeat	Run1	repeat/STIM_003.jpg	100
684.105	0.842	842.3	repeat	Run1	repeat/STIM_003.jpg	99
687.022	0.799	798.7	repeat	Run1	repeat/STIM_003.jpg	100
690.34	0.647	646.6	repeat	Run1	repeat/STIM_004.jpg	99
694.196	0.728	727.8	repeat	Run1	repeat/STIM_004.jpg	100
698.259	0.876	876.2	repeat	Run1	repeat/STIM_004.jpg	100
702.115	0.73	730.2	repeat	Run1	repeat/STIM_004.jpg	99
705.208	0.796	795.7	repeat	Run1	repeat/STIM_004.jpg	100
708.229	0.561	561.2	repeat	Run1	repeat/STIM_005.jpg	99
711.65	0.838	837.6	repeat	Run1	repeat/STIM_005.jpg	100
715.83	0.474	473.7	repeat	Run1	repeat/STIM_005.jpg	100
719.675	0.734	734.0	repeat	Run1	repeat/STIM_005.jpg	100
723.957	0.525	524.6	repeat	Run1	repeat/STIM_005.jpg	100
727.45	0.608	607.7	repeat	Run1	repeat/STIM_006.jpg	99
730.983	0.686	686.1	repeat	Run1	repeat/STIM_006.jpg	99
734.604	0.606	606.1	repeat	Run1	repeat/STIM_006.jpg	99
738.202	0.878	878.3	repeat	Run1	repeat/STIM_006.jpg	99
741.785	0.888	887.5	repeat	Run1	repeat/STIM_006.jpg	99
745.791	0.781	781.0	repeat	Run1	repeat/STIM_007.jpg	99
748.786	0.743	742.7	repeat	Run1	repeat/STIM_007.jpg	100
752.98	0.792	792.4	repeat	Run1	repeat/STIM_007.jpg	100
756.798	0.912	912.4	repeat	Run1	repeat/STIM_007.jpg	100
761.656	0.919	919.1	repeat	Run1	repeat/STIM_007.jpg	99
765.981	0.732	732.5	repeat	Run1	repeat/STIM_008.jpg	100
769.454	0.481	480.9	repeat	Run1	repeat/STIM_008.jpg	100
772.321	0.66	660.0	repeat	Run1	repeat/STIM_008.jpg	99
776.303	0.552	552.4	repeat	Run1	repeat/STIM_008.jpg	99
779.589	0.671	670.7	repeat	Run1	repeat/STIM_008.jpg	99
783.216	0.763	763.0	repeat	Run1	repeat/STIM_009.jpg	99
786.522	0.583	582.9	repeat	Run1	repeat/STIM_009.jpg	99
790.153	0.805	804.7	repeat	Run1	repeat/STIM_009.jpg	99
794.009	0.9	900.5	repeat	Run1	repeat/STIM_009.jpg	100
798.764	0.864	863.8	repeat	Run1	repeat/STIM_009.jpg	99
802.769	0.795	794.9	repeat	Run1	repeat/STIM_010.jpg	100
806.198	0.824	824.2	repeat	Run1	repeat/STIM_010.jpg	100
809.884	0.736	735.5	repeat	Run1	repeat/STIM_010.jpg	100
814.266	0.862	861.8	repeat	Run1	repeat/STIM_010.jpg	100
818.439	0.575	574.8	repeat	Run1	repeat/STIM_010.jpg	100
822.75	0.799	799.2	repeat	Run1	repeat/STIM_011.jpg	99
827.48	0.633	632.6	repeat	Run1	repeat/STIM_011.jpg	100
831.059	0.717	716.8	repeat	Run1	repeat/STIM_011.jpg	100
834.612	0.726	726.3	repeat	Run1	repeat/STIM_011.jpg	100
837.891	0.578	577.8	repeat	Run1	repeat/STIM_011.jpg	99
841.132	0.533	533.1	repeat	Run1	repeat/STIM_012.jpg	99
844.414	0.787	786.8	repeat	Run1	repeat/STIM_012.jpg	99
848.827	0.704	703.9	repeat	Run1	repeat/STIM_012.jpg	99
853.113	0.827	827.0	repeat	Run1	repeat/STIM_012.jpg	100
857.087	0.616	616.4	repeat	Run1	repeat/STIM_012.jpg	100
861.509	0.803	803.4	repeat	Run1	repeat/STIM_013.jpg	100
866.253	0.893	892.6	repeat	Run1	repeat/STIM_013.jpg	100
869.266	0.53	530.4	repeat	Run1	repeat/STIM_013.jpg	99
873.427	0.617	617.4	repeat	Run1	repeat/STIM_013.jpg	99
876.569	0.653	652.9	repeat	Run1	repeat/STIM_013.jpg	99
880.565	0.744	743.5	repeat	Run1	repeat/STIM_014.jpg	100
884.736	0.568	567.5	repeat	Run1	repeat/STIM_014.jpg	99
889.091	0.918	918.0	repeat	Run1	repeat/STIM_014.jpg	99
893.79	0.874	873.8	repeat	Run1	repeat/STIM_014.jpg	99
897.747	0.59	589.6	repeat	Run1	repeat/STIM_014.jpg	100
900.442	1.47	1470.3	generate	Run2	generate/STIM_000.jpg	100
904.924	1.75	1750.3	generate	Run2	generate/STIM_000.jpg	100
910.403	1.07	1070.0	generate	Run2	generate/STIM_000.jpg	100
913.941	1.572	1571.8	generate	Run2	generate/STIM_000.jpg	99
918.54	1.093	1092.7	generate	Run2	generate/STIM_000.jpg	100
923.323	2.182	2181.7	generate	Run2	generate/STIM_001.jpg	99
929.347	1.233	1233.3	generate	Run2	generate/STIM_001.jpg	100
934.26	1.397	1397.0	generate	Run2	generate/STIM_001.jpg	100
938.839	0.875	875.2	generate	Run2	generate/STIM_001.jpg	100
943.215	1.04	1039.8	generate	Run2	generate/STIM_001.jpg	99
948.253	1.552	1551.5	generate	Run2	generate/STIM_002.jpg	99
953.341	1.713	1712.9	generate	Run2	generate/STIM_002.jpg	99
957.639	1.264	1264.3	generate	Run2	generate/STIM_002.jpg	99
962.74	0.98	979.8	generate	Run2	generate/STIM_002.jpg	99
967.394	1.337	1336.6	generate	Run2	generate/STIM_002.jpg	99
971.11	2.297	2296.6	generate	Run2	generate/STIM_003.jpg	100
976.822	2.046	2046.2	generate	Run2	generate/STIM_003.jpg	100
981.337	2.01	2010.0	generate	Run2	generate/STIM_003.jpg	100
987.314	0.927	927.4	generate	Run2	generate/STIM_003.jpg	99
991.498	1.436	1436.2	generate	Run2	generate/STIM_003.jpg	100
995.676	1.657	1657.2	generate	Run2	generate/STIM_004.jpg	99
999.649	0.886	885.8	generate	Run2	generate/STIM_004.jpg	99
1003.434	1.368	1368.4	generate	Run2	generate/STIM_004.jpg	100
1007.686	1.62	1620.4	generate	Run2	generate/STIM_004.jpg	99
1013.03	0.874	874.5	generate	Run2	generate/STIM_004.jpg	100
1016.905	1.962	1962.4	generate	Run2	generate/STIM_005.jpg	100
1022.385	1.179	1178.9	generate	Run2	generate/STIM_005.jpg	99
1027.227	1.888	1888.0	generate	Run2	generate/STIM_005.jpg	99
1032.661	1.809	1809.0	generate	Run2	generate/STIM_005.jpg	99
1038.3	1.572	1572.5	generate	Run2	generate/STIM_005.jpg	99
1043.935	1.122	1121.7	generate	Run2	generate/STIM_006.jpg	99
1049.111	1.315	1314.7	generate	Run2	generate/STIM_006.jpg	100
1054.413	1.56	1560.0	generate	Run2	generate/STIM_006.jpg	99
1058.185	1.362	1362.3	generate	Run2	generate/STIM_006.jpg	99
1062.344	1.31	1310.0	generate	Run2	generate/STIM_006.jpg	100
1066.823	2.158	2158.1	generate	Run2	generate/STIM_007.jpg	100
1072.382	1.359	1358.7	generate	Run2	generate/STIM_007.jpg	99
1076.35	1.03	1029.9	generate	Run2	generate/STIM_007.jpg	99
1080.819	1.054	1053.8	generate	Run2	generate/STIM_007.jpg	99
1084.551	0.779	778.8	generate	Run2	generate/STIM_007.jpg	99
1087.848	1.763	1762.9	generate	Run2	generate/STIM_008.jpg	99
1092.089	1.286	1285.9	generate	Run2	generate/STIM_008.jpg	100
1095.661	1.017	1016.6	generate	Run2	generate/STIM_008.jpg	100
1098.983	0.808	807.7	generate	Run2	generate/STIM_008.jpg	100
1102.414	0.998	998.2	generate	Run2	generate/STIM_008.jpg	99
1106.163	2.267	2266.9	generate	Run2	generate/STIM_009.jpg	99
1111.023	2.004	2003.6	generate	Run2	generate/STIM_009.jpg	99
1116.614	0.946	945.8	generate	Run2	generate/STIM_009.jpg	100
1119.685	0.893	893.1	generate	Run2	generate/STIM_009.jpg	100
1124.081	1.228	1227.6	generate	Run2	generate/STIM_009.jpg	99
1128.839	1.03	1030.3	generate	Run2	generate/STIM_010.jpg	99
1132.458	1.606	1605.6	generate	Run2	generate/STIM_010.jpg	99
1137.271	1.154	1153.7	generate	Run2	generate/STIM_010.jpg	100
1142.272	1.535	1535.1	generate	Run2	generate/STIM_010.jpg	100
1146.416	1.467	1467.2	generate	Run2	generate/STIM_010.jpg	100
1151.241	1.77	1770.4	generate	Run2	generate/STIM_011.jpg	100
1156.404	1.632	1632.4	generate	Run2	generate/STIM_011.jpg	99
1160.655	2.041	2040.5	generate	Run2	generate/STIM_011.jpg	99
1166.588	0.824	824.5	generate	Run2	generate/STIM_011.jpg	100
1170.462	0.873	873.1	generate	Run2	generate/STIM_011.jpg	100
1174.645	1.562	1562.2	generate	Run2	generate/STIM_012.jpg	100
1180.325	1.161	1160.9	generate	Run2	generate/STIM_012.jpg	99
1184.017	2.037	2037.4	generate	Run2	generate/STIM_012.jpg	99
1189.038	1.755	1754.6	generate	Run2	generate/STIM_012.jpg	100
1194.101	1.465	1465.2	generate	Run2	generate/STIM_012.jpg	99
1199.32	1.053	1053.0	generate	Run2	generate/STIM_013.jpg	99
1202.504	1.916	1916.3	generate	Run2	generate/STIM_013.jpg	99
1207.306	1.085	1084.8	generate	Run2	generate/STIM_013.jpg	100
1211.255	1.294	1294.4	generate	Run2	generate/STIM_013.jpg	99
1215.617	1.836	1836.0	generate	Run2	generate/STIM_013.jpg	99
1220.514	1.453	1452.7	generate	Run2	generate/STIM_014.jpg	99
1226.036	1.723	1723.4	generate	Run2	generate/STIM_014.jpg	100
1231.377	1.502	1501.7	generate	Run2	generate/STIM_014.jpg	100
1236.065	0.921	920.9	generate	Run2	generate/STIM_014.jpg	100
1240.36	1.922	1921.6	generate	Run2	generate/STIM_014.jpg	100
1245.646	1.948	1948.1	generate	Run2	generate/STIM_015.jpg	99
1250.843	1.69	1689.5	generate	Run2	generate/STIM_015.jpg	100
1255.758	1.636	1636.0	generate	Run2	generate/STIM_015.jpg	100
1260.868	1.388	1388.5	generate	Run2	generate/STIM_015.jpg	99
1265.042	1.741	1741.1	generate	Run2	generate/STIM_015.jpg	99
1270.53	1.34	1339.9	generate	Run2	generate/STIM_016.jpg	100
1274.088	1.05	1049.6	generate	Run2	generate/STIM_016.jpg	100
1278.645	2.063	2063.4	generate	Run2	generate/STIM_016.jpg	99
1283.23	1.41	1409.8	generate	Run2	generate/STIM_016.jpg	99
1288.315	1.372	1371.7	generate	Run2	generate/STIM_016.jpg	100
1292.831	2.003	2003.0	generate	Run2	generate/STIM_017.jpg	99
1297.822	2.002	2002.3	generate	Run2	generate/STIM_017.jpg	100
1302.499	1.116	1116.0	generate	Run2	generate/STIM_017.jpg	99
1305.756	1.806	1806.3	generate	Run2	generate/STIM_017.jpg	100
1310.06	1.572	1571.8	generate	Run2	generate/STIM_017.jpg	99
1314.7	1.344	1343.5	generate	Run2	generate/STIM_018.jpg	100
1319.508	1.913	1912.9	generate	Run2	generate/STIM_018.jpg	100
1323.911	0.941	941.2	generate	Run2	generate/STIM_018.jpg	100
1328.018	1.906	1905.9	generate	Run2	generate/STIM_018.jpg	100
1332.497	0.858	858.3	generate	Run2	generate/STIM_018.jpg	100
1335.621	1.863	1863.1	generate	Run2	generate/STIM_019.jpg	100
1341.314	2.007	2007.1	generate	Run2	generate/STIM_019.jpg	100
1346.135	1.953	1953.2	generate	Run2	generate/STIM_019.jpg	99
1352.186	0.982	981.8	generate	Run2	generate/STIM_019.jpg	100
1355.291	0.891	891.3	generate	Run2	generate/STIM_019.jpg	100
1359.937	1.758	1758.3	generate	Run2	generate/STIM_020.jpg	100
1365.182	2.197	2196.9	generate	Run2	generate/STIM_020.jpg	99
1370.109	1.774	1774.3	generate	Run2	generate/STIM_020.jpg	100
1374.506	1.003	1003.4	generate	Run2	generate/STIM_020.jpg	100
1377.821	1.406	1406.3	generate	Run2	generate/STIM_020.jpg	100
1381.364	2.115	2115.2	generate	Run2	generate/STIM_021.jpg	100
1386.132	2.2	2200.2	generate	Run2	generate/STIM_021.jpg	99
1391.317	1.52	1520.3	generate	Run2	generate/STIM_021.jpg	100
1396.129	1.378	1378.5	generate	Run2	generate/STIM_021.jpg	99
1401.327	1.854	1854.1	generate	Run2	generate/STIM_021.jpg	99
1406.781	1.167	1166.6	generate	Run2	generate/STIM_022.jpg	99
1411.827	2.02	2020.1	generate	Run2	generate/STIM_022.jpg	99
1417.103	1.243	1242.7	generate	Run2	generate/STIM_022.jpg	99
1421.115	1.669	1669.0	generate	Run2	generate/STIM_022.jpg	100
1426.803	1.195	1195.1	generate	Run2	generate/STIM_022.jpg	100
1430.16	2.234	2233.9	generate	Run2	generate/STIM_023.jpg	100
1435.138	1.285	1284.7	generate	Run2	generate/STIM_023.jpg	99
1440.171	1.915	1914.8	generate	Run2	generate/STIM_023.jpg	100
1444.878	1.846	1845.7	generate	Run2	generate/STIM_023.jpg	100
1450.232	1.475	1474.9	generate	Run2	generate/STIM_023.jpg	99
1454.641	1.404	1404.3	generate	Run2	generate/STIM_024.jpg	100
1458.916	1.379	1379.4	generate	Run2	generate/STIM_024.jpg	100
1463.348	1.558	1558.2	generate	Run2	generate/STIM_024.jpg	100
1467.375	1.437	1436.7	generate	Run2	generate/STIM_024.jpg	99
1472.351	1.408	1408.2	generate	Run2	generate/STIM_024.jpg	100
1477.847	0.886	885.8	repeat	Run2	repeat/STIM_000.jpg	99
1481.596	0.725	725.0	repeat	Run2	repeat/STIM_000.jpg	99
1486.097	0.876	876.1	repeat	Run2	repeat/STIM_000.jpg	100
1490.13	0.701	701.0	repeat	Run2	repeat/STIM_000.jpg	99
1493.172	0.487	487.4	repeat	Run2	repeat/STIM_000.jpg	100
1497.597	0.667	667.0	repeat	Run2	repeat/STIM_001.jpg	99
1502.276	0.792	792.0	repeat	Run2	repeat/STIM_001.jpg	99
1505.48	0.577	576.6	repeat	Run2	repeat/STIM_001.jpg	99
1508.303	0.704	704.4	repeat	Run2	repeat/STIM_001.jpg	99
1512.588	0.756	755.5	repeat	Run2	repeat/STIM_001.jpg	100
1516.213	0.565	564.6	repeat	Run2	repeat/STIM_002.jpg	99
1519.199	0.701	701.0	repeat	Run2	repeat/STIM_002.jpg	100
1523.541	0.759	759.3	repeat	Run2	repeat/STIM_002.jpg	99
1526.454	0.793	792.8	repeat	Run2	repeat/STIM_002.jpg	100
1530.361	0.504	504.0	repeat	Run2	repeat/STIM_002.jpg	99
1534.155	0.808	808.0	repeat	Run2	repeat/STIM_003.jpg	100
1537.905	0.895	895.4	repeat	Run2	repeat/STIM_003.jpg	100
1540.891	0.673	673.0	repeat	Run2	repeat/STIM_003.jpg	99
1543.633	0.501	500.7	repeat	Run2	repeat/STIM_003.jpg	99
1546.364	0.758	757.8	repeat	Run2	repeat/STIM_003.jpg	99
1549.298	0.498	498.0	repeat	Run2	repeat/STIM_004.jpg	99
1553.016	0.506	505.6	repeat	Run2	repeat/STIM_004.jpg	99
1556.72	0.532	532.5	repeat	Run2	repeat/STIM_004.jpg	100
1560.724	0.65	650.2	repeat	Run2	repeat/STIM_004.jpg	99
1565.404	0.708	707.9	repeat	Run2	repeat/STIM_004.jpg	99
1569.842	0.68	679.5	repeat	Run2	repeat/STIM_005.jpg	100
1573.033	0.68	680.1	repeat	Run2	repeat/STIM_005.jpg	100
1576.593	0.476	476.3	repeat	Run2	repeat/STIM_005.jpg	100
1579.907	0.842	841.7	repeat	Run2	repeat/STIM_005.jpg	99
1584.431	0.626	625.6	repeat	Run2	repeat/STIM_005.jpg	100
1588.775	0.848	848.4	repeat	Run2	repeat/STIM_006.jpg	99
1592.903	0.596	596.2	repeat	Run2	repeat/STIM_006.jpg	100
1595.612	0.487	486.9	repeat	Run2	repeat/STIM_006.jpg	99
1598.809	0.701	701.1	repeat	Run2	repeat/STIM_006.jpg	99
1601.977	0.916	915.8	repeat	Run2	repeat/STIM_006.jpg	99
1606.086	0.679	679.0	repeat	Run2	repeat/STIM_007.jpg	99
1610.668	0.478	477.5	repeat	Run2	repeat/STIM_007.jpg	100
1613.381	0.48	479.8	repeat	Run2	repeat/STIM_007.jpg	99
1617.134	0.874	874.5	repeat	Run2	repeat/STIM_007.jpg	99
1621.877	0.613	612.8	repeat	Run2	repeat/STIM_007.jpg	100
1626.271	0.642	642.1	repeat	Run2	repeat/STIM_008.jpg	100
1629.782	0.744	743.5	repeat	Run2	repeat/STIM_008.jpg	99
1633.398	0.807	807.0	repeat	Run2	repeat/STIM_008.jpg	99
1637.49	0.839	838.8	repeat	Run2	repeat/STIM_008.jpg	99
1641.072	0.725	725.3	repeat	Run2	repeat/STIM_008.jpg	99
1645.686	0.803	803.1	repeat	Run2	repeat/STIM_009.jpg	100
1648.658	0.842	841.7	repeat	Run2	repeat/STIM_009.jpg	99
1652.785	0.902	901.5	repeat	Run2	repeat/STIM_009.jpg	99
1656.495	0.484	483.8	repeat	Run2	repeat/STIM_009.jpg	99
1660.826	0.519	519.3	repeat	Run2	repeat/STIM_009.jpg	99
1663.905	0.82	819.6	repeat	Run2	repeat/STIM_010.jpg	99
1668.265	0.714	713.7	repeat	Run2	repeat/STIM_010.jpg	100
1671.125	0.899	899.4	repeat	Run2	repeat/STIM_010.jpg	100
1675.791	0.613	613.3	repeat	Run2	repeat/STIM_010.jpg	100
1678.827	0.671	671.0	repeat	Run2	repeat/STIM_010.jpg	100
1682.192	0.613	613.1	repeat	Run2	repeat/STIM_011.jpg	99
1686.596	0.671	670.9	repeat	Run2	repeat/STIM_011.jpg	100
1690.528	0.677	676.8	repeat	Run2	repeat/STIM_011.jpg	99
1693.376	0.503	502.6	repeat	Run2	repeat/STIM_011.jpg	99
1697.106	0.683	682.6	repeat	Run2	repeat/STIM_011.jpg	99
1701.055	0.51	510.3	repeat	Run2	repeat/STIM_012.jpg	99
1704.652	0.871	871.3	repeat	Run2	repeat/STIM_012.jpg	99
1707.858	0.688	688.3	repeat	Run2	repeat/STIM_012.jpg	100
1711.921	0.593	593.4	repeat	Run2	repeat/STIM_012.jpg	100
1715.211	0.582	582.4	repeat	Run2	repeat/STIM_012.jpg	99
1718.374	0.477	476.6	repeat	Run2	repeat/STIM_013.jpg	99
1721.413	0.556	555.6	repeat	Run2	repeat/STIM_013.jpg	100
1724.504	0.659	658.8	repeat	Run2	repeat/STIM_013.jpg	99
1728.401	0.772	772.1	repeat	Run2	repeat/STIM_013.jpg	100
1732.7	0.463	462.6	repeat	Run2	repeat/STIM_013.jpg	100
1736.94	0.706	706.1	repeat	Run2	repeat/STIM_014.jpg	99
1741.321	0.835	835.0	repeat	Run2	repeat/STIM_014.jpg	100
1744.5	0.633	633.3	repeat	Run2	repeat/STIM_014.jpg	100
1748.132	0.752	752.2	repeat	Run2	repeat/STIM_014.jpg	99
1751.172	0.89	889.6	repeat	Run2	repeat/STIM_014.jpg	100
1754.346	1.192	1192.4	generate	Run3	generate/STIM_000.jpg	100
1757.835	0.809	808.6	generate	Run3	generate/STIM_000.jpg	100
1761.556	1.125	1124.6	generate	Run3	generate/STIM_000.jpg	100
1765.874	1.405	1405.2	generate	Run3	generate/STIM_000.jpg	99
1770.047	1.443	1442.8	generate	Run3	generate/STIM_000.jpg	99
1773.812	1.739	1739.1	generate	Run3	generate/STIM_001.jpg	99
1778.575	1.921	1921.4	generate	Run3	generate/STIM_001.jpg	99
1783.979	1.361	1361.1	generate	Run3	generate/STIM_001.jpg	100
1789.167	1.694	1694.0	generate	Run3	generate/STIM_001.jpg	100
1794.215	1.9	1900.1	generate	Run3	generate/STIM_001.jpg	99
1799.456	1.167	1167.1	generate	Run3	generate/STIM_002.jpg	99
1804.071	0.999	998.9	generate	Run3	generate/STIM_002.jpg	99
1808.957	1.199	1199.4	generate	Run3	generate/STIM_002.jpg	100
1813.499	0.974	974.1	generate	Run3	generate/STIM_002.jpg	100
1817.537	1.186	1185.8	generate	Run3	generate/STIM_002.jpg	99
1821.492	1.034	1034.4	generate	Run3	generate/STIM_003.jpg	100
1824.781	0.936	936.0	generate	Run3	generate/STIM_003.jpg	99
1828.297	0.817	817.2	generate	Run3	generate/STIM_003.jpg	99
1831.552	0.927	927.4	generate	Run3	generate/STIM_003.jpg	99
1834.603	0.829	829.0	generate	Run3	generate/STIM_003.jpg	100
1838.363	1.494	1493.5	generate	Run3	generate/STIM_004.jpg	99
1843.46	1.132	1132.5	generate	Run3	generate/STIM_004.jpg	99
1847.407	1.107	1107.3	generate	Run3	generate/STIM_004.jpg	100
1852.436	1.638	1637.9	generate	Run3	generate/STIM_004.jpg	99
1857.06	1.425	1425.2	generate	Run3	generate/STIM_004.jpg	100
1862.256	1.09	1090.2	generate	Run3	generate/STIM_005.jpg	100
1866.825	1.919	1918.6	generate	Run3	generate/STIM_005.jpg	99
1871.249	1.401	1401.4	generate	Run3	generate/STIM_005.jpg	99
1875.512	1.833	1833.0	generate	Run3	generate/STIM_005.jpg	99
1879.515	1.743	1743.4	generate	Run3	generate/STIM_005.jpg	100
1884.013	1.034	1033.7	generate	Run3	generate/STIM_006.jpg	100
1888.996	1.44	1440.4	generate	Run3	generate/STIM_006.jpg	100
1892.956	0.84	840.3	generate	Run3	generate/STIM_006.jpg	99
1897.588	1.552	1552.5	generate	Run3	generate/STIM_006.jpg	99
1902.04	1.874	1873.5	generate	Run3	generate/STIM_006.jpg	99
1907.408	1.018	1017.9	generate	Run3	generate/STIM_007.jpg	99
1911.868	1.271	1271.2	generate	Run3	generate/STIM_007.jpg	99
1915.87	0.869	869.2	generate	Run3	generate/STIM_007.jpg	99
1919.869	1.657	1657.2	generate	Run3	generate/STIM_007.jpg	100
1925.161	1.008	1008.3	generate	Run3	generate/STIM_007.jpg	99
1929.154	1.224	1223.6	generate	Run3	generate/STIM_008.jpg	99
1934.134	1.19	1190.2	generate	Run3	generate/STIM_008.jpg	99
1938.451	0.899	898.8	generate	Run3	generate/STIM_008.jpg	100
1942.189	1.382	1381.8	generate	Run3	generate/STIM_008.jpg	100
1946.294	1.435	1434.8	generate	Run3	generate/STIM_008.jpg	100
1950.671	1.607	1606.9	generate	Run3	generate/STIM_009.jpg	99
1956.311	1.415	1415.1	generate	Run3	generate/STIM_009.jpg	99
1961.717	0.978	978.0	generate	Run3	generate/STIM_009.jpg	100
1966.757	0.987	986.9	generate	Run3	generate/STIM_009.jpg	99
1970.459	1.298	1297.6	generate	Run3	generate/STIM_009.jpg	99
1973.88	0.826	825.9	generate	Run3	generate/STIM_010.jpg	99
1977.571	1.45	1449.6	generate	Run3	generate/STIM_010.jpg	100
1982.074	1.306	1305.8	generate	Run3	generate/STIM_010.jpg	100
1986.95	0.978	978.5	generate	Run3	generate/STIM_010.jpg	100
1990.228	1.795	1795.2	generate	Run3	generate/STIM_010.jpg	100
1994.954	1.396	1395.5	generate	Run3	generate/STIM_011.jpg	100
1998.893	1.184	1183.5	generate	Run3	generate/STIM_011.jpg	100
2003.859	1.523	1522.8	generate	Run3	generate/STIM_011.jpg	100
2008.961	1.749	1749.3	generate	Run3	generate/STIM_011.jpg	100
2014.857	1.899	1899.0	generate	Run3	generate/STIM_011.jpg	100
2019.54	1.032	1032.0	generate	Run3	generate/STIM_012.jpg	99
2023.898	0.858	857.7	generate	Run3	generate/STIM_012.jpg	100
2027.176	1.862	1861.9	generate	Run3	generate/STIM_012.jpg	99
2032.352	0.825	825.1	generate	Run3	generate/STIM_012.jpg	99
2036.676	1.375	1375.1	generate	Run3	generate/STIM_012.jpg	99
2040.458	1.177	1177.4	generate	Run3	generate/STIM_013.jpg	100
2045.494	1.699	1699.0	generate	Run3	generate/STIM_013.jpg	99
2051.186	1.514	1514.1	generate	Run3	generate/STIM_013.jpg	99
2056.533	0.886	886.5	generate	Run3	generate/STIM_013.jpg	99
2060.45	1.131	1131.4	generate	Run3	generate/STIM_013.jpg	100
2064.688	1.291	1291.1	generate	Run3	generate/STIM_014.jpg	100
2068.174	1.413	1413.1	generate	Run3	generate/STIM_014.jpg	99
2071.76	1.116	1116.0	generate	Run3	generate/STIM_014.jpg	99
2076.185	1.4	1399.9	generate	Run3	generate/STIM_014.jpg	99
2079.816	1.577	1577.2	generate	Run3	generate/STIM_014.jpg	99
2084.956	1.634	1633.5	generate	Run3	generate/STIM_015.jpg	100
2089.137	1.064	1064.2	generate	Run3	generate/STIM_015.jpg	100
2092.395	1.142	1142.2	generate	Run3	generate/STIM_015.jpg	100
2095.959	1.517	1517.0	generate	Run3	generate/STIM_015.jpg	99
2101.308	1.702	1702.0	generate	Run3	generate/STIM_015.jpg	100
2107.133	0.999	998.6	generate	Run3	generate/STIM_016.jpg	100
2111.8	0.849	849.1	generate	Run3	generate/STIM_016.jpg	99
2116.249	1.006	1006.4	generate	Run3	generate/STIM_016.jpg	100
2119.954	1.4	1399.7	generate	Run3	generate/STIM_016.jpg	99
2124.202	1.796	1796.0	generate	Run3	generate/STIM_016.jpg	100
2129.652	0.91	910.3	generate	Run3	generate/STIM_017.jpg	100
2133.807	1.745	1744.7	generate	Run3	generate/STIM_017.jpg	100
2138.682	1.918	1917.7	generate	Run3	generate/STIM_017.jpg	99
2142.969	0.822	822.3	generate	Run3	generate/STIM_017.jpg	100
2147.617	1.726	1726.3	generate	Run3	generate/STIM_017.jpg	100
2151.933	1.004	1003.7	generate	Run3	generate/STIM_018.jpg	100
2156.262	1.706	1705.5	generate	Run3	generate/STIM_018.jpg	100
2161.629	1.062	1062.1	generate	Run3	generate/STIM_018.jpg	100
2165.282	1.469	1469.1	generate	Run3	generate/STIM_018.jpg	100
2170.053	1.85	1850.5	generate	Run3	generate/STIM_018.jpg	99
2175.296	1.737	1736.8	generate	Run3	generate/STIM_019.jpg	100
2180.369	1.591	1590.7	generate	Run3	generate/STIM_019.jpg	99
2184.188	0.933	932.9	generate	Run3	generate/STIM_019.jpg	100
2188.225	1.013	1013.2	generate	Run3	generate/STIM_019.jpg	99
2191.901	1.201	1200.6	generate	Run3	generate/STIM_019.jpg	99
2195.605	0.795	795.4	generate	Run3	generate/STIM_020.jpg	99
2198.69	1.774	1773.6	generate	Run3	generate/STIM_020.jpg	99
2203.094	1.928	1928.4	generate	Run3	generate/STIM_020.jpg	100
2208.815	1.384	1384.1	generate	Run3	generate/STIM_020.jpg	99
2213.696	0.829	829.0	generate	Run3	generate/STIM_020.jpg	99
2218.419	1.366	1366.0	generate	Run3	generate/STIM_021.jpg	99
2222.144	1.073	1072.6	generate	Run3	generate/STIM_021.jpg	99
2225.385	1.361	1361.3	generate	Run3	generate/STIM_021.jpg	100
2230.55	0.902	901.7	generate	Run3	generate/STIM_021.jpg	99
2234.674	0.786	786.4	generate	Run3	generate/STIM_021.jpg	100
2238.309	0.924	923.8	generate	Run3	generate/STIM_022.jpg	100
2241.39	1.005	1005.1	generate	Run3	generate/STIM_022.jpg	99
2245.754	1.841	1841.3	generate	Run3	generate/STIM_022.jpg	99
2250.461	0.997	997.2	generate	Run3	generate/STIM_022.jpg	99
2253.58	1.462	1462.2	generate	Run3	generate/STIM_022.jpg	100
2258.208	1.582	1582.4	generate	Run3	generate/STIM_023.jpg	99
2263.666	0.78	780.2	generate	Run3	generate/STIM_023.jpg	100
2266.521	1.493	1493.2	generate	Run3	generate/STIM_023.jpg	100
2271.195	1.272	1272.5	generate	Run3	generate/STIM_023.jpg	100
2276.448	0.91	910.5	generate	Run3	generate/STIM_023.jpg	100
2280.267	1.707	1706.7	generate	Run3	generate/STIM_024.jpg	100
2285.822	1.462	1461.7	generate	Run3	generate/STIM_024.jpg	100
2290.441	1.245	1245.1	generate	Run3	generate/STIM_024.jpg	99
2295.601	1.213	1213.0	generate	Run3	generate/STIM_024.jpg	100
2300.418	1.929	1928.7	generate	Run3	generate/STIM_024.jpg	99
2304.582	0.737	736.9	repeat	Run3	repeat/STIM_000.jpg	99
2308.928	0.801	801.1	repeat	Run3	repeat/STIM_000.jpg	100
2313.386	0.462	462.0	repeat	Run3	repeat/STIM_000.jpg	99
2316.483	0.867	866.6	repeat	Run3	repeat/STIM_000.jpg	99
2319.778	0.82	820.0	repeat	Run3	repeat/STIM_000.jpg	100
2323.476	0.891	890.6	repeat	Run3	repeat/STIM_001.jpg	100
2327.154	0.61	610.5	repeat	Run3	repeat/STIM_001.jpg	100
2330.271	0.898	898.1	repeat	Run3	repeat/STIM_001.jpg	99
2335.091	0.618	618.3	repeat	Run3	repeat/STIM_001.jpg	99
2339.358	0.906	906.2	repeat	Run3	repeat/STIM_001.jpg	100
2344.203	0.829	829.0	repeat	Run3	repeat/STIM_002.jpg	99
2348.582	0.695	695.2	repeat	Run3	repeat/STIM_002.jpg	100
2352.132	0.822	821.9	repeat	Run3	repeat/STIM_002.jpg	100
2355.826	0.67	670.2	repeat	Run3	repeat/STIM_002.jpg	99
2359.979	0.732	731.8	repeat	Run3	repeat/STIM_002.jpg	100
2363.188	0.604	604.2	repeat	Run3	repeat/STIM_003.jpg	100
2366.703	0.74	740.0	repeat	Run3	repeat/STIM_003.jpg	99
2371.364	0.777	776.7	repeat	Run3	repeat/STIM_003.jpg	100
2375.624	0.549	548.8	repeat	Run3	repeat/STIM_003.jpg	100
2378.538	0.691	690.6	repeat	Run3	repeat/STIM_003.jpg	100
2382.761	0.791	791.1	repeat	Run3	repeat/STIM_004.jpg	100
2385.834	0.642	642.3	repeat	Run3	repeat/STIM_004.jpg	100
2388.72	0.833	833.1	repeat	Run3	repeat/STIM_004.jpg	99
2391.994	0.483	483.0	repeat	Run3	repeat/STIM_004.jpg	100
2395.577	0.811	811.2	repeat	Run3	repeat/STIM_004.jpg	99
2398.943	0.625	624.8	repeat	Run3	repeat/STIM_005.jpg	99
2403.55	0.571	570.8	repeat	Run3	repeat/STIM_005.jpg	100
2406.246	0.829	828.9	repeat	Run3	repeat/STIM_005.jpg	99
2410.83	0.748	748.2	repeat	Run3	repeat/STIM_005.jpg	100
2414.647	0.523	522.9	repeat	Run3	repeat/STIM_005.jpg	100
2417.975	0.496	495.6	repeat	Run3	repeat/STIM_006.jpg	100
2420.947	0.596	595.5	repeat	Run3	repeat/STIM_006.jpg	99
2424.695	0.897	897.0	repeat	Run3	repeat/STIM_006.jpg	99
2428.518	0.768	768.0	repeat	Run3	repeat/STIM_006.jpg	100
2433.038	0.499	498.6	repeat	Run3	repeat/STIM_006.jpg	99
2436.084	0.715	715.3	repeat	Run3	repeat/STIM_007.jpg	99
2439.284	0.754	754.1	repeat	Run3	repeat/STIM_007.jpg	99
2443.777	0.747	747.4	repeat	Run3	repeat/STIM_007.jpg	99
2446.954	0.522	522.1	repeat	Run3	repeat/STIM_007.jpg	99
2451.294	0.86	860.0	repeat	Run3	repeat/STIM_007.jpg	100
2455.725	0.886	886.5	repeat	Run3	repeat/STIM_008.jpg	99
2459.437	0.808	807.8	repeat	Run3	repeat/STIM_008.jpg	99
2463.584	0.918	918.2	repeat	Run3	repeat/STIM_008.jpg	100
2468.324	0.473	473.4	repeat	Run3	repeat/STIM_008.jpg	99
2472.777	0.829	829.0	repeat	Run3	repeat/STIM_008.jpg	99
2475.981	0.596	595.5	repeat	Run3	repeat/STIM_009.jpg	100
2479.485	0.857	856.7	repeat	Run3	repeat/STIM_009.jpg	100
2483.197	0.621	621.0	repeat	Run3	repeat/STIM_009.jpg	99
2487.167	0.48	480.1	repeat	Run3	repeat/STIM_009.jpg	99
2491.399	0.915	915.3	repeat	Run3	repeat/STIM_009.jpg	99
2495.529	0.672	672.5	repeat	Run3	repeat/STIM_010.jpg	99
2500.007	0.692	692.2	repeat	Run3	repeat/STIM_010.jpg	100
2504.71	0.566	566.1	repeat	Run3	repeat/STIM_010.jpg	100
2507.479	0.486	485.6	repeat	Run3	repeat/STIM_010.jpg	99
2511.345	0.503	503.2	repeat	Run3	repeat/STIM_010.jpg	100
2515.127	0.676	676.2	repeat	Run3	repeat/STIM_011.jpg	100
2518.393	0.531	530.6	repeat	Run3	repeat/STIM_011.jpg	99
2521.657	0.853	853.0	repeat	Run3	repeat/STIM_011.jpg	100
2524.722	0.552	552.1	repeat	Run3	repeat/STIM_011.jpg	100
2528.154	0.766	766.2	repeat	Run3	repeat/STIM_011.jpg	100
2531.569	0.54	540.0	repeat	Run3	repeat/STIM_012.jpg	100
2534.264	0.836	835.7	repeat	Run3	repeat/STIM_012.jpg	100
2538.433	0.594	594.1	repeat	Run3	repeat/STIM_012.jpg	100
2541.755	0.577	577.2	repeat	Run3	repeat/STIM_012.jpg	100
2544.549	0.791	791.4	repeat	Run3	repeat/STIM_012.jpg	100
2547.905	0.506	505.8	repeat	Run3	repeat/STIM_013.jpg	100
2550.48	0.473	473.3	repeat	Run3	repeat/STIM_013.jpg	99
2553.821	0.482	481.5	repeat	Run3	repeat/STIM_013.jpg	99
2557.564	0.553	552.8	repeat	Run3	repeat/STIM_013.jpg	99
2560.189	0.499	498.6	repeat	Run3	repeat/STIM_013.jpg	99
2563.4	0.516	516.4	repeat	Run3	repeat/STIM_014.jpg	99
2567.883	0.821	820.6	repeat	Run3	repeat/STIM_014.jpg	99
2571.069	0.811	810.6	repeat	Run3	repeat/STIM_014.jpg	99
2575.535	0.539	539.2	repeat	Run3	repeat/STIM_014.jpg	100
2579.003	0.755	755.1	repeat	Run3	repeat/STIM_014.jpg	99
2581.989	0.954	954.5	generate	Run4	generate/STIM_000.jpg	100
2586.076	0.963	963.1	generate	Run4	generate/STIM_000.jpg	100
2589.465	1.764	1763.6	generate	Run4	generate/STIM_000.jpg	99
2593.97	1.119	1119.4	generate	Run4	generate/STIM_000.jpg	100
2597.306	1.8	1799.6	generate	Run4	generate/STIM_000.jpg	99
2601.955	1.415	1414.9	generate	Run4	generate/STIM_001.jpg	100
2607.288	1.316	1315.9	generate	Run4	generate/STIM_001.jpg	100
2611.656	1.712	1711.9	generate	Run4	generate/STIM_001.jpg	100
2616.353	0.939	939.4	generate	Run4	generate/STIM_001.jpg	99
2619.714	1.889	1888.8	generate	Run4	generate/STIM_001.jpg	99
2624.422	1.49	1489.6	generate	Run4	generate/STIM_002.jpg	100
2629.243	1.623	1623.0	generate	Run4	generate/STIM_002.jpg	100
2633.966	1.814	1813.8	generate	Run4	generate/STIM_002.jpg	100
2639.251	0.987	987.4	generate	Run4	generate/STIM_002.jpg	100
2643.1	1.691	1690.9	generate	Run4	generate/STIM_002.jpg	100
2648.638	1.225	1225.2	generate	Run4	generate/STIM_003.jpg	99
2652.464	1.503	1503.2	generate	Run4	generate/STIM_003.jpg	99
2656.678	0.866	866.4	generate	Run4	generate/STIM_003.jpg	99
2661.29	0.945	945.1	generate	Run4	generate/STIM_003.jpg	100
2664.449	1.835	1834.9	generate	Run4	generate/STIM_003.jpg	99
2670.291	1.34	1340.3	generate	Run4	generate/STIM_004.jpg	99
2674.836	1.877	1876.7	generate	Run4	generate/STIM_004.jpg	100
2680.13	1.357	1357.4	generate	Run4	generate/STIM_004.jpg	100
2683.607	1.105	1105.4	generate	Run4	generate/STIM_004.jpg	100
2687.99	0.971	971.0	generate	Run4	generate/STIM_004.jpg	100
2692.554	0.956	956.0	generate	Run4	generate/STIM_005.jpg	99
2697.108	1.638	1637.5	generate	Run4	generate/STIM_005.jpg	100
2701.008	0.874	874.1	generate	Run4	generate/STIM_005.jpg	99
2705.07	1.225	1225.1	generate	Run4	generate/STIM_005.jpg	99
2709.941	1.438	1437.6	generate	Run4	generate/STIM_005.jpg	100
2714.15	0.927	926.6	generate	Run4	generate/STIM_006.jpg	100
2718.143	1.647	1646.7	generate	Run4	generate/STIM_006.jpg	99
2723.257	0.93	929.6	generate	Run4	generate/STIM_006.jpg	99
2727.738	0.995	994.8	generate	Run4	generate/STIM_006.jpg	100
2732.111	1.603	1603.1	generate	Run4	generate/STIM_006.jpg	99
2736.993	0.798	798.5	generate	Run4	generate/STIM_007.jpg	99
2740.739	1.163	1163.4	generate	Run4	generate/STIM_007.jpg	99
2744.019	1.032	1032.3	generate	Run4	generate/STIM_007.jpg	99
2748.263	1.269	1269.2	generate	Run4	generate/STIM_007.jpg	99
2752.168	1.284	1284.5	generate	Run4	generate/STIM_007.jpg	100
2757.247	1.809	1809.0	generate	Run4	generate/STIM_008.jpg	100
2763.208	1.456	1455.5	generate	Run4	generate/STIM_008.jpg	100
2768.056	0.9	900.4	generate	Run4	generate/STIM_008.jpg	100
2772.363	1.28	1280.4	generate	Run4	generate/STIM_008.jpg	99
2777.59	1.375	1375.4	generate	Run4	generate/STIM_008.jpg	99
2781.178	0.861	861.0	generate	Run4	generate/STIM_009.jpg	99
2786.014	1.659	1659.4	generate	Run4	generate/STIM_009.jpg	100
2790.115	1.508	1507.8	generate	Run4	generate/STIM_009.jpg	99
2795.441	1.794	1793.7	generate	Run4	generate/STIM_009.jpg	100
2800.92	1.567	1567.3	generate	Run4	generate/STIM_009.jpg	99
2806.245	0.818	817.8	generate	Run4	generate/STIM_010.jpg	100
2809.28	1.416	1416.3	generate	Run4	generate/STIM_010.jpg	100
2814.008	1.816	1816.1	generate	Run4	generate/STIM_010.jpg	99
2819.326	1.473	1472.8	generate	Run4	generate/STIM_010.jpg	100
2823.261	1.554	1554.5	generate	Run4	generate/STIM_010.jpg	100
2827.966	1.225	1225.3	generate	Run4	generate/STIM_011.jpg	100
2831.953	0.82	820.3	generate	Run4	generate/STIM_011.jpg	99
2835.394	1.239	1238.6	generate	Run4	generate/STIM_011.jpg	100
2840.288	1.466	1465.8	generate	Run4	generate/STIM_011.jpg	100
2844.254	0.849	848.8	generate	Run4	generate/STIM_011.jpg	99
2848.771	1.437	1436.6	generate	Run4	generate/STIM_012.jpg	100
2853.836	1.664	1663.9	generate	Run4	generate/STIM_012.jpg	100
2858.604	1.171	1170.9	generate	Run4	generate/STIM_012.jpg	100
2862.05	1.127	1126.8	generate	Run4	generate/STIM_012.jpg	100
2867.185	1.158	1158.5	generate	Run4	generate/STIM_012.jpg	100
2870.833	1.006	1006.0	generate	Run4	generate/STIM_013.jpg	99
2875.536	1.251	1251.3	generate	Run4	generate/STIM_013.jpg	99
2880.043	1.828	1827.8	generate	Run4	generate/STIM_013.jpg	99
2886.021	1.12	1119.9	generate	Run4	generate/STIM_013.jpg	100
2890.987	1.59	1589.7	generate	Run4	generate/STIM_013.jpg	99
2894.961	0.873	872.6	generate	Run4	generate/STIM_014.jpg	100
2899.148	0.882	881.6	generate	Run4	generate/STIM_014.jpg	99
2902.632	1.772	1771.6	generate	Run4	generate/STIM_014.jpg	100
2907.441	1.03	1029.5	generate	Run4	generate/STIM_014.jpg	99
2911.004	1.549	1549.1	generate	Run4	generate/STIM_014.jpg	99
2914.755	1.72	1720.2	generate	Run4	generate/STIM_015.jpg	100
2919.94	1.371	1370.9	generate	Run4	generate/STIM_015.jpg	99
2924.457	1.504	1503.9	generate	Run4	generate/STIM_015.jpg	100
2929.41	1.098	1098.3	generate	Run4	generate/STIM_015.jpg	99
2932.706	1.599	1599.3	generate	Run4	generate/STIM_015.jpg	99
2936.656	1.025	1024.7	generate	Run4	generate/STIM_016.jpg	99
2940.325	1.466	1465.6	generate	Run4	generate/STIM_016.jpg	100
2945.65	1.366	1366.0	generate	Run4	generate/STIM_016.jpg	99
2950.672	1.412	1411.8	generate	Run4	generate/STIM_016.jpg	100
2956.055	1.511	1511.2	generate	Run4	generate/STIM_016.jpg	99
2961.033	1.588	1588.5	generate	Run4	generate/STIM_017.jpg	99
2966.04	1.63	1630.3	generate	Run4	generate/STIM_017.jpg	99
2970.991	1.816	1815.9	generate	Run4	generate/STIM_017.jpg	100
2975.676	1.628	1627.9	generate	Run4	generate/STIM_017.jpg	100
2980.598	1.226	1225.6	generate	Run4	generate/STIM_017.jpg	99
2984.079	1.492	1492.5	generate	Run4	generate/STIM_018.jpg	100
2988.228	1.735	1735.3	generate	Run4	generate/STIM_018.jpg	99
2993.199	1.708	1708.1	generate	Run4	generate/STIM_018.jpg	99
2997.08	1.57	1569.6	generate	Run4	generate/STIM_018.jpg	100
3001.796	1.543	1543.0	generate	Run4	generate/STIM_018.jpg	99
3006.169	1.556	1556.1	generate	Run4	generate/STIM_019.jpg	100
3011.8	0.79	789.6	generate	Run4	generate/STIM_019.jpg	100
3016.33	1.835	1834.9	generate	Run4	generate/STIM_019.jpg	99
3021.819	1.496	1495.8	generate	Run4	generate/STIM_019.jpg	100
3025.797	1.908	1907.7	generate	Run4	generate/STIM_019.jpg	99
3031.266	1.622	1622.1	generate	Run4	generate/STIM_020.jpg	99
3036.328	0.916	915.8	generate	Run4	generate/STIM_020.jpg	99
3040.006	0.934	933.8	generate	Run4	generate/STIM_020.jpg	99
3043.924	1.828	1828.3	generate	Run4	generate/STIM_020.jpg	100
3048.605	1.03	1029.8	generate	Run4	generate/STIM_020.jpg	100
3053.003	1.122	1122.1	generate	Run4	generate/STIM_021.jpg	99
3056.252	1.308	1308.1	generate	Run4	generate/STIM_021.jpg	100
3060.001	1.253	1252.8	generate	Run4	generate/STIM_021.jpg	99
3063.421	1.632	1631.9	generate	Run4	generate/STIM_021.jpg	99
3068.364	0.991	991.3	generate	Run4	generate/STIM_021.jpg	99
3072.527	1.789	1789.4	generate	Run4	generate/STIM_022.jpg	99
3077.991	1.12	1119.7	generate	Run4	generate/STIM_022.jpg	99
3081.324	1.392	1392.3	generate	Run4	generate/STIM_022.jpg	100
3085.071	0.804	804.5	generate	Run4	generate/STIM_022.jpg	99
3088.712	1.187	1187.2	generate	Run4	generate/STIM_022.jpg	100
3092.039	1.246	1245.8	generate	Run4	generate/STIM_023.jpg	99
3096.721	1.524	1524.3	generate	Run4	generate/STIM_023.jpg	99
3102.289	1.169	1168.6	generate	Run4	generate/STIM_023.jpg	99
3105.807	0.995	994.6	generate	Run4	generate/STIM_023.jpg	99
3109.083	1.71	1710.0	generate	Run4	generate/STIM_023.jpg	99
3114.632	1.086	1086.3	generate	Run4	generate/STIM_024.jpg	99
3119.029	1.182	1182.1	generate	Run4	generate/STIM_024.jpg	99
3124.08	1.835	1834.8	generate	Run4	generate/STIM_024.jpg	99
3129.835	0.82	819.7	generate	Run4	generate/STIM_024.jpg	100
3134.255	1.301	1301.2	generate	Run4	generate/STIM_024.jpg	100
3138.966	0.588	587.7	repeat	Run4	repeat/STIM_000.jpg	99
3142.722	0.84	839.9	repeat	Run4	repeat/STIM_000.jpg	99
3147.207	0.686	686.4	repeat	Run4	repeat/STIM_000.jpg	100
3150.385	0.641	641.1	repeat	Run4	repeat/STIM_000.jpg	99
3154.533	0.59	590.3	repeat	Run4	repeat/STIM_000.jpg	99
3157.801	0.643	642.6	repeat	Run4	repeat/STIM_001.jpg	100
3161.894	0.899	898.8	repeat	Run4	repeat/STIM_001.jpg	99
3165.715	0.588	587.5	repeat	Run4	repeat/STIM_001.jpg	99
3170.211	0.663	663.3	repeat	Run4	repeat/STIM_001.jpg	100
3173.791	0.464	464.4	repeat	Run4	repeat/STIM_001.jpg	99
3177.162	0.622	622.4	repeat	Run4	repeat/STIM_002.jpg	100
3180.427	0.505	505.3	repeat	Run4	repeat/STIM_002.jpg	100
3184.442	0.808	808.2	repeat	Run4	repeat/STIM_002.jpg	99
3188.489	0.546	546.0	repeat	Run4	repeat/STIM_002.jpg	100
3192.669	0.815	814.9	repeat	Run4	repeat/STIM_002.jpg	100
3197.289	0.657	657.3	repeat	Run4	repeat/STIM_003.jpg	99
3201.959	0.627	627.2	repeat	Run4	repeat/STIM_003.jpg	100
3206.248	0.881	880.7	repeat	Run4	repeat/STIM_003.jpg	100
3211.016	0.76	759.9	repeat	Run4	repeat/STIM_003.jpg	100
3215.752	0.7	699.6	repeat	Run4	repeat/STIM_003.jpg	99
3219.978	0.546	545.5	repeat	Run4	repeat/STIM_004.jpg	100
3224.438	0.5	499.9	repeat	Run4	repeat/STIM_004.jpg	100
3228.938	0.861	860.9	repeat	Run4	repeat/STIM_004.jpg	100
3232.758	0.503	503.4	repeat	Run4	repeat/STIM_004.jpg	99
3235.394	0.527	527.3	repeat	Run4	repeat/STIM_004.jpg	100
3238.763	0.874	873.7	repeat	Run4	repeat/STIM_005.jpg	99
3242.659	0.79	789.6	repeat	Run4	repeat/STIM_005.jpg	100
3247.331	0.869	869.0	repeat	Run4	repeat/STIM_005.jpg	100
3250.761	0.567	567.1	repeat	Run4	repeat/STIM_005.jpg	100
3253.498	0.472	471.7	repeat	Run4	repeat/STIM_005.jpg	100
3256.579	0.891	891.1	repeat	Run4	repeat/STIM_006.jpg	100
3259.741	0.568	568.3	repeat	Run4	repeat/STIM_006.jpg	100
3263.835	0.698	698.2	repeat	Run4	repeat/STIM_006.jpg	99
3267.035	0.721	720.7	repeat	Run4	repeat/STIM_006.jpg	99
3271.053	0.793	792.7	repeat	Run4	repeat/STIM_006.jpg	100
3275.388	0.569	568.9	repeat	Run4	repeat/STIM_007.jpg	99
3279.084	0.529	529.2	repeat	Run4	repeat/STIM_007.jpg	100
3281.666	0.534	533.7	repeat	Run4	repeat/STIM_007.jpg	99
3286.156	0.8	799.6	repeat	Run4	repeat/STIM_007.jpg	99
3289.824	0.784	783.9	repeat	Run4	repeat/STIM_007.jpg	99
3293.053	0.877	877.2	repeat	Run4	repeat/STIM_008.jpg	100
3297.513	0.711	710.7	repeat	Run4	repeat/STIM_008.jpg	100
3300.566	0.817	817.2	repeat	Run4	repeat/STIM_008.jpg	100
3304.398	0.463	463.2	repeat	Run4	repeat/STIM_008.jpg	100
3308.195	0.546	545.6	repeat	Run4	repeat/STIM_008.jpg	100
3311.961	0.5	499.9	repeat	Run4	repeat/STIM_009.jpg	100
3316.437	0.867	867.3	repeat	Run4	repeat/STIM_009.jpg	100
3319.673	0.772	772.0	repeat	Run4	repeat/STIM_009.jpg	100
3322.66	0.821	820.9	repeat	Run4	repeat/STIM_009.jpg	100
3326.972	0.714	713.8	repeat	Run4	repeat/STIM_009.jpg	99
3331.662	0.672	671.9	repeat	Run4	repeat/STIM_010.jpg	100
3336.14	0.52	520.3	repeat	Run4	repeat/STIM_010.jpg	99
3340.259	0.726	726.0	repeat	Run4	repeat/STIM_010.jpg	100
3344.934	0.748	747.9	repeat	Run4	repeat/STIM_010.jpg	99
3348.101	0.844	844.4	repeat	Run4	repeat/STIM_010.jpg	99
3352.368	0.749	749.4	repeat	Run4	repeat/STIM_011.jpg	99
3355.897	0.581	580.7	repeat	Run4	repeat/STIM_011.jpg	100
3359.254	0.637	637.3	repeat	Run4	repeat/STIM_011.jpg	99
3362.99	0.874	873.8	repeat	Run4	repeat/STIM_011.jpg	100
3366.196	0.555	554.7	repeat	Run4	repeat/STIM_011.jpg	100
3370.336	0.618	618.5	repeat	Run4	repeat/STIM_012.jpg	100
3373.292	0.711	711.3	repeat	Run4	repeat/STIM_012.jpg	100
3376.694	0.672	671.7	repeat	Run4	repeat/STIM_012.jpg	100
3381.266	0.782	781.6	repeat	Run4	repeat/STIM_012.jpg	100
3384.813	0.513	513.2	repeat	Run4	repeat/STIM_012.jpg	100
3388.954	0.874	874.4	repeat	Run4	repeat/STIM_013.jpg	100
3393.829	0.687	687.2	repeat	Run4	repeat/STIM_013.jpg	100
3397.304	0.462	461.5	repeat	Run4	repeat/STIM_013.jpg	99
3401.796	0.685	685.2	repeat	Run4	repeat/STIM_013.jpg	100
3406.054	0.575	574.8	repeat	Run4	repeat/STIM_013.jpg	99
3408.852	0.847	847.4	repeat	Run4	repeat/STIM_014.jpg	99
3412.35	0.505	505.0	repeat	Run4	repeat/STIM_014.jpg	99
3416.798	0.905	905.1	repeat	Run4	repeat/STIM_014.jpg	99
3420.105	0.505	505.4	repeat	Run4	repeat/STIM_014.jpg	99
3423.064	0.563	563.2	repeat	Run4	repeat/STIM_014.jpg	99
