onset	duration	response_time_ms	trial_type	learning_stage	stimulus	response_port
0.0	1.438	1437.7	regulate	Run1	regulate/STIM_000.jpg	100
4.57	1.408	1407.6	regulate	Run1	regulate/STIM_000.jpg	100
8.304	1.504	1504.3	regulate	Run1	regulate/STIM_000.jpg	100
13.248	2.745	2745.2	regulate	Run1	regulate/STIM_000.jpg	100
18.652	1.754	1753.6	regulate	Run1	regulate/STIM_001.jpg	99
23.955	2.666	2665.9	regulate	Run1	regulate/STIM_001.jpg	100
29.386	1.547	1547.3	regulate	Run1	regulate/STIM_001.jpg	100
33.783	2.016	2016.4	regulate	Run1	regulate/STIM_001.jpg	99
37.872	3.007	3007.4	regulate	Run1	regulate/STIM_002.jpg	100
43.851	2.479	2478.9	regulate	Run1	regulate/STIM_002.jpg	100
48.697	1.338	1338.3	regulate	Run1	regulate/STIM_002.jpg	99
52.871	2.254	2254.1	regulate	Run1	regulate/STIM_002.jpg	99
58.543	3.142	3142.1	regulate	Run1	regulate/STIM_003.jpg	99
65.417	1.529	1529.1	regulate	Run1	regulate/STIM_003.jpg	99
69.859	1.441	1440.7	regulate	Run1	regulate/STIM_003.jpg	99
74.951	2.057	2057.2	regulate	Run1	regulate/STIM_003.jpg	99
80.628	2.917	2916.9	regulate	Run1	regulate/STIM_004.jpg	100
87.203	1.599	1599.3	regulate	Run1	regulate/STIM_004.jpg	100
92.35	1.868	1867.9	regulate	Run1	regulate/STIM_004.jpg	100
97.235	1.519	1519.3	regulate	Run1	regulate/STIM_004.jpg	99
102.317	2.865	2864.6	regulate	Run1	regulate/STIM_005.jpg	100
107.801	2.678	2677.6	regulate	Run1	regulate/STIM_005.jpg	99
112.904	2.033	2032.6	regulate	Run1	regulate/STIM_005.jpg	100
116.982	2.546	2545.8	regulate	Run1	regulate/STIM_005.jpg	100
122.879	2.241	2240.6	regulate	Run1	regulate/STIM_006.jpg	99
128.695	1.54	1539.8	regulate	Run1	regulate/STIM_006.jpg	99
133.268	2.708	2708.0	regulate	Run1	regulate/STIM_006.jpg	99
138.68	1.695	1694.6	regulate	Run1	regulate/STIM_006.jpg	100
142.824	2.384	2383.6	regulate	Run1	regulate/STIM_007.jpg	99
147.945	2.34	2340.5	regulate	Run1	regulate/STIM_007.jpg	99
153.853	1.618	1617.6	regulate	Run1	regulate/STIM_007.jpg	100
157.876	1.92	1920.5	regulate	Run1	regulate/STIM_007.jpg	100
163.438	1.661	1661.3	regulate	Run1	regulate/STIM_008.jpg	100
168.132	2.722	2721.9	regulate	Run1	regulate/STIM_008.jpg	100
173.069	2.196	2196.5	regulate	Run1	regulate/STIM_008.jpg	100
177.949	2.301	2300.9	regulate	Run1	regulate/STIM_008.jpg	100
182.765	2.726	2726.0	regulate	Run1	regulate/STIM_009.jpg	99
188.653	1.463	1463.3	regulate	Run1	regulate/STIM_009.jpg	99
192.85	2.342	2342.1	regulate	Run1	regulate/STIM_009.jpg	100
198.263	2.204	2203.6	regulate	Run1	regulate/STIM_009.jpg	99
203.295	1.623	1623.3	regulate	Run1	regulate/STIM_010.jpg	99
207.105	2.194	2194.5	regulate	Run1	regulate/STIM_010.jpg	99
213.156	2.245	2244.8	regulate	Run1	regulate/STIM_010.jpg	100
217.418	1.406	1405.8	regulate	Run1	regulate/STIM_010.jpg	99
222.743	3.161	3160.8	regulate	Run1	regulate/STIM_011.jpg	100
227.968	2.733	2732.7	regulate	Run1	regulate/STIM_011.jpg	99
233.608	2.309	2308.6	regulate	Run1	regulate/STIM_011.jpg	99
239.243	1.459	1458.8	regulate	Run1	regulate/STIM_011.jpg	99
243.068	3.074	3074.2	regulate	Run1	regulate/STIM_012.jpg	99
248.886	2.525	2525.0	regulate	Run1	regulate/STIM_012.jpg	99
254.424	1.57	1570.3	regulate	Run1	regulate/STIM_012.jpg	100
258.116	2.467	2466.9	regulate	Run1	regulate/STIM_012.jpg	99
263.566	1.701	1701.1	regulate	Run1	regulate/STIM_013.jpg	100
269.24	2.562	2562.5	regulate	Run1	regulate/STIM_013.jpg	100
274.715	2.234	2234.5	regulate	Run1	regulate/STIM_013.jpg	99
279.985	2.462	2461.6	regulate	Run1	regulate/STIM_013.jpg	99
284.926	2.454	2453.9	regulate	Run1	regulate/STIM_014.jpg	99
290.009	1.642	1641.5	regulate	Run1	regulate/STIM_014.jpg	100
295.607	1.344	1344.4	regulate	Run1	regulate/STIM_014.jpg	100
300.3	2.518	2518.0	regulate	Run1	regulate/STIM_014.jpg	99
306.215	2.181	2181.0	regulate	Run1	regulate/STIM_015.jpg	99
310.926	1.944	1944.4	regulate	Run1	regulate/STIM_015.jpg	99
316.467	1.924	1924.3	regulate	Run1	regulate/STIM_015.jpg	100
321.215	1.35	1350.0	regulate	Run1	regulate/STIM_015.jpg	100
325.737	3.196	3195.8	regulate	Run1	regulate/STIM_016.jpg	99
332.19	1.895	1895.4	regulate	Run1	regulate/STIM_016.jpg	99
336.93	2.02	2019.9	regulate	Run1	regulate/STIM_016.jpg	100
341.555	2.208	2208.2	regulate	Run1	regulate/STIM_016.jpg	100
346.865	2.638	2638.1	regulate	Run1	regulate/STIM_017.jpg	99
352.002	2.576	2575.8	regulate	Run1	regulate/STIM_017.jpg	100
356.702	1.468	1468.3	regulate	Run1	regulate/STIM_017.jpg	99
361.973	2.696	2696.1	regulate	Run1	regulate/STIM_017.jpg	100
367.832	3.137	3137.3	regulate	Run1	regulate/STIM_018.jpg	100
373.342	2.603	2603.2	regulate	Run1	regulate/STIM_018.jpg	99
379.868	1.861	1860.6	regulate	Run1	regulate/STIM_018.jpg	99
385.172	2.417	2416.8	regulate	Run1	regulate/STIM_018.jpg	99
391.462	1.723	1723.3	regulate	Run1	regulate/STIM_019.jpg	99
395.564	1.771	1770.8	regulate	Run1	regulate/STIM_019.jpg	100
401.297	1.495	1494.7	regulate	Run1	regulate/STIM_019.jpg	100
405.779	1.273	1273.0	regulate	Run1	regulate/STIM_019.jpg	100
411.013	1.757	1756.7	regulate	Run1	regulate/STIM_020.jpg	99
415.066	1.759	1759.3	regulate	Run1	regulate/STIM_020.jpg	99
419.074	1.541	1540.7	regulate	Run1	regulate/STIM_020.jpg	99
422.679	1.94	1940.2	regulate	Run1	regulate/STIM_020.jpg	99
427.912	2.12	2119.7	regulate	Run1	regulate/STIM_021.jpg	100
432.04	2.736	2736.2	regulate	Run1	regulate/STIM_021.jpg	99
438.657	2.746	2745.9	regulate	Run1	regulate/STIM_021.jpg	99
444.146	2.076	2075.8	regulate	Run1	regulate/STIM_021.jpg	100
449.768	2.899	2899.3	regulate	Run1	regulate/STIM_022.jpg	99
455.186	2.982	2982.0	regulate	Run1	regulate/STIM_022.jpg	100
460.368	2.73	2729.7	regulate	Run1	regulate/STIM_022.jpg	100
465.213	2.629	2629.3	regulate	Run1	regulate/STIM_022.jpg	99
471.413	3.067	3066.7	regulate	Run1	regulate/STIM_023.jpg	99
477.251	1.432	1431.6	regulate	Run1	regulate/STIM_023.jpg	99
480.748	2.102	2101.9	regulate	Run1	regulate/STIM_023.jpg	100
485.753	2.12	2119.7	regulate	Run1	regulate/STIM_023.jpg	99
491.079	2.323	2323.3	regulate	Run1	regulate/STIM_024.jpg	100
495.741	2.726	2726.0	regulate	Run1	regulate/STIM_024.jpg	100
501.389	1.634	1634.2	regulate	Run1	regulate/STIM_024.jpg	99
505.945	2.02	2019.8	regulate	Run1	regulate/STIM_024.jpg	100
510.972	2.856	2856.3	regulate	Run1	regulate/STIM_025.jpg	100
517.364	2.587	2586.9	regulate	Run1	regulate/STIM_025.jpg	99
521.954	1.883	1883.4	regulate	Run1	regulate/STIM_025.jpg	100
526.092	2.084	2083.6	regulate	Run1	regulate/STIM_025.jpg	100
531.297	1.477	1476.9	regulate	Run1	regulate/STIM_026.jpg	100
536.506	2.533	2533.2	regulate	Run1	regulate/STIM_026.jpg	100
541.777	1.915	1914.6	regulate	Run1	regulate/STIM_026.jpg	99
546.29	2.669	2668.9	regulate	Run1	regulate/STIM_026.jpg	99
552.322	1.53	1530.3	regulate	Run1	regulate/STIM_027.jpg	100
557.26	1.415	1414.7	regulate	Run1	regulate/STIM_027.jpg	99
561.521	2.763	2762.9	regulate	Run1	regulate/STIM_027.jpg	99
566.661	1.191	1191.0	regulate	Run1	regulate/STIM_027.jpg	99
571.407	2.39	2389.5	regulate	Run1	regulate/STIM_028.jpg	100
575.915	2.062	2062.2	regulate	Run1	regulate/STIM_028.jpg	99
581.767	1.744	1743.9	regulate	Run1	regulate/STIM_028.jpg	100
586.643	2.024	2024.4	regulate	Run1	regulate/STIM_028.jpg	100
591.672	1.511	1510.8	regulate	Run1	regulate/STIM_029.jpg	99
596.82	2.955	2955.3	regulate	Run1	regulate/STIM_029.jpg	100
602.305	2.741	2741.0	regulate	Run1	regulate/STIM_029.jpg	99
608.496	2.59	2589.8	regulate	Run1	regulate/STIM_029.jpg	99
614.222	0.943	942.9	observe	Run1	observe/STIM_000.jpg	99
618.947	1.342	1342.1	observe	Run1	observe/STIM_000.jpg	99
623.165	1.046	1046.0	observe	Run1	observe/STIM_000.jpg	100
626.584	1.143	1143.2	observe	Run1	observe/STIM_000.jpg	100
630.206	0.747	747.4	observe	Run1	observe/STIM_001.jpg	99
634.758	0.945	944.7	observe	Run1	observe/STIM_001.jpg	99
639.423	1.256	1255.9	observe	Run1	observe/STIM_001.jpg	100
643.252	1.446	1445.6	observe	Run1	observe/STIM_001.jpg	99
647.346	0.925	924.9	observe	Run1	observe/STIM_002.jpg	99
651.821	1.255	1254.8	observe	Run1	observe/STIM_002.jpg	99
655.422	1.041	1041.4	observe	Run1	observe/STIM_002.jpg	99
659.201	1.441	1440.9	observe	Run1	observe/STIM_002.jpg	100
664.635	1.009	1009.3	observe	Run1	observe/STIM_003.jpg	99
668.392	1.115	1114.7	observe	Run1	observe/STIM_003.jpg	99
672.436	1.234	1233.7	observe	Run1	observe/STIM_003.jpg	99
676.222	0.763	763.2	observe	Run1	observe/STIM_003.jpg	100
679.916	1.174	1174.3	observe	Run1	observe/STIM_004.jpg	100
684.314	0.934	933.9	observe	Run1	observe/STIM_004.jpg	99
688.675	1.036	1036.0	observe	Run1	observe/STIM_004.jpg	99
691.947	1.248	1247.9	observe	Run1	observe/STIM_004.jpg	99
697.179	1.167	1166.9	observe	Run1	observe/STIM_005.jpg	99
701.508	1.429	1428.7	observe	Run1	observe/STIM_005.jpg	100
705.009	1.025	1025.2	observe	Run1	observe/STIM_005.jpg	99
709.821	0.976	976.5	observe	Run1	observe/STIM_005.jpg	100
713.859	1.307	1306.8	observe	Run1	observe/STIM_006.jpg	100
718.981	1.424	1424.0	observe	Run1	observe/STIM_006.jpg	99
722.881	1.236	1236.2	observe	Run1	observe/STIM_006.jpg	99
727.646	1.464	1463.9	observe	Run1	observe/STIM_006.jpg	99
731.131	0.795	795.4	observe	Run1	observe/STIM_007.jpg	99
734.47	0.749	749.1	observe	Run1	observe/STIM_007.jpg	99
737.762	0.756	756.2	observe	Run1	observe/STIM_007.jpg	99
742.196	1.251	1250.8	observe	Run1	observe/STIM_007.jpg	100
746.802	1.15	1149.5	observe	Run1	observe/STIM_008.jpg	99
751.53	1.068	1068.2	observe	Run1	observe/STIM_008.jpg	100
755.331	1.256	1256.4	observe	Run1	observe/STIM_008.jpg	100
759.009	1.46	1460.0	observe	Run1	observe/STIM_008.jpg	99
763.633	1.204	1203.8	observe	Run1	observe/STIM_009.jpg	100
768.046	1.16	1159.5	observe	Run1	observe/STIM_009.jpg	99
772.54	0.965	964.6	observe	Run1	observe/STIM_009.jpg	100
776.624	1.396	1396.1	observe	Run1	observe/STIM_009.jpg	100
781.592	0.918	917.9	observe	Run1	observe/STIM_010.jpg	100
784.621	1.328	1327.7	observe	Run1	observe/STIM_010.jpg	100
788.207	0.818	818.5	observe	Run1	observe/STIM_010.jpg	100
791.667	1.447	1446.9	observe	Run1	observe/STIM_010.jpg	100
796.949	1.055	1054.6	observe	Run1	observe/STIM_011.jpg	99
800.081	1.238	1238.5	observe	Run1	observe/STIM_011.jpg	100
804.84	0.888	887.7	observe	Run1	observe/STIM_011.jpg	99
808.189	0.978	978.1	observe	Run1	observe/STIM_011.jpg	100
813.161	1.069	1068.9	observe	Run1	observe/STIM_012.jpg	100
816.558	0.794	794.1	observe	Run1	observe/STIM_012.jpg	100
821.117	0.891	891.4	observe	Run1	observe/STIM_012.jpg	100
825.468	1.184	1184.4	observe	Run1	observe/STIM_012.jpg	100
830.604	1.007	1006.6	observe	Run1	observe/STIM_013.jpg	99
834.701	0.92	920.1	observe	Run1	observe/STIM_013.jpg	100
838.506	1.161	1161.4	observe	Run1	observe/STIM_013.jpg	99
843.443	1.266	1266.2	observe	Run1	observe/STIM_013.jpg	100
847.858	1.441	1441.3	observe	Run1	observe/STIM_014.jpg	100
852.742	1.017	1016.7	observe	Run1	observe/STIM_014.jpg	99
855.793	0.739	739.3	observe	Run1	observe/STIM_014.jpg	99
858.839	0.871	870.8	observe	Run1	observe/STIM_014.jpg	100
862.671	1.228	1228.4	observe	Run1	observe/STIM_015.jpg	99
867.156	1.011	1010.8	observe	Run1	observe/STIM_015.jpg	100
871.241	0.898	898.0	observe	Run1	observe/STIM_015.jpg	100
875.576	1.186	1185.8	observe	Run1	observe/STIM_015.jpg	100
879.697	1.06	1059.6	observe	Run1	observe/STIM_016.jpg	100
882.802	1.473	1473.1	observe	Run1	observe/STIM_016.jpg	99
887.646	1.249	1248.6	observe	Run1	observe/STIM_016.jpg	99
892.352	1.267	1266.8	observe	Run1	observe/STIM_016.jpg	100
897.017	1.076	1075.9	observe	Run1	observe/STIM_017.jpg	99
901.004	1.36	1359.5	observe	Run1	observe/STIM_017.jpg	99
904.89	1.459	1459.4	observe	Run1	observe/STIM_017.jpg	100
909.011	1.282	1281.5	observe	Run1	observe/STIM_017.jpg	99
912.811	1.064	1064.3	observe	Run1	observe/STIM_018.jpg	100
916.025	0.941	940.9	observe	Run1	observe/STIM_018.jpg	99
920.805	1.1	1099.7	observe	Run1	observe/STIM_018.jpg	99
924.315	0.89	890.4	observe	Run1	observe/STIM_018.jpg	100
927.805	1.068	1068.0	observe	Run1	observe/STIM_019.jpg	99
931.842	1.47	1469.9	observe	Run1	observe/STIM_019.jpg	100
937.296	1.429	1429.2	observe	Run1	observe/STIM_019.jpg	99
941.682	1.368	1368.2	observe	Run1	observe/STIM_019.jpg	99
946.62	2.364	2363.5	regulate	Run2	regulate/STIM_000.jpg	99
952.249	2.367	2367.1	regulate	Run2	regulate/STIM_000.jpg	99
958.015	1.771	1770.7	regulate	Run2	regulate/STIM_000.jpg	99
962.404	2.227	2226.8	regulate	Run2	regulate/STIM_000.jpg	99
966.743	2.162	2162.2	regulate	Run2	regulate/STIM_001.jpg	99
971.786	2.541	2541.0	regulate	Run2	regulate/STIM_001.jpg	99
976.948	2.05	2049.5	regulate	Run2	regulate/STIM_001.jpg	99
981.326	1.884	1884.0	regulate	Run2	regulate/STIM_001.jpg	100
986.681	2.339	2338.6	regulate	Run2	regulate/STIM_002.jpg	99
991.245	1.445	1444.8	regulate	Run2	regulate/STIM_002.jpg	100
994.885	2.112	2111.5	regulate	Run2	regulate/STIM_002.jpg	99
999.239	1.71	1710.2	regulate	Run2	regulate/STIM_002.jpg	99
1004.018	1.191	1191.3	regulate	Run2	regulate/STIM_003.jpg	99
1008.403	2.281	2281.1	regulate	Run2	regulate/STIM_003.jpg	100
1013.796	1.919	1918.7	regulate	Run2	regulate/STIM_003.jpg	99
1018.554	2.031	2031.2	regulate	Run2	regulate/STIM_003.jpg	99
1023.058	1.79	1789.6	regulate	Run2	regulate/STIM_004.jpg	99
1028.679	2.451	2451.4	regulate	Run2	regulate/STIM_004.jpg	100
1034.163	1.397	1397.0	regulate	Run2	regulate/STIM_004.jpg	100
1038.197	1.826	1825.7	regulate	Run2	regulate/STIM_004.jpg	100
1042.276	1.357	1356.8	regulate	Run2	regulate/STIM_005.jpg	100
1046.984	2.476	2476.0	regulate	Run2	regulate/STIM_005.jpg	99
1052.18	1.968	1967.6	regulate	Run2	regulate/STIM_005.jpg	99
1057.298	2.175	2175.4	regulate	Run2	regulate/STIM_005.jpg	100
1062.506	1.469	1468.6	regulate	Run2	regulate/STIM_006.jpg	100
1066.002	2.229	2228.6	regulate	Run2	regulate/STIM_006.jpg	100
1070.809	1.809	1809.2	regulate	Run2	regulate/STIM_006.jpg	99
1075.711	2.2	2200.2	regulate	Run2	regulate/STIM_006.jpg	99
1080.471	1.842	1842.0	regulate	Run2	regulate/STIM_007.jpg	99
1084.442	2.043	2043.3	regulate	Run2	regulate/STIM_007.jpg	99
1089.902	1.45	1450.3	regulate	Run2	regulate/STIM_007.jpg	100
1094.55	1.302	1302.1	regulate	Run2	regulate/STIM_007.jpg	99
1099.232	2.303	2302.7	regulate	Run2	regulate/STIM_008.jpg	100
1103.64	1.576	1575.5	regulate	Run2	regulate/STIM_008.jpg	100
1108.098	1.502	1502.2	regulate	Run2	regulate/STIM_008.jpg	99
1111.707	1.757	1756.7	regulate	Run2	regulate/STIM_008.jpg	99
1116.09	1.302	1302.1	regulate	Run2	regulate/STIM_009.jpg	100
1119.771	2.213	2212.8	regulate	Run2	regulate/STIM_009.jpg	100
1124.198	1.405	1404.9	regulate	Run2	regulate/STIM_009.jpg	99
1128.649	1.085	1085.2	regulate	Run2	regulate/STIM_009.jpg	100
1133.438	1.816	1815.9	regulate	Run2	regulate/STIM_010.jpg	99
1138.195	1.314	1313.7	regulate	Run2	regulate/STIM_010.jpg	99
1141.811	2.08	2079.9	regulate	Run2	regulate/STIM_010.jpg	100
1146.789	1.106	1105.9	regulate	Run2	regulate/STIM_010.jpg	100
1150.303	2.463	2463.1	regulate	Run2	regulate/STIM_011.jpg	100
1156.74	1.459	1459.3	regulate	Run2	regulate/STIM_011.jpg	99
1161.734	2.123	2123.1	regulate	Run2	regulate/STIM_011.jpg	99
1167.803	1.424	1424.5	regulate	Run2	regulate/STIM_011.jpg	100
1173.192	2.075	2075.4	regulate	Run2	regulate/STIM_012.jpg	100
1177.341	2.075	2074.8	regulate	Run2	regulate/STIM_012.jpg	100
1182.64	2.203	2203.0	regulate	Run2	regulate/STIM_012.jpg	99
1188.008	0.978	978.0	regulate	Run2	regulate/STIM_012.jpg	99
1191.818	2.059	2058.8	regulate	Run2	regulate/STIM_013.jpg	99
1195.971	2.536	2536.2	regulate	Run2	regulate/STIM_013.jpg	100
1200.845	1.472	1471.8	regulate	Run2	regulate/STIM_013.jpg	99
1206.125	2.117	2117.2	regulate	Run2	regulate/STIM_013.jpg	100
1211.675	1.205	1205.0	regulate	Run2	regulate/STIM_014.jpg	99
1216.044	2.169	2169.1	regulate	Run2	regulate/STIM_014.jpg	99
1221.714	1.986	1986.4	regulate	Run2	regulate/STIM_014.jpg	100
1225.703	1.04	1040.3	regulate	Run2	regulate/STIM_014.jpg	100
1229.439	2.128	2127.8	regulate	Run2	regulate/STIM_015.jpg	99
1234.713	2.518	2518.4	regulate	Run2	regulate/STIM_015.jpg	100
1239.841	2.054	2053.8	regulate	Run2	regulate/STIM_015.jpg	99
1243.999	1.716	1715.9	regulate	Run2	regulate/STIM_015.jpg	99
1249.398	1.289	1288.9	regulate	Run2	regulate/STIM_016.jpg	100
1252.776	1.593	1593.0	regulate	Run2	regulate/STIM_016.jpg	99
1256.856	1.98	1980.3	regulate	Run2	regulate/STIM_016.jpg	100
1262.569	2.154	2154.2	regulate	Run2	regulate/STIM_016.jpg	99
1268.559	2.249	2248.6	regulate	Run2	regulate/STIM_017.jpg	100
1273.923	1.913	1912.9	regulate	Run2	regulate/STIM_017.jpg	100
1278.821	1.224	1223.6	regulate	Run2	regulate/STIM_017.jpg	99
1283.126	1.933	1933.4	regulate	Run2	regulate/STIM_017.jpg	99
1287.603	1.896	1896.5	regulate	Run2	regulate/STIM_018.jpg	99
1291.79	1.804	1803.7	regulate	Run2	regulate/STIM_018.jpg	100
1297.341	1.902	1901.7	regulate	Run2	regulate/STIM_018.jpg	99
1302.878	1.715	1714.8	regulate	Run2	regulate/STIM_018.jpg	99
1307.012	1.828	1828.1	regulate	Run2	regulate/STIM_019.jpg	100
1311.067	2.013	2013.1	regulate	Run2	regulate/STIM_019.jpg	99
1315.631	2.236	2235.7	regulate	Run2	regulate/STIM_019.jpg	100
1320.695	1.773	1773.2	regulate	Run2	regulate/STIM_019.jpg	100
1325.055	2.097	2096.9	regulate	Run2	regulate/STIM_020.jpg	100
1329.778	1.876	1876.4	regulate	Run2	regulate/STIM_020.jpg	99
1335.516	1.377	1377.2	regulate	Run2	regulate/STIM_020.jpg	100
1340.468	0.999	999.3	regulate	Run2	regulate/STIM_020.jpg	99
1344.689	2.65	2649.9	regulate	Run2	regulate/STIM_021.jpg	100
1350.658	1.452	1451.9	regulate	Run2	regulate/STIM_021.jpg	99
1354.581	1.829	1829.0	regulate	Run2	regulate/STIM_021.jpg	99
1359.545	1.324	1323.6	regulate	Run2	regulate/STIM_021.jpg	100
1362.909	2.492	2492.5	regulate	Run2	regulate/STIM_022.jpg	99
1368.763	2.313	2313.0	regulate	Run2	regulate/STIM_022.jpg	99
1374.541	1.299	1298.9	regulate	Run2	regulate/STIM_022.jpg	100
1377.915	1.88	1880.4	regulate	Run2	regulate/STIM_022.jpg	100
1382.267	2.61	2609.6	regulate	Run2	regulate/STIM_023.jpg	100
1388.621	1.842	1841.9	regulate	Run2	regulate/STIM_023.jpg	100
1394.086	1.395	1395.1	regulate	Run2	regulate/STIM_023.jpg	100
1398.13	1.662	1661.7	regulate	Run2	regulate/STIM_023.jpg	99
1401.983	2.022	2021.8	regulate	Run2	regulate/STIM_024.jpg	99
1407.768	2.027	2027.0	regulate	Run2	regulate/STIM_024.jpg	100
1413.315	2.002	2002.3	regulate	Run2	regulate/STIM_024.jpg	100
1418.42	1.117	1117.0	regulate	Run2	regulate/STIM_024.jpg	100
1422.886	1.82	1820.4	regulate	Run2	regulate/STIM_025.jpg	99
1428.625	1.351	1350.6	regulate	Run2	regulate/STIM_025.jpg	100
1433.01	1.517	1517.4	regulate	Run2	regulate/STIM_025.jpg	100
1437.304	1.956	1955.9	regulate	Run2	regulate/STIM_025.jpg	100
1442.503	2.604	2604.1	regulate	Run2	regulate/STIM_026.jpg	99
1448.282	2.02	2019.8	regulate	Run2	regulate/STIM_026.jpg	99
1453.866	1.968	1967.8	regulate	Run2	regulate/STIM_026.jpg	99
1458.716	1.873	1873.4	regulate	Run2	regulate/STIM_026.jpg	100
1463.703	1.219	1219.0	regulate	Run2	regulate/STIM_027.jpg	99
1468.231	2.323	2322.8	regulate	Run2	regulate/STIM_027.jpg	100
1472.68	2.381	2381.4	regulate	Run2	regulate/STIM_027.jpg	100
1478.461	1.242	1242.5	regulate	Run2	regulate/STIM_027.jpg	99
1482.59	1.412	1412.1	regulate	Run2	regulate/STIM_028.jpg	99
1487.568	2.027	2026.9	regulate	Run2	regulate/STIM_028.jpg	100
1491.963	1.619	1619.2	regulate	Run2	regulate/STIM_028.jpg	99
1497.153	2.062	2061.8	regulate	Run2	regulate/STIM_028.jpg	100
1501.565	2.272	2271.8	regulate	Run2	regulate/STIM_029.jpg	99
1505.883	2.531	2531.4	regulate	Run2	regulate/STIM_029.jpg	99
1511.542	1.636	1635.8	regulate	Run2	regulate/STIM_029.jpg	100
1517.038	1.576	1575.8	regulate	Run2	regulate/STIM_029.jpg	100
1522.061	1.114	1113.5	observe	Run2	observe/STIM_000.jpg	100
1525.645	0.743	742.7	observe	Run2	observe/STIM_000.jpg	100
1528.66	1.3	1300.1	observe	Run2	observe/STIM_000.jpg	100
1532.677	1.324	1323.6	observe	Run2	observe/STIM_000.jpg	100
1536.738	0.918	917.5	observe	Run2	observe/STIM_001.jpg	99
1539.75	1.016	1016.4	observe	Run2	observe/STIM_001.jpg	100
1544.171	0.78	780.2	observe	Run2	observe/STIM_001.jpg	99
1548.203	0.97	969.5	observe	Run2	observe/STIM_001.jpg	99
1551.519	0.985	985.4	observe	Run2	observe/STIM_002.jpg	99
1556.208	1.362	1362.3	observe	Run2	observe/STIM_002.jpg	100
1560.071	0.85	850.0	observe	Run2	observe/STIM_002.jpg	100
1563.587	1.352	1351.5	observe	Run2	observe/STIM_002.jpg	99
1568.197	0.846	846.5	observe	Run2	observe/STIM_003.jpg	99
1572.994	1.028	1028.1	observe	Run2	observe/STIM_003.jpg	100
1577.95	0.899	898.8	observe	Run2	observe/STIM_003.jpg	100
1582.353	0.763	762.6	observe	Run2	observe/STIM_003.jpg	100
1585.357	1.21	1209.9	observe	Run2	observe/STIM_004.jpg	99
1589.197	0.954	953.8	observe	Run2	observe/STIM_004.jpg	99
1593.487	1.166	1166.4	observe	Run2	observe/STIM_004.jpg	99
1596.954	1.337	1337.2	observe	Run2	observe/STIM_004.jpg	99
1600.549	1.378	1377.8	observe	Run2	observe/STIM_005.jpg	100
1605.291	1.063	1063.2	observe	Run2	observe/STIM_005.jpg	100
1609.33	1.348	1347.7	observe	Run2	observe/STIM_005.jpg	100
1614.079	1.252	1252.0	observe	Run2	observe/STIM_005.jpg	100
1618.632	1.099	1098.8	observe	Run2	observe/STIM_006.jpg	99
1622.828	1.224	1224.5	observe	Run2	observe/STIM_006.jpg	100
1626.607	0.83	829.7	observe	Run2	observe/STIM_006.jpg	100
1630.096	1.46	1460.5	observe	Run2	observe/STIM_006.jpg	100
1634.228	1.365	1365.1	observe	Run2	observe/STIM_007.jpg	100
1639.263	1.331	1330.9	observe	Run2	observe/STIM_007.jpg	100
1642.969	0.831	831.4	observe	Run2	observe/STIM_007.jpg	99
1647.294	0.746	745.8	observe	Run2	observe/STIM_007.jpg	100
1651.324	0.864	864.5	observe	Run2	observe/STIM_008.jpg	99
1654.725	1.047	1046.6	observe	Run2	observe/STIM_008.jpg	99
1658.907	1.464	1463.5	observe	Run2	observe/STIM_008.jpg	100
1664.031	1.185	1185.3	observe	Run2	observe/STIM_008.jpg	100
1668.742	0.915	915.1	observe	Run2	observe/STIM_009.jpg	100
1672.179	1.19	1189.8	observe	Run2	observe/STIM_009.jpg	99
1675.516	1.142	1141.9	observe	Run2	observe/STIM_009.jpg	100
1680.604	1.156	1155.5	observe	Run2	observe/STIM_009.jpg	100
1684.096	1.086	1085.5	observe	Run2	observe/STIM_010.jpg	99
1687.749	1.269	1268.8	observe	Run2	observe/STIM_010.jpg	100
1692.872	1.33	1329.8	observe	Run2	observe/STIM_010.jpg	100
1697.136	0.864	863.7	observe	Run2	observe/STIM_010.jpg	99
1701.361	1.053	1053.4	observe	Run2	observe/STIM_011.jpg	99
1706.36	1.085	1084.8	observe	Run2	observe/STIM_011.jpg	99
1709.748	1.24	1239.9	observe	Run2	observe/STIM_011.jpg	100
1713.861	1.398	1397.8	observe	Run2	observe/STIM_011.jpg	100
1718.994	1.155	1155.0	observe	Run2	observe/STIM_012.jpg	99
1722.852	0.938	937.8	observe	Run2	observe/STIM_012.jpg	100
1727.182	0.821	820.8	observe	Run2	observe/STIM_012.jpg	100
1731.231	1.108	1107.9	observe	Run2	observe/STIM_012.jpg	100
1735.491	1.017	1017.3	observe	Run2	observe/STIM_013.jpg	99
1739.991	0.809	809.2	observe	Run2	observe/STIM_013.jpg	100
1744.713	1.004	1004.4	observe	Run2	observe/STIM_013.jpg	100
1748.913	1.346	1346.2	observe	Run2	observe/STIM_013.jpg	99
1753.448	1.223	1222.7	observe	Run2	observe/STIM_014.jpg	100
1758.222	0.778	777.7	observe	Run2	observe/STIM_014.jpg	99
1761.169	1.092	1092.3	observe	Run2	observe/STIM_014.jpg	99
1765.922	0.808	808.3	observe	Run2	observe/STIM_014.jpg	99
1769.889	0.887	886.6	observe	Run2	observe/STIM_015.jpg	100
1774.761	0.784	783.9	observe	Run2	observe/STIM_015.jpg	99
1777.762	1.246	1246.0	observe	Run2	observe/STIM_015.jpg	100
1782.28	1.474	1474.0	observe	Run2	observe/STIM_015.jpg	100
1787.132	0.77	769.6	observe	Run2	observe/STIM_016.jpg	100
1791.752	1.382	1382.4	observe	Run2	observe/STIM_016.jpg	100
1796.41	1.328	1328.0	observe	Run2	observe/STIM_016.jpg	100
1800.51	0.905	904.6	observe	Run2	observe/STIM_016.jpg	99
1804.113	0.827	826.7	observe	Run2	observe/STIM_017.jpg	99
1807.784	1.062	1062.5	observe	Run2	observe/STIM_017.jpg	99
1810.984	1.097	1097.1	observe	Run2	observe/STIM_017.jpg	100
1814.854	0.814	813.6	observe	Run2	observe/STIM_017.jpg	100
1817.704	0.887	886.8	observe	Run2	observe/STIM_018.jpg	99
1822.288	0.885	884.7	observe	Run2	observe/STIM_018.jpg	99
1826.761	0.82	820.3	observe	Run2	observe/STIM_018.jpg	100
1831.43	1.465	1464.6	observe	Run2	observe/STIM_018.jpg	99
1836.124	0.991	991.2	observe	Run2	observe/STIM_019.jpg	99
1840.812	1.442	1442.5	observe	Run2	observe/STIM_019.jpg	100
1844.705	1.263	1263.2	observe	Run2	observe/STIM_019.jpg	99
1849.229	0.966	965.9	observe	Run2	observe/STIM_019.jpg	100
1853.376	1.254	1253.7	regulate	Run3	regulate/STIM_000.jpg	100
1857.364	1.292	1291.5	regulate	Run3	regulate/STIM_000.jpg	99
1861.979	1.528	1528.4	regulate	Run3	regulate/STIM_000.jpg	99
1866.747	1.768	1768.3	regulate	Run3	regulate/STIM_000.jpg	100
1871.953	1.337	1336.6	regulate	Run3	regulate/STIM_001.jpg	99
1876.396	2.255	2255.4	regulate	Run3	regulate/STIM_001.jpg	99
1882.615	1.873	1872.6	regulate	Run3	regulate/STIM_001.jpg	100
1887.752	1.92	1919.8	regulate	Run3	regulate/STIM_001.jpg	99
1892.069	2.194	2194.3	regulate	Run3	regulate/STIM_002.jpg	99
1897.567	2.214	2214.2	regulate	Run3	regulate/STIM_002.jpg	100
1902.137	1.171	1170.8	regulate	Run3	regulate/STIM_002.jpg	99
1905.524	2.256	2256.2	regulate	Run3	regulate/STIM_002.jpg	99
1911.215	2.063	2063.1	regulate	Run3	regulate/STIM_003.jpg	99
1916.477	1.507	1507.0	regulate	Run3	regulate/STIM_003.jpg	99
1920.346	1.713	1713.2	regulate	Run3	regulate/STIM_003.jpg	100
1925.034	1.882	1882.2	regulate	Run3	regulate/STIM_003.jpg	99
1929.702	1.495	1494.6	regulate	Run3	regulate/STIM_004.jpg	100
1935.079	1.213	1213.1	regulate	Run3	regulate/STIM_004.jpg	99
1940.175	1.577	1577.2	regulate	Run3	regulate/STIM_004.jpg	100
1945.571	2.175	2175.3	regulate	Run3	regulate/STIM_004.jpg	100
1950.05	1.311	1310.9	regulate	Run3	regulate/STIM_005.jpg	100
1955.222	2.16	2159.9	regulate	Run3	regulate/STIM_005.jpg	99
1959.946	2.109	2108.8	regulate	Run3	regulate/STIM_005.jpg	100
1965.787	1.418	1418.5	regulate	Run3	regulate/STIM_005.jpg	100
1969.452	2.226	2225.8	regulate	Run3	regulate/STIM_006.jpg	100
1974.616	1.078	1077.8	regulate	Run3	regulate/STIM_006.jpg	100
1979.384	1.325	1325.4	regulate	Run3	regulate/STIM_006.jpg	100
1984.079	1.636	1635.9	regulate	Run3	regulate/STIM_006.jpg	100
1988.824	1.306	1306.0	regulate	Run3	regulate/STIM_007.jpg	99
1992.202	1.79	1790.3	regulate	Run3	regulate/STIM_007.jpg	100
1996.989	1.461	1460.9	regulate	Run3	regulate/STIM_007.jpg	100
2002.192	1.14	1140.0	regulate	Run3	regulate/STIM_007.jpg	99
2006.75	1.244	1244.3	regulate	Run3	regulate/STIM_008.jpg	100
2010.602	1.417	1417.4	regulate	Run3	regulate/STIM_008.jpg	99
2014.488	1.661	1660.8	regulate	Run3	regulate/STIM_008.jpg	100
2019.787	2.003	2003.3	regulate	Run3	regulate/STIM_008.jpg	100
2025.295	2.133	2133.1	regulate	Run3	regulate/STIM_009.jpg	100
2030.063	1.297	1297.4	regulate	Run3	regulate/STIM_009.jpg	99
2033.687	1.789	1789.2	regulate	Run3	regulate/STIM_009.jpg	100
2038.469	1.411	1411.3	regulate	Run3	regulate/STIM_009.jpg	99
2043.234	1.199	1199.0	regulate	Run3	regulate/STIM_010.jpg	100
2046.899	1.354	1354.1	regulate	Run3	regulate/STIM_010.jpg	99
2050.352	1.569	1569.3	regulate	Run3	regulate/STIM_010.jpg	100
2054.728	1.376	1375.6	regulate	Run3	regulate/STIM_010.jpg	99
2059.912	2.054	2053.9	regulate	Run3	regulate/STIM_011.jpg	99
2064.864	2.018	2018.4	regulate	Run3	regulate/STIM_011.jpg	99
2069.877	1.641	1640.8	regulate	Run3	regulate/STIM_011.jpg	99
2074.243	1.499	1499.4	regulate	Run3	regulate/STIM_011.jpg	100
2078.474	1.341	1340.9	regulate	Run3	regulate/STIM_012.jpg	100
2082.399	1.189	1189.2	regulate	Run3	regulate/STIM_012.jpg	100
2087.119	2.253	2253.0	regulate	Run3	regulate/STIM_012.jpg	99
2092.901	1.181	1181.2	regulate	Run3	regulate/STIM_012.jpg	99
2097.059	1.278	1278.4	regulate	Run3	regulate/STIM_013.jpg	99
2101.132	1.761	1760.7	regulate	Run3	regulate/STIM_013.jpg	100
2104.914	1.958	1958.3	regulate	Run3	regulate/STIM_013.jpg	100
2110.46	1.974	1974.2	regulate	Run3	regulate/STIM_013.jpg	99
2115.384	1.038	1037.5	regulate	Run3	regulate/STIM_014.jpg	100
2119.906	1.007	1007.2	regulate	Run3	regulate/STIM_014.jpg	100
2123.819	1.366	1365.5	regulate	Run3	regulate/STIM_014.jpg	99
2128.389	1.851	1850.6	regulate	Run3	regulate/STIM_014.jpg	100
2132.918	1.68	1679.7	regulate	Run3	regulate/STIM_015.jpg	100
2137.594	1.688	1687.6	regulate	Run3	regulate/STIM_015.jpg	99
2142.396	1.896	1896.0	regulate	Run3	regulate/STIM_015.jpg	100
2146.63	1.858	1857.9	regulate	Run3	regulate/STIM_015.jpg	99
2151.816	1.744	1743.5	regulate	Run3	regulate/STIM_016.jpg	99
2157.112	1.043	1042.8	regulate	Run3	regulate/STIM_016.jpg	99
2160.514	2.214	2213.5	regulate	Run3	regulate/STIM_016.jpg	100
2166.623	2.085	2084.8	regulate	Run3	regulate/STIM_016.jpg	100
2170.718	1.811	1811.4	regulate	Run3	regulate/STIM_017.jpg	100
2175.362	1.454	1453.5	regulate	Run3	regulate/STIM_017.jpg	100
2180.292	1.957	1956.6	regulate	Run3	regulate/STIM_017.jpg	99
2184.999	1.133	1133.3	regulate	Run3	regulate/STIM_017.jpg	99
2188.731	1.382	1382.3	regulate	Run3	regulate/STIM_018.jpg	99
2193.74	1.949	1949.0	regulate	Run3	regulate/STIM_018.jpg	99
2199.281	1.552	1552.3	regulate	Run3	regulate/STIM_018.jpg	100
2204.369	1.952	1952.0	regulate	Run3	regulate/STIM_018.jpg	100
2208.72	1.687	1686.6	regulate	Run3	regulate/STIM_019.jpg	99
2213.485	1.902	1902.5	regulate	Run3	regulate/STIM_019.jpg	100
2218.125	2.004	2004.1	regulate	Run3	regulate/STIM_019.jpg	100
2222.352	1.232	1232.2	regulate	Run3	regulate/STIM_019.jpg	100
2226.075	1.52	1519.9	regulate	Run3	regulate/STIM_020.jpg	100
2230.124	1.082	1082.2	regulate	Run3	regulate/STIM_020.jpg	99
2234.092	1.395	1394.6	regulate	Run3	regulate/STIM_020.jpg	100
2237.687	1.983	1983.3	regulate	Run3	regulate/STIM_020.jpg	100
2243.372	1.23	1230.1	regulate	Run3	regulate/STIM_021.jpg	100
2247.907	1.714	1714.5	regulate	Run3	regulate/STIM_021.jpg	99
2252.369	1.716	1715.5	regulate	Run3	regulate/STIM_021.jpg	100
2256.14	1.572	1572.5	regulate	Run3	regulate/STIM_021.jpg	99
2261.522	1.396	1396.2	regulate	Run3	regulate/STIM_022.jpg	99
2265.451	1.964	1963.5	regulate	Run3	regulate/STIM_022.jpg	100
2270.454	2.207	2207.0	regulate	Run3	regulate/STIM_022.jpg	100
2276.61	1.238	1237.6	regulate	Run3	regulate/STIM_022.jpg	100
2280.529	1.239	1239.4	regulate	Run3	regulate/STIM_023.jpg	99
2285.338	1.491	1490.6	regulate	Run3	regulate/STIM_023.jpg	100
2289.26	1.931	1931.0	regulate	Run3	regulate/STIM_023.jpg	99
2293.308	2.053	2053.3	regulate	Run3	regulate/STIM_023.jpg	99
2297.951	1.522	1521.9	regulate	Run3	regulate/STIM_024.jpg	100
2303.206	1.676	1676.1	regulate	Run3	regulate/STIM_024.jpg	100
2307.752	2.184	2183.5	regulate	Run3	regulate/STIM_024.jpg	99
2313.71	2.205	2204.9	regulate	Run3	regulate/STIM_024.jpg	100
2318.997	1.998	1997.5	regulate	Run3	regulate/STIM_025.jpg	100
2323.717	1.366	1365.7	regulate	Run3	regulate/STIM_025.jpg	100
2327.697	2.039	2039.3	regulate	Run3	regulate/STIM_025.jpg	100
2332.733	1.547	1546.9	regulate	Run3	regulate/STIM_025.jpg	99
2336.869	2.021	2020.6	regulate	Run3	regulate/STIM_026.jpg	100
2341.305	1.724	1724.3	regulate	Run3	regulate/STIM_026.jpg	100
2346.056	2.064	2063.5	regulate	Run3	regulate/STIM_026.jpg	100
2350.829	1.583	1583.2	regulate	Run3	regulate/STIM_026.jpg	99
2354.849	1.107	1106.7	regulate	Run3	regulate/STIM_027.jpg	100
2358.838	1.624	1623.6	regulate	Run3	regulate/STIM_027.jpg	99
2363.442	1.224	1224.4	regulate	Run3	regulate/STIM_027.jpg	99
2367.128	2.201	2201.0	regulate	Run3	regulate/STIM_027.jpg	99
2372.607	1.01	1010.2	regulate	Run3	regulate/STIM_028.jpg	100
2377.275	1.544	1544.0	regulate	Run3	regulate/STIM_028.jpg	99
2382.737	1.725	1724.6	regulate	Run3	regulate/STIM_028.jpg	99
2387.84	1.618	1617.5	regulate	Run3	regulate/STIM_028.jpg	100
2393.014	2.056	2055.9	regulate	Run3	regulate/STIM_029.jpg	99
2397.098	1.24	1240.5	regulate	Run3	regulate/STIM_029.jpg	99
2401.065	2.262	2262.4	regulate	Run3	regulate/STIM_029.jpg	100
2406.748	1.766	1766.1	regulate	Run3	regulate/STIM_029.jpg	100
2411.357	0.772	771.9	observe	Run3	observe/STIM_000.jpg	99
2414.787	1.374	1373.5	observe	Run3	observe/STIM_000.jpg	99
2418.382	0.743	743.1	observe	Run3	observe/STIM_000.jpg	100
2422.008	1.379	1379.3	observe	Run3	observe/STIM_000.jpg	100
2425.453	1.06	1060.0	observe	Run3	observe/STIM_001.jpg	99
2430.272	1.44	1439.9	observe	Run3	observe/STIM_001.jpg	99
2435.436	0.983	982.9	observe	Run3	observe/STIM_001.jpg	100
2438.482	0.848	847.5	observe	Run3	observe/STIM_001.jpg	100
2441.928	1.475	1474.9	observe	Run3	observe/STIM_002.jpg	99
2447.304	1.225	1224.8	observe	Run3	observe/STIM_002.jpg	99
2450.782	1.062	1061.8	observe	Run3	observe/STIM_002.jpg	100
2454.408	0.782	781.6	observe	Run3	observe/STIM_002.jpg	99
2457.505	1.436	1435.5	observe	Run3	observe/STIM_003.jpg	99
2462.869	1.281	1280.6	observe	Run3	observe/STIM_003.jpg	99
2467.346	1.457	1456.9	observe	Run3	observe/STIM_003.jpg	99
2472.51	1.045	1045.2	observe	Run3	observe/STIM_003.jpg	100
2477.015	1.056	1055.9	observe	Run3	observe/STIM_004.jpg	100
2480.46	1.314	1313.9	observe	Run3	observe/STIM_004.jpg	99
2484.369	1.153	1153.3	observe	Run3	observe/STIM_004.jpg	99
2488.52	0.991	990.7	observe	Run3	observe/STIM_004.jpg	99
2491.718	1.308	1308.1	observe	Run3	observe/STIM_005.jpg	100
2495.28	1.168	1167.6	observe	Run3	observe/STIM_005.jpg	99
2499.45	0.989	989.0	observe	Run3	observe/STIM_005.jpg	100
2502.673	1.421	1420.7	observe	Run3	observe/STIM_005.jpg	99
2507.197	1.398	1397.5	observe	Run3	observe/STIM_006.jpg	99
2512.407	1.273	1272.6	observe	Run3	observe/STIM_006.jpg	100
2516.676	1.351	1351.1	observe	Run3	observe/STIM_006.jpg	100
2522.001	1.213	1213.2	observe	Run3	observe/STIM_006.jpg	99
2525.698	1.078	1078.2	observe	Run3	observe/STIM_007.jpg	100
2529.388	1.423	1422.9	observe	Run3	observe/STIM_007.jpg	100
2533.305	0.82	820.1	observe	Run3	observe/STIM_007.jpg	100
2538.069	1.448	1447.6	observe	Run3	observe/STIM_007.jpg	99
2542.008	1.072	1071.6	observe	Run3	observe/STIM_008.jpg	99
2546.356	1.428	1427.5	observe	Run3	observe/STIM_008.jpg	99
2549.921	1.261	1261.1	observe	Run3	observe/STIM_008.jpg	99
2554.934	0.876	875.6	observe	Run3	observe/STIM_008.jpg	100
2558.051	0.878	878.5	observe	Run3	observe/STIM_009.jpg	100
2562.592	1.31	1310.3	observe	Run3	observe/STIM_009.jpg	99
2566.557	1.152	1151.6	observe	Run3	observe/STIM_009.jpg	99
2570.928	1.026	1025.8	observe	Run3	observe/STIM_009.jpg	100
2574.05	0.94	940.5	observe	Run3	observe/STIM_010.jpg	100
2578.511	0.974	974.1	observe	Run3	observe/STIM_010.jpg	100
2581.695	1.36	1360.5	observe	Run3	observe/STIM_010.jpg	100
2586.044	1.475	1474.8	observe	Run3	observe/STIM_010.jpg	99
2590.994	1.158	1157.5	observe	Run3	observe/STIM_011.jpg	99
2594.367	1.058	1058.2	observe	Run3	observe/STIM_011.jpg	100
2599.309	1.243	1242.7	observe	Run3	observe/STIM_011.jpg	100
2602.671	1.463	1463.2	observe	Run3	observe/STIM_011.jpg	100
2608.046	1.418	1418.0	observe	Run3	observe/STIM_012.jpg	100
2613.447	1.035	1035.0	observe	Run3	observe/STIM_012.jpg	100
2618.226	1.328	1327.6	observe	Run3	observe/STIM_012.jpg	100
2621.892	1.102	1101.7	observe	Run3	observe/STIM_012.jpg	100
2625.777	1.043	1042.8	observe	Run3	observe/STIM_013.jpg	99
2629.149	0.784	784.5	observe	Run3	observe/STIM_013.jpg	99
2631.946	0.818	817.6	observe	Run3	observe/STIM_013.jpg	100
2636.611	1.035	1034.6	observe	Run3	observe/STIM_013.jpg	99
2639.943	1.237	1237.2	observe	Run3	observe/STIM_014.jpg	99
2644.476	0.776	775.5	observe	Run3	observe/STIM_014.jpg	99
2647.388	1.345	1345.1	observe	Run3	observe/STIM_014.jpg	99
2652.086	0.893	893.1	observe	Run3	observe/STIM_014.jpg	100
2656.178	1.037	1037.1	observe	Run3	observe/STIM_015.jpg	99
2661.192	0.976	975.5	observe	Run3	observe/STIM_015.jpg	100
2666.054	1.092	1091.8	observe	Run3	observe/STIM_015.jpg	100
2669.684	1.414	1413.5	observe	Run3	observe/STIM_015.jpg	100
2673.952	1.35	1350.4	observe	Run3	observe/STIM_016.jpg	100
2677.346	1.434	1434.4	observe	Run3	observe/STIM_016.jpg	99
2682.029	1.177	1176.8	observe	Run3	observe/STIM_016.jpg	100
2685.697	1.02	1020.1	observe	Run3	observe/STIM_016.jpg	100
2689.984	1.401	1401.4	observe	Run3	observe/STIM_017.jpg	100
2694.976	1.252	1252.1	observe	Run3	observe/STIM_017.jpg	99
2700.203	1.441	1440.7	observe	Run3	observe/STIM_017.jpg	100
2704.497	1.44	1439.7	observe	Run3	observe/STIM_017.jpg	99
2708.433	1.332	1331.7	observe	Run3	observe/STIM_018.jpg	99
2712.266	1.231	1230.7	observe	Run3	observe/STIM_018.jpg	100
2717.268	0.813	813.1	observe	Run3	observe/STIM_018.jpg	100
2721.016	0.963	963.2	observe	Run3	observe/STIM_018.jpg	100
2724.141	0.75	750.5	observe	Run3	observe/STIM_019.jpg	100
2727.231	0.966	965.7	observe	Run3	observe/STIM_019.jpg	99
2732.167	1.244	1244.4	observe	Run3	observe/STIM_019.jpg	100
2736.913	1.153	1153.3	observe	Run3	observe/STIM_019.jpg	99
