onset	duration	accuracy_binary	trial_type	learning_stage	stimulus
0.0	1.438	1	regulate	Run1	regulate/STIM_000.jpg
4.57	1.408	0	regulate	Run1	regulate/STIM_000.jpg
8.304	1.504	0	regulate	Run1	regulate/STIM_000.jpg
13.248	2.745	1	regulate	Run1	regulate/STIM_000.jpg
18.652	1.754	1	regulate	Run1	regulate/STIM_001.jpg
23.955	2.666	1	regulate	Run1	regulate/STIM_001.jpg
29.386	1.547	1	regulate	Run1	regulate/STIM_001.jpg
33.783	2.016	1	regulate	Run1	regulate/STIM_001.jpg
37.872	3.007	1	regulate	Run1	regulate/STIM_002.jpg
43.851	2.479	1	regulate	Run1	regulate/STIM_002.jpg
48.697	1.338	1	regulate	Run1	regulate/STIM_002.jpg
52.871	2.254	1	regulate	Run1	regulate/STIM_002.jpg
58.543	3.142	1	regulate	Run1	regulate/STIM_003.jpg
65.417	1.529	1	regulate	Run1	regulate/STIM_003.jpg
69.859	1.441	1	regulate	Run1	regulate/STIM_003.jpg
74.951	2.057	1	regulate	Run1	regulate/STIM_003.jpg
80.628	2.917	1	regulate	Run1	regulate/STIM_004.jpg
87.203	1.599	1	regulate	Run1	regulate/STIM_004.jpg
92.35	1.868	1	regulate	Run1	regulate/STIM_004.jpg
97.235	1.519	1	regulate	Run1	regulate/STIM_004.jpg
102.317	2.865	1	regulate	Run1	regulate/STIM_005.jpg
107.801	2.678	1	regulate	Run1	regulate/STIM_005.jpg
112.904	2.033	1	regulate	Run1	regulate/STIM_005.jpg
116.982	2.546	1	regulate	Run1	regulate/STIM_005.jpg
122.879	2.241	1	regulate	Run1	regulate/STIM_006.jpg
128.695	1.54	1	regulate	Run1	regulate/STIM_006.jpg
133.268	2.708	1	regulate	Run1	regulate/STIM_006.jpg
138.68	1.695	0	regulate	Run1	regulate/STIM_006.jpg
142.824	2.384	1	regulate	Run1	regulate/STIM_007.jpg
147.945	2.34	1	regulate	Run1	regulate/STIM_007.jpg
153.853	1.618	1	regulate	Run1	regulate/STIM_007.jpg
157.876	1.92	1	regulate	Run1	regulate/STIM_007.jpg
163.438	1.661	1	regulate	Run1	regulate/STIM_008.jpg
168.132	2.722	1	regulate	Run1	regulate/STIM_008.jpg
173.069	2.196	1	regulate	Run1	regulate/STIM_008.jpg
177.949	2.301	0	regulate	Run1	regulate/STIM_008.jpg
182.765	2.726	0	regulate	Run1	regulate/STIM_009.jpg
188.653	1.463	1	regulate	Run1	regulate/STIM_009.jpg
192.85	2.342	1	regulate	Run1	regulate/STIM_009.jpg
198.263	2.204	1	regulate	Run1	regulate/STIM_009.jpg
203.295	1.623	1	regulate	Run1	regulate/STIM_010.jpg
207.105	2.194	1	regulate	Run1	regulate/STIM_010.jpg
213.156	2.245	1	regulate	Run1	regulate/STIM_010.jpg
217.418	1.406	0	regulate	Run1	regulate/STIM_010.jpg
222.743	3.161	1	regulate	Run1	regulate/STIM_011.jpg
227.968	2.733	1	regulate	Run1	regulate/STIM_011.jpg
233.608	2.309	0	regulate	Run1	regulate/STIM_011.jpg
239.243	1.459	1	regulate	Run1	regulate/STIM_011.jpg
243.068	3.074	0	regulate	Run1	regulate/STIM_012.jpg
248.886	2.525	1	regulate	Run1	regulate/STIM_012.jpg
254.424	1.57	1	regulate	Run1	regulate/STIM_012.jpg
258.116	2.467	1	regulate	Run1	regulate/STIM_012.jpg
263.566	1.701	0	regulate	Run1	regulate/STIM_013.jpg
269.24	2.562	1	regulate	Run1	regulate/STIM_013.jpg
274.715	2.234	1	regulate	Run1	regulate/STIM_013.jpg
279.985	2.462	1	regulate	Run1	regulate/STIM_013.jpg
284.926	2.454	1	regulate	Run1	regulate/STIM_014.jpg
290.009	1.642	1	regulate	Run1	regulate/STIM_014.jpg
295.607	1.344	1	regulate	Run1	regulate/STIM_014.jpg
300.3	2.518	1	regulate	Run1	regulate/STIM_014.jpg
306.215	2.181	1	regulate	Run1	regulate/STIM_015.jpg
310.926	1.944	1	regulate	Run1	regulate/STIM_015.jpg
316.467	1.924	1	regulate	Run1	regulate/STIM_015.jpg
321.215	1.35	1	regulate	Run1	regulate/STIM_015.jpg
325.737	3.196	1	regulate	Run1	regulate/STIM_016.jpg
332.19	1.895	1	regulate	Run1	regulate/STIM_016.jpg
336.93	2.02	1	regulate	Run1	regulate/STIM_016.jpg
341.555	2.208	1	regulate	Run1	regulate/STIM_016.jpg
346.865	2.638	1	regulate	Run1	regulate/STIM_017.jpg
352.002	2.576	1	regulate	Run1	regulate/STIM_017.jpg
356.702	1.468	1	regulate	Run1	regulate/STIM_017.jpg
361.973	2.696	1	regulate	Run1	regulate/STIM_017.jpg
367.832	3.137	1	regulate	Run1	regulate/STIM_018.jpg
373.342	2.603	1	regulate	Run1	regulate/STIM_018.jpg
379.868	1.861	1	regulate	Run1	regulate/STIM_018.jpg
385.172	2.417	1	regulate	Run1	regulate/STIM_018.jpg
391.462	1.723	1	regulate	Run1	regulate/STIM_019.jpg
395.564	1.771	1	regulate	Run1	regulate/STIM_019.jpg
401.297	1.495	1	regulate	Run1	regulate/STIM_019.jpg
405.779	1.273	1	regulate	Run1	regulate/STIM_019.jpg
411.013	1.757	1	regulate	Run1	regulate/STIM_020.jpg
415.066	1.759	1	regulate	Run1	regulate/STIM_020.jpg
419.074	1.541	1	regulate	Run1	regulate/STIM_020.jpg
422.679	1.94	0	regulate	Run1	regulate/STIM_020.jpg
427.912	2.12	1	regulate	Run1	regulate/STIM_021.jpg
432.04	2.736	1	regulate	Run1	regulate/STIM_021.jpg
438.657	2.746	1	regulate	Run1	regulate/STIM_021.jpg
444.146	2.076	1	regulate	Run1	regulate/STIM_021.jpg
449.768	2.899	0	regulate	Run1	regulate/STIM_022.jpg
455.186	2.982	1	regulate	Run1	regulate/STIM_022.jpg
460.368	2.73	1	regulate	Run1	regulate/STIM_022.jpg
465.213	2.629	1	regulate	Run1	regulate/STIM_022.jpg
471.413	3.067	1	regulate	Run1	regulate/STIM_023.jpg
477.251	1.432	1	regulate	Run1	regulate/STIM_023.jpg
480.748	2.102	1	regulate	Run1	regulate/STIM_023.jpg
485.753	2.12	1	regulate	Run1	regulate/STIM_023.jpg
491.079	2.323	0	regulate	Run1	regulate/STIM_024.jpg
495.741	2.726	1	regulate	Run1	regulate/STIM_024.jpg
501.389	1.634	1	regulate	Run1	regulate/STIM_024.jpg
505.945	2.02	1	regulate	Run1	regulate/STIM_024.jpg
510.972	2.856	1	regulate	Run1	regulate/STIM_025.jpg
517.364	2.587	1	regulate	Run1	regulate/STIM_025.jpg
521.954	1.883	1	regulate	Run1	regulate/STIM_025.jpg
526.092	2.084	1	regulate	Run1	regulate/STIM_025.jpg
531.297	1.477	1	regulate	Run1	regulate/STIM_026.jpg
536.506	2.533	1	regulate	Run1	regulate/STIM_026.jpg
541.777	1.915	1	regulate	Run1	regulate/STIM_026.jpg
546.29	2.669	1	regulate	Run1	regulate/STIM_026.jpg
552.322	1.53	1	regulate	Run1	regulate/STIM_027.jpg
557.26	1.415	1	regulate	Run1	regulate/STIM_027.jpg
561.521	2.763	1	regulate	Run1	regulate/STIM_027.jpg
566.661	1.191	1	regulate	Run1	regulate/STIM_027.jpg
571.407	2.39	1	regulate	Run1	regulate/STIM_028.jpg
575.915	2.062	1	regulate	Run1	regulate/STIM_028.jpg
581.767	1.744	1	regulate	Run1	regulate/STIM_028.jpg
586.643	2.024	1	regulate	Run1	regulate/STIM_028.jpg
591.672	1.511	1	regulate	Run1	regulate/STIM_029.jpg
596.82	2.955	1	regulate	Run1	regulate/STIM_029.jpg
602.305	2.741	1	regulate	Run1	regulate/STIM_029.jpg
608.496	2.59	1	regulate	Run1	regulate/STIM_029.jpg
614.222	0.943	1	observe	Run1	observe/STIM_000.jpg
618.947	1.342	1	observe	Run1	observe/STIM_000.jpg
623.165	1.046	1	observe	Run1	observe/STIM_000.jpg
626.584	1.143	1	observe	Run1	observe/STIM_000.jpg
630.206	0.747	1	observe	Run1	observe/STIM_001.jpg
634.758	0.945	1	observe	Run1	observe/STIM_001.jpg
639.423	1.256	1	observe	Run1	observe/STIM_001.jpg
643.252	1.446	1	observe	Run1	observe/STIM_001.jpg
647.346	0.925	1	observe	Run1	observe/STIM_002.jpg
651.821	1.255	1	observe	Run1	observe/STIM_002.jpg
655.422	1.041	1	observe	Run1	observe/STIM_002.jpg
659.201	1.441	1	observe	Run1	observe/STIM_002.jpg
664.635	1.009	1	observe	Run1	observe/STIM_003.jpg
668.392	1.115	1	observe	Run1	observe/STIM_003.jpg
672.436	1.234	1	observe	Run1	observe/STIM_003.jpg
676.222	0.763	1	observe	Run1	observe/STIM_003.jpg
679.916	1.174	1	observe	Run1	observe/STIM_004.jpg
684.314	0.934	1	observe	Run1	observe/STIM_004.jpg
688.675	1.036	1	observe	Run1	observe/STIM_004.jpg
691.947	1.248	1	observe	Run1	observe/STIM_004.jpg
697.179	1.167	1	observe	Run1	observe/STIM_005.jpg
701.508	1.429	1	observe	Run1	observe/STIM_005.jpg
705.009	1.025	1	observe	Run1	observe/STIM_005.jpg
709.821	0.976	1	observe	Run1	observe/STIM_005.jpg
713.859	1.307	1	observe	Run1	observe/STIM_006.jpg
718.981	1.424	1	observe	Run1	observe/STIM_006.jpg
722.881	1.236	1	observe	Run1	observe/STIM_006.jpg
727.646	1.464	1	observe	Run1	observe/STIM_006.jpg
731.131	0.795	1	observe	Run1	observe/STIM_007.jpg
734.47	0.749	1	observe	Run1	observe/STIM_007.jpg
737.762	0.756	1	observe	Run1	observe/STIM_007.jpg
742.196	1.251	1	observe	Run1	observe/STIM_007.jpg
746.802	1.15	1	observe	Run1	observe/STIM_008.jpg
751.53	1.068	1	observe	Run1	observe/STIM_008.jpg
755.331	1.256	1	observe	Run1	observe/STIM_008.jpg
759.009	1.46	1	observe	Run1	observe/STIM_008.jpg
763.633	1.204	1	observe	Run1	observe/STIM_009.jpg
768.046	1.16	1	observe	Run1	observe/STIM_009.jpg
772.54	0.965	1	observe	Run1	observe/STIM_009.jpg
776.624	1.396	1	observe	Run1	observe/STIM_009.jpg
781.592	0.918	1	observe	Run1	observe/STIM_010.jpg
784.621	1.328	1	observe	Run1	observe/STIM_010.jpg
788.207	0.818	1	observe	Run1	observe/STIM_010.jpg
791.667	1.447	1	observe	Run1	observe/STIM_010.jpg
796.949	1.055	1	observe	Run1	observe/STIM_011.jpg
800.081	1.238	1	observe	Run1	observe/STIM_011.jpg
804.84	0.888	1	observe	Run1	observe/STIM_011.jpg
808.189	0.978	1	observe	Run1	observe/STIM_011.jpg
813.161	1.069	1	observe	Run1	observe/STIM_012.jpg
816.558	0.794	1	observe	Run1	observe/STIM_012.jpg
821.117	0.891	0	observe	Run1	observe/STIM_012.jpg
825.468	1.184	1	observe	Run1	observe/STIM_012.jpg
830.604	1.007	1	observe	Run1	observe/STIM_013.jpg
834.701	0.92	1	observe	Run1	observe/STIM_013.jpg
838.506	1.161	1	observe	Run1	observe/STIM_013.jpg
843.443	1.266	1	observe	Run1	observe/STIM_013.jpg
847.858	1.441	1	observe	Run1	observe/STIM_014.jpg
852.742	1.017	1	observe	Run1	observe/STIM_014.jpg
855.793	0.739	1	observe	Run1	observe/STIM_014.jpg
858.839	0.871	1	observe	Run1	observe/STIM_014.jpg
862.671	1.228	1	observe	Run1	observe/STIM_015.jpg
867.156	1.011	1	observe	Run1	observe/STIM_015.jpg
871.241	0.898	1	observe	Run1	observe/STIM_015.jpg
875.576	1.186	1	observe	Run1	observe/STIM_015.jpg
879.697	1.06	1	observe	Run1	observe/STIM_016.jpg
882.802	1.473	1	observe	Run1	observe/STIM_016.jpg
887.646	1.249	1	observe	Run1	observe/STIM_016.jpg
892.352	1.267	1	observe	Run1	observe/STIM_016.jpg
897.017	1.076	1	observe	Run1	observe/STIM_017.jpg
901.004	1.36	1	observe	Run1	observe/STIM_017.jpg
904.89	1.459	1	observe	Run1	observe/STIM_017.jpg
909.011	1.282	1	observe	Run1	observe/STIM_017.jpg
912.811	1.064	1	observe	Run1	observe/STIM_018.jpg
916.025	0.941	1	observe	Run1	observe/STIM_018.jpg
920.805	1.1	1	observe	Run1	observe/STIM_018.jpg
924.315	0.89	1	observe	Run1	observe/STIM_018.jpg
927.805	1.068	1	observe	Run1	observe/STIM_019.jpg
931.842	1.47	1	observe	Run1	observe/STIM_019.jpg
937.296	1.429	1	observe	Run1	observe/STIM_019.jpg
941.682	1.368	1	observe	Run1	observe/STIM_019.jpg
946.62	2.364	1	regulate	Run2	regulate/STIM_000.jpg
952.249	2.367	1	regulate	Run2	regulate/STIM_000.jpg
958.015	1.771	1	regulate	Run2	regulate/STIM_000.jpg
962.404	2.227	1	regulate	Run2	regulate/STIM_000.jpg
966.743	2.162	1	regulate	Run2	regulate/STIM_001.jpg
971.786	2.541	1	regulate	Run2	regulate/STIM_001.jpg
976.948	2.05	1	regulate	Run2	regulate/STIM_001.jpg
981.326	1.884	1	regulate	Run2	regulate/STIM_001.jpg
986.681	2.339	1	regulate	Run2	regulate/STIM_002.jpg
991.245	1.445	1	regulate	Run2	regulate/STIM_002.jpg
994.885	2.112	1	regulate	Run2	regulate/STIM_002.jpg
999.239	1.71	0	regulate	Run2	regulate/STIM_002.jpg
1004.018	1.191	1	regulate	Run2	regulate/STIM_003.jpg
1008.403	2.281	1	regulate	Run2	regulate/STIM_003.jpg
1013.796	1.919	1	regulate	Run2	regulate/STIM_003.jpg
1018.554	2.031	0	regulate	Run2	regulate/STIM_003.jpg
1023.058	1.79	1	regulate	Run2	regulate/STIM_004.jpg
1028.679	2.451	1	regulate	Run2	regulate/STIM_004.jpg
1034.163	1.397	1	regulate	Run2	regulate/STIM_004.jpg
1038.197	1.826	1	regulate	Run2	regulate/STIM_004.jpg
1042.276	1.357	1	regulate	Run2	regulate/STIM_005.jpg
1046.984	2.476	1	regulate	Run2	regulate/STIM_005.jpg
1052.18	1.968	1	regulate	Run2	regulate/STIM_005.jpg
1057.298	2.175	1	regulate	Run2	regulate/STIM_005.jpg
1062.506	1.469	1	regulate	Run2	regulate/STIM_006.jpg
1066.002	2.229	1	regulate	Run2	regulate/STIM_006.jpg
1070.809	1.809	1	regulate	Run2	regulate/STIM_006.jpg
1075.711	2.2	1	regulate	Run2	regulate/STIM_006.jpg
1080.471	1.842	1	regulate	Run2	regulate/STIM_007.jpg
1084.442	2.043	1	regulate	Run2	regulate/STIM_007.jpg
1089.902	1.45	1	regulate	Run2	regulate/STIM_007.jpg
1094.55	1.302	1	regulate	Run2	regulate/STIM_007.jpg
1099.232	2.303	1	regulate	Run2	regulate/STIM_008.jpg
1103.64	1.576	1	regulate	Run2	regulate/STIM_008.jpg
1108.098	1.502	1	regulate	Run2	regulate/STIM_008.jpg
1111.707	1.757	1	regulate	Run2	regulate/STIM_008.jpg
1116.09	1.302	1	regulate	Run2	regulate/STIM_009.jpg
1119.771	2.213	1	regulate	Run2	regulate/STIM_009.jpg
1124.198	1.405	1	regulate	Run2	regulate/STIM_009.jpg
1128.649	1.085	1	regulate	Run2	regulate/STIM_009.jpg
1133.438	1.816	1	regulate	Run2	regulate/STIM_010.jpg
1138.195	1.314	1	regulate	Run2	regulate/STIM_010.jpg
1141.811	2.08	1	regulate	Run2	regulate/STIM_010.jpg
1146.789	1.106	1	regulate	Run2	regulate/STIM_010.jpg
1150.303	2.463	1	regulate	Run2	regulate/STIM_011.jpg
1156.74	1.459	1	regulate	Run2	regulate/STIM_011.jpg
1161.734	2.123	1	regulate	Run2	regulate/STIM_011.jpg
1167.803	1.424	1	regulate	Run2	regulate/STIM_011.jpg
1173.192	2.075	1	regulate	Run2	regulate/STIM_012.jpg
1177.341	2.075	1	regulate	Run2	regulate/STIM_012.jpg
1182.64	2.203	1	regulate	Run2	regulate/STIM_012.jpg
1188.008	0.978	1	regulate	Run2	regulate/STIM_012.jpg
1191.818	2.059	1	regulate	Run2	regulate/STIM_013.jpg
1195.971	2.536	1	regulate	Run2	regulate/STIM_013.jpg
1200.845	1.472	1	regulate	Run2	regulate/STIM_013.jpg
1206.125	2.117	1	regulate	Run2	regulate/STIM_013.jpg
1211.675	1.205	1	regulate	Run2	regulate/STIM_014.jpg
1216.044	2.169	1	regulate	Run2	regulate/STIM_014.jpg
1221.714	1.986	1	regulate	Run2	regulate/STIM_014.jpg
1225.703	1.04	1	regulate	Run2	regulate/STIM_014.jpg
1229.439	2.128	1	regulate	Run2	regulate/STIM_015.jpg
1234.713	2.518	1	regulate	Run2	regulate/STIM_015.jpg
1239.841	2.054	1	regulate	Run2	regulate/STIM_015.jpg
1243.999	1.716	1	regulate	Run2	regulate/STIM_015.jpg
1249.398	1.289	1	regulate	Run2	regulate/STIM_016.jpg
1252.776	1.593	1	regulate	Run2	regulate/STIM_016.jpg
1256.856	1.98	1	regulate	Run2	regulate/STIM_016.jpg
1262.569	2.154	1	regulate	Run2	regulate/STIM_016.jpg
1268.559	2.249	1	regulate	Run2	regulate/STIM_017.jpg
1273.923	1.913	1	regulate	Run2	regulate/STIM_017.jpg
1278.821	1.224	1	regulate	Run2	regulate/STIM_017.jpg
1283.126	1.933	1	regulate	Run2	regulate/STIM_017.jpg
1287.603	1.896	1	regulate	Run2	regulate/STIM_018.jpg
1291.79	1.804	1	regulate	Run2	regulate/STIM_018.jpg
1297.341	1.902	1	regulate	Run2	regulate/STIM_018.jpg
1302.878	1.715	1	regulate	Run2	regulate/STIM_018.jpg
1307.012	1.828	1	regulate	Run2	regulate/STIM_019.jpg
1311.067	2.013	1	regulate	Run2	regulate/STIM_019.jpg
1315.631	2.236	1	regulate	Run2	regulate/STIM_019.jpg
1320.695	1.773	1	regulate	Run2	regulate/STIM_019.jpg
1325.055	2.097	1	regulate	Run2	regulate/STIM_020.jpg
1329.778	1.876	1	regulate	Run2	regulate/STIM_020.jpg
1335.516	1.377	0	regulate	Run2	regulate/STIM_020.jpg
1340.468	0.999	1	regulate	Run2	regulate/STIM_020.jpg
1344.689	2.65	1	regulate	Run2	regulate/STIM_021.jpg
1350.658	1.452	1	regulate	Run2	regulate/STIM_021.jpg
1354.581	1.829	1	regulate	Run2	regulate/STIM_021.jpg
1359.545	1.324	1	regulate	Run2	regulate/STIM_021.jpg
1362.909	2.492	1	regulate	Run2	regulate/STIM_022.jpg
1368.763	2.313	1	regulate	Run2	regulate/STIM_022.jpg
1374.541	1.299	1	regulate	Run2	regulate/STIM_022.jpg
1377.915	1.88	1	regulate	Run2	regulate/STIM_022.jpg
1382.267	2.61	1	regulate	Run2	regulate/STIM_023.jpg
1388.621	1.842	1	regulate	Run2	regulate/STIM_023.jpg
1394.086	1.395	1	regulate	Run2	regulate/STIM_023.jpg
1398.13	1.662	1	regulate	Run2	regulate/STIM_023.jpg
1401.983	2.022	1	regulate	Run2	regulate/STIM_024.jpg
1407.768	2.027	1	regulate	Run2	regulate/STIM_024.jpg
1413.315	2.002	1	regulate	Run2	regulate/STIM_024.jpg
1418.42	1.117	1	regulate	Run2	regulate/STIM_024.jpg
1422.886	1.82	1	regulate	Run2	regulate/STIM_025.jpg
1428.625	1.351	1	regulate	Run2	regulate/STIM_025.jpg
1433.01	1.517	1	regulate	Run2	regulate/STIM_025.jpg
1437.304	1.956	1	regulate	Run2	regulate/STIM_025.jpg
1442.503	2.604	1	regulate	Run2	regulate/STIM_026.jpg
1448.282	2.02	1	regulate	Run2	regulate/STIM_026.jpg
1453.866	1.968	1	regulate	Run2	regulate/STIM_026.jpg
1458.716	1.873	1	regulate	Run2	regulate/STIM_026.jpg
1463.703	1.219	0	regulate	Run2	regulate/STIM_027.jpg
1468.231	2.323	1	regulate	Run2	regulate/STIM_027.jpg
1472.68	2.381	1	regulate	Run2	regulate/STIM_027.jpg
1478.461	1.242	1	regulate	Run2	regulate/STIM_027.jpg
1482.59	1.412	1	regulate	Run2	regulate/STIM_028.jpg
1487.568	2.027	1	regulate	Run2	regulate/STIM_028.jpg
1491.963	1.619	1	regulate	Run2	regulate/STIM_028.jpg
1497.153	2.062	1	regulate	Run2	regulate/STIM_028.jpg
1501.565	2.272	1	regulate	Run2	regulate/STIM_029.jpg
1505.883	2.531	1	regulate	Run2	regulate/STIM_029.jpg
1511.542	1.636	1	regulate	Run2	regulate/STIM_029.jpg
1517.038	1.576	1	regulate	Run2	regulate/STIM_029.jpg
1522.061	1.114	1	observe	Run2	observe/STIM_000.jpg
1525.645	0.743	1	observe	Run2	observe/STIM_000.jpg
1528.66	1.3	1	observe	Run2	observe/STIM_000.jpg
1532.677	1.324	1	observe	Run2	observe/STIM_000.jpg
1536.738	0.918	1	observe	Run2	observe/STIM_001.jpg
1539.75	1.016	1	observe	Run2	observe/STIM_001.jpg
1544.171	0.78	1	observe	Run2	observe/STIM_001.jpg
1548.203	0.97	0	observe	Run2	observe/STIM_001.jpg
1551.519	0.985	1	observe	Run2	observe/STIM_002.jpg
1556.208	1.362	1	observe	Run2	observe/STIM_002.jpg
1560.071	0.85	1	observe	Run2	observe/STIM_002.jpg
1563.587	1.352	1	observe	Run2	observe/STIM_002.jpg
1568.197	0.846	1	observe	Run2	observe/STIM_003.jpg
1572.994	1.028	1	observe	Run2	observe/STIM_003.jpg
1577.95	0.899	1	observe	Run2	observe/STIM_003.jpg
1582.353	0.763	1	observe	Run2	observe/STIM_003.jpg
1585.357	1.21	1	observe	Run2	observe/STIM_004.jpg
1589.197	0.954	1	observe	Run2	observe/STIM_004.jpg
1593.487	1.166	1	observe	Run2	observe/STIM_004.jpg
1596.954	1.337	1	observe	Run2	observe/STIM_004.jpg
1600.549	1.378	1	observe	Run2	observe/STIM_005.jpg
1605.291	1.063	1	observe	Run2	observe/STIM_005.jpg
1609.33	1.348	1	observe	Run2	observe/STIM_005.jpg
1614.079	1.252	1	observe	Run2	observe/STIM_005.jpg
1618.632	1.099	1	observe	Run2	observe/STIM_006.jpg
1622.828	1.224	1	observe	Run2	observe/STIM_006.jpg
1626.607	0.83	1	observe	Run2	observe/STIM_006.jpg
1630.096	1.46	1	observe	Run2	observe/STIM_006.jpg
1634.228	1.365	1	observe	Run2	observe/STIM_007.jpg
1639.263	1.331	1	observe	Run2	observe/STIM_007.jpg
1642.969	0.831	1	observe	Run2	observe/STIM_007.jpg
1647.294	0.746	1	observe	Run2	observe/STIM_007.jpg
1651.324	0.864	1	observe	Run2	observe/STIM_008.jpg
1654.725	1.047	1	observe	Run2	observe/STIM_008.jpg
1658.907	1.464	1	observe	Run2	observe/STIM_008.jpg
1664.031	1.185	1	observe	Run2	observe/STIM_008.jpg
1668.742	0.915	1	observe	Run2	observe/STIM_009.jpg
1672.179	1.19	1	observe	Run2	observe/STIM_009.jpg
1675.516	1.142	1	observe	Run2	observe/STIM_009.jpg
1680.604	1.156	1	observe	Run2	observe/STIM_009.jpg
1684.096	1.086	1	observe	Run2	observe/STIM_010.jpg
1687.749	1.269	0	observe	Run2	observe/STIM_010.jpg
1692.872	1.33	1	observe	Run2	observe/STIM_010.jpg
1697.136	0.864	1	observe	Run2	observe/STIM_010.jpg
1701.361	1.053	1	observe	Run2	observe/STIM_011.jpg
1706.36	1.085	1	observe	Run2	observe/STIM_011.jpg
1709.748	1.24	1	observe	Run2	observe/STIM_011.jpg
1713.861	1.398	1	observe	Run2	observe/STIM_011.jpg
1718.994	1.155	1	observe	Run2	observe/STIM_012.jpg
1722.852	0.938	1	observe	Run2	observe/STIM_012.jpg
1727.182	0.821	1	observe	Run2	observe/STIM_012.jpg
1731.231	1.108	1	observe	Run2	observe/STIM_012.jpg
1735.491	1.017	1	observe	Run2	observe/STIM_013.jpg
1739.991	0.809	1	observe	Run2	observe/STIM_013.jpg
1744.713	1.004	1	observe	Run2	observe/STIM_013.jpg
1748.913	1.346	1	observe	Run2	observe/STIM_013.jpg
1753.448	1.223	1	observe	Run2	observe/STIM_014.jpg
1758.222	0.778	1	observe	Run2	observe/STIM_014.jpg
1761.169	1.092	1	observe	Run2	observe/STIM_014.jpg
1765.922	0.808	0	observe	Run2	observe/STIM_014.jpg
1769.889	0.887	1	observe	Run2	observe/STIM_015.jpg
1774.761	0.784	1	observe	Run2	observe/STIM_015.jpg
1777.762	1.246	1	observe	Run2	observe/STIM_015.jpg
1782.28	1.474	1	observe	Run2	observe/STIM_015.jpg
1787.132	0.77	1	observe	Run2	observe/STIM_016.jpg
1791.752	1.382	1	observe	Run2	observe/STIM_016.jpg
1796.41	1.328	1	observe	Run2	observe/STIM_016.jpg
1800.51	0.905	1	observe	Run2	observe/STIM_016.jpg
1804.113	0.827	1	observe	Run2	observe/STIM_017.jpg
1807.784	1.062	1	observe	Run2	observe/STIM_017.jpg
1810.984	1.097	1	observe	Run2	observe/STIM_017.jpg
1814.854	0.814	1	observe	Run2	observe/STIM_017.jpg
1817.704	0.887	1	observe	Run2	observe/STIM_018.jpg
1822.288	0.885	1	observe	Run2	observe/STIM_018.jpg
1826.761	0.82	1	observe	Run2	observe/STIM_018.jpg
1831.43	1.465	1	observe	Run2	observe/STIM_018.jpg
1836.124	0.991	1	observe	Run2	observe/STIM_019.jpg
1840.812	1.442	1	observe	Run2	observe/STIM_019.jpg
1844.705	1.263	1	observe	Run2	observe/STIM_019.jpg
1849.229	0.966	1	observe	Run2	observe/STIM_019.jpg
1853.376	1.254	1	regulate	Run3	regulate/STIM_000.jpg
1857.364	1.292	1	regulate	Run3	regulate/STIM_000.jpg
1861.979	1.528	1	regulate	Run3	regulate/STIM_000.jpg
1866.747	1.768	1	regulate	Run3	regulate/STIM_000.jpg
1871.953	1.337	0	regulate	Run3	regulate/STIM_001.jpg
1876.396	2.255	1	regulate	Run3	regulate/STIM_001.jpg
1882.615	1.873	1	regulate	Run3	regulate/STIM_001.jpg
1887.752	1.92	1	regulate	Run3	regulate/STIM_001.jpg
1892.069	2.194	1	regulate	Run3	regulate/STIM_002.jpg
1897.567	2.214	1	regulate	Run3	regulate/STIM_002.jpg
1902.137	1.171	1	regulate	Run3	regulate/STIM_002.jpg
1905.524	2.256	1	regulate	Run3	regulate/STIM_002.jpg
1911.215	2.063	1	regulate	Run3	regulate/STIM_003.jpg
1916.477	1.507	1	regulate	Run3	regulate/STIM_003.jpg
1920.346	1.713	1	regulate	Run3	regulate/STIM_003.jpg
1925.034	1.882	1	regulate	Run3	regulate/STIM_003.jpg
1929.702	1.495	1	regulate	Run3	regulate/STIM_004.jpg
1935.079	1.213	1	regulate	Run3	regulate/STIM_004.jpg
1940.175	1.577	1	regulate	Run3	regulate/STIM_004.jpg
1945.571	2.175	1	regulate	Run3	regulate/STIM_004.jpg
1950.05	1.311	1	regulate	Run3	regulate/STIM_005.jpg
1955.222	2.16	1	regulate	Run3	regulate/STIM_005.jpg
1959.946	2.109	1	regulate	Run3	regulate/STIM_005.jpg
1965.787	1.418	1	regulate	Run3	regulate/STIM_005.jpg
1969.452	2.226	1	regulate	Run3	regulate/STIM_006.jpg
1974.616	1.078	1	regulate	Run3	regulate/STIM_006.jpg
1979.384	1.325	1	regulate	Run3	regulate/STIM_006.jpg
1984.079	1.636	1	regulate	Run3	regulate/STIM_006.jpg
1988.824	1.306	1	regulate	Run3	regulate/STIM_007.jpg
1992.202	1.79	1	regulate	Run3	regulate/STIM_007.jpg
1996.989	1.461	1	regulate	Run3	regulate/STIM_007.jpg
2002.192	1.14	1	regulate	Run3	regulate/STIM_007.jpg
2006.75	1.244	1	regulate	Run3	regulate/STIM_008.jpg
2010.602	1.417	1	regulate	Run3	regulate/STIM_008.jpg
2014.488	1.661	1	regulate	Run3	regulate/STIM_008.jpg
2019.787	2.003	1	regulate	Run3	regulate/STIM_008.jpg
2025.295	2.133	1	regulate	Run3	regulate/STIM_009.jpg
2030.063	1.297	1	regulate	Run3	regulate/STIM_009.jpg
2033.687	1.789	1	regulate	Run3	regulate/STIM_009.jpg
2038.469	1.411	1	regulate	Run3	regulate/STIM_009.jpg
2043.234	1.199	1	regulate	Run3	regulate/STIM_010.jpg
2046.899	1.354	1	regulate	Run3	regulate/STIM_010.jpg
2050.352	1.569	1	regulate	Run3	regulate/STIM_010.jpg
2054.728	1.376	1	regulate	Run3	regulate/STIM_010.jpg
2059.912	2.054	1	regulate	Run3	regulate/STIM_011.jpg
2064.864	2.018	1	regulate	Run3	regulate/STIM_011.jpg
2069.877	1.641	1	regulate	Run3	regulate/STIM_011.jpg
2074.243	1.499	1	regulate	Run3	regulate/STIM_011.jpg
2078.474	1.341	1	regulate	Run3	regulate/STIM_012.jpg
2082.399	1.189	1	regulate	Run3	regulate/STIM_012.jpg
2087.119	2.253	1	regulate	Run3	regulate/STIM_012.jpg
2092.901	1.181	1	regulate	Run3	regulate/STIM_012.jpg
2097.059	1.278	1	regulate	Run3	regulate/STIM_013.jpg
2101.132	1.761	1	regulate	Run3	regulate/STIM_013.jpg
2104.914	1.958	1	regulate	Run3	regulate/STIM_013.jpg
2110.46	1.974	1	regulate	Run3	regulate/STIM_013.jpg
2115.384	1.038	1	regulate	Run3	regulate/STIM_014.jpg
2119.906	1.007	1	regulate	Run3	regulate/STIM_014.jpg
2123.819	1.366	1	regulate	Run3	regulate/STIM_014.jpg
2128.389	1.851	1	regulate	Run3	regulate/STIM_014.jpg
2132.918	1.68	1	regulate	Run3	regulate/STIM_015.jpg
2137.594	1.688	1	regulate	Run3	regulate/STIM_015.jpg
2142.396	1.896	1	regulate	Run3	regulate/STIM_015.jpg
2146.63	1.858	1	regulate	Run3	regulate/STIM_015.jpg
2151.816	1.744	1	regulate	Run3	regulate/STIM_016.jpg
2157.112	1.043	1	regulate	Run3	regulate/STIM_016.jpg
2160.514	2.214	1	regulate	Run3	regulate/STIM_016.jpg
2166.623	2.085	1	regulate	Run3	regulate/STIM_016.jpg
2170.718	1.811	1	regulate	Run3	regulate/STIM_017.jpg
2175.362	1.454	1	regulate	Run3	regulate/STIM_017.jpg
2180.292	1.957	1	regulate	Run3	regulate/STIM_017.jpg
2184.999	1.133	1	regulate	Run3	regulate/STIM_017.jpg
2188.731	1.382	1	regulate	Run3	regulate/STIM_018.jpg
2193.74	1.949	1	regulate	Run3	regulate/STIM_018.jpg
2199.281	1.552	1	regulate	Run3	regulate/STIM_018.jpg
2204.369	1.952	1	regulate	Run3	regulate/STIM_018.jpg
2208.72	1.687	1	regulate	Run3	regulate/STIM_019.jpg
2213.485	1.902	1	regulate	Run3	regulate/STIM_019.jpg
2218.125	2.004	1	regulate	Run3	regulate/STIM_019.jpg
2222.352	1.232	1	regulate	Run3	regulate/STIM_019.jpg
2226.075	1.52	1	regulate	Run3	regulate/STIM_020.jpg
2230.124	1.082	1	regulate	Run3	regulate/STIM_020.jpg
2234.092	1.395	1	regulate	Run3	regulate/STIM_020.jpg
2237.687	1.983	1	regulate	Run3	regulate/STIM_020.jpg
2243.372	1.23	1	regulate	Run3	regulate/STIM_021.jpg
2247.907	1.714	1	regulate	Run3	regulate/STIM_021.jpg
2252.369	1.716	1	regulate	Run3	regulate/STIM_021.jpg
2256.14	1.572	1	regulate	Run3	regulate/STIM_021.jpg
2261.522	1.396	1	regulate	Run3	regulate/STIM_022.jpg
2265.451	1.964	1	regulate	Run3	regulate/STIM_022.jpg
2270.454	2.207	0	regulate	Run3	regulate/STIM_022.jpg
2276.61	1.238	1	regulate	Run3	regulate/STIM_022.jpg
2280.529	1.239	1	regulate	Run3	regulate/STIM_023.jpg
2285.338	1.491	1	regulate	Run3	regulate/STIM_023.jpg
2289.26	1.931	1	regulate	Run3	regulate/STIM_023.jpg
2293.308	2.053	1	regulate	Run3	regulate/STIM_023.jpg
2297.951	1.522	1	regulate	Run3	regulate/STIM_024.jpg
2303.206	1.676	1	regulate	Run3	regulate/STIM_024.jpg
2307.752	2.184	1	regulate	Run3	regulate/STIM_024.jpg
2313.71	2.205	1	regulate	Run3	regulate/STIM_024.jpg
2318.997	1.998	1	regulate	Run3	regulate/STIM_025.jpg
2323.717	1.366	1	regulate	Run3	regulate/STIM_025.jpg
2327.697	2.039	1	regulate	Run3	regulate/STIM_025.jpg
2332.733	1.547	1	regulate	Run3	regulate/STIM_025.jpg
2336.869	2.021	1	regulate	Run3	regulate/STIM_026.jpg
2341.305	1.724	1	regulate	Run3	regulate/STIM_026.jpg
2346.056	2.064	1	regulate	Run3	regulate/STIM_026.jpg
2350.829	1.583	1	regulate	Run3	regulate/STIM_026.jpg
2354.849	1.107	1	regulate	Run3	regulate/STIM_027.jpg
2358.838	1.624	1	regulate	Run3	regulate/STIM_027.jpg
2363.442	1.224	1	regulate	Run3	regulate/STIM_027.jpg
2367.128	2.201	1	regulate	Run3	regulate/STIM_027.jpg
2372.607	1.01	1	regulate	Run3	regulate/STIM_028.jpg
2377.275	1.544	1	regulate	Run3	regulate/STIM_028.jpg
2382.737	1.725	1	regulate	Run3	regulate/STIM_028.jpg
2387.84	1.618	1	regulate	Run3	regulate/STIM_028.jpg
2393.014	2.056	1	regulate	Run3	regulate/STIM_029.jpg
2397.098	1.24	1	regulate	Run3	regulate/STIM_029.jpg
2401.065	2.262	1	regulate	Run3	regulate/STIM_029.jpg
2406.748	1.766	0	regulate	Run3	regulate/STIM_029.jpg
2411.357	0.772	1	observe	Run3	observe/STIM_000.jpg
2414.787	1.374	1	observe	Run3	observe/STIM_000.jpg
2418.382	0.743	1	observe	Run3	observe/STIM_000.jpg
2422.008	1.379	1	observe	Run3	observe/STIM_000.jpg
2425.453	1.06	1	observe	Run3	observe/STIM_001.jpg
2430.272	1.44	1	observe	Run3	observe/STIM_001.jpg
2435.436	0.983	1	observe	Run3	observe/STIM_001.jpg
2438.482	0.848	1	observe	Run3	observe/STIM_001.jpg
2441.928	1.475	1	observe	Run3	observe/STIM_002.jpg
2447.304	1.225	1	observe	Run3	observe/STIM_002.jpg
2450.782	1.062	1	observe	Run3	observe/STIM_002.jpg
2454.408	0.782	1	observe	Run3	observe/STIM_002.jpg
2457.505	1.436	0	observe	Run3	observe/STIM_003.jpg
2462.869	1.281	1	observe	Run3	observe/STIM_003.jpg
2467.346	1.457	1	observe	Run3	observe/STIM_003.jpg
2472.51	1.045	1	observe	Run3	observe/STIM_003.jpg
2477.015	1.056	1	observe	Run3	observe/STIM_004.jpg
2480.46	1.314	1	observe	Run3	observe/STIM_004.jpg
2484.369	1.153	1	observe	Run3	observe/STIM_004.jpg
2488.52	0.991	1	observe	Run3	observe/STIM_004.jpg
2491.718	1.308	1	observe	Run3	observe/STIM_005.jpg
2495.28	1.168	1	observe	Run3	observe/STIM_005.jpg
2499.45	0.989	1	observe	Run3	observe/STIM_005.jpg
2502.673	1.421	1	observe	Run3	observe/STIM_005.jpg
2507.197	1.398	1	observe	Run3	observe/STIM_006.jpg
2512.407	1.273	1	observe	Run3	observe/STIM_006.jpg
2516.676	1.351	1	observe	Run3	observe/STIM_006.jpg
2522.001	1.213	1	observe	Run3	observe/STIM_006.jpg
2525.698	1.078	1	observe	Run3	observe/STIM_007.jpg
2529.388	1.423	1	observe	Run3	observe/STIM_007.jpg
2533.305	0.82	1	observe	Run3	observe/STIM_007.jpg
2538.069	1.448	1	observe	Run3	observe/STIM_007.jpg
2542.008	1.072	1	observe	Run3	observe/STIM_008.jpg
2546.356	1.428	1	observe	Run3	observe/STIM_008.jpg
2549.921	1.261	1	observe	Run3	observe/STIM_008.jpg
2554.934	0.876	1	observe	Run3	observe/STIM_008.jpg
2558.051	0.878	0	observe	Run3	observe/STIM_009.jpg
2562.592	1.31	1	observe	Run3	observe/STIM_009.jpg
2566.557	1.152	1	observe	Run3	observe/STIM_009.jpg
2570.928	1.026	1	observe	Run3	observe/STIM_009.jpg
2574.05	0.94	1	observe	Run3	observe/STIM_010.jpg
2578.511	0.974	1	observe	Run3	observe/STIM_010.jpg
2581.695	1.36	1	observe	Run3	observe/STIM_010.jpg
2586.044	1.475	1	observe	Run3	observe/STIM_010.jpg
2590.994	1.158	1	observe	Run3	observe/STIM_011.jpg
2594.367	1.058	1	observe	Run3	observe/STIM_011.jpg
2599.309	1.243	1	observe	Run3	observe/STIM_011.jpg
2602.671	1.463	1	observe	Run3	observe/STIM_011.jpg
2608.046	1.418	1	observe	Run3	observe/STIM_012.jpg
2613.447	1.035	1	observe	Run3	observe/STIM_012.jpg
2618.226	1.328	1	observe	Run3	observe/STIM_012.jpg
2621.892	1.102	1	observe	Run3	observe/STIM_012.jpg
2625.777	1.043	1	observe	Run3	observe/STIM_013.jpg
2629.149	0.784	1	observe	Run3	observe/STIM_013.jpg
2631.946	0.818	1	observe	Run3	observe/STIM_013.jpg
2636.611	1.035	1	observe	Run3	observe/STIM_013.jpg
2639.943	1.237	1	observe	Run3	observe/STIM_014.jpg
2644.476	0.776	1	observe	Run3	observe/STIM_014.jpg
2647.388	1.345	0	observe	Run3	observe/STIM_014.jpg
2652.086	0.893	1	observe	Run3	observe/STIM_014.jpg
2656.178	1.037	1	observe	Run3	observe/STIM_015.jpg
2661.192	0.976	1	observe	Run3	observe/STIM_015.jpg
2666.054	1.092	1	observe	Run3	observe/STIM_015.jpg
2669.684	1.414	1	observe	Run3	observe/STIM_015.jpg
2673.952	1.35	1	observe	Run3	observe/STIM_016.jpg
2677.346	1.434	1	observe	Run3	observe/STIM_016.jpg
2682.029	1.177	1	observe	Run3	observe/STIM_016.jpg
2685.697	1.02	1	observe	Run3	observe/STIM_016.jpg
2689.984	1.401	1	observe	Run3	observe/STIM_017.jpg
2694.976	1.252	1	observe	Run3	observe/STIM_017.jpg
2700.203	1.441	1	observe	Run3	observe/STIM_017.jpg
2704.497	1.44	1	observe	Run3	observe/STIM_017.jpg
2708.433	1.332	1	observe	Run3	observe/STIM_018.jpg
2712.266	1.231	1	observe	Run3	observe/STIM_018.jpg
2717.268	0.813	1	observe	Run3	observe/STIM_018.jpg
2721.016	0.963	1	observe	Run3	observe/STIM_018.jpg
2724.141	0.75	1	observe	Run3	observe/STIM_019.jpg
2727.231	0.966	1	observe	Run3	observe/STIM_019.jpg
2732.167	1.244	1	observe	Run3	observe/STIM_019.jpg
2736.913	1.153	1	observe	Run3	observe/STIM_019.jpg
