onset	duration	accuracy	trial_type	learning_stage	stimulus
0.0	2.952	correct	regulate	Run1	regulate/STIM_000.jpg
6.336	1.785	incorrect	regulate	Run1	regulate/STIM_000.jpg
11.823	1.324	incorrect	regulate	Run1	regulate/STIM_000.jpg
15.545	2.585	correct	regulate	Run1	regulate/STIM_000.jpg
21.333	1.41	correct	regulate	Run1	regulate/STIM_001.jpg
25.889	1.942	correct	regulate	Run1	regulate/STIM_001.jpg
31.186	2.25	correct	regulate	Run1	regulate/STIM_001.jpg
36.897	1.294	correct	regulate	Run1	regulate/STIM_001.jpg
41.837	2.368	correct	regulate	Run1	regulate/STIM_002.jpg
47.883	2.637	correct	regulate	Run1	regulate/STIM_002.jpg
53.237	1.252	correct	regulate	Run1	regulate/STIM_002.jpg
57.695	2.494	incorrect	regulate	Run1	regulate/STIM_002.jpg
62.498	3.068	correct	regulate	Run1	regulate/STIM_003.jpg
68.765	2.87	correct	regulate	Run1	regulate/STIM_003.jpg
74.72	1.606	correct	regulate	Run1	regulate/STIM_003.jpg
78.62	2.03	correct	regulate	Run1	regulate/STIM_003.jpg
82.892	1.948	correct	regulate	Run1	regulate/STIM_004.jpg
87.78	2.6	correct	regulate	Run1	regulate/STIM_004.jpg
93.241	1.572	correct	regulate	Run1	regulate/STIM_004.jpg
98.716	1.286	correct	regulate	Run1	regulate/STIM_004.jpg
103.118	2.945	correct	regulate	Run1	regulate/STIM_005.jpg
108.395	2.99	correct	regulate	Run1	regulate/STIM_005.jpg
113.845	1.867	incorrect	regulate	Run1	regulate/STIM_005.jpg
118.988	1.598	correct	regulate	Run1	regulate/STIM_005.jpg
123.721	1.972	incorrect	regulate	Run1	regulate/STIM_006.jpg
129.788	2.316	correct	regulate	Run1	regulate/STIM_006.jpg
134.603	2.69	correct	regulate	Run1	regulate/STIM_006.jpg
140.046	1.234	correct	regulate	Run1	regulate/STIM_006.jpg
144.403	3.007	correct	regulate	Run1	regulate/STIM_007.jpg
151.167	2.335	correct	regulate	Run1	regulate/STIM_007.jpg
157.205	2.201	correct	regulate	Run1	regulate/STIM_007.jpg
162.009	1.922	correct	regulate	Run1	regulate/STIM_007.jpg
167.814	2.197	correct	regulate	Run1	regulate/STIM_008.jpg
173.445	2.568	correct	regulate	Run1	regulate/STIM_008.jpg
179.799	1.83	correct	regulate	Run1	regulate/STIM_008.jpg
184.27	1.546	incorrect	regulate	Run1	regulate/STIM_008.jpg
188.397	1.517	incorrect	regulate	Run1	regulate/STIM_009.jpg
192.986	2.35	incorrect	regulate	Run1	regulate/STIM_009.jpg
198.098	2.184	correct	regulate	Run1	regulate/STIM_009.jpg
203.536	2.581	incorrect	regulate	Run1	regulate/STIM_009.jpg
208.486	1.366	correct	regulate	Run1	regulate/STIM_010.jpg
212.739	1.354	correct	regulate	Run1	regulate/STIM_010.jpg
218.032	1.442	correct	regulate	Run1	regulate/STIM_010.jpg
222.488	2.0	incorrect	regulate	Run1	regulate/STIM_010.jpg
228.085	1.573	correct	regulate	Run1	regulate/STIM_011.jpg
233.169	2.11	correct	regulate	Run1	regulate/STIM_011.jpg
239.192	1.974	incorrect	regulate	Run1	regulate/STIM_011.jpg
244.493	2.02	correct	regulate	Run1	regulate/STIM_011.jpg
250.5	1.676	incorrect	regulate	Run1	regulate/STIM_012.jpg
255.358	2.869	correct	regulate	Run1	regulate/STIM_012.jpg
261.654	2.418	correct	regulate	Run1	regulate/STIM_012.jpg
266.916	1.177	incorrect	regulate	Run1	regulate/STIM_012.jpg
270.636	2.85	incorrect	regulate	Run1	regulate/STIM_013.jpg
276.553	2.781	correct	regulate	Run1	regulate/STIM_013.jpg
282.156	1.744	correct	regulate	Run1	regulate/STIM_013.jpg
287.914	2.252	correct	regulate	Run1	regulate/STIM_013.jpg
292.987	1.568	incorrect	regulate	Run1	regulate/STIM_014.jpg
297.022	2.844	correct	regulate	Run1	regulate/STIM_014.jpg
303.961	1.239	correct	regulate	Run1	regulate/STIM_014.jpg
308.223	2.648	incorrect	regulate	Run1	regulate/STIM_014.jpg
313.875	2.552	correct	regulate	Run1	regulate/STIM_015.jpg
319.448	1.772	correct	regulate	Run1	regulate/STIM_015.jpg
324.131	1.242	incorrect	regulate	Run1	regulate/STIM_015.jpg
329.054	1.801	correct	regulate	Run1	regulate/STIM_015.jpg
334.231	2.889	correct	regulate	Run1	regulate/STIM_016.jpg
340.932	1.918	incorrect	regulate	Run1	regulate/STIM_016.jpg
345.26	2.67	incorrect	regulate	Run1	regulate/STIM_016.jpg
351.961	2.678	correct	regulate	Run1	regulate/STIM_016.jpg
358.358	2.136	correct	regulate	Run1	regulate/STIM_017.jpg
362.829	2.822	correct	regulate	Run1	regulate/STIM_017.jpg
368.665	2.476	correct	regulate	Run1	regulate/STIM_017.jpg
373.754	1.54	correct	regulate	Run1	regulate/STIM_017.jpg
377.687	2.819	correct	regulate	Run1	regulate/STIM_018.jpg
383.206	2.218	correct	regulate	Run1	regulate/STIM_018.jpg
389.205	1.85	incorrect	regulate	Run1	regulate/STIM_018.jpg
393.557	1.518	correct	regulate	Run1	regulate/STIM_018.jpg
397.617	1.994	correct	regulate	Run1	regulate/STIM_019.jpg
402.701	1.821	correct	regulate	Run1	regulate/STIM_019.jpg
407.88	1.625	correct	regulate	Run1	regulate/STIM_019.jpg
412.217	2.255	correct	regulate	Run1	regulate/STIM_019.jpg
417.904	1.38	correct	regulate	Run1	regulate/STIM_020.jpg
423.233	2.357	correct	regulate	Run1	regulate/STIM_020.jpg
429.081	2.414	correct	regulate	Run1	regulate/STIM_020.jpg
434.189	2.172	incorrect	regulate	Run1	regulate/STIM_020.jpg
440.343	2.223	correct	regulate	Run1	regulate/STIM_021.jpg
446.047	2.984	correct	regulate	Run1	regulate/STIM_021.jpg
453.323	2.121	correct	regulate	Run1	regulate/STIM_021.jpg
458.532	1.692	correct	regulate	Run1	regulate/STIM_021.jpg
463.103	1.98	incorrect	regulate	Run1	regulate/STIM_022.jpg
468.397	2.094	correct	regulate	Run1	regulate/STIM_022.jpg
472.878	1.974	correct	regulate	Run1	regulate/STIM_022.jpg
478.551	2.566	correct	regulate	Run1	regulate/STIM_022.jpg
483.675	2.605	correct	regulate	Run1	regulate/STIM_023.jpg
489.659	2.688	incorrect	regulate	Run1	regulate/STIM_023.jpg
494.968	2.702	correct	regulate	Run1	regulate/STIM_023.jpg
500.822	1.492	correct	regulate	Run1	regulate/STIM_023.jpg
506.301	1.721	incorrect	regulate	Run1	regulate/STIM_024.jpg
510.841	1.378	correct	regulate	Run1	regulate/STIM_024.jpg
514.637	2.729	correct	regulate	Run1	regulate/STIM_024.jpg
519.806	1.258	correct	regulate	Run1	regulate/STIM_024.jpg
524.794	1.471	correct	regulate	Run1	regulate/STIM_025.jpg
529.906	1.608	incorrect	regulate	Run1	regulate/STIM_025.jpg
534.807	1.554	correct	regulate	Run1	regulate/STIM_025.jpg
539.733	2.262	correct	regulate	Run1	regulate/STIM_025.jpg
546.095	1.552	correct	regulate	Run1	regulate/STIM_026.jpg
551.559	1.549	correct	regulate	Run1	regulate/STIM_026.jpg
555.545	2.375	incorrect	regulate	Run1	regulate/STIM_026.jpg
561.713	2.136	correct	regulate	Run1	regulate/STIM_026.jpg
566.249	2.535	correct	regulate	Run1	regulate/STIM_027.jpg
571.469	2.832	correct	regulate	Run1	regulate/STIM_027.jpg
577.747	2.739	correct	regulate	Run1	regulate/STIM_027.jpg
583.664	2.371	correct	regulate	Run1	regulate/STIM_027.jpg
588.488	1.401	incorrect	regulate	Run1	regulate/STIM_028.jpg
593.399	1.917	correct	regulate	Run1	regulate/STIM_028.jpg
598.484	1.81	correct	regulate	Run1	regulate/STIM_028.jpg
603.929	2.039	correct	regulate	Run1	regulate/STIM_028.jpg
609.016	2.734	correct	regulate	Run1	regulate/STIM_029.jpg
615.835	2.12	correct	regulate	Run1	regulate/STIM_029.jpg
620.363	2.318	correct	regulate	Run1	regulate/STIM_029.jpg
626.321	1.392	correct	regulate	Run1	regulate/STIM_029.jpg
631.644	0.883	correct	observe	Run1	observe/STIM_000.jpg
635.981	0.84	incorrect	observe	Run1	observe/STIM_000.jpg
639.658	1.199	correct	observe	Run1	observe/STIM_000.jpg
644.523	1.334	correct	observe	Run1	observe/STIM_000.jpg
649.811	1.216	correct	observe	Run1	observe/STIM_001.jpg
653.218	0.969	correct	observe	Run1	observe/STIM_001.jpg
657.943	0.886	correct	observe	Run1	observe/STIM_001.jpg
661.364	0.985	correct	observe	Run1	observe/STIM_001.jpg
665.138	0.966	correct	observe	Run1	observe/STIM_002.jpg
668.537	1.183	correct	observe	Run1	observe/STIM_002.jpg
672.774	0.982	correct	observe	Run1	observe/STIM_002.jpg
677.419	1.442	correct	observe	Run1	observe/STIM_002.jpg
681.953	0.903	correct	observe	Run1	observe/STIM_003.jpg
685.151	1.16	correct	observe	Run1	observe/STIM_003.jpg
690.239	1.007	correct	observe	Run1	observe/STIM_003.jpg
694.134	0.984	correct	observe	Run1	observe/STIM_003.jpg
698.164	1.034	correct	observe	Run1	observe/STIM_004.jpg
702.17	1.106	incorrect	observe	Run1	observe/STIM_004.jpg
705.609	1.12	correct	observe	Run1	observe/STIM_004.jpg
709.721	0.734	correct	observe	Run1	observe/STIM_004.jpg
712.803	1.394	correct	observe	Run1	observe/STIM_005.jpg
717.07	1.059	correct	observe	Run1	observe/STIM_005.jpg
722.045	1.346	correct	observe	Run1	observe/STIM_005.jpg
726.998	1.139	correct	observe	Run1	observe/STIM_005.jpg
731.244	1.051	correct	observe	Run1	observe/STIM_006.jpg
734.867	0.741	correct	observe	Run1	observe/STIM_006.jpg
737.773	0.894	correct	observe	Run1	observe/STIM_006.jpg
742.323	1.401	correct	observe	Run1	observe/STIM_006.jpg
746.367	1.191	correct	observe	Run1	observe/STIM_007.jpg
751.48	1.154	incorrect	observe	Run1	observe/STIM_007.jpg
756.42	1.262	correct	observe	Run1	observe/STIM_007.jpg
760.108	1.349	correct	observe	Run1	observe/STIM_007.jpg
765.534	0.93	correct	observe	Run1	observe/STIM_008.jpg
769.178	0.966	correct	observe	Run1	observe/STIM_008.jpg
772.97	1.283	correct	observe	Run1	observe/STIM_008.jpg
777.126	0.936	correct	observe	Run1	observe/STIM_008.jpg
782.149	0.904	correct	observe	Run1	observe/STIM_009.jpg
785.313	1.017	correct	observe	Run1	observe/STIM_009.jpg
790.049	1.223	correct	observe	Run1	observe/STIM_009.jpg
795.103	0.941	correct	observe	Run1	observe/STIM_009.jpg
799.292	0.962	correct	observe	Run1	observe/STIM_010.jpg
804.345	1.089	correct	observe	Run1	observe/STIM_010.jpg
807.592	0.972	correct	observe	Run1	observe/STIM_010.jpg
811.294	1.403	correct	observe	Run1	observe/STIM_010.jpg
815.776	1.159	correct	observe	Run1	observe/STIM_011.jpg
819.158	0.972	correct	observe	Run1	observe/STIM_011.jpg
824.198	0.968	correct	observe	Run1	observe/STIM_011.jpg
827.325	1.044	incorrect	observe	Run1	observe/STIM_011.jpg
831.981	1.22	correct	observe	Run1	observe/STIM_012.jpg
837.146	1.024	incorrect	observe	Run1	observe/STIM_012.jpg
841.986	0.936	incorrect	observe	Run1	observe/STIM_012.jpg
846.603	1.001	correct	observe	Run1	observe/STIM_012.jpg
851.055	1.02	correct	observe	Run1	observe/STIM_013.jpg
854.257	1.339	correct	observe	Run1	observe/STIM_013.jpg
858.519	1.072	correct	observe	Run1	observe/STIM_013.jpg
863.004	0.731	correct	observe	Run1	observe/STIM_013.jpg
865.928	0.949	correct	observe	Run1	observe/STIM_014.jpg
869.004	1.329	correct	observe	Run1	observe/STIM_014.jpg
872.867	1.026	correct	observe	Run1	observe/STIM_014.jpg
877.416	1.061	correct	observe	Run1	observe/STIM_014.jpg
880.722	1.342	correct	observe	Run1	observe/STIM_015.jpg
884.331	0.758	incorrect	observe	Run1	observe/STIM_015.jpg
887.39	0.878	correct	observe	Run1	observe/STIM_015.jpg
892.055	0.817	incorrect	observe	Run1	observe/STIM_015.jpg
895.979	1.319	correct	observe	Run1	observe/STIM_016.jpg
900.033	1.38	correct	observe	Run1	observe/STIM_016.jpg
905.205	0.984	correct	observe	Run1	observe/STIM_016.jpg
909.349	1.406	correct	observe	Run1	observe/STIM_016.jpg
914.437	1.133	correct	observe	Run1	observe/STIM_017.jpg
918.086	1.422	correct	observe	Run1	observe/STIM_017.jpg
922.751	1.254	correct	observe	Run1	observe/STIM_017.jpg
927.175	0.896	correct	observe	Run1	observe/STIM_017.jpg
932.08	0.955	correct	observe	Run1	observe/STIM_018.jpg
936.009	1.177	correct	observe	Run1	observe/STIM_018.jpg
939.675	1.199	correct	observe	Run1	observe/STIM_018.jpg
943.276	1.032	correct	observe	Run1	observe/STIM_018.jpg
947.955	1.076	correct	observe	Run1	observe/STIM_019.jpg
952.914	1.18	correct	observe	Run1	observe/STIM_019.jpg
958.219	0.755	correct	observe	Run1	observe/STIM_019.jpg
961.655	0.814	correct	observe	Run1	observe/STIM_019.jpg
965.328	2.67	correct	regulate	Run2	regulate/STIM_000.jpg
971.733	1.897	correct	regulate	Run2	regulate/STIM_000.jpg
976.206	2.231	incorrect	regulate	Run2	regulate/STIM_000.jpg
980.945	1.028	correct	regulate	Run2	regulate/STIM_000.jpg
984.272	1.644	correct	regulate	Run2	regulate/STIM_001.jpg
988.419	1.674	incorrect	regulate	Run2	regulate/STIM_001.jpg
994.034	1.21	correct	regulate	Run2	regulate/STIM_001.jpg
998.697	1.188	correct	regulate	Run2	regulate/STIM_001.jpg
1002.559	1.553	correct	regulate	Run2	regulate/STIM_002.jpg
1006.52	1.637	correct	regulate	Run2	regulate/STIM_002.jpg
1010.743	1.697	correct	regulate	Run2	regulate/STIM_002.jpg
1016.484	1.763	incorrect	regulate	Run2	regulate/STIM_002.jpg
1021.425	1.352	correct	regulate	Run2	regulate/STIM_003.jpg
1026.43	2.484	correct	regulate	Run2	regulate/STIM_003.jpg
1032.5	2.205	correct	regulate	Run2	regulate/STIM_003.jpg
1037.457	1.48	incorrect	regulate	Run2	regulate/STIM_003.jpg
1043.095	1.877	correct	regulate	Run2	regulate/STIM_004.jpg
1048.693	2.503	correct	regulate	Run2	regulate/STIM_004.jpg
1053.629	1.904	correct	regulate	Run2	regulate/STIM_004.jpg
1059.162	2.102	correct	regulate	Run2	regulate/STIM_004.jpg
1064.177	2.254	correct	regulate	Run2	regulate/STIM_005.jpg
1069.236	1.121	correct	regulate	Run2	regulate/STIM_005.jpg
1073.56	2.266	correct	regulate	Run2	regulate/STIM_005.jpg
1078.645	1.094	correct	regulate	Run2	regulate/STIM_005.jpg
1082.525	1.593	correct	regulate	Run2	regulate/STIM_006.jpg
1088.107	2.483	correct	regulate	Run2	regulate/STIM_006.jpg
1093.917	1.304	correct	regulate	Run2	regulate/STIM_006.jpg
1097.742	2.088	correct	regulate	Run2	regulate/STIM_006.jpg
1103.037	2.479	correct	regulate	Run2	regulate/STIM_007.jpg
1109.412	1.892	correct	regulate	Run2	regulate/STIM_007.jpg
1114.186	1.378	correct	regulate	Run2	regulate/STIM_007.jpg
1119.666	1.883	correct	regulate	Run2	regulate/STIM_007.jpg
1123.955	2.501	incorrect	regulate	Run2	regulate/STIM_008.jpg
1129.797	1.869	correct	regulate	Run2	regulate/STIM_008.jpg
1135.162	1.986	correct	regulate	Run2	regulate/STIM_008.jpg
1140.521	1.685	correct	regulate	Run2	regulate/STIM_008.jpg
1145.799	2.238	correct	regulate	Run2	regulate/STIM_009.jpg
1152.087	2.13	correct	regulate	Run2	regulate/STIM_009.jpg
1158.133	1.599	correct	regulate	Run2	regulate/STIM_009.jpg
1163.618	1.166	correct	regulate	Run2	regulate/STIM_009.jpg
1168.036	1.284	correct	regulate	Run2	regulate/STIM_010.jpg
1172.207	2.09	incorrect	regulate	Run2	regulate/STIM_010.jpg
1178.252	2.181	correct	regulate	Run2	regulate/STIM_010.jpg
1183.96	2.092	correct	regulate	Run2	regulate/STIM_010.jpg
1188.493	1.456	correct	regulate	Run2	regulate/STIM_011.jpg
1192.494	2.0	correct	regulate	Run2	regulate/STIM_011.jpg
1197.142	1.935	correct	regulate	Run2	regulate/STIM_011.jpg
1203.195	1.595	correct	regulate	Run2	regulate/STIM_011.jpg
1207.085	1.744	incorrect	regulate	Run2	regulate/STIM_012.jpg
1212.352	1.458	correct	regulate	Run2	regulate/STIM_012.jpg
1216.843	1.634	correct	regulate	Run2	regulate/STIM_012.jpg
1220.77	1.299	correct	regulate	Run2	regulate/STIM_012.jpg
1225.554	1.773	incorrect	regulate	Run2	regulate/STIM_013.jpg
1230.897	1.218	correct	regulate	Run2	regulate/STIM_013.jpg
1234.622	2.172	correct	regulate	Run2	regulate/STIM_013.jpg
1240.464	1.99	correct	regulate	Run2	regulate/STIM_013.jpg
1245.007	2.02	incorrect	regulate	Run2	regulate/STIM_014.jpg
1251.173	1.866	correct	regulate	Run2	regulate/STIM_014.jpg
1256.935	1.394	correct	regulate	Run2	regulate/STIM_014.jpg
1261.435	1.811	correct	regulate	Run2	regulate/STIM_014.jpg
1267.327	2.372	correct	regulate	Run2	regulate/STIM_015.jpg
1272.521	1.651	correct	regulate	Run2	regulate/STIM_015.jpg
1277.717	1.287	correct	regulate	Run2	regulate/STIM_015.jpg
1282.572	2.11	correct	regulate	Run2	regulate/STIM_015.jpg
1287.464	2.412	incorrect	regulate	Run2	regulate/STIM_016.jpg
1293.856	1.267	correct	regulate	Run2	regulate/STIM_016.jpg
1298.822	1.702	correct	regulate	Run2	regulate/STIM_016.jpg
1304.431	1.058	correct	regulate	Run2	regulate/STIM_016.jpg
1307.657	1.718	correct	regulate	Run2	regulate/STIM_017.jpg
1311.956	2.126	correct	regulate	Run2	regulate/STIM_017.jpg
1317.572	1.885	correct	regulate	Run2	regulate/STIM_017.jpg
1322.474	1.4	correct	regulate	Run2	regulate/STIM_017.jpg
1327.206	2.249	correct	regulate	Run2	regulate/STIM_018.jpg
1332.831	1.994	correct	regulate	Run2	regulate/STIM_018.jpg
1338.28	1.761	correct	regulate	Run2	regulate/STIM_018.jpg
1342.252	1.076	correct	regulate	Run2	regulate/STIM_018.jpg
1347.422	1.403	correct	regulate	Run2	regulate/STIM_019.jpg
1352.596	2.02	correct	regulate	Run2	regulate/STIM_019.jpg
1357.319	1.273	correct	regulate	Run2	regulate/STIM_019.jpg
1360.977	1.866	correct	regulate	Run2	regulate/STIM_019.jpg
1366.125	2.068	correct	regulate	Run2	regulate/STIM_020.jpg
1370.856	2.188	correct	regulate	Run2	regulate/STIM_020.jpg
1376.9	1.522	incorrect	regulate	Run2	regulate/STIM_020.jpg
1381.032	1.689	correct	regulate	Run2	regulate/STIM_020.jpg
1385.325	1.165	correct	regulate	Run2	regulate/STIM_021.jpg
1390.332	1.845	correct	regulate	Run2	regulate/STIM_021.jpg
1394.721	1.072	correct	regulate	Run2	regulate/STIM_021.jpg
1399.705	1.257	correct	regulate	Run2	regulate/STIM_021.jpg
1404.539	1.74	correct	regulate	Run2	regulate/STIM_022.jpg
1409.779	1.117	correct	regulate	Run2	regulate/STIM_022.jpg
1413.106	1.539	correct	regulate	Run2	regulate/STIM_022.jpg
1416.855	1.136	correct	regulate	Run2	regulate/STIM_022.jpg
1420.873	1.711	incorrect	regulate	Run2	regulate/STIM_023.jpg
1425.58	1.546	correct	regulate	Run2	regulate/STIM_023.jpg
1430.291	1.139	correct	regulate	Run2	regulate/STIM_023.jpg
1434.349	1.038	correct	regulate	Run2	regulate/STIM_023.jpg
1437.847	1.584	correct	regulate	Run2	regulate/STIM_024.jpg
1442.727	2.065	correct	regulate	Run2	regulate/STIM_024.jpg
1447.758	1.835	correct	regulate	Run2	regulate/STIM_024.jpg
1452.858	2.193	correct	regulate	Run2	regulate/STIM_024.jpg
1458.531	2.05	correct	regulate	Run2	regulate/STIM_025.jpg
1463.632	2.268	correct	regulate	Run2	regulate/STIM_025.jpg
1468.95	1.904	correct	regulate	Run2	regulate/STIM_025.jpg
1474.433	0.965	correct	regulate	Run2	regulate/STIM_025.jpg
1479.295	2.223	incorrect	regulate	Run2	regulate/STIM_026.jpg
1484.223	1.739	correct	regulate	Run2	regulate/STIM_026.jpg
1490.149	1.796	correct	regulate	Run2	regulate/STIM_026.jpg
1494.877	1.596	incorrect	regulate	Run2	regulate/STIM_026.jpg
1500.053	1.527	incorrect	regulate	Run2	regulate/STIM_027.jpg
1504.589	1.238	correct	regulate	Run2	regulate/STIM_027.jpg
1509.668	1.81	correct	regulate	Run2	regulate/STIM_027.jpg
1514.169	2.14	correct	regulate	Run2	regulate/STIM_027.jpg
1518.682	1.611	correct	regulate	Run2	regulate/STIM_028.jpg
1523.806	2.109	correct	regulate	Run2	regulate/STIM_028.jpg
1529.316	1.884	correct	regulate	Run2	regulate/STIM_028.jpg
1534.599	2.136	incorrect	regulate	Run2	regulate/STIM_028.jpg
1540.196	1.437	correct	regulate	Run2	regulate/STIM_029.jpg
1545.299	2.19	correct	regulate	Run2	regulate/STIM_029.jpg
1549.858	1.258	incorrect	regulate	Run2	regulate/STIM_029.jpg
1554.767	2.053	correct	regulate	Run2	regulate/STIM_029.jpg
1560.744	0.794	correct	observe	Run2	observe/STIM_000.jpg
1564.872	1.2	correct	observe	Run2	observe/STIM_000.jpg
1569.059	1.289	incorrect	observe	Run2	observe/STIM_000.jpg
1574.225	0.876	correct	observe	Run2	observe/STIM_000.jpg
1577.694	1.409	correct	observe	Run2	observe/STIM_001.jpg
1582.808	1.013	correct	observe	Run2	observe/STIM_001.jpg
1586.367	1.324	correct	observe	Run2	observe/STIM_001.jpg
1590.577	1.358	incorrect	observe	Run2	observe/STIM_001.jpg
1595.326	1.114	correct	observe	Run2	observe/STIM_002.jpg
1600.339	0.782	correct	observe	Run2	observe/STIM_002.jpg
1603.926	1.142	correct	observe	Run2	observe/STIM_002.jpg
1607.478	1.089	correct	observe	Run2	observe/STIM_002.jpg
1611.79	0.868	correct	observe	Run2	observe/STIM_003.jpg
1616.191	0.863	incorrect	observe	Run2	observe/STIM_003.jpg
1621.056	1.175	correct	observe	Run2	observe/STIM_003.jpg
1625.149	0.861	correct	observe	Run2	observe/STIM_003.jpg
1628.584	1.12	correct	observe	Run2	observe/STIM_004.jpg
1633.471	0.905	correct	observe	Run2	observe/STIM_004.jpg
1637.272	1.072	correct	observe	Run2	observe/STIM_004.jpg
1642.035	0.91	correct	observe	Run2	observe/STIM_004.jpg
1646.748	1.318	correct	observe	Run2	observe/STIM_005.jpg
1651.885	1.265	correct	observe	Run2	observe/STIM_005.jpg
1656.714	0.938	correct	observe	Run2	observe/STIM_005.jpg
1661.178	1.409	correct	observe	Run2	observe/STIM_005.jpg
1665.245	1.386	correct	observe	Run2	observe/STIM_006.jpg
1670.048	0.843	correct	observe	Run2	observe/STIM_006.jpg
1674.18	1.362	correct	observe	Run2	observe/STIM_006.jpg
1678.054	0.872	incorrect	observe	Run2	observe/STIM_006.jpg
1682.833	0.859	correct	observe	Run2	observe/STIM_007.jpg
1687.231	1.042	correct	observe	Run2	observe/STIM_007.jpg
1692.15	1.0	correct	observe	Run2	observe/STIM_007.jpg
1696.635	1.164	correct	observe	Run2	observe/STIM_007.jpg
1701.438	1.227	correct	observe	Run2	observe/STIM_008.jpg
1706.203	0.934	correct	observe	Run2	observe/STIM_008.jpg
1709.364	0.981	correct	observe	Run2	observe/STIM_008.jpg
1712.569	1.141	correct	observe	Run2	observe/STIM_008.jpg
1717.24	1.274	correct	observe	Run2	observe/STIM_009.jpg
1722.241	0.942	correct	observe	Run2	observe/STIM_009.jpg
1727.273	1.428	correct	observe	Run2	observe/STIM_009.jpg
1732.222	0.886	correct	observe	Run2	observe/STIM_009.jpg
1736.755	0.77	correct	observe	Run2	observe/STIM_010.jpg
1740.637	1.258	incorrect	observe	Run2	observe/STIM_010.jpg
1745.478	0.92	correct	observe	Run2	observe/STIM_010.jpg
1749.699	0.912	correct	observe	Run2	observe/STIM_010.jpg
1753.701	0.806	correct	observe	Run2	observe/STIM_011.jpg
1757.107	1.011	correct	observe	Run2	observe/STIM_011.jpg
1760.67	0.739	correct	observe	Run2	observe/STIM_011.jpg
1764.475	0.83	correct	observe	Run2	observe/STIM_011.jpg
1768.1	1.153	correct	observe	Run2	observe/STIM_012.jpg
1772.092	0.778	correct	observe	Run2	observe/STIM_012.jpg
1775.074	1.014	correct	observe	Run2	observe/STIM_012.jpg
1779.641	0.903	correct	observe	Run2	observe/STIM_012.jpg
1784.473	1.202	correct	observe	Run2	observe/STIM_013.jpg
1789.726	0.8	correct	observe	Run2	observe/STIM_013.jpg
1793.364	1.434	correct	observe	Run2	observe/STIM_013.jpg
1797.412	1.431	correct	observe	Run2	observe/STIM_013.jpg
1801.876	0.799	correct	observe	Run2	observe/STIM_014.jpg
1806.503	1.203	correct	observe	Run2	observe/STIM_014.jpg
1810.616	1.345	incorrect	observe	Run2	observe/STIM_014.jpg
1816.008	1.172	incorrect	observe	Run2	observe/STIM_014.jpg
1821.306	0.942	correct	observe	Run2	observe/STIM_015.jpg
1824.449	1.413	correct	observe	Run2	observe/STIM_015.jpg
1829.444	0.774	correct	observe	Run2	observe/STIM_015.jpg
1832.862	0.979	correct	observe	Run2	observe/STIM_015.jpg
1836.864	1.228	correct	observe	Run2	observe/STIM_016.jpg
1841.629	1.113	correct	observe	Run2	observe/STIM_016.jpg
1845.883	1.428	correct	observe	Run2	observe/STIM_016.jpg
1851.428	0.872	correct	observe	Run2	observe/STIM_016.jpg
1854.53	0.993	correct	observe	Run2	observe/STIM_017.jpg
1858.976	1.235	correct	observe	Run2	observe/STIM_017.jpg
1864.135	0.844	correct	observe	Run2	observe/STIM_017.jpg
1867.567	1.147	correct	observe	Run2	observe/STIM_017.jpg
1872.243	1.341	correct	observe	Run2	observe/STIM_018.jpg
1876.866	1.184	correct	observe	Run2	observe/STIM_018.jpg
1881.135	1.268	correct	observe	Run2	observe/STIM_018.jpg
1885.029	0.96	incorrect	observe	Run2	observe/STIM_018.jpg
1889.269	1.317	correct	observe	Run2	observe/STIM_019.jpg
1893.006	0.78	correct	observe	Run2	observe/STIM_019.jpg
1896.726	1.108	correct	observe	Run2	observe/STIM_019.jpg
1901.42	0.933	correct	observe	Run2	observe/STIM_019.jpg
1905.758	1.414	correct	regulate	Run3	regulate/STIM_000.jpg
1911.005	2.158	correct	regulate	Run3	regulate/STIM_000.jpg
1915.674	2.052	correct	regulate	Run3	regulate/STIM_000.jpg
1920.436	1.54	correct	regulate	Run3	regulate/STIM_000.jpg
1926.14	1.443	incorrect	regulate	Run3	regulate/STIM_001.jpg
1931.32	1.621	incorrect	regulate	Run3	regulate/STIM_001.jpg
1936.947	2.03	correct	regulate	Run3	regulate/STIM_001.jpg
1941.864	1.17	correct	regulate	Run3	regulate/STIM_001.jpg
1945.54	2.188	correct	regulate	Run3	regulate/STIM_002.jpg
1950.532	1.215	correct	regulate	Run3	regulate/STIM_002.jpg
1954.023	2.147	correct	regulate	Run3	regulate/STIM_002.jpg
1958.501	1.371	correct	regulate	Run3	regulate/STIM_002.jpg
1963.189	1.891	correct	regulate	Run3	regulate/STIM_003.jpg
1968.306	1.092	correct	regulate	Run3	regulate/STIM_003.jpg
1971.943	1.148	correct	regulate	Run3	regulate/STIM_003.jpg
1975.242	1.21	correct	regulate	Run3	regulate/STIM_003.jpg
1980.023	1.229	correct	regulate	Run3	regulate/STIM_004.jpg
1984.283	1.163	correct	regulate	Run3	regulate/STIM_004.jpg
1987.884	1.537	correct	regulate	Run3	regulate/STIM_004.jpg
1993.341	1.4	correct	regulate	Run3	regulate/STIM_004.jpg
1998.286	1.89	correct	regulate	Run3	regulate/STIM_005.jpg
2003.33	1.989	correct	regulate	Run3	regulate/STIM_005.jpg
2009.01	1.721	correct	regulate	Run3	regulate/STIM_005.jpg
2014.796	1.528	correct	regulate	Run3	regulate/STIM_005.jpg
2018.88	1.977	correct	regulate	Run3	regulate/STIM_006.jpg
2023.409	1.692	correct	regulate	Run3	regulate/STIM_006.jpg
2028.004	1.519	correct	regulate	Run3	regulate/STIM_006.jpg
2032.675	1.273	correct	regulate	Run3	regulate/STIM_006.jpg
2037.969	1.578	correct	regulate	Run3	regulate/STIM_007.jpg
2042.113	1.993	correct	regulate	Run3	regulate/STIM_007.jpg
2048.126	1.457	correct	regulate	Run3	regulate/STIM_007.jpg
2052.16	1.234	correct	regulate	Run3	regulate/STIM_007.jpg
2055.922	1.135	correct	regulate	Run3	regulate/STIM_008.jpg
2060.137	1.615	correct	regulate	Run3	regulate/STIM_008.jpg
2064.604	1.532	correct	regulate	Run3	regulate/STIM_008.jpg
2068.315	1.493	correct	regulate	Run3	regulate/STIM_008.jpg
2072.097	2.166	correct	regulate	Run3	regulate/STIM_009.jpg
2077.956	1.8	correct	regulate	Run3	regulate/STIM_009.jpg
2082.8	2.185	correct	regulate	Run3	regulate/STIM_009.jpg
2088.248	1.134	correct	regulate	Run3	regulate/STIM_009.jpg
2092.156	1.323	correct	regulate	Run3	regulate/STIM_010.jpg
2096.204	2.115	correct	regulate	Run3	regulate/STIM_010.jpg
2101.279	0.971	correct	regulate	Run3	regulate/STIM_010.jpg
2105.047	0.974	correct	regulate	Run3	regulate/STIM_010.jpg
2108.176	1.58	correct	regulate	Run3	regulate/STIM_011.jpg
2112.811	1.471	correct	regulate	Run3	regulate/STIM_011.jpg
2117.498	1.534	correct	regulate	Run3	regulate/STIM_011.jpg
2122.964	0.983	correct	regulate	Run3	regulate/STIM_011.jpg
2127.53	0.993	correct	regulate	Run3	regulate/STIM_012.jpg
2131.812	2.018	correct	regulate	Run3	regulate/STIM_012.jpg
2136.462	2.155	correct	regulate	Run3	regulate/STIM_012.jpg
2141.113	1.423	correct	regulate	Run3	regulate/STIM_012.jpg
2144.828	1.274	correct	regulate	Run3	regulate/STIM_013.jpg
2149.667	1.774	correct	regulate	Run3	regulate/STIM_013.jpg
2154.768	1.103	correct	regulate	Run3	regulate/STIM_013.jpg
2159.21	1.623	correct	regulate	Run3	regulate/STIM_013.jpg
2163.638	1.452	correct	regulate	Run3	regulate/STIM_014.jpg
2167.485	2.107	incorrect	regulate	Run3	regulate/STIM_014.jpg
2173.724	1.119	correct	regulate	Run3	regulate/STIM_014.jpg
2177.996	2.059	correct	regulate	Run3	regulate/STIM_014.jpg
2183.416	2.034	correct	regulate	Run3	regulate/STIM_015.jpg
2188.154	2.082	correct	regulate	Run3	regulate/STIM_015.jpg
2193.014	1.02	correct	regulate	Run3	regulate/STIM_015.jpg
2196.527	1.739	correct	regulate	Run3	regulate/STIM_015.jpg
2201.085	1.194	correct	regulate	Run3	regulate/STIM_016.jpg
2204.485	1.464	correct	regulate	Run3	regulate/STIM_016.jpg
2209.391	1.521	correct	regulate	Run3	regulate/STIM_016.jpg
2215.064	1.317	correct	regulate	Run3	regulate/STIM_016.jpg
2219.354	1.749	correct	regulate	Run3	regulate/STIM_017.jpg
2224.067	1.368	correct	regulate	Run3	regulate/STIM_017.jpg
2229.305	1.046	correct	regulate	Run3	regulate/STIM_017.jpg
2234.236	1.96	correct	regulate	Run3	regulate/STIM_017.jpg
2238.946	1.302	correct	regulate	Run3	regulate/STIM_018.jpg
2243.55	1.652	correct	regulate	Run3	regulate/STIM_018.jpg
2247.807	1.179	correct	regulate	Run3	regulate/STIM_018.jpg
2251.241	1.675	correct	regulate	Run3	regulate/STIM_018.jpg
2257.059	1.383	correct	regulate	Run3	regulate/STIM_019.jpg
2261.626	1.27	correct	regulate	Run3	regulate/STIM_019.jpg
2265.425	1.903	correct	regulate	Run3	regulate/STIM_019.jpg
2271.342	1.108	correct	regulate	Run3	regulate/STIM_019.jpg
2274.857	1.288	correct	regulate	Run3	regulate/STIM_020.jpg
2278.295	1.964	correct	regulate	Run3	regulate/STIM_020.jpg
2283.63	1.643	correct	regulate	Run3	regulate/STIM_020.jpg
2287.904	1.983	incorrect	regulate	Run3	regulate/STIM_020.jpg
2292.367	2.158	correct	regulate	Run3	regulate/STIM_021.jpg
2297.808	1.674	correct	regulate	Run3	regulate/STIM_021.jpg
2302.488	1.564	correct	regulate	Run3	regulate/STIM_021.jpg
2306.283	1.187	correct	regulate	Run3	regulate/STIM_021.jpg
2310.123	1.819	correct	regulate	Run3	regulate/STIM_022.jpg
2314.523	2.123	correct	regulate	Run3	regulate/STIM_022.jpg
2320.336	1.258	incorrect	regulate	Run3	regulate/STIM_022.jpg
2324.755	1.557	correct	regulate	Run3	regulate/STIM_022.jpg
2329.336	1.055	correct	regulate	Run3	regulate/STIM_023.jpg
2333.942	1.657	correct	regulate	Run3	regulate/STIM_023.jpg
2337.892	1.407	correct	regulate	Run3	regulate/STIM_023.jpg
2342.667	1.009	correct	regulate	Run3	regulate/STIM_023.jpg
2346.101	2.011	correct	regulate	Run3	regulate/STIM_024.jpg
2350.758	0.948	correct	regulate	Run3	regulate/STIM_024.jpg
2355.284	1.155	correct	regulate	Run3	regulate/STIM_024.jpg
2360.079	1.571	correct	regulate	Run3	regulate/STIM_024.jpg
2364.254	1.204	correct	regulate	Run3	regulate/STIM_025.jpg
2369.378	1.776	correct	regulate	Run3	regulate/STIM_025.jpg
2374.271	1.522	correct	regulate	Run3	regulate/STIM_025.jpg
2378.938	1.093	correct	regulate	Run3	regulate/STIM_025.jpg
2384.001	1.272	correct	regulate	Run3	regulate/STIM_026.jpg
2387.787	1.667	correct	regulate	Run3	regulate/STIM_026.jpg
2392.733	1.375	correct	regulate	Run3	regulate/STIM_026.jpg
2397.633	1.003	correct	regulate	Run3	regulate/STIM_026.jpg
2401.673	1.311	correct	regulate	Run3	regulate/STIM_027.jpg
2405.217	1.802	correct	regulate	Run3	regulate/STIM_027.jpg
2410.568	1.998	correct	regulate	Run3	regulate/STIM_027.jpg
2415.402	1.348	correct	regulate	Run3	regulate/STIM_027.jpg
2419.055	1.044	correct	regulate	Run3	regulate/STIM_028.jpg
2423.146	1.036	correct	regulate	Run3	regulate/STIM_028.jpg
2427.859	1.4	correct	regulate	Run3	regulate/STIM_028.jpg
2432.924	2.022	correct	regulate	Run3	regulate/STIM_028.jpg
2438.676	2.092	correct	regulate	Run3	regulate/STIM_029.jpg
2443.448	1.134	correct	regulate	Run3	regulate/STIM_029.jpg
2447.469	1.769	correct	regulate	Run3	regulate/STIM_029.jpg
2452.713	1.513	incorrect	regulate	Run3	regulate/STIM_029.jpg
2456.693	1.186	correct	observe	Run3	observe/STIM_000.jpg
2461.455	1.047	incorrect	observe	Run3	observe/STIM_000.jpg
2465.327	1.257	correct	observe	Run3	observe/STIM_000.jpg
2470.072	0.742	incorrect	observe	Run3	observe/STIM_000.jpg
2474.271	1.256	incorrect	observe	Run3	observe/STIM_001.jpg
2478.961	1.24	correct	observe	Run3	observe/STIM_001.jpg
2482.814	0.97	correct	observe	Run3	observe/STIM_001.jpg
2486.668	1.144	correct	observe	Run3	observe/STIM_001.jpg
2490.493	0.721	incorrect	observe	Run3	observe/STIM_002.jpg
2495.082	1.245	correct	observe	Run3	observe/STIM_002.jpg
2500.089	0.757	correct	observe	Run3	observe/STIM_002.jpg
2503.717	1.292	correct	observe	Run3	observe/STIM_002.jpg
2507.42	1.441	incorrect	observe	Run3	observe/STIM_003.jpg
2512.772	1.166	correct	observe	Run3	observe/STIM_003.jpg
2517.193	0.801	correct	observe	Run3	observe/STIM_003.jpg
2521.676	0.793	correct	observe	Run3	observe/STIM_003.jpg
2524.784	1.068	correct	observe	Run3	observe/STIM_004.jpg
2528.435	0.901	incorrect	observe	Run3	observe/STIM_004.jpg
2532.843	0.933	correct	observe	Run3	observe/STIM_004.jpg
2536.915	1.174	correct	observe	Run3	observe/STIM_004.jpg
2540.509	0.872	correct	observe	Run3	observe/STIM_005.jpg
2543.61	1.193	correct	observe	Run3	observe/STIM_005.jpg
2547.629	0.909	correct	observe	Run3	observe/STIM_005.jpg
2552.409	1.074	correct	observe	Run3	observe/STIM_005.jpg
2556.073	0.819	correct	observe	Run3	observe/STIM_006.jpg
2560.44	1.418	correct	observe	Run3	observe/STIM_006.jpg
2564.269	1.228	correct	observe	Run3	observe/STIM_006.jpg
2569.111	0.919	correct	observe	Run3	observe/STIM_006.jpg
2572.376	0.848	correct	observe	Run3	observe/STIM_007.jpg
2576.913	0.733	correct	observe	Run3	observe/STIM_007.jpg
2581.111	0.978	correct	observe	Run3	observe/STIM_007.jpg
2585.743	0.952	correct	observe	Run3	observe/STIM_007.jpg
2589.421	1.259	correct	observe	Run3	observe/STIM_008.jpg
2593.614	1.067	incorrect	observe	Run3	observe/STIM_008.jpg
2597.771	1.334	correct	observe	Run3	observe/STIM_008.jpg
2602.845	0.889	correct	observe	Run3	observe/STIM_008.jpg
2607.256	0.763	incorrect	observe	Run3	observe/STIM_009.jpg
2610.677	1.299	correct	observe	Run3	observe/STIM_009.jpg
2614.242	1.251	correct	observe	Run3	observe/STIM_009.jpg
2618.146	0.88	correct	observe	Run3	observe/STIM_009.jpg
2621.478	1.179	correct	observe	Run3	observe/STIM_010.jpg
2626.445	0.818	correct	observe	Run3	observe/STIM_010.jpg
2630.719	1.411	correct	observe	Run3	observe/STIM_010.jpg
2635.824	1.15	correct	observe	Run3	observe/STIM_010.jpg
2639.91	1.296	correct	observe	Run3	observe/STIM_011.jpg
2643.763	1.08	correct	observe	Run3	observe/STIM_011.jpg
2648.215	1.055	correct	observe	Run3	observe/STIM_011.jpg
2651.943	1.224	correct	observe	Run3	observe/STIM_011.jpg
2656.001	1.324	correct	observe	Run3	observe/STIM_012.jpg
2661.239	1.323	correct	observe	Run3	observe/STIM_012.jpg
2664.787	0.808	correct	observe	Run3	observe/STIM_012.jpg
2669.05	0.994	correct	observe	Run3	observe/STIM_012.jpg
2672.764	0.828	correct	observe	Run3	observe/STIM_013.jpg
2676.088	0.881	correct	observe	Run3	observe/STIM_013.jpg
2679.381	1.37	correct	observe	Run3	observe/STIM_013.jpg
2683.202	1.285	incorrect	observe	Run3	observe/STIM_013.jpg
2687.035	0.767	correct	observe	Run3	observe/STIM_014.jpg
2690.171	0.828	correct	observe	Run3	observe/STIM_014.jpg
2694.385	0.93	incorrect	observe	Run3	observe/STIM_014.jpg
2698.78	0.825	correct	observe	Run3	observe/STIM_014.jpg
2703.585	1.217	correct	observe	Run3	observe/STIM_015.jpg
2708.055	1.325	correct	observe	Run3	observe/STIM_015.jpg
2712.981	0.978	correct	observe	Run3	observe/STIM_015.jpg
2716.913	1.15	correct	observe	Run3	observe/STIM_015.jpg
2720.742	0.781	correct	observe	Run3	observe/STIM_016.jpg
2724.527	0.738	correct	observe	Run3	observe/STIM_016.jpg
2728.36	1.21	correct	observe	Run3	observe/STIM_016.jpg
2732.122	1.365	correct	observe	Run3	observe/STIM_016.jpg
2736.177	0.992	correct	observe	Run3	observe/STIM_017.jpg
2740.803	1.178	correct	observe	Run3	observe/STIM_017.jpg
2745.522	1.167	correct	observe	Run3	observe/STIM_017.jpg
2750.788	1.396	correct	observe	Run3	observe/STIM_017.jpg
2755.637	0.738	incorrect	observe	Run3	observe/STIM_018.jpg
2758.671	0.766	correct	observe	Run3	observe/STIM_018.jpg
2762.473	0.921	correct	observe	Run3	observe/STIM_018.jpg
2765.555	1.157	correct	observe	Run3	observe/STIM_018.jpg
2770.577	1.152	correct	observe	Run3	observe/STIM_019.jpg
2774.252	0.804	correct	observe	Run3	observe/STIM_019.jpg
2777.643	1.033	correct	observe	Run3	observe/STIM_019.jpg
2780.86	1.12	correct	observe	Run3	observe/STIM_019.jpg
