onset	duration	accuracy	trial_type	learning_stage	stimulus
0.0	0.616	correct	incongruent	Block1	incongruent/STIM_000.jpg
2.684	0.363	correct	incongruent	Block1	incongruent/STIM_000.jpg
5.644	0.42	incorrect	incongruent	Block1	incongruent/STIM_000.jpg
9.055	0.498	incorrect	incongruent	Block1	incongruent/STIM_000.jpg
13.382	0.597	correct	incongruent	Block1	incongruent/STIM_000.jpg
16.146	0.692	incorrect	incongruent	Block1	incongruent/STIM_001.jpg
20.129	0.432	incorrect	incongruent	Block1	incongruent/STIM_001.jpg
23.536	0.502	incorrect	incongruent	Block1	incongruent/STIM_001.jpg
28.032	0.486	correct	incongruent	Block1	incongruent/STIM_001.jpg
30.575	0.404	correct	incongruent	Block1	incongruent/STIM_001.jpg
33.418	0.425	correct	incongruent	Block1	incongruent/STIM_002.jpg
37.577	0.419	incorrect	incongruent	Block1	incongruent/STIM_002.jpg
40.503	0.459	correct	incongruent	Block1	incongruent/STIM_002.jpg
43.993	0.582	correct	incongruent	Block1	incongruent/STIM_002.jpg
48.226	0.426	incorrect	incongruent	Block1	incongruent/STIM_002.jpg
52.206	0.379	incorrect	incongruent	Block1	incongruent/STIM_003.jpg
55.897	0.58	correct	incongruent	Block1	incongruent/STIM_003.jpg
58.666	0.659	incorrect	incongruent	Block1	incongruent/STIM_003.jpg
62.431	0.66	incorrect	incongruent	Block1	incongruent/STIM_003.jpg
65.918	0.627	correct	incongruent	Block1	incongruent/STIM_003.jpg
69.358	0.675	incorrect	incongruent	Block1	incongruent/STIM_004.jpg
73.967	0.639	correct	incongruent	Block1	incongruent/STIM_004.jpg
77.692	0.509	correct	incongruent	Block1	incongruent/STIM_004.jpg
81.476	0.543	correct	incongruent	Block1	incongruent/STIM_004.jpg
84.907	0.32	correct	incongruent	Block1	incongruent/STIM_004.jpg
87.835	0.636	incorrect	incongruent	Block1	incongruent/STIM_005.jpg
91.574	0.407	incorrect	incongruent	Block1	incongruent/STIM_005.jpg
95.683	0.437	incorrect	incongruent	Block1	incongruent/STIM_005.jpg
98.447	0.509	correct	incongruent	Block1	incongruent/STIM_005.jpg
101.137	0.496	correct	incongruent	Block1	incongruent/STIM_005.jpg
104.981	0.382	incorrect	incongruent	Block1	incongruent/STIM_006.jpg
109.133	0.571	incorrect	incongruent	Block1	incongruent/STIM_006.jpg
112.382	0.594	incorrect	incongruent	Block1	incongruent/STIM_006.jpg
116.16	0.487	incorrect	incongruent	Block1	incongruent/STIM_006.jpg
119.05	0.385	incorrect	incongruent	Block1	incongruent/STIM_006.jpg
121.444	0.714	correct	incongruent	Block1	incongruent/STIM_007.jpg
124.395	0.534	correct	incongruent	Block1	incongruent/STIM_007.jpg
127.425	0.558	correct	incongruent	Block1	incongruent/STIM_007.jpg
131.063	0.561	incorrect	incongruent	Block1	incongruent/STIM_007.jpg
134.176	0.348	correct	incongruent	Block1	incongruent/STIM_007.jpg
137.037	0.599	correct	incongruent	Block1	incongruent/STIM_008.jpg
140.818	0.676	correct	incongruent	Block1	incongruent/STIM_008.jpg
145.2	0.56	correct	incongruent	Block1	incongruent/STIM_008.jpg
148.239	0.53	correct	incongruent	Block1	incongruent/STIM_008.jpg
151.732	0.57	correct	incongruent	Block1	incongruent/STIM_008.jpg
154.757	0.417	correct	incongruent	Block1	incongruent/STIM_009.jpg
158.116	0.604	correct	incongruent	Block1	incongruent/STIM_009.jpg
161.162	0.333	incorrect	incongruent	Block1	incongruent/STIM_009.jpg
165.107	0.635	incorrect	incongruent	Block1	incongruent/STIM_009.jpg
168.917	0.461	correct	incongruent	Block1	incongruent/STIM_009.jpg
172.978	0.594	incorrect	incongruent	Block1	incongruent/STIM_010.jpg
176.293	0.55	incorrect	incongruent	Block1	incongruent/STIM_010.jpg
179.187	0.544	incorrect	incongruent	Block1	incongruent/STIM_010.jpg
182.876	0.41	incorrect	incongruent	Block1	incongruent/STIM_010.jpg
186.863	0.598	correct	incongruent	Block1	incongruent/STIM_010.jpg
190.781	0.4	correct	incongruent	Block1	incongruent/STIM_011.jpg
195.169	0.582	incorrect	incongruent	Block1	incongruent/STIM_011.jpg
197.851	0.35	incorrect	incongruent	Block1	incongruent/STIM_011.jpg
201.992	0.616	incorrect	incongruent	Block1	incongruent/STIM_011.jpg
204.682	0.351	incorrect	incongruent	Block1	incongruent/STIM_011.jpg
207.406	0.62	correct	incongruent	Block1	incongruent/STIM_012.jpg
210.741	0.529	correct	incongruent	Block1	incongruent/STIM_012.jpg
214.697	0.526	incorrect	incongruent	Block1	incongruent/STIM_012.jpg
218.823	0.471	correct	incongruent	Block1	incongruent/STIM_012.jpg
221.953	0.524	incorrect	incongruent	Block1	incongruent/STIM_012.jpg
225.09	0.694	incorrect	incongruent	Block1	incongruent/STIM_013.jpg
228.132	0.376	incorrect	incongruent	Block1	incongruent/STIM_013.jpg
230.512	0.702	correct	incongruent	Block1	incongruent/STIM_013.jpg
234.964	0.439	incorrect	incongruent	Block1	incongruent/STIM_013.jpg
237.734	0.528	correct	incongruent	Block1	incongruent/STIM_013.jpg
241.693	0.435	incorrect	incongruent	Block1	incongruent/STIM_014.jpg
244.525	0.743	correct	incongruent	Block1	incongruent/STIM_014.jpg
247.533	0.385	correct	incongruent	Block1	incongruent/STIM_014.jpg
251.151	0.362	correct	incongruent	Block1	incongruent/STIM_014.jpg
253.959	0.365	incorrect	incongruent	Block1	incongruent/STIM_014.jpg
258.151	0.689	incorrect	incongruent	Block1	incongruent/STIM_015.jpg
262.48	0.719	correct	incongruent	Block1	incongruent/STIM_015.jpg
266.691	0.575	correct	incongruent	Block1	incongruent/STIM_015.jpg
270.423	0.556	correct	incongruent	Block1	incongruent/STIM_015.jpg
273.926	0.621	incorrect	incongruent	Block1	incongruent/STIM_015.jpg
276.944	0.699	incorrect	incongruent	Block1	incongruent/STIM_016.jpg
279.786	0.718	correct	incongruent	Block1	incongruent/STIM_016.jpg
283.583	0.458	correct	incongruent	Block1	incongruent/STIM_016.jpg
288.021	0.503	correct	incongruent	Block1	incongruent/STIM_016.jpg
291.943	0.324	incorrect	incongruent	Block1	incongruent/STIM_016.jpg
294.94	0.514	incorrect	incongruent	Block1	incongruent/STIM_017.jpg
298.216	0.389	incorrect	incongruent	Block1	incongruent/STIM_017.jpg
302.408	0.442	correct	incongruent	Block1	incongruent/STIM_017.jpg
306.327	0.372	correct	incongruent	Block1	incongruent/STIM_017.jpg
308.875	0.609	correct	incongruent	Block1	incongruent/STIM_017.jpg
311.795	0.75	correct	incongruent	Block1	incongruent/STIM_018.jpg
314.596	0.557	incorrect	incongruent	Block1	incongruent/STIM_018.jpg
318.164	0.66	correct	incongruent	Block1	incongruent/STIM_018.jpg
321.137	0.391	correct	incongruent	Block1	incongruent/STIM_018.jpg
324.32	0.602	correct	incongruent	Block1	incongruent/STIM_018.jpg
328.447	0.766	incorrect	incongruent	Block1	incongruent/STIM_019.jpg
332.347	0.738	correct	incongruent	Block1	incongruent/STIM_019.jpg
335.816	0.445	correct	incongruent	Block1	incongruent/STIM_019.jpg
338.568	0.369	incorrect	incongruent	Block1	incongruent/STIM_019.jpg
342.524	0.413	correct	incongruent	Block1	incongruent/STIM_019.jpg
345.74	0.5	incorrect	incongruent	Block1	incongruent/STIM_020.jpg
349.21	0.671	incorrect	incongruent	Block1	incongruent/STIM_020.jpg
353.53	0.553	correct	incongruent	Block1	incongruent/STIM_020.jpg
357.318	0.44	incorrect	incongruent	Block1	incongruent/STIM_020.jpg
359.815	0.585	correct	incongruent	Block1	incongruent/STIM_020.jpg
362.657	0.68	incorrect	incongruent	Block1	incongruent/STIM_021.jpg
366.144	0.649	incorrect	incongruent	Block1	incongruent/STIM_021.jpg
370.09	0.658	correct	incongruent	Block1	incongruent/STIM_021.jpg
373.381	0.463	incorrect	incongruent	Block1	incongruent/STIM_021.jpg
376.345	0.563	incorrect	incongruent	Block1	incongruent/STIM_021.jpg
380.704	0.546	correct	incongruent	Block1	incongruent/STIM_022.jpg
384.782	0.622	correct	incongruent	Block1	incongruent/STIM_022.jpg
388.83	0.442	correct	incongruent	Block1	incongruent/STIM_022.jpg
392.012	0.479	correct	incongruent	Block1	incongruent/STIM_022.jpg
395.044	0.397	correct	incongruent	Block1	incongruent/STIM_022.jpg
398.691	0.779	incorrect	incongruent	Block1	incongruent/STIM_023.jpg
402.898	0.426	incorrect	incongruent	Block1	incongruent/STIM_023.jpg
406.495	0.543	correct	incongruent	Block1	incongruent/STIM_023.jpg
410.403	0.423	incorrect	incongruent	Block1	incongruent/STIM_023.jpg
414.755	0.601	correct	incongruent	Block1	incongruent/STIM_023.jpg
418.124	0.755	incorrect	incongruent	Block1	incongruent/STIM_024.jpg
421.702	0.661	correct	incongruent	Block1	incongruent/STIM_024.jpg
425.878	0.661	incorrect	incongruent	Block1	incongruent/STIM_024.jpg
429.92	0.666	incorrect	incongruent	Block1	incongruent/STIM_024.jpg
433.082	0.55	correct	incongruent	Block1	incongruent/STIM_024.jpg
437.436	0.516	correct	incongruent	Block1	incongruent/STIM_025.jpg
440.037	0.406	incorrect	incongruent	Block1	incongruent/STIM_025.jpg
442.961	0.364	incorrect	incongruent	Block1	incongruent/STIM_025.jpg
446.922	0.608	correct	incongruent	Block1	incongruent/STIM_025.jpg
450.49	0.4	incorrect	incongruent	Block1	incongruent/STIM_025.jpg
454.508	0.449	correct	incongruent	Block1	incongruent/STIM_026.jpg
457.385	0.425	incorrect	incongruent	Block1	incongruent/STIM_026.jpg
461.801	0.691	correct	incongruent	Block1	incongruent/STIM_026.jpg
465.272	0.614	correct	incongruent	Block1	incongruent/STIM_026.jpg
468.316	0.395	incorrect	incongruent	Block1	incongruent/STIM_026.jpg
472.042	0.608	incorrect	incongruent	Block1	incongruent/STIM_027.jpg
475.045	0.516	correct	incongruent	Block1	incongruent/STIM_027.jpg
479.212	0.358	correct	incongruent	Block1	incongruent/STIM_027.jpg
483.335	0.502	correct	incongruent	Block1	incongruent/STIM_027.jpg
486.994	0.462	correct	incongruent	Block1	incongruent/STIM_027.jpg
491.391	0.687	correct	incongruent	Block1	incongruent/STIM_028.jpg
494.741	0.51	incorrect	incongruent	Block1	incongruent/STIM_028.jpg
499.209	0.392	correct	incongruent	Block1	incongruent/STIM_028.jpg
503.332	0.472	correct	incongruent	Block1	incongruent/STIM_028.jpg
506.762	0.391	correct	incongruent	Block1	incongruent/STIM_028.jpg
510.036	0.405	correct	incongruent	Block1	incongruent/STIM_029.jpg
514.284	0.54	correct	incongruent	Block1	incongruent/STIM_029.jpg
517.274	0.623	correct	incongruent	Block1	incongruent/STIM_029.jpg
520.098	0.454	correct	incongruent	Block1	incongruent/STIM_029.jpg
523.131	0.403	correct	incongruent	Block1	incongruent/STIM_029.jpg
525.969	0.279	correct	congruent	Block1	congruent/STIM_000.jpg
530.185	0.474	correct	congruent	Block1	congruent/STIM_000.jpg
533.503	0.279	incorrect	congruent	Block1	congruent/STIM_000.jpg
535.793	0.289	incorrect	congruent	Block1	congruent/STIM_000.jpg
539.291	0.345	correct	congruent	Block1	congruent/STIM_000.jpg
542.598	0.432	incorrect	congruent	Block1	congruent/STIM_001.jpg
545.812	0.459	correct	congruent	Block1	congruent/STIM_001.jpg
548.618	0.342	incorrect	congruent	Block1	congruent/STIM_001.jpg
551.35	0.35	correct	congruent	Block1	congruent/STIM_001.jpg
554.891	0.445	correct	congruent	Block1	congruent/STIM_001.jpg
558.128	0.421	incorrect	congruent	Block1	congruent/STIM_002.jpg
562.22	0.468	correct	congruent	Block1	congruent/STIM_002.jpg
564.773	0.45	correct	congruent	Block1	congruent/STIM_002.jpg
568.425	0.307	correct	congruent	Block1	congruent/STIM_002.jpg
571.775	0.454	incorrect	congruent	Block1	congruent/STIM_002.jpg
574.284	0.327	correct	congruent	Block1	congruent/STIM_003.jpg
577.74	0.35	correct	congruent	Block1	congruent/STIM_003.jpg
580.991	0.322	incorrect	congruent	Block1	congruent/STIM_003.jpg
585.193	0.293	incorrect	congruent	Block1	congruent/STIM_003.jpg
589.188	0.37	incorrect	congruent	Block1	congruent/STIM_003.jpg
592.661	0.42	correct	congruent	Block1	congruent/STIM_004.jpg
595.821	0.407	incorrect	congruent	Block1	congruent/STIM_004.jpg
599.786	0.364	correct	congruent	Block1	congruent/STIM_004.jpg
603.266	0.312	incorrect	congruent	Block1	congruent/STIM_004.jpg
606.477	0.462	correct	congruent	Block1	congruent/STIM_004.jpg
609.211	0.268	correct	congruent	Block1	congruent/STIM_005.jpg
612.302	0.419	correct	congruent	Block1	congruent/STIM_005.jpg
616.372	0.358	correct	congruent	Block1	congruent/STIM_005.jpg
619.398	0.32	correct	congruent	Block1	congruent/STIM_005.jpg
622.009	0.386	correct	congruent	Block1	congruent/STIM_005.jpg
625.486	0.267	correct	congruent	Block1	congruent/STIM_006.jpg
629.414	0.428	correct	congruent	Block1	congruent/STIM_006.jpg
632.055	0.398	correct	congruent	Block1	congruent/STIM_006.jpg
635.898	0.348	incorrect	congruent	Block1	congruent/STIM_006.jpg
639.436	0.419	correct	congruent	Block1	congruent/STIM_006.jpg
643.202	0.327	correct	congruent	Block1	congruent/STIM_007.jpg
645.585	0.279	incorrect	congruent	Block1	congruent/STIM_007.jpg
649.3	0.403	incorrect	congruent	Block1	congruent/STIM_007.jpg
652.994	0.391	correct	congruent	Block1	congruent/STIM_007.jpg
657.308	0.469	correct	congruent	Block1	congruent/STIM_007.jpg
660.79	0.398	correct	congruent	Block1	congruent/STIM_008.jpg
663.809	0.367	incorrect	congruent	Block1	congruent/STIM_008.jpg
667.646	0.309	correct	congruent	Block1	congruent/STIM_008.jpg
671.656	0.385	correct	congruent	Block1	congruent/STIM_008.jpg
675.145	0.294	correct	congruent	Block1	congruent/STIM_008.jpg
678.779	0.431	correct	congruent	Block1	congruent/STIM_009.jpg
681.665	0.327	correct	congruent	Block1	congruent/STIM_009.jpg
684.618	0.356	correct	congruent	Block1	congruent/STIM_009.jpg
687.835	0.354	incorrect	congruent	Block1	congruent/STIM_009.jpg
691.128	0.345	correct	congruent	Block1	congruent/STIM_009.jpg
695.293	0.456	correct	congruent	Block1	congruent/STIM_010.jpg
697.863	0.367	correct	congruent	Block1	congruent/STIM_010.jpg
700.361	0.408	correct	congruent	Block1	congruent/STIM_010.jpg
704.731	0.364	correct	congruent	Block1	congruent/STIM_010.jpg
707.94	0.44	incorrect	congruent	Block1	congruent/STIM_010.jpg
711.158	0.307	correct	congruent	Block1	congruent/STIM_011.jpg
713.982	0.419	correct	congruent	Block1	congruent/STIM_011.jpg
717.933	0.32	incorrect	congruent	Block1	congruent/STIM_011.jpg
721.08	0.327	correct	congruent	Block1	congruent/STIM_011.jpg
725.177	0.364	correct	congruent	Block1	congruent/STIM_011.jpg
728.196	0.413	incorrect	congruent	Block1	congruent/STIM_012.jpg
731.554	0.465	correct	congruent	Block1	congruent/STIM_012.jpg
735.587	0.47	correct	congruent	Block1	congruent/STIM_012.jpg
739.667	0.31	correct	congruent	Block1	congruent/STIM_012.jpg
743.422	0.472	incorrect	congruent	Block1	congruent/STIM_012.jpg
746.634	0.29	correct	congruent	Block1	congruent/STIM_013.jpg
749.865	0.324	incorrect	congruent	Block1	congruent/STIM_013.jpg
752.382	0.415	correct	congruent	Block1	congruent/STIM_013.jpg
756.107	0.468	correct	congruent	Block1	congruent/STIM_013.jpg
760.483	0.323	incorrect	congruent	Block1	congruent/STIM_013.jpg
763.891	0.466	correct	congruent	Block1	congruent/STIM_014.jpg
767.229	0.333	correct	congruent	Block1	congruent/STIM_014.jpg
771.313	0.433	correct	congruent	Block1	congruent/STIM_014.jpg
774.742	0.309	incorrect	congruent	Block1	congruent/STIM_014.jpg
778.3	0.424	incorrect	congruent	Block1	congruent/STIM_014.jpg
782.069	0.387	correct	congruent	Block1	congruent/STIM_015.jpg
786.038	0.458	correct	congruent	Block1	congruent/STIM_015.jpg
788.843	0.266	incorrect	congruent	Block1	congruent/STIM_015.jpg
791.725	0.403	incorrect	congruent	Block1	congruent/STIM_015.jpg
794.38	0.318	correct	congruent	Block1	congruent/STIM_015.jpg
798.337	0.308	incorrect	congruent	Block1	congruent/STIM_016.jpg
801.929	0.378	correct	congruent	Block1	congruent/STIM_016.jpg
806.261	0.411	correct	congruent	Block1	congruent/STIM_016.jpg
809.448	0.327	incorrect	congruent	Block1	congruent/STIM_016.jpg
812.173	0.439	correct	congruent	Block1	congruent/STIM_016.jpg
815.279	0.387	incorrect	congruent	Block1	congruent/STIM_017.jpg
819.431	0.329	correct	congruent	Block1	congruent/STIM_017.jpg
822.28	0.319	incorrect	congruent	Block1	congruent/STIM_017.jpg
825.879	0.458	correct	congruent	Block1	congruent/STIM_017.jpg
828.504	0.331	correct	congruent	Block1	congruent/STIM_017.jpg
832.119	0.339	incorrect	congruent	Block1	congruent/STIM_018.jpg
834.995	0.371	incorrect	congruent	Block1	congruent/STIM_018.jpg
837.718	0.346	correct	congruent	Block1	congruent/STIM_018.jpg
840.582	0.434	correct	congruent	Block1	congruent/STIM_018.jpg
844.228	0.398	correct	congruent	Block1	congruent/STIM_018.jpg
848.275	0.346	incorrect	congruent	Block1	congruent/STIM_019.jpg
851.833	0.315	correct	congruent	Block1	congruent/STIM_019.jpg
854.621	0.459	correct	congruent	Block1	congruent/STIM_019.jpg
858.399	0.381	correct	congruent	Block1	congruent/STIM_019.jpg
862.731	0.469	correct	congruent	Block1	congruent/STIM_019.jpg
865.799	0.372	correct	congruent	Block1	congruent/STIM_020.jpg
869.54	0.358	correct	congruent	Block1	congruent/STIM_020.jpg
873.124	0.292	incorrect	congruent	Block1	congruent/STIM_020.jpg
876.646	0.358	correct	congruent	Block1	congruent/STIM_020.jpg
880.265	0.268	correct	congruent	Block1	congruent/STIM_020.jpg
883.43	0.274	incorrect	congruent	Block1	congruent/STIM_021.jpg
886.429	0.264	correct	congruent	Block1	congruent/STIM_021.jpg
889.081	0.39	incorrect	congruent	Block1	congruent/STIM_021.jpg
893.071	0.325	correct	congruent	Block1	congruent/STIM_021.jpg
895.907	0.378	correct	congruent	Block1	congruent/STIM_021.jpg
898.581	0.28	incorrect	congruent	Block1	congruent/STIM_022.jpg
902.09	0.301	correct	congruent	Block1	congruent/STIM_022.jpg
904.685	0.429	incorrect	congruent	Block1	congruent/STIM_022.jpg
908.199	0.288	incorrect	congruent	Block1	congruent/STIM_022.jpg
912.395	0.271	correct	congruent	Block1	congruent/STIM_022.jpg
916.291	0.423	correct	congruent	Block1	congruent/STIM_023.jpg
918.988	0.342	correct	congruent	Block1	congruent/STIM_023.jpg
921.797	0.429	correct	congruent	Block1	congruent/STIM_023.jpg
925.023	0.297	correct	congruent	Block1	congruent/STIM_023.jpg
928.775	0.266	correct	congruent	Block1	congruent/STIM_023.jpg
932.733	0.385	correct	congruent	Block1	congruent/STIM_024.jpg
935.37	0.4	correct	congruent	Block1	congruent/STIM_024.jpg
938.248	0.336	incorrect	congruent	Block1	congruent/STIM_024.jpg
942.463	0.273	incorrect	congruent	Block1	congruent/STIM_024.jpg
945.134	0.348	correct	congruent	Block1	congruent/STIM_024.jpg
949.133	0.309	incorrect	congruent	Block1	congruent/STIM_025.jpg
951.795	0.403	correct	congruent	Block1	congruent/STIM_025.jpg
955.118	0.327	correct	congruent	Block1	congruent/STIM_025.jpg
958.058	0.459	correct	congruent	Block1	congruent/STIM_025.jpg
962.313	0.371	incorrect	congruent	Block1	congruent/STIM_025.jpg
966.317	0.428	correct	congruent	Block1	congruent/STIM_026.jpg
969.55	0.313	incorrect	congruent	Block1	congruent/STIM_026.jpg
973.36	0.459	correct	congruent	Block1	congruent/STIM_026.jpg
976.281	0.301	correct	congruent	Block1	congruent/STIM_026.jpg
979.704	0.43	correct	congruent	Block1	congruent/STIM_026.jpg
982.32	0.311	correct	congruent	Block1	congruent/STIM_027.jpg
984.699	0.428	correct	congruent	Block1	congruent/STIM_027.jpg
988.378	0.44	correct	congruent	Block1	congruent/STIM_027.jpg
991.407	0.372	correct	congruent	Block1	congruent/STIM_027.jpg
995.771	0.368	incorrect	congruent	Block1	congruent/STIM_027.jpg
999.001	0.271	correct	congruent	Block1	congruent/STIM_028.jpg
1002.02	0.355	incorrect	congruent	Block1	congruent/STIM_028.jpg
1005.765	0.441	incorrect	congruent	Block1	congruent/STIM_028.jpg
1009.737	0.35	correct	congruent	Block1	congruent/STIM_028.jpg
1013.952	0.303	correct	congruent	Block1	congruent/STIM_028.jpg
1017.419	0.443	incorrect	congruent	Block1	congruent/STIM_029.jpg
1020.469	0.365	correct	congruent	Block1	congruent/STIM_029.jpg
1023.049	0.37	incorrect	congruent	Block1	congruent/STIM_029.jpg
1026.91	0.31	correct	congruent	Block1	congruent/STIM_029.jpg
1029.241	0.348	correct	congruent	Block1	congruent/STIM_029.jpg
1033.51	0.54	correct	incongruent	Block2	incongruent/STIM_000.jpg
1037.714	0.365	correct	incongruent	Block2	incongruent/STIM_000.jpg
1041.72	0.385	correct	incongruent	Block2	incongruent/STIM_000.jpg
1045.879	0.54	correct	incongruent	Block2	incongruent/STIM_000.jpg
1050.274	0.497	correct	incongruent	Block2	incongruent/STIM_000.jpg
1054.084	0.365	incorrect	incongruent	Block2	incongruent/STIM_001.jpg
1057.986	0.602	correct	incongruent	Block2	incongruent/STIM_001.jpg
1062.092	0.335	incorrect	incongruent	Block2	incongruent/STIM_001.jpg
1065.827	0.294	correct	incongruent	Block2	incongruent/STIM_001.jpg
1068.814	0.457	correct	incongruent	Block2	incongruent/STIM_001.jpg
1073.015	0.539	correct	incongruent	Block2	incongruent/STIM_002.jpg
1077.333	0.319	correct	incongruent	Block2	incongruent/STIM_002.jpg
1080.015	0.546	correct	incongruent	Block2	incongruent/STIM_002.jpg
1084.379	0.375	incorrect	incongruent	Block2	incongruent/STIM_002.jpg
1086.859	0.291	correct	incongruent	Block2	incongruent/STIM_002.jpg
1089.482	0.545	correct	incongruent	Block2	incongruent/STIM_003.jpg
1092.89	0.409	correct	incongruent	Block2	incongruent/STIM_003.jpg
1095.457	0.494	correct	incongruent	Block2	incongruent/STIM_003.jpg
1099.252	0.542	correct	incongruent	Block2	incongruent/STIM_003.jpg
1102.687	0.505	correct	incongruent	Block2	incongruent/STIM_003.jpg
1107.175	0.365	correct	incongruent	Block2	incongruent/STIM_004.jpg
1110.755	0.352	correct	incongruent	Block2	incongruent/STIM_004.jpg
1114.277	0.534	correct	incongruent	Block2	incongruent/STIM_004.jpg
1117.397	0.549	incorrect	incongruent	Block2	incongruent/STIM_004.jpg
1121.293	0.347	correct	incongruent	Block2	incongruent/STIM_004.jpg
1125.323	0.501	incorrect	incongruent	Block2	incongruent/STIM_005.jpg
1128.34	0.448	correct	incongruent	Block2	incongruent/STIM_005.jpg
1131.262	0.419	incorrect	incongruent	Block2	incongruent/STIM_005.jpg
1134.507	0.405	correct	incongruent	Block2	incongruent/STIM_005.jpg
1138.37	0.289	correct	incongruent	Block2	incongruent/STIM_005.jpg
1141.943	0.444	correct	incongruent	Block2	incongruent/STIM_006.jpg
1144.739	0.3	correct	incongruent	Block2	incongruent/STIM_006.jpg
1147.87	0.46	correct	incongruent	Block2	incongruent/STIM_006.jpg
1151.388	0.389	correct	incongruent	Block2	incongruent/STIM_006.jpg
1154.741	0.408	correct	incongruent	Block2	incongruent/STIM_006.jpg
1157.626	0.363	correct	incongruent	Block2	incongruent/STIM_007.jpg
1161.807	0.512	correct	incongruent	Block2	incongruent/STIM_007.jpg
1166.063	0.421	correct	incongruent	Block2	incongruent/STIM_007.jpg
1168.592	0.428	correct	incongruent	Block2	incongruent/STIM_007.jpg
1171.633	0.485	correct	incongruent	Block2	incongruent/STIM_007.jpg
1175.604	0.458	correct	incongruent	Block2	incongruent/STIM_008.jpg
1179.038	0.33	correct	incongruent	Block2	incongruent/STIM_008.jpg
1182.356	0.503	incorrect	incongruent	Block2	incongruent/STIM_008.jpg
1185.622	0.505	correct	incongruent	Block2	incongruent/STIM_008.jpg
1188.415	0.414	correct	incongruent	Block2	incongruent/STIM_008.jpg
1192.022	0.523	correct	incongruent	Block2	incongruent/STIM_009.jpg
1195.707	0.342	correct	incongruent	Block2	incongruent/STIM_009.jpg
1199.711	0.561	correct	incongruent	Block2	incongruent/STIM_009.jpg
1203.382	0.282	incorrect	incongruent	Block2	incongruent/STIM_009.jpg
1206.489	0.426	correct	incongruent	Block2	incongruent/STIM_009.jpg
1209.375	0.636	correct	incongruent	Block2	incongruent/STIM_010.jpg
1213.639	0.498	correct	incongruent	Block2	incongruent/STIM_010.jpg
1217.647	0.404	correct	incongruent	Block2	incongruent/STIM_010.jpg
1221.09	0.41	correct	incongruent	Block2	incongruent/STIM_010.jpg
1223.531	0.47	incorrect	incongruent	Block2	incongruent/STIM_010.jpg
1227.198	0.618	correct	incongruent	Block2	incongruent/STIM_011.jpg
1229.822	0.403	correct	incongruent	Block2	incongruent/STIM_011.jpg
1232.598	0.379	incorrect	incongruent	Block2	incongruent/STIM_011.jpg
1235.958	0.52	correct	incongruent	Block2	incongruent/STIM_011.jpg
1239.31	0.47	correct	incongruent	Block2	incongruent/STIM_011.jpg
1242.331	0.599	correct	incongruent	Block2	incongruent/STIM_012.jpg
1246.324	0.444	incorrect	incongruent	Block2	incongruent/STIM_012.jpg
1249.543	0.516	incorrect	incongruent	Block2	incongruent/STIM_012.jpg
1252.189	0.463	correct	incongruent	Block2	incongruent/STIM_012.jpg
1255.989	0.47	correct	incongruent	Block2	incongruent/STIM_012.jpg
1260.406	0.317	incorrect	incongruent	Block2	incongruent/STIM_013.jpg
1263.867	0.433	correct	incongruent	Block2	incongruent/STIM_013.jpg
1267.964	0.481	correct	incongruent	Block2	incongruent/STIM_013.jpg
1271.085	0.43	correct	incongruent	Block2	incongruent/STIM_013.jpg
1274.396	0.322	correct	incongruent	Block2	incongruent/STIM_013.jpg
1277.755	0.471	correct	incongruent	Block2	incongruent/STIM_014.jpg
1281.942	0.432	correct	incongruent	Block2	incongruent/STIM_014.jpg
1285.412	0.315	correct	incongruent	Block2	incongruent/STIM_014.jpg
1288.898	0.351	correct	incongruent	Block2	incongruent/STIM_014.jpg
1292.01	0.538	correct	incongruent	Block2	incongruent/STIM_014.jpg
1295.318	0.443	correct	incongruent	Block2	incongruent/STIM_015.jpg
1298.221	0.599	incorrect	incongruent	Block2	incongruent/STIM_015.jpg
1301.835	0.339	incorrect	incongruent	Block2	incongruent/STIM_015.jpg
1305.824	0.506	incorrect	incongruent	Block2	incongruent/STIM_015.jpg
1309.409	0.487	correct	incongruent	Block2	incongruent/STIM_015.jpg
1312.248	0.412	correct	incongruent	Block2	incongruent/STIM_016.jpg
1316.402	0.374	correct	incongruent	Block2	incongruent/STIM_016.jpg
1318.821	0.496	correct	incongruent	Block2	incongruent/STIM_016.jpg
1321.927	0.525	incorrect	incongruent	Block2	incongruent/STIM_016.jpg
1324.733	0.523	correct	incongruent	Block2	incongruent/STIM_016.jpg
1328.804	0.483	correct	incongruent	Block2	incongruent/STIM_017.jpg
1332.154	0.305	incorrect	incongruent	Block2	incongruent/STIM_017.jpg
1335.82	0.31	correct	incongruent	Block2	incongruent/STIM_017.jpg
1338.991	0.454	correct	incongruent	Block2	incongruent/STIM_017.jpg
1341.479	0.479	correct	incongruent	Block2	incongruent/STIM_017.jpg
1344.316	0.325	correct	incongruent	Block2	incongruent/STIM_018.jpg
1347.689	0.447	correct	incongruent	Block2	incongruent/STIM_018.jpg
1350.708	0.46	correct	incongruent	Block2	incongruent/STIM_018.jpg
1355.012	0.391	correct	incongruent	Block2	incongruent/STIM_018.jpg
1357.732	0.275	incorrect	incongruent	Block2	incongruent/STIM_018.jpg
1361.315	0.396	correct	incongruent	Block2	incongruent/STIM_019.jpg
1364.973	0.515	correct	incongruent	Block2	incongruent/STIM_019.jpg
1368.745	0.357	correct	incongruent	Block2	incongruent/STIM_019.jpg
1371.821	0.524	correct	incongruent	Block2	incongruent/STIM_019.jpg
1375.082	0.381	incorrect	incongruent	Block2	incongruent/STIM_019.jpg
1378.396	0.645	incorrect	incongruent	Block2	incongruent/STIM_020.jpg
1382.152	0.51	correct	incongruent	Block2	incongruent/STIM_020.jpg
1385.322	0.396	incorrect	incongruent	Block2	incongruent/STIM_020.jpg
1387.973	0.356	correct	incongruent	Block2	incongruent/STIM_020.jpg
1391.037	0.342	incorrect	incongruent	Block2	incongruent/STIM_020.jpg
1395.094	0.523	incorrect	incongruent	Block2	incongruent/STIM_021.jpg
1399.316	0.614	correct	incongruent	Block2	incongruent/STIM_021.jpg
1402.982	0.302	incorrect	incongruent	Block2	incongruent/STIM_021.jpg
1407.058	0.538	correct	incongruent	Block2	incongruent/STIM_021.jpg
1410.463	0.449	incorrect	incongruent	Block2	incongruent/STIM_021.jpg
1413.996	0.537	correct	incongruent	Block2	incongruent/STIM_022.jpg
1417.406	0.31	correct	incongruent	Block2	incongruent/STIM_022.jpg
1420.768	0.388	correct	incongruent	Block2	incongruent/STIM_022.jpg
1424.008	0.376	correct	incongruent	Block2	incongruent/STIM_022.jpg
1427.227	0.327	incorrect	incongruent	Block2	incongruent/STIM_022.jpg
1430.505	0.648	incorrect	incongruent	Block2	incongruent/STIM_023.jpg
1433.729	0.6	correct	incongruent	Block2	incongruent/STIM_023.jpg
1436.811	0.347	incorrect	incongruent	Block2	incongruent/STIM_023.jpg
1439.514	0.498	correct	incongruent	Block2	incongruent/STIM_023.jpg
1443.556	0.405	correct	incongruent	Block2	incongruent/STIM_023.jpg
1446.769	0.631	correct	incongruent	Block2	incongruent/STIM_024.jpg
1450.152	0.501	correct	incongruent	Block2	incongruent/STIM_024.jpg
1454.58	0.53	correct	incongruent	Block2	incongruent/STIM_024.jpg
1459.051	0.5	correct	incongruent	Block2	incongruent/STIM_024.jpg
1461.865	0.447	incorrect	incongruent	Block2	incongruent/STIM_024.jpg
1465.706	0.508	correct	incongruent	Block2	incongruent/STIM_025.jpg
1469.173	0.455	correct	incongruent	Block2	incongruent/STIM_025.jpg
1472.612	0.301	correct	incongruent	Block2	incongruent/STIM_025.jpg
1476.159	0.426	incorrect	incongruent	Block2	incongruent/STIM_025.jpg
1479.096	0.334	correct	incongruent	Block2	incongruent/STIM_025.jpg
1483.311	0.591	incorrect	incongruent	Block2	incongruent/STIM_026.jpg
1487.172	0.455	incorrect	incongruent	Block2	incongruent/STIM_026.jpg
1489.861	0.548	correct	incongruent	Block2	incongruent/STIM_026.jpg
1494.256	0.269	incorrect	incongruent	Block2	incongruent/STIM_026.jpg
1497.144	0.36	correct	incongruent	Block2	incongruent/STIM_026.jpg
1500.742	0.669	correct	incongruent	Block2	incongruent/STIM_027.jpg
1505.36	0.506	correct	incongruent	Block2	incongruent/STIM_027.jpg
1509.308	0.284	correct	incongruent	Block2	incongruent/STIM_027.jpg
1511.849	0.343	incorrect	incongruent	Block2	incongruent/STIM_027.jpg
1514.761	0.482	correct	incongruent	Block2	incongruent/STIM_027.jpg
1517.591	0.424	correct	incongruent	Block2	incongruent/STIM_028.jpg
1521.475	0.396	correct	incongruent	Block2	incongruent/STIM_028.jpg
1524.211	0.371	correct	incongruent	Block2	incongruent/STIM_028.jpg
1527.436	0.285	incorrect	incongruent	Block2	incongruent/STIM_028.jpg
1531.698	0.503	correct	incongruent	Block2	incongruent/STIM_028.jpg
1535.684	0.386	incorrect	incongruent	Block2	incongruent/STIM_029.jpg
1538.15	0.352	correct	incongruent	Block2	incongruent/STIM_029.jpg
1541.455	0.522	incorrect	incongruent	Block2	incongruent/STIM_029.jpg
1545.344	0.475	correct	incongruent	Block2	incongruent/STIM_029.jpg
1549.125	0.323	correct	incongruent	Block2	incongruent/STIM_029.jpg
1553.172	0.428	incorrect	congruent	Block2	congruent/STIM_000.jpg
1557.494	0.445	correct	congruent	Block2	congruent/STIM_000.jpg
1560.67	0.404	correct	congruent	Block2	congruent/STIM_000.jpg
1564.641	0.37	correct	congruent	Block2	congruent/STIM_000.jpg
1567.177	0.281	correct	congruent	Block2	congruent/STIM_000.jpg
1570.159	0.459	correct	congruent	Block2	congruent/STIM_001.jpg
1574.48	0.291	correct	congruent	Block2	congruent/STIM_001.jpg
1577.254	0.461	correct	congruent	Block2	congruent/STIM_001.jpg
1581.054	0.467	incorrect	congruent	Block2	congruent/STIM_001.jpg
1584.646	0.401	incorrect	congruent	Block2	congruent/STIM_001.jpg
1587.102	0.448	correct	congruent	Block2	congruent/STIM_002.jpg
1590.023	0.34	incorrect	congruent	Block2	congruent/STIM_002.jpg
1593.43	0.325	correct	congruent	Block2	congruent/STIM_002.jpg
1596.256	0.441	correct	congruent	Block2	congruent/STIM_002.jpg
1600.498	0.431	correct	congruent	Block2	congruent/STIM_002.jpg
1603.091	0.412	correct	congruent	Block2	congruent/STIM_003.jpg
1606.358	0.3	incorrect	congruent	Block2	congruent/STIM_003.jpg
1610.278	0.433	incorrect	congruent	Block2	congruent/STIM_003.jpg
1614.018	0.466	correct	congruent	Block2	congruent/STIM_003.jpg
1618.066	0.33	incorrect	congruent	Block2	congruent/STIM_003.jpg
1621.033	0.42	incorrect	congruent	Block2	congruent/STIM_004.jpg
1625.21	0.289	correct	congruent	Block2	congruent/STIM_004.jpg
1628.143	0.283	correct	congruent	Block2	congruent/STIM_004.jpg
1632.363	0.45	correct	congruent	Block2	congruent/STIM_004.jpg
1636.702	0.434	incorrect	congruent	Block2	congruent/STIM_004.jpg
1640.678	0.38	correct	congruent	Block2	congruent/STIM_005.jpg
1644.772	0.326	correct	congruent	Block2	congruent/STIM_005.jpg
1649.002	0.434	correct	congruent	Block2	congruent/STIM_005.jpg
1653.198	0.434	correct	congruent	Block2	congruent/STIM_005.jpg
1655.74	0.315	correct	congruent	Block2	congruent/STIM_005.jpg
1659.1	0.39	incorrect	congruent	Block2	congruent/STIM_006.jpg
1662.687	0.366	correct	congruent	Block2	congruent/STIM_006.jpg
1666.042	0.324	incorrect	congruent	Block2	congruent/STIM_006.jpg
1668.584	0.356	correct	congruent	Block2	congruent/STIM_006.jpg
1672.58	0.47	correct	congruent	Block2	congruent/STIM_006.jpg
1675.278	0.449	incorrect	congruent	Block2	congruent/STIM_007.jpg
1679.56	0.281	incorrect	congruent	Block2	congruent/STIM_007.jpg
1682.478	0.342	correct	congruent	Block2	congruent/STIM_007.jpg
1685.643	0.394	incorrect	congruent	Block2	congruent/STIM_007.jpg
1688.206	0.356	correct	congruent	Block2	congruent/STIM_007.jpg
1690.851	0.43	incorrect	congruent	Block2	congruent/STIM_008.jpg
1693.436	0.444	correct	congruent	Block2	congruent/STIM_008.jpg
1696.536	0.379	correct	congruent	Block2	congruent/STIM_008.jpg
1699.773	0.333	correct	congruent	Block2	congruent/STIM_008.jpg
1703.515	0.466	incorrect	congruent	Block2	congruent/STIM_008.jpg
1706.794	0.385	correct	congruent	Block2	congruent/STIM_009.jpg
1710.255	0.406	incorrect	congruent	Block2	congruent/STIM_009.jpg
1713.416	0.341	correct	congruent	Block2	congruent/STIM_009.jpg
1716.864	0.383	incorrect	congruent	Block2	congruent/STIM_009.jpg
1720.354	0.352	correct	congruent	Block2	congruent/STIM_009.jpg
1724.52	0.446	correct	congruent	Block2	congruent/STIM_010.jpg
1728.056	0.39	correct	congruent	Block2	congruent/STIM_010.jpg
1731.501	0.282	correct	congruent	Block2	congruent/STIM_010.jpg
1735.268	0.35	incorrect	congruent	Block2	congruent/STIM_010.jpg
1738.875	0.383	correct	congruent	Block2	congruent/STIM_010.jpg
1742.652	0.405	correct	congruent	Block2	congruent/STIM_011.jpg
1746.351	0.472	incorrect	congruent	Block2	congruent/STIM_011.jpg
1749.596	0.277	correct	congruent	Block2	congruent/STIM_011.jpg
1753.214	0.266	correct	congruent	Block2	congruent/STIM_011.jpg
1755.606	0.456	incorrect	congruent	Block2	congruent/STIM_011.jpg
1759.836	0.308	incorrect	congruent	Block2	congruent/STIM_012.jpg
1763.254	0.412	incorrect	congruent	Block2	congruent/STIM_012.jpg
1767.423	0.401	correct	congruent	Block2	congruent/STIM_012.jpg
1771.672	0.457	correct	congruent	Block2	congruent/STIM_012.jpg
1776.087	0.33	correct	congruent	Block2	congruent/STIM_012.jpg
1780.149	0.42	correct	congruent	Block2	congruent/STIM_013.jpg
1783.392	0.309	correct	congruent	Block2	congruent/STIM_013.jpg
1786.66	0.454	correct	congruent	Block2	congruent/STIM_013.jpg
1789.691	0.441	correct	congruent	Block2	congruent/STIM_013.jpg
1793.161	0.275	correct	congruent	Block2	congruent/STIM_013.jpg
1795.879	0.416	incorrect	congruent	Block2	congruent/STIM_014.jpg
1799.165	0.414	incorrect	congruent	Block2	congruent/STIM_014.jpg
1802.024	0.362	correct	congruent	Block2	congruent/STIM_014.jpg
1805.597	0.366	incorrect	congruent	Block2	congruent/STIM_014.jpg
1808.279	0.347	correct	congruent	Block2	congruent/STIM_014.jpg
1811.298	0.43	correct	congruent	Block2	congruent/STIM_015.jpg
1814.501	0.359	incorrect	congruent	Block2	congruent/STIM_015.jpg
1817.463	0.301	correct	congruent	Block2	congruent/STIM_015.jpg
1820.258	0.361	correct	congruent	Block2	congruent/STIM_015.jpg
1823.512	0.269	incorrect	congruent	Block2	congruent/STIM_015.jpg
1826.907	0.313	incorrect	congruent	Block2	congruent/STIM_016.jpg
1830.085	0.328	correct	congruent	Block2	congruent/STIM_016.jpg
1834.303	0.354	correct	congruent	Block2	congruent/STIM_016.jpg
1837.167	0.334	incorrect	congruent	Block2	congruent/STIM_016.jpg
1840.36	0.274	incorrect	congruent	Block2	congruent/STIM_016.jpg
1844.402	0.45	incorrect	congruent	Block2	congruent/STIM_017.jpg
1848.222	0.409	incorrect	congruent	Block2	congruent/STIM_017.jpg
1851.147	0.332	correct	congruent	Block2	congruent/STIM_017.jpg
1854.874	0.307	correct	congruent	Block2	congruent/STIM_017.jpg
1857.334	0.28	incorrect	congruent	Block2	congruent/STIM_017.jpg
1860.426	0.44	correct	congruent	Block2	congruent/STIM_018.jpg
1864.278	0.442	correct	congruent	Block2	congruent/STIM_018.jpg
1868.684	0.317	incorrect	congruent	Block2	congruent/STIM_018.jpg
1872.271	0.344	correct	congruent	Block2	congruent/STIM_018.jpg
1874.901	0.343	incorrect	congruent	Block2	congruent/STIM_018.jpg
1878.648	0.332	correct	congruent	Block2	congruent/STIM_019.jpg
1882.824	0.358	correct	congruent	Block2	congruent/STIM_019.jpg
1885.314	0.315	incorrect	congruent	Block2	congruent/STIM_019.jpg
1887.866	0.434	incorrect	congruent	Block2	congruent/STIM_019.jpg
1891.543	0.428	correct	congruent	Block2	congruent/STIM_019.jpg
1894.383	0.398	correct	congruent	Block2	congruent/STIM_020.jpg
1897.888	0.313	correct	congruent	Block2	congruent/STIM_020.jpg
1902.158	0.281	incorrect	congruent	Block2	congruent/STIM_020.jpg
1905.07	0.367	incorrect	congruent	Block2	congruent/STIM_020.jpg
1908.381	0.41	incorrect	congruent	Block2	congruent/STIM_020.jpg
1912.342	0.329	incorrect	congruent	Block2	congruent/STIM_021.jpg
1916.385	0.368	correct	congruent	Block2	congruent/STIM_021.jpg
1919.553	0.4	correct	congruent	Block2	congruent/STIM_021.jpg
1923.714	0.419	correct	congruent	Block2	congruent/STIM_021.jpg
1926.174	0.308	correct	congruent	Block2	congruent/STIM_021.jpg
1930.036	0.284	correct	congruent	Block2	congruent/STIM_022.jpg
1934.204	0.4	correct	congruent	Block2	congruent/STIM_022.jpg
1938.541	0.422	correct	congruent	Block2	congruent/STIM_022.jpg
1942.806	0.319	incorrect	congruent	Block2	congruent/STIM_022.jpg
1946.742	0.353	incorrect	congruent	Block2	congruent/STIM_022.jpg
1950.149	0.438	correct	congruent	Block2	congruent/STIM_023.jpg
1953.57	0.44	correct	congruent	Block2	congruent/STIM_023.jpg
1957.219	0.335	correct	congruent	Block2	congruent/STIM_023.jpg
1959.665	0.346	incorrect	congruent	Block2	congruent/STIM_023.jpg
1962.888	0.454	incorrect	congruent	Block2	congruent/STIM_023.jpg
1965.491	0.373	correct	congruent	Block2	congruent/STIM_024.jpg
1968.313	0.388	correct	congruent	Block2	congruent/STIM_024.jpg
1972.361	0.271	incorrect	congruent	Block2	congruent/STIM_024.jpg
1975.506	0.278	correct	congruent	Block2	congruent/STIM_024.jpg
1978.512	0.348	incorrect	congruent	Block2	congruent/STIM_024.jpg
1981.155	0.447	incorrect	congruent	Block2	congruent/STIM_025.jpg
1984.68	0.334	correct	congruent	Block2	congruent/STIM_025.jpg
1987.068	0.319	correct	congruent	Block2	congruent/STIM_025.jpg
1990.87	0.323	correct	congruent	Block2	congruent/STIM_025.jpg
1993.635	0.432	correct	congruent	Block2	congruent/STIM_025.jpg
1997.898	0.352	correct	congruent	Block2	congruent/STIM_026.jpg
2000.53	0.372	correct	congruent	Block2	congruent/STIM_026.jpg
2004.249	0.46	incorrect	congruent	Block2	congruent/STIM_026.jpg
2007.631	0.422	incorrect	congruent	Block2	congruent/STIM_026.jpg
2011.356	0.272	correct	congruent	Block2	congruent/STIM_026.jpg
2014.027	0.299	correct	congruent	Block2	congruent/STIM_027.jpg
2018.066	0.325	correct	congruent	Block2	congruent/STIM_027.jpg
2021.075	0.312	correct	congruent	Block2	congruent/STIM_027.jpg
2023.804	0.323	incorrect	congruent	Block2	congruent/STIM_027.jpg
2026.174	0.31	correct	congruent	Block2	congruent/STIM_027.jpg
2029.732	0.277	incorrect	congruent	Block2	congruent/STIM_028.jpg
2032.472	0.371	correct	congruent	Block2	congruent/STIM_028.jpg
2035.947	0.398	correct	congruent	Block2	congruent/STIM_028.jpg
2039.157	0.354	correct	congruent	Block2	congruent/STIM_028.jpg
2043.417	0.279	correct	congruent	Block2	congruent/STIM_028.jpg
2047.324	0.301	correct	congruent	Block2	congruent/STIM_029.jpg
2049.718	0.277	incorrect	congruent	Block2	congruent/STIM_029.jpg
2052.072	0.382	correct	congruent	Block2	congruent/STIM_029.jpg
2055.422	0.452	incorrect	congruent	Block2	congruent/STIM_029.jpg
2058.11	0.283	correct	congruent	Block2	congruent/STIM_029.jpg
2060.895	0.394	correct	incongruent	Block3	incongruent/STIM_000.jpg
2063.883	0.282	correct	incongruent	Block3	incongruent/STIM_000.jpg
2067.908	0.289	correct	incongruent	Block3	incongruent/STIM_000.jpg
2071.648	0.426	correct	incongruent	Block3	incongruent/STIM_000.jpg
2074.185	0.532	correct	incongruent	Block3	incongruent/STIM_000.jpg
2077.817	0.365	incorrect	incongruent	Block3	incongruent/STIM_001.jpg
2080.786	0.534	incorrect	incongruent	Block3	incongruent/STIM_001.jpg
2084.171	0.282	correct	incongruent	Block3	incongruent/STIM_001.jpg
2086.821	0.348	correct	incongruent	Block3	incongruent/STIM_001.jpg
2091.107	0.511	correct	incongruent	Block3	incongruent/STIM_001.jpg
2095.387	0.379	incorrect	incongruent	Block3	incongruent/STIM_002.jpg
2099.602	0.508	incorrect	incongruent	Block3	incongruent/STIM_002.jpg
2102.758	0.288	correct	incongruent	Block3	incongruent/STIM_002.jpg
2106.373	0.544	correct	incongruent	Block3	incongruent/STIM_002.jpg
2109.537	0.511	incorrect	incongruent	Block3	incongruent/STIM_002.jpg
2112.256	0.478	correct	incongruent	Block3	incongruent/STIM_003.jpg
2116.476	0.413	incorrect	incongruent	Block3	incongruent/STIM_003.jpg
2120.216	0.401	incorrect	incongruent	Block3	incongruent/STIM_003.jpg
2123.417	0.396	correct	incongruent	Block3	incongruent/STIM_003.jpg
2127.304	0.319	correct	incongruent	Block3	incongruent/STIM_003.jpg
2130.213	0.416	incorrect	incongruent	Block3	incongruent/STIM_004.jpg
2133.94	0.41	correct	incongruent	Block3	incongruent/STIM_004.jpg
2137.079	0.425	correct	incongruent	Block3	incongruent/STIM_004.jpg
2140.356	0.475	correct	incongruent	Block3	incongruent/STIM_004.jpg
2143.609	0.456	correct	incongruent	Block3	incongruent/STIM_004.jpg
2146.138	0.482	incorrect	incongruent	Block3	incongruent/STIM_005.jpg
2148.659	0.454	correct	incongruent	Block3	incongruent/STIM_005.jpg
2151.423	0.33	incorrect	incongruent	Block3	incongruent/STIM_005.jpg
2155.346	0.39	incorrect	incongruent	Block3	incongruent/STIM_005.jpg
2158.217	0.369	correct	incongruent	Block3	incongruent/STIM_005.jpg
2160.757	0.333	incorrect	incongruent	Block3	incongruent/STIM_006.jpg
2164.921	0.522	correct	incongruent	Block3	incongruent/STIM_006.jpg
2167.544	0.438	correct	incongruent	Block3	incongruent/STIM_006.jpg
2170.422	0.48	correct	incongruent	Block3	incongruent/STIM_006.jpg
2173.029	0.394	correct	incongruent	Block3	incongruent/STIM_006.jpg
2176.908	0.37	correct	incongruent	Block3	incongruent/STIM_007.jpg
2179.61	0.416	correct	incongruent	Block3	incongruent/STIM_007.jpg
2182.604	0.449	correct	incongruent	Block3	incongruent/STIM_007.jpg
2187.008	0.478	correct	incongruent	Block3	incongruent/STIM_007.jpg
2190.447	0.472	incorrect	incongruent	Block3	incongruent/STIM_007.jpg
2193.677	0.472	correct	incongruent	Block3	incongruent/STIM_008.jpg
2198.101	0.414	correct	incongruent	Block3	incongruent/STIM_008.jpg
2201.902	0.324	correct	incongruent	Block3	incongruent/STIM_008.jpg
2205.349	0.507	correct	incongruent	Block3	incongruent/STIM_008.jpg
2208.291	0.531	correct	incongruent	Block3	incongruent/STIM_008.jpg
2212.162	0.395	correct	incongruent	Block3	incongruent/STIM_009.jpg
2215.84	0.27	incorrect	incongruent	Block3	incongruent/STIM_009.jpg
2219.693	0.493	incorrect	incongruent	Block3	incongruent/STIM_009.jpg
2224.169	0.43	correct	incongruent	Block3	incongruent/STIM_009.jpg
2226.878	0.277	correct	incongruent	Block3	incongruent/STIM_009.jpg
2230.006	0.332	incorrect	incongruent	Block3	incongruent/STIM_010.jpg
2233.668	0.361	incorrect	incongruent	Block3	incongruent/STIM_010.jpg
2236.144	0.41	correct	incongruent	Block3	incongruent/STIM_010.jpg
2239.726	0.441	incorrect	incongruent	Block3	incongruent/STIM_010.jpg
2243.456	0.42	incorrect	incongruent	Block3	incongruent/STIM_010.jpg
2247.036	0.32	correct	incongruent	Block3	incongruent/STIM_011.jpg
2251.237	0.51	correct	incongruent	Block3	incongruent/STIM_011.jpg
2254.324	0.478	correct	incongruent	Block3	incongruent/STIM_011.jpg
2257.618	0.47	incorrect	incongruent	Block3	incongruent/STIM_011.jpg
2260.597	0.363	correct	incongruent	Block3	incongruent/STIM_011.jpg
2263.583	0.517	correct	incongruent	Block3	incongruent/STIM_012.jpg
2266.59	0.378	correct	incongruent	Block3	incongruent/STIM_012.jpg
2270.076	0.363	correct	incongruent	Block3	incongruent/STIM_012.jpg
2272.956	0.298	correct	incongruent	Block3	incongruent/STIM_012.jpg
2276.947	0.335	correct	incongruent	Block3	incongruent/STIM_012.jpg
2280.793	0.525	correct	incongruent	Block3	incongruent/STIM_013.jpg
2283.485	0.294	correct	incongruent	Block3	incongruent/STIM_013.jpg
2286.39	0.338	correct	incongruent	Block3	incongruent/STIM_013.jpg
2289.406	0.308	correct	incongruent	Block3	incongruent/STIM_013.jpg
2293.279	0.286	correct	incongruent	Block3	incongruent/STIM_013.jpg
2295.641	0.318	incorrect	incongruent	Block3	incongruent/STIM_014.jpg
2298.309	0.336	correct	incongruent	Block3	incongruent/STIM_014.jpg
2300.976	0.545	correct	incongruent	Block3	incongruent/STIM_014.jpg
2303.958	0.444	correct	incongruent	Block3	incongruent/STIM_014.jpg
2308.401	0.458	incorrect	incongruent	Block3	incongruent/STIM_014.jpg
2311.145	0.335	correct	incongruent	Block3	incongruent/STIM_015.jpg
2315.338	0.316	correct	incongruent	Block3	incongruent/STIM_015.jpg
2318.743	0.402	correct	incongruent	Block3	incongruent/STIM_015.jpg
2322.319	0.539	incorrect	incongruent	Block3	incongruent/STIM_015.jpg
2326.609	0.267	incorrect	incongruent	Block3	incongruent/STIM_015.jpg
2330.794	0.375	correct	incongruent	Block3	incongruent/STIM_016.jpg
2334.488	0.353	correct	incongruent	Block3	incongruent/STIM_016.jpg
2336.879	0.358	correct	incongruent	Block3	incongruent/STIM_016.jpg
2341.179	0.478	correct	incongruent	Block3	incongruent/STIM_016.jpg
2344.976	0.476	correct	incongruent	Block3	incongruent/STIM_016.jpg
2348.59	0.421	correct	incongruent	Block3	incongruent/STIM_017.jpg
2351.67	0.419	correct	incongruent	Block3	incongruent/STIM_017.jpg
2354.589	0.399	incorrect	incongruent	Block3	incongruent/STIM_017.jpg
2358.224	0.391	incorrect	incongruent	Block3	incongruent/STIM_017.jpg
2360.958	0.384	incorrect	incongruent	Block3	incongruent/STIM_017.jpg
2363.547	0.417	correct	incongruent	Block3	incongruent/STIM_018.jpg
2366.514	0.342	correct	incongruent	Block3	incongruent/STIM_018.jpg
2368.948	0.361	correct	incongruent	Block3	incongruent/STIM_018.jpg
2371.99	0.412	incorrect	incongruent	Block3	incongruent/STIM_018.jpg
2375.244	0.472	incorrect	incongruent	Block3	incongruent/STIM_018.jpg
2378.576	0.435	correct	incongruent	Block3	incongruent/STIM_019.jpg
2381.603	0.366	correct	incongruent	Block3	incongruent/STIM_019.jpg
2385.566	0.416	correct	incongruent	Block3	incongruent/STIM_019.jpg
2389.855	0.416	correct	incongruent	Block3	incongruent/STIM_019.jpg
2393.282	0.312	correct	incongruent	Block3	incongruent/STIM_019.jpg
2396.052	0.465	incorrect	incongruent	Block3	incongruent/STIM_020.jpg
2399.059	0.441	correct	incongruent	Block3	incongruent/STIM_020.jpg
2401.567	0.325	correct	incongruent	Block3	incongruent/STIM_020.jpg
2405.115	0.284	correct	incongruent	Block3	incongruent/STIM_020.jpg
2409.01	0.423	correct	incongruent	Block3	incongruent/STIM_020.jpg
2412.727	0.28	correct	incongruent	Block3	incongruent/STIM_021.jpg
2415.138	0.315	correct	incongruent	Block3	incongruent/STIM_021.jpg
2418.461	0.54	incorrect	incongruent	Block3	incongruent/STIM_021.jpg
2421.369	0.314	incorrect	incongruent	Block3	incongruent/STIM_021.jpg
2423.806	0.362	correct	incongruent	Block3	incongruent/STIM_021.jpg
2427.055	0.452	correct	incongruent	Block3	incongruent/STIM_022.jpg
2431.473	0.301	correct	incongruent	Block3	incongruent/STIM_022.jpg
2435.54	0.422	correct	incongruent	Block3	incongruent/STIM_022.jpg
2439.107	0.441	correct	incongruent	Block3	incongruent/STIM_022.jpg
2443.265	0.437	correct	incongruent	Block3	incongruent/STIM_022.jpg
2446.706	0.389	incorrect	incongruent	Block3	incongruent/STIM_023.jpg
2450.168	0.539	incorrect	incongruent	Block3	incongruent/STIM_023.jpg
2453.541	0.347	correct	incongruent	Block3	incongruent/STIM_023.jpg
2456.692	0.414	incorrect	incongruent	Block3	incongruent/STIM_023.jpg
2459.297	0.48	correct	incongruent	Block3	incongruent/STIM_023.jpg
2462.546	0.314	correct	incongruent	Block3	incongruent/STIM_024.jpg
2465.524	0.488	correct	incongruent	Block3	incongruent/STIM_024.jpg
2469.614	0.482	correct	incongruent	Block3	incongruent/STIM_024.jpg
2472.788	0.43	correct	incongruent	Block3	incongruent/STIM_024.jpg
2475.453	0.536	correct	incongruent	Block3	incongruent/STIM_024.jpg
2478.001	0.28	incorrect	incongruent	Block3	incongruent/STIM_025.jpg
2480.311	0.326	correct	incongruent	Block3	incongruent/STIM_025.jpg
2483.732	0.268	correct	incongruent	Block3	incongruent/STIM_025.jpg
2487.15	0.428	incorrect	incongruent	Block3	incongruent/STIM_025.jpg
2491.103	0.531	incorrect	incongruent	Block3	incongruent/STIM_025.jpg
2494.919	0.426	correct	incongruent	Block3	incongruent/STIM_026.jpg
2498.909	0.413	correct	incongruent	Block3	incongruent/STIM_026.jpg
2501.622	0.388	incorrect	incongruent	Block3	incongruent/STIM_026.jpg
2505.248	0.309	correct	incongruent	Block3	incongruent/STIM_026.jpg
2507.992	0.51	correct	incongruent	Block3	incongruent/STIM_026.jpg
2512.344	0.4	incorrect	incongruent	Block3	incongruent/STIM_027.jpg
2515.839	0.27	incorrect	incongruent	Block3	incongruent/STIM_027.jpg
2518.995	0.361	correct	incongruent	Block3	incongruent/STIM_027.jpg
2523.264	0.307	correct	incongruent	Block3	incongruent/STIM_027.jpg
2527.446	0.411	correct	incongruent	Block3	incongruent/STIM_027.jpg
2531.329	0.514	correct	incongruent	Block3	incongruent/STIM_028.jpg
2535.454	0.338	correct	incongruent	Block3	incongruent/STIM_028.jpg
2538.24	0.533	incorrect	incongruent	Block3	incongruent/STIM_028.jpg
2542.673	0.438	correct	incongruent	Block3	incongruent/STIM_028.jpg
2545.26	0.5	correct	incongruent	Block3	incongruent/STIM_028.jpg
2549.255	0.384	correct	incongruent	Block3	incongruent/STIM_029.jpg
2552.714	0.269	correct	incongruent	Block3	incongruent/STIM_029.jpg
2555.052	0.509	correct	incongruent	Block3	incongruent/STIM_029.jpg
2558.497	0.339	correct	incongruent	Block3	incongruent/STIM_029.jpg
2562.216	0.306	incorrect	incongruent	Block3	incongruent/STIM_029.jpg
2566.366	0.346	correct	congruent	Block3	congruent/STIM_000.jpg
2569.656	0.35	correct	congruent	Block3	congruent/STIM_000.jpg
2572.821	0.471	correct	congruent	Block3	congruent/STIM_000.jpg
2575.75	0.44	incorrect	congruent	Block3	congruent/STIM_000.jpg
2579.632	0.356	incorrect	congruent	Block3	congruent/STIM_000.jpg
2582.09	0.279	correct	congruent	Block3	congruent/STIM_001.jpg
2584.374	0.426	incorrect	congruent	Block3	congruent/STIM_001.jpg
2587.333	0.308	correct	congruent	Block3	congruent/STIM_001.jpg
2590.193	0.448	correct	congruent	Block3	congruent/STIM_001.jpg
2594.286	0.341	correct	congruent	Block3	congruent/STIM_001.jpg
2598.303	0.265	correct	congruent	Block3	congruent/STIM_002.jpg
2600.837	0.356	correct	congruent	Block3	congruent/STIM_002.jpg
2604.703	0.448	correct	congruent	Block3	congruent/STIM_002.jpg
2608.357	0.311	correct	congruent	Block3	congruent/STIM_002.jpg
2612.237	0.461	correct	congruent	Block3	congruent/STIM_002.jpg
2616.067	0.417	incorrect	congruent	Block3	congruent/STIM_003.jpg
2618.617	0.453	incorrect	congruent	Block3	congruent/STIM_003.jpg
2621.103	0.462	correct	congruent	Block3	congruent/STIM_003.jpg
2624.725	0.322	incorrect	congruent	Block3	congruent/STIM_003.jpg
2628.531	0.473	correct	congruent	Block3	congruent/STIM_003.jpg
2632.843	0.432	incorrect	congruent	Block3	congruent/STIM_004.jpg
2636.181	0.264	correct	congruent	Block3	congruent/STIM_004.jpg
2639.12	0.286	incorrect	congruent	Block3	congruent/STIM_004.jpg
2642.083	0.279	correct	congruent	Block3	congruent/STIM_004.jpg
2645.925	0.302	correct	congruent	Block3	congruent/STIM_004.jpg
2648.575	0.371	correct	congruent	Block3	congruent/STIM_005.jpg
2650.995	0.287	correct	congruent	Block3	congruent/STIM_005.jpg
2653.627	0.385	correct	congruent	Block3	congruent/STIM_005.jpg
2656.611	0.374	correct	congruent	Block3	congruent/STIM_005.jpg
2660.187	0.368	correct	congruent	Block3	congruent/STIM_005.jpg
2663.736	0.272	correct	congruent	Block3	congruent/STIM_006.jpg
2666.641	0.443	correct	congruent	Block3	congruent/STIM_006.jpg
2670.176	0.47	correct	congruent	Block3	congruent/STIM_006.jpg
2673.801	0.285	correct	congruent	Block3	congruent/STIM_006.jpg
2677.362	0.279	correct	congruent	Block3	congruent/STIM_006.jpg
2681.609	0.411	correct	congruent	Block3	congruent/STIM_007.jpg
2684.455	0.314	correct	congruent	Block3	congruent/STIM_007.jpg
2688.13	0.361	correct	congruent	Block3	congruent/STIM_007.jpg
2692.122	0.422	correct	congruent	Block3	congruent/STIM_007.jpg
2695.198	0.468	correct	congruent	Block3	congruent/STIM_007.jpg
2699.462	0.438	correct	congruent	Block3	congruent/STIM_008.jpg
2703.326	0.41	correct	congruent	Block3	congruent/STIM_008.jpg
2707.23	0.312	correct	congruent	Block3	congruent/STIM_008.jpg
2711.395	0.366	incorrect	congruent	Block3	congruent/STIM_008.jpg
2715.264	0.468	correct	congruent	Block3	congruent/STIM_008.jpg
2718.5	0.462	incorrect	congruent	Block3	congruent/STIM_009.jpg
2722.117	0.282	correct	congruent	Block3	congruent/STIM_009.jpg
2725.936	0.288	correct	congruent	Block3	congruent/STIM_009.jpg
2728.606	0.265	correct	congruent	Block3	congruent/STIM_009.jpg
2731.75	0.3	correct	congruent	Block3	congruent/STIM_009.jpg
2735.625	0.311	incorrect	congruent	Block3	congruent/STIM_010.jpg
2739.737	0.349	correct	congruent	Block3	congruent/STIM_010.jpg
2743.925	0.33	incorrect	congruent	Block3	congruent/STIM_010.jpg
2747.666	0.358	correct	congruent	Block3	congruent/STIM_010.jpg
2750.672	0.363	incorrect	congruent	Block3	congruent/STIM_010.jpg
2754.189	0.471	correct	congruent	Block3	congruent/STIM_011.jpg
2756.663	0.411	correct	congruent	Block3	congruent/STIM_011.jpg
2759.515	0.372	incorrect	congruent	Block3	congruent/STIM_011.jpg
2762.418	0.452	correct	congruent	Block3	congruent/STIM_011.jpg
2765.828	0.318	correct	congruent	Block3	congruent/STIM_011.jpg
2768.813	0.269	incorrect	congruent	Block3	congruent/STIM_012.jpg
2772.999	0.378	incorrect	congruent	Block3	congruent/STIM_012.jpg
2776.907	0.408	correct	congruent	Block3	congruent/STIM_012.jpg
2780.325	0.42	correct	congruent	Block3	congruent/STIM_012.jpg
2782.79	0.267	incorrect	congruent	Block3	congruent/STIM_012.jpg
2785.642	0.321	incorrect	congruent	Block3	congruent/STIM_013.jpg
2788.543	0.464	incorrect	congruent	Block3	congruent/STIM_013.jpg
2792.819	0.35	correct	congruent	Block3	congruent/STIM_013.jpg
2796.739	0.312	correct	congruent	Block3	congruent/STIM_013.jpg
2799.368	0.306	correct	congruent	Block3	congruent/STIM_013.jpg
2803.637	0.339	correct	congruent	Block3	congruent/STIM_014.jpg
2807.147	0.342	correct	congruent	Block3	congruent/STIM_014.jpg
2810.646	0.416	correct	congruent	Block3	congruent/STIM_014.jpg
2813.684	0.404	correct	congruent	Block3	congruent/STIM_014.jpg
2817.91	0.285	correct	congruent	Block3	congruent/STIM_014.jpg
2821.954	0.268	incorrect	congruent	Block3	congruent/STIM_015.jpg
2824.42	0.36	incorrect	congruent	Block3	congruent/STIM_015.jpg
2828.637	0.363	incorrect	congruent	Block3	congruent/STIM_015.jpg
2832.536	0.383	correct	congruent	Block3	congruent/STIM_015.jpg
2836.316	0.326	correct	congruent	Block3	congruent/STIM_015.jpg
2840.489	0.471	correct	congruent	Block3	congruent/STIM_016.jpg
2844.303	0.269	incorrect	congruent	Block3	congruent/STIM_016.jpg
2848.258	0.42	incorrect	congruent	Block3	congruent/STIM_016.jpg
2851.024	0.445	correct	congruent	Block3	congruent/STIM_016.jpg
2854.687	0.46	correct	congruent	Block3	congruent/STIM_016.jpg
2857.329	0.372	correct	congruent	Block3	congruent/STIM_017.jpg
2860.706	0.32	incorrect	congruent	Block3	congruent/STIM_017.jpg
2864.63	0.41	correct	congruent	Block3	congruent/STIM_017.jpg
2867.347	0.315	correct	congruent	Block3	congruent/STIM_017.jpg
2870.039	0.306	correct	congruent	Block3	congruent/STIM_017.jpg
2874.117	0.277	incorrect	congruent	Block3	congruent/STIM_018.jpg
2876.46	0.326	correct	congruent	Block3	congruent/STIM_018.jpg
2880.47	0.432	correct	congruent	Block3	congruent/STIM_018.jpg
2884.722	0.397	incorrect	congruent	Block3	congruent/STIM_018.jpg
2887.635	0.365	correct	congruent	Block3	congruent/STIM_018.jpg
2891.931	0.42	correct	congruent	Block3	congruent/STIM_019.jpg
2895.255	0.35	correct	congruent	Block3	congruent/STIM_019.jpg
2898.379	0.322	correct	congruent	Block3	congruent/STIM_019.jpg
2902.323	0.266	incorrect	congruent	Block3	congruent/STIM_019.jpg
2906.483	0.435	correct	congruent	Block3	congruent/STIM_019.jpg
2909.843	0.387	correct	congruent	Block3	congruent/STIM_020.jpg
2914.214	0.308	correct	congruent	Block3	congruent/STIM_020.jpg
2916.66	0.31	correct	congruent	Block3	congruent/STIM_020.jpg
2920.129	0.424	correct	congruent	Block3	congruent/STIM_020.jpg
2922.9	0.354	correct	congruent	Block3	congruent/STIM_020.jpg
2926.894	0.35	correct	congruent	Block3	congruent/STIM_021.jpg
2930.503	0.341	incorrect	congruent	Block3	congruent/STIM_021.jpg
2934.29	0.388	correct	congruent	Block3	congruent/STIM_021.jpg
2937.446	0.455	correct	congruent	Block3	congruent/STIM_021.jpg
2940.818	0.339	correct	congruent	Block3	congruent/STIM_021.jpg
2943.652	0.366	correct	congruent	Block3	congruent/STIM_022.jpg
2947.754	0.278	correct	congruent	Block3	congruent/STIM_022.jpg
2950.588	0.456	correct	congruent	Block3	congruent/STIM_022.jpg
2954.616	0.436	correct	congruent	Block3	congruent/STIM_022.jpg
2957.235	0.311	incorrect	congruent	Block3	congruent/STIM_022.jpg
2961.392	0.396	correct	congruent	Block3	congruent/STIM_023.jpg
2965.644	0.425	correct	congruent	Block3	congruent/STIM_023.jpg
2969.254	0.358	correct	congruent	Block3	congruent/STIM_023.jpg
2972.396	0.285	correct	congruent	Block3	congruent/STIM_023.jpg
2976.196	0.296	incorrect	congruent	Block3	congruent/STIM_023.jpg
2978.599	0.346	correct	congruent	Block3	congruent/STIM_024.jpg
2981.57	0.397	correct	congruent	Block3	congruent/STIM_024.jpg
2984.1	0.296	incorrect	congruent	Block3	congruent/STIM_024.jpg
2987.1	0.312	incorrect	congruent	Block3	congruent/STIM_024.jpg
2990.117	0.381	correct	congruent	Block3	congruent/STIM_024.jpg
2993.314	0.37	incorrect	congruent	Block3	congruent/STIM_025.jpg
2996.622	0.444	correct	congruent	Block3	congruent/STIM_025.jpg
2999.154	0.372	incorrect	congruent	Block3	congruent/STIM_025.jpg
3002.466	0.28	correct	congruent	Block3	congruent/STIM_025.jpg
3004.851	0.298	incorrect	congruent	Block3	congruent/STIM_025.jpg
3007.974	0.458	correct	congruent	Block3	congruent/STIM_026.jpg
3010.93	0.445	incorrect	congruent	Block3	congruent/STIM_026.jpg
3014.689	0.436	correct	congruent	Block3	congruent/STIM_026.jpg
3017.936	0.422	correct	congruent	Block3	congruent/STIM_026.jpg
3022.07	0.467	incorrect	congruent	Block3	congruent/STIM_026.jpg
3025.712	0.434	incorrect	congruent	Block3	congruent/STIM_027.jpg
3029.541	0.457	correct	congruent	Block3	congruent/STIM_027.jpg
3032.639	0.282	correct	congruent	Block3	congruent/STIM_027.jpg
3035.866	0.279	correct	congruent	Block3	congruent/STIM_027.jpg
3038.264	0.278	correct	congruent	Block3	congruent/STIM_027.jpg
3042.379	0.363	incorrect	congruent	Block3	congruent/STIM_028.jpg
3045.823	0.392	incorrect	congruent	Block3	congruent/STIM_028.jpg
3048.741	0.306	correct	congruent	Block3	congruent/STIM_028.jpg
3052.607	0.418	incorrect	congruent	Block3	congruent/STIM_028.jpg
3055.848	0.433	incorrect	congruent	Block3	congruent/STIM_028.jpg
3059.413	0.346	incorrect	congruent	Block3	congruent/STIM_029.jpg
3062.682	0.335	incorrect	congruent	Block3	congruent/STIM_029.jpg
3066.569	0.373	incorrect	congruent	Block3	congruent/STIM_029.jpg
3069.389	0.356	correct	congruent	Block3	congruent/STIM_029.jpg
3072.598	0.463	correct	congruent	Block3	congruent/STIM_029.jpg
