onset	duration	response_time_ms	trial_type	learning_stage	stimulus	response_port
0.0	0.616	616.5	incongruent	Block1	incongruent/STIM_000.jpg	100
2.684	0.363	362.9	incongruent	Block1	incongruent/STIM_000.jpg	99
5.644	0.42	419.5	incongruent	Block1	incongruent/STIM_000.jpg	99
9.055	0.498	498.5	incongruent	Block1	incongruent/STIM_000.jpg	99
13.382	0.597	596.8	incongruent	Block1	incongruent/STIM_000.jpg	100
16.146	0.692	692.0	incongruent	Block1	incongruent/STIM_001.jpg	99
20.129	0.432	431.9	incongruent	Block1	incongruent/STIM_001.jpg	100
23.536	0.502	502.1	incongruent	Block1	incongruent/STIM_001.jpg	99
28.032	0.486	485.6	incongruent	Block1	incongruent/STIM_001.jpg	99
30.575	0.404	404.4	incongruent	Block1	incongruent/STIM_001.jpg	99
33.418	0.425	424.7	incongruent	Block1	incongruent/STIM_002.jpg	100
37.577	0.419	418.7	incongruent	Block1	incongruent/STIM_002.jpg	99
40.503	0.459	458.7	incongruent	Block1	incongruent/STIM_002.jpg	100
43.993	0.582	582.3	incongruent	Block1	incongruent/STIM_002.jpg	100
48.226	0.426	426.0	incongruent	Block1	incongruent/STIM_002.jpg	99
52.206	0.379	379.0	incongruent	Block1	incongruent/STIM_003.jpg	99
55.897	0.58	579.6	incongruent	Block1	incongruent/STIM_003.jpg	99
58.666	0.659	659.0	incongruent	Block1	incongruent/STIM_003.jpg	100
62.431	0.66	659.9	incongruent	Block1	incongruent/STIM_003.jpg	100
65.918	0.627	627.3	incongruent	Block1	incongruent/STIM_003.jpg	99
69.358	0.675	674.8	incongruent	Block1	incongruent/STIM_004.jpg	100
73.967	0.639	638.6	incongruent	Block1	incongruent/STIM_004.jpg	99
77.692	0.509	508.6	incongruent	Block1	incongruent/STIM_004.jpg	99
81.476	0.543	543.3	incongruent	Block1	incongruent/STIM_004.jpg	99
84.907	0.32	319.6	incongruent	Block1	incongruent/STIM_004.jpg	100
87.835	0.636	636.0	incongruent	Block1	incongruent/STIM_005.jpg	99
91.574	0.407	406.8	incongruent	Block1	incongruent/STIM_005.jpg	100
95.683	0.437	437.0	incongruent	Block1	incongruent/STIM_005.jpg	99
98.447	0.509	509.2	incongruent	Block1	incongruent/STIM_005.jpg	100
101.137	0.496	496.4	incongruent	Block1	incongruent/STIM_005.jpg	100
104.981	0.382	382.0	incongruent	Block1	incongruent/STIM_006.jpg	100
109.133	0.571	570.9	incongruent	Block1	incongruent/STIM_006.jpg	99
112.382	0.594	593.6	incongruent	Block1	incongruent/STIM_006.jpg	99
116.16	0.487	486.8	incongruent	Block1	incongruent/STIM_006.jpg	100
119.05	0.385	384.7	incongruent	Block1	incongruent/STIM_006.jpg	100
121.444	0.714	713.8	incongruent	Block1	incongruent/STIM_007.jpg	99
124.395	0.534	534.1	incongruent	Block1	incongruent/STIM_007.jpg	99
127.425	0.558	557.5	incongruent	Block1	incongruent/STIM_007.jpg	99
131.063	0.561	561.2	incongruent	Block1	incongruent/STIM_007.jpg	100
134.176	0.348	348.2	incongruent	Block1	incongruent/STIM_007.jpg	99
137.037	0.599	598.9	incongruent	Block1	incongruent/STIM_008.jpg	99
140.818	0.676	676.3	incongruent	Block1	incongruent/STIM_008.jpg	99
145.2	0.56	559.9	incongruent	Block1	incongruent/STIM_008.jpg	100
148.239	0.53	530.0	incongruent	Block1	incongruent/STIM_008.jpg	99
151.732	0.57	570.3	incongruent	Block1	incongruent/STIM_008.jpg	99
154.757	0.417	417.2	incongruent	Block1	incongruent/STIM_009.jpg	99
158.116	0.604	603.8	incongruent	Block1	incongruent/STIM_009.jpg	99
161.162	0.333	333.0	incongruent	Block1	incongruent/STIM_009.jpg	100
165.107	0.635	635.2	incongruent	Block1	incongruent/STIM_009.jpg	99
168.917	0.461	460.7	incongruent	Block1	incongruent/STIM_009.jpg	100
172.978	0.594	594.1	incongruent	Block1	incongruent/STIM_010.jpg	100
176.293	0.55	550.5	incongruent	Block1	incongruent/STIM_010.jpg	100
179.187	0.544	543.5	incongruent	Block1	incongruent/STIM_010.jpg	100
182.876	0.41	410.4	incongruent	Block1	incongruent/STIM_010.jpg	99
186.863	0.598	597.6	incongruent	Block1	incongruent/STIM_010.jpg	100
190.781	0.4	400.1	incongruent	Block1	incongruent/STIM_011.jpg	99
195.169	0.582	581.9	incongruent	Block1	incongruent/STIM_011.jpg	100
197.851	0.35	349.8	incongruent	Block1	incongruent/STIM_011.jpg	99
201.992	0.616	616.3	incongruent	Block1	incongruent/STIM_011.jpg	100
204.682	0.351	351.2	incongruent	Block1	incongruent/STIM_011.jpg	99
207.406	0.62	620.0	incongruent	Block1	incongruent/STIM_012.jpg	99
210.741	0.529	529.3	incongruent	Block1	incongruent/STIM_012.jpg	100
214.697	0.526	525.6	incongruent	Block1	incongruent/STIM_012.jpg	99
218.823	0.471	470.8	incongruent	Block1	incongruent/STIM_012.jpg	100
221.953	0.524	524.1	incongruent	Block1	incongruent/STIM_012.jpg	99
225.09	0.694	694.2	incongruent	Block1	incongruent/STIM_013.jpg	99
228.132	0.376	376.1	incongruent	Block1	incongruent/STIM_013.jpg	100
230.512	0.702	702.0	incongruent	Block1	incongruent/STIM_013.jpg	99
234.964	0.439	439.4	incongruent	Block1	incongruent/STIM_013.jpg	99
237.734	0.528	527.7	incongruent	Block1	incongruent/STIM_013.jpg	100
241.693	0.435	434.8	incongruent	Block1	incongruent/STIM_014.jpg	100
244.525	0.743	742.8	incongruent	Block1	incongruent/STIM_014.jpg	99
247.533	0.385	385.4	incongruent	Block1	incongruent/STIM_014.jpg	100
251.151	0.362	361.9	incongruent	Block1	incongruent/STIM_014.jpg	100
253.959	0.365	365.1	incongruent	Block1	incongruent/STIM_014.jpg	99
258.151	0.689	689.1	incongruent	Block1	incongruent/STIM_015.jpg	100
262.48	0.719	719.4	incongruent	Block1	incongruent/STIM_015.jpg	100
266.691	0.575	574.7	incongruent	Block1	incongruent/STIM_015.jpg	99
270.423	0.556	556.4	incongruent	Block1	incongruent/STIM_015.jpg	99
273.926	0.621	621.2	incongruent	Block1	incongruent/STIM_015.jpg	99
276.944	0.699	698.9	incongruent	Block1	incongruent/STIM_016.jpg	100
279.786	0.718	718.1	incongruent	Block1	incongruent/STIM_016.jpg	99
283.583	0.458	457.9	incongruent	Block1	incongruent/STIM_016.jpg	99
288.021	0.503	503.0	incongruent	Block1	incongruent/STIM_016.jpg	100
291.943	0.324	323.7	incongruent	Block1	incongruent/STIM_016.jpg	99
294.94	0.514	514.5	incongruent	Block1	incongruent/STIM_017.jpg	99
298.216	0.389	389.2	incongruent	Block1	incongruent/STIM_017.jpg	99
302.408	0.442	441.5	incongruent	Block1	incongruent/STIM_017.jpg	99
306.327	0.372	371.7	incongruent	Block1	incongruent/STIM_017.jpg	100
308.875	0.609	608.9	incongruent	Block1	incongruent/STIM_017.jpg	100
311.795	0.75	750.4	incongruent	Block1	incongruent/STIM_018.jpg	100
314.596	0.557	557.3	incongruent	Block1	incongruent/STIM_018.jpg	100
318.164	0.66	659.7	incongruent	Block1	incongruent/STIM_018.jpg	100
321.137	0.391	391.3	incongruent	Block1	incongruent/STIM_018.jpg	99
324.32	0.602	602.2	incongruent	Block1	incongruent/STIM_018.jpg	100
328.447	0.766	766.1	incongruent	Block1	incongruent/STIM_019.jpg	100
332.347	0.738	738.0	incongruent	Block1	incongruent/STIM_019.jpg	99
335.816	0.445	445.4	incongruent	Block1	incongruent/STIM_019.jpg	100
338.568	0.369	368.7	incongruent	Block1	incongruent/STIM_019.jpg	99
342.524	0.413	413.4	incongruent	Block1	incongruent/STIM_019.jpg	100
345.74	0.5	500.5	incongruent	Block1	incongruent/STIM_020.jpg	100
349.21	0.671	671.4	incongruent	Block1	incongruent/STIM_020.jpg	99
353.53	0.553	553.3	incongruent	Block1	incongruent/STIM_020.jpg	99
357.318	0.44	439.7	incongruent	Block1	incongruent/STIM_020.jpg	100
359.815	0.585	585.2	incongruent	Block1	incongruent/STIM_020.jpg	100
362.657	0.68	679.6	incongruent	Block1	incongruent/STIM_021.jpg	99
366.144	0.649	649.3	incongruent	Block1	incongruent/STIM_021.jpg	100
370.09	0.658	658.3	incongruent	Block1	incongruent/STIM_021.jpg	100
373.381	0.463	462.9	incongruent	Block1	incongruent/STIM_021.jpg	99
376.345	0.563	562.6	incongruent	Block1	incongruent/STIM_021.jpg	100
380.704	0.546	546.5	incongruent	Block1	incongruent/STIM_022.jpg	100
384.782	0.622	621.8	incongruent	Block1	incongruent/STIM_022.jpg	99
388.83	0.442	441.9	incongruent	Block1	incongruent/STIM_022.jpg	99
392.012	0.479	479.1	incongruent	Block1	incongruent/STIM_022.jpg	99
395.044	0.397	396.7	incongruent	Block1	incongruent/STIM_022.jpg	100
398.691	0.779	779.4	incongruent	Block1	incongruent/STIM_023.jpg	99
402.898	0.426	426.1	incongruent	Block1	incongruent/STIM_023.jpg	100
406.495	0.543	543.3	incongruent	Block1	incongruent/STIM_023.jpg	100
410.403	0.423	423.2	incongruent	Block1	incongruent/STIM_023.jpg	99
414.755	0.601	600.9	incongruent	Block1	incongruent/STIM_023.jpg	99
418.124	0.755	755.0	incongruent	Block1	incongruent/STIM_024.jpg	99
421.702	0.661	660.7	incongruent	Block1	incongruent/STIM_024.jpg	99
425.878	0.661	661.0	incongruent	Block1	incongruent/STIM_024.jpg	99
429.92	0.666	665.5	incongruent	Block1	incongruent/STIM_024.jpg	100
433.082	0.55	550.3	incongruent	Block1	incongruent/STIM_024.jpg	99
437.436	0.516	516.3	incongruent	Block1	incongruent/STIM_025.jpg	100
440.037	0.406	406.2	incongruent	Block1	incongruent/STIM_025.jpg	99
442.961	0.364	364.4	incongruent	Block1	incongruent/STIM_025.jpg	99
446.922	0.608	608.1	incongruent	Block1	incongruent/STIM_025.jpg	100
450.49	0.4	399.7	incongruent	Block1	incongruent/STIM_025.jpg	99
454.508	0.449	449.3	incongruent	Block1	incongruent/STIM_026.jpg	99
457.385	0.425	425.4	incongruent	Block1	incongruent/STIM_026.jpg	100
461.801	0.691	691.3	incongruent	Block1	incongruent/STIM_026.jpg	99
465.272	0.614	614.0	incongruent	Block1	incongruent/STIM_026.jpg	100
468.316	0.395	394.9	incongruent	Block1	incongruent/STIM_026.jpg	100
472.042	0.608	608.0	incongruent	Block1	incongruent/STIM_027.jpg	99
475.045	0.516	516.5	incongruent	Block1	incongruent/STIM_027.jpg	99
479.212	0.358	357.9	incongruent	Block1	incongruent/STIM_027.jpg	100
483.335	0.502	501.6	incongruent	Block1	incongruent/STIM_027.jpg	99
486.994	0.462	462.2	incongruent	Block1	incongruent/STIM_027.jpg	100
491.391	0.687	687.2	incongruent	Block1	incongruent/STIM_028.jpg	99
494.741	0.51	510.2	incongruent	Block1	incongruent/STIM_028.jpg	100
499.209	0.392	392.2	incongruent	Block1	incongruent/STIM_028.jpg	99
503.332	0.472	472.4	incongruent	Block1	incongruent/STIM_028.jpg	99
506.762	0.391	391.1	incongruent	Block1	incongruent/STIM_028.jpg	100
510.036	0.405	405.2	incongruent	Block1	incongruent/STIM_029.jpg	99
514.284	0.54	539.9	incongruent	Block1	incongruent/STIM_029.jpg	100
517.274	0.623	622.9	incongruent	Block1	incongruent/STIM_029.jpg	100
520.098	0.454	453.6	incongruent	Block1	incongruent/STIM_029.jpg	99
523.131	0.403	402.9	incongruent	Block1	incongruent/STIM_029.jpg	99
525.969	0.279	279.0	congruent	Block1	congruent/STIM_000.jpg	99
530.185	0.474	474.2	congruent	Block1	congruent/STIM_000.jpg	99
533.503	0.279	279.0	congruent	Block1	congruent/STIM_000.jpg	99
535.793	0.289	288.6	congruent	Block1	congruent/STIM_000.jpg	99
539.291	0.345	345.0	congruent	Block1	congruent/STIM_000.jpg	99
542.598	0.432	432.4	congruent	Block1	congruent/STIM_001.jpg	99
545.812	0.459	458.7	congruent	Block1	congruent/STIM_001.jpg	100
548.618	0.342	341.8	congruent	Block1	congruent/STIM_001.jpg	100
551.35	0.35	349.7	congruent	Block1	congruent/STIM_001.jpg	100
554.891	0.445	445.2	congruent	Block1	congruent/STIM_001.jpg	100
558.128	0.421	421.1	congruent	Block1	congruent/STIM_002.jpg	99
562.22	0.468	468.3	congruent	Block1	congruent/STIM_002.jpg	100
564.773	0.45	449.7	congruent	Block1	congruent/STIM_002.jpg	100
568.425	0.307	307.3	congruent	Block1	congruent/STIM_002.jpg	100
571.775	0.454	454.3	congruent	Block1	congruent/STIM_002.jpg	100
574.284	0.327	326.8	congruent	Block1	congruent/STIM_003.jpg	100
577.74	0.35	350.0	congruent	Block1	congruent/STIM_003.jpg	99
580.991	0.322	322.5	congruent	Block1	congruent/STIM_003.jpg	99
585.193	0.293	292.7	congruent	Block1	congruent/STIM_003.jpg	100
589.188	0.37	370.5	congruent	Block1	congruent/STIM_003.jpg	99
592.661	0.42	419.7	congruent	Block1	congruent/STIM_004.jpg	100
595.821	0.407	406.9	congruent	Block1	congruent/STIM_004.jpg	100
599.786	0.364	364.0	congruent	Block1	congruent/STIM_004.jpg	99
603.266	0.312	312.2	congruent	Block1	congruent/STIM_004.jpg	99
606.477	0.462	462.1	congruent	Block1	congruent/STIM_004.jpg	100
609.211	0.268	268.4	congruent	Block1	congruent/STIM_005.jpg	99
612.302	0.419	419.2	congruent	Block1	congruent/STIM_005.jpg	100
616.372	0.358	357.8	congruent	Block1	congruent/STIM_005.jpg	99
619.398	0.32	319.5	congruent	Block1	congruent/STIM_005.jpg	99
622.009	0.386	386.0	congruent	Block1	congruent/STIM_005.jpg	100
625.486	0.267	266.8	congruent	Block1	congruent/STIM_006.jpg	100
629.414	0.428	427.5	congruent	Block1	congruent/STIM_006.jpg	99
632.055	0.398	397.5	congruent	Block1	congruent/STIM_006.jpg	100
635.898	0.348	347.6	congruent	Block1	congruent/STIM_006.jpg	100
639.436	0.419	419.1	congruent	Block1	congruent/STIM_006.jpg	100
643.202	0.327	327.2	congruent	Block1	congruent/STIM_007.jpg	100
645.585	0.279	279.0	congruent	Block1	congruent/STIM_007.jpg	100
649.3	0.403	402.7	congruent	Block1	congruent/STIM_007.jpg	99
652.994	0.391	390.6	congruent	Block1	congruent/STIM_007.jpg	99
657.308	0.469	469.2	congruent	Block1	congruent/STIM_007.jpg	100
660.79	0.398	398.1	congruent	Block1	congruent/STIM_008.jpg	100
663.809	0.367	367.2	congruent	Block1	congruent/STIM_008.jpg	99
667.646	0.309	308.8	congruent	Block1	congruent/STIM_008.jpg	99
671.656	0.385	384.6	congruent	Block1	congruent/STIM_008.jpg	100
675.145	0.294	293.5	congruent	Block1	congruent/STIM_008.jpg	100
678.779	0.431	430.6	congruent	Block1	congruent/STIM_009.jpg	99
681.665	0.327	326.6	congruent	Block1	congruent/STIM_009.jpg	99
684.618	0.356	356.1	congruent	Block1	congruent/STIM_009.jpg	99
687.835	0.354	353.8	congruent	Block1	congruent/STIM_009.jpg	99
691.128	0.345	345.3	congruent	Block1	congruent/STIM_009.jpg	99
695.293	0.456	455.8	congruent	Block1	congruent/STIM_010.jpg	99
697.863	0.367	367.0	congruent	Block1	congruent/STIM_010.jpg	100
700.361	0.408	408.0	congruent	Block1	congruent/STIM_010.jpg	99
704.731	0.364	364.2	congruent	Block1	congruent/STIM_010.jpg	100
707.94	0.44	440.5	congruent	Block1	congruent/STIM_010.jpg	99
711.158	0.307	306.7	congruent	Block1	congruent/STIM_011.jpg	99
713.982	0.419	418.8	congruent	Block1	congruent/STIM_011.jpg	100
717.933	0.32	319.7	congruent	Block1	congruent/STIM_011.jpg	99
721.08	0.327	327.0	congruent	Block1	congruent/STIM_011.jpg	99
725.177	0.364	364.3	congruent	Block1	congruent/STIM_011.jpg	99
728.196	0.413	413.4	congruent	Block1	congruent/STIM_012.jpg	99
731.554	0.465	464.9	congruent	Block1	congruent/STIM_012.jpg	100
735.587	0.47	469.9	congruent	Block1	congruent/STIM_012.jpg	100
739.667	0.31	309.8	congruent	Block1	congruent/STIM_012.jpg	100
743.422	0.472	471.7	congruent	Block1	congruent/STIM_012.jpg	99
746.634	0.29	289.8	congruent	Block1	congruent/STIM_013.jpg	100
749.865	0.324	323.6	congruent	Block1	congruent/STIM_013.jpg	99
752.382	0.415	414.9	congruent	Block1	congruent/STIM_013.jpg	100
756.107	0.468	468.1	congruent	Block1	congruent/STIM_013.jpg	99
760.483	0.323	323.2	congruent	Block1	congruent/STIM_013.jpg	100
763.891	0.466	466.3	congruent	Block1	congruent/STIM_014.jpg	100
767.229	0.333	333.4	congruent	Block1	congruent/STIM_014.jpg	99
771.313	0.433	432.7	congruent	Block1	congruent/STIM_014.jpg	100
774.742	0.309	309.4	congruent	Block1	congruent/STIM_014.jpg	100
778.3	0.424	423.8	congruent	Block1	congruent/STIM_014.jpg	100
782.069	0.387	387.1	congruent	Block1	congruent/STIM_015.jpg	99
786.038	0.458	458.2	congruent	Block1	congruent/STIM_015.jpg	99
788.843	0.266	265.8	congruent	Block1	congruent/STIM_015.jpg	100
791.725	0.403	403.1	congruent	Block1	congruent/STIM_015.jpg	99
794.38	0.318	318.0	congruent	Block1	congruent/STIM_015.jpg	100
798.337	0.308	308.1	congruent	Block1	congruent/STIM_016.jpg	100
801.929	0.378	378.5	congruent	Block1	congruent/STIM_016.jpg	99
806.261	0.411	410.6	congruent	Block1	congruent/STIM_016.jpg	100
809.448	0.327	326.9	congruent	Block1	congruent/STIM_016.jpg	100
812.173	0.439	439.4	congruent	Block1	congruent/STIM_016.jpg	99
815.279	0.387	387.2	congruent	Block1	congruent/STIM_017.jpg	100
819.431	0.329	329.2	congruent	Block1	congruent/STIM_017.jpg	99
822.28	0.319	319.2	congruent	Block1	congruent/STIM_017.jpg	99
825.879	0.458	458.4	congruent	Block1	congruent/STIM_017.jpg	99
828.504	0.331	330.9	congruent	Block1	congruent/STIM_017.jpg	100
832.119	0.339	339.4	congruent	Block1	congruent/STIM_018.jpg	100
834.995	0.371	371.1	congruent	Block1	congruent/STIM_018.jpg	99
837.718	0.346	345.6	congruent	Block1	congruent/STIM_018.jpg	99
840.582	0.434	433.5	congruent	Block1	congruent/STIM_018.jpg	99
844.228	0.398	397.6	congruent	Block1	congruent/STIM_018.jpg	99
848.275	0.346	345.5	congruent	Block1	congruent/STIM_019.jpg	99
851.833	0.315	314.6	congruent	Block1	congruent/STIM_019.jpg	99
854.621	0.459	458.8	congruent	Block1	congruent/STIM_019.jpg	100
858.399	0.381	381.2	congruent	Block1	congruent/STIM_019.jpg	99
862.731	0.469	468.6	congruent	Block1	congruent/STIM_019.jpg	100
865.799	0.372	372.5	congruent	Block1	congruent/STIM_020.jpg	100
869.54	0.358	358.0	congruent	Block1	congruent/STIM_020.jpg	100
873.124	0.292	292.2	congruent	Block1	congruent/STIM_020.jpg	100
876.646	0.358	357.8	congruent	Block1	congruent/STIM_020.jpg	100
880.265	0.268	268.1	congruent	Block1	congruent/STIM_020.jpg	100
883.43	0.274	274.1	congruent	Block1	congruent/STIM_021.jpg	100
886.429	0.264	264.1	congruent	Block1	congruent/STIM_021.jpg	100
889.081	0.39	390.1	congruent	Block1	congruent/STIM_021.jpg	100
893.071	0.325	324.8	congruent	Block1	congruent/STIM_021.jpg	100
895.907	0.378	377.5	congruent	Block1	congruent/STIM_021.jpg	100
898.581	0.28	279.5	congruent	Block1	congruent/STIM_022.jpg	100
902.09	0.301	301.2	congruent	Block1	congruent/STIM_022.jpg	100
904.685	0.429	428.9	congruent	Block1	congruent/STIM_022.jpg	99
908.199	0.288	288.4	congruent	Block1	congruent/STIM_022.jpg	99
912.395	0.271	271.2	congruent	Block1	congruent/STIM_022.jpg	99
916.291	0.423	422.6	congruent	Block1	congruent/STIM_023.jpg	99
918.988	0.342	342.1	congruent	Block1	congruent/STIM_023.jpg	100
921.797	0.429	428.9	congruent	Block1	congruent/STIM_023.jpg	100
925.023	0.297	297.4	congruent	Block1	congruent/STIM_023.jpg	100
928.775	0.266	266.4	congruent	Block1	congruent/STIM_023.jpg	100
932.733	0.385	385.4	congruent	Block1	congruent/STIM_024.jpg	100
935.37	0.4	400.2	congruent	Block1	congruent/STIM_024.jpg	99
938.248	0.336	335.8	congruent	Block1	congruent/STIM_024.jpg	100
942.463	0.273	272.6	congruent	Block1	congruent/STIM_024.jpg	100
945.134	0.348	347.7	congruent	Block1	congruent/STIM_024.jpg	100
949.133	0.309	309.0	congruent	Block1	congruent/STIM_025.jpg	99
951.795	0.403	403.4	congruent	Block1	congruent/STIM_025.jpg	99
955.118	0.327	327.1	congruent	Block1	congruent/STIM_025.jpg	100
958.058	0.459	459.2	congruent	Block1	congruent/STIM_025.jpg	100
962.313	0.371	370.6	congruent	Block1	congruent/STIM_025.jpg	99
966.317	0.428	428.5	congruent	Block1	congruent/STIM_026.jpg	99
969.55	0.313	313.4	congruent	Block1	congruent/STIM_026.jpg	100
973.36	0.459	459.0	congruent	Block1	congruent/STIM_026.jpg	99
976.281	0.301	301.1	congruent	Block1	congruent/STIM_026.jpg	99
979.704	0.43	430.1	congruent	Block1	congruent/STIM_026.jpg	100
982.32	0.311	310.8	congruent	Block1	congruent/STIM_027.jpg	100
984.699	0.428	428.1	congruent	Block1	congruent/STIM_027.jpg	100
988.378	0.44	439.8	congruent	Block1	congruent/STIM_027.jpg	100
991.407	0.372	372.0	congruent	Block1	congruent/STIM_027.jpg	100
995.771	0.368	367.7	congruent	Block1	congruent/STIM_027.jpg	100
999.001	0.271	270.6	congruent	Block1	congruent/STIM_028.jpg	100
1002.02	0.355	354.8	congruent	Block1	congruent/STIM_028.jpg	100
1005.765	0.441	440.6	congruent	Block1	congruent/STIM_028.jpg	100
1009.737	0.35	349.6	congruent	Block1	congruent/STIM_028.jpg	99
1013.952	0.303	303.3	congruent	Block1	congruent/STIM_028.jpg	99
1017.419	0.443	443.2	congruent	Block1	congruent/STIM_029.jpg	99
1020.469	0.365	365.3	congruent	Block1	congruent/STIM_029.jpg	99
1023.049	0.37	370.4	congruent	Block1	congruent/STIM_029.jpg	100
1026.91	0.31	310.0	congruent	Block1	congruent/STIM_029.jpg	100
1029.241	0.348	347.8	congruent	Block1	congruent/STIM_029.jpg	100
1033.51	0.54	540.4	incongruent	Block2	incongruent/STIM_000.jpg	99
1037.714	0.365	365.4	incongruent	Block2	incongruent/STIM_000.jpg	99
1041.72	0.385	384.7	incongruent	Block2	incongruent/STIM_000.jpg	99
1045.879	0.54	540.1	incongruent	Block2	incongruent/STIM_000.jpg	99
1050.274	0.497	497.2	incongruent	Block2	incongruent/STIM_000.jpg	100
1054.084	0.365	364.8	incongruent	Block2	incongruent/STIM_001.jpg	100
1057.986	0.602	601.9	incongruent	Block2	incongruent/STIM_001.jpg	100
1062.092	0.335	335.0	incongruent	Block2	incongruent/STIM_001.jpg	100
1065.827	0.294	294.3	incongruent	Block2	incongruent/STIM_001.jpg	99
1068.814	0.457	457.4	incongruent	Block2	incongruent/STIM_001.jpg	99
1073.015	0.539	538.7	incongruent	Block2	incongruent/STIM_002.jpg	99
1077.333	0.319	319.1	incongruent	Block2	incongruent/STIM_002.jpg	99
1080.015	0.546	546.4	incongruent	Block2	incongruent/STIM_002.jpg	100
1084.379	0.375	375.3	incongruent	Block2	incongruent/STIM_002.jpg	100
1086.859	0.291	291.1	incongruent	Block2	incongruent/STIM_002.jpg	99
1089.482	0.545	545.1	incongruent	Block2	incongruent/STIM_003.jpg	100
1092.89	0.409	409.3	incongruent	Block2	incongruent/STIM_003.jpg	100
1095.457	0.494	493.9	incongruent	Block2	incongruent/STIM_003.jpg	99
1099.252	0.542	541.6	incongruent	Block2	incongruent/STIM_003.jpg	100
1102.687	0.505	505.4	incongruent	Block2	incongruent/STIM_003.jpg	100
1107.175	0.365	364.6	incongruent	Block2	incongruent/STIM_004.jpg	99
1110.755	0.352	351.7	incongruent	Block2	incongruent/STIM_004.jpg	100
1114.277	0.534	533.6	incongruent	Block2	incongruent/STIM_004.jpg	99
1117.397	0.549	548.7	incongruent	Block2	incongruent/STIM_004.jpg	100
1121.293	0.347	347.3	incongruent	Block2	incongruent/STIM_004.jpg	100
1125.323	0.501	500.8	incongruent	Block2	incongruent/STIM_005.jpg	99
1128.34	0.448	448.4	incongruent	Block2	incongruent/STIM_005.jpg	100
1131.262	0.419	419.1	incongruent	Block2	incongruent/STIM_005.jpg	99
1134.507	0.405	404.9	incongruent	Block2	incongruent/STIM_005.jpg	99
1138.37	0.289	289.0	incongruent	Block2	incongruent/STIM_005.jpg	99
1141.943	0.444	443.8	incongruent	Block2	incongruent/STIM_006.jpg	100
1144.739	0.3	300.4	incongruent	Block2	incongruent/STIM_006.jpg	100
1147.87	0.46	460.2	incongruent	Block2	incongruent/STIM_006.jpg	100
1151.388	0.389	389.2	incongruent	Block2	incongruent/STIM_006.jpg	100
1154.741	0.408	407.7	incongruent	Block2	incongruent/STIM_006.jpg	100
1157.626	0.363	362.9	incongruent	Block2	incongruent/STIM_007.jpg	100
1161.807	0.512	512.3	incongruent	Block2	incongruent/STIM_007.jpg	100
1166.063	0.421	420.8	incongruent	Block2	incongruent/STIM_007.jpg	100
1168.592	0.428	428.5	incongruent	Block2	incongruent/STIM_007.jpg	99
1171.633	0.485	485.0	incongruent	Block2	incongruent/STIM_007.jpg	100
1175.604	0.458	457.7	incongruent	Block2	incongruent/STIM_008.jpg	100
1179.038	0.33	330.5	incongruent	Block2	incongruent/STIM_008.jpg	99
1182.356	0.503	502.8	incongruent	Block2	incongruent/STIM_008.jpg	99
1185.622	0.505	505.2	incongruent	Block2	incongruent/STIM_008.jpg	99
1188.415	0.414	414.0	incongruent	Block2	incongruent/STIM_008.jpg	99
1192.022	0.523	523.3	incongruent	Block2	incongruent/STIM_009.jpg	99
1195.707	0.342	342.3	incongruent	Block2	incongruent/STIM_009.jpg	99
1199.711	0.561	560.8	incongruent	Block2	incongruent/STIM_009.jpg	100
1203.382	0.282	282.2	incongruent	Block2	incongruent/STIM_009.jpg	100
1206.489	0.426	426.5	incongruent	Block2	incongruent/STIM_009.jpg	99
1209.375	0.636	636.5	incongruent	Block2	incongruent/STIM_010.jpg	99
1213.639	0.498	498.0	incongruent	Block2	incongruent/STIM_010.jpg	100
1217.647	0.404	403.6	incongruent	Block2	incongruent/STIM_010.jpg	100
1221.09	0.41	409.6	incongruent	Block2	incongruent/STIM_010.jpg	99
1223.531	0.47	469.8	incongruent	Block2	incongruent/STIM_010.jpg	100
1227.198	0.618	618.0	incongruent	Block2	incongruent/STIM_011.jpg	100
1229.822	0.403	403.2	incongruent	Block2	incongruent/STIM_011.jpg	100
1232.598	0.379	378.7	incongruent	Block2	incongruent/STIM_011.jpg	100
1235.958	0.52	520.0	incongruent	Block2	incongruent/STIM_011.jpg	99
1239.31	0.47	470.5	incongruent	Block2	incongruent/STIM_011.jpg	99
1242.331	0.599	598.7	incongruent	Block2	incongruent/STIM_012.jpg	99
1246.324	0.444	443.7	incongruent	Block2	incongruent/STIM_012.jpg	99
1249.543	0.516	515.7	incongruent	Block2	incongruent/STIM_012.jpg	99
1252.189	0.463	463.3	incongruent	Block2	incongruent/STIM_012.jpg	99
1255.989	0.47	469.5	incongruent	Block2	incongruent/STIM_012.jpg	100
1260.406	0.317	316.6	incongruent	Block2	incongruent/STIM_013.jpg	99
1263.867	0.433	432.9	incongruent	Block2	incongruent/STIM_013.jpg	99
1267.964	0.481	480.9	incongruent	Block2	incongruent/STIM_013.jpg	99
1271.085	0.43	430.2	incongruent	Block2	incongruent/STIM_013.jpg	100
1274.396	0.322	321.6	incongruent	Block2	incongruent/STIM_013.jpg	100
1277.755	0.471	471.4	incongruent	Block2	incongruent/STIM_014.jpg	99
1281.942	0.432	432.1	incongruent	Block2	incongruent/STIM_014.jpg	99
1285.412	0.315	315.4	incongruent	Block2	incongruent/STIM_014.jpg	100
1288.898	0.351	350.9	incongruent	Block2	incongruent/STIM_014.jpg	100
1292.01	0.538	538.2	incongruent	Block2	incongruent/STIM_014.jpg	100
1295.318	0.443	442.6	incongruent	Block2	incongruent/STIM_015.jpg	100
1298.221	0.599	599.3	incongruent	Block2	incongruent/STIM_015.jpg	99
1301.835	0.339	338.6	incongruent	Block2	incongruent/STIM_015.jpg	100
1305.824	0.506	506.0	incongruent	Block2	incongruent/STIM_015.jpg	100
1309.409	0.487	487.3	incongruent	Block2	incongruent/STIM_015.jpg	100
1312.248	0.412	411.6	incongruent	Block2	incongruent/STIM_016.jpg	100
1316.402	0.374	374.1	incongruent	Block2	incongruent/STIM_016.jpg	99
1318.821	0.496	495.6	incongruent	Block2	incongruent/STIM_016.jpg	100
1321.927	0.525	524.9	incongruent	Block2	incongruent/STIM_016.jpg	99
1324.733	0.523	522.6	incongruent	Block2	incongruent/STIM_016.jpg	99
1328.804	0.483	483.1	incongruent	Block2	incongruent/STIM_017.jpg	99
1332.154	0.305	304.7	incongruent	Block2	incongruent/STIM_017.jpg	100
1335.82	0.31	310.0	incongruent	Block2	incongruent/STIM_017.jpg	100
1338.991	0.454	453.8	incongruent	Block2	incongruent/STIM_017.jpg	99
1341.479	0.479	479.4	incongruent	Block2	incongruent/STIM_017.jpg	99
1344.316	0.325	325.0	incongruent	Block2	incongruent/STIM_018.jpg	99
1347.689	0.447	446.8	incongruent	Block2	incongruent/STIM_018.jpg	100
1350.708	0.46	459.8	incongruent	Block2	incongruent/STIM_018.jpg	100
1355.012	0.391	390.9	incongruent	Block2	incongruent/STIM_018.jpg	100
1357.732	0.275	275.2	incongruent	Block2	incongruent/STIM_018.jpg	100
1361.315	0.396	396.0	incongruent	Block2	incongruent/STIM_019.jpg	99
1364.973	0.515	514.9	incongruent	Block2	incongruent/STIM_019.jpg	100
1368.745	0.357	356.7	incongruent	Block2	incongruent/STIM_019.jpg	99
1371.821	0.524	524.3	incongruent	Block2	incongruent/STIM_019.jpg	100
1375.082	0.381	380.7	incongruent	Block2	incongruent/STIM_019.jpg	100
1378.396	0.645	644.8	incongruent	Block2	incongruent/STIM_020.jpg	99
1382.152	0.51	509.9	incongruent	Block2	incongruent/STIM_020.jpg	99
1385.322	0.396	395.6	incongruent	Block2	incongruent/STIM_020.jpg	100
1387.973	0.356	355.6	incongruent	Block2	incongruent/STIM_020.jpg	99
1391.037	0.342	341.8	incongruent	Block2	incongruent/STIM_020.jpg	100
1395.094	0.523	522.7	incongruent	Block2	incongruent/STIM_021.jpg	100
1399.316	0.614	614.0	incongruent	Block2	incongruent/STIM_021.jpg	100
1402.982	0.302	301.9	incongruent	Block2	incongruent/STIM_021.jpg	100
1407.058	0.538	538.3	incongruent	Block2	incongruent/STIM_021.jpg	99
1410.463	0.449	448.8	incongruent	Block2	incongruent/STIM_021.jpg	100
1413.996	0.537	536.9	incongruent	Block2	incongruent/STIM_022.jpg	100
1417.406	0.31	310.3	incongruent	Block2	incongruent/STIM_022.jpg	99
1420.768	0.388	387.5	incongruent	Block2	incongruent/STIM_022.jpg	100
1424.008	0.376	375.5	incongruent	Block2	incongruent/STIM_022.jpg	100
1427.227	0.327	326.8	incongruent	Block2	incongruent/STIM_022.jpg	99
1430.505	0.648	647.7	incongruent	Block2	incongruent/STIM_023.jpg	100
1433.729	0.6	599.5	incongruent	Block2	incongruent/STIM_023.jpg	100
1436.811	0.347	347.4	incongruent	Block2	incongruent/STIM_023.jpg	100
1439.514	0.498	497.8	incongruent	Block2	incongruent/STIM_023.jpg	100
1443.556	0.405	405.4	incongruent	Block2	incongruent/STIM_023.jpg	100
1446.769	0.631	631.4	incongruent	Block2	incongruent/STIM_024.jpg	100
1450.152	0.501	500.6	incongruent	Block2	incongruent/STIM_024.jpg	100
1454.58	0.53	530.4	incongruent	Block2	incongruent/STIM_024.jpg	100
1459.051	0.5	499.9	incongruent	Block2	incongruent/STIM_024.jpg	99
1461.865	0.447	447.0	incongruent	Block2	incongruent/STIM_024.jpg	99
1465.706	0.508	508.4	incongruent	Block2	incongruent/STIM_025.jpg	99
1469.173	0.455	455.2	incongruent	Block2	incongruent/STIM_025.jpg	100
1472.612	0.301	301.1	incongruent	Block2	incongruent/STIM_025.jpg	100
1476.159	0.426	425.8	incongruent	Block2	incongruent/STIM_025.jpg	100
1479.096	0.334	333.9	incongruent	Block2	incongruent/STIM_025.jpg	100
1483.311	0.591	590.7	incongruent	Block2	incongruent/STIM_026.jpg	100
1487.172	0.455	454.6	incongruent	Block2	incongruent/STIM_026.jpg	99
1489.861	0.548	548.0	incongruent	Block2	incongruent/STIM_026.jpg	99
1494.256	0.269	268.9	incongruent	Block2	incongruent/STIM_026.jpg	100
1497.144	0.36	360.5	incongruent	Block2	incongruent/STIM_026.jpg	99
1500.742	0.669	669.1	incongruent	Block2	incongruent/STIM_027.jpg	99
1505.36	0.506	505.6	incongruent	Block2	incongruent/STIM_027.jpg	100
1509.308	0.284	284.4	incongruent	Block2	incongruent/STIM_027.jpg	99
1511.849	0.343	343.0	incongruent	Block2	incongruent/STIM_027.jpg	99
1514.761	0.482	481.5	incongruent	Block2	incongruent/STIM_027.jpg	100
1517.591	0.424	423.8	incongruent	Block2	incongruent/STIM_028.jpg	99
1521.475	0.396	396.1	incongruent	Block2	incongruent/STIM_028.jpg	100
1524.211	0.371	371.3	incongruent	Block2	incongruent/STIM_028.jpg	99
1527.436	0.285	284.7	incongruent	Block2	incongruent/STIM_028.jpg	100
1531.698	0.503	502.6	incongruent	Block2	incongruent/STIM_028.jpg	99
1535.684	0.386	385.8	incongruent	Block2	incongruent/STIM_029.jpg	100
1538.15	0.352	352.2	incongruent	Block2	incongruent/STIM_029.jpg	99
1541.455	0.522	522.0	incongruent	Block2	incongruent/STIM_029.jpg	100
1545.344	0.475	474.8	incongruent	Block2	incongruent/STIM_029.jpg	99
1549.125	0.323	322.7	incongruent	Block2	incongruent/STIM_029.jpg	100
1553.172	0.428	428.3	congruent	Block2	congruent/STIM_000.jpg	100
1557.494	0.445	445.4	congruent	Block2	congruent/STIM_000.jpg	100
1560.67	0.404	404.5	congruent	Block2	congruent/STIM_000.jpg	100
1564.641	0.37	370.0	congruent	Block2	congruent/STIM_000.jpg	99
1567.177	0.281	280.7	congruent	Block2	congruent/STIM_000.jpg	100
1570.159	0.459	459.2	congruent	Block2	congruent/STIM_001.jpg	100
1574.48	0.291	290.7	congruent	Block2	congruent/STIM_001.jpg	100
1577.254	0.461	461.1	congruent	Block2	congruent/STIM_001.jpg	100
1581.054	0.467	466.7	congruent	Block2	congruent/STIM_001.jpg	99
1584.646	0.401	400.8	congruent	Block2	congruent/STIM_001.jpg	100
1587.102	0.448	447.6	congruent	Block2	congruent/STIM_002.jpg	99
1590.023	0.34	340.0	congruent	Block2	congruent/STIM_002.jpg	99
1593.43	0.325	325.3	congruent	Block2	congruent/STIM_002.jpg	100
1596.256	0.441	440.6	congruent	Block2	congruent/STIM_002.jpg	100
1600.498	0.431	431.4	congruent	Block2	congruent/STIM_002.jpg	99
1603.091	0.412	411.9	congruent	Block2	congruent/STIM_003.jpg	100
1606.358	0.3	299.9	congruent	Block2	congruent/STIM_003.jpg	100
1610.278	0.433	432.8	congruent	Block2	congruent/STIM_003.jpg	100
1614.018	0.466	466.0	congruent	Block2	congruent/STIM_003.jpg	99
1618.066	0.33	329.6	congruent	Block2	congruent/STIM_003.jpg	99
1621.033	0.42	419.6	congruent	Block2	congruent/STIM_004.jpg	99
1625.21	0.289	289.4	congruent	Block2	congruent/STIM_004.jpg	100
1628.143	0.283	282.8	congruent	Block2	congruent/STIM_004.jpg	100
1632.363	0.45	450.3	congruent	Block2	congruent/STIM_004.jpg	100
1636.702	0.434	434.2	congruent	Block2	congruent/STIM_004.jpg	100
1640.678	0.38	380.0	congruent	Block2	congruent/STIM_005.jpg	99
1644.772	0.326	326.2	congruent	Block2	congruent/STIM_005.jpg	99
1649.002	0.434	433.5	congruent	Block2	congruent/STIM_005.jpg	99
1653.198	0.434	434.0	congruent	Block2	congruent/STIM_005.jpg	100
1655.74	0.315	315.4	congruent	Block2	congruent/STIM_005.jpg	100
1659.1	0.39	389.7	congruent	Block2	congruent/STIM_006.jpg	99
1662.687	0.366	366.2	congruent	Block2	congruent/STIM_006.jpg	99
1666.042	0.324	323.6	congruent	Block2	congruent/STIM_006.jpg	99
1668.584	0.356	356.4	congruent	Block2	congruent/STIM_006.jpg	99
1672.58	0.47	469.5	congruent	Block2	congruent/STIM_006.jpg	100
1675.278	0.449	448.9	congruent	Block2	congruent/STIM_007.jpg	100
1679.56	0.281	280.9	congruent	Block2	congruent/STIM_007.jpg	100
1682.478	0.342	342.1	congruent	Block2	congruent/STIM_007.jpg	100
1685.643	0.394	393.8	congruent	Block2	congruent/STIM_007.jpg	100
1688.206	0.356	356.0	congruent	Block2	congruent/STIM_007.jpg	100
1690.851	0.43	430.2	congruent	Block2	congruent/STIM_008.jpg	100
1693.436	0.444	444.0	congruent	Block2	congruent/STIM_008.jpg	99
1696.536	0.379	378.6	congruent	Block2	congruent/STIM_008.jpg	99
1699.773	0.333	332.7	congruent	Block2	congruent/STIM_008.jpg	99
1703.515	0.466	465.8	congruent	Block2	congruent/STIM_008.jpg	100
1706.794	0.385	385.3	congruent	Block2	congruent/STIM_009.jpg	100
1710.255	0.406	406.0	congruent	Block2	congruent/STIM_009.jpg	100
1713.416	0.341	341.3	congruent	Block2	congruent/STIM_009.jpg	99
1716.864	0.383	383.1	congruent	Block2	congruent/STIM_009.jpg	100
1720.354	0.352	351.8	congruent	Block2	congruent/STIM_009.jpg	99
1724.52	0.446	445.9	congruent	Block2	congruent/STIM_010.jpg	100
1728.056	0.39	389.7	congruent	Block2	congruent/STIM_010.jpg	100
1731.501	0.282	281.5	congruent	Block2	congruent/STIM_010.jpg	100
1735.268	0.35	349.9	congruent	Block2	congruent/STIM_010.jpg	99
1738.875	0.383	382.8	congruent	Block2	congruent/STIM_010.jpg	100
1742.652	0.405	404.9	congruent	Block2	congruent/STIM_011.jpg	99
1746.351	0.472	471.5	congruent	Block2	congruent/STIM_011.jpg	99
1749.596	0.277	276.9	congruent	Block2	congruent/STIM_011.jpg	99
1753.214	0.266	266.1	congruent	Block2	congruent/STIM_011.jpg	99
1755.606	0.456	456.3	congruent	Block2	congruent/STIM_011.jpg	99
1759.836	0.308	307.8	congruent	Block2	congruent/STIM_012.jpg	99
1763.254	0.412	412.1	congruent	Block2	congruent/STIM_012.jpg	99
1767.423	0.401	401.2	congruent	Block2	congruent/STIM_012.jpg	99
1771.672	0.457	457.4	congruent	Block2	congruent/STIM_012.jpg	100
1776.087	0.33	330.3	congruent	Block2	congruent/STIM_012.jpg	99
1780.149	0.42	420.1	congruent	Block2	congruent/STIM_013.jpg	100
1783.392	0.309	309.2	congruent	Block2	congruent/STIM_013.jpg	100
1786.66	0.454	453.7	congruent	Block2	congruent/STIM_013.jpg	100
1789.691	0.441	441.0	congruent	Block2	congruent/STIM_013.jpg	99
1793.161	0.275	275.1	congruent	Block2	congruent/STIM_013.jpg	100
1795.879	0.416	415.9	congruent	Block2	congruent/STIM_014.jpg	100
1799.165	0.414	413.5	congruent	Block2	congruent/STIM_014.jpg	100
1802.024	0.362	361.7	congruent	Block2	congruent/STIM_014.jpg	100
1805.597	0.366	365.7	congruent	Block2	congruent/STIM_014.jpg	99
1808.279	0.347	347.3	congruent	Block2	congruent/STIM_014.jpg	100
1811.298	0.43	430.1	congruent	Block2	congruent/STIM_015.jpg	100
1814.501	0.359	359.3	congruent	Block2	congruent/STIM_015.jpg	99
1817.463	0.301	301.1	congruent	Block2	congruent/STIM_015.jpg	99
1820.258	0.361	361.3	congruent	Block2	congruent/STIM_015.jpg	100
1823.512	0.269	268.9	congruent	Block2	congruent/STIM_015.jpg	100
1826.907	0.313	312.6	congruent	Block2	congruent/STIM_016.jpg	99
1830.085	0.328	328.3	congruent	Block2	congruent/STIM_016.jpg	100
1834.303	0.354	353.8	congruent	Block2	congruent/STIM_016.jpg	99
1837.167	0.334	333.8	congruent	Block2	congruent/STIM_016.jpg	99
1840.36	0.274	273.9	congruent	Block2	congruent/STIM_016.jpg	100
1844.402	0.45	450.2	congruent	Block2	congruent/STIM_017.jpg	100
1848.222	0.409	408.8	congruent	Block2	congruent/STIM_017.jpg	99
1851.147	0.332	331.8	congruent	Block2	congruent/STIM_017.jpg	99
1854.874	0.307	307.3	congruent	Block2	congruent/STIM_017.jpg	99
1857.334	0.28	280.5	congruent	Block2	congruent/STIM_017.jpg	100
1860.426	0.44	440.4	congruent	Block2	congruent/STIM_018.jpg	100
1864.278	0.442	441.5	congruent	Block2	congruent/STIM_018.jpg	100
1868.684	0.317	316.9	congruent	Block2	congruent/STIM_018.jpg	100
1872.271	0.344	344.4	congruent	Block2	congruent/STIM_018.jpg	100
1874.901	0.343	343.0	congruent	Block2	congruent/STIM_018.jpg	99
1878.648	0.332	332.3	congruent	Block2	congruent/STIM_019.jpg	99
1882.824	0.358	358.3	congruent	Block2	congruent/STIM_019.jpg	99
1885.314	0.315	314.7	congruent	Block2	congruent/STIM_019.jpg	99
1887.866	0.434	434.3	congruent	Block2	congruent/STIM_019.jpg	99
1891.543	0.428	427.7	congruent	Block2	congruent/STIM_019.jpg	99
1894.383	0.398	398.2	congruent	Block2	congruent/STIM_020.jpg	99
1897.888	0.313	313.4	congruent	Block2	congruent/STIM_020.jpg	99
1902.158	0.281	280.6	congruent	Block2	congruent/STIM_020.jpg	100
1905.07	0.367	366.8	congruent	Block2	congruent/STIM_020.jpg	99
1908.381	0.41	410.1	congruent	Block2	congruent/STIM_020.jpg	100
1912.342	0.329	329.0	congruent	Block2	congruent/STIM_021.jpg	99
1916.385	0.368	367.9	congruent	Block2	congruent/STIM_021.jpg	99
1919.553	0.4	400.0	congruent	Block2	congruent/STIM_021.jpg	99
1923.714	0.419	419.1	congruent	Block2	congruent/STIM_021.jpg	100
1926.174	0.308	308.4	congruent	Block2	congruent/STIM_021.jpg	99
1930.036	0.284	283.9	congruent	Block2	congruent/STIM_022.jpg	100
1934.204	0.4	400.4	congruent	Block2	congruent/STIM_022.jpg	100
1938.541	0.422	421.6	congruent	Block2	congruent/STIM_022.jpg	99
1942.806	0.319	319.3	congruent	Block2	congruent/STIM_022.jpg	99
1946.742	0.353	353.0	congruent	Block2	congruent/STIM_022.jpg	100
1950.149	0.438	438.0	congruent	Block2	congruent/STIM_023.jpg	100
1953.57	0.44	440.0	congruent	Block2	congruent/STIM_023.jpg	99
1957.219	0.335	334.8	congruent	Block2	congruent/STIM_023.jpg	100
1959.665	0.346	346.0	congruent	Block2	congruent/STIM_023.jpg	99
1962.888	0.454	454.4	congruent	Block2	congruent/STIM_023.jpg	100
1965.491	0.373	372.6	congruent	Block2	congruent/STIM_024.jpg	99
1968.313	0.388	388.1	congruent	Block2	congruent/STIM_024.jpg	100
1972.361	0.271	270.8	congruent	Block2	congruent/STIM_024.jpg	99
1975.506	0.278	277.6	congruent	Block2	congruent/STIM_024.jpg	100
1978.512	0.348	347.8	congruent	Block2	congruent/STIM_024.jpg	100
1981.155	0.447	447.1	congruent	Block2	congruent/STIM_025.jpg	99
1984.68	0.334	334.2	congruent	Block2	congruent/STIM_025.jpg	99
1987.068	0.319	318.7	congruent	Block2	congruent/STIM_025.jpg	100
1990.87	0.323	323.1	congruent	Block2	congruent/STIM_025.jpg	100
1993.635	0.432	431.6	congruent	Block2	congruent/STIM_025.jpg	100
1997.898	0.352	351.5	congruent	Block2	congruent/STIM_026.jpg	100
2000.53	0.372	371.7	congruent	Block2	congruent/STIM_026.jpg	99
2004.249	0.46	460.2	congruent	Block2	congruent/STIM_026.jpg	99
2007.631	0.422	421.5	congruent	Block2	congruent/STIM_026.jpg	100
2011.356	0.272	271.6	congruent	Block2	congruent/STIM_026.jpg	100
2014.027	0.299	299.0	congruent	Block2	congruent/STIM_027.jpg	100
2018.066	0.325	325.2	congruent	Block2	congruent/STIM_027.jpg	100
2021.075	0.312	312.4	congruent	Block2	congruent/STIM_027.jpg	99
2023.804	0.323	323.3	congruent	Block2	congruent/STIM_027.jpg	99
2026.174	0.31	310.4	congruent	Block2	congruent/STIM_027.jpg	99
2029.732	0.277	277.2	congruent	Block2	congruent/STIM_028.jpg	99
2032.472	0.371	371.0	congruent	Block2	congruent/STIM_028.jpg	100
2035.947	0.398	397.5	congruent	Block2	congruent/STIM_028.jpg	99
2039.157	0.354	353.5	congruent	Block2	congruent/STIM_028.jpg	100
2043.417	0.279	278.8	congruent	Block2	congruent/STIM_028.jpg	100
2047.324	0.301	300.8	congruent	Block2	congruent/STIM_029.jpg	100
2049.718	0.277	277.4	congruent	Block2	congruent/STIM_029.jpg	99
2052.072	0.382	382.0	congruent	Block2	congruent/STIM_029.jpg	100
2055.422	0.452	452.2	congruent	Block2	congruent/STIM_029.jpg	100
2058.11	0.283	283.2	congruent	Block2	congruent/STIM_029.jpg	100
2060.895	0.394	394.3	incongruent	Block3	incongruent/STIM_000.jpg	99
2063.883	0.282	282.4	incongruent	Block3	incongruent/STIM_000.jpg	100
2067.908	0.289	289.1	incongruent	Block3	incongruent/STIM_000.jpg	99
2071.648	0.426	426.3	incongruent	Block3	incongruent/STIM_000.jpg	99
2074.185	0.532	532.3	incongruent	Block3	incongruent/STIM_000.jpg	100
2077.817	0.365	365.3	incongruent	Block3	incongruent/STIM_001.jpg	100
2080.786	0.534	534.1	incongruent	Block3	incongruent/STIM_001.jpg	99
2084.171	0.282	282.5	incongruent	Block3	incongruent/STIM_001.jpg	100
2086.821	0.348	348.0	incongruent	Block3	incongruent/STIM_001.jpg	100
2091.107	0.511	510.9	incongruent	Block3	incongruent/STIM_001.jpg	99
2095.387	0.379	379.1	incongruent	Block3	incongruent/STIM_002.jpg	99
2099.602	0.508	508.2	incongruent	Block3	incongruent/STIM_002.jpg	99
2102.758	0.288	287.8	incongruent	Block3	incongruent/STIM_002.jpg	99
2106.373	0.544	543.8	incongruent	Block3	incongruent/STIM_002.jpg	99
2109.537	0.511	510.9	incongruent	Block3	incongruent/STIM_002.jpg	100
2112.256	0.478	478.3	incongruent	Block3	incongruent/STIM_003.jpg	99
2116.476	0.413	413.1	incongruent	Block3	incongruent/STIM_003.jpg	99
2120.216	0.401	400.8	incongruent	Block3	incongruent/STIM_003.jpg	100
2123.417	0.396	396.4	incongruent	Block3	incongruent/STIM_003.jpg	100
2127.304	0.319	318.7	incongruent	Block3	incongruent/STIM_003.jpg	100
2130.213	0.416	416.1	incongruent	Block3	incongruent/STIM_004.jpg	100
2133.94	0.41	409.8	incongruent	Block3	incongruent/STIM_004.jpg	100
2137.079	0.425	424.8	incongruent	Block3	incongruent/STIM_004.jpg	99
2140.356	0.475	475.2	incongruent	Block3	incongruent/STIM_004.jpg	100
2143.609	0.456	456.2	incongruent	Block3	incongruent/STIM_004.jpg	100
2146.138	0.482	482.2	incongruent	Block3	incongruent/STIM_005.jpg	99
2148.659	0.454	453.9	incongruent	Block3	incongruent/STIM_005.jpg	99
2151.423	0.33	329.7	incongruent	Block3	incongruent/STIM_005.jpg	100
2155.346	0.39	390.2	incongruent	Block3	incongruent/STIM_005.jpg	99
2158.217	0.369	368.9	incongruent	Block3	incongruent/STIM_005.jpg	99
2160.757	0.333	332.8	incongruent	Block3	incongruent/STIM_006.jpg	99
2164.921	0.522	521.6	incongruent	Block3	incongruent/STIM_006.jpg	100
2167.544	0.438	438.3	incongruent	Block3	incongruent/STIM_006.jpg	100
2170.422	0.48	479.6	incongruent	Block3	incongruent/STIM_006.jpg	100
2173.029	0.394	393.9	incongruent	Block3	incongruent/STIM_006.jpg	100
2176.908	0.37	369.6	incongruent	Block3	incongruent/STIM_007.jpg	99
2179.61	0.416	415.7	incongruent	Block3	incongruent/STIM_007.jpg	100
2182.604	0.449	448.6	incongruent	Block3	incongruent/STIM_007.jpg	99
2187.008	0.478	478.3	incongruent	Block3	incongruent/STIM_007.jpg	99
2190.447	0.472	472.4	incongruent	Block3	incongruent/STIM_007.jpg	100
2193.677	0.472	471.6	incongruent	Block3	incongruent/STIM_008.jpg	100
2198.101	0.414	414.1	incongruent	Block3	incongruent/STIM_008.jpg	99
2201.902	0.324	323.8	incongruent	Block3	incongruent/STIM_008.jpg	100
2205.349	0.507	506.6	incongruent	Block3	incongruent/STIM_008.jpg	100
2208.291	0.531	531.0	incongruent	Block3	incongruent/STIM_008.jpg	100
2212.162	0.395	394.6	incongruent	Block3	incongruent/STIM_009.jpg	100
2215.84	0.27	270.5	incongruent	Block3	incongruent/STIM_009.jpg	99
2219.693	0.493	492.8	incongruent	Block3	incongruent/STIM_009.jpg	99
2224.169	0.43	429.9	incongruent	Block3	incongruent/STIM_009.jpg	99
2226.878	0.277	277.2	incongruent	Block3	incongruent/STIM_009.jpg	100
2230.006	0.332	331.7	incongruent	Block3	incongruent/STIM_010.jpg	99
2233.668	0.361	360.7	incongruent	Block3	incongruent/STIM_010.jpg	100
2236.144	0.41	410.0	incongruent	Block3	incongruent/STIM_010.jpg	99
2239.726	0.441	441.4	incongruent	Block3	incongruent/STIM_010.jpg	100
2243.456	0.42	419.7	incongruent	Block3	incongruent/STIM_010.jpg	100
2247.036	0.32	319.6	incongruent	Block3	incongruent/STIM_011.jpg	99
2251.237	0.51	510.1	incongruent	Block3	incongruent/STIM_011.jpg	99
2254.324	0.478	478.0	incongruent	Block3	incongruent/STIM_011.jpg	99
2257.618	0.47	469.6	incongruent	Block3	incongruent/STIM_011.jpg	99
2260.597	0.363	363.4	incongruent	Block3	incongruent/STIM_011.jpg	100
2263.583	0.517	516.6	incongruent	Block3	incongruent/STIM_012.jpg	99
2266.59	0.378	378.0	incongruent	Block3	incongruent/STIM_012.jpg	99
2270.076	0.363	362.8	incongruent	Block3	incongruent/STIM_012.jpg	99
2272.956	0.298	298.1	incongruent	Block3	incongruent/STIM_012.jpg	99
2276.947	0.335	335.4	incongruent	Block3	incongruent/STIM_012.jpg	100
2280.793	0.525	524.8	incongruent	Block3	incongruent/STIM_013.jpg	100
2283.485	0.294	294.4	incongruent	Block3	incongruent/STIM_013.jpg	99
2286.39	0.338	338.4	incongruent	Block3	incongruent/STIM_013.jpg	99
2289.406	0.308	308.4	incongruent	Block3	incongruent/STIM_013.jpg	99
2293.279	0.286	285.5	incongruent	Block3	incongruent/STIM_013.jpg	99
2295.641	0.318	317.5	incongruent	Block3	incongruent/STIM_014.jpg	99
2298.309	0.336	335.5	incongruent	Block3	incongruent/STIM_014.jpg	99
2300.976	0.545	545.3	incongruent	Block3	incongruent/STIM_014.jpg	100
2303.958	0.444	444.5	incongruent	Block3	incongruent/STIM_014.jpg	100
2308.401	0.458	457.8	incongruent	Block3	incongruent/STIM_014.jpg	100
2311.145	0.335	334.7	incongruent	Block3	incongruent/STIM_015.jpg	99
2315.338	0.316	315.5	incongruent	Block3	incongruent/STIM_015.jpg	99
2318.743	0.402	402.2	incongruent	Block3	incongruent/STIM_015.jpg	99
2322.319	0.539	539.0	incongruent	Block3	incongruent/STIM_015.jpg	99
2326.609	0.267	266.9	incongruent	Block3	incongruent/STIM_015.jpg	100
2330.794	0.375	375.0	incongruent	Block3	incongruent/STIM_016.jpg	99
2334.488	0.353	353.1	incongruent	Block3	incongruent/STIM_016.jpg	99
2336.879	0.358	357.5	incongruent	Block3	incongruent/STIM_016.jpg	99
2341.179	0.478	478.1	incongruent	Block3	incongruent/STIM_016.jpg	100
2344.976	0.476	475.6	incongruent	Block3	incongruent/STIM_016.jpg	99
2348.59	0.421	421.0	incongruent	Block3	incongruent/STIM_017.jpg	99
2351.67	0.419	419.2	incongruent	Block3	incongruent/STIM_017.jpg	100
2354.589	0.399	398.6	incongruent	Block3	incongruent/STIM_017.jpg	99
2358.224	0.391	390.9	incongruent	Block3	incongruent/STIM_017.jpg	99
2360.958	0.384	384.3	incongruent	Block3	incongruent/STIM_017.jpg	99
2363.547	0.417	416.7	incongruent	Block3	incongruent/STIM_018.jpg	100
2366.514	0.342	341.6	incongruent	Block3	incongruent/STIM_018.jpg	99
2368.948	0.361	360.6	incongruent	Block3	incongruent/STIM_018.jpg	99
2371.99	0.412	411.9	incongruent	Block3	incongruent/STIM_018.jpg	100
2375.244	0.472	472.2	incongruent	Block3	incongruent/STIM_018.jpg	99
2378.576	0.435	434.9	incongruent	Block3	incongruent/STIM_019.jpg	100
2381.603	0.366	366.3	incongruent	Block3	incongruent/STIM_019.jpg	100
2385.566	0.416	416.1	incongruent	Block3	incongruent/STIM_019.jpg	99
2389.855	0.416	415.8	incongruent	Block3	incongruent/STIM_019.jpg	99
2393.282	0.312	311.9	incongruent	Block3	incongruent/STIM_019.jpg	100
2396.052	0.465	464.7	incongruent	Block3	incongruent/STIM_020.jpg	100
2399.059	0.441	441.0	incongruent	Block3	incongruent/STIM_020.jpg	100
2401.567	0.325	325.3	incongruent	Block3	incongruent/STIM_020.jpg	99
2405.115	0.284	284.4	incongruent	Block3	incongruent/STIM_020.jpg	100
2409.01	0.423	423.0	incongruent	Block3	incongruent/STIM_020.jpg	100
2412.727	0.28	279.5	incongruent	Block3	incongruent/STIM_021.jpg	99
2415.138	0.315	314.9	incongruent	Block3	incongruent/STIM_021.jpg	99
2418.461	0.54	539.9	incongruent	Block3	incongruent/STIM_021.jpg	100
2421.369	0.314	314.5	incongruent	Block3	incongruent/STIM_021.jpg	100
2423.806	0.362	362.2	incongruent	Block3	incongruent/STIM_021.jpg	100
2427.055	0.452	452.3	incongruent	Block3	incongruent/STIM_022.jpg	99
2431.473	0.301	301.3	incongruent	Block3	incongruent/STIM_022.jpg	99
2435.54	0.422	422.0	incongruent	Block3	incongruent/STIM_022.jpg	100
2439.107	0.441	441.0	incongruent	Block3	incongruent/STIM_022.jpg	99
2443.265	0.437	437.0	incongruent	Block3	incongruent/STIM_022.jpg	100
2446.706	0.389	388.8	incongruent	Block3	incongruent/STIM_023.jpg	100
2450.168	0.539	539.1	incongruent	Block3	incongruent/STIM_023.jpg	99
2453.541	0.347	347.0	incongruent	Block3	incongruent/STIM_023.jpg	99
2456.692	0.414	414.0	incongruent	Block3	incongruent/STIM_023.jpg	99
2459.297	0.48	480.2	incongruent	Block3	incongruent/STIM_023.jpg	100
2462.546	0.314	313.9	incongruent	Block3	incongruent/STIM_024.jpg	100
2465.524	0.488	488.3	incongruent	Block3	incongruent/STIM_024.jpg	100
2469.614	0.482	481.7	incongruent	Block3	incongruent/STIM_024.jpg	99
2472.788	0.43	430.5	incongruent	Block3	incongruent/STIM_024.jpg	100
2475.453	0.536	535.9	incongruent	Block3	incongruent/STIM_024.jpg	99
2478.001	0.28	279.7	incongruent	Block3	incongruent/STIM_025.jpg	99
2480.311	0.326	326.1	incongruent	Block3	incongruent/STIM_025.jpg	99
2483.732	0.268	268.5	incongruent	Block3	incongruent/STIM_025.jpg	100
2487.15	0.428	428.1	incongruent	Block3	incongruent/STIM_025.jpg	99
2491.103	0.531	530.6	incongruent	Block3	incongruent/STIM_025.jpg	100
2494.919	0.426	425.9	incongruent	Block3	incongruent/STIM_026.jpg	100
2498.909	0.413	412.7	incongruent	Block3	incongruent/STIM_026.jpg	99
2501.622	0.388	388.2	incongruent	Block3	incongruent/STIM_026.jpg	100
2505.248	0.309	308.8	incongruent	Block3	incongruent/STIM_026.jpg	99
2507.992	0.51	510.5	incongruent	Block3	incongruent/STIM_026.jpg	99
2512.344	0.4	399.9	incongruent	Block3	incongruent/STIM_027.jpg	100
2515.839	0.27	270.4	incongruent	Block3	incongruent/STIM_027.jpg	99
2518.995	0.361	361.2	incongruent	Block3	incongruent/STIM_027.jpg	100
2523.264	0.307	307.0	incongruent	Block3	incongruent/STIM_027.jpg	100
2527.446	0.411	410.8	incongruent	Block3	incongruent/STIM_027.jpg	99
2531.329	0.514	514.2	incongruent	Block3	incongruent/STIM_028.jpg	99
2535.454	0.338	337.7	incongruent	Block3	incongruent/STIM_028.jpg	100
2538.24	0.533	532.8	incongruent	Block3	incongruent/STIM_028.jpg	99
2542.673	0.438	438.0	incongruent	Block3	incongruent/STIM_028.jpg	100
2545.26	0.5	500.3	incongruent	Block3	incongruent/STIM_028.jpg	99
2549.255	0.384	384.0	incongruent	Block3	incongruent/STIM_029.jpg	99
2552.714	0.269	269.1	incongruent	Block3	incongruent/STIM_029.jpg	99
2555.052	0.509	508.6	incongruent	Block3	incongruent/STIM_029.jpg	100
2558.497	0.339	339.4	incongruent	Block3	incongruent/STIM_029.jpg	100
2562.216	0.306	305.8	incongruent	Block3	incongruent/STIM_029.jpg	100
2566.366	0.346	346.0	congruent	Block3	congruent/STIM_000.jpg	100
2569.656	0.35	350.3	congruent	Block3	congruent/STIM_000.jpg	100
2572.821	0.471	471.4	congruent	Block3	congruent/STIM_000.jpg	100
2575.75	0.44	440.3	congruent	Block3	congruent/STIM_000.jpg	100
2579.632	0.356	355.9	congruent	Block3	congruent/STIM_000.jpg	99
2582.09	0.279	278.7	congruent	Block3	congruent/STIM_001.jpg	100
2584.374	0.426	426.3	congruent	Block3	congruent/STIM_001.jpg	100
2587.333	0.308	307.6	congruent	Block3	congruent/STIM_001.jpg	100
2590.193	0.448	448.2	congruent	Block3	congruent/STIM_001.jpg	99
2594.286	0.341	341.3	congruent	Block3	congruent/STIM_001.jpg	100
2598.303	0.265	264.9	congruent	Block3	congruent/STIM_002.jpg	99
2600.837	0.356	356.2	congruent	Block3	congruent/STIM_002.jpg	100
2604.703	0.448	447.5	congruent	Block3	congruent/STIM_002.jpg	99
2608.357	0.311	311.4	congruent	Block3	congruent/STIM_002.jpg	99
2612.237	0.461	461.0	congruent	Block3	congruent/STIM_002.jpg	100
2616.067	0.417	417.1	congruent	Block3	congruent/STIM_003.jpg	100
2618.617	0.453	453.4	congruent	Block3	congruent/STIM_003.jpg	100
2621.103	0.462	461.5	congruent	Block3	congruent/STIM_003.jpg	100
2624.725	0.322	321.6	congruent	Block3	congruent/STIM_003.jpg	100
2628.531	0.473	472.8	congruent	Block3	congruent/STIM_003.jpg	99
2632.843	0.432	432.3	congruent	Block3	congruent/STIM_004.jpg	99
2636.181	0.264	264.4	congruent	Block3	congruent/STIM_004.jpg	100
2639.12	0.286	285.5	congruent	Block3	congruent/STIM_004.jpg	100
2642.083	0.279	279.3	congruent	Block3	congruent/STIM_004.jpg	99
2645.925	0.302	302.3	congruent	Block3	congruent/STIM_004.jpg	99
2648.575	0.371	370.7	congruent	Block3	congruent/STIM_005.jpg	99
2650.995	0.287	287.2	congruent	Block3	congruent/STIM_005.jpg	99
2653.627	0.385	385.0	congruent	Block3	congruent/STIM_005.jpg	99
2656.611	0.374	373.8	congruent	Block3	congruent/STIM_005.jpg	99
2660.187	0.368	367.9	congruent	Block3	congruent/STIM_005.jpg	99
2663.736	0.272	271.7	congruent	Block3	congruent/STIM_006.jpg	99
2666.641	0.443	442.6	congruent	Block3	congruent/STIM_006.jpg	100
2670.176	0.47	470.5	congruent	Block3	congruent/STIM_006.jpg	99
2673.801	0.285	284.9	congruent	Block3	congruent/STIM_006.jpg	100
2677.362	0.279	278.6	congruent	Block3	congruent/STIM_006.jpg	99
2681.609	0.411	411.2	congruent	Block3	congruent/STIM_007.jpg	99
2684.455	0.314	314.5	congruent	Block3	congruent/STIM_007.jpg	99
2688.13	0.361	360.9	congruent	Block3	congruent/STIM_007.jpg	99
2692.122	0.422	421.9	congruent	Block3	congruent/STIM_007.jpg	100
2695.198	0.468	467.6	congruent	Block3	congruent/STIM_007.jpg	99
2699.462	0.438	438.5	congruent	Block3	congruent/STIM_008.jpg	99
2703.326	0.41	409.6	congruent	Block3	congruent/STIM_008.jpg	99
2707.23	0.312	311.5	congruent	Block3	congruent/STIM_008.jpg	99
2711.395	0.366	365.6	congruent	Block3	congruent/STIM_008.jpg	99
2715.264	0.468	467.7	congruent	Block3	congruent/STIM_008.jpg	99
2718.5	0.462	461.6	congruent	Block3	congruent/STIM_009.jpg	100
2722.117	0.282	282.3	congruent	Block3	congruent/STIM_009.jpg	100
2725.936	0.288	288.1	congruent	Block3	congruent/STIM_009.jpg	99
2728.606	0.265	264.6	congruent	Block3	congruent/STIM_009.jpg	99
2731.75	0.3	300.3	congruent	Block3	congruent/STIM_009.jpg	100
2735.625	0.311	311.0	congruent	Block3	congruent/STIM_010.jpg	100
2739.737	0.349	349.4	congruent	Block3	congruent/STIM_010.jpg	99
2743.925	0.33	330.2	congruent	Block3	congruent/STIM_010.jpg	100
2747.666	0.358	358.4	congruent	Block3	congruent/STIM_010.jpg	100
2750.672	0.363	362.7	congruent	Block3	congruent/STIM_010.jpg	99
2754.189	0.471	471.4	congruent	Block3	congruent/STIM_011.jpg	100
2756.663	0.411	410.6	congruent	Block3	congruent/STIM_011.jpg	99
2759.515	0.372	371.6	congruent	Block3	congruent/STIM_011.jpg	99
2762.418	0.452	452.4	congruent	Block3	congruent/STIM_011.jpg	99
2765.828	0.318	318.3	congruent	Block3	congruent/STIM_011.jpg	99
2768.813	0.269	269.3	congruent	Block3	congruent/STIM_012.jpg	100
2772.999	0.378	377.7	congruent	Block3	congruent/STIM_012.jpg	100
2776.907	0.408	408.4	congruent	Block3	congruent/STIM_012.jpg	99
2780.325	0.42	419.5	congruent	Block3	congruent/STIM_012.jpg	100
2782.79	0.267	266.9	congruent	Block3	congruent/STIM_012.jpg	99
2785.642	0.321	321.0	congruent	Block3	congruent/STIM_013.jpg	99
2788.543	0.464	463.8	congruent	Block3	congruent/STIM_013.jpg	99
2792.819	0.35	350.2	congruent	Block3	congruent/STIM_013.jpg	99
2796.739	0.312	311.8	congruent	Block3	congruent/STIM_013.jpg	100
2799.368	0.306	306.2	congruent	Block3	congruent/STIM_013.jpg	100
2803.637	0.339	339.4	congruent	Block3	congruent/STIM_014.jpg	99
2807.147	0.342	342.4	congruent	Block3	congruent/STIM_014.jpg	99
2810.646	0.416	415.5	congruent	Block3	congruent/STIM_014.jpg	99
2813.684	0.404	403.7	congruent	Block3	congruent/STIM_014.jpg	100
2817.91	0.285	284.6	congruent	Block3	congruent/STIM_014.jpg	100
2821.954	0.268	267.6	congruent	Block3	congruent/STIM_015.jpg	99
2824.42	0.36	359.7	congruent	Block3	congruent/STIM_015.jpg	100
2828.637	0.363	363.1	congruent	Block3	congruent/STIM_015.jpg	100
2832.536	0.383	383.3	congruent	Block3	congruent/STIM_015.jpg	100
2836.316	0.326	325.7	congruent	Block3	congruent/STIM_015.jpg	100
2840.489	0.471	471.3	congruent	Block3	congruent/STIM_016.jpg	99
2844.303	0.269	268.9	congruent	Block3	congruent/STIM_016.jpg	100
2848.258	0.42	419.6	congruent	Block3	congruent/STIM_016.jpg	99
2851.024	0.445	444.8	congruent	Block3	congruent/STIM_016.jpg	99
2854.687	0.46	459.6	congruent	Block3	congruent/STIM_016.jpg	99
2857.329	0.372	372.3	congruent	Block3	congruent/STIM_017.jpg	99
2860.706	0.32	320.1	congruent	Block3	congruent/STIM_017.jpg	99
2864.63	0.41	410.4	congruent	Block3	congruent/STIM_017.jpg	100
2867.347	0.315	315.4	congruent	Block3	congruent/STIM_017.jpg	99
2870.039	0.306	306.2	congruent	Block3	congruent/STIM_017.jpg	99
2874.117	0.277	277.0	congruent	Block3	congruent/STIM_018.jpg	99
2876.46	0.326	325.5	congruent	Block3	congruent/STIM_018.jpg	100
2880.47	0.432	432.0	congruent	Block3	congruent/STIM_018.jpg	99
2884.722	0.397	397.3	congruent	Block3	congruent/STIM_018.jpg	100
2887.635	0.365	365.4	congruent	Block3	congruent/STIM_018.jpg	100
2891.931	0.42	419.9	congruent	Block3	congruent/STIM_019.jpg	99
2895.255	0.35	350.1	congruent	Block3	congruent/STIM_019.jpg	99
2898.379	0.322	321.5	congruent	Block3	congruent/STIM_019.jpg	99
2902.323	0.266	265.5	congruent	Block3	congruent/STIM_019.jpg	99
2906.483	0.435	435.4	congruent	Block3	congruent/STIM_019.jpg	99
2909.843	0.387	386.8	congruent	Block3	congruent/STIM_020.jpg	99
2914.214	0.308	308.4	congruent	Block3	congruent/STIM_020.jpg	100
2916.66	0.31	310.2	congruent	Block3	congruent/STIM_020.jpg	100
2920.129	0.424	424.1	congruent	Block3	congruent/STIM_020.jpg	100
2922.9	0.354	353.6	congruent	Block3	congruent/STIM_020.jpg	100
2926.894	0.35	350.2	congruent	Block3	congruent/STIM_021.jpg	99
2930.503	0.341	341.2	congruent	Block3	congruent/STIM_021.jpg	100
2934.29	0.388	388.4	congruent	Block3	congruent/STIM_021.jpg	100
2937.446	0.455	455.0	congruent	Block3	congruent/STIM_021.jpg	100
2940.818	0.339	339.0	congruent	Block3	congruent/STIM_021.jpg	100
2943.652	0.366	365.8	congruent	Block3	congruent/STIM_022.jpg	99
2947.754	0.278	277.5	congruent	Block3	congruent/STIM_022.jpg	99
2950.588	0.456	456.4	congruent	Block3	congruent/STIM_022.jpg	100
2954.616	0.436	436.2	congruent	Block3	congruent/STIM_022.jpg	99
2957.235	0.311	311.2	congruent	Block3	congruent/STIM_022.jpg	100
2961.392	0.396	396.2	congruent	Block3	congruent/STIM_023.jpg	99
2965.644	0.425	424.9	congruent	Block3	congruent/STIM_023.jpg	99
2969.254	0.358	357.9	congruent	Block3	congruent/STIM_023.jpg	100
2972.396	0.285	285.1	congruent	Block3	congruent/STIM_023.jpg	100
2976.196	0.296	296.5	congruent	Block3	congruent/STIM_023.jpg	99
2978.599	0.346	346.2	congruent	Block3	congruent/STIM_024.jpg	100
2981.57	0.397	396.8	congruent	Block3	congruent/STIM_024.jpg	100
2984.1	0.296	296.4	congruent	Block3	congruent/STIM_024.jpg	99
2987.1	0.312	312.2	congruent	Block3	congruent/STIM_024.jpg	99
2990.117	0.381	381.3	congruent	Block3	congruent/STIM_024.jpg	100
2993.314	0.37	370.4	congruent	Block3	congruent/STIM_025.jpg	100
2996.622	0.444	444.1	congruent	Block3	congruent/STIM_025.jpg	99
2999.154	0.372	372.1	congruent	Block3	congruent/STIM_025.jpg	99
3002.466	0.28	280.3	congruent	Block3	congruent/STIM_025.jpg	99
3004.851	0.298	298.0	congruent	Block3	congruent/STIM_025.jpg	99
3007.974	0.458	458.0	congruent	Block3	congruent/STIM_026.jpg	100
3010.93	0.445	444.9	congruent	Block3	congruent/STIM_026.jpg	99
3014.689	0.436	435.5	congruent	Block3	congruent/STIM_026.jpg	100
3017.936	0.422	422.2	congruent	Block3	congruent/STIM_026.jpg	100
3022.07	0.467	466.9	congruent	Block3	congruent/STIM_026.jpg	99
3025.712	0.434	434.0	congruent	Block3	congruent/STIM_027.jpg	100
3029.541	0.457	456.7	congruent	Block3	congruent/STIM_027.jpg	100
3032.639	0.282	282.4	congruent	Block3	congruent/STIM_027.jpg	99
3035.866	0.279	278.7	congruent	Block3	congruent/STIM_027.jpg	99
3038.264	0.278	278.1	congruent	Block3	congruent/STIM_027.jpg	99
3042.379	0.363	362.7	congruent	Block3	congruent/STIM_028.jpg	99
3045.823	0.392	392.5	congruent	Block3	congruent/STIM_028.jpg	99
3048.741	0.306	306.4	congruent	Block3	congruent/STIM_028.jpg	100
3052.607	0.418	418.2	congruent	Block3	congruent/STIM_028.jpg	100
3055.848	0.433	433.0	congruent	Block3	congruent/STIM_028.jpg	99
3059.413	0.346	345.9	congruent	Block3	congruent/STIM_029.jpg	100
3062.682	0.335	335.2	congruent	Block3	congruent/STIM_029.jpg	99
3066.569	0.373	373.2	congruent	Block3	congruent/STIM_029.jpg	99
3069.389	0.356	356.1	congruent	Block3	congruent/STIM_029.jpg	100
3072.598	0.463	462.9	congruent	Block3	congruent/STIM_029.jpg	99
