onset	duration	accuracy	trial_type	learning_stage	stimulus
0.0	1.194	correct	incongruent	Block1	incongruent/STIM_000.jpg
3.453	1.101	correct	incongruent	Block1	incongruent/STIM_000.jpg
6.963	0.977	correct	incongruent	Block1	incongruent/STIM_000.jpg
10.464	1.17	correct	incongruent	Block1	incongruent/STIM_000.jpg
15.438	1.33	correct	incongruent	Block1	incongruent/STIM_000.jpg
19.913	1.394	correct	incongruent	Block1	incongruent/STIM_001.jpg
24.104	1.453	correct	incongruent	Block1	incongruent/STIM_001.jpg
28.62	1.108	correct	incongruent	Block1	incongruent/STIM_001.jpg
32.407	1.323	correct	incongruent	Block1	incongruent/STIM_001.jpg
36.242	0.957	correct	incongruent	Block1	incongruent/STIM_001.jpg
39.98	1.3	correct	incongruent	Block1	incongruent/STIM_002.jpg
44.837	1.112	incorrect	incongruent	Block1	incongruent/STIM_002.jpg
47.844	1.402	correct	incongruent	Block1	incongruent/STIM_002.jpg
51.302	0.978	correct	incongruent	Block1	incongruent/STIM_002.jpg
55.192	1.011	incorrect	incongruent	Block1	incongruent/STIM_002.jpg
59.036	1.338	correct	incongruent	Block1	incongruent/STIM_003.jpg
62.931	1.35	correct	incongruent	Block1	incongruent/STIM_003.jpg
67.587	1.224	correct	incongruent	Block1	incongruent/STIM_003.jpg
71.772	0.788	correct	incongruent	Block1	incongruent/STIM_003.jpg
74.716	0.782	correct	incongruent	Block1	incongruent/STIM_003.jpg
78.216	0.954	incorrect	incongruent	Block1	incongruent/STIM_004.jpg
81.391	1.424	correct	incongruent	Block1	incongruent/STIM_004.jpg
86.144	1.51	correct	incongruent	Block1	incongruent/STIM_004.jpg
91.258	1.096	correct	incongruent	Block1	incongruent/STIM_004.jpg
94.828	0.847	correct	incongruent	Block1	incongruent/STIM_004.jpg
98.205	0.805	correct	incongruent	Block1	incongruent/STIM_005.jpg
101.281	0.872	incorrect	incongruent	Block1	incongruent/STIM_005.jpg
105.944	1.281	incorrect	incongruent	Block1	incongruent/STIM_005.jpg
110.235	1.179	correct	incongruent	Block1	incongruent/STIM_005.jpg
115.271	1.174	correct	incongruent	Block1	incongruent/STIM_005.jpg
119.679	1.36	incorrect	incongruent	Block1	incongruent/STIM_006.jpg
123.399	0.865	correct	incongruent	Block1	incongruent/STIM_006.jpg
126.302	0.702	correct	incongruent	Block1	incongruent/STIM_006.jpg
129.179	1.051	correct	incongruent	Block1	incongruent/STIM_006.jpg
133.384	0.93	incorrect	incongruent	Block1	incongruent/STIM_006.jpg
136.808	1.478	correct	incongruent	Block1	incongruent/STIM_007.jpg
141.797	1.362	correct	incongruent	Block1	incongruent/STIM_007.jpg
146.04	1.302	correct	incongruent	Block1	incongruent/STIM_007.jpg
150.384	1.318	correct	incongruent	Block1	incongruent/STIM_007.jpg
155.03	0.785	correct	incongruent	Block1	incongruent/STIM_007.jpg
159.346	1.313	correct	incongruent	Block1	incongruent/STIM_008.jpg
163.018	1.102	correct	incongruent	Block1	incongruent/STIM_008.jpg
167.356	1.058	correct	incongruent	Block1	incongruent/STIM_008.jpg
170.397	0.901	correct	incongruent	Block1	incongruent/STIM_008.jpg
173.573	1.367	correct	incongruent	Block1	incongruent/STIM_008.jpg
178.093	1.002	correct	incongruent	Block1	incongruent/STIM_009.jpg
182.619	1.233	correct	incongruent	Block1	incongruent/STIM_009.jpg
186.972	0.865	correct	incongruent	Block1	incongruent/STIM_009.jpg
191.059	0.854	incorrect	incongruent	Block1	incongruent/STIM_009.jpg
195.445	0.918	correct	incongruent	Block1	incongruent/STIM_009.jpg
199.643	1.368	correct	incongruent	Block1	incongruent/STIM_010.jpg
203.714	0.885	incorrect	incongruent	Block1	incongruent/STIM_010.jpg
207.551	0.733	incorrect	incongruent	Block1	incongruent/STIM_010.jpg
210.742	1.06	correct	incongruent	Block1	incongruent/STIM_010.jpg
214.092	0.899	correct	incongruent	Block1	incongruent/STIM_010.jpg
218.517	1.028	correct	incongruent	Block1	incongruent/STIM_011.jpg
222.405	1.309	incorrect	incongruent	Block1	incongruent/STIM_011.jpg
227.522	1.148	correct	incongruent	Block1	incongruent/STIM_011.jpg
231.089	0.736	correct	incongruent	Block1	incongruent/STIM_011.jpg
234.751	1.284	correct	incongruent	Block1	incongruent/STIM_011.jpg
239.145	0.742	correct	incongruent	Block1	incongruent/STIM_012.jpg
243.347	0.92	correct	incongruent	Block1	incongruent/STIM_012.jpg
247.553	0.747	correct	incongruent	Block1	incongruent/STIM_012.jpg
252.11	0.916	correct	incongruent	Block1	incongruent/STIM_012.jpg
256.828	0.751	correct	incongruent	Block1	incongruent/STIM_012.jpg
261.064	0.899	correct	incongruent	Block1	incongruent/STIM_013.jpg
265.061	1.235	correct	incongruent	Block1	incongruent/STIM_013.jpg
269.287	1.031	correct	incongruent	Block1	incongruent/STIM_013.jpg
273.845	0.933	correct	incongruent	Block1	incongruent/STIM_013.jpg
276.916	1.223	correct	incongruent	Block1	incongruent/STIM_013.jpg
280.723	1.251	correct	incongruent	Block1	incongruent/STIM_014.jpg
285.852	1.044	correct	incongruent	Block1	incongruent/STIM_014.jpg
288.903	0.686	correct	incongruent	Block1	incongruent/STIM_014.jpg
291.913	1.086	correct	incongruent	Block1	incongruent/STIM_014.jpg
294.906	0.976	correct	incongruent	Block1	incongruent/STIM_014.jpg
298.366	1.478	correct	incongruent	Block1	incongruent/STIM_015.jpg
303.527	0.887	correct	incongruent	Block1	incongruent/STIM_015.jpg
306.883	1.265	correct	incongruent	Block1	incongruent/STIM_015.jpg
310.944	1.239	correct	incongruent	Block1	incongruent/STIM_015.jpg
314.882	1.067	correct	incongruent	Block1	incongruent/STIM_015.jpg
319.367	1.546	incorrect	incongruent	Block1	incongruent/STIM_016.jpg
324.386	1.106	correct	incongruent	Block1	incongruent/STIM_016.jpg
327.35	1.079	correct	incongruent	Block1	incongruent/STIM_016.jpg
331.636	1.166	correct	incongruent	Block1	incongruent/STIM_016.jpg
335.194	1.168	correct	incongruent	Block1	incongruent/STIM_016.jpg
340.099	1.087	incorrect	incongruent	Block1	incongruent/STIM_017.jpg
344.07	1.113	correct	incongruent	Block1	incongruent/STIM_017.jpg
347.22	1.078	correct	incongruent	Block1	incongruent/STIM_017.jpg
350.774	1.281	correct	incongruent	Block1	incongruent/STIM_017.jpg
355.276	0.872	correct	incongruent	Block1	incongruent/STIM_017.jpg
358.659	0.907	correct	incongruent	Block1	incongruent/STIM_018.jpg
363.258	0.909	correct	incongruent	Block1	incongruent/STIM_018.jpg
366.983	1.253	correct	incongruent	Block1	incongruent/STIM_018.jpg
371.171	0.905	correct	incongruent	Block1	incongruent/STIM_018.jpg
374.241	0.719	correct	incongruent	Block1	incongruent/STIM_018.jpg
378.237	1.345	correct	incongruent	Block1	incongruent/STIM_019.jpg
382.773	0.986	correct	incongruent	Block1	incongruent/STIM_019.jpg
386.541	0.997	correct	incongruent	Block1	incongruent/STIM_019.jpg
391.419	1.027	correct	incongruent	Block1	incongruent/STIM_019.jpg
396.321	1.118	correct	incongruent	Block1	incongruent/STIM_019.jpg
400.677	1.094	correct	incongruent	Block1	incongruent/STIM_020.jpg
404.075	1.058	correct	incongruent	Block1	incongruent/STIM_020.jpg
408.369	1.216	correct	incongruent	Block1	incongruent/STIM_020.jpg
412.078	1.08	incorrect	incongruent	Block1	incongruent/STIM_020.jpg
416.054	0.809	correct	incongruent	Block1	incongruent/STIM_020.jpg
420.175	1.269	incorrect	incongruent	Block1	incongruent/STIM_021.jpg
423.624	1.216	incorrect	incongruent	Block1	incongruent/STIM_021.jpg
427.956	0.806	correct	incongruent	Block1	incongruent/STIM_021.jpg
431.933	0.955	incorrect	incongruent	Block1	incongruent/STIM_021.jpg
436.778	0.753	correct	incongruent	Block1	incongruent/STIM_021.jpg
440.121	1.214	correct	incongruent	Block1	incongruent/STIM_022.jpg
443.926	1.199	correct	incongruent	Block1	incongruent/STIM_022.jpg
448.62	0.979	correct	incongruent	Block1	incongruent/STIM_022.jpg
451.524	0.964	correct	incongruent	Block1	incongruent/STIM_022.jpg
455.535	1.188	correct	incongruent	Block1	incongruent/STIM_022.jpg
459.535	0.996	correct	incongruent	Block1	incongruent/STIM_023.jpg
463.821	0.908	correct	incongruent	Block1	incongruent/STIM_023.jpg
468.276	1.151	correct	incongruent	Block1	incongruent/STIM_023.jpg
473.289	1.177	correct	incongruent	Block1	incongruent/STIM_023.jpg
478.094	0.872	correct	incongruent	Block1	incongruent/STIM_023.jpg
482.893	1.386	correct	incongruent	Block1	incongruent/STIM_024.jpg
486.337	0.81	correct	incongruent	Block1	incongruent/STIM_024.jpg
490.035	0.968	correct	incongruent	Block1	incongruent/STIM_024.jpg
493.854	1.288	correct	incongruent	Block1	incongruent/STIM_024.jpg
498.439	1.296	correct	incongruent	Block1	incongruent/STIM_024.jpg
501.964	1.612	correct	incongruent	Block1	incongruent/STIM_025.jpg
507.219	1.363	incorrect	incongruent	Block1	incongruent/STIM_025.jpg
511.279	0.704	correct	incongruent	Block1	incongruent/STIM_025.jpg
514.678	1.261	correct	incongruent	Block1	incongruent/STIM_025.jpg
518.853	1.08	correct	incongruent	Block1	incongruent/STIM_025.jpg
523.148	0.8	correct	incongruent	Block1	incongruent/STIM_026.jpg
526.828	1.088	correct	incongruent	Block1	incongruent/STIM_026.jpg
530.688	1.222	correct	incongruent	Block1	incongruent/STIM_026.jpg
535.081	0.985	correct	incongruent	Block1	incongruent/STIM_026.jpg
538.537	1.195	correct	incongruent	Block1	incongruent/STIM_026.jpg
542.693	1.276	incorrect	incongruent	Block1	incongruent/STIM_027.jpg
546.74	1.098	correct	incongruent	Block1	incongruent/STIM_027.jpg
550.242	1.245	correct	incongruent	Block1	incongruent/STIM_027.jpg
554.27	1.19	correct	incongruent	Block1	incongruent/STIM_027.jpg
558.289	1.21	correct	incongruent	Block1	incongruent/STIM_027.jpg
561.521	0.848	correct	incongruent	Block1	incongruent/STIM_028.jpg
565.741	0.888	correct	incongruent	Block1	incongruent/STIM_028.jpg
568.785	0.775	correct	incongruent	Block1	incongruent/STIM_028.jpg
571.958	0.63	correct	incongruent	Block1	incongruent/STIM_028.jpg
576.115	0.742	correct	incongruent	Block1	incongruent/STIM_028.jpg
580.423	1.382	correct	incongruent	Block1	incongruent/STIM_029.jpg
584.991	0.733	correct	incongruent	Block1	incongruent/STIM_029.jpg
589.661	1.394	correct	incongruent	Block1	incongruent/STIM_029.jpg
594.217	0.735	correct	incongruent	Block1	incongruent/STIM_029.jpg
597.062	0.798	correct	incongruent	Block1	incongruent/STIM_029.jpg
601.215	0.763	correct	congruent	Block1	congruent/STIM_000.jpg
605.536	0.537	correct	congruent	Block1	congruent/STIM_000.jpg
609.753	0.714	correct	congruent	Block1	congruent/STIM_000.jpg
613.443	0.817	correct	congruent	Block1	congruent/STIM_000.jpg
617.594	0.817	correct	congruent	Block1	congruent/STIM_000.jpg
621.42	0.735	correct	congruent	Block1	congruent/STIM_001.jpg
625.452	0.726	correct	congruent	Block1	congruent/STIM_001.jpg
630.077	0.726	correct	congruent	Block1	congruent/STIM_001.jpg
633.309	0.928	correct	congruent	Block1	congruent/STIM_001.jpg
636.386	0.695	correct	congruent	Block1	congruent/STIM_001.jpg
640.7	0.889	correct	congruent	Block1	congruent/STIM_002.jpg
643.716	0.676	correct	congruent	Block1	congruent/STIM_002.jpg
648.264	0.978	correct	congruent	Block1	congruent/STIM_002.jpg
652.025	0.551	correct	congruent	Block1	congruent/STIM_002.jpg
655.662	0.885	incorrect	congruent	Block1	congruent/STIM_002.jpg
658.724	0.792	correct	congruent	Block1	congruent/STIM_003.jpg
663.092	0.737	correct	congruent	Block1	congruent/STIM_003.jpg
667.036	0.63	correct	congruent	Block1	congruent/STIM_003.jpg
669.703	0.955	correct	congruent	Block1	congruent/STIM_003.jpg
673.43	0.628	correct	congruent	Block1	congruent/STIM_003.jpg
677.677	0.929	correct	congruent	Block1	congruent/STIM_004.jpg
681.067	0.574	incorrect	congruent	Block1	congruent/STIM_004.jpg
684.005	0.765	correct	congruent	Block1	congruent/STIM_004.jpg
687.106	0.773	incorrect	congruent	Block1	congruent/STIM_004.jpg
690.922	0.84	correct	congruent	Block1	congruent/STIM_004.jpg
693.825	0.767	correct	congruent	Block1	congruent/STIM_005.jpg
696.746	0.947	correct	congruent	Block1	congruent/STIM_005.jpg
700.081	0.562	correct	congruent	Block1	congruent/STIM_005.jpg
704.261	0.655	correct	congruent	Block1	congruent/STIM_005.jpg
708.157	0.961	correct	congruent	Block1	congruent/STIM_005.jpg
712.796	0.774	correct	congruent	Block1	congruent/STIM_006.jpg
717.35	0.84	correct	congruent	Block1	congruent/STIM_006.jpg
721.323	0.86	correct	congruent	Block1	congruent/STIM_006.jpg
724.717	0.624	correct	congruent	Block1	congruent/STIM_006.jpg
728.992	0.694	correct	congruent	Block1	congruent/STIM_006.jpg
733.016	0.528	correct	congruent	Block1	congruent/STIM_007.jpg
737.416	0.847	correct	congruent	Block1	congruent/STIM_007.jpg
740.434	0.861	correct	congruent	Block1	congruent/STIM_007.jpg
744.912	0.655	correct	congruent	Block1	congruent/STIM_007.jpg
748.737	0.754	correct	congruent	Block1	congruent/STIM_007.jpg
752.096	0.655	correct	congruent	Block1	congruent/STIM_008.jpg
755.225	0.561	correct	congruent	Block1	congruent/STIM_008.jpg
759.045	0.962	correct	congruent	Block1	congruent/STIM_008.jpg
763.396	0.724	correct	congruent	Block1	congruent/STIM_008.jpg
767.577	0.774	correct	congruent	Block1	congruent/STIM_008.jpg
771.066	0.816	correct	congruent	Block1	congruent/STIM_009.jpg
775.185	0.973	correct	congruent	Block1	congruent/STIM_009.jpg
778.507	0.8	correct	congruent	Block1	congruent/STIM_009.jpg
781.676	0.595	correct	congruent	Block1	congruent/STIM_009.jpg
784.567	0.904	correct	congruent	Block1	congruent/STIM_009.jpg
787.968	0.616	correct	congruent	Block1	congruent/STIM_010.jpg
792.421	0.815	correct	congruent	Block1	congruent/STIM_010.jpg
795.532	0.632	correct	congruent	Block1	congruent/STIM_010.jpg
798.735	0.648	correct	congruent	Block1	congruent/STIM_010.jpg
801.527	0.652	correct	congruent	Block1	congruent/STIM_010.jpg
805.917	0.634	correct	congruent	Block1	congruent/STIM_011.jpg
808.562	0.747	correct	congruent	Block1	congruent/STIM_011.jpg
812.966	0.921	correct	congruent	Block1	congruent/STIM_011.jpg
816.486	0.811	correct	congruent	Block1	congruent/STIM_011.jpg
820.365	0.872	correct	congruent	Block1	congruent/STIM_011.jpg
823.587	0.727	incorrect	congruent	Block1	congruent/STIM_012.jpg
828.181	0.894	correct	congruent	Block1	congruent/STIM_012.jpg
831.962	0.644	correct	congruent	Block1	congruent/STIM_012.jpg
835.801	0.814	correct	congruent	Block1	congruent/STIM_012.jpg
838.694	0.982	correct	congruent	Block1	congruent/STIM_012.jpg
842.521	0.917	correct	congruent	Block1	congruent/STIM_013.jpg
845.804	0.775	correct	congruent	Block1	congruent/STIM_013.jpg
849.854	0.702	correct	congruent	Block1	congruent/STIM_013.jpg
853.579	0.874	correct	congruent	Block1	congruent/STIM_013.jpg
856.683	0.76	incorrect	congruent	Block1	congruent/STIM_013.jpg
860.387	0.785	correct	congruent	Block1	congruent/STIM_014.jpg
864.312	0.92	correct	congruent	Block1	congruent/STIM_014.jpg
868.791	0.802	correct	congruent	Block1	congruent/STIM_014.jpg
872.408	0.878	correct	congruent	Block1	congruent/STIM_014.jpg
875.574	0.675	correct	congruent	Block1	congruent/STIM_014.jpg
879.948	0.929	correct	congruent	Block1	congruent/STIM_015.jpg
883.433	0.697	correct	congruent	Block1	congruent/STIM_015.jpg
887.172	0.794	correct	congruent	Block1	congruent/STIM_015.jpg
889.858	0.929	incorrect	congruent	Block1	congruent/STIM_015.jpg
892.782	0.802	correct	congruent	Block1	congruent/STIM_015.jpg
897.46	0.753	correct	congruent	Block1	congruent/STIM_016.jpg
901.574	0.945	correct	congruent	Block1	congruent/STIM_016.jpg
906.257	0.592	correct	congruent	Block1	congruent/STIM_016.jpg
909.125	0.517	correct	congruent	Block1	congruent/STIM_016.jpg
913.032	0.472	correct	congruent	Block1	congruent/STIM_016.jpg
917.077	0.676	correct	congruent	Block1	congruent/STIM_017.jpg
919.796	0.737	correct	congruent	Block1	congruent/STIM_017.jpg
923.564	0.791	incorrect	congruent	Block1	congruent/STIM_017.jpg
927.805	0.897	correct	congruent	Block1	congruent/STIM_017.jpg
932.529	0.772	correct	congruent	Block1	congruent/STIM_017.jpg
936.906	0.78	correct	congruent	Block1	congruent/STIM_018.jpg
941.302	0.758	incorrect	congruent	Block1	congruent/STIM_018.jpg
945.459	0.9	correct	congruent	Block1	congruent/STIM_018.jpg
948.481	0.548	correct	congruent	Block1	congruent/STIM_018.jpg
952.283	0.873	correct	congruent	Block1	congruent/STIM_018.jpg
956.374	0.868	correct	congruent	Block1	congruent/STIM_019.jpg
960.535	0.843	correct	congruent	Block1	congruent/STIM_019.jpg
964.378	0.506	correct	congruent	Block1	congruent/STIM_019.jpg
966.959	0.468	correct	congruent	Block1	congruent/STIM_019.jpg
970.349	0.96	correct	congruent	Block1	congruent/STIM_019.jpg
974.801	0.86	correct	congruent	Block1	congruent/STIM_020.jpg
977.946	0.513	correct	congruent	Block1	congruent/STIM_020.jpg
982.4	0.768	correct	congruent	Block1	congruent/STIM_020.jpg
985.833	0.616	correct	congruent	Block1	congruent/STIM_020.jpg
990.364	0.645	correct	congruent	Block1	congruent/STIM_020.jpg
994.476	0.793	correct	congruent	Block1	congruent/STIM_021.jpg
997.476	0.626	correct	congruent	Block1	congruent/STIM_021.jpg
1000.828	0.715	correct	congruent	Block1	congruent/STIM_021.jpg
1004.126	0.879	correct	congruent	Block1	congruent/STIM_021.jpg
1007.394	0.819	correct	congruent	Block1	congruent/STIM_021.jpg
1011.085	0.668	correct	congruent	Block1	congruent/STIM_022.jpg
1015.532	0.918	correct	congruent	Block1	congruent/STIM_022.jpg
1018.984	0.504	correct	congruent	Block1	congruent/STIM_022.jpg
1021.826	0.83	correct	congruent	Block1	congruent/STIM_022.jpg
1025.016	0.747	correct	congruent	Block1	congruent/STIM_022.jpg
1029.525	0.672	correct	congruent	Block1	congruent/STIM_023.jpg
1033.838	0.931	correct	congruent	Block1	congruent/STIM_023.jpg
1038.534	0.677	correct	congruent	Block1	congruent/STIM_023.jpg
1042.485	0.734	correct	congruent	Block1	congruent/STIM_023.jpg
1045.879	0.795	correct	congruent	Block1	congruent/STIM_023.jpg
1049.113	0.543	correct	congruent	Block1	congruent/STIM_024.jpg
1053.298	0.73	correct	congruent	Block1	congruent/STIM_024.jpg
1056.224	0.68	correct	congruent	Block1	congruent/STIM_024.jpg
1059.673	0.59	correct	congruent	Block1	congruent/STIM_024.jpg
1063.219	0.686	correct	congruent	Block1	congruent/STIM_024.jpg
1067.334	0.717	correct	congruent	Block1	congruent/STIM_025.jpg
1072.05	0.949	correct	congruent	Block1	congruent/STIM_025.jpg
1076.487	0.706	correct	congruent	Block1	congruent/STIM_025.jpg
1081.075	0.888	correct	congruent	Block1	congruent/STIM_025.jpg
1085.538	0.738	correct	congruent	Block1	congruent/STIM_025.jpg
1089.251	0.828	correct	congruent	Block1	congruent/STIM_026.jpg
1092.091	0.737	correct	congruent	Block1	congruent/STIM_026.jpg
1096.529	0.875	correct	congruent	Block1	congruent/STIM_026.jpg
1100.995	0.988	correct	congruent	Block1	congruent/STIM_026.jpg
1104.991	0.892	correct	congruent	Block1	congruent/STIM_026.jpg
1108.466	0.762	correct	congruent	Block1	congruent/STIM_027.jpg
1112.638	0.725	correct	congruent	Block1	congruent/STIM_027.jpg
1115.393	0.733	correct	congruent	Block1	congruent/STIM_027.jpg
1119.993	0.832	correct	congruent	Block1	congruent/STIM_027.jpg
1123.029	0.579	correct	congruent	Block1	congruent/STIM_027.jpg
1127.437	0.796	correct	congruent	Block1	congruent/STIM_028.jpg
1132.075	0.523	correct	congruent	Block1	congruent/STIM_028.jpg
1135.505	0.958	correct	congruent	Block1	congruent/STIM_028.jpg
1139.477	0.733	correct	congruent	Block1	congruent/STIM_028.jpg
1142.556	0.577	correct	congruent	Block1	congruent/STIM_028.jpg
1145.584	0.861	correct	congruent	Block1	congruent/STIM_029.jpg
1149.198	0.848	correct	congruent	Block1	congruent/STIM_029.jpg
1152.382	0.762	correct	congruent	Block1	congruent/STIM_029.jpg
1156.038	0.675	correct	congruent	Block1	congruent/STIM_029.jpg
1160.563	0.971	correct	congruent	Block1	congruent/STIM_029.jpg
1164.181	1.206	correct	incongruent	Block2	incongruent/STIM_000.jpg
1168.691	0.792	correct	incongruent	Block2	incongruent/STIM_000.jpg
1173.327	1.102	correct	incongruent	Block2	incongruent/STIM_000.jpg
1176.589	1.084	correct	incongruent	Block2	incongruent/STIM_000.jpg
1180.393	0.501	correct	incongruent	Block2	incongruent/STIM_000.jpg
1184.664	1.054	incorrect	incongruent	Block2	incongruent/STIM_001.jpg
1188.796	0.956	correct	incongruent	Block2	incongruent/STIM_001.jpg
1192.678	1.074	correct	incongruent	Block2	incongruent/STIM_001.jpg
1196.803	0.797	correct	incongruent	Block2	incongruent/STIM_001.jpg
1200.935	0.568	correct	incongruent	Block2	incongruent/STIM_001.jpg
1203.759	1.282	correct	incongruent	Block2	incongruent/STIM_002.jpg
1208.204	1.16	correct	incongruent	Block2	incongruent/STIM_002.jpg
1212.659	0.708	correct	incongruent	Block2	incongruent/STIM_002.jpg
1216.646	0.864	correct	incongruent	Block2	incongruent/STIM_002.jpg
1220.704	0.976	correct	incongruent	Block2	incongruent/STIM_002.jpg
1224.529	0.708	correct	incongruent	Block2	incongruent/STIM_003.jpg
1228.835	0.923	correct	incongruent	Block2	incongruent/STIM_003.jpg
1231.865	1.048	correct	incongruent	Block2	incongruent/STIM_003.jpg
1236.752	0.804	correct	incongruent	Block2	incongruent/STIM_003.jpg
1239.793	0.937	correct	incongruent	Block2	incongruent/STIM_003.jpg
1243.651	1.374	correct	incongruent	Block2	incongruent/STIM_004.jpg
1247.842	1.063	correct	incongruent	Block2	incongruent/STIM_004.jpg
1252.313	0.594	correct	incongruent	Block2	incongruent/STIM_004.jpg
1256.295	0.602	incorrect	incongruent	Block2	incongruent/STIM_004.jpg
1260.876	0.83	correct	incongruent	Block2	incongruent/STIM_004.jpg
1264.18	0.834	correct	incongruent	Block2	incongruent/STIM_005.jpg
1267.686	0.983	correct	incongruent	Block2	incongruent/STIM_005.jpg
1271.086	1.008	correct	incongruent	Block2	incongruent/STIM_005.jpg
1275.709	1.022	correct	incongruent	Block2	incongruent/STIM_005.jpg
1279.612	0.863	correct	incongruent	Block2	incongruent/STIM_005.jpg
1284.155	0.745	correct	incongruent	Block2	incongruent/STIM_006.jpg
1287.036	1.168	correct	incongruent	Block2	incongruent/STIM_006.jpg
1291.631	1.217	correct	incongruent	Block2	incongruent/STIM_006.jpg
1295.46	0.611	correct	incongruent	Block2	incongruent/STIM_006.jpg
1298.522	0.923	correct	incongruent	Block2	incongruent/STIM_006.jpg
1302.588	0.888	correct	incongruent	Block2	incongruent/STIM_007.jpg
1307.123	0.739	correct	incongruent	Block2	incongruent/STIM_007.jpg
1311.332	0.606	correct	incongruent	Block2	incongruent/STIM_007.jpg
1315.448	1.082	correct	incongruent	Block2	incongruent/STIM_007.jpg
1319.407	1.054	correct	incongruent	Block2	incongruent/STIM_007.jpg
1323.113	1.318	correct	incongruent	Block2	incongruent/STIM_008.jpg
1326.775	0.806	correct	incongruent	Block2	incongruent/STIM_008.jpg
1330.429	0.912	correct	incongruent	Block2	incongruent/STIM_008.jpg
1335.134	0.538	correct	incongruent	Block2	incongruent/STIM_008.jpg
1338.671	1.097	correct	incongruent	Block2	incongruent/STIM_008.jpg
1342.663	0.763	correct	incongruent	Block2	incongruent/STIM_009.jpg
1346.319	1.093	correct	incongruent	Block2	incongruent/STIM_009.jpg
1350.205	0.593	correct	incongruent	Block2	incongruent/STIM_009.jpg
1354.246	0.865	incorrect	incongruent	Block2	incongruent/STIM_009.jpg
1357.637	0.805	correct	incongruent	Block2	incongruent/STIM_009.jpg
1362.26	1.073	correct	incongruent	Block2	incongruent/STIM_010.jpg
1365.36	1.306	correct	incongruent	Block2	incongruent/STIM_010.jpg
1370.022	1.127	correct	incongruent	Block2	incongruent/STIM_010.jpg
1374.319	1.187	correct	incongruent	Block2	incongruent/STIM_010.jpg
1378.268	0.731	correct	incongruent	Block2	incongruent/STIM_010.jpg
1382.019	0.626	correct	incongruent	Block2	incongruent/STIM_011.jpg
1386.085	1.148	correct	incongruent	Block2	incongruent/STIM_011.jpg
1389.419	0.902	correct	incongruent	Block2	incongruent/STIM_011.jpg
1393.431	0.967	correct	incongruent	Block2	incongruent/STIM_011.jpg
1397.28	0.746	correct	incongruent	Block2	incongruent/STIM_011.jpg
1400.828	0.756	correct	incongruent	Block2	incongruent/STIM_012.jpg
1403.828	0.902	correct	incongruent	Block2	incongruent/STIM_012.jpg
1407.465	0.751	correct	incongruent	Block2	incongruent/STIM_012.jpg
1411.026	0.714	correct	incongruent	Block2	incongruent/STIM_012.jpg
1415.305	0.679	correct	incongruent	Block2	incongruent/STIM_012.jpg
1418.488	0.99	correct	incongruent	Block2	incongruent/STIM_013.jpg
1422.699	0.702	correct	incongruent	Block2	incongruent/STIM_013.jpg
1427.036	1.012	correct	incongruent	Block2	incongruent/STIM_013.jpg
1430.439	0.52	correct	incongruent	Block2	incongruent/STIM_013.jpg
1434.859	0.864	correct	incongruent	Block2	incongruent/STIM_013.jpg
1438.416	0.772	correct	incongruent	Block2	incongruent/STIM_014.jpg
1441.873	1.255	correct	incongruent	Block2	incongruent/STIM_014.jpg
1446.448	0.907	correct	incongruent	Block2	incongruent/STIM_014.jpg
1450.547	0.926	correct	incongruent	Block2	incongruent/STIM_014.jpg
1454.087	0.818	correct	incongruent	Block2	incongruent/STIM_014.jpg
1457.865	1.073	correct	incongruent	Block2	incongruent/STIM_015.jpg
1462.127	0.654	incorrect	incongruent	Block2	incongruent/STIM_015.jpg
1465.851	0.582	correct	incongruent	Block2	incongruent/STIM_015.jpg
1469.191	0.882	correct	incongruent	Block2	incongruent/STIM_015.jpg
1473.466	0.542	correct	incongruent	Block2	incongruent/STIM_015.jpg
1476.893	0.828	correct	incongruent	Block2	incongruent/STIM_016.jpg
1480.55	0.852	correct	incongruent	Block2	incongruent/STIM_016.jpg
1484.576	0.889	correct	incongruent	Block2	incongruent/STIM_016.jpg
1487.634	0.769	correct	incongruent	Block2	incongruent/STIM_016.jpg
1490.671	1.095	correct	incongruent	Block2	incongruent/STIM_016.jpg
1495.442	1.306	correct	incongruent	Block2	incongruent/STIM_017.jpg
1499.575	0.934	correct	incongruent	Block2	incongruent/STIM_017.jpg
1504.285	0.675	correct	incongruent	Block2	incongruent/STIM_017.jpg
1508.398	0.955	correct	incongruent	Block2	incongruent/STIM_017.jpg
1511.288	0.574	correct	incongruent	Block2	incongruent/STIM_017.jpg
1514.862	0.908	correct	incongruent	Block2	incongruent/STIM_018.jpg
1518.175	1.108	correct	incongruent	Block2	incongruent/STIM_018.jpg
1523.268	1.216	correct	incongruent	Block2	incongruent/STIM_018.jpg
1526.389	0.738	correct	incongruent	Block2	incongruent/STIM_018.jpg
1529.636	0.797	correct	incongruent	Block2	incongruent/STIM_018.jpg
1534.179	1.23	correct	incongruent	Block2	incongruent/STIM_019.jpg
1537.357	0.716	correct	incongruent	Block2	incongruent/STIM_019.jpg
1540.294	1.128	correct	incongruent	Block2	incongruent/STIM_019.jpg
1544.558	0.71	correct	incongruent	Block2	incongruent/STIM_019.jpg
1549.113	0.771	correct	incongruent	Block2	incongruent/STIM_019.jpg
1552.543	0.735	incorrect	incongruent	Block2	incongruent/STIM_020.jpg
1555.48	0.809	correct	incongruent	Block2	incongruent/STIM_020.jpg
1559.012	1.047	correct	incongruent	Block2	incongruent/STIM_020.jpg
1562.861	0.692	correct	incongruent	Block2	incongruent/STIM_020.jpg
1565.956	0.833	correct	incongruent	Block2	incongruent/STIM_020.jpg
1569.176	1.104	correct	incongruent	Block2	incongruent/STIM_021.jpg
1572.22	0.863	correct	incongruent	Block2	incongruent/STIM_021.jpg
1575.722	0.774	correct	incongruent	Block2	incongruent/STIM_021.jpg
1578.45	0.725	correct	incongruent	Block2	incongruent/STIM_021.jpg
1581.364	0.72	correct	incongruent	Block2	incongruent/STIM_021.jpg
1585.306	0.987	correct	incongruent	Block2	incongruent/STIM_022.jpg
1588.441	0.829	correct	incongruent	Block2	incongruent/STIM_022.jpg
1591.638	0.71	correct	incongruent	Block2	incongruent/STIM_022.jpg
1596.111	0.842	correct	incongruent	Block2	incongruent/STIM_022.jpg
1600.721	0.855	correct	incongruent	Block2	incongruent/STIM_022.jpg
1605.161	0.832	correct	incongruent	Block2	incongruent/STIM_023.jpg
1609.123	0.731	correct	incongruent	Block2	incongruent/STIM_023.jpg
1612.96	0.979	correct	incongruent	Block2	incongruent/STIM_023.jpg
1616.951	1.1	correct	incongruent	Block2	incongruent/STIM_023.jpg
1620.052	0.552	correct	incongruent	Block2	incongruent/STIM_023.jpg
1623.588	0.661	correct	incongruent	Block2	incongruent/STIM_024.jpg
1628.019	0.609	correct	incongruent	Block2	incongruent/STIM_024.jpg
1630.778	0.89	correct	incongruent	Block2	incongruent/STIM_024.jpg
1634.924	0.907	correct	incongruent	Block2	incongruent/STIM_024.jpg
1638.073	1.158	correct	incongruent	Block2	incongruent/STIM_024.jpg
1641.874	1.063	correct	incongruent	Block2	incongruent/STIM_025.jpg
1646.027	0.817	correct	incongruent	Block2	incongruent/STIM_025.jpg
1650.079	0.827	correct	incongruent	Block2	incongruent/STIM_025.jpg
1652.989	0.734	correct	incongruent	Block2	incongruent/STIM_025.jpg
1656.0	1.164	correct	incongruent	Block2	incongruent/STIM_025.jpg
1660.443	1.248	correct	incongruent	Block2	incongruent/STIM_026.jpg
1664.967	1.124	correct	incongruent	Block2	incongruent/STIM_026.jpg
1669.916	0.926	correct	incongruent	Block2	incongruent/STIM_026.jpg
1673.994	1.007	correct	incongruent	Block2	incongruent/STIM_026.jpg
1678.255	0.646	correct	incongruent	Block2	incongruent/STIM_026.jpg
1682.162	1.104	correct	incongruent	Block2	incongruent/STIM_027.jpg
1687.056	0.798	correct	incongruent	Block2	incongruent/STIM_027.jpg
1690.068	1.034	correct	incongruent	Block2	incongruent/STIM_027.jpg
1693.267	0.856	correct	incongruent	Block2	incongruent/STIM_027.jpg
1696.834	0.97	correct	incongruent	Block2	incongruent/STIM_027.jpg
1701.221	0.899	correct	incongruent	Block2	incongruent/STIM_028.jpg
1704.828	0.756	correct	incongruent	Block2	incongruent/STIM_028.jpg
1708.128	0.531	correct	incongruent	Block2	incongruent/STIM_028.jpg
1710.955	0.992	correct	incongruent	Block2	incongruent/STIM_028.jpg
1714.544	0.925	correct	incongruent	Block2	incongruent/STIM_028.jpg
1718.148	1.068	correct	incongruent	Block2	incongruent/STIM_029.jpg
1722.254	0.627	correct	incongruent	Block2	incongruent/STIM_029.jpg
1726.468	1.121	correct	incongruent	Block2	incongruent/STIM_029.jpg
1730.831	0.682	correct	incongruent	Block2	incongruent/STIM_029.jpg
1734.124	1.16	correct	incongruent	Block2	incongruent/STIM_029.jpg
1737.86	0.836	correct	congruent	Block2	congruent/STIM_000.jpg
1741.611	0.9	correct	congruent	Block2	congruent/STIM_000.jpg
1744.618	0.677	correct	congruent	Block2	congruent/STIM_000.jpg
1748.51	0.67	correct	congruent	Block2	congruent/STIM_000.jpg
1751.4	0.772	correct	congruent	Block2	congruent/STIM_000.jpg
1754.207	0.628	correct	congruent	Block2	congruent/STIM_001.jpg
1758.108	0.777	correct	congruent	Block2	congruent/STIM_001.jpg
1762.712	1.019	correct	congruent	Block2	congruent/STIM_001.jpg
1765.796	0.704	correct	congruent	Block2	congruent/STIM_001.jpg
1769.706	0.567	correct	congruent	Block2	congruent/STIM_001.jpg
1773.111	0.915	correct	congruent	Block2	congruent/STIM_002.jpg
1776.241	0.819	correct	congruent	Block2	congruent/STIM_002.jpg
1779.064	0.689	correct	congruent	Block2	congruent/STIM_002.jpg
1781.905	0.825	correct	congruent	Block2	congruent/STIM_002.jpg
1786.248	0.544	correct	congruent	Block2	congruent/STIM_002.jpg
1789.226	0.859	correct	congruent	Block2	congruent/STIM_003.jpg
1792.07	0.641	incorrect	congruent	Block2	congruent/STIM_003.jpg
1796.477	0.56	correct	congruent	Block2	congruent/STIM_003.jpg
1799.329	0.693	correct	congruent	Block2	congruent/STIM_003.jpg
1802.757	0.736	correct	congruent	Block2	congruent/STIM_003.jpg
1805.992	0.919	correct	congruent	Block2	congruent/STIM_004.jpg
1809.176	0.676	correct	congruent	Block2	congruent/STIM_004.jpg
1812.974	0.555	correct	congruent	Block2	congruent/STIM_004.jpg
1815.753	0.844	correct	congruent	Block2	congruent/STIM_004.jpg
1820.184	0.737	correct	congruent	Block2	congruent/STIM_004.jpg
1824.082	0.839	correct	congruent	Block2	congruent/STIM_005.jpg
1828.223	0.88	correct	congruent	Block2	congruent/STIM_005.jpg
1832.379	0.869	correct	congruent	Block2	congruent/STIM_005.jpg
1836.391	0.493	correct	congruent	Block2	congruent/STIM_005.jpg
1839.419	0.775	correct	congruent	Block2	congruent/STIM_005.jpg
1842.421	0.906	correct	congruent	Block2	congruent/STIM_006.jpg
1846.061	0.597	correct	congruent	Block2	congruent/STIM_006.jpg
1850.518	1.01	correct	congruent	Block2	congruent/STIM_006.jpg
1853.393	0.553	correct	congruent	Block2	congruent/STIM_006.jpg
1856.978	0.818	correct	congruent	Block2	congruent/STIM_006.jpg
1859.929	0.659	correct	congruent	Block2	congruent/STIM_007.jpg
1863.123	0.885	correct	congruent	Block2	congruent/STIM_007.jpg
1867.584	0.48	correct	congruent	Block2	congruent/STIM_007.jpg
1870.472	0.943	correct	congruent	Block2	congruent/STIM_007.jpg
1874.132	0.638	correct	congruent	Block2	congruent/STIM_007.jpg
1877.487	0.579	correct	congruent	Block2	congruent/STIM_008.jpg
1881.59	0.705	correct	congruent	Block2	congruent/STIM_008.jpg
1885.29	0.832	correct	congruent	Block2	congruent/STIM_008.jpg
1888.769	0.617	correct	congruent	Block2	congruent/STIM_008.jpg
1891.788	0.659	correct	congruent	Block2	congruent/STIM_008.jpg
1895.487	0.846	correct	congruent	Block2	congruent/STIM_009.jpg
1899.657	0.567	correct	congruent	Block2	congruent/STIM_009.jpg
1903.045	0.919	correct	congruent	Block2	congruent/STIM_009.jpg
1906.828	0.708	correct	congruent	Block2	congruent/STIM_009.jpg
1911.122	0.779	correct	congruent	Block2	congruent/STIM_009.jpg
1914.675	0.753	correct	congruent	Block2	congruent/STIM_010.jpg
1918.013	0.62	correct	congruent	Block2	congruent/STIM_010.jpg
1920.999	0.6	correct	congruent	Block2	congruent/STIM_010.jpg
1923.904	0.621	correct	congruent	Block2	congruent/STIM_010.jpg
1928.379	0.542	correct	congruent	Block2	congruent/STIM_010.jpg
1932.297	0.774	correct	congruent	Block2	congruent/STIM_011.jpg
1935.323	0.646	correct	congruent	Block2	congruent/STIM_011.jpg
1939.897	0.53	correct	congruent	Block2	congruent/STIM_011.jpg
1943.655	0.639	correct	congruent	Block2	congruent/STIM_011.jpg
1946.35	0.925	correct	congruent	Block2	congruent/STIM_011.jpg
1951.207	0.72	correct	congruent	Block2	congruent/STIM_012.jpg
1954.871	0.93	correct	congruent	Block2	congruent/STIM_012.jpg
1958.083	0.765	correct	congruent	Block2	congruent/STIM_012.jpg
1962.375	0.798	correct	congruent	Block2	congruent/STIM_012.jpg
1965.884	0.972	correct	congruent	Block2	congruent/STIM_012.jpg
1969.082	0.56	correct	congruent	Block2	congruent/STIM_013.jpg
1971.967	1.026	correct	congruent	Block2	congruent/STIM_013.jpg
1974.854	0.666	correct	congruent	Block2	congruent/STIM_013.jpg
1979.11	0.579	correct	congruent	Block2	congruent/STIM_013.jpg
1982.025	0.901	correct	congruent	Block2	congruent/STIM_013.jpg
1986.029	0.902	correct	congruent	Block2	congruent/STIM_014.jpg
1989.015	0.823	incorrect	congruent	Block2	congruent/STIM_014.jpg
1993.081	0.651	correct	congruent	Block2	congruent/STIM_014.jpg
1997.597	0.642	correct	congruent	Block2	congruent/STIM_014.jpg
2001.844	0.611	correct	congruent	Block2	congruent/STIM_014.jpg
2006.0	0.619	correct	congruent	Block2	congruent/STIM_015.jpg
2009.502	0.976	correct	congruent	Block2	congruent/STIM_015.jpg
2014.249	0.84	correct	congruent	Block2	congruent/STIM_015.jpg
2018.845	0.862	correct	congruent	Block2	congruent/STIM_015.jpg
2022.206	0.847	correct	congruent	Block2	congruent/STIM_015.jpg
2026.751	0.9	correct	congruent	Block2	congruent/STIM_016.jpg
2031.095	0.545	correct	congruent	Block2	congruent/STIM_016.jpg
2035.6	0.612	correct	congruent	Block2	congruent/STIM_016.jpg
2039.227	0.982	correct	congruent	Block2	congruent/STIM_016.jpg
2043.791	0.709	correct	congruent	Block2	congruent/STIM_016.jpg
2046.576	0.724	correct	congruent	Block2	congruent/STIM_017.jpg
2050.615	0.729	correct	congruent	Block2	congruent/STIM_017.jpg
2053.952	0.74	correct	congruent	Block2	congruent/STIM_017.jpg
2057.227	0.559	correct	congruent	Block2	congruent/STIM_017.jpg
2061.347	0.795	correct	congruent	Block2	congruent/STIM_017.jpg
2064.444	0.536	correct	congruent	Block2	congruent/STIM_018.jpg
2066.953	0.848	correct	congruent	Block2	congruent/STIM_018.jpg
2071.535	0.897	correct	congruent	Block2	congruent/STIM_018.jpg
2075.858	0.635	correct	congruent	Block2	congruent/STIM_018.jpg
2080.161	0.919	correct	congruent	Block2	congruent/STIM_018.jpg
2083.456	0.588	correct	congruent	Block2	congruent/STIM_019.jpg
2086.259	0.821	correct	congruent	Block2	congruent/STIM_019.jpg
2090.139	0.703	correct	congruent	Block2	congruent/STIM_019.jpg
2094.3	0.904	correct	congruent	Block2	congruent/STIM_019.jpg
2098.98	0.567	correct	congruent	Block2	congruent/STIM_019.jpg
2102.348	0.954	correct	congruent	Block2	congruent/STIM_020.jpg
2106.183	0.608	correct	congruent	Block2	congruent/STIM_020.jpg
2109.287	0.801	correct	congruent	Block2	congruent/STIM_020.jpg
2113.533	0.547	correct	congruent	Block2	congruent/STIM_020.jpg
2117.751	0.505	correct	congruent	Block2	congruent/STIM_020.jpg
2121.489	0.606	correct	congruent	Block2	congruent/STIM_021.jpg
2125.154	0.591	correct	congruent	Block2	congruent/STIM_021.jpg
2129.375	0.803	correct	congruent	Block2	congruent/STIM_021.jpg
2132.114	0.751	correct	congruent	Block2	congruent/STIM_021.jpg
2134.851	0.64	correct	congruent	Block2	congruent/STIM_021.jpg
2137.588	0.801	correct	congruent	Block2	congruent/STIM_022.jpg
2141.803	0.802	correct	congruent	Block2	congruent/STIM_022.jpg
2145.148	0.487	correct	congruent	Block2	congruent/STIM_022.jpg
2149.377	0.75	correct	congruent	Block2	congruent/STIM_022.jpg
2153.48	0.77	correct	congruent	Block2	congruent/STIM_022.jpg
2156.734	0.918	correct	congruent	Block2	congruent/STIM_023.jpg
2160.075	0.756	correct	congruent	Block2	congruent/STIM_023.jpg
2163.764	0.722	correct	congruent	Block2	congruent/STIM_023.jpg
2167.07	0.991	correct	congruent	Block2	congruent/STIM_023.jpg
2170.003	0.696	correct	congruent	Block2	congruent/STIM_023.jpg
2172.898	0.956	correct	congruent	Block2	congruent/STIM_024.jpg
2177.114	0.972	correct	congruent	Block2	congruent/STIM_024.jpg
2180.3	0.583	correct	congruent	Block2	congruent/STIM_024.jpg
2183.859	0.625	correct	congruent	Block2	congruent/STIM_024.jpg
2187.683	0.657	correct	congruent	Block2	congruent/STIM_024.jpg
2191.39	0.527	correct	congruent	Block2	congruent/STIM_025.jpg
2194.897	0.937	correct	congruent	Block2	congruent/STIM_025.jpg
2199.222	0.928	correct	congruent	Block2	congruent/STIM_025.jpg
2203.733	0.853	correct	congruent	Block2	congruent/STIM_025.jpg
2206.695	0.964	correct	congruent	Block2	congruent/STIM_025.jpg
2210.437	0.741	correct	congruent	Block2	congruent/STIM_026.jpg
2213.391	0.913	correct	congruent	Block2	congruent/STIM_026.jpg
2217.205	0.482	correct	congruent	Block2	congruent/STIM_026.jpg
2219.946	0.644	correct	congruent	Block2	congruent/STIM_026.jpg
2222.938	0.9	correct	congruent	Block2	congruent/STIM_026.jpg
2227.018	0.843	correct	congruent	Block2	congruent/STIM_027.jpg
2230.212	0.75	correct	congruent	Block2	congruent/STIM_027.jpg
2233.791	0.631	correct	congruent	Block2	congruent/STIM_027.jpg
2238.246	0.74	correct	congruent	Block2	congruent/STIM_027.jpg
2242.334	0.557	correct	congruent	Block2	congruent/STIM_027.jpg
2245.223	0.792	correct	congruent	Block2	congruent/STIM_028.jpg
2249.485	0.628	correct	congruent	Block2	congruent/STIM_028.jpg
2252.209	0.94	correct	congruent	Block2	congruent/STIM_028.jpg
2256.28	1.05	correct	congruent	Block2	congruent/STIM_028.jpg
2259.433	0.71	correct	congruent	Block2	congruent/STIM_028.jpg
2262.757	0.59	correct	congruent	Block2	congruent/STIM_029.jpg
2266.515	0.706	incorrect	congruent	Block2	congruent/STIM_029.jpg
2270.468	0.889	correct	congruent	Block2	congruent/STIM_029.jpg
2273.486	0.634	incorrect	congruent	Block2	congruent/STIM_029.jpg
2277.938	0.705	correct	congruent	Block2	congruent/STIM_029.jpg
2281.292	0.787	correct	incongruent	Block3	incongruent/STIM_000.jpg
2284.355	0.912	correct	incongruent	Block3	incongruent/STIM_000.jpg
2288.259	0.893	correct	incongruent	Block3	incongruent/STIM_000.jpg
2292.249	0.658	correct	incongruent	Block3	incongruent/STIM_000.jpg
2296.673	0.684	correct	incongruent	Block3	incongruent/STIM_000.jpg
2300.885	0.691	correct	incongruent	Block3	incongruent/STIM_001.jpg
2304.444	0.551	incorrect	incongruent	Block3	incongruent/STIM_001.jpg
2307.05	0.459	correct	incongruent	Block3	incongruent/STIM_001.jpg
2311.122	0.664	correct	incongruent	Block3	incongruent/STIM_001.jpg
2315.481	1.188	correct	incongruent	Block3	incongruent/STIM_001.jpg
2319.988	0.991	correct	incongruent	Block3	incongruent/STIM_002.jpg
2324.744	1.046	correct	incongruent	Block3	incongruent/STIM_002.jpg
2328.15	0.876	correct	incongruent	Block3	incongruent/STIM_002.jpg
2332.825	0.681	correct	incongruent	Block3	incongruent/STIM_002.jpg
2336.303	1.153	correct	incongruent	Block3	incongruent/STIM_002.jpg
2339.733	0.872	correct	incongruent	Block3	incongruent/STIM_003.jpg
2343.147	1.031	incorrect	incongruent	Block3	incongruent/STIM_003.jpg
2347.869	0.955	correct	incongruent	Block3	incongruent/STIM_003.jpg
2352.579	1.019	correct	incongruent	Block3	incongruent/STIM_003.jpg
2356.905	0.853	correct	incongruent	Block3	incongruent/STIM_003.jpg
2360.514	1.047	correct	incongruent	Block3	incongruent/STIM_004.jpg
2365.317	0.657	correct	incongruent	Block3	incongruent/STIM_004.jpg
2368.7	0.628	correct	incongruent	Block3	incongruent/STIM_004.jpg
2372.578	0.996	correct	incongruent	Block3	incongruent/STIM_004.jpg
2376.29	0.804	correct	incongruent	Block3	incongruent/STIM_004.jpg
2380.7	0.847	correct	incongruent	Block3	incongruent/STIM_005.jpg
2383.74	0.54	correct	incongruent	Block3	incongruent/STIM_005.jpg
2387.592	0.798	correct	incongruent	Block3	incongruent/STIM_005.jpg
2392.188	0.814	correct	incongruent	Block3	incongruent/STIM_005.jpg
2395.127	0.858	correct	incongruent	Block3	incongruent/STIM_005.jpg
2398.506	0.706	correct	incongruent	Block3	incongruent/STIM_006.jpg
2402.848	0.671	correct	incongruent	Block3	incongruent/STIM_006.jpg
2406.195	0.892	correct	incongruent	Block3	incongruent/STIM_006.jpg
2410.759	0.879	correct	incongruent	Block3	incongruent/STIM_006.jpg
2413.758	0.805	correct	incongruent	Block3	incongruent/STIM_006.jpg
2417.497	0.645	correct	incongruent	Block3	incongruent/STIM_007.jpg
2421.392	0.924	correct	incongruent	Block3	incongruent/STIM_007.jpg
2425.273	0.888	correct	incongruent	Block3	incongruent/STIM_007.jpg
2428.678	0.847	correct	incongruent	Block3	incongruent/STIM_007.jpg
2431.566	0.9	correct	incongruent	Block3	incongruent/STIM_007.jpg
2435.599	0.854	correct	incongruent	Block3	incongruent/STIM_008.jpg
2439.103	1.171	correct	incongruent	Block3	incongruent/STIM_008.jpg
2442.514	0.796	correct	incongruent	Block3	incongruent/STIM_008.jpg
2446.379	0.97	correct	incongruent	Block3	incongruent/STIM_008.jpg
2450.893	0.698	correct	incongruent	Block3	incongruent/STIM_008.jpg
2455.036	0.942	correct	incongruent	Block3	incongruent/STIM_009.jpg
2459.002	0.662	correct	incongruent	Block3	incongruent/STIM_009.jpg
2462.876	0.553	correct	incongruent	Block3	incongruent/STIM_009.jpg
2466.927	1.024	correct	incongruent	Block3	incongruent/STIM_009.jpg
2470.305	0.608	correct	incongruent	Block3	incongruent/STIM_009.jpg
2474.856	0.91	correct	incongruent	Block3	incongruent/STIM_010.jpg
2478.706	0.936	correct	incongruent	Block3	incongruent/STIM_010.jpg
2482.67	1.097	correct	incongruent	Block3	incongruent/STIM_010.jpg
2486.367	0.883	correct	incongruent	Block3	incongruent/STIM_010.jpg
2490.281	0.801	correct	incongruent	Block3	incongruent/STIM_010.jpg
2493.868	0.817	correct	incongruent	Block3	incongruent/STIM_011.jpg
2496.71	0.916	correct	incongruent	Block3	incongruent/STIM_011.jpg
2499.83	1.096	correct	incongruent	Block3	incongruent/STIM_011.jpg
2503.492	0.668	correct	incongruent	Block3	incongruent/STIM_011.jpg
2506.162	0.872	correct	incongruent	Block3	incongruent/STIM_011.jpg
2510.285	0.925	correct	incongruent	Block3	incongruent/STIM_012.jpg
2514.603	1.066	correct	incongruent	Block3	incongruent/STIM_012.jpg
2518.539	1.133	correct	incongruent	Block3	incongruent/STIM_012.jpg
2521.695	1.091	correct	incongruent	Block3	incongruent/STIM_012.jpg
2526.243	0.87	correct	incongruent	Block3	incongruent/STIM_012.jpg
2530.719	0.941	correct	incongruent	Block3	incongruent/STIM_013.jpg
2534.625	0.788	correct	incongruent	Block3	incongruent/STIM_013.jpg
2538.146	0.521	correct	incongruent	Block3	incongruent/STIM_013.jpg
2542.162	1.107	correct	incongruent	Block3	incongruent/STIM_013.jpg
2546.176	0.58	correct	incongruent	Block3	incongruent/STIM_013.jpg
2549.534	0.709	correct	incongruent	Block3	incongruent/STIM_014.jpg
2553.97	0.593	correct	incongruent	Block3	incongruent/STIM_014.jpg
2557.765	0.896	correct	incongruent	Block3	incongruent/STIM_014.jpg
2561.708	0.911	correct	incongruent	Block3	incongruent/STIM_014.jpg
2565.446	1.109	incorrect	incongruent	Block3	incongruent/STIM_014.jpg
2569.027	0.601	correct	incongruent	Block3	incongruent/STIM_015.jpg
2572.24	0.888	correct	incongruent	Block3	incongruent/STIM_015.jpg
2575.791	0.803	correct	incongruent	Block3	incongruent/STIM_015.jpg
2579.067	1.014	correct	incongruent	Block3	incongruent/STIM_015.jpg
2582.037	0.948	incorrect	incongruent	Block3	incongruent/STIM_015.jpg
2585.353	0.786	correct	incongruent	Block3	incongruent/STIM_016.jpg
2588.782	0.839	correct	incongruent	Block3	incongruent/STIM_016.jpg
2591.814	0.817	correct	incongruent	Block3	incongruent/STIM_016.jpg
2594.612	0.866	correct	incongruent	Block3	incongruent/STIM_016.jpg
2598.489	0.909	correct	incongruent	Block3	incongruent/STIM_016.jpg
2601.472	0.7	correct	incongruent	Block3	incongruent/STIM_017.jpg
2604.192	0.575	correct	incongruent	Block3	incongruent/STIM_017.jpg
2608.422	1.117	correct	incongruent	Block3	incongruent/STIM_017.jpg
2612.527	0.699	correct	incongruent	Block3	incongruent/STIM_017.jpg
2616.431	0.949	correct	incongruent	Block3	incongruent/STIM_017.jpg
2621.23	0.697	correct	incongruent	Block3	incongruent/STIM_018.jpg
2625.525	0.678	correct	incongruent	Block3	incongruent/STIM_018.jpg
2629.197	1.095	correct	incongruent	Block3	incongruent/STIM_018.jpg
2632.801	0.652	correct	incongruent	Block3	incongruent/STIM_018.jpg
2635.791	0.593	correct	incongruent	Block3	incongruent/STIM_018.jpg
2638.789	0.618	correct	incongruent	Block3	incongruent/STIM_019.jpg
2642.028	1.044	correct	incongruent	Block3	incongruent/STIM_019.jpg
2645.423	1.079	correct	incongruent	Block3	incongruent/STIM_019.jpg
2650.451	0.58	correct	incongruent	Block3	incongruent/STIM_019.jpg
2653.219	1.052	correct	incongruent	Block3	incongruent/STIM_019.jpg
2656.337	0.527	correct	incongruent	Block3	incongruent/STIM_020.jpg
2658.927	0.802	correct	incongruent	Block3	incongruent/STIM_020.jpg
2662.78	1.034	correct	incongruent	Block3	incongruent/STIM_020.jpg
2666.837	1.123	correct	incongruent	Block3	incongruent/STIM_020.jpg
2670.012	0.888	correct	incongruent	Block3	incongruent/STIM_020.jpg
2673.452	0.572	correct	incongruent	Block3	incongruent/STIM_021.jpg
2677.329	0.512	correct	incongruent	Block3	incongruent/STIM_021.jpg
2680.318	0.84	correct	incongruent	Block3	incongruent/STIM_021.jpg
2683.856	0.778	correct	incongruent	Block3	incongruent/STIM_021.jpg
2688.338	1.026	correct	incongruent	Block3	incongruent/STIM_021.jpg
2692.958	0.809	correct	incongruent	Block3	incongruent/STIM_022.jpg
2696.444	0.595	correct	incongruent	Block3	incongruent/STIM_022.jpg
2699.108	1.031	correct	incongruent	Block3	incongruent/STIM_022.jpg
2702.397	1.053	correct	incongruent	Block3	incongruent/STIM_022.jpg
2706.428	0.828	correct	incongruent	Block3	incongruent/STIM_022.jpg
2711.166	0.752	incorrect	incongruent	Block3	incongruent/STIM_023.jpg
2714.176	0.687	correct	incongruent	Block3	incongruent/STIM_023.jpg
2718.462	1.081	correct	incongruent	Block3	incongruent/STIM_023.jpg
2722.225	0.708	correct	incongruent	Block3	incongruent/STIM_023.jpg
2725.567	0.704	correct	incongruent	Block3	incongruent/STIM_023.jpg
2728.327	0.814	correct	incongruent	Block3	incongruent/STIM_024.jpg
2731.854	0.625	correct	incongruent	Block3	incongruent/STIM_024.jpg
2735.783	0.673	correct	incongruent	Block3	incongruent/STIM_024.jpg
2738.731	0.845	correct	incongruent	Block3	incongruent/STIM_024.jpg
2743.381	0.599	correct	incongruent	Block3	incongruent/STIM_024.jpg
2747.654	0.754	correct	incongruent	Block3	incongruent/STIM_025.jpg
2751.367	0.635	correct	incongruent	Block3	incongruent/STIM_025.jpg
2755.011	0.735	correct	incongruent	Block3	incongruent/STIM_025.jpg
2758.979	1.029	correct	incongruent	Block3	incongruent/STIM_025.jpg
2762.031	0.936	correct	incongruent	Block3	incongruent/STIM_025.jpg
2766.87	0.71	correct	incongruent	Block3	incongruent/STIM_026.jpg
2769.954	0.737	correct	incongruent	Block3	incongruent/STIM_026.jpg
2773.183	1.134	correct	incongruent	Block3	incongruent/STIM_026.jpg
2776.308	1.278	correct	incongruent	Block3	incongruent/STIM_026.jpg
2779.953	0.728	correct	incongruent	Block3	incongruent/STIM_026.jpg
2783.787	0.815	correct	incongruent	Block3	incongruent/STIM_027.jpg
2787.382	1.068	correct	incongruent	Block3	incongruent/STIM_027.jpg
2790.988	1.035	correct	incongruent	Block3	incongruent/STIM_027.jpg
2795.414	0.801	correct	incongruent	Block3	incongruent/STIM_027.jpg
2799.588	0.881	correct	incongruent	Block3	incongruent/STIM_027.jpg
2802.457	1.014	correct	incongruent	Block3	incongruent/STIM_028.jpg
2806.975	0.554	correct	incongruent	Block3	incongruent/STIM_028.jpg
2810.87	0.602	correct	incongruent	Block3	incongruent/STIM_028.jpg
2815.04	1.031	correct	incongruent	Block3	incongruent/STIM_028.jpg
2818.184	1.01	correct	incongruent	Block3	incongruent/STIM_028.jpg
2821.788	0.794	correct	incongruent	Block3	incongruent/STIM_029.jpg
2825.396	0.575	correct	incongruent	Block3	incongruent/STIM_029.jpg
2829.032	0.575	correct	incongruent	Block3	incongruent/STIM_029.jpg
2832.798	0.538	correct	incongruent	Block3	incongruent/STIM_029.jpg
2835.404	0.88	correct	incongruent	Block3	incongruent/STIM_029.jpg
2839.51	0.668	correct	congruent	Block3	congruent/STIM_000.jpg
2844.06	1.004	correct	congruent	Block3	congruent/STIM_000.jpg
2848.319	0.581	correct	congruent	Block3	congruent/STIM_000.jpg
2851.612	0.882	incorrect	congruent	Block3	congruent/STIM_000.jpg
2854.959	0.674	correct	congruent	Block3	congruent/STIM_000.jpg
2857.653	0.884	correct	congruent	Block3	congruent/STIM_001.jpg
2862.43	0.892	correct	congruent	Block3	congruent/STIM_001.jpg
2865.322	0.736	correct	congruent	Block3	congruent/STIM_001.jpg
2868.449	0.566	correct	congruent	Block3	congruent/STIM_001.jpg
2871.131	0.504	correct	congruent	Block3	congruent/STIM_001.jpg
2874.047	0.916	correct	congruent	Block3	congruent/STIM_002.jpg
2878.604	0.635	correct	congruent	Block3	congruent/STIM_002.jpg
2881.64	0.749	correct	congruent	Block3	congruent/STIM_002.jpg
2885.224	0.849	correct	congruent	Block3	congruent/STIM_002.jpg
2888.916	0.584	correct	congruent	Block3	congruent/STIM_002.jpg
2892.338	0.776	correct	congruent	Block3	congruent/STIM_003.jpg
2896.164	0.915	correct	congruent	Block3	congruent/STIM_003.jpg
2900.616	0.972	correct	congruent	Block3	congruent/STIM_003.jpg
2903.535	0.656	correct	congruent	Block3	congruent/STIM_003.jpg
2906.696	0.582	correct	congruent	Block3	congruent/STIM_003.jpg
2909.699	0.583	correct	congruent	Block3	congruent/STIM_004.jpg
2913.451	0.925	correct	congruent	Block3	congruent/STIM_004.jpg
2916.38	0.675	correct	congruent	Block3	congruent/STIM_004.jpg
2919.633	0.873	correct	congruent	Block3	congruent/STIM_004.jpg
2923.521	0.741	correct	congruent	Block3	congruent/STIM_004.jpg
2926.5	0.634	correct	congruent	Block3	congruent/STIM_005.jpg
2930.573	0.634	correct	congruent	Block3	congruent/STIM_005.jpg
2934.545	0.611	correct	congruent	Block3	congruent/STIM_005.jpg
2937.886	0.853	correct	congruent	Block3	congruent/STIM_005.jpg
2940.979	0.654	correct	congruent	Block3	congruent/STIM_005.jpg
2944.92	0.704	correct	congruent	Block3	congruent/STIM_006.jpg
2947.93	0.881	correct	congruent	Block3	congruent/STIM_006.jpg
2952.191	0.68	correct	congruent	Block3	congruent/STIM_006.jpg
2955.428	0.946	correct	congruent	Block3	congruent/STIM_006.jpg
2958.284	0.742	correct	congruent	Block3	congruent/STIM_006.jpg
2961.204	0.578	correct	congruent	Block3	congruent/STIM_007.jpg
2964.019	0.733	correct	congruent	Block3	congruent/STIM_007.jpg
2967.62	0.74	correct	congruent	Block3	congruent/STIM_007.jpg
2971.252	0.89	correct	congruent	Block3	congruent/STIM_007.jpg
2975.797	0.633	correct	congruent	Block3	congruent/STIM_007.jpg
2980.343	0.63	correct	congruent	Block3	congruent/STIM_008.jpg
2984.234	0.698	correct	congruent	Block3	congruent/STIM_008.jpg
2986.981	0.62	correct	congruent	Block3	congruent/STIM_008.jpg
2989.949	0.732	correct	congruent	Block3	congruent/STIM_008.jpg
2993.449	0.643	correct	congruent	Block3	congruent/STIM_008.jpg
2997.761	0.795	correct	congruent	Block3	congruent/STIM_009.jpg
3000.9	0.818	correct	congruent	Block3	congruent/STIM_009.jpg
3004.148	0.94	correct	congruent	Block3	congruent/STIM_009.jpg
3008.809	0.772	correct	congruent	Block3	congruent/STIM_009.jpg
3013.321	0.654	correct	congruent	Block3	congruent/STIM_009.jpg
3017.813	0.644	correct	congruent	Block3	congruent/STIM_010.jpg
3021.325	0.886	correct	congruent	Block3	congruent/STIM_010.jpg
3025.364	0.685	correct	congruent	Block3	congruent/STIM_010.jpg
3029.475	0.675	correct	congruent	Block3	congruent/STIM_010.jpg
3033.727	0.751	correct	congruent	Block3	congruent/STIM_010.jpg
3037.121	0.774	correct	congruent	Block3	congruent/STIM_011.jpg
3040.842	0.747	correct	congruent	Block3	congruent/STIM_011.jpg
3043.873	0.637	correct	congruent	Block3	congruent/STIM_011.jpg
3046.541	0.826	correct	congruent	Block3	congruent/STIM_011.jpg
3050.714	0.725	correct	congruent	Block3	congruent/STIM_011.jpg
3055.322	0.915	correct	congruent	Block3	congruent/STIM_012.jpg
3058.885	0.792	correct	congruent	Block3	congruent/STIM_012.jpg
3063.417	0.83	correct	congruent	Block3	congruent/STIM_012.jpg
3067.316	0.665	correct	congruent	Block3	congruent/STIM_012.jpg
3070.151	0.946	correct	congruent	Block3	congruent/STIM_012.jpg
3074.75	0.915	correct	congruent	Block3	congruent/STIM_013.jpg
3078.191	0.486	correct	congruent	Block3	congruent/STIM_013.jpg
3082.3	0.913	correct	congruent	Block3	congruent/STIM_013.jpg
3085.832	0.839	correct	congruent	Block3	congruent/STIM_013.jpg
3089.039	0.918	correct	congruent	Block3	congruent/STIM_013.jpg
3092.342	0.976	correct	congruent	Block3	congruent/STIM_014.jpg
3095.435	0.873	correct	congruent	Block3	congruent/STIM_014.jpg
3099.921	0.665	correct	congruent	Block3	congruent/STIM_014.jpg
3104.375	0.508	correct	congruent	Block3	congruent/STIM_014.jpg
3108.585	0.928	correct	congruent	Block3	congruent/STIM_014.jpg
3112.007	0.679	correct	congruent	Block3	congruent/STIM_015.jpg
3114.903	0.701	correct	congruent	Block3	congruent/STIM_015.jpg
3117.959	0.72	incorrect	congruent	Block3	congruent/STIM_015.jpg
3120.807	0.671	correct	congruent	Block3	congruent/STIM_015.jpg
3123.629	0.61	correct	congruent	Block3	congruent/STIM_015.jpg
3127.726	0.718	correct	congruent	Block3	congruent/STIM_016.jpg
3130.694	0.745	correct	congruent	Block3	congruent/STIM_016.jpg
3134.571	0.577	correct	congruent	Block3	congruent/STIM_016.jpg
3137.594	0.918	correct	congruent	Block3	congruent/STIM_016.jpg
3141.127	0.996	correct	congruent	Block3	congruent/STIM_016.jpg
3144.505	0.556	correct	congruent	Block3	congruent/STIM_017.jpg
3148.071	0.981	correct	congruent	Block3	congruent/STIM_017.jpg
3151.332	0.756	correct	congruent	Block3	congruent/STIM_017.jpg
3155.008	0.752	correct	congruent	Block3	congruent/STIM_017.jpg
3158.167	0.693	correct	congruent	Block3	congruent/STIM_017.jpg
3161.89	0.588	correct	congruent	Block3	congruent/STIM_018.jpg
3164.881	0.611	correct	congruent	Block3	congruent/STIM_018.jpg
3168.298	0.645	correct	congruent	Block3	congruent/STIM_018.jpg
3172.791	0.553	correct	congruent	Block3	congruent/STIM_018.jpg
3176.047	0.685	correct	congruent	Block3	congruent/STIM_018.jpg
3180.46	0.578	correct	congruent	Block3	congruent/STIM_019.jpg
3184.411	0.781	correct	congruent	Block3	congruent/STIM_019.jpg
3188.5	0.677	correct	congruent	Block3	congruent/STIM_019.jpg
3192.514	0.49	correct	congruent	Block3	congruent/STIM_019.jpg
3196.565	0.737	correct	congruent	Block3	congruent/STIM_019.jpg
3200.397	0.466	correct	congruent	Block3	congruent/STIM_020.jpg
3204.22	0.588	correct	congruent	Block3	congruent/STIM_020.jpg
3206.967	0.867	correct	congruent	Block3	congruent/STIM_020.jpg
3210.837	0.743	correct	congruent	Block3	congruent/STIM_020.jpg
3215.4	0.582	correct	congruent	Block3	congruent/STIM_020.jpg
3218.702	0.577	correct	congruent	Block3	congruent/STIM_021.jpg
3222.971	0.893	correct	congruent	Block3	congruent/STIM_021.jpg
3226.618	0.736	correct	congruent	Block3	congruent/STIM_021.jpg
3231.133	0.986	correct	congruent	Block3	congruent/STIM_021.jpg
3235.31	0.609	correct	congruent	Block3	congruent/STIM_021.jpg
3239.706	0.925	correct	congruent	Block3	congruent/STIM_022.jpg
3242.975	0.635	correct	congruent	Block3	congruent/STIM_022.jpg
3245.93	1.023	correct	congruent	Block3	congruent/STIM_022.jpg
3250.406	0.564	correct	congruent	Block3	congruent/STIM_022.jpg
3253.867	0.944	correct	congruent	Block3	congruent/STIM_022.jpg
3258.492	0.672	correct	congruent	Block3	congruent/STIM_023.jpg
3262.114	0.82	correct	congruent	Block3	congruent/STIM_023.jpg
3266.535	0.711	correct	congruent	Block3	congruent/STIM_023.jpg
3269.951	0.813	correct	congruent	Block3	congruent/STIM_023.jpg
3273.42	0.519	correct	congruent	Block3	congruent/STIM_023.jpg
3276.083	0.869	correct	congruent	Block3	congruent/STIM_024.jpg
3279.326	0.843	correct	congruent	Block3	congruent/STIM_024.jpg
3283.884	0.925	correct	congruent	Block3	congruent/STIM_024.jpg
3287.538	0.877	correct	congruent	Block3	congruent/STIM_024.jpg
3292.035	0.722	correct	congruent	Block3	congruent/STIM_024.jpg
3295.938	0.646	correct	congruent	Block3	congruent/STIM_025.jpg
3300.084	0.601	correct	congruent	Block3	congruent/STIM_025.jpg
3303.785	0.646	correct	congruent	Block3	congruent/STIM_025.jpg
3307.551	0.654	correct	congruent	Block3	congruent/STIM_025.jpg
3311.518	0.89	incorrect	congruent	Block3	congruent/STIM_025.jpg
3315.508	0.65	correct	congruent	Block3	congruent/STIM_026.jpg
3319.056	0.68	incorrect	congruent	Block3	congruent/STIM_026.jpg
3323.54	0.924	correct	congruent	Block3	congruent/STIM_026.jpg
3327.59	0.87	correct	congruent	Block3	congruent/STIM_026.jpg
3332.127	0.898	correct	congruent	Block3	congruent/STIM_026.jpg
3335.982	0.58	correct	congruent	Block3	congruent/STIM_027.jpg
3340.306	0.903	correct	congruent	Block3	congruent/STIM_027.jpg
3344.556	0.782	correct	congruent	Block3	congruent/STIM_027.jpg
3347.491	0.84	correct	congruent	Block3	congruent/STIM_027.jpg
3350.31	0.669	correct	congruent	Block3	congruent/STIM_027.jpg
3354.044	0.763	correct	congruent	Block3	congruent/STIM_028.jpg
3357.458	0.557	correct	congruent	Block3	congruent/STIM_028.jpg
3361.485	0.955	correct	congruent	Block3	congruent/STIM_028.jpg
3366.196	0.602	correct	congruent	Block3	congruent/STIM_028.jpg
3369.416	0.617	correct	congruent	Block3	congruent/STIM_028.jpg
3372.966	0.602	incorrect	congruent	Block3	congruent/STIM_029.jpg
3376.551	0.632	correct	congruent	Block3	congruent/STIM_029.jpg
3379.847	0.724	correct	congruent	Block3	congruent/STIM_029.jpg
3383.831	0.738	correct	congruent	Block3	congruent/STIM_029.jpg
3387.961	0.828	correct	congruent	Block3	congruent/STIM_029.jpg
