onset	duration	response_time_ms	trial_type	learning_stage	stimulus	response_port
0.0	1.168	1168.5	2back	Block1	2back/STIM_000.jpg	99
3.66	1.104	1104.4	2back	Block1	2back/STIM_000.jpg	100
7.494	0.816	816.5	2back	Block1	2back/STIM_000.jpg	100
10.858	0.719	718.6	2back	Block1	2back/STIM_001.jpg	99
13.784	0.956	956.2	2back	Block1	2back/STIM_001.jpg	99
18.278	0.636	635.7	2back	Block1	2back/STIM_001.jpg	99
21.625	1.157	1157.4	2back	Block1	2back/STIM_002.jpg	99
26.526	0.567	567.4	2back	Block1	2back/STIM_002.jpg	100
30.294	0.75	749.9	2back	Block1	2back/STIM_002.jpg	99
33.598	0.568	568.0	2back	Block1	2back/STIM_003.jpg	100
37.778	0.833	833.3	2back	Block1	2back/STIM_003.jpg	99
42.359	0.899	899.3	2back	Block1	2back/STIM_003.jpg	100
46.522	0.748	748.0	2back	Block1	2back/STIM_004.jpg	100
50.399	1.059	1059.4	2back	Block1	2back/STIM_004.jpg	100
54.916	0.663	663.1	2back	Block1	2back/STIM_004.jpg	100
58.109	1.159	1158.9	2back	Block1	2back/STIM_005.jpg	99
62.127	0.728	727.8	2back	Block1	2back/STIM_005.jpg	100
65.086	0.953	953.1	2back	Block1	2back/STIM_005.jpg	100
69.239	0.567	567.4	2back	Block1	2back/STIM_006.jpg	100
73.538	0.508	507.9	2back	Block1	2back/STIM_006.jpg	100
76.646	0.968	968.2	2back	Block1	2back/STIM_006.jpg	100
80.779	0.752	752.1	2back	Block1	2back/STIM_007.jpg	100
84.487	0.777	776.8	2back	Block1	2back/STIM_007.jpg	100
88.631	1.001	1001.4	2back	Block1	2back/STIM_007.jpg	100
92.915	1.129	1129.2	2back	Block1	2back/STIM_008.jpg	100
97.965	1.122	1121.6	2back	Block1	2back/STIM_008.jpg	99
101.24	0.699	698.6	2back	Block1	2back/STIM_008.jpg	100
105.747	0.757	757.0	2back	Block1	2back/STIM_009.jpg	100
109.4	0.864	864.2	2back	Block1	2back/STIM_009.jpg	100
114.097	1.079	1078.8	2back	Block1	2back/STIM_009.jpg	100
118.272	1.087	1086.7	2back	Block1	2back/STIM_010.jpg	100
122.726	1.165	1164.8	2back	Block1	2back/STIM_010.jpg	99
127.013	0.507	506.7	2back	Block1	2back/STIM_010.jpg	100
130.707	1.074	1074.2	2back	Block1	2back/STIM_011.jpg	99
135.757	0.804	804.2	2back	Block1	2back/STIM_011.jpg	100
138.596	1.107	1107.4	2back	Block1	2back/STIM_011.jpg	100
142.586	0.65	649.7	2back	Block1	2back/STIM_012.jpg	100
146.474	0.997	997.1	2back	Block1	2back/STIM_012.jpg	100
151.391	1.11	1110.5	2back	Block1	2back/STIM_012.jpg	99
155.099	0.853	852.9	2back	Block1	2back/STIM_013.jpg	100
159.384	0.531	531.0	2back	Block1	2back/STIM_013.jpg	100
163.031	1.024	1024.5	2back	Block1	2back/STIM_013.jpg	100
166.536	0.819	818.9	2back	Block1	2back/STIM_014.jpg	100
169.785	1.05	1049.6	2back	Block1	2back/STIM_014.jpg	99
173.313	0.729	728.7	2back	Block1	2back/STIM_014.jpg	100
177.784	0.711	710.8	2back	Block1	2back/STIM_015.jpg	100
181.043	1.116	1116.3	2back	Block1	2back/STIM_015.jpg	100
185.751	0.832	832.3	2back	Block1	2back/STIM_015.jpg	100
190.468	0.535	535.3	2back	Block1	2back/STIM_016.jpg	100
193.754	0.943	943.2	2back	Block1	2back/STIM_016.jpg	99
197.483	1.072	1072.2	2back	Block1	2back/STIM_016.jpg	99
201.524	0.95	950.4	2back	Block1	2back/STIM_017.jpg	99
204.933	0.65	650.3	2back	Block1	2back/STIM_017.jpg	100
208.431	1.022	1021.6	2back	Block1	2back/STIM_017.jpg	99
212.837	0.785	785.0	2back	Block1	2back/STIM_018.jpg	99
215.83	0.92	919.7	2back	Block1	2back/STIM_018.jpg	99
220.702	1.017	1017.4	2back	Block1	2back/STIM_018.jpg	100
224.592	0.616	615.6	2back	Block1	2back/STIM_019.jpg	100
228.615	0.856	856.1	2back	Block1	2back/STIM_019.jpg	99
232.823	0.909	908.9	2back	Block1	2back/STIM_019.jpg	99
235.932	1.152	1151.9	2back	Block1	2back/STIM_020.jpg	100
240.89	0.715	715.1	2back	Block1	2back/STIM_020.jpg	99
244.839	1.067	1066.6	2back	Block1	2back/STIM_020.jpg	100
249.441	1.162	1161.8	2back	Block1	2back/STIM_021.jpg	99
254.39	0.728	728.1	2back	Block1	2back/STIM_021.jpg	99
258.663	0.984	983.6	2back	Block1	2back/STIM_021.jpg	100
261.95	1.21	1209.9	2back	Block1	2back/STIM_022.jpg	99
265.865	1.076	1076.4	2back	Block1	2back/STIM_022.jpg	99
270.404	0.847	846.9	2back	Block1	2back/STIM_022.jpg	100
274.925	0.837	836.8	2back	Block1	2back/STIM_023.jpg	100
279.242	1.049	1049.1	2back	Block1	2back/STIM_023.jpg	99
283.77	1.048	1047.9	2back	Block1	2back/STIM_023.jpg	99
287.832	0.959	959.1	2back	Block1	2back/STIM_024.jpg	100
291.363	0.551	551.1	2back	Block1	2back/STIM_024.jpg	100
294.59	0.625	624.7	2back	Block1	2back/STIM_024.jpg	100
298.124	0.838	838.2	2back	Block1	2back/STIM_025.jpg	100
301.333	0.603	603.0	2back	Block1	2back/STIM_025.jpg	100
304.016	0.488	488.1	2back	Block1	2back/STIM_025.jpg	99
308.444	0.869	869.0	2back	Block1	2back/STIM_026.jpg	100
312.721	1.083	1083.4	2back	Block1	2back/STIM_026.jpg	99
317.279	0.503	503.1	2back	Block1	2back/STIM_026.jpg	99
321.637	1.157	1157.3	2back	Block1	2back/STIM_027.jpg	100
325.945	1.105	1105.3	2back	Block1	2back/STIM_027.jpg	99
329.602	0.897	896.8	2back	Block1	2back/STIM_027.jpg	100
334.154	0.988	988.4	2back	Block1	2back/STIM_028.jpg	100
338.168	0.592	591.5	2back	Block1	2back/STIM_028.jpg	100
342.485	0.987	986.6	2back	Block1	2back/STIM_028.jpg	99
346.431	1.027	1027.2	2back	Block1	2back/STIM_029.jpg	100
349.702	0.669	668.9	2back	Block1	2back/STIM_029.jpg	99
352.502	0.501	500.6	2back	Block1	2back/STIM_029.jpg	99
355.064	1.152	1151.6	2back	Block1	2back/STIM_030.jpg	100
359.562	0.589	589.2	2back	Block1	2back/STIM_030.jpg	99
364.071	0.786	785.6	2back	Block1	2back/STIM_030.jpg	100
367.9	0.683	683.4	2back	Block1	2back/STIM_031.jpg	99
371.009	0.794	793.6	2back	Block1	2back/STIM_031.jpg	100
374.804	0.785	784.6	2back	Block1	2back/STIM_031.jpg	100
378.112	1.234	1234.3	2back	Block1	2back/STIM_032.jpg	99
382.062	1.126	1126.0	2back	Block1	2back/STIM_032.jpg	100
385.315	0.645	645.1	2back	Block1	2back/STIM_032.jpg	99
388.907	0.633	633.2	2back	Block1	2back/STIM_033.jpg	99
392.495	0.577	576.9	2back	Block1	2back/STIM_033.jpg	100
396.771	0.496	496.2	2back	Block1	2back/STIM_033.jpg	99
400.94	0.742	742.3	2back	Block1	2back/STIM_034.jpg	99
403.693	0.598	597.9	2back	Block1	2back/STIM_034.jpg	100
407.895	0.673	673.0	2back	Block1	2back/STIM_034.jpg	100
412.223	1.167	1167.0	2back	Block1	2back/STIM_035.jpg	99
416.549	0.963	963.4	2back	Block1	2back/STIM_035.jpg	100
420.335	1.096	1096.5	2back	Block1	2back/STIM_035.jpg	100
423.665	0.96	959.7	2back	Block1	2back/STIM_036.jpg	100
427.401	0.552	551.8	2back	Block1	2back/STIM_036.jpg	100
430.475	0.938	937.5	2back	Block1	2back/STIM_036.jpg	100
433.869	1.109	1109.4	2back	Block1	2back/STIM_037.jpg	99
438.37	0.933	932.8	2back	Block1	2back/STIM_037.jpg	100
443.284	0.613	613.1	2back	Block1	2back/STIM_037.jpg	100
447.846	1.078	1078.0	2back	Block1	2back/STIM_038.jpg	100
451.431	0.571	571.3	2back	Block1	2back/STIM_038.jpg	99
454.855	0.97	970.5	2back	Block1	2back/STIM_038.jpg	99
459.62	1.121	1121.0	2back	Block1	2back/STIM_039.jpg	99
464.213	0.684	683.5	2back	Block1	2back/STIM_039.jpg	100
468.123	0.718	718.1	2back	Block1	2back/STIM_039.jpg	99
472.162	0.378	378.2	0back	Block1	0back/STIM_000.jpg	100
474.828	0.68	680.4	0back	Block1	0back/STIM_000.jpg	100
477.618	0.618	618.0	0back	Block1	0back/STIM_000.jpg	99
481.994	0.413	413.0	0back	Block1	0back/STIM_001.jpg	100
485.024	0.566	566.5	0back	Block1	0back/STIM_001.jpg	99
488.722	0.542	542.2	0back	Block1	0back/STIM_001.jpg	100
493.211	0.398	398.1	0back	Block1	0back/STIM_002.jpg	100
497.144	0.628	627.7	0back	Block1	0back/STIM_002.jpg	99
500.205	0.377	376.6	0back	Block1	0back/STIM_002.jpg	100
504.037	0.562	561.6	0back	Block1	0back/STIM_003.jpg	100
507.586	0.497	496.9	0back	Block1	0back/STIM_003.jpg	99
511.952	0.68	680.3	0back	Block1	0back/STIM_003.jpg	99
514.867	0.416	415.9	0back	Block1	0back/STIM_004.jpg	100
517.315	0.57	570.3	0back	Block1	0back/STIM_004.jpg	100
521.781	0.665	665.3	0back	Block1	0back/STIM_004.jpg	99
525.312	0.606	606.2	0back	Block1	0back/STIM_005.jpg	100
528.469	0.707	706.8	0back	Block1	0back/STIM_005.jpg	100
532.937	0.512	512.1	0back	Block1	0back/STIM_005.jpg	99
537.069	0.622	621.8	0back	Block1	0back/STIM_006.jpg	99
541.503	0.702	701.6	0back	Block1	0back/STIM_006.jpg	100
545.392	0.441	441.3	0back	Block1	0back/STIM_006.jpg	99
548.581	0.649	648.8	0back	Block1	0back/STIM_007.jpg	100
552.411	0.374	373.8	0back	Block1	0back/STIM_007.jpg	99
554.918	0.42	420.2	0back	Block1	0back/STIM_007.jpg	100
557.567	0.632	632.0	0back	Block1	0back/STIM_008.jpg	99
560.29	0.567	567.2	0back	Block1	0back/STIM_008.jpg	100
564.084	0.409	409.3	0back	Block1	0back/STIM_008.jpg	100
568.131	0.483	482.9	0back	Block1	0back/STIM_009.jpg	99
571.346	0.488	487.9	0back	Block1	0back/STIM_009.jpg	100
575.457	0.51	510.3	0back	Block1	0back/STIM_009.jpg	99
579.352	0.453	452.9	0back	Block1	0back/STIM_010.jpg	99
582.871	0.581	581.0	0back	Block1	0back/STIM_010.jpg	100
587.211	0.606	606.4	0back	Block1	0back/STIM_010.jpg	100
590.765	0.356	355.9	0back	Block1	0back/STIM_011.jpg	100
593.538	0.537	537.4	0back	Block1	0back/STIM_011.jpg	99
598.05	0.447	446.6	0back	Block1	0back/STIM_011.jpg	100
601.723	0.449	449.0	0back	Block1	0back/STIM_012.jpg	100
604.711	0.432	432.3	0back	Block1	0back/STIM_012.jpg	100
608.993	0.476	476.3	0back	Block1	0back/STIM_012.jpg	100
611.658	0.565	565.2	0back	Block1	0back/STIM_013.jpg	100
614.53	0.607	607.3	0back	Block1	0back/STIM_013.jpg	99
617.658	0.568	567.7	0back	Block1	0back/STIM_013.jpg	99
621.539	0.685	685.0	0back	Block1	0back/STIM_014.jpg	99
625.468	0.63	629.5	0back	Block1	0back/STIM_014.jpg	100
629.722	0.428	428.1	0back	Block1	0back/STIM_014.jpg	99
632.658	0.521	520.9	0back	Block1	0back/STIM_015.jpg	100
635.21	0.656	656.1	0back	Block1	0back/STIM_015.jpg	99
638.457	0.66	660.0	0back	Block1	0back/STIM_015.jpg	99
641.622	0.598	597.5	0back	Block1	0back/STIM_016.jpg	99
644.638	0.465	465.1	0back	Block1	0back/STIM_016.jpg	100
647.142	0.356	355.8	0back	Block1	0back/STIM_016.jpg	100
649.845	0.687	686.7	0back	Block1	0back/STIM_017.jpg	100
653.739	0.553	553.1	0back	Block1	0back/STIM_017.jpg	100
658.242	0.416	416.3	0back	Block1	0back/STIM_017.jpg	99
662.256	0.668	668.4	0back	Block1	0back/STIM_018.jpg	99
666.359	0.402	401.8	0back	Block1	0back/STIM_018.jpg	100
670.103	0.516	515.5	0back	Block1	0back/STIM_018.jpg	99
673.084	0.671	670.6	0back	Block1	0back/STIM_019.jpg	100
677.437	0.375	374.6	0back	Block1	0back/STIM_019.jpg	100
681.698	0.547	547.1	0back	Block1	0back/STIM_019.jpg	100
685.715	0.77	769.5	2back	Block2	2back/STIM_000.jpg	99
690.083	0.823	823.4	2back	Block2	2back/STIM_000.jpg	99
693.036	0.789	789.2	2back	Block2	2back/STIM_000.jpg	99
696.344	0.843	842.7	2back	Block2	2back/STIM_001.jpg	100
699.801	0.851	851.3	2back	Block2	2back/STIM_001.jpg	99
702.874	0.92	919.5	2back	Block2	2back/STIM_001.jpg	99
707.744	0.592	591.8	2back	Block2	2back/STIM_002.jpg	99
710.821	0.478	477.5	2back	Block2	2back/STIM_002.jpg	100
713.84	0.492	491.5	2back	Block2	2back/STIM_002.jpg	100
716.891	0.461	460.8	2back	Block2	2back/STIM_003.jpg	99
719.828	0.812	811.5	2back	Block2	2back/STIM_003.jpg	100
723.148	0.574	574.5	2back	Block2	2back/STIM_003.jpg	100
727.159	0.693	693.1	2back	Block2	2back/STIM_004.jpg	99
730.695	0.817	816.7	2back	Block2	2back/STIM_004.jpg	100
733.815	0.644	643.9	2back	Block2	2back/STIM_004.jpg	99
737.444	0.526	526.0	2back	Block2	2back/STIM_005.jpg	99
741.116	0.542	541.6	2back	Block2	2back/STIM_005.jpg	100
745.177	0.868	868.4	2back	Block2	2back/STIM_005.jpg	100
749.378	0.688	688.1	2back	Block2	2back/STIM_006.jpg	99
753.393	0.897	897.4	2back	Block2	2back/STIM_006.jpg	100
757.877	0.811	810.7	2back	Block2	2back/STIM_006.jpg	99
762.342	0.851	851.2	2back	Block2	2back/STIM_007.jpg	99
766.44	0.922	922.1	2back	Block2	2back/STIM_007.jpg	100
770.122	0.528	527.7	2back	Block2	2back/STIM_007.jpg	99
774.111	0.606	605.9	2back	Block2	2back/STIM_008.jpg	100
777.97	0.745	745.4	2back	Block2	2back/STIM_008.jpg	99
781.32	0.61	609.7	2back	Block2	2back/STIM_008.jpg	99
783.961	0.897	897.2	2back	Block2	2back/STIM_009.jpg	99
786.902	0.616	615.6	2back	Block2	2back/STIM_009.jpg	99
790.416	0.867	866.7	2back	Block2	2back/STIM_009.jpg	99
795.049	0.502	502.5	2back	Block2	2back/STIM_010.jpg	100
799.384	0.611	611.4	2back	Block2	2back/STIM_010.jpg	100
802.008	0.85	850.3	2back	Block2	2back/STIM_010.jpg	99
804.985	0.999	999.2	2back	Block2	2back/STIM_011.jpg	99
808.061	0.764	763.8	2back	Block2	2back/STIM_011.jpg	99
811.732	0.914	913.7	2back	Block2	2back/STIM_011.jpg	100
815.333	0.884	883.6	2back	Block2	2back/STIM_012.jpg	100
819.964	0.859	859.4	2back	Block2	2back/STIM_012.jpg	100
822.947	0.646	646.3	2back	Block2	2back/STIM_012.jpg	100
827.443	0.577	577.0	2back	Block2	2back/STIM_013.jpg	100
831.8	0.701	700.8	2back	Block2	2back/STIM_013.jpg	99
835.116	0.557	556.7	2back	Block2	2back/STIM_013.jpg	100
839.029	0.82	820.0	2back	Block2	2back/STIM_014.jpg	99
842.171	0.751	750.6	2back	Block2	2back/STIM_014.jpg	100
845.236	0.495	495.4	2back	Block2	2back/STIM_014.jpg	99
849.0	0.906	905.7	2back	Block2	2back/STIM_015.jpg	100
852.438	0.794	793.8	2back	Block2	2back/STIM_015.jpg	100
856.688	0.841	840.9	2back	Block2	2back/STIM_015.jpg	99
861.148	1.043	1043.2	2back	Block2	2back/STIM_016.jpg	100
864.612	0.867	867.1	2back	Block2	2back/STIM_016.jpg	100
868.683	0.717	716.8	2back	Block2	2back/STIM_016.jpg	100
872.628	0.817	816.8	2back	Block2	2back/STIM_017.jpg	100
876.625	0.784	783.8	2back	Block2	2back/STIM_017.jpg	100
880.908	0.583	583.1	2back	Block2	2back/STIM_017.jpg	100
883.763	1.006	1006.1	2back	Block2	2back/STIM_018.jpg	99
887.206	0.881	880.8	2back	Block2	2back/STIM_018.jpg	100
891.801	0.528	528.0	2back	Block2	2back/STIM_018.jpg	99
895.286	0.532	532.2	2back	Block2	2back/STIM_019.jpg	100
899.304	0.915	914.7	2back	Block2	2back/STIM_019.jpg	100
903.73	0.585	585.0	2back	Block2	2back/STIM_019.jpg	100
906.664	0.774	774.3	2back	Block2	2back/STIM_020.jpg	100
910.864	0.503	502.6	2back	Block2	2back/STIM_020.jpg	100
913.456	0.649	648.9	2back	Block2	2back/STIM_020.jpg	99
917.264	0.552	551.6	2back	Block2	2back/STIM_021.jpg	99
920.386	0.859	859.2	2back	Block2	2back/STIM_021.jpg	100
924.143	0.926	926.1	2back	Block2	2back/STIM_021.jpg	99
928.726	0.518	518.0	2back	Block2	2back/STIM_022.jpg	99
932.309	0.911	911.2	2back	Block2	2back/STIM_022.jpg	99
936.349	0.675	675.3	2back	Block2	2back/STIM_022.jpg	99
939.154	0.658	657.5	2back	Block2	2back/STIM_023.jpg	99
942.437	0.817	816.8	2back	Block2	2back/STIM_023.jpg	99
945.73	0.754	754.0	2back	Block2	2back/STIM_023.jpg	100
948.525	0.746	746.2	2back	Block2	2back/STIM_024.jpg	99
952.615	0.814	814.4	2back	Block2	2back/STIM_024.jpg	100
956.409	0.685	685.4	2back	Block2	2back/STIM_024.jpg	99
960.323	0.672	672.2	2back	Block2	2back/STIM_025.jpg	100
963.289	0.856	855.9	2back	Block2	2back/STIM_025.jpg	100
966.766	0.606	606.4	2back	Block2	2back/STIM_025.jpg	99
971.306	1.042	1041.8	2back	Block2	2back/STIM_026.jpg	99
976.343	0.852	852.1	2back	Block2	2back/STIM_026.jpg	99
980.326	0.804	804.4	2back	Block2	2back/STIM_026.jpg	100
984.073	0.888	887.7	2back	Block2	2back/STIM_027.jpg	100
987.127	0.976	976.1	2back	Block2	2back/STIM_027.jpg	99
991.109	0.676	675.9	2back	Block2	2back/STIM_027.jpg	100
995.047	0.797	797.1	2back	Block2	2back/STIM_028.jpg	99
997.896	0.954	954.0	2back	Block2	2back/STIM_028.jpg	99
1002.363	0.63	629.7	2back	Block2	2back/STIM_028.jpg	100
1005.034	0.575	574.7	2back	Block2	2back/STIM_029.jpg	99
1008.329	0.716	715.5	2back	Block2	2back/STIM_029.jpg	100
1011.088	0.401	401.4	2back	Block2	2back/STIM_029.jpg	99
1014.856	0.609	608.8	2back	Block2	2back/STIM_030.jpg	99
1017.8	0.514	513.6	2back	Block2	2back/STIM_030.jpg	99
1020.625	0.403	403.2	2back	Block2	2back/STIM_030.jpg	100
1023.967	0.892	891.5	2back	Block2	2back/STIM_031.jpg	100
1027.254	0.726	725.6	2back	Block2	2back/STIM_031.jpg	99
1030.252	0.868	867.7	2back	Block2	2back/STIM_031.jpg	100
1033.336	0.879	878.8	2back	Block2	2back/STIM_032.jpg	99
1036.688	0.987	987.2	2back	Block2	2back/STIM_032.jpg	99
1040.51	0.664	663.5	2back	Block2	2back/STIM_032.jpg	99
1043.915	0.463	463.3	2back	Block2	2back/STIM_033.jpg	99
1047.883	0.525	525.3	2back	Block2	2back/STIM_033.jpg	100
1050.463	0.516	515.9	2back	Block2	2back/STIM_033.jpg	100
1053.176	0.465	464.9	2back	Block2	2back/STIM_034.jpg	99
1056.329	0.587	586.8	2back	Block2	2back/STIM_034.jpg	99
1060.826	0.782	781.5	2back	Block2	2back/STIM_034.jpg	100
1063.763	0.634	633.8	2back	Block2	2back/STIM_035.jpg	100
1066.988	0.88	879.9	2back	Block2	2back/STIM_035.jpg	100
1070.04	0.647	646.8	2back	Block2	2back/STIM_035.jpg	99
1073.597	1.024	1023.9	2back	Block2	2back/STIM_036.jpg	99
1078.54	0.679	678.8	2back	Block2	2back/STIM_036.jpg	100
1082.151	0.754	754.2	2back	Block2	2back/STIM_036.jpg	99
1086.652	0.869	869.0	2back	Block2	2back/STIM_037.jpg	100
1090.2	0.496	496.0	2back	Block2	2back/STIM_037.jpg	100
1094.571	0.729	728.9	2back	Block2	2back/STIM_037.jpg	99
1097.814	0.782	782.5	2back	Block2	2back/STIM_038.jpg	99
1101.229	0.76	760.3	2back	Block2	2back/STIM_038.jpg	99
1104.948	0.756	755.8	2back	Block2	2back/STIM_038.jpg	99
1108.581	0.869	869.1	2back	Block2	2back/STIM_039.jpg	100
1111.959	0.55	550.3	2back	Block2	2back/STIM_039.jpg	100
1115.922	0.703	703.2	2back	Block2	2back/STIM_039.jpg	99
1119.359	0.556	556.4	0back	Block2	0back/STIM_000.jpg	100
1122.146	0.496	496.1	0back	Block2	0back/STIM_000.jpg	99
1125.786	0.476	476.5	0back	Block2	0back/STIM_000.jpg	99
1128.63	0.695	694.9	0back	Block2	0back/STIM_001.jpg	99
1132.777	0.456	455.5	0back	Block2	0back/STIM_001.jpg	99
1135.853	0.478	477.7	0back	Block2	0back/STIM_001.jpg	100
1139.938	0.519	518.7	0back	Block2	0back/STIM_002.jpg	99
1142.827	0.659	659.2	0back	Block2	0back/STIM_002.jpg	99
1147.164	0.594	594.1	0back	Block2	0back/STIM_002.jpg	99
1150.022	0.493	492.9	0back	Block2	0back/STIM_003.jpg	100
1152.759	0.612	611.5	0back	Block2	0back/STIM_003.jpg	99
1155.44	0.468	468.0	0back	Block2	0back/STIM_003.jpg	99
1159.085	0.617	617.4	0back	Block2	0back/STIM_004.jpg	100
1162.854	0.385	385.1	0back	Block2	0back/STIM_004.jpg	100
1167.21	0.707	706.8	0back	Block2	0back/STIM_004.jpg	99
1170.904	0.689	689.2	0back	Block2	0back/STIM_005.jpg	99
1174.135	0.665	664.6	0back	Block2	0back/STIM_005.jpg	99
1176.891	0.578	578.3	0back	Block2	0back/STIM_005.jpg	100
1181.449	0.66	660.3	0back	Block2	0back/STIM_006.jpg	99
1184.44	0.366	366.1	0back	Block2	0back/STIM_006.jpg	100
1187.69	0.591	591.1	0back	Block2	0back/STIM_006.jpg	100
1191.75	0.506	505.7	0back	Block2	0back/STIM_007.jpg	99
1194.938	0.561	561.2	0back	Block2	0back/STIM_007.jpg	99
1198.893	0.632	631.7	0back	Block2	0back/STIM_007.jpg	99
1202.056	0.668	668.0	0back	Block2	0back/STIM_008.jpg	99
1206.255	0.548	548.0	0back	Block2	0back/STIM_008.jpg	100
1208.83	0.641	640.6	0back	Block2	0back/STIM_008.jpg	100
1213.041	0.443	442.8	0back	Block2	0back/STIM_009.jpg	100
1216.325	0.495	494.7	0back	Block2	0back/STIM_009.jpg	100
1219.458	0.657	657.1	0back	Block2	0back/STIM_009.jpg	100
1222.348	0.407	407.3	0back	Block2	0back/STIM_010.jpg	100
1226.73	0.667	666.8	0back	Block2	0back/STIM_010.jpg	99
1229.686	0.675	675.3	0back	Block2	0back/STIM_010.jpg	100
1233.693	0.392	391.7	0back	Block2	0back/STIM_011.jpg	100
1237.499	0.695	694.8	0back	Block2	0back/STIM_011.jpg	100
1241.499	0.372	371.9	0back	Block2	0back/STIM_011.jpg	100
1244.15	0.377	377.1	0back	Block2	0back/STIM_012.jpg	100
1247.782	0.36	360.2	0back	Block2	0back/STIM_012.jpg	99
1250.869	0.704	703.7	0back	Block2	0back/STIM_012.jpg	99
1254.28	0.559	558.7	0back	Block2	0back/STIM_013.jpg	100
1257.957	0.569	569.3	0back	Block2	0back/STIM_013.jpg	100
1260.717	0.362	362.2	0back	Block2	0back/STIM_013.jpg	99
1263.098	0.393	393.2	0back	Block2	0back/STIM_014.jpg	99
1266.551	0.447	446.8	0back	Block2	0back/STIM_014.jpg	100
1269.603	0.503	503.3	0back	Block2	0back/STIM_014.jpg	100
1273.019	0.454	454.3	0back	Block2	0back/STIM_015.jpg	100
1275.67	0.454	453.5	0back	Block2	0back/STIM_015.jpg	100
1278.419	0.566	566.1	0back	Block2	0back/STIM_015.jpg	99
1281.293	0.574	573.9	0back	Block2	0back/STIM_016.jpg	100
1284.024	0.556	556.2	0back	Block2	0back/STIM_016.jpg	99
1287.156	0.633	632.6	0back	Block2	0back/STIM_016.jpg	100
1291.654	0.385	385.2	0back	Block2	0back/STIM_017.jpg	100
1294.212	0.489	488.7	0back	Block2	0back/STIM_017.jpg	100
1297.372	0.377	377.3	0back	Block2	0back/STIM_017.jpg	99
1300.832	0.701	700.6	0back	Block2	0back/STIM_018.jpg	99
1304.86	0.528	527.7	0back	Block2	0back/STIM_018.jpg	100
1308.506	0.514	513.5	0back	Block2	0back/STIM_018.jpg	100
1311.175	0.364	364.0	0back	Block2	0back/STIM_019.jpg	99
1314.925	0.392	391.8	0back	Block2	0back/STIM_019.jpg	99
1319.001	0.682	682.4	0back	Block2	0back/STIM_019.jpg	100
1322.815	0.652	651.8	2back	Block3	2back/STIM_000.jpg	100
1326.608	0.613	613.3	2back	Block3	2back/STIM_000.jpg	99
1330.705	0.427	427.3	2back	Block3	2back/STIM_000.jpg	99
1334.852	0.834	833.7	2back	Block3	2back/STIM_001.jpg	100
1338.351	0.754	753.7	2back	Block3	2back/STIM_001.jpg	99
1341.299	0.755	754.8	2back	Block3	2back/STIM_001.jpg	99
1345.672	0.841	840.8	2back	Block3	2back/STIM_002.jpg	99
1350.153	0.615	615.2	2back	Block3	2back/STIM_002.jpg	99
1353.121	0.44	440.2	2back	Block3	2back/STIM_002.jpg	100
1355.587	0.587	586.6	2back	Block3	2back/STIM_003.jpg	99
1358.517	0.523	523.1	2back	Block3	2back/STIM_003.jpg	100
1362.25	0.5	499.8	2back	Block3	2back/STIM_003.jpg	99
1364.787	0.732	732.0	2back	Block3	2back/STIM_004.jpg	99
1368.046	0.419	418.8	2back	Block3	2back/STIM_004.jpg	100
1371.364	0.771	770.9	2back	Block3	2back/STIM_004.jpg	100
1375.703	0.677	677.1	2back	Block3	2back/STIM_005.jpg	100
1379.494	0.495	494.7	2back	Block3	2back/STIM_005.jpg	100
1383.591	0.418	417.5	2back	Block3	2back/STIM_005.jpg	100
1386.389	0.8	799.7	2back	Block3	2back/STIM_006.jpg	99
1389.831	0.399	399.4	2back	Block3	2back/STIM_006.jpg	99
1392.797	0.867	867.4	2back	Block3	2back/STIM_006.jpg	99
1397.442	0.532	531.7	2back	Block3	2back/STIM_007.jpg	100
1400.812	0.379	379.2	2back	Block3	2back/STIM_007.jpg	100
1405.191	0.552	551.9	2back	Block3	2back/STIM_007.jpg	100
1408.812	0.496	496.0	2back	Block3	2back/STIM_008.jpg	99
1411.343	0.644	643.6	2back	Block3	2back/STIM_008.jpg	99
1414.445	0.711	711.1	2back	Block3	2back/STIM_008.jpg	99
1417.22	0.838	838.5	2back	Block3	2back/STIM_009.jpg	100
1421.819	0.745	745.0	2back	Block3	2back/STIM_009.jpg	100
1425.731	0.786	786.4	2back	Block3	2back/STIM_009.jpg	100
1429.926	0.503	503.2	2back	Block3	2back/STIM_010.jpg	100
1433.293	0.687	686.8	2back	Block3	2back/STIM_010.jpg	100
1436.399	0.565	564.8	2back	Block3	2back/STIM_010.jpg	99
1440.13	0.833	833.1	2back	Block3	2back/STIM_011.jpg	100
1443.17	0.467	467.4	2back	Block3	2back/STIM_011.jpg	100
1446.631	0.658	658.1	2back	Block3	2back/STIM_011.jpg	99
1450.325	0.672	672.2	2back	Block3	2back/STIM_012.jpg	100
1453.397	0.375	374.8	2back	Block3	2back/STIM_012.jpg	99
1456.007	0.827	827.2	2back	Block3	2back/STIM_012.jpg	100
1460.569	0.601	600.8	2back	Block3	2back/STIM_013.jpg	100
1463.62	0.655	654.8	2back	Block3	2back/STIM_013.jpg	99
1467.384	0.416	416.0	2back	Block3	2back/STIM_013.jpg	99
1470.026	0.792	791.5	2back	Block3	2back/STIM_014.jpg	100
1474.558	0.465	464.9	2back	Block3	2back/STIM_014.jpg	99
1478.748	0.599	599.4	2back	Block3	2back/STIM_014.jpg	100
1482.471	0.402	402.4	2back	Block3	2back/STIM_015.jpg	100
1486.265	0.683	683.2	2back	Block3	2back/STIM_015.jpg	99
1489.52	0.598	597.7	2back	Block3	2back/STIM_015.jpg	99
1492.387	0.422	421.9	2back	Block3	2back/STIM_016.jpg	100
1495.035	0.661	661.3	2back	Block3	2back/STIM_016.jpg	99
1498.158	0.646	646.1	2back	Block3	2back/STIM_016.jpg	99
1501.21	0.493	492.8	2back	Block3	2back/STIM_017.jpg	100
1504.199	0.477	476.8	2back	Block3	2back/STIM_017.jpg	99
1506.855	0.408	407.6	2back	Block3	2back/STIM_017.jpg	100
1509.597	0.487	486.9	2back	Block3	2back/STIM_018.jpg	99
1512.544	0.461	461.2	2back	Block3	2back/STIM_018.jpg	99
1515.626	0.701	701.0	2back	Block3	2back/STIM_018.jpg	100
1519.526	0.57	569.9	2back	Block3	2back/STIM_019.jpg	99
1522.261	0.382	381.5	2back	Block3	2back/STIM_019.jpg	100
1525.704	0.82	819.9	2back	Block3	2back/STIM_019.jpg	99
1530.38	0.65	650.1	2back	Block3	2back/STIM_020.jpg	100
1534.364	0.526	526.0	2back	Block3	2back/STIM_020.jpg	99
1536.991	0.666	666.1	2back	Block3	2back/STIM_020.jpg	100
1540.594	0.714	714.2	2back	Block3	2back/STIM_021.jpg	99
1543.893	0.443	443.0	2back	Block3	2back/STIM_021.jpg	100
1547.993	0.841	840.8	2back	Block3	2back/STIM_021.jpg	100
1551.862	0.75	749.6	2back	Block3	2back/STIM_022.jpg	99
1555.314	0.744	744.5	2back	Block3	2back/STIM_022.jpg	99
1559.196	0.684	683.5	2back	Block3	2back/STIM_022.jpg	100
1563.546	0.721	721.3	2back	Block3	2back/STIM_023.jpg	100
1566.411	0.441	440.6	2back	Block3	2back/STIM_023.jpg	99
1570.724	0.654	653.5	2back	Block3	2back/STIM_023.jpg	99
1573.749	0.561	561.4	2back	Block3	2back/STIM_024.jpg	100
1576.723	0.842	842.0	2back	Block3	2back/STIM_024.jpg	99
1581.141	0.461	460.9	2back	Block3	2back/STIM_024.jpg	99
1585.479	0.377	377.0	2back	Block3	2back/STIM_025.jpg	100
1588.782	0.717	717.4	2back	Block3	2back/STIM_025.jpg	100
1592.937	0.673	673.0	2back	Block3	2back/STIM_025.jpg	100
1597.18	0.415	415.4	2back	Block3	2back/STIM_026.jpg	100
1601.221	0.841	840.7	2back	Block3	2back/STIM_026.jpg	100
1605.378	0.464	464.3	2back	Block3	2back/STIM_026.jpg	99
1607.964	0.692	691.6	2back	Block3	2back/STIM_027.jpg	100
1611.984	0.628	628.4	2back	Block3	2back/STIM_027.jpg	99
1614.935	0.629	628.9	2back	Block3	2back/STIM_027.jpg	100
1619.059	0.629	629.0	2back	Block3	2back/STIM_028.jpg	100
1623.009	0.623	622.8	2back	Block3	2back/STIM_028.jpg	100
1625.989	0.456	455.5	2back	Block3	2back/STIM_028.jpg	99
1628.911	0.701	701.0	2back	Block3	2back/STIM_029.jpg	100
1632.407	0.769	769.1	2back	Block3	2back/STIM_029.jpg	99
1636.453	0.575	574.8	2back	Block3	2back/STIM_029.jpg	100
1639.635	0.608	608.1	2back	Block3	2back/STIM_030.jpg	100
1643.196	0.706	705.6	2back	Block3	2back/STIM_030.jpg	99
1646.566	0.842	842.0	2back	Block3	2back/STIM_030.jpg	99
1650.292	0.775	774.9	2back	Block3	2back/STIM_031.jpg	99
1654.946	0.432	431.8	2back	Block3	2back/STIM_031.jpg	99
1657.765	0.526	526.5	2back	Block3	2back/STIM_031.jpg	99
1660.383	0.592	592.1	2back	Block3	2back/STIM_032.jpg	99
1663.497	0.547	546.9	2back	Block3	2back/STIM_032.jpg	99
1667.136	0.642	641.7	2back	Block3	2back/STIM_032.jpg	99
1671.432	0.763	762.9	2back	Block3	2back/STIM_033.jpg	99
1674.996	0.604	604.2	2back	Block3	2back/STIM_033.jpg	100
1679.473	0.588	588.1	2back	Block3	2back/STIM_033.jpg	100
1683.153	0.54	539.9	2back	Block3	2back/STIM_034.jpg	99
1687.059	0.603	602.6	2back	Block3	2back/STIM_034.jpg	99
1690.559	0.649	648.9	2back	Block3	2back/STIM_034.jpg	99
1694.434	0.528	527.5	2back	Block3	2back/STIM_035.jpg	100
1697.259	0.84	839.8	2back	Block3	2back/STIM_035.jpg	99
1700.243	0.82	819.6	2back	Block3	2back/STIM_035.jpg	100
1703.405	0.823	823.1	2back	Block3	2back/STIM_036.jpg	99
1706.885	0.556	555.6	2back	Block3	2back/STIM_036.jpg	99
1709.53	0.673	672.6	2back	Block3	2back/STIM_036.jpg	100
1713.329	0.649	649.3	2back	Block3	2back/STIM_037.jpg	100
1717.523	0.594	594.5	2back	Block3	2back/STIM_037.jpg	100
1721.8	0.453	453.2	2back	Block3	2back/STIM_037.jpg	100
1725.447	0.712	712.1	2back	Block3	2back/STIM_038.jpg	99
1728.77	0.449	449.1	2back	Block3	2back/STIM_038.jpg	100
1732.777	0.828	828.1	2back	Block3	2back/STIM_038.jpg	100
1735.82	0.663	663.3	2back	Block3	2back/STIM_039.jpg	100
1739.457	0.396	396.4	2back	Block3	2back/STIM_039.jpg	100
1742.758	0.664	664.0	2back	Block3	2back/STIM_039.jpg	100
1747.241	0.535	535.2	0back	Block3	0back/STIM_000.jpg	99
1750.016	0.608	608.1	0back	Block3	0back/STIM_000.jpg	100
1753.492	0.508	507.7	0back	Block3	0back/STIM_000.jpg	100
1756.662	0.432	431.8	0back	Block3	0back/STIM_001.jpg	99
1759.829	0.481	481.1	0back	Block3	0back/STIM_001.jpg	99
1762.91	0.376	376.4	0back	Block3	0back/STIM_001.jpg	100
1765.295	0.587	587.2	0back	Block3	0back/STIM_002.jpg	99
1769.594	0.552	551.8	0back	Block3	0back/STIM_002.jpg	100
1773.5	0.402	401.6	0back	Block3	0back/STIM_002.jpg	99
1777.219	0.559	558.7	0back	Block3	0back/STIM_003.jpg	100
1779.78	0.425	425.4	0back	Block3	0back/STIM_003.jpg	100
1782.456	0.656	656.3	0back	Block3	0back/STIM_003.jpg	99
1786.465	0.437	437.3	0back	Block3	0back/STIM_004.jpg	99
1790.48	0.621	621.1	0back	Block3	0back/STIM_004.jpg	99
1794.924	0.647	647.1	0back	Block3	0back/STIM_004.jpg	99
1799.425	0.468	468.1	0back	Block3	0back/STIM_005.jpg	100
1802.065	0.583	583.1	0back	Block3	0back/STIM_005.jpg	99
1805.883	0.549	548.8	0back	Block3	0back/STIM_005.jpg	100
1810.425	0.394	393.9	0back	Block3	0back/STIM_006.jpg	99
1813.796	0.551	551.0	0back	Block3	0back/STIM_006.jpg	100
1818.163	0.537	537.3	0back	Block3	0back/STIM_006.jpg	99
1821.857	0.453	452.6	0back	Block3	0back/STIM_007.jpg	99
1825.783	0.382	381.6	0back	Block3	0back/STIM_007.jpg	100
1830.135	0.481	480.9	0back	Block3	0back/STIM_007.jpg	100
1833.612	0.466	465.7	0back	Block3	0back/STIM_008.jpg	100
1836.993	0.387	387.3	0back	Block3	0back/STIM_008.jpg	99
1841.321	0.704	704.3	0back	Block3	0back/STIM_008.jpg	99
1845.283	0.659	659.0	0back	Block3	0back/STIM_009.jpg	99
1849.498	0.397	397.2	0back	Block3	0back/STIM_009.jpg	99
1853.819	0.528	527.7	0back	Block3	0back/STIM_009.jpg	100
1856.51	0.696	696.5	0back	Block3	0back/STIM_010.jpg	99
1860.813	0.457	457.1	0back	Block3	0back/STIM_010.jpg	99
1864.235	0.412	411.5	0back	Block3	0back/STIM_010.jpg	99
1866.948	0.627	626.6	0back	Block3	0back/STIM_011.jpg	99
1870.121	0.407	406.6	0back	Block3	0back/STIM_011.jpg	100
1872.591	0.501	501.4	0back	Block3	0back/STIM_011.jpg	99
1876.369	0.558	557.5	0back	Block3	0back/STIM_012.jpg	100
1879.975	0.431	431.1	0back	Block3	0back/STIM_012.jpg	100
1882.636	0.622	621.7	0back	Block3	0back/STIM_012.jpg	99
1887.251	0.62	620.0	0back	Block3	0back/STIM_013.jpg	100
1890.849	0.626	626.0	0back	Block3	0back/STIM_013.jpg	100
1893.953	0.645	645.1	0back	Block3	0back/STIM_013.jpg	99
1897.503	0.357	357.4	0back	Block3	0back/STIM_014.jpg	100
1900.007	0.533	532.9	0back	Block3	0back/STIM_014.jpg	100
1903.583	0.506	506.3	0back	Block3	0back/STIM_014.jpg	99
1907.474	0.575	574.8	0back	Block3	0back/STIM_015.jpg	99
1912.009	0.528	528.5	0back	Block3	0back/STIM_015.jpg	100
1916.386	0.466	465.8	0back	Block3	0back/STIM_015.jpg	99
1920.321	0.503	502.9	0back	Block3	0back/STIM_016.jpg	99
1923.849	0.427	427.3	0back	Block3	0back/STIM_016.jpg	100
1926.39	0.584	584.3	0back	Block3	0back/STIM_016.jpg	100
1929.571	0.624	623.7	0back	Block3	0back/STIM_017.jpg	99
1933.768	0.381	381.4	0back	Block3	0back/STIM_017.jpg	99
1938.035	0.708	708.1	0back	Block3	0back/STIM_017.jpg	100
1941.123	0.498	498.3	0back	Block3	0back/STIM_018.jpg	100
1944.908	0.704	703.5	0back	Block3	0back/STIM_018.jpg	100
1949.252	0.453	452.6	0back	Block3	0back/STIM_018.jpg	100
1952.397	0.622	622.1	0back	Block3	0back/STIM_019.jpg	100
1955.299	0.643	643.2	0back	Block3	0back/STIM_019.jpg	100
1959.367	0.485	484.9	0back	Block3	0back/STIM_019.jpg	100
1961.93	0.787	787.3	2back	Block4	2back/STIM_000.jpg	100
1965.37	0.863	862.7	2back	Block4	2back/STIM_000.jpg	99
1969.059	0.82	819.6	2back	Block4	2back/STIM_000.jpg	99
1973.12	0.671	671.2	2back	Block4	2back/STIM_001.jpg	100
1977.02	0.645	645.3	2back	Block4	2back/STIM_001.jpg	100
1981.317	0.817	816.7	2back	Block4	2back/STIM_001.jpg	100
1985.956	0.781	781.0	2back	Block4	2back/STIM_002.jpg	99
1989.178	0.44	439.5	2back	Block4	2back/STIM_002.jpg	100
1992.394	0.447	446.6	2back	Block4	2back/STIM_002.jpg	99
1995.384	0.611	611.0	2back	Block4	2back/STIM_003.jpg	100
1998.139	0.757	756.6	2back	Block4	2back/STIM_003.jpg	99
2002.408	0.376	376.0	2back	Block4	2back/STIM_003.jpg	99
2005.074	0.846	845.7	2back	Block4	2back/STIM_004.jpg	100
2009.079	0.399	399.4	2back	Block4	2back/STIM_004.jpg	100
2012.429	0.696	696.5	2back	Block4	2back/STIM_004.jpg	100
2016.806	0.763	762.7	2back	Block4	2back/STIM_005.jpg	100
2020.576	0.716	716.2	2back	Block4	2back/STIM_005.jpg	100
2024.471	0.753	753.4	2back	Block4	2back/STIM_005.jpg	100
2028.621	0.627	626.9	2back	Block4	2back/STIM_006.jpg	100
2032.602	0.69	689.5	2back	Block4	2back/STIM_006.jpg	99
2036.339	0.46	460.4	2back	Block4	2back/STIM_006.jpg	99
2039.687	0.394	393.8	2back	Block4	2back/STIM_007.jpg	100
2043.176	0.766	766.5	2back	Block4	2back/STIM_007.jpg	100
2047.414	0.602	602.5	2back	Block4	2back/STIM_007.jpg	100
2051.882	0.388	388.3	2back	Block4	2back/STIM_008.jpg	100
2055.746	0.682	682.2	2back	Block4	2back/STIM_008.jpg	99
2059.921	0.539	539.2	2back	Block4	2back/STIM_008.jpg	100
2064.308	0.554	553.7	2back	Block4	2back/STIM_009.jpg	99
2067.139	0.818	817.5	2back	Block4	2back/STIM_009.jpg	99
2070.009	0.661	660.7	2back	Block4	2back/STIM_009.jpg	99
2072.97	0.59	589.8	2back	Block4	2back/STIM_010.jpg	99
2077.458	0.524	524.5	2back	Block4	2back/STIM_010.jpg	99
2080.744	0.713	712.7	2back	Block4	2back/STIM_010.jpg	100
2085.222	0.478	477.8	2back	Block4	2back/STIM_011.jpg	100
2088.467	0.474	473.9	2back	Block4	2back/STIM_011.jpg	100
2091.812	0.796	796.2	2back	Block4	2back/STIM_011.jpg	99
2094.65	0.654	654.4	2back	Block4	2back/STIM_012.jpg	99
2098.4	0.404	403.9	2back	Block4	2back/STIM_012.jpg	99
2101.541	0.398	398.5	2back	Block4	2back/STIM_012.jpg	99
2105.108	0.545	544.9	2back	Block4	2back/STIM_013.jpg	99
2108.927	0.551	551.0	2back	Block4	2back/STIM_013.jpg	99
2112.538	0.834	833.7	2back	Block4	2back/STIM_013.jpg	100
2115.599	0.546	546.4	2back	Block4	2back/STIM_014.jpg	99
2120.04	0.737	737.0	2back	Block4	2back/STIM_014.jpg	99
2124.294	0.495	494.8	2back	Block4	2back/STIM_014.jpg	99
2128.154	0.594	594.3	2back	Block4	2back/STIM_015.jpg	99
2131.999	0.785	784.6	2back	Block4	2back/STIM_015.jpg	99
2135.471	0.673	672.6	2back	Block4	2back/STIM_015.jpg	99
2139.098	0.715	714.9	2back	Block4	2back/STIM_016.jpg	100
2143.154	0.835	835.4	2back	Block4	2back/STIM_016.jpg	100
2146.147	0.486	485.7	2back	Block4	2back/STIM_016.jpg	100
2150.019	0.707	707.0	2back	Block4	2back/STIM_017.jpg	99
2152.976	0.858	857.9	2back	Block4	2back/STIM_017.jpg	99
2157.805	0.593	593.2	2back	Block4	2back/STIM_017.jpg	100
2160.722	0.538	538.0	2back	Block4	2back/STIM_018.jpg	99
2164.371	0.554	553.8	2back	Block4	2back/STIM_018.jpg	99
2167.761	0.56	560.2	2back	Block4	2back/STIM_018.jpg	99
2171.187	0.777	776.9	2back	Block4	2back/STIM_019.jpg	100
2175.406	0.523	523.0	2back	Block4	2back/STIM_019.jpg	99
2179.844	0.774	774.5	2back	Block4	2back/STIM_019.jpg	99
2183.052	0.702	701.9	2back	Block4	2back/STIM_020.jpg	99
2187.688	0.749	748.7	2back	Block4	2back/STIM_020.jpg	100
2191.134	0.698	697.7	2back	Block4	2back/STIM_020.jpg	100
2195.539	0.758	757.8	2back	Block4	2back/STIM_021.jpg	99
2199.522	0.623	622.7	2back	Block4	2back/STIM_021.jpg	99
2203.218	0.613	613.0	2back	Block4	2back/STIM_021.jpg	100
2206.853	0.426	426.5	2back	Block4	2back/STIM_022.jpg	100
2210.637	0.4	400.4	2back	Block4	2back/STIM_022.jpg	100
2214.941	0.671	671.0	2back	Block4	2back/STIM_022.jpg	99
2218.752	0.712	712.1	2back	Block4	2back/STIM_023.jpg	100
2221.94	0.656	655.5	2back	Block4	2back/STIM_023.jpg	100
2226.589	0.585	584.8	2back	Block4	2back/STIM_023.jpg	100
2229.874	0.66	659.8	2back	Block4	2back/STIM_024.jpg	100
2232.546	0.522	521.5	2back	Block4	2back/STIM_024.jpg	99
2236.366	0.425	424.7	2back	Block4	2back/STIM_024.jpg	99
2240.128	0.553	552.8	2back	Block4	2back/STIM_025.jpg	99
2244.094	0.809	808.7	2back	Block4	2back/STIM_025.jpg	100
2247.042	0.406	405.5	2back	Block4	2back/STIM_025.jpg	100
2251.346	0.41	409.7	2back	Block4	2back/STIM_026.jpg	99
2255.434	0.374	373.7	2back	Block4	2back/STIM_026.jpg	99
2259.322	0.476	476.0	2back	Block4	2back/STIM_026.jpg	99
2263.661	0.797	797.2	2back	Block4	2back/STIM_027.jpg	99
2267.419	0.571	571.4	2back	Block4	2back/STIM_027.jpg	100
2271.79	0.555	555.1	2back	Block4	2back/STIM_027.jpg	99
2274.347	0.845	844.7	2back	Block4	2back/STIM_028.jpg	99
2277.243	0.775	774.7	2back	Block4	2back/STIM_028.jpg	100
2281.615	0.799	799.3	2back	Block4	2back/STIM_028.jpg	99
2285.611	0.479	478.7	2back	Block4	2back/STIM_029.jpg	99
2288.179	0.805	805.0	2back	Block4	2back/STIM_029.jpg	99
2292.534	0.427	427.1	2back	Block4	2back/STIM_029.jpg	99
2296.391	0.394	394.3	2back	Block4	2back/STIM_030.jpg	99
2300.713	0.557	557.4	2back	Block4	2back/STIM_030.jpg	100
2304.737	0.563	562.8	2back	Block4	2back/STIM_030.jpg	99
2307.39	0.85	849.8	2back	Block4	2back/STIM_031.jpg	100
2311.002	0.716	715.9	2back	Block4	2back/STIM_031.jpg	99
2314.946	0.837	837.1	2back	Block4	2back/STIM_031.jpg	100
2318.816	0.861	861.3	2back	Block4	2back/STIM_032.jpg	99
2322.91	0.787	787.1	2back	Block4	2back/STIM_032.jpg	99
2327.345	0.46	460.4	2back	Block4	2back/STIM_032.jpg	100
2330.589	0.648	648.3	2back	Block4	2back/STIM_033.jpg	100
2333.439	0.577	576.8	2back	Block4	2back/STIM_033.jpg	99
2337.059	0.403	403.3	2back	Block4	2back/STIM_033.jpg	100
2340.071	0.833	832.6	2back	Block4	2back/STIM_034.jpg	99
2344.187	0.858	857.6	2back	Block4	2back/STIM_034.jpg	100
2348.945	0.8	799.5	2back	Block4	2back/STIM_034.jpg	99
2352.631	0.81	810.4	2back	Block4	2back/STIM_035.jpg	100
2355.575	0.551	551.3	2back	Block4	2back/STIM_035.jpg	99
2359.94	0.515	514.9	2back	Block4	2back/STIM_035.jpg	100
2362.669	0.57	569.8	2back	Block4	2back/STIM_036.jpg	99
2365.61	0.55	550.2	2back	Block4	2back/STIM_036.jpg	100
2369.166	0.618	617.9	2back	Block4	2back/STIM_036.jpg	99
2372.627	0.386	385.9	2back	Block4	2back/STIM_037.jpg	100
2375.867	0.404	404.1	2back	Block4	2back/STIM_037.jpg	100
2378.972	0.786	786.5	2back	Block4	2back/STIM_037.jpg	100
2382.027	0.595	595.3	2back	Block4	2back/STIM_038.jpg	100
2385.287	0.453	452.8	2back	Block4	2back/STIM_038.jpg	100
2388.454	0.585	584.6	2back	Block4	2back/STIM_038.jpg	100
2391.7	0.525	524.7	2back	Block4	2back/STIM_039.jpg	99
2395.648	0.51	509.7	2back	Block4	2back/STIM_039.jpg	99
2399.775	0.602	601.7	2back	Block4	2back/STIM_039.jpg	100
2403.035	0.48	480.0	0back	Block4	0back/STIM_000.jpg	99
2406.128	0.437	436.6	0back	Block4	0back/STIM_000.jpg	99
2409.437	0.69	690.3	0back	Block4	0back/STIM_000.jpg	99
2412.606	0.653	652.6	0back	Block4	0back/STIM_001.jpg	99
2416.509	0.617	617.2	0back	Block4	0back/STIM_001.jpg	99
2419.798	0.443	442.7	0back	Block4	0back/STIM_001.jpg	100
2423.528	0.482	481.8	0back	Block4	0back/STIM_002.jpg	99
2427.342	0.377	376.8	0back	Block4	0back/STIM_002.jpg	100
2430.331	0.495	494.6	0back	Block4	0back/STIM_002.jpg	99
2432.833	0.498	498.2	0back	Block4	0back/STIM_003.jpg	100
2436.371	0.611	610.7	0back	Block4	0back/STIM_003.jpg	100
2440.51	0.527	527.1	0back	Block4	0back/STIM_003.jpg	100
2444.187	0.619	618.8	0back	Block4	0back/STIM_004.jpg	99
2447.512	0.631	630.8	0back	Block4	0back/STIM_004.jpg	99
2451.82	0.487	486.8	0back	Block4	0back/STIM_004.jpg	100
2454.978	0.406	405.5	0back	Block4	0back/STIM_005.jpg	100
2457.749	0.433	433.4	0back	Block4	0back/STIM_005.jpg	99
2460.779	0.612	611.7	0back	Block4	0back/STIM_005.jpg	99
2464.509	0.673	673.4	0back	Block4	0back/STIM_006.jpg	100
2468.923	0.629	629.0	0back	Block4	0back/STIM_006.jpg	99
2471.738	0.603	602.8	0back	Block4	0back/STIM_006.jpg	100
2475.208	0.532	532.4	0back	Block4	0back/STIM_007.jpg	100
2478.948	0.698	698.2	0back	Block4	0back/STIM_007.jpg	99
2483.061	0.579	579.2	0back	Block4	0back/STIM_007.jpg	100
2485.673	0.672	671.5	0back	Block4	0back/STIM_008.jpg	99
2489.178	0.492	492.0	0back	Block4	0back/STIM_008.jpg	100
2492.899	0.594	593.8	0back	Block4	0back/STIM_008.jpg	99
2496.296	0.548	547.5	0back	Block4	0back/STIM_009.jpg	99
2498.977	0.572	572.5	0back	Block4	0back/STIM_009.jpg	99
2503.268	0.444	443.8	0back	Block4	0back/STIM_009.jpg	100
2505.728	0.707	706.6	0back	Block4	0back/STIM_010.jpg	99
2509.555	0.619	619.3	0back	Block4	0back/STIM_010.jpg	99
2513.89	0.635	634.8	0back	Block4	0back/STIM_010.jpg	100
2518.523	0.482	482.5	0back	Block4	0back/STIM_011.jpg	99
2522.302	0.549	549.3	0back	Block4	0back/STIM_011.jpg	100
2524.89	0.434	433.7	0back	Block4	0back/STIM_011.jpg	100
2528.074	0.429	429.1	0back	Block4	0back/STIM_012.jpg	99
2532.419	0.366	366.1	0back	Block4	0back/STIM_012.jpg	100
2535.849	0.397	396.8	0back	Block4	0back/STIM_012.jpg	99
2539.111	0.406	405.7	0back	Block4	0back/STIM_013.jpg	99
2541.872	0.671	671.1	0back	Block4	0back/STIM_013.jpg	100
2546.234	0.496	495.5	0back	Block4	0back/STIM_013.jpg	100
2550.113	0.546	546.0	0back	Block4	0back/STIM_014.jpg	99
2553.087	0.529	528.9	0back	Block4	0back/STIM_014.jpg	100
2556.643	0.636	636.5	0back	Block4	0back/STIM_014.jpg	99
2559.452	0.378	378.3	0back	Block4	0back/STIM_015.jpg	99
2562.177	0.411	411.0	0back	Block4	0back/STIM_015.jpg	99
2565.109	0.366	366.4	0back	Block4	0back/STIM_015.jpg	99
2567.556	0.663	663.3	0back	Block4	0back/STIM_016.jpg	100
2571.471	0.525	525.1	0back	Block4	0back/STIM_016.jpg	99
2575.368	0.668	667.5	0back	Block4	0back/STIM_016.jpg	99
2578.406	0.44	440.0	0back	Block4	0back/STIM_017.jpg	100
2581.015	0.498	497.5	0back	Block4	0back/STIM_017.jpg	99
2584.104	0.387	386.7	0back	Block4	0back/STIM_017.jpg	100
2587.039	0.431	431.1	0back	Block4	0back/STIM_018.jpg	100
2590.409	0.599	598.8	0back	Block4	0back/STIM_018.jpg	100
2593.153	0.478	478.0	0back	Block4	0back/STIM_018.jpg	100
2596.136	0.361	361.4	0back	Block4	0back/STIM_019.jpg	100
2599.948	0.457	456.6	0back	Block4	0back/STIM_019.jpg	100
2603.083	0.372	372.4	0back	Block4	0back/STIM_019.jpg	100
