onset	duration	accuracy_binary	trial_type	learning_stage	stimulus
0.0	1.168	1	2back	Block1	2back/STIM_000.jpg
3.66	1.104	0	2back	Block1	2back/STIM_000.jpg
7.494	0.816	1	2back	Block1	2back/STIM_000.jpg
10.858	0.719	1	2back	Block1	2back/STIM_001.jpg
13.784	0.956	1	2back	Block1	2back/STIM_001.jpg
18.278	0.636	1	2back	Block1	2back/STIM_001.jpg
21.625	1.157	0	2back	Block1	2back/STIM_002.jpg
26.526	0.567	1	2back	Block1	2back/STIM_002.jpg
30.294	0.75	1	2back	Block1	2back/STIM_002.jpg
33.598	0.568	1	2back	Block1	2back/STIM_003.jpg
37.778	0.833	1	2back	Block1	2back/STIM_003.jpg
42.359	0.899	1	2back	Block1	2back/STIM_003.jpg
46.522	0.748	1	2back	Block1	2back/STIM_004.jpg
50.399	1.059	1	2back	Block1	2back/STIM_004.jpg
54.916	0.663	1	2back	Block1	2back/STIM_004.jpg
58.109	1.159	1	2back	Block1	2back/STIM_005.jpg
62.127	0.728	1	2back	Block1	2back/STIM_005.jpg
65.086	0.953	1	2back	Block1	2back/STIM_005.jpg
69.239	0.567	0	2back	Block1	2back/STIM_006.jpg
73.538	0.508	1	2back	Block1	2back/STIM_006.jpg
76.646	0.968	0	2back	Block1	2back/STIM_006.jpg
80.779	0.752	1	2back	Block1	2back/STIM_007.jpg
84.487	0.777	0	2back	Block1	2back/STIM_007.jpg
88.631	1.001	0	2back	Block1	2back/STIM_007.jpg
92.915	1.129	0	2back	Block1	2back/STIM_008.jpg
97.965	1.122	1	2back	Block1	2back/STIM_008.jpg
101.24	0.699	0	2back	Block1	2back/STIM_008.jpg
105.747	0.757	1	2back	Block1	2back/STIM_009.jpg
109.4	0.864	1	2back	Block1	2back/STIM_009.jpg
114.097	1.079	0	2back	Block1	2back/STIM_009.jpg
118.272	1.087	0	2back	Block1	2back/STIM_010.jpg
122.726	1.165	1	2back	Block1	2back/STIM_010.jpg
127.013	0.507	1	2back	Block1	2back/STIM_010.jpg
130.707	1.074	1	2back	Block1	2back/STIM_011.jpg
135.757	0.804	1	2back	Block1	2back/STIM_011.jpg
138.596	1.107	1	2back	Block1	2back/STIM_011.jpg
142.586	0.65	0	2back	Block1	2back/STIM_012.jpg
146.474	0.997	1	2back	Block1	2back/STIM_012.jpg
151.391	1.11	0	2back	Block1	2back/STIM_012.jpg
155.099	0.853	1	2back	Block1	2back/STIM_013.jpg
159.384	0.531	1	2back	Block1	2back/STIM_013.jpg
163.031	1.024	1	2back	Block1	2back/STIM_013.jpg
166.536	0.819	0	2back	Block1	2back/STIM_014.jpg
169.785	1.05	1	2back	Block1	2back/STIM_014.jpg
173.313	0.729	1	2back	Block1	2back/STIM_014.jpg
177.784	0.711	1	2back	Block1	2back/STIM_015.jpg
181.043	1.116	0	2back	Block1	2back/STIM_015.jpg
185.751	0.832	1	2back	Block1	2back/STIM_015.jpg
190.468	0.535	1	2back	Block1	2back/STIM_016.jpg
193.754	0.943	0	2back	Block1	2back/STIM_016.jpg
197.483	1.072	0	2back	Block1	2back/STIM_016.jpg
201.524	0.95	0	2back	Block1	2back/STIM_017.jpg
204.933	0.65	1	2back	Block1	2back/STIM_017.jpg
208.431	1.022	1	2back	Block1	2back/STIM_017.jpg
212.837	0.785	1	2back	Block1	2back/STIM_018.jpg
215.83	0.92	0	2back	Block1	2back/STIM_018.jpg
220.702	1.017	0	2back	Block1	2back/STIM_018.jpg
224.592	0.616	0	2back	Block1	2back/STIM_019.jpg
228.615	0.856	0	2back	Block1	2back/STIM_019.jpg
232.823	0.909	0	2back	Block1	2back/STIM_019.jpg
235.932	1.152	1	2back	Block1	2back/STIM_020.jpg
240.89	0.715	1	2back	Block1	2back/STIM_020.jpg
244.839	1.067	0	2back	Block1	2back/STIM_020.jpg
249.441	1.162	1	2back	Block1	2back/STIM_021.jpg
254.39	0.728	1	2back	Block1	2back/STIM_021.jpg
258.663	0.984	1	2back	Block1	2back/STIM_021.jpg
261.95	1.21	0	2back	Block1	2back/STIM_022.jpg
265.865	1.076	1	2back	Block1	2back/STIM_022.jpg
270.404	0.847	1	2back	Block1	2back/STIM_022.jpg
274.925	0.837	1	2back	Block1	2back/STIM_023.jpg
279.242	1.049	0	2back	Block1	2back/STIM_023.jpg
283.77	1.048	1	2back	Block1	2back/STIM_023.jpg
287.832	0.959	0	2back	Block1	2back/STIM_024.jpg
291.363	0.551	0	2back	Block1	2back/STIM_024.jpg
294.59	0.625	0	2back	Block1	2back/STIM_024.jpg
298.124	0.838	0	2back	Block1	2back/STIM_025.jpg
301.333	0.603	0	2back	Block1	2back/STIM_025.jpg
304.016	0.488	0	2back	Block1	2back/STIM_025.jpg
308.444	0.869	1	2back	Block1	2back/STIM_026.jpg
312.721	1.083	1	2back	Block1	2back/STIM_026.jpg
317.279	0.503	1	2back	Block1	2back/STIM_026.jpg
321.637	1.157	1	2back	Block1	2back/STIM_027.jpg
325.945	1.105	1	2back	Block1	2back/STIM_027.jpg
329.602	0.897	1	2back	Block1	2back/STIM_027.jpg
334.154	0.988	1	2back	Block1	2back/STIM_028.jpg
338.168	0.592	0	2back	Block1	2back/STIM_028.jpg
342.485	0.987	0	2back	Block1	2back/STIM_028.jpg
346.431	1.027	1	2back	Block1	2back/STIM_029.jpg
349.702	0.669	1	2back	Block1	2back/STIM_029.jpg
352.502	0.501	0	2back	Block1	2back/STIM_029.jpg
355.064	1.152	1	2back	Block1	2back/STIM_030.jpg
359.562	0.589	0	2back	Block1	2back/STIM_030.jpg
364.071	0.786	1	2back	Block1	2back/STIM_030.jpg
367.9	0.683	1	2back	Block1	2back/STIM_031.jpg
371.009	0.794	1	2back	Block1	2back/STIM_031.jpg
374.804	0.785	1	2back	Block1	2back/STIM_031.jpg
378.112	1.234	1	2back	Block1	2back/STIM_032.jpg
382.062	1.126	0	2back	Block1	2back/STIM_032.jpg
385.315	0.645	0	2back	Block1	2back/STIM_032.jpg
388.907	0.633	1	2back	Block1	2back/STIM_033.jpg
392.495	0.577	1	2back	Block1	2back/STIM_033.jpg
396.771	0.496	0	2back	Block1	2back/STIM_033.jpg
400.94	0.742	0	2back	Block1	2back/STIM_034.jpg
403.693	0.598	1	2back	Block1	2back/STIM_034.jpg
407.895	0.673	0	2back	Block1	2back/STIM_034.jpg
412.223	1.167	1	2back	Block1	2back/STIM_035.jpg
416.549	0.963	1	2back	Block1	2back/STIM_035.jpg
420.335	1.096	1	2back	Block1	2back/STIM_035.jpg
423.665	0.96	1	2back	Block1	2back/STIM_036.jpg
427.401	0.552	1	2back	Block1	2back/STIM_036.jpg
430.475	0.938	1	2back	Block1	2back/STIM_036.jpg
433.869	1.109	1	2back	Block1	2back/STIM_037.jpg
438.37	0.933	0	2back	Block1	2back/STIM_037.jpg
443.284	0.613	0	2back	Block1	2back/STIM_037.jpg
447.846	1.078	0	2back	Block1	2back/STIM_038.jpg
451.431	0.571	1	2back	Block1	2back/STIM_038.jpg
454.855	0.97	1	2back	Block1	2back/STIM_038.jpg
459.62	1.121	0	2back	Block1	2back/STIM_039.jpg
464.213	0.684	1	2back	Block1	2back/STIM_039.jpg
468.123	0.718	0	2back	Block1	2back/STIM_039.jpg
472.162	0.378	1	0back	Block1	0back/STIM_000.jpg
474.828	0.68	1	0back	Block1	0back/STIM_000.jpg
477.618	0.618	1	0back	Block1	0back/STIM_000.jpg
481.994	0.413	1	0back	Block1	0back/STIM_001.jpg
485.024	0.566	1	0back	Block1	0back/STIM_001.jpg
488.722	0.542	0	0back	Block1	0back/STIM_001.jpg
493.211	0.398	1	0back	Block1	0back/STIM_002.jpg
497.144	0.628	1	0back	Block1	0back/STIM_002.jpg
500.205	0.377	1	0back	Block1	0back/STIM_002.jpg
504.037	0.562	1	0back	Block1	0back/STIM_003.jpg
507.586	0.497	1	0back	Block1	0back/STIM_003.jpg
511.952	0.68	1	0back	Block1	0back/STIM_003.jpg
514.867	0.416	1	0back	Block1	0back/STIM_004.jpg
517.315	0.57	1	0back	Block1	0back/STIM_004.jpg
521.781	0.665	1	0back	Block1	0back/STIM_004.jpg
525.312	0.606	1	0back	Block1	0back/STIM_005.jpg
528.469	0.707	1	0back	Block1	0back/STIM_005.jpg
532.937	0.512	1	0back	Block1	0back/STIM_005.jpg
537.069	0.622	0	0back	Block1	0back/STIM_006.jpg
541.503	0.702	1	0back	Block1	0back/STIM_006.jpg
545.392	0.441	0	0back	Block1	0back/STIM_006.jpg
548.581	0.649	0	0back	Block1	0back/STIM_007.jpg
552.411	0.374	1	0back	Block1	0back/STIM_007.jpg
554.918	0.42	1	0back	Block1	0back/STIM_007.jpg
557.567	0.632	1	0back	Block1	0back/STIM_008.jpg
560.29	0.567	0	0back	Block1	0back/STIM_008.jpg
564.084	0.409	1	0back	Block1	0back/STIM_008.jpg
568.131	0.483	0	0back	Block1	0back/STIM_009.jpg
571.346	0.488	0	0back	Block1	0back/STIM_009.jpg
575.457	0.51	0	0back	Block1	0back/STIM_009.jpg
579.352	0.453	1	0back	Block1	0back/STIM_010.jpg
582.871	0.581	1	0back	Block1	0back/STIM_010.jpg
587.211	0.606	1	0back	Block1	0back/STIM_010.jpg
590.765	0.356	1	0back	Block1	0back/STIM_011.jpg
593.538	0.537	0	0back	Block1	0back/STIM_011.jpg
598.05	0.447	1	0back	Block1	0back/STIM_011.jpg
601.723	0.449	0	0back	Block1	0back/STIM_012.jpg
604.711	0.432	0	0back	Block1	0back/STIM_012.jpg
608.993	0.476	0	0back	Block1	0back/STIM_012.jpg
611.658	0.565	1	0back	Block1	0back/STIM_013.jpg
614.53	0.607	0	0back	Block1	0back/STIM_013.jpg
617.658	0.568	1	0back	Block1	0back/STIM_013.jpg
621.539	0.685	1	0back	Block1	0back/STIM_014.jpg
625.468	0.63	1	0back	Block1	0back/STIM_014.jpg
629.722	0.428	1	0back	Block1	0back/STIM_014.jpg
632.658	0.521	1	0back	Block1	0back/STIM_015.jpg
635.21	0.656	1	0back	Block1	0back/STIM_015.jpg
638.457	0.66	1	0back	Block1	0back/STIM_015.jpg
641.622	0.598	1	0back	Block1	0back/STIM_016.jpg
644.638	0.465	1	0back	Block1	0back/STIM_016.jpg
647.142	0.356	1	0back	Block1	0back/STIM_016.jpg
649.845	0.687	1	0back	Block1	0back/STIM_017.jpg
653.739	0.553	0	0back	Block1	0back/STIM_017.jpg
658.242	0.416	1	0back	Block1	0back/STIM_017.jpg
662.256	0.668	1	0back	Block1	0back/STIM_018.jpg
666.359	0.402	1	0back	Block1	0back/STIM_018.jpg
670.103	0.516	1	0back	Block1	0back/STIM_018.jpg
673.084	0.671	0	0back	Block1	0back/STIM_019.jpg
677.437	0.375	0	0back	Block1	0back/STIM_019.jpg
681.698	0.547	1	0back	Block1	0back/STIM_019.jpg
685.715	0.77	0	2back	Block2	2back/STIM_000.jpg
690.083	0.823	0	2back	Block2	2back/STIM_000.jpg
693.036	0.789	0	2back	Block2	2back/STIM_000.jpg
696.344	0.843	1	2back	Block2	2back/STIM_001.jpg
699.801	0.851	0	2back	Block2	2back/STIM_001.jpg
702.874	0.92	0	2back	Block2	2back/STIM_001.jpg
707.744	0.592	1	2back	Block2	2back/STIM_002.jpg
710.821	0.478	1	2back	Block2	2back/STIM_002.jpg
713.84	0.492	1	2back	Block2	2back/STIM_002.jpg
716.891	0.461	0	2back	Block2	2back/STIM_003.jpg
719.828	0.812	0	2back	Block2	2back/STIM_003.jpg
723.148	0.574	1	2back	Block2	2back/STIM_003.jpg
727.159	0.693	0	2back	Block2	2back/STIM_004.jpg
730.695	0.817	1	2back	Block2	2back/STIM_004.jpg
733.815	0.644	1	2back	Block2	2back/STIM_004.jpg
737.444	0.526	1	2back	Block2	2back/STIM_005.jpg
741.116	0.542	1	2back	Block2	2back/STIM_005.jpg
745.177	0.868	1	2back	Block2	2back/STIM_005.jpg
749.378	0.688	1	2back	Block2	2back/STIM_006.jpg
753.393	0.897	1	2back	Block2	2back/STIM_006.jpg
757.877	0.811	1	2back	Block2	2back/STIM_006.jpg
762.342	0.851	1	2back	Block2	2back/STIM_007.jpg
766.44	0.922	1	2back	Block2	2back/STIM_007.jpg
770.122	0.528	1	2back	Block2	2back/STIM_007.jpg
774.111	0.606	1	2back	Block2	2back/STIM_008.jpg
777.97	0.745	1	2back	Block2	2back/STIM_008.jpg
781.32	0.61	1	2back	Block2	2back/STIM_008.jpg
783.961	0.897	1	2back	Block2	2back/STIM_009.jpg
786.902	0.616	0	2back	Block2	2back/STIM_009.jpg
790.416	0.867	0	2back	Block2	2back/STIM_009.jpg
795.049	0.502	0	2back	Block2	2back/STIM_010.jpg
799.384	0.611	1	2back	Block2	2back/STIM_010.jpg
802.008	0.85	1	2back	Block2	2back/STIM_010.jpg
804.985	0.999	1	2back	Block2	2back/STIM_011.jpg
808.061	0.764	1	2back	Block2	2back/STIM_011.jpg
811.732	0.914	1	2back	Block2	2back/STIM_011.jpg
815.333	0.884	1	2back	Block2	2back/STIM_012.jpg
819.964	0.859	1	2back	Block2	2back/STIM_012.jpg
822.947	0.646	0	2back	Block2	2back/STIM_012.jpg
827.443	0.577	1	2back	Block2	2back/STIM_013.jpg
831.8	0.701	1	2back	Block2	2back/STIM_013.jpg
835.116	0.557	0	2back	Block2	2back/STIM_013.jpg
839.029	0.82	0	2back	Block2	2back/STIM_014.jpg
842.171	0.751	0	2back	Block2	2back/STIM_014.jpg
845.236	0.495	0	2back	Block2	2back/STIM_014.jpg
849.0	0.906	1	2back	Block2	2back/STIM_015.jpg
852.438	0.794	1	2back	Block2	2back/STIM_015.jpg
856.688	0.841	1	2back	Block2	2back/STIM_015.jpg
861.148	1.043	1	2back	Block2	2back/STIM_016.jpg
864.612	0.867	1	2back	Block2	2back/STIM_016.jpg
868.683	0.717	1	2back	Block2	2back/STIM_016.jpg
872.628	0.817	1	2back	Block2	2back/STIM_017.jpg
876.625	0.784	1	2back	Block2	2back/STIM_017.jpg
880.908	0.583	1	2back	Block2	2back/STIM_017.jpg
883.763	1.006	0	2back	Block2	2back/STIM_018.jpg
887.206	0.881	0	2back	Block2	2back/STIM_018.jpg
891.801	0.528	1	2back	Block2	2back/STIM_018.jpg
895.286	0.532	1	2back	Block2	2back/STIM_019.jpg
899.304	0.915	0	2back	Block2	2back/STIM_019.jpg
903.73	0.585	1	2back	Block2	2back/STIM_019.jpg
906.664	0.774	1	2back	Block2	2back/STIM_020.jpg
910.864	0.503	1	2back	Block2	2back/STIM_020.jpg
913.456	0.649	1	2back	Block2	2back/STIM_020.jpg
917.264	0.552	1	2back	Block2	2back/STIM_021.jpg
920.386	0.859	1	2back	Block2	2back/STIM_021.jpg
924.143	0.926	1	2back	Block2	2back/STIM_021.jpg
928.726	0.518	1	2back	Block2	2back/STIM_022.jpg
932.309	0.911	1	2back	Block2	2back/STIM_022.jpg
936.349	0.675	1	2back	Block2	2back/STIM_022.jpg
939.154	0.658	1	2back	Block2	2back/STIM_023.jpg
942.437	0.817	1	2back	Block2	2back/STIM_023.jpg
945.73	0.754	1	2back	Block2	2back/STIM_023.jpg
948.525	0.746	0	2back	Block2	2back/STIM_024.jpg
952.615	0.814	1	2back	Block2	2back/STIM_024.jpg
956.409	0.685	1	2back	Block2	2back/STIM_024.jpg
960.323	0.672	0	2back	Block2	2back/STIM_025.jpg
963.289	0.856	1	2back	Block2	2back/STIM_025.jpg
966.766	0.606	1	2back	Block2	2back/STIM_025.jpg
971.306	1.042	0	2back	Block2	2back/STIM_026.jpg
976.343	0.852	1	2back	Block2	2back/STIM_026.jpg
980.326	0.804	1	2back	Block2	2back/STIM_026.jpg
984.073	0.888	0	2back	Block2	2back/STIM_027.jpg
987.127	0.976	1	2back	Block2	2back/STIM_027.jpg
991.109	0.676	1	2back	Block2	2back/STIM_027.jpg
995.047	0.797	1	2back	Block2	2back/STIM_028.jpg
997.896	0.954	1	2back	Block2	2back/STIM_028.jpg
1002.363	0.63	1	2back	Block2	2back/STIM_028.jpg
1005.034	0.575	1	2back	Block2	2back/STIM_029.jpg
1008.329	0.716	1	2back	Block2	2back/STIM_029.jpg
1011.088	0.401	1	2back	Block2	2back/STIM_029.jpg
1014.856	0.609	1	2back	Block2	2back/STIM_030.jpg
1017.8	0.514	0	2back	Block2	2back/STIM_030.jpg
1020.625	0.403	0	2back	Block2	2back/STIM_030.jpg
1023.967	0.892	0	2back	Block2	2back/STIM_031.jpg
1027.254	0.726	1	2back	Block2	2back/STIM_031.jpg
1030.252	0.868	1	2back	Block2	2back/STIM_031.jpg
1033.336	0.879	1	2back	Block2	2back/STIM_032.jpg
1036.688	0.987	1	2back	Block2	2back/STIM_032.jpg
1040.51	0.664	0	2back	Block2	2back/STIM_032.jpg
1043.915	0.463	0	2back	Block2	2back/STIM_033.jpg
1047.883	0.525	0	2back	Block2	2back/STIM_033.jpg
1050.463	0.516	0	2back	Block2	2back/STIM_033.jpg
1053.176	0.465	1	2back	Block2	2back/STIM_034.jpg
1056.329	0.587	1	2back	Block2	2back/STIM_034.jpg
1060.826	0.782	0	2back	Block2	2back/STIM_034.jpg
1063.763	0.634	1	2back	Block2	2back/STIM_035.jpg
1066.988	0.88	1	2back	Block2	2back/STIM_035.jpg
1070.04	0.647	1	2back	Block2	2back/STIM_035.jpg
1073.597	1.024	1	2back	Block2	2back/STIM_036.jpg
1078.54	0.679	1	2back	Block2	2back/STIM_036.jpg
1082.151	0.754	0	2back	Block2	2back/STIM_036.jpg
1086.652	0.869	1	2back	Block2	2back/STIM_037.jpg
1090.2	0.496	0	2back	Block2	2back/STIM_037.jpg
1094.571	0.729	1	2back	Block2	2back/STIM_037.jpg
1097.814	0.782	1	2back	Block2	2back/STIM_038.jpg
1101.229	0.76	1	2back	Block2	2back/STIM_038.jpg
1104.948	0.756	1	2back	Block2	2back/STIM_038.jpg
1108.581	0.869	1	2back	Block2	2back/STIM_039.jpg
1111.959	0.55	1	2back	Block2	2back/STIM_039.jpg
1115.922	0.703	1	2back	Block2	2back/STIM_039.jpg
1119.359	0.556	1	0back	Block2	0back/STIM_000.jpg
1122.146	0.496	1	0back	Block2	0back/STIM_000.jpg
1125.786	0.476	0	0back	Block2	0back/STIM_000.jpg
1128.63	0.695	0	0back	Block2	0back/STIM_001.jpg
1132.777	0.456	1	0back	Block2	0back/STIM_001.jpg
1135.853	0.478	0	0back	Block2	0back/STIM_001.jpg
1139.938	0.519	1	0back	Block2	0back/STIM_002.jpg
1142.827	0.659	0	0back	Block2	0back/STIM_002.jpg
1147.164	0.594	0	0back	Block2	0back/STIM_002.jpg
1150.022	0.493	1	0back	Block2	0back/STIM_003.jpg
1152.759	0.612	1	0back	Block2	0back/STIM_003.jpg
1155.44	0.468	1	0back	Block2	0back/STIM_003.jpg
1159.085	0.617	1	0back	Block2	0back/STIM_004.jpg
1162.854	0.385	1	0back	Block2	0back/STIM_004.jpg
1167.21	0.707	0	0back	Block2	0back/STIM_004.jpg
1170.904	0.689	0	0back	Block2	0back/STIM_005.jpg
1174.135	0.665	1	0back	Block2	0back/STIM_005.jpg
1176.891	0.578	0	0back	Block2	0back/STIM_005.jpg
1181.449	0.66	1	0back	Block2	0back/STIM_006.jpg
1184.44	0.366	1	0back	Block2	0back/STIM_006.jpg
1187.69	0.591	1	0back	Block2	0back/STIM_006.jpg
1191.75	0.506	1	0back	Block2	0back/STIM_007.jpg
1194.938	0.561	1	0back	Block2	0back/STIM_007.jpg
1198.893	0.632	0	0back	Block2	0back/STIM_007.jpg
1202.056	0.668	0	0back	Block2	0back/STIM_008.jpg
1206.255	0.548	1	0back	Block2	0back/STIM_008.jpg
1208.83	0.641	0	0back	Block2	0back/STIM_008.jpg
1213.041	0.443	0	0back	Block2	0back/STIM_009.jpg
1216.325	0.495	1	0back	Block2	0back/STIM_009.jpg
1219.458	0.657	1	0back	Block2	0back/STIM_009.jpg
1222.348	0.407	1	0back	Block2	0back/STIM_010.jpg
1226.73	0.667	0	0back	Block2	0back/STIM_010.jpg
1229.686	0.675	1	0back	Block2	0back/STIM_010.jpg
1233.693	0.392	1	0back	Block2	0back/STIM_011.jpg
1237.499	0.695	1	0back	Block2	0back/STIM_011.jpg
1241.499	0.372	1	0back	Block2	0back/STIM_011.jpg
1244.15	0.377	0	0back	Block2	0back/STIM_012.jpg
1247.782	0.36	1	0back	Block2	0back/STIM_012.jpg
1250.869	0.704	1	0back	Block2	0back/STIM_012.jpg
1254.28	0.559	0	0back	Block2	0back/STIM_013.jpg
1257.957	0.569	0	0back	Block2	0back/STIM_013.jpg
1260.717	0.362	1	0back	Block2	0back/STIM_013.jpg
1263.098	0.393	1	0back	Block2	0back/STIM_014.jpg
1266.551	0.447	1	0back	Block2	0back/STIM_014.jpg
1269.603	0.503	1	0back	Block2	0back/STIM_014.jpg
1273.019	0.454	1	0back	Block2	0back/STIM_015.jpg
1275.67	0.454	1	0back	Block2	0back/STIM_015.jpg
1278.419	0.566	1	0back	Block2	0back/STIM_015.jpg
1281.293	0.574	1	0back	Block2	0back/STIM_016.jpg
1284.024	0.556	1	0back	Block2	0back/STIM_016.jpg
1287.156	0.633	1	0back	Block2	0back/STIM_016.jpg
1291.654	0.385	1	0back	Block2	0back/STIM_017.jpg
1294.212	0.489	1	0back	Block2	0back/STIM_017.jpg
1297.372	0.377	0	0back	Block2	0back/STIM_017.jpg
1300.832	0.701	1	0back	Block2	0back/STIM_018.jpg
1304.86	0.528	1	0back	Block2	0back/STIM_018.jpg
1308.506	0.514	1	0back	Block2	0back/STIM_018.jpg
1311.175	0.364	1	0back	Block2	0back/STIM_019.jpg
1314.925	0.392	1	0back	Block2	0back/STIM_019.jpg
1319.001	0.682	1	0back	Block2	0back/STIM_019.jpg
1322.815	0.652	1	2back	Block3	2back/STIM_000.jpg
1326.608	0.613	1	2back	Block3	2back/STIM_000.jpg
1330.705	0.427	0	2back	Block3	2back/STIM_000.jpg
1334.852	0.834	1	2back	Block3	2back/STIM_001.jpg
1338.351	0.754	1	2back	Block3	2back/STIM_001.jpg
1341.299	0.755	1	2back	Block3	2back/STIM_001.jpg
1345.672	0.841	1	2back	Block3	2back/STIM_002.jpg
1350.153	0.615	1	2back	Block3	2back/STIM_002.jpg
1353.121	0.44	1	2back	Block3	2back/STIM_002.jpg
1355.587	0.587	1	2back	Block3	2back/STIM_003.jpg
1358.517	0.523	1	2back	Block3	2back/STIM_003.jpg
1362.25	0.5	1	2back	Block3	2back/STIM_003.jpg
1364.787	0.732	1	2back	Block3	2back/STIM_004.jpg
1368.046	0.419	1	2back	Block3	2back/STIM_004.jpg
1371.364	0.771	0	2back	Block3	2back/STIM_004.jpg
1375.703	0.677	1	2back	Block3	2back/STIM_005.jpg
1379.494	0.495	1	2back	Block3	2back/STIM_005.jpg
1383.591	0.418	0	2back	Block3	2back/STIM_005.jpg
1386.389	0.8	1	2back	Block3	2back/STIM_006.jpg
1389.831	0.399	1	2back	Block3	2back/STIM_006.jpg
1392.797	0.867	0	2back	Block3	2back/STIM_006.jpg
1397.442	0.532	0	2back	Block3	2back/STIM_007.jpg
1400.812	0.379	0	2back	Block3	2back/STIM_007.jpg
1405.191	0.552	1	2back	Block3	2back/STIM_007.jpg
1408.812	0.496	0	2back	Block3	2back/STIM_008.jpg
1411.343	0.644	1	2back	Block3	2back/STIM_008.jpg
1414.445	0.711	0	2back	Block3	2back/STIM_008.jpg
1417.22	0.838	0	2back	Block3	2back/STIM_009.jpg
1421.819	0.745	0	2back	Block3	2back/STIM_009.jpg
1425.731	0.786	1	2back	Block3	2back/STIM_009.jpg
1429.926	0.503	1	2back	Block3	2back/STIM_010.jpg
1433.293	0.687	0	2back	Block3	2back/STIM_010.jpg
1436.399	0.565	0	2back	Block3	2back/STIM_010.jpg
1440.13	0.833	0	2back	Block3	2back/STIM_011.jpg
1443.17	0.467	1	2back	Block3	2back/STIM_011.jpg
1446.631	0.658	1	2back	Block3	2back/STIM_011.jpg
1450.325	0.672	1	2back	Block3	2back/STIM_012.jpg
1453.397	0.375	1	2back	Block3	2back/STIM_012.jpg
1456.007	0.827	1	2back	Block3	2back/STIM_012.jpg
1460.569	0.601	1	2back	Block3	2back/STIM_013.jpg
1463.62	0.655	1	2back	Block3	2back/STIM_013.jpg
1467.384	0.416	1	2back	Block3	2back/STIM_013.jpg
1470.026	0.792	0	2back	Block3	2back/STIM_014.jpg
1474.558	0.465	0	2back	Block3	2back/STIM_014.jpg
1478.748	0.599	0	2back	Block3	2back/STIM_014.jpg
1482.471	0.402	1	2back	Block3	2back/STIM_015.jpg
1486.265	0.683	1	2back	Block3	2back/STIM_015.jpg
1489.52	0.598	1	2back	Block3	2back/STIM_015.jpg
1492.387	0.422	0	2back	Block3	2back/STIM_016.jpg
1495.035	0.661	1	2back	Block3	2back/STIM_016.jpg
1498.158	0.646	1	2back	Block3	2back/STIM_016.jpg
1501.21	0.493	1	2back	Block3	2back/STIM_017.jpg
1504.199	0.477	1	2back	Block3	2back/STIM_017.jpg
1506.855	0.408	1	2back	Block3	2back/STIM_017.jpg
1509.597	0.487	1	2back	Block3	2back/STIM_018.jpg
1512.544	0.461	1	2back	Block3	2back/STIM_018.jpg
1515.626	0.701	1	2back	Block3	2back/STIM_018.jpg
1519.526	0.57	1	2back	Block3	2back/STIM_019.jpg
1522.261	0.382	1	2back	Block3	2back/STIM_019.jpg
1525.704	0.82	1	2back	Block3	2back/STIM_019.jpg
1530.38	0.65	1	2back	Block3	2back/STIM_020.jpg
1534.364	0.526	1	2back	Block3	2back/STIM_020.jpg
1536.991	0.666	1	2back	Block3	2back/STIM_020.jpg
1540.594	0.714	1	2back	Block3	2back/STIM_021.jpg
1543.893	0.443	1	2back	Block3	2back/STIM_021.jpg
1547.993	0.841	1	2back	Block3	2back/STIM_021.jpg
1551.862	0.75	1	2back	Block3	2back/STIM_022.jpg
1555.314	0.744	1	2back	Block3	2back/STIM_022.jpg
1559.196	0.684	1	2back	Block3	2back/STIM_022.jpg
1563.546	0.721	0	2back	Block3	2back/STIM_023.jpg
1566.411	0.441	0	2back	Block3	2back/STIM_023.jpg
1570.724	0.654	1	2back	Block3	2back/STIM_023.jpg
1573.749	0.561	0	2back	Block3	2back/STIM_024.jpg
1576.723	0.842	1	2back	Block3	2back/STIM_024.jpg
1581.141	0.461	1	2back	Block3	2back/STIM_024.jpg
1585.479	0.377	1	2back	Block3	2back/STIM_025.jpg
1588.782	0.717	1	2back	Block3	2back/STIM_025.jpg
1592.937	0.673	1	2back	Block3	2back/STIM_025.jpg
1597.18	0.415	1	2back	Block3	2back/STIM_026.jpg
1601.221	0.841	1	2back	Block3	2back/STIM_026.jpg
1605.378	0.464	0	2back	Block3	2back/STIM_026.jpg
1607.964	0.692	1	2back	Block3	2back/STIM_027.jpg
1611.984	0.628	1	2back	Block3	2back/STIM_027.jpg
1614.935	0.629	1	2back	Block3	2back/STIM_027.jpg
1619.059	0.629	1	2back	Block3	2back/STIM_028.jpg
1623.009	0.623	1	2back	Block3	2back/STIM_028.jpg
1625.989	0.456	1	2back	Block3	2back/STIM_028.jpg
1628.911	0.701	1	2back	Block3	2back/STIM_029.jpg
1632.407	0.769	1	2back	Block3	2back/STIM_029.jpg
1636.453	0.575	1	2back	Block3	2back/STIM_029.jpg
1639.635	0.608	1	2back	Block3	2back/STIM_030.jpg
1643.196	0.706	1	2back	Block3	2back/STIM_030.jpg
1646.566	0.842	1	2back	Block3	2back/STIM_030.jpg
1650.292	0.775	1	2back	Block3	2back/STIM_031.jpg
1654.946	0.432	1	2back	Block3	2back/STIM_031.jpg
1657.765	0.526	1	2back	Block3	2back/STIM_031.jpg
1660.383	0.592	1	2back	Block3	2back/STIM_032.jpg
1663.497	0.547	0	2back	Block3	2back/STIM_032.jpg
1667.136	0.642	0	2back	Block3	2back/STIM_032.jpg
1671.432	0.763	1	2back	Block3	2back/STIM_033.jpg
1674.996	0.604	1	2back	Block3	2back/STIM_033.jpg
1679.473	0.588	1	2back	Block3	2back/STIM_033.jpg
1683.153	0.54	1	2back	Block3	2back/STIM_034.jpg
1687.059	0.603	1	2back	Block3	2back/STIM_034.jpg
1690.559	0.649	0	2back	Block3	2back/STIM_034.jpg
1694.434	0.528	0	2back	Block3	2back/STIM_035.jpg
1697.259	0.84	0	2back	Block3	2back/STIM_035.jpg
1700.243	0.82	0	2back	Block3	2back/STIM_035.jpg
1703.405	0.823	1	2back	Block3	2back/STIM_036.jpg
1706.885	0.556	0	2back	Block3	2back/STIM_036.jpg
1709.53	0.673	1	2back	Block3	2back/STIM_036.jpg
1713.329	0.649	1	2back	Block3	2back/STIM_037.jpg
1717.523	0.594	1	2back	Block3	2back/STIM_037.jpg
1721.8	0.453	0	2back	Block3	2back/STIM_037.jpg
1725.447	0.712	1	2back	Block3	2back/STIM_038.jpg
1728.77	0.449	1	2back	Block3	2back/STIM_038.jpg
1732.777	0.828	1	2back	Block3	2back/STIM_038.jpg
1735.82	0.663	1	2back	Block3	2back/STIM_039.jpg
1739.457	0.396	1	2back	Block3	2back/STIM_039.jpg
1742.758	0.664	0	2back	Block3	2back/STIM_039.jpg
1747.241	0.535	1	0back	Block3	0back/STIM_000.jpg
1750.016	0.608	1	0back	Block3	0back/STIM_000.jpg
1753.492	0.508	0	0back	Block3	0back/STIM_000.jpg
1756.662	0.432	1	0back	Block3	0back/STIM_001.jpg
1759.829	0.481	1	0back	Block3	0back/STIM_001.jpg
1762.91	0.376	0	0back	Block3	0back/STIM_001.jpg
1765.295	0.587	1	0back	Block3	0back/STIM_002.jpg
1769.594	0.552	1	0back	Block3	0back/STIM_002.jpg
1773.5	0.402	0	0back	Block3	0back/STIM_002.jpg
1777.219	0.559	1	0back	Block3	0back/STIM_003.jpg
1779.78	0.425	1	0back	Block3	0back/STIM_003.jpg
1782.456	0.656	1	0back	Block3	0back/STIM_003.jpg
1786.465	0.437	1	0back	Block3	0back/STIM_004.jpg
1790.48	0.621	1	0back	Block3	0back/STIM_004.jpg
1794.924	0.647	1	0back	Block3	0back/STIM_004.jpg
1799.425	0.468	1	0back	Block3	0back/STIM_005.jpg
1802.065	0.583	1	0back	Block3	0back/STIM_005.jpg
1805.883	0.549	1	0back	Block3	0back/STIM_005.jpg
1810.425	0.394	1	0back	Block3	0back/STIM_006.jpg
1813.796	0.551	1	0back	Block3	0back/STIM_006.jpg
1818.163	0.537	0	0back	Block3	0back/STIM_006.jpg
1821.857	0.453	1	0back	Block3	0back/STIM_007.jpg
1825.783	0.382	1	0back	Block3	0back/STIM_007.jpg
1830.135	0.481	1	0back	Block3	0back/STIM_007.jpg
1833.612	0.466	1	0back	Block3	0back/STIM_008.jpg
1836.993	0.387	1	0back	Block3	0back/STIM_008.jpg
1841.321	0.704	1	0back	Block3	0back/STIM_008.jpg
1845.283	0.659	1	0back	Block3	0back/STIM_009.jpg
1849.498	0.397	1	0back	Block3	0back/STIM_009.jpg
1853.819	0.528	1	0back	Block3	0back/STIM_009.jpg
1856.51	0.696	1	0back	Block3	0back/STIM_010.jpg
1860.813	0.457	0	0back	Block3	0back/STIM_010.jpg
1864.235	0.412	1	0back	Block3	0back/STIM_010.jpg
1866.948	0.627	1	0back	Block3	0back/STIM_011.jpg
1870.121	0.407	1	0back	Block3	0back/STIM_011.jpg
1872.591	0.501	1	0back	Block3	0back/STIM_011.jpg
1876.369	0.558	1	0back	Block3	0back/STIM_012.jpg
1879.975	0.431	1	0back	Block3	0back/STIM_012.jpg
1882.636	0.622	0	0back	Block3	0back/STIM_012.jpg
1887.251	0.62	0	0back	Block3	0back/STIM_013.jpg
1890.849	0.626	0	0back	Block3	0back/STIM_013.jpg
1893.953	0.645	1	0back	Block3	0back/STIM_013.jpg
1897.503	0.357	1	0back	Block3	0back/STIM_014.jpg
1900.007	0.533	0	0back	Block3	0back/STIM_014.jpg
1903.583	0.506	0	0back	Block3	0back/STIM_014.jpg
1907.474	0.575	1	0back	Block3	0back/STIM_015.jpg
1912.009	0.528	1	0back	Block3	0back/STIM_015.jpg
1916.386	0.466	1	0back	Block3	0back/STIM_015.jpg
1920.321	0.503	1	0back	Block3	0back/STIM_016.jpg
1923.849	0.427	1	0back	Block3	0back/STIM_016.jpg
1926.39	0.584	1	0back	Block3	0back/STIM_016.jpg
1929.571	0.624	0	0back	Block3	0back/STIM_017.jpg
1933.768	0.381	0	0back	Block3	0back/STIM_017.jpg
1938.035	0.708	1	0back	Block3	0back/STIM_017.jpg
1941.123	0.498	0	0back	Block3	0back/STIM_018.jpg
1944.908	0.704	1	0back	Block3	0back/STIM_018.jpg
1949.252	0.453	1	0back	Block3	0back/STIM_018.jpg
1952.397	0.622	1	0back	Block3	0back/STIM_019.jpg
1955.299	0.643	1	0back	Block3	0back/STIM_019.jpg
1959.367	0.485	1	0back	Block3	0back/STIM_019.jpg
1961.93	0.787	1	2back	Block4	2back/STIM_000.jpg
1965.37	0.863	1	2back	Block4	2back/STIM_000.jpg
1969.059	0.82	1	2back	Block4	2back/STIM_000.jpg
1973.12	0.671	1	2back	Block4	2back/STIM_001.jpg
1977.02	0.645	1	2back	Block4	2back/STIM_001.jpg
1981.317	0.817	1	2back	Block4	2back/STIM_001.jpg
1985.956	0.781	0	2back	Block4	2back/STIM_002.jpg
1989.178	0.44	1	2back	Block4	2back/STIM_002.jpg
1992.394	0.447	1	2back	Block4	2back/STIM_002.jpg
1995.384	0.611	1	2back	Block4	2back/STIM_003.jpg
1998.139	0.757	1	2back	Block4	2back/STIM_003.jpg
2002.408	0.376	1	2back	Block4	2back/STIM_003.jpg
2005.074	0.846	1	2back	Block4	2back/STIM_004.jpg
2009.079	0.399	0	2back	Block4	2back/STIM_004.jpg
2012.429	0.696	1	2back	Block4	2back/STIM_004.jpg
2016.806	0.763	1	2back	Block4	2back/STIM_005.jpg
2020.576	0.716	1	2back	Block4	2back/STIM_005.jpg
2024.471	0.753	0	2back	Block4	2back/STIM_005.jpg
2028.621	0.627	1	2back	Block4	2back/STIM_006.jpg
2032.602	0.69	1	2back	Block4	2back/STIM_006.jpg
2036.339	0.46	0	2back	Block4	2back/STIM_006.jpg
2039.687	0.394	0	2back	Block4	2back/STIM_007.jpg
2043.176	0.766	1	2back	Block4	2back/STIM_007.jpg
2047.414	0.602	1	2back	Block4	2back/STIM_007.jpg
2051.882	0.388	1	2back	Block4	2back/STIM_008.jpg
2055.746	0.682	1	2back	Block4	2back/STIM_008.jpg
2059.921	0.539	1	2back	Block4	2back/STIM_008.jpg
2064.308	0.554	0	2back	Block4	2back/STIM_009.jpg
2067.139	0.818	1	2back	Block4	2back/STIM_009.jpg
2070.009	0.661	1	2back	Block4	2back/STIM_009.jpg
2072.97	0.59	1	2back	Block4	2back/STIM_010.jpg
2077.458	0.524	1	2back	Block4	2back/STIM_010.jpg
2080.744	0.713	1	2back	Block4	2back/STIM_010.jpg
2085.222	0.478	1	2back	Block4	2back/STIM_011.jpg
2088.467	0.474	1	2back	Block4	2back/STIM_011.jpg
2091.812	0.796	1	2back	Block4	2back/STIM_011.jpg
2094.65	0.654	1	2back	Block4	2back/STIM_012.jpg
2098.4	0.404	1	2back	Block4	2back/STIM_012.jpg
2101.541	0.398	1	2back	Block4	2back/STIM_012.jpg
2105.108	0.545	1	2back	Block4	2back/STIM_013.jpg
2108.927	0.551	1	2back	Block4	2back/STIM_013.jpg
2112.538	0.834	1	2back	Block4	2back/STIM_013.jpg
2115.599	0.546	1	2back	Block4	2back/STIM_014.jpg
2120.04	0.737	1	2back	Block4	2back/STIM_014.jpg
2124.294	0.495	1	2back	Block4	2back/STIM_014.jpg
2128.154	0.594	1	2back	Block4	2back/STIM_015.jpg
2131.999	0.785	1	2back	Block4	2back/STIM_015.jpg
2135.471	0.673	1	2back	Block4	2back/STIM_015.jpg
2139.098	0.715	0	2back	Block4	2back/STIM_016.jpg
2143.154	0.835	1	2back	Block4	2back/STIM_016.jpg
2146.147	0.486	1	2back	Block4	2back/STIM_016.jpg
2150.019	0.707	1	2back	Block4	2back/STIM_017.jpg
2152.976	0.858	0	2back	Block4	2back/STIM_017.jpg
2157.805	0.593	1	2back	Block4	2back/STIM_017.jpg
2160.722	0.538	0	2back	Block4	2back/STIM_018.jpg
2164.371	0.554	1	2back	Block4	2back/STIM_018.jpg
2167.761	0.56	0	2back	Block4	2back/STIM_018.jpg
2171.187	0.777	1	2back	Block4	2back/STIM_019.jpg
2175.406	0.523	0	2back	Block4	2back/STIM_019.jpg
2179.844	0.774	1	2back	Block4	2back/STIM_019.jpg
2183.052	0.702	0	2back	Block4	2back/STIM_020.jpg
2187.688	0.749	1	2back	Block4	2back/STIM_020.jpg
2191.134	0.698	1	2back	Block4	2back/STIM_020.jpg
2195.539	0.758	1	2back	Block4	2back/STIM_021.jpg
2199.522	0.623	1	2back	Block4	2back/STIM_021.jpg
2203.218	0.613	1	2back	Block4	2back/STIM_021.jpg
2206.853	0.426	1	2back	Block4	2back/STIM_022.jpg
2210.637	0.4	1	2back	Block4	2back/STIM_022.jpg
2214.941	0.671	1	2back	Block4	2back/STIM_022.jpg
2218.752	0.712	1	2back	Block4	2back/STIM_023.jpg
2221.94	0.656	1	2back	Block4	2back/STIM_023.jpg
2226.589	0.585	1	2back	Block4	2back/STIM_023.jpg
2229.874	0.66	1	2back	Block4	2back/STIM_024.jpg
2232.546	0.522	1	2back	Block4	2back/STIM_024.jpg
2236.366	0.425	1	2back	Block4	2back/STIM_024.jpg
2240.128	0.553	0	2back	Block4	2back/STIM_025.jpg
2244.094	0.809	0	2back	Block4	2back/STIM_025.jpg
2247.042	0.406	1	2back	Block4	2back/STIM_025.jpg
2251.346	0.41	1	2back	Block4	2back/STIM_026.jpg
2255.434	0.374	1	2back	Block4	2back/STIM_026.jpg
2259.322	0.476	1	2back	Block4	2back/STIM_026.jpg
2263.661	0.797	0	2back	Block4	2back/STIM_027.jpg
2267.419	0.571	1	2back	Block4	2back/STIM_027.jpg
2271.79	0.555	1	2back	Block4	2back/STIM_027.jpg
2274.347	0.845	1	2back	Block4	2back/STIM_028.jpg
2277.243	0.775	1	2back	Block4	2back/STIM_028.jpg
2281.615	0.799	0	2back	Block4	2back/STIM_028.jpg
2285.611	0.479	1	2back	Block4	2back/STIM_029.jpg
2288.179	0.805	1	2back	Block4	2back/STIM_029.jpg
2292.534	0.427	1	2back	Block4	2back/STIM_029.jpg
2296.391	0.394	1	2back	Block4	2back/STIM_030.jpg
2300.713	0.557	1	2back	Block4	2back/STIM_030.jpg
2304.737	0.563	0	2back	Block4	2back/STIM_030.jpg
2307.39	0.85	0	2back	Block4	2back/STIM_031.jpg
2311.002	0.716	1	2back	Block4	2back/STIM_031.jpg
2314.946	0.837	1	2back	Block4	2back/STIM_031.jpg
2318.816	0.861	1	2back	Block4	2back/STIM_032.jpg
2322.91	0.787	1	2back	Block4	2back/STIM_032.jpg
2327.345	0.46	1	2back	Block4	2back/STIM_032.jpg
2330.589	0.648	1	2back	Block4	2back/STIM_033.jpg
2333.439	0.577	1	2back	Block4	2back/STIM_033.jpg
2337.059	0.403	1	2back	Block4	2back/STIM_033.jpg
2340.071	0.833	1	2back	Block4	2back/STIM_034.jpg
2344.187	0.858	1	2back	Block4	2back/STIM_034.jpg
2348.945	0.8	1	2back	Block4	2back/STIM_034.jpg
2352.631	0.81	1	2back	Block4	2back/STIM_035.jpg
2355.575	0.551	1	2back	Block4	2back/STIM_035.jpg
2359.94	0.515	1	2back	Block4	2back/STIM_035.jpg
2362.669	0.57	1	2back	Block4	2back/STIM_036.jpg
2365.61	0.55	1	2back	Block4	2back/STIM_036.jpg
2369.166	0.618	1	2back	Block4	2back/STIM_036.jpg
2372.627	0.386	0	2back	Block4	2back/STIM_037.jpg
2375.867	0.404	1	2back	Block4	2back/STIM_037.jpg
2378.972	0.786	1	2back	Block4	2back/STIM_037.jpg
2382.027	0.595	1	2back	Block4	2back/STIM_038.jpg
2385.287	0.453	1	2back	Block4	2back/STIM_038.jpg
2388.454	0.585	1	2back	Block4	2back/STIM_038.jpg
2391.7	0.525	1	2back	Block4	2back/STIM_039.jpg
2395.648	0.51	1	2back	Block4	2back/STIM_039.jpg
2399.775	0.602	1	2back	Block4	2back/STIM_039.jpg
2403.035	0.48	1	0back	Block4	0back/STIM_000.jpg
2406.128	0.437	1	0back	Block4	0back/STIM_000.jpg
2409.437	0.69	1	0back	Block4	0back/STIM_000.jpg
2412.606	0.653	1	0back	Block4	0back/STIM_001.jpg
2416.509	0.617	1	0back	Block4	0back/STIM_001.jpg
2419.798	0.443	1	0back	Block4	0back/STIM_001.jpg
2423.528	0.482	0	0back	Block4	0back/STIM_002.jpg
2427.342	0.377	0	0back	Block4	0back/STIM_002.jpg
2430.331	0.495	1	0back	Block4	0back/STIM_002.jpg
2432.833	0.498	1	0back	Block4	0back/STIM_003.jpg
2436.371	0.611	1	0back	Block4	0back/STIM_003.jpg
2440.51	0.527	0	0back	Block4	0back/STIM_003.jpg
2444.187	0.619	1	0back	Block4	0back/STIM_004.jpg
2447.512	0.631	1	0back	Block4	0back/STIM_004.jpg
2451.82	0.487	1	0back	Block4	0back/STIM_004.jpg
2454.978	0.406	0	0back	Block4	0back/STIM_005.jpg
2457.749	0.433	0	0back	Block4	0back/STIM_005.jpg
2460.779	0.612	1	0back	Block4	0back/STIM_005.jpg
2464.509	0.673	1	0back	Block4	0back/STIM_006.jpg
2468.923	0.629	1	0back	Block4	0back/STIM_006.jpg
2471.738	0.603	0	0back	Block4	0back/STIM_006.jpg
2475.208	0.532	1	0back	Block4	0back/STIM_007.jpg
2478.948	0.698	0	0back	Block4	0back/STIM_007.jpg
2483.061	0.579	1	0back	Block4	0back/STIM_007.jpg
2485.673	0.672	1	0back	Block4	0back/STIM_008.jpg
2489.178	0.492	1	0back	Block4	0back/STIM_008.jpg
2492.899	0.594	0	0back	Block4	0back/STIM_008.jpg
2496.296	0.548	1	0back	Block4	0back/STIM_009.jpg
2498.977	0.572	1	0back	Block4	0back/STIM_009.jpg
2503.268	0.444	0	0back	Block4	0back/STIM_009.jpg
2505.728	0.707	1	0back	Block4	0back/STIM_010.jpg
2509.555	0.619	0	0back	Block4	0back/STIM_010.jpg
2513.89	0.635	0	0back	Block4	0back/STIM_010.jpg
2518.523	0.482	0	0back	Block4	0back/STIM_011.jpg
2522.302	0.549	1	0back	Block4	0back/STIM_011.jpg
2524.89	0.434	1	0back	Block4	0back/STIM_011.jpg
2528.074	0.429	1	0back	Block4	0back/STIM_012.jpg
2532.419	0.366	0	0back	Block4	0back/STIM_012.jpg
2535.849	0.397	1	0back	Block4	0back/STIM_012.jpg
2539.111	0.406	0	0back	Block4	0back/STIM_013.jpg
2541.872	0.671	1	0back	Block4	0back/STIM_013.jpg
2546.234	0.496	1	0back	Block4	0back/STIM_013.jpg
2550.113	0.546	1	0back	Block4	0back/STIM_014.jpg
2553.087	0.529	1	0back	Block4	0back/STIM_014.jpg
2556.643	0.636	0	0back	Block4	0back/STIM_014.jpg
2559.452	0.378	1	0back	Block4	0back/STIM_015.jpg
2562.177	0.411	1	0back	Block4	0back/STIM_015.jpg
2565.109	0.366	1	0back	Block4	0back/STIM_015.jpg
2567.556	0.663	1	0back	Block4	0back/STIM_016.jpg
2571.471	0.525	1	0back	Block4	0back/STIM_016.jpg
2575.368	0.668	1	0back	Block4	0back/STIM_016.jpg
2578.406	0.44	1	0back	Block4	0back/STIM_017.jpg
2581.015	0.498	1	0back	Block4	0back/STIM_017.jpg
2584.104	0.387	1	0back	Block4	0back/STIM_017.jpg
2587.039	0.431	1	0back	Block4	0back/STIM_018.jpg
2590.409	0.599	1	0back	Block4	0back/STIM_018.jpg
2593.153	0.478	0	0back	Block4	0back/STIM_018.jpg
2596.136	0.361	1	0back	Block4	0back/STIM_019.jpg
2599.948	0.457	1	0back	Block4	0back/STIM_019.jpg
2603.083	0.372	0	0back	Block4	0back/STIM_019.jpg
