onset	duration	response_time_ms	trial_type	learning_stage	stimulus	response_port
0.0	1.787	1787.0	navigation	Trial1	navigation/STIM_000.jpg	100
5.509	3.307	3307.0	navigation	Trial1	navigation/STIM_000.jpg	99
11.804	3.364	3364.0	navigation	Trial1	navigation/STIM_000.jpg	99
17.852	1.588	1587.5	navigation	Trial1	navigation/STIM_000.jpg	100
22.051	1.703	1702.8	navigation	Trial1	navigation/STIM_000.jpg	99
26.437	2.161	2161.3	navigation	Trial1	navigation/STIM_000.jpg	100
30.917	1.873	1873.4	navigation	Trial1	navigation/STIM_001.jpg	99
36.426	2.752	2752.2	navigation	Trial1	navigation/STIM_001.jpg	100
42.72	1.504	1503.8	navigation	Trial1	navigation/STIM_001.jpg	100
47.088	3.314	3314.4	navigation	Trial1	navigation/STIM_001.jpg	100
52.652	1.761	1760.8	navigation	Trial1	navigation/STIM_001.jpg	100
58.062	2.997	2997.0	navigation	Trial1	navigation/STIM_001.jpg	99
63.235	1.678	1677.9	navigation	Trial1	navigation/STIM_002.jpg	100
67.151	3.365	3365.2	navigation	Trial1	navigation/STIM_002.jpg	100
73.913	1.858	1857.9	navigation	Trial1	navigation/STIM_002.jpg	100
78.94	2.573	2573.0	navigation	Trial1	navigation/STIM_002.jpg	99
85.308	2.812	2812.2	navigation	Trial1	navigation/STIM_002.jpg	99
91.23	2.616	2615.6	navigation	Trial1	navigation/STIM_002.jpg	100
96.917	1.786	1786.1	navigation	Trial1	navigation/STIM_003.jpg	100
101.879	3.132	3132.1	navigation	Trial1	navigation/STIM_003.jpg	100
107.701	2.159	2159.0	navigation	Trial1	navigation/STIM_003.jpg	99
113.353	1.761	1760.8	navigation	Trial1	navigation/STIM_003.jpg	100
117.806	2.22	2220.2	navigation	Trial1	navigation/STIM_003.jpg	99
123.899	1.898	1898.0	navigation	Trial1	navigation/STIM_003.jpg	99
129.718	2.792	2792.4	navigation	Trial1	navigation/STIM_004.jpg	99
135.755	3.667	3666.9	navigation	Trial1	navigation/STIM_004.jpg	99
142.034	2.739	2739.4	navigation	Trial1	navigation/STIM_004.jpg	100
148.407	2.016	2015.9	navigation	Trial1	navigation/STIM_004.jpg	100
153.991	2.099	2099.3	navigation	Trial1	navigation/STIM_004.jpg	100
158.806	2.499	2499.4	navigation	Trial1	navigation/STIM_004.jpg	100
165.131	3.084	3083.8	navigation	Trial1	navigation/STIM_005.jpg	99
171.359	3.388	3388.5	navigation	Trial1	navigation/STIM_005.jpg	99
178.604	2.526	2525.8	navigation	Trial1	navigation/STIM_005.jpg	99
183.911	2.319	2318.9	navigation	Trial1	navigation/STIM_005.jpg	99
190.007	1.45	1449.5	navigation	Trial1	navigation/STIM_005.jpg	99
193.958	2.403	2403.2	navigation	Trial1	navigation/STIM_005.jpg	100
199.975	2.214	2214.4	navigation	Trial1	navigation/STIM_006.jpg	99
205.026	2.149	2149.1	navigation	Trial1	navigation/STIM_006.jpg	100
210.633	1.465	1465.3	navigation	Trial1	navigation/STIM_006.jpg	100
215.121	2.435	2434.9	navigation	Trial1	navigation/STIM_006.jpg	100
220.836	2.612	2611.9	navigation	Trial1	navigation/STIM_006.jpg	99
225.613	2.552	2552.3	navigation	Trial1	navigation/STIM_006.jpg	100
231.076	3.907	3906.9	navigation	Trial1	navigation/STIM_007.jpg	99
237.844	3.43	3429.5	navigation	Trial1	navigation/STIM_007.jpg	99
243.285	3.378	3378.2	navigation	Trial1	navigation/STIM_007.jpg	100
250.232	1.643	1642.7	navigation	Trial1	navigation/STIM_007.jpg	100
253.961	2.143	2143.1	navigation	Trial1	navigation/STIM_007.jpg	100
258.468	1.843	1842.8	navigation	Trial1	navigation/STIM_007.jpg	99
262.703	2.426	2425.9	navigation	Trial1	navigation/STIM_008.jpg	100
267.685	1.848	1847.7	navigation	Trial1	navigation/STIM_008.jpg	99
272.33	2.525	2524.7	navigation	Trial1	navigation/STIM_008.jpg	99
278.444	1.936	1935.5	navigation	Trial1	navigation/STIM_008.jpg	100
284.083	2.785	2784.8	navigation	Trial1	navigation/STIM_008.jpg	99
289.467	2.558	2557.7	navigation	Trial1	navigation/STIM_008.jpg	100
295.625	3.657	3657.0	navigation	Trial1	navigation/STIM_009.jpg	99
302.356	2.621	2621.3	navigation	Trial1	navigation/STIM_009.jpg	99
306.987	2.704	2703.7	navigation	Trial1	navigation/STIM_009.jpg	99
312.426	2.166	2166.0	navigation	Trial1	navigation/STIM_009.jpg	100
317.042	1.765	1765.0	navigation	Trial1	navigation/STIM_009.jpg	100
321.502	1.288	1288.3	navigation	Trial1	navigation/STIM_009.jpg	99
325.912	1.616	1616.2	navigation	Trial1	navigation/STIM_010.jpg	100
329.88	3.279	3279.0	navigation	Trial1	navigation/STIM_010.jpg	99
335.565	2.329	2329.2	navigation	Trial1	navigation/STIM_010.jpg	99
341.738	2.472	2472.1	navigation	Trial1	navigation/STIM_010.jpg	99
347.374	2.055	2054.8	navigation	Trial1	navigation/STIM_010.jpg	100
352.961	1.392	1392.0	navigation	Trial1	navigation/STIM_010.jpg	100
357.383	2.225	2224.6	navigation	Trial1	navigation/STIM_011.jpg	99
362.052	2.61	2610.2	navigation	Trial1	navigation/STIM_011.jpg	99
368.56	1.822	1821.6	navigation	Trial1	navigation/STIM_011.jpg	99
372.713	1.419	1419.4	navigation	Trial1	navigation/STIM_011.jpg	99
377.394	1.387	1387.4	navigation	Trial1	navigation/STIM_011.jpg	99
382.081	1.666	1666.0	navigation	Trial1	navigation/STIM_011.jpg	100
386.451	0.916	916.0	pointing	Trial1	pointing/STIM_000.jpg	99
390.066	1.019	1019.4	pointing	Trial1	pointing/STIM_000.jpg	99
393.547	0.891	891.2	pointing	Trial1	pointing/STIM_000.jpg	100
397.739	0.934	933.5	pointing	Trial1	pointing/STIM_000.jpg	100
402.05	0.697	696.7	pointing	Trial1	pointing/STIM_000.jpg	100
405.738	0.802	802.4	pointing	Trial1	pointing/STIM_000.jpg	100
409.796	0.647	647.2	pointing	Trial1	pointing/STIM_001.jpg	100
413.474	0.787	787.3	pointing	Trial1	pointing/STIM_001.jpg	99
417.475	1.108	1108.5	pointing	Trial1	pointing/STIM_001.jpg	100
421.764	0.823	823.2	pointing	Trial1	pointing/STIM_001.jpg	99
424.937	0.788	788.2	pointing	Trial1	pointing/STIM_001.jpg	100
427.754	0.997	997.2	pointing	Trial1	pointing/STIM_001.jpg	100
432.259	0.97	969.7	pointing	Trial1	pointing/STIM_002.jpg	99
435.874	1.03	1029.9	pointing	Trial1	pointing/STIM_002.jpg	100
438.988	1.106	1106.5	pointing	Trial1	pointing/STIM_002.jpg	100
442.484	0.967	966.6	pointing	Trial1	pointing/STIM_002.jpg	100
445.516	0.863	863.3	pointing	Trial1	pointing/STIM_002.jpg	99
450.35	0.659	658.7	pointing	Trial1	pointing/STIM_002.jpg	100
454.805	1.158	1158.2	pointing	Trial1	pointing/STIM_003.jpg	100
459.385	1.054	1054.5	pointing	Trial1	pointing/STIM_003.jpg	99
462.957	0.739	739.0	pointing	Trial1	pointing/STIM_003.jpg	99
467.455	1.146	1145.7	pointing	Trial1	pointing/STIM_003.jpg	99
472.503	1.192	1191.5	pointing	Trial1	pointing/STIM_003.jpg	99
476.45	0.844	844.0	pointing	Trial1	pointing/STIM_003.jpg	100
480.534	0.882	882.2	pointing	Trial1	pointing/STIM_004.jpg	100
485.012	0.92	920.5	pointing	Trial1	pointing/STIM_004.jpg	99
487.997	1.032	1032.0	pointing	Trial1	pointing/STIM_004.jpg	99
492.453	0.938	938.3	pointing	Trial1	pointing/STIM_004.jpg	99
496.349	0.789	789.1	pointing	Trial1	pointing/STIM_004.jpg	99
499.762	1.022	1021.8	pointing	Trial1	pointing/STIM_004.jpg	100
503.928	0.994	993.6	pointing	Trial1	pointing/STIM_005.jpg	99
507.499	1.067	1067.2	pointing	Trial1	pointing/STIM_005.jpg	99
511.65	1.166	1166.4	pointing	Trial1	pointing/STIM_005.jpg	99
516.649	1.069	1069.4	pointing	Trial1	pointing/STIM_005.jpg	99
521.504	0.931	931.4	pointing	Trial1	pointing/STIM_005.jpg	99
525.265	0.924	923.7	pointing	Trial1	pointing/STIM_005.jpg	100
528.689	0.957	957.3	pointing	Trial1	pointing/STIM_006.jpg	99
532.666	0.802	801.6	pointing	Trial1	pointing/STIM_006.jpg	100
536.465	0.673	673.0	pointing	Trial1	pointing/STIM_006.jpg	99
539.885	0.662	661.8	pointing	Trial1	pointing/STIM_006.jpg	99
543.875	1.035	1034.6	pointing	Trial1	pointing/STIM_006.jpg	99
547.644	0.92	919.5	pointing	Trial1	pointing/STIM_006.jpg	100
551.489	0.69	690.0	pointing	Trial1	pointing/STIM_007.jpg	99
556.052	0.832	831.8	pointing	Trial1	pointing/STIM_007.jpg	100
559.642	0.908	908.5	pointing	Trial1	pointing/STIM_007.jpg	100
563.423	0.905	905.3	pointing	Trial1	pointing/STIM_007.jpg	100
567.88	0.742	742.1	pointing	Trial1	pointing/STIM_007.jpg	99
570.875	0.953	953.2	pointing	Trial1	pointing/STIM_007.jpg	99
574.815	0.947	946.8	pointing	Trial1	pointing/STIM_008.jpg	99
577.779	0.684	684.0	pointing	Trial1	pointing/STIM_008.jpg	100
580.887	0.667	666.7	pointing	Trial1	pointing/STIM_008.jpg	99
585.379	1.202	1201.6	pointing	Trial1	pointing/STIM_008.jpg	99
590.565	1.171	1171.0	pointing	Trial1	pointing/STIM_008.jpg	99
594.872	0.716	716.3	pointing	Trial1	pointing/STIM_008.jpg	100
598.117	1.044	1044.3	pointing	Trial1	pointing/STIM_009.jpg	99
601.681	0.787	787.1	pointing	Trial1	pointing/STIM_009.jpg	99
604.51	1.137	1137.2	pointing	Trial1	pointing/STIM_009.jpg	100
607.778	0.957	956.7	pointing	Trial1	pointing/STIM_009.jpg	100
611.997	0.693	693.0	pointing	Trial1	pointing/STIM_009.jpg	99
615.338	0.657	656.7	pointing	Trial1	pointing/STIM_009.jpg	100
619.497	1.093	1093.1	pointing	Trial1	pointing/STIM_010.jpg	100
624.11	0.779	779.0	pointing	Trial1	pointing/STIM_010.jpg	100
627.443	0.846	846.5	pointing	Trial1	pointing/STIM_010.jpg	99
631.615	0.78	779.7	pointing	Trial1	pointing/STIM_010.jpg	99
635.258	0.815	815.1	pointing	Trial1	pointing/STIM_010.jpg	100
638.582	1.108	1108.2	pointing	Trial1	pointing/STIM_010.jpg	100
642.292	1.046	1045.5	pointing	Trial1	pointing/STIM_011.jpg	99
645.794	0.782	782.5	pointing	Trial1	pointing/STIM_011.jpg	100
650.188	0.668	668.0	pointing	Trial1	pointing/STIM_011.jpg	100
654.275	1.107	1106.7	pointing	Trial1	pointing/STIM_011.jpg	99
659.33	0.68	679.7	pointing	Trial1	pointing/STIM_011.jpg	100
663.799	1.078	1077.8	pointing	Trial1	pointing/STIM_011.jpg	100
668.51	1.578	1578.3	navigation	Trial2	navigation/STIM_000.jpg	99
672.747	2.426	2426.4	navigation	Trial2	navigation/STIM_000.jpg	100
678.696	2.157	2157.4	navigation	Trial2	navigation/STIM_000.jpg	99
684.724	2.064	2064.3	navigation	Trial2	navigation/STIM_000.jpg	99
690.346	2.386	2386.2	navigation	Trial2	navigation/STIM_000.jpg	99
696.499	2.15	2149.5	navigation	Trial2	navigation/STIM_000.jpg	99
702.339	2.049	2049.3	navigation	Trial2	navigation/STIM_001.jpg	100
708.189	2.608	2608.3	navigation	Trial2	navigation/STIM_001.jpg	100
713.593	1.981	1980.6	navigation	Trial2	navigation/STIM_001.jpg	100
717.62	2.562	2562.5	navigation	Trial2	navigation/STIM_001.jpg	100
723.875	2.764	2764.2	navigation	Trial2	navigation/STIM_001.jpg	99
729.161	1.653	1652.6	navigation	Trial2	navigation/STIM_001.jpg	100
733.535	2.25	2250.3	navigation	Trial2	navigation/STIM_002.jpg	100
739.07	2.172	2171.8	navigation	Trial2	navigation/STIM_002.jpg	99
743.817	1.541	1540.9	navigation	Trial2	navigation/STIM_002.jpg	100
748.672	1.913	1912.8	navigation	Trial2	navigation/STIM_002.jpg	99
753.993	1.742	1741.8	navigation	Trial2	navigation/STIM_002.jpg	100
759.268	1.73	1730.3	navigation	Trial2	navigation/STIM_002.jpg	99
764.847	1.97	1970.5	navigation	Trial2	navigation/STIM_003.jpg	99
770.208	2.568	2568.2	navigation	Trial2	navigation/STIM_003.jpg	100
774.796	1.79	1790.5	navigation	Trial2	navigation/STIM_003.jpg	99
779.805	1.631	1631.3	navigation	Trial2	navigation/STIM_003.jpg	100
783.959	1.986	1985.8	navigation	Trial2	navigation/STIM_003.jpg	100
787.982	2.418	2417.7	navigation	Trial2	navigation/STIM_003.jpg	100
794.242	1.866	1866.1	navigation	Trial2	navigation/STIM_004.jpg	100
798.186	2.425	2425.0	navigation	Trial2	navigation/STIM_004.jpg	99
803.242	1.577	1577.1	navigation	Trial2	navigation/STIM_004.jpg	99
807.675	2.386	2386.1	navigation	Trial2	navigation/STIM_004.jpg	99
812.685	2.205	2204.7	navigation	Trial2	navigation/STIM_004.jpg	99
818.169	2.171	2171.2	navigation	Trial2	navigation/STIM_004.jpg	100
823.977	2.202	2202.4	navigation	Trial2	navigation/STIM_005.jpg	99
830.087	2.656	2655.6	navigation	Trial2	navigation/STIM_005.jpg	99
835.501	2.49	2489.8	navigation	Trial2	navigation/STIM_005.jpg	99
840.99	1.615	1615.3	navigation	Trial2	navigation/STIM_005.jpg	99
846.192	2.573	2572.7	navigation	Trial2	navigation/STIM_005.jpg	100
851.237	1.939	1939.4	navigation	Trial2	navigation/STIM_005.jpg	99
857.056	2.152	2151.9	navigation	Trial2	navigation/STIM_006.jpg	99
862.007	2.532	2531.8	navigation	Trial2	navigation/STIM_006.jpg	100
867.357	2.087	2087.4	navigation	Trial2	navigation/STIM_006.jpg	100
873.231	2.652	2652.1	navigation	Trial2	navigation/STIM_006.jpg	100
878.897	2.488	2487.8	navigation	Trial2	navigation/STIM_006.jpg	100
884.176	1.307	1306.9	navigation	Trial2	navigation/STIM_006.jpg	100
889.338	2.346	2345.5	navigation	Trial2	navigation/STIM_007.jpg	99
893.983	2.742	2742.4	navigation	Trial2	navigation/STIM_007.jpg	100
898.973	1.52	1520.2	navigation	Trial2	navigation/STIM_007.jpg	99
903.445	1.909	1908.7	navigation	Trial2	navigation/STIM_007.jpg	99
909.133	1.225	1225.2	navigation	Trial2	navigation/STIM_007.jpg	100
914.234	1.864	1864.3	navigation	Trial2	navigation/STIM_007.jpg	99
918.882	3.417	3417.3	navigation	Trial2	navigation/STIM_008.jpg	99
924.368	2.37	2370.1	navigation	Trial2	navigation/STIM_008.jpg	100
929.904	1.417	1417.4	navigation	Trial2	navigation/STIM_008.jpg	100
933.897	1.203	1203.1	navigation	Trial2	navigation/STIM_008.jpg	100
938.45	1.604	1603.7	navigation	Trial2	navigation/STIM_008.jpg	100
943.466	1.532	1532.3	navigation	Trial2	navigation/STIM_008.jpg	100
948.074	2.678	2677.7	navigation	Trial2	navigation/STIM_009.jpg	100
953.642	1.947	1946.7	navigation	Trial2	navigation/STIM_009.jpg	99
958.507	2.662	2662.0	navigation	Trial2	navigation/STIM_009.jpg	99
964.292	1.639	1639.2	navigation	Trial2	navigation/STIM_009.jpg	99
969.516	1.595	1594.7	navigation	Trial2	navigation/STIM_009.jpg	100
973.457	2.44	2439.7	navigation	Trial2	navigation/STIM_009.jpg	99
978.535	1.81	1809.5	navigation	Trial2	navigation/STIM_010.jpg	100
983.183	2.241	2240.8	navigation	Trial2	navigation/STIM_010.jpg	100
988.297	2.817	2817.0	navigation	Trial2	navigation/STIM_010.jpg	100
993.598	2.008	2007.9	navigation	Trial2	navigation/STIM_010.jpg	100
998.934	2.407	2406.6	navigation	Trial2	navigation/STIM_010.jpg	100
1004.337	2.019	2019.2	navigation	Trial2	navigation/STIM_010.jpg	100
1009.489	2.306	2305.7	navigation	Trial2	navigation/STIM_011.jpg	100
1014.037	2.289	2288.7	navigation	Trial2	navigation/STIM_011.jpg	100
1019.405	2.855	2854.7	navigation	Trial2	navigation/STIM_011.jpg	100
1025.275	1.886	1885.7	navigation	Trial2	navigation/STIM_011.jpg	100
1029.52	1.815	1814.7	navigation	Trial2	navigation/STIM_011.jpg	100
1034.988	2.45	2449.8	navigation	Trial2	navigation/STIM_011.jpg	100
1039.906	0.728	727.8	pointing	Trial2	pointing/STIM_000.jpg	99
1044.489	0.762	761.9	pointing	Trial2	pointing/STIM_000.jpg	100
1047.794	0.907	907.4	pointing	Trial2	pointing/STIM_000.jpg	100
1051.949	1.071	1070.8	pointing	Trial2	pointing/STIM_000.jpg	100
1055.538	1.06	1060.4	pointing	Trial2	pointing/STIM_000.jpg	100
1059.355	1.121	1120.9	pointing	Trial2	pointing/STIM_000.jpg	99
1063.822	0.719	719.2	pointing	Trial2	pointing/STIM_001.jpg	100
1066.594	0.881	881.1	pointing	Trial2	pointing/STIM_001.jpg	100
1071.099	0.928	927.6	pointing	Trial2	pointing/STIM_001.jpg	100
1076.002	0.69	690.0	pointing	Trial2	pointing/STIM_001.jpg	99
1080.673	1.12	1119.7	pointing	Trial2	pointing/STIM_001.jpg	99
1083.924	0.989	989.2	pointing	Trial2	pointing/STIM_001.jpg	99
1088.892	0.825	825.2	pointing	Trial2	pointing/STIM_002.jpg	100
1093.298	0.758	758.1	pointing	Trial2	pointing/STIM_002.jpg	99
1097.367	1.086	1085.6	pointing	Trial2	pointing/STIM_002.jpg	99
1100.983	0.795	795.2	pointing	Trial2	pointing/STIM_002.jpg	99
1105.291	0.77	770.0	pointing	Trial2	pointing/STIM_002.jpg	100
1109.354	1.057	1056.6	pointing	Trial2	pointing/STIM_002.jpg	100
1113.514	1.183	1183.0	pointing	Trial2	pointing/STIM_003.jpg	99
1117.158	0.82	820.0	pointing	Trial2	pointing/STIM_003.jpg	100
1121.583	0.909	908.8	pointing	Trial2	pointing/STIM_003.jpg	99
1126.209	0.779	778.6	pointing	Trial2	pointing/STIM_003.jpg	100
1129.631	0.947	947.0	pointing	Trial2	pointing/STIM_003.jpg	99
1133.068	1.164	1163.8	pointing	Trial2	pointing/STIM_003.jpg	99
1137.724	0.733	732.6	pointing	Trial2	pointing/STIM_004.jpg	99
1140.548	0.684	684.4	pointing	Trial2	pointing/STIM_004.jpg	100
1144.859	0.876	876.1	pointing	Trial2	pointing/STIM_004.jpg	99
1149.533	1.079	1078.9	pointing	Trial2	pointing/STIM_004.jpg	100
1153.053	0.793	792.9	pointing	Trial2	pointing/STIM_004.jpg	100
1156.185	1.085	1084.7	pointing	Trial2	pointing/STIM_004.jpg	100
1160.834	1.157	1157.3	pointing	Trial2	pointing/STIM_005.jpg	100
1165.107	0.98	979.7	pointing	Trial2	pointing/STIM_005.jpg	99
1169.927	1.086	1085.7	pointing	Trial2	pointing/STIM_005.jpg	99
1173.016	1.024	1024.5	pointing	Trial2	pointing/STIM_005.jpg	100
1177.565	1.156	1155.8	pointing	Trial2	pointing/STIM_005.jpg	100
1182.533	0.684	684.2	pointing	Trial2	pointing/STIM_005.jpg	100
1187.151	0.825	824.6	pointing	Trial2	pointing/STIM_006.jpg	99
1191.364	0.736	736.5	pointing	Trial2	pointing/STIM_006.jpg	99
1195.236	0.968	967.6	pointing	Trial2	pointing/STIM_006.jpg	99
1198.574	0.958	957.9	pointing	Trial2	pointing/STIM_006.jpg	100
1201.726	1.019	1018.7	pointing	Trial2	pointing/STIM_006.jpg	99
1206.077	0.968	967.6	pointing	Trial2	pointing/STIM_006.jpg	99
1210.734	0.858	858.3	pointing	Trial2	pointing/STIM_007.jpg	100
1214.928	1.031	1030.9	pointing	Trial2	pointing/STIM_007.jpg	99
1219.03	0.812	811.5	pointing	Trial2	pointing/STIM_007.jpg	100
1223.765	1.117	1116.9	pointing	Trial2	pointing/STIM_007.jpg	99
1228.722	0.828	828.1	pointing	Trial2	pointing/STIM_007.jpg	100
1232.705	1.103	1103.0	pointing	Trial2	pointing/STIM_007.jpg	100
1237.261	0.964	963.9	pointing	Trial2	pointing/STIM_008.jpg	99
1240.743	0.79	789.9	pointing	Trial2	pointing/STIM_008.jpg	100
1243.586	0.663	663.3	pointing	Trial2	pointing/STIM_008.jpg	99
1246.539	0.996	995.9	pointing	Trial2	pointing/STIM_008.jpg	99
1250.039	0.856	856.5	pointing	Trial2	pointing/STIM_008.jpg	99
1253.408	1.155	1155.4	pointing	Trial2	pointing/STIM_008.jpg	99
1256.932	0.774	773.9	pointing	Trial2	pointing/STIM_009.jpg	100
1260.74	1.083	1082.6	pointing	Trial2	pointing/STIM_009.jpg	100
1265.151	1.101	1101.0	pointing	Trial2	pointing/STIM_009.jpg	99
1269.898	0.734	733.5	pointing	Trial2	pointing/STIM_009.jpg	100
1273.962	0.996	995.7	pointing	Trial2	pointing/STIM_009.jpg	99
1277.71	0.672	672.1	pointing	Trial2	pointing/STIM_009.jpg	99
1282.032	0.898	897.6	pointing	Trial2	pointing/STIM_010.jpg	100
1286.048	0.762	761.6	pointing	Trial2	pointing/STIM_010.jpg	99
1290.02	0.764	764.4	pointing	Trial2	pointing/STIM_010.jpg	100
1294.63	0.734	733.5	pointing	Trial2	pointing/STIM_010.jpg	99
1298.105	1.018	1018.3	pointing	Trial2	pointing/STIM_010.jpg	100
1301.152	1.165	1164.8	pointing	Trial2	pointing/STIM_010.jpg	99
1304.465	0.704	703.7	pointing	Trial2	pointing/STIM_011.jpg	99
1308.647	1.085	1085.4	pointing	Trial2	pointing/STIM_011.jpg	100
1311.971	0.674	673.7	pointing	Trial2	pointing/STIM_011.jpg	100
1314.736	0.874	873.5	pointing	Trial2	pointing/STIM_011.jpg	99
1319.492	0.937	936.8	pointing	Trial2	pointing/STIM_011.jpg	99
1323.567	1.036	1035.6	pointing	Trial2	pointing/STIM_011.jpg	99
1327.667	2.781	2781.1	navigation	Trial3	navigation/STIM_000.jpg	99
1332.754	2.428	2427.8	navigation	Trial3	navigation/STIM_000.jpg	100
1337.901	2.753	2753.3	navigation	Trial3	navigation/STIM_000.jpg	99
1343.029	1.659	1659.4	navigation	Trial3	navigation/STIM_000.jpg	99
1348.489	1.94	1940.4	navigation	Trial3	navigation/STIM_000.jpg	99
1353.154	2.559	2559.0	navigation	Trial3	navigation/STIM_000.jpg	100
1359.0	1.675	1675.2	navigation	Trial3	navigation/STIM_001.jpg	99
1362.918	1.81	1809.6	navigation	Trial3	navigation/STIM_001.jpg	99
1367.168	1.707	1706.8	navigation	Trial3	navigation/STIM_001.jpg	99
1372.29	2.702	2702.0	navigation	Trial3	navigation/STIM_001.jpg	99
1377.954	1.198	1198.5	navigation	Trial3	navigation/STIM_001.jpg	99
1382.514	2.675	2675.0	navigation	Trial3	navigation/STIM_001.jpg	100
1389.171	1.136	1136.4	navigation	Trial3	navigation/STIM_002.jpg	99
1392.708	1.214	1213.8	navigation	Trial3	navigation/STIM_002.jpg	99
1397.257	2.816	2816.2	navigation	Trial3	navigation/STIM_002.jpg	100
1403.151	2.347	2347.1	navigation	Trial3	navigation/STIM_002.jpg	99
1408.664	2.002	2001.7	navigation	Trial3	navigation/STIM_002.jpg	99
1414.543	1.433	1433.1	navigation	Trial3	navigation/STIM_002.jpg	100
1418.647	1.513	1512.6	navigation	Trial3	navigation/STIM_003.jpg	99
1423.125	1.433	1432.7	navigation	Trial3	navigation/STIM_003.jpg	99
1427.887	1.921	1920.9	navigation	Trial3	navigation/STIM_003.jpg	99
1432.093	2.739	2738.8	navigation	Trial3	navigation/STIM_003.jpg	99
1438.744	1.337	1337.3	navigation	Trial3	navigation/STIM_003.jpg	100
1443.277	1.828	1827.8	navigation	Trial3	navigation/STIM_003.jpg	100
1447.669	2.134	2134.4	navigation	Trial3	navigation/STIM_004.jpg	100
1452.06	2.659	2659.0	navigation	Trial3	navigation/STIM_004.jpg	100
1456.801	1.284	1283.9	navigation	Trial3	navigation/STIM_004.jpg	100
1461.592	2.163	2163.4	navigation	Trial3	navigation/STIM_004.jpg	99
1466.549	2.253	2252.8	navigation	Trial3	navigation/STIM_004.jpg	99
1471.727	2.725	2725.2	navigation	Trial3	navigation/STIM_004.jpg	99
1477.634	2.621	2621.0	navigation	Trial3	navigation/STIM_005.jpg	99
1484.071	1.959	1958.6	navigation	Trial3	navigation/STIM_005.jpg	99
1489.693	2.032	2032.4	navigation	Trial3	navigation/STIM_005.jpg	99
1493.736	1.498	1498.2	navigation	Trial3	navigation/STIM_005.jpg	99
1498.262	2.063	2063.0	navigation	Trial3	navigation/STIM_005.jpg	99
1502.836	1.834	1833.6	navigation	Trial3	navigation/STIM_005.jpg	100
1508.25	2.516	2516.4	navigation	Trial3	navigation/STIM_006.jpg	100
1513.899	2.108	2108.1	navigation	Trial3	navigation/STIM_006.jpg	100
1518.471	1.238	1237.6	navigation	Trial3	navigation/STIM_006.jpg	99
1523.307	1.545	1545.0	navigation	Trial3	navigation/STIM_006.jpg	99
1528.595	2.502	2502.0	navigation	Trial3	navigation/STIM_006.jpg	100
1534.45	2.206	2205.7	navigation	Trial3	navigation/STIM_006.jpg	99
1540.247	2.25	2250.4	navigation	Trial3	navigation/STIM_007.jpg	99
1546.081	2.204	2203.5	navigation	Trial3	navigation/STIM_007.jpg	100
1550.667	1.824	1823.6	navigation	Trial3	navigation/STIM_007.jpg	99
1555.777	2.475	2475.2	navigation	Trial3	navigation/STIM_007.jpg	99
1561.467	1.464	1463.8	navigation	Trial3	navigation/STIM_007.jpg	99
1565.993	1.601	1601.2	navigation	Trial3	navigation/STIM_007.jpg	100
1570.547	2.252	2252.1	navigation	Trial3	navigation/STIM_008.jpg	100
1575.338	1.563	1563.4	navigation	Trial3	navigation/STIM_008.jpg	99
1579.727	2.315	2314.7	navigation	Trial3	navigation/STIM_008.jpg	100
1584.621	2.023	2022.7	navigation	Trial3	navigation/STIM_008.jpg	100
1589.407	2.32	2320.3	navigation	Trial3	navigation/STIM_008.jpg	99
1594.981	2.21	2209.5	navigation	Trial3	navigation/STIM_008.jpg	100
1600.013	2.026	2026.4	navigation	Trial3	navigation/STIM_009.jpg	99
1604.811	2.147	2147.4	navigation	Trial3	navigation/STIM_009.jpg	99
1610.499	2.667	2666.9	navigation	Trial3	navigation/STIM_009.jpg	100
1616.303	2.063	2063.2	navigation	Trial3	navigation/STIM_009.jpg	100
1622.265	1.668	1668.1	navigation	Trial3	navigation/STIM_009.jpg	100
1627.845	1.674	1674.1	navigation	Trial3	navigation/STIM_009.jpg	99
1632.895	1.503	1503.0	navigation	Trial3	navigation/STIM_010.jpg	99
1637.32	2.015	2015.0	navigation	Trial3	navigation/STIM_010.jpg	100
1643.045	2.818	2817.6	navigation	Trial3	navigation/STIM_010.jpg	99
1648.609	1.488	1488.1	navigation	Trial3	navigation/STIM_010.jpg	99
1653.002	2.03	2029.5	navigation	Trial3	navigation/STIM_010.jpg	99
1658.036	1.854	1853.7	navigation	Trial3	navigation/STIM_010.jpg	100
1663.017	2.797	2797.2	navigation	Trial3	navigation/STIM_011.jpg	100
1669.15	1.943	1943.4	navigation	Trial3	navigation/STIM_011.jpg	100
1674.262	1.989	1989.2	navigation	Trial3	navigation/STIM_011.jpg	100
1679.942	2.656	2656.4	navigation	Trial3	navigation/STIM_011.jpg	100
1685.726	2.015	2014.6	navigation	Trial3	navigation/STIM_011.jpg	99
1691.138	1.672	1671.5	navigation	Trial3	navigation/STIM_011.jpg	99
1695.187	1.185	1185.0	pointing	Trial3	pointing/STIM_000.jpg	99
1699.328	0.691	691.1	pointing	Trial3	pointing/STIM_000.jpg	99
1702.782	0.816	815.5	pointing	Trial3	pointing/STIM_000.jpg	99
1705.726	1.086	1085.5	pointing	Trial3	pointing/STIM_000.jpg	100
1710.731	0.73	729.6	pointing	Trial3	pointing/STIM_000.jpg	100
1713.471	0.983	983.3	pointing	Trial3	pointing/STIM_000.jpg	100
1717.442	1.046	1046.1	pointing	Trial3	pointing/STIM_001.jpg	99
1720.542	1.107	1107.4	pointing	Trial3	pointing/STIM_001.jpg	99
1724.868	0.927	926.7	pointing	Trial3	pointing/STIM_001.jpg	100
1728.225	0.674	673.6	pointing	Trial3	pointing/STIM_001.jpg	100
1731.284	0.704	704.3	pointing	Trial3	pointing/STIM_001.jpg	99
1735.078	1.044	1044.1	pointing	Trial3	pointing/STIM_001.jpg	99
1739.99	1.037	1036.6	pointing	Trial3	pointing/STIM_002.jpg	100
1743.504	0.696	696.4	pointing	Trial3	pointing/STIM_002.jpg	99
1746.563	0.967	967.2	pointing	Trial3	pointing/STIM_002.jpg	100
1751.099	0.935	935.0	pointing	Trial3	pointing/STIM_002.jpg	99
1754.139	0.975	975.1	pointing	Trial3	pointing/STIM_002.jpg	99
1757.57	0.83	830.2	pointing	Trial3	pointing/STIM_002.jpg	99
1761.729	0.772	771.9	pointing	Trial3	pointing/STIM_003.jpg	100
1765.838	1.115	1114.6	pointing	Trial3	pointing/STIM_003.jpg	99
1769.004	0.753	753.2	pointing	Trial3	pointing/STIM_003.jpg	100
1772.917	0.762	762.4	pointing	Trial3	pointing/STIM_003.jpg	99
1777.447	0.906	906.4	pointing	Trial3	pointing/STIM_003.jpg	99
1781.123	0.767	767.2	pointing	Trial3	pointing/STIM_003.jpg	100
1785.351	1.16	1160.3	pointing	Trial3	pointing/STIM_004.jpg	100
1790.244	0.67	669.9	pointing	Trial3	pointing/STIM_004.jpg	100
1794.803	1.172	1172.2	pointing	Trial3	pointing/STIM_004.jpg	99
1798.218	0.984	983.6	pointing	Trial3	pointing/STIM_004.jpg	100
1801.614	0.811	811.2	pointing	Trial3	pointing/STIM_004.jpg	99
1805.11	0.922	922.3	pointing	Trial3	pointing/STIM_004.jpg	99
1808.871	0.96	960.1	pointing	Trial3	pointing/STIM_005.jpg	100
1812.538	0.714	713.9	pointing	Trial3	pointing/STIM_005.jpg	99
1816.282	0.745	744.6	pointing	Trial3	pointing/STIM_005.jpg	99
1820.129	0.757	757.3	pointing	Trial3	pointing/STIM_005.jpg	99
1823.957	1.033	1033.4	pointing	Trial3	pointing/STIM_005.jpg	100
1828.395	1.155	1154.6	pointing	Trial3	pointing/STIM_005.jpg	99
1832.696	1.024	1023.5	pointing	Trial3	pointing/STIM_006.jpg	100
1837.287	0.878	878.2	pointing	Trial3	pointing/STIM_006.jpg	100
1841.236	0.974	974.5	pointing	Trial3	pointing/STIM_006.jpg	99
1845.51	0.732	731.9	pointing	Trial3	pointing/STIM_006.jpg	100
1848.327	0.652	652.5	pointing	Trial3	pointing/STIM_006.jpg	99
1852.762	0.667	667.4	pointing	Trial3	pointing/STIM_006.jpg	99
1855.57	0.716	716.3	pointing	Trial3	pointing/STIM_007.jpg	99
1860.135	0.843	843.2	pointing	Trial3	pointing/STIM_007.jpg	99
1864.006	1.181	1181.4	pointing	Trial3	pointing/STIM_007.jpg	99
1868.355	0.962	961.7	pointing	Trial3	pointing/STIM_007.jpg	99
1872.694	0.771	771.4	pointing	Trial3	pointing/STIM_007.jpg	99
1876.903	0.741	740.8	pointing	Trial3	pointing/STIM_007.jpg	100
1880.757	0.903	903.3	pointing	Trial3	pointing/STIM_008.jpg	100
1885.518	0.76	759.6	pointing	Trial3	pointing/STIM_008.jpg	99
1889.807	0.902	902.2	pointing	Trial3	pointing/STIM_008.jpg	99
1894.372	0.691	691.4	pointing	Trial3	pointing/STIM_008.jpg	100
1897.232	1.06	1059.8	pointing	Trial3	pointing/STIM_008.jpg	99
1900.56	0.904	903.9	pointing	Trial3	pointing/STIM_008.jpg	100
1903.961	1.108	1108.5	pointing	Trial3	pointing/STIM_009.jpg	99
1907.386	1.014	1014.5	pointing	Trial3	pointing/STIM_009.jpg	99
1911.202	0.671	670.9	pointing	Trial3	pointing/STIM_009.jpg	100
1914.18	1.153	1153.1	pointing	Trial3	pointing/STIM_009.jpg	100
1918.442	1.205	1205.2	pointing	Trial3	pointing/STIM_009.jpg	100
1922.288	0.665	664.9	pointing	Trial3	pointing/STIM_009.jpg	99
1925.936	0.976	976.3	pointing	Trial3	pointing/STIM_010.jpg	99
1929.004	0.878	877.9	pointing	Trial3	pointing/STIM_010.jpg	100
1932.451	1.163	1162.7	pointing	Trial3	pointing/STIM_010.jpg	100
1936.614	1.095	1094.9	pointing	Trial3	pointing/STIM_010.jpg	100
1940.183	0.76	760.5	pointing	Trial3	pointing/STIM_010.jpg	99
1942.953	0.987	987.0	pointing	Trial3	pointing/STIM_010.jpg	99
1947.367	0.805	805.3	pointing	Trial3	pointing/STIM_011.jpg	100
1950.817	1.032	1031.9	pointing	Trial3	pointing/STIM_011.jpg	99
1954.176	0.976	976.1	pointing	Trial3	pointing/STIM_011.jpg	100
1958.781	0.672	671.6	pointing	Trial3	pointing/STIM_011.jpg	99
1962.505	0.962	962.4	pointing	Trial3	pointing/STIM_011.jpg	100
1965.832	1.147	1146.9	pointing	Trial3	pointing/STIM_011.jpg	99
