onset	duration	accuracy_binary	trial_type	learning_stage	stimulus
0.0	1.787	1	navigation	Trial1	navigation/STIM_000.jpg
5.509	3.307	1	navigation	Trial1	navigation/STIM_000.jpg
11.804	3.364	1	navigation	Trial1	navigation/STIM_000.jpg
17.852	1.588	1	navigation	Trial1	navigation/STIM_000.jpg
22.051	1.703	1	navigation	Trial1	navigation/STIM_000.jpg
26.437	2.161	1	navigation	Trial1	navigation/STIM_000.jpg
30.917	1.873	0	navigation	Trial1	navigation/STIM_001.jpg
36.426	2.752	1	navigation	Trial1	navigation/STIM_001.jpg
42.72	1.504	1	navigation	Trial1	navigation/STIM_001.jpg
47.088	3.314	0	navigation	Trial1	navigation/STIM_001.jpg
52.652	1.761	1	navigation	Trial1	navigation/STIM_001.jpg
58.062	2.997	1	navigation	Trial1	navigation/STIM_001.jpg
63.235	1.678	1	navigation	Trial1	navigation/STIM_002.jpg
67.151	3.365	1	navigation	Trial1	navigation/STIM_002.jpg
73.913	1.858	1	navigation	Trial1	navigation/STIM_002.jpg
78.94	2.573	1	navigation	Trial1	navigation/STIM_002.jpg
85.308	2.812	1	navigation	Trial1	navigation/STIM_002.jpg
91.23	2.616	1	navigation	Trial1	navigation/STIM_002.jpg
96.917	1.786	1	navigation	Trial1	navigation/STIM_003.jpg
101.879	3.132	1	navigation	Trial1	navigation/STIM_003.jpg
107.701	2.159	1	navigation	Trial1	navigation/STIM_003.jpg
113.353	1.761	1	navigation	Trial1	navigation/STIM_003.jpg
117.806	2.22	1	navigation	Trial1	navigation/STIM_003.jpg
123.899	1.898	1	navigation	Trial1	navigation/STIM_003.jpg
129.718	2.792	1	navigation	Trial1	navigation/STIM_004.jpg
135.755	3.667	1	navigation	Trial1	navigation/STIM_004.jpg
142.034	2.739	1	navigation	Trial1	navigation/STIM_004.jpg
148.407	2.016	1	navigation	Trial1	navigation/STIM_004.jpg
153.991	2.099	1	navigation	Trial1	navigation/STIM_004.jpg
158.806	2.499	1	navigation	Trial1	navigation/STIM_004.jpg
165.131	3.084	1	navigation	Trial1	navigation/STIM_005.jpg
171.359	3.388	1	navigation	Trial1	navigation/STIM_005.jpg
178.604	2.526	1	navigation	Trial1	navigation/STIM_005.jpg
183.911	2.319	1	navigation	Trial1	navigation/STIM_005.jpg
190.007	1.45	1	navigation	Trial1	navigation/STIM_005.jpg
193.958	2.403	1	navigation	Trial1	navigation/STIM_005.jpg
199.975	2.214	1	navigation	Trial1	navigation/STIM_006.jpg
205.026	2.149	1	navigation	Trial1	navigation/STIM_006.jpg
210.633	1.465	1	navigation	Trial1	navigation/STIM_006.jpg
215.121	2.435	1	navigation	Trial1	navigation/STIM_006.jpg
220.836	2.612	1	navigation	Trial1	navigation/STIM_006.jpg
225.613	2.552	1	navigation	Trial1	navigation/STIM_006.jpg
231.076	3.907	1	navigation	Trial1	navigation/STIM_007.jpg
237.844	3.43	1	navigation	Trial1	navigation/STIM_007.jpg
243.285	3.378	1	navigation	Trial1	navigation/STIM_007.jpg
250.232	1.643	1	navigation	Trial1	navigation/STIM_007.jpg
253.961	2.143	1	navigation	Trial1	navigation/STIM_007.jpg
258.468	1.843	1	navigation	Trial1	navigation/STIM_007.jpg
262.703	2.426	0	navigation	Trial1	navigation/STIM_008.jpg
267.685	1.848	1	navigation	Trial1	navigation/STIM_008.jpg
272.33	2.525	1	navigation	Trial1	navigation/STIM_008.jpg
278.444	1.936	1	navigation	Trial1	navigation/STIM_008.jpg
284.083	2.785	1	navigation	Trial1	navigation/STIM_008.jpg
289.467	2.558	1	navigation	Trial1	navigation/STIM_008.jpg
295.625	3.657	1	navigation	Trial1	navigation/STIM_009.jpg
302.356	2.621	1	navigation	Trial1	navigation/STIM_009.jpg
306.987	2.704	1	navigation	Trial1	navigation/STIM_009.jpg
312.426	2.166	1	navigation	Trial1	navigation/STIM_009.jpg
317.042	1.765	1	navigation	Trial1	navigation/STIM_009.jpg
321.502	1.288	0	navigation	Trial1	navigation/STIM_009.jpg
325.912	1.616	1	navigation	Trial1	navigation/STIM_010.jpg
329.88	3.279	1	navigation	Trial1	navigation/STIM_010.jpg
335.565	2.329	1	navigation	Trial1	navigation/STIM_010.jpg
341.738	2.472	1	navigation	Trial1	navigation/STIM_010.jpg
347.374	2.055	1	navigation	Trial1	navigation/STIM_010.jpg
352.961	1.392	1	navigation	Trial1	navigation/STIM_010.jpg
357.383	2.225	1	navigation	Trial1	navigation/STIM_011.jpg
362.052	2.61	1	navigation	Trial1	navigation/STIM_011.jpg
368.56	1.822	1	navigation	Trial1	navigation/STIM_011.jpg
372.713	1.419	1	navigation	Trial1	navigation/STIM_011.jpg
377.394	1.387	1	navigation	Trial1	navigation/STIM_011.jpg
382.081	1.666	1	navigation	Trial1	navigation/STIM_011.jpg
386.451	0.916	1	pointing	Trial1	pointing/STIM_000.jpg
390.066	1.019	1	pointing	Trial1	pointing/STIM_000.jpg
393.547	0.891	0	pointing	Trial1	pointing/STIM_000.jpg
397.739	0.934	1	pointing	Trial1	pointing/STIM_000.jpg
402.05	0.697	1	pointing	Trial1	pointing/STIM_000.jpg
405.738	0.802	1	pointing	Trial1	pointing/STIM_000.jpg
409.796	0.647	1	pointing	Trial1	pointing/STIM_001.jpg
413.474	0.787	0	pointing	Trial1	pointing/STIM_001.jpg
417.475	1.108	1	pointing	Trial1	pointing/STIM_001.jpg
421.764	0.823	1	pointing	Trial1	pointing/STIM_001.jpg
424.937	0.788	1	pointing	Trial1	pointing/STIM_001.jpg
427.754	0.997	1	pointing	Trial1	pointing/STIM_001.jpg
432.259	0.97	1	pointing	Trial1	pointing/STIM_002.jpg
435.874	1.03	1	pointing	Trial1	pointing/STIM_002.jpg
438.988	1.106	1	pointing	Trial1	pointing/STIM_002.jpg
442.484	0.967	1	pointing	Trial1	pointing/STIM_002.jpg
445.516	0.863	1	pointing	Trial1	pointing/STIM_002.jpg
450.35	0.659	1	pointing	Trial1	pointing/STIM_002.jpg
454.805	1.158	1	pointing	Trial1	pointing/STIM_003.jpg
459.385	1.054	1	pointing	Trial1	pointing/STIM_003.jpg
462.957	0.739	1	pointing	Trial1	pointing/STIM_003.jpg
467.455	1.146	1	pointing	Trial1	pointing/STIM_003.jpg
472.503	1.192	1	pointing	Trial1	pointing/STIM_003.jpg
476.45	0.844	1	pointing	Trial1	pointing/STIM_003.jpg
480.534	0.882	1	pointing	Trial1	pointing/STIM_004.jpg
485.012	0.92	1	pointing	Trial1	pointing/STIM_004.jpg
487.997	1.032	1	pointing	Trial1	pointing/STIM_004.jpg
492.453	0.938	1	pointing	Trial1	pointing/STIM_004.jpg
496.349	0.789	1	pointing	Trial1	pointing/STIM_004.jpg
499.762	1.022	1	pointing	Trial1	pointing/STIM_004.jpg
503.928	0.994	1	pointing	Trial1	pointing/STIM_005.jpg
507.499	1.067	1	pointing	Trial1	pointing/STIM_005.jpg
511.65	1.166	1	pointing	Trial1	pointing/STIM_005.jpg
516.649	1.069	1	pointing	Trial1	pointing/STIM_005.jpg
521.504	0.931	1	pointing	Trial1	pointing/STIM_005.jpg
525.265	0.924	1	pointing	Trial1	pointing/STIM_005.jpg
528.689	0.957	1	pointing	Trial1	pointing/STIM_006.jpg
532.666	0.802	1	pointing	Trial1	pointing/STIM_006.jpg
536.465	0.673	1	pointing	Trial1	pointing/STIM_006.jpg
539.885	0.662	1	pointing	Trial1	pointing/STIM_006.jpg
543.875	1.035	1	pointing	Trial1	pointing/STIM_006.jpg
547.644	0.92	1	pointing	Trial1	pointing/STIM_006.jpg
551.489	0.69	0	pointing	Trial1	pointing/STIM_007.jpg
556.052	0.832	1	pointing	Trial1	pointing/STIM_007.jpg
559.642	0.908	1	pointing	Trial1	pointing/STIM_007.jpg
563.423	0.905	1	pointing	Trial1	pointing/STIM_007.jpg
567.88	0.742	1	pointing	Trial1	pointing/STIM_007.jpg
570.875	0.953	1	pointing	Trial1	pointing/STIM_007.jpg
574.815	0.947	1	pointing	Trial1	pointing/STIM_008.jpg
577.779	0.684	1	pointing	Trial1	pointing/STIM_008.jpg
580.887	0.667	1	pointing	Trial1	pointing/STIM_008.jpg
585.379	1.202	1	pointing	Trial1	pointing/STIM_008.jpg
590.565	1.171	1	pointing	Trial1	pointing/STIM_008.jpg
594.872	0.716	1	pointing	Trial1	pointing/STIM_008.jpg
598.117	1.044	1	pointing	Trial1	pointing/STIM_009.jpg
601.681	0.787	1	pointing	Trial1	pointing/STIM_009.jpg
604.51	1.137	1	pointing	Trial1	pointing/STIM_009.jpg
607.778	0.957	1	pointing	Trial1	pointing/STIM_009.jpg
611.997	0.693	1	pointing	Trial1	pointing/STIM_009.jpg
615.338	0.657	1	pointing	Trial1	pointing/STIM_009.jpg
619.497	1.093	0	pointing	Trial1	pointing/STIM_010.jpg
624.11	0.779	1	pointing	Trial1	pointing/STIM_010.jpg
627.443	0.846	1	pointing	Trial1	pointing/STIM_010.jpg
631.615	0.78	1	pointing	Trial1	pointing/STIM_010.jpg
635.258	0.815	1	pointing	Trial1	pointing/STIM_010.jpg
638.582	1.108	1	pointing	Trial1	pointing/STIM_010.jpg
642.292	1.046	1	pointing	Trial1	pointing/STIM_011.jpg
645.794	0.782	1	pointing	Trial1	pointing/STIM_011.jpg
650.188	0.668	1	pointing	Trial1	pointing/STIM_011.jpg
654.275	1.107	1	pointing	Trial1	pointing/STIM_011.jpg
659.33	0.68	0	pointing	Trial1	pointing/STIM_011.jpg
663.799	1.078	1	pointing	Trial1	pointing/STIM_011.jpg
668.51	1.578	1	navigation	Trial2	navigation/STIM_000.jpg
672.747	2.426	1	navigation	Trial2	navigation/STIM_000.jpg
678.696	2.157	1	navigation	Trial2	navigation/STIM_000.jpg
684.724	2.064	1	navigation	Trial2	navigation/STIM_000.jpg
690.346	2.386	1	navigation	Trial2	navigation/STIM_000.jpg
696.499	2.15	1	navigation	Trial2	navigation/STIM_000.jpg
702.339	2.049	1	navigation	Trial2	navigation/STIM_001.jpg
708.189	2.608	1	navigation	Trial2	navigation/STIM_001.jpg
713.593	1.981	1	navigation	Trial2	navigation/STIM_001.jpg
717.62	2.562	1	navigation	Trial2	navigation/STIM_001.jpg
723.875	2.764	1	navigation	Trial2	navigation/STIM_001.jpg
729.161	1.653	1	navigation	Trial2	navigation/STIM_001.jpg
733.535	2.25	1	navigation	Trial2	navigation/STIM_002.jpg
739.07	2.172	1	navigation	Trial2	navigation/STIM_002.jpg
743.817	1.541	1	navigation	Trial2	navigation/STIM_002.jpg
748.672	1.913	1	navigation	Trial2	navigation/STIM_002.jpg
753.993	1.742	1	navigation	Trial2	navigation/STIM_002.jpg
759.268	1.73	1	navigation	Trial2	navigation/STIM_002.jpg
764.847	1.97	1	navigation	Trial2	navigation/STIM_003.jpg
770.208	2.568	1	navigation	Trial2	navigation/STIM_003.jpg
774.796	1.79	1	navigation	Trial2	navigation/STIM_003.jpg
779.805	1.631	1	navigation	Trial2	navigation/STIM_003.jpg
783.959	1.986	1	navigation	Trial2	navigation/STIM_003.jpg
787.982	2.418	1	navigation	Trial2	navigation/STIM_003.jpg
794.242	1.866	0	navigation	Trial2	navigation/STIM_004.jpg
798.186	2.425	1	navigation	Trial2	navigation/STIM_004.jpg
803.242	1.577	1	navigation	Trial2	navigation/STIM_004.jpg
807.675	2.386	1	navigation	Trial2	navigation/STIM_004.jpg
812.685	2.205	1	navigation	Trial2	navigation/STIM_004.jpg
818.169	2.171	1	navigation	Trial2	navigation/STIM_004.jpg
823.977	2.202	1	navigation	Trial2	navigation/STIM_005.jpg
830.087	2.656	1	navigation	Trial2	navigation/STIM_005.jpg
835.501	2.49	1	navigation	Trial2	navigation/STIM_005.jpg
840.99	1.615	1	navigation	Trial2	navigation/STIM_005.jpg
846.192	2.573	1	navigation	Trial2	navigation/STIM_005.jpg
851.237	1.939	1	navigation	Trial2	navigation/STIM_005.jpg
857.056	2.152	1	navigation	Trial2	navigation/STIM_006.jpg
862.007	2.532	1	navigation	Trial2	navigation/STIM_006.jpg
867.357	2.087	1	navigation	Trial2	navigation/STIM_006.jpg
873.231	2.652	1	navigation	Trial2	navigation/STIM_006.jpg
878.897	2.488	1	navigation	Trial2	navigation/STIM_006.jpg
884.176	1.307	1	navigation	Trial2	navigation/STIM_006.jpg
889.338	2.346	1	navigation	Trial2	navigation/STIM_007.jpg
893.983	2.742	1	navigation	Trial2	navigation/STIM_007.jpg
898.973	1.52	1	navigation	Trial2	navigation/STIM_007.jpg
903.445	1.909	1	navigation	Trial2	navigation/STIM_007.jpg
909.133	1.225	1	navigation	Trial2	navigation/STIM_007.jpg
914.234	1.864	1	navigation	Trial2	navigation/STIM_007.jpg
918.882	3.417	1	navigation	Trial2	navigation/STIM_008.jpg
924.368	2.37	1	navigation	Trial2	navigation/STIM_008.jpg
929.904	1.417	1	navigation	Trial2	navigation/STIM_008.jpg
933.897	1.203	1	navigation	Trial2	navigation/STIM_008.jpg
938.45	1.604	1	navigation	Trial2	navigation/STIM_008.jpg
943.466	1.532	1	navigation	Trial2	navigation/STIM_008.jpg
948.074	2.678	1	navigation	Trial2	navigation/STIM_009.jpg
953.642	1.947	1	navigation	Trial2	navigation/STIM_009.jpg
958.507	2.662	1	navigation	Trial2	navigation/STIM_009.jpg
964.292	1.639	1	navigation	Trial2	navigation/STIM_009.jpg
969.516	1.595	1	navigation	Trial2	navigation/STIM_009.jpg
973.457	2.44	1	navigation	Trial2	navigation/STIM_009.jpg
978.535	1.81	1	navigation	Trial2	navigation/STIM_010.jpg
983.183	2.241	1	navigation	Trial2	navigation/STIM_010.jpg
988.297	2.817	1	navigation	Trial2	navigation/STIM_010.jpg
993.598	2.008	1	navigation	Trial2	navigation/STIM_010.jpg
998.934	2.407	1	navigation	Trial2	navigation/STIM_010.jpg
1004.337	2.019	1	navigation	Trial2	navigation/STIM_010.jpg
1009.489	2.306	1	navigation	Trial2	navigation/STIM_011.jpg
1014.037	2.289	1	navigation	Trial2	navigation/STIM_011.jpg
1019.405	2.855	1	navigation	Trial2	navigation/STIM_011.jpg
1025.275	1.886	1	navigation	Trial2	navigation/STIM_011.jpg
1029.52	1.815	1	navigation	Trial2	navigation/STIM_011.jpg
1034.988	2.45	1	navigation	Trial2	navigation/STIM_011.jpg
1039.906	0.728	1	pointing	Trial2	pointing/STIM_000.jpg
1044.489	0.762	1	pointing	Trial2	pointing/STIM_000.jpg
1047.794	0.907	1	pointing	Trial2	pointing/STIM_000.jpg
1051.949	1.071	1	pointing	Trial2	pointing/STIM_000.jpg
1055.538	1.06	1	pointing	Trial2	pointing/STIM_000.jpg
1059.355	1.121	1	pointing	Trial2	pointing/STIM_000.jpg
1063.822	0.719	1	pointing	Trial2	pointing/STIM_001.jpg
1066.594	0.881	1	pointing	Trial2	pointing/STIM_001.jpg
1071.099	0.928	1	pointing	Trial2	pointing/STIM_001.jpg
1076.002	0.69	1	pointing	Trial2	pointing/STIM_001.jpg
1080.673	1.12	1	pointing	Trial2	pointing/STIM_001.jpg
1083.924	0.989	1	pointing	Trial2	pointing/STIM_001.jpg
1088.892	0.825	1	pointing	Trial2	pointing/STIM_002.jpg
1093.298	0.758	1	pointing	Trial2	pointing/STIM_002.jpg
1097.367	1.086	0	pointing	Trial2	pointing/STIM_002.jpg
1100.983	0.795	1	pointing	Trial2	pointing/STIM_002.jpg
1105.291	0.77	1	pointing	Trial2	pointing/STIM_002.jpg
1109.354	1.057	1	pointing	Trial2	pointing/STIM_002.jpg
1113.514	1.183	1	pointing	Trial2	pointing/STIM_003.jpg
1117.158	0.82	1	pointing	Trial2	pointing/STIM_003.jpg
1121.583	0.909	1	pointing	Trial2	pointing/STIM_003.jpg
1126.209	0.779	1	pointing	Trial2	pointing/STIM_003.jpg
1129.631	0.947	1	pointing	Trial2	pointing/STIM_003.jpg
1133.068	1.164	1	pointing	Trial2	pointing/STIM_003.jpg
1137.724	0.733	1	pointing	Trial2	pointing/STIM_004.jpg
1140.548	0.684	1	pointing	Trial2	pointing/STIM_004.jpg
1144.859	0.876	1	pointing	Trial2	pointing/STIM_004.jpg
1149.533	1.079	1	pointing	Trial2	pointing/STIM_004.jpg
1153.053	0.793	1	pointing	Trial2	pointing/STIM_004.jpg
1156.185	1.085	1	pointing	Trial2	pointing/STIM_004.jpg
1160.834	1.157	1	pointing	Trial2	pointing/STIM_005.jpg
1165.107	0.98	1	pointing	Trial2	pointing/STIM_005.jpg
1169.927	1.086	1	pointing	Trial2	pointing/STIM_005.jpg
1173.016	1.024	1	pointing	Trial2	pointing/STIM_005.jpg
1177.565	1.156	1	pointing	Trial2	pointing/STIM_005.jpg
1182.533	0.684	1	pointing	Trial2	pointing/STIM_005.jpg
1187.151	0.825	1	pointing	Trial2	pointing/STIM_006.jpg
1191.364	0.736	1	pointing	Trial2	pointing/STIM_006.jpg
1195.236	0.968	1	pointing	Trial2	pointing/STIM_006.jpg
1198.574	0.958	1	pointing	Trial2	pointing/STIM_006.jpg
1201.726	1.019	1	pointing	Trial2	pointing/STIM_006.jpg
1206.077	0.968	1	pointing	Trial2	pointing/STIM_006.jpg
1210.734	0.858	1	pointing	Trial2	pointing/STIM_007.jpg
1214.928	1.031	1	pointing	Trial2	pointing/STIM_007.jpg
1219.03	0.812	1	pointing	Trial2	pointing/STIM_007.jpg
1223.765	1.117	1	pointing	Trial2	pointing/STIM_007.jpg
1228.722	0.828	1	pointing	Trial2	pointing/STIM_007.jpg
1232.705	1.103	1	pointing	Trial2	pointing/STIM_007.jpg
1237.261	0.964	1	pointing	Trial2	pointing/STIM_008.jpg
1240.743	0.79	1	pointing	Trial2	pointing/STIM_008.jpg
1243.586	0.663	1	pointing	Trial2	pointing/STIM_008.jpg
1246.539	0.996	1	pointing	Trial2	pointing/STIM_008.jpg
1250.039	0.856	1	pointing	Trial2	pointing/STIM_008.jpg
1253.408	1.155	1	pointing	Trial2	pointing/STIM_008.jpg
1256.932	0.774	1	pointing	Trial2	pointing/STIM_009.jpg
1260.74	1.083	1	pointing	Trial2	pointing/STIM_009.jpg
1265.151	1.101	1	pointing	Trial2	pointing/STIM_009.jpg
1269.898	0.734	1	pointing	Trial2	pointing/STIM_009.jpg
1273.962	0.996	1	pointing	Trial2	pointing/STIM_009.jpg
1277.71	0.672	1	pointing	Trial2	pointing/STIM_009.jpg
1282.032	0.898	1	pointing	Trial2	pointing/STIM_010.jpg
1286.048	0.762	1	pointing	Trial2	pointing/STIM_010.jpg
1290.02	0.764	1	pointing	Trial2	pointing/STIM_010.jpg
1294.63	0.734	1	pointing	Trial2	pointing/STIM_010.jpg
1298.105	1.018	1	pointing	Trial2	pointing/STIM_010.jpg
1301.152	1.165	1	pointing	Trial2	pointing/STIM_010.jpg
1304.465	0.704	1	pointing	Trial2	pointing/STIM_011.jpg
1308.647	1.085	1	pointing	Trial2	pointing/STIM_011.jpg
1311.971	0.674	1	pointing	Trial2	pointing/STIM_011.jpg
1314.736	0.874	1	pointing	Trial2	pointing/STIM_011.jpg
1319.492	0.937	1	pointing	Trial2	pointing/STIM_011.jpg
1323.567	1.036	1	pointing	Trial2	pointing/STIM_011.jpg
1327.667	2.781	1	navigation	Trial3	navigation/STIM_000.jpg
1332.754	2.428	1	navigation	Trial3	navigation/STIM_000.jpg
1337.901	2.753	1	navigation	Trial3	navigation/STIM_000.jpg
1343.029	1.659	1	navigation	Trial3	navigation/STIM_000.jpg
1348.489	1.94	1	navigation	Trial3	navigation/STIM_000.jpg
1353.154	2.559	1	navigation	Trial3	navigation/STIM_000.jpg
1359.0	1.675	1	navigation	Trial3	navigation/STIM_001.jpg
1362.918	1.81	1	navigation	Trial3	navigation/STIM_001.jpg
1367.168	1.707	1	navigation	Trial3	navigation/STIM_001.jpg
1372.29	2.702	1	navigation	Trial3	navigation/STIM_001.jpg
1377.954	1.198	1	navigation	Trial3	navigation/STIM_001.jpg
1382.514	2.675	1	navigation	Trial3	navigation/STIM_001.jpg
1389.171	1.136	1	navigation	Trial3	navigation/STIM_002.jpg
1392.708	1.214	1	navigation	Trial3	navigation/STIM_002.jpg
1397.257	2.816	1	navigation	Trial3	navigation/STIM_002.jpg
1403.151	2.347	0	navigation	Trial3	navigation/STIM_002.jpg
1408.664	2.002	1	navigation	Trial3	navigation/STIM_002.jpg
1414.543	1.433	1	navigation	Trial3	navigation/STIM_002.jpg
1418.647	1.513	1	navigation	Trial3	navigation/STIM_003.jpg
1423.125	1.433	1	navigation	Trial3	navigation/STIM_003.jpg
1427.887	1.921	1	navigation	Trial3	navigation/STIM_003.jpg
1432.093	2.739	1	navigation	Trial3	navigation/STIM_003.jpg
1438.744	1.337	1	navigation	Trial3	navigation/STIM_003.jpg
1443.277	1.828	1	navigation	Trial3	navigation/STIM_003.jpg
1447.669	2.134	1	navigation	Trial3	navigation/STIM_004.jpg
1452.06	2.659	1	navigation	Trial3	navigation/STIM_004.jpg
1456.801	1.284	1	navigation	Trial3	navigation/STIM_004.jpg
1461.592	2.163	1	navigation	Trial3	navigation/STIM_004.jpg
1466.549	2.253	1	navigation	Trial3	navigation/STIM_004.jpg
1471.727	2.725	1	navigation	Trial3	navigation/STIM_004.jpg
1477.634	2.621	1	navigation	Trial3	navigation/STIM_005.jpg
1484.071	1.959	1	navigation	Trial3	navigation/STIM_005.jpg
1489.693	2.032	1	navigation	Trial3	navigation/STIM_005.jpg
1493.736	1.498	1	navigation	Trial3	navigation/STIM_005.jpg
1498.262	2.063	1	navigation	Trial3	navigation/STIM_005.jpg
1502.836	1.834	0	navigation	Trial3	navigation/STIM_005.jpg
1508.25	2.516	1	navigation	Trial3	navigation/STIM_006.jpg
1513.899	2.108	1	navigation	Trial3	navigation/STIM_006.jpg
1518.471	1.238	1	navigation	Trial3	navigation/STIM_006.jpg
1523.307	1.545	1	navigation	Trial3	navigation/STIM_006.jpg
1528.595	2.502	1	navigation	Trial3	navigation/STIM_006.jpg
1534.45	2.206	1	navigation	Trial3	navigation/STIM_006.jpg
1540.247	2.25	1	navigation	Trial3	navigation/STIM_007.jpg
1546.081	2.204	1	navigation	Trial3	navigation/STIM_007.jpg
1550.667	1.824	1	navigation	Trial3	navigation/STIM_007.jpg
1555.777	2.475	1	navigation	Trial3	navigation/STIM_007.jpg
1561.467	1.464	1	navigation	Trial3	navigation/STIM_007.jpg
1565.993	1.601	1	navigation	Trial3	navigation/STIM_007.jpg
1570.547	2.252	1	navigation	Trial3	navigation/STIM_008.jpg
1575.338	1.563	1	navigation	Trial3	navigation/STIM_008.jpg
1579.727	2.315	1	navigation	Trial3	navigation/STIM_008.jpg
1584.621	2.023	1	navigation	Trial3	navigation/STIM_008.jpg
1589.407	2.32	1	navigation	Trial3	navigation/STIM_008.jpg
1594.981	2.21	1	navigation	Trial3	navigation/STIM_008.jpg
1600.013	2.026	1	navigation	Trial3	navigation/STIM_009.jpg
1604.811	2.147	1	navigation	Trial3	navigation/STIM_009.jpg
1610.499	2.667	1	navigation	Trial3	navigation/STIM_009.jpg
1616.303	2.063	1	navigation	Trial3	navigation/STIM_009.jpg
1622.265	1.668	1	navigation	Trial3	navigation/STIM_009.jpg
1627.845	1.674	1	navigation	Trial3	navigation/STIM_009.jpg
1632.895	1.503	1	navigation	Trial3	navigation/STIM_010.jpg
1637.32	2.015	1	navigation	Trial3	navigation/STIM_010.jpg
1643.045	2.818	1	navigation	Trial3	navigation/STIM_010.jpg
1648.609	1.488	1	navigation	Trial3	navigation/STIM_010.jpg
1653.002	2.03	1	navigation	Trial3	navigation/STIM_010.jpg
1658.036	1.854	1	navigation	Trial3	navigation/STIM_010.jpg
1663.017	2.797	1	navigation	Trial3	navigation/STIM_011.jpg
1669.15	1.943	1	navigation	Trial3	navigation/STIM_011.jpg
1674.262	1.989	1	navigation	Trial3	navigation/STIM_011.jpg
1679.942	2.656	1	navigation	Trial3	navigation/STIM_011.jpg
1685.726	2.015	1	navigation	Trial3	navigation/STIM_011.jpg
1691.138	1.672	1	navigation	Trial3	navigation/STIM_011.jpg
1695.187	1.185	1	pointing	Trial3	pointing/STIM_000.jpg
1699.328	0.691	1	pointing	Trial3	pointing/STIM_000.jpg
1702.782	0.816	1	pointing	Trial3	pointing/STIM_000.jpg
1705.726	1.086	1	pointing	Trial3	pointing/STIM_000.jpg
1710.731	0.73	1	pointing	Trial3	pointing/STIM_000.jpg
1713.471	0.983	1	pointing	Trial3	pointing/STIM_000.jpg
1717.442	1.046	1	pointing	Trial3	pointing/STIM_001.jpg
1720.542	1.107	1	pointing	Trial3	pointing/STIM_001.jpg
1724.868	0.927	1	pointing	Trial3	pointing/STIM_001.jpg
1728.225	0.674	1	pointing	Trial3	pointing/STIM_001.jpg
1731.284	0.704	1	pointing	Trial3	pointing/STIM_001.jpg
1735.078	1.044	1	pointing	Trial3	pointing/STIM_001.jpg
1739.99	1.037	1	pointing	Trial3	pointing/STIM_002.jpg
1743.504	0.696	1	pointing	Trial3	pointing/STIM_002.jpg
1746.563	0.967	1	pointing	Trial3	pointing/STIM_002.jpg
1751.099	0.935	1	pointing	Trial3	pointing/STIM_002.jpg
1754.139	0.975	1	pointing	Trial3	pointing/STIM_002.jpg
1757.57	0.83	1	pointing	Trial3	pointing/STIM_002.jpg
1761.729	0.772	1	pointing	Trial3	pointing/STIM_003.jpg
1765.838	1.115	1	pointing	Trial3	pointing/STIM_003.jpg
1769.004	0.753	1	pointing	Trial3	pointing/STIM_003.jpg
1772.917	0.762	1	pointing	Trial3	pointing/STIM_003.jpg
1777.447	0.906	1	pointing	Trial3	pointing/STIM_003.jpg
1781.123	0.767	1	pointing	Trial3	pointing/STIM_003.jpg
1785.351	1.16	1	pointing	Trial3	pointing/STIM_004.jpg
1790.244	0.67	1	pointing	Trial3	pointing/STIM_004.jpg
1794.803	1.172	1	pointing	Trial3	pointing/STIM_004.jpg
1798.218	0.984	1	pointing	Trial3	pointing/STIM_004.jpg
1801.614	0.811	1	pointing	Trial3	pointing/STIM_004.jpg
1805.11	0.922	1	pointing	Trial3	pointing/STIM_004.jpg
1808.871	0.96	1	pointing	Trial3	pointing/STIM_005.jpg
1812.538	0.714	1	pointing	Trial3	pointing/STIM_005.jpg
1816.282	0.745	1	pointing	Trial3	pointing/STIM_005.jpg
1820.129	0.757	1	pointing	Trial3	pointing/STIM_005.jpg
1823.957	1.033	1	pointing	Trial3	pointing/STIM_005.jpg
1828.395	1.155	1	pointing	Trial3	pointing/STIM_005.jpg
1832.696	1.024	1	pointing	Trial3	pointing/STIM_006.jpg
1837.287	0.878	1	pointing	Trial3	pointing/STIM_006.jpg
1841.236	0.974	1	pointing	Trial3	pointing/STIM_006.jpg
1845.51	0.732	1	pointing	Trial3	pointing/STIM_006.jpg
1848.327	0.652	1	pointing	Trial3	pointing/STIM_006.jpg
1852.762	0.667	1	pointing	Trial3	pointing/STIM_006.jpg
1855.57	0.716	1	pointing	Trial3	pointing/STIM_007.jpg
1860.135	0.843	1	pointing	Trial3	pointing/STIM_007.jpg
1864.006	1.181	1	pointing	Trial3	pointing/STIM_007.jpg
1868.355	0.962	1	pointing	Trial3	pointing/STIM_007.jpg
1872.694	0.771	1	pointing	Trial3	pointing/STIM_007.jpg
1876.903	0.741	1	pointing	Trial3	pointing/STIM_007.jpg
1880.757	0.903	1	pointing	Trial3	pointing/STIM_008.jpg
1885.518	0.76	1	pointing	Trial3	pointing/STIM_008.jpg
1889.807	0.902	1	pointing	Trial3	pointing/STIM_008.jpg
1894.372	0.691	1	pointing	Trial3	pointing/STIM_008.jpg
1897.232	1.06	1	pointing	Trial3	pointing/STIM_008.jpg
1900.56	0.904	1	pointing	Trial3	pointing/STIM_008.jpg
1903.961	1.108	1	pointing	Trial3	pointing/STIM_009.jpg
1907.386	1.014	1	pointing	Trial3	pointing/STIM_009.jpg
1911.202	0.671	1	pointing	Trial3	pointing/STIM_009.jpg
1914.18	1.153	1	pointing	Trial3	pointing/STIM_009.jpg
1918.442	1.205	1	pointing	Trial3	pointing/STIM_009.jpg
1922.288	0.665	1	pointing	Trial3	pointing/STIM_009.jpg
1925.936	0.976	1	pointing	Trial3	pointing/STIM_010.jpg
1929.004	0.878	1	pointing	Trial3	pointing/STIM_010.jpg
1932.451	1.163	1	pointing	Trial3	pointing/STIM_010.jpg
1936.614	1.095	1	pointing	Trial3	pointing/STIM_010.jpg
1940.183	0.76	1	pointing	Trial3	pointing/STIM_010.jpg
1942.953	0.987	1	pointing	Trial3	pointing/STIM_010.jpg
1947.367	0.805	1	pointing	Trial3	pointing/STIM_011.jpg
1950.817	1.032	1	pointing	Trial3	pointing/STIM_011.jpg
1954.176	0.976	1	pointing	Trial3	pointing/STIM_011.jpg
1958.781	0.672	1	pointing	Trial3	pointing/STIM_011.jpg
1962.505	0.962	1	pointing	Trial3	pointing/STIM_011.jpg
1965.832	1.147	1	pointing	Trial3	pointing/STIM_011.jpg
