onset	duration	response_time_ms	trial_type	learning_stage	stimulus	response_port
0.0	2.858	2858.1	navigation	Trial1	navigation/STIM_000.jpg	100
4.872	3.226	3226.1	navigation	Trial1	navigation/STIM_000.jpg	99
10.47	2.788	2787.6	navigation	Trial1	navigation/STIM_000.jpg	99
15.43	3.674	3674.0	navigation	Trial1	navigation/STIM_000.jpg	100
22.875	2.517	2516.6	navigation	Trial1	navigation/STIM_000.jpg	100
28.748	2.051	2051.0	navigation	Trial1	navigation/STIM_000.jpg	100
34.368	4.256	4256.0	navigation	Trial1	navigation/STIM_001.jpg	100
41.727	3.137	3137.2	navigation	Trial1	navigation/STIM_001.jpg	99
47.785	3.033	3033.2	navigation	Trial1	navigation/STIM_001.jpg	100
53.08	2.363	2362.8	navigation	Trial1	navigation/STIM_001.jpg	99
58.599	2.035	2035.3	navigation	Trial1	navigation/STIM_001.jpg	99
63.886	1.764	1764.3	navigation	Trial1	navigation/STIM_001.jpg	100
69.321	2.989	2988.6	navigation	Trial1	navigation/STIM_002.jpg	100
75.567	2.355	2355.0	navigation	Trial1	navigation/STIM_002.jpg	99
80.446	4.0	4000.4	navigation	Trial1	navigation/STIM_002.jpg	100
87.217	2.857	2857.3	navigation	Trial1	navigation/STIM_002.jpg	100
93.872	2.757	2757.3	navigation	Trial1	navigation/STIM_002.jpg	100
99.041	1.595	1594.8	navigation	Trial1	navigation/STIM_002.jpg	100
103.324	3.143	3143.3	navigation	Trial1	navigation/STIM_003.jpg	100
109.559	2.166	2166.3	navigation	Trial1	navigation/STIM_003.jpg	99
114.646	1.796	1795.7	navigation	Trial1	navigation/STIM_003.jpg	99
119.839	2.326	2326.4	navigation	Trial1	navigation/STIM_003.jpg	100
124.397	1.665	1664.7	navigation	Trial1	navigation/STIM_003.jpg	100
129.863	3.166	3166.3	navigation	Trial1	navigation/STIM_003.jpg	100
136.016	3.45	3450.5	navigation	Trial1	navigation/STIM_004.jpg	99
141.473	3.757	3757.1	navigation	Trial1	navigation/STIM_004.jpg	100
148.209	3.515	3515.0	navigation	Trial1	navigation/STIM_004.jpg	100
154.223	2.096	2095.9	navigation	Trial1	navigation/STIM_004.jpg	100
160.003	2.699	2699.4	navigation	Trial1	navigation/STIM_004.jpg	99
164.897	3.31	3309.6	navigation	Trial1	navigation/STIM_004.jpg	99
172.142	4.496	4495.5	navigation	Trial1	navigation/STIM_005.jpg	100
178.834	4.032	4031.5	navigation	Trial1	navigation/STIM_005.jpg	100
185.314	3.164	3163.6	navigation	Trial1	navigation/STIM_005.jpg	99
190.945	2.725	2724.9	navigation	Trial1	navigation/STIM_005.jpg	99
195.841	3.551	3550.6	navigation	Trial1	navigation/STIM_005.jpg	100
202.229	3.338	3337.9	navigation	Trial1	navigation/STIM_005.jpg	100
209.12	4.416	4416.4	navigation	Trial1	navigation/STIM_006.jpg	100
216.362	1.789	1788.7	navigation	Trial1	navigation/STIM_006.jpg	100
221.849	4.016	4016.4	navigation	Trial1	navigation/STIM_006.jpg	99
228.157	3.469	3468.6	navigation	Trial1	navigation/STIM_006.jpg	99
235.212	3.311	3310.7	navigation	Trial1	navigation/STIM_006.jpg	100
242.217	2.637	2636.6	navigation	Trial1	navigation/STIM_006.jpg	99
248.209	1.854	1853.6	navigation	Trial1	navigation/STIM_007.jpg	100
253.235	1.822	1821.6	navigation	Trial1	navigation/STIM_007.jpg	99
258.236	3.365	3365.3	navigation	Trial1	navigation/STIM_007.jpg	100
264.815	3.332	3331.8	navigation	Trial1	navigation/STIM_007.jpg	100
271.009	3.018	3018.0	navigation	Trial1	navigation/STIM_007.jpg	99
277.347	2.075	2075.4	navigation	Trial1	navigation/STIM_007.jpg	100
282.998	3.106	3106.2	navigation	Trial1	navigation/STIM_008.jpg	100
288.813	2.508	2508.3	navigation	Trial1	navigation/STIM_008.jpg	99
294.315	3.626	3626.3	navigation	Trial1	navigation/STIM_008.jpg	99
301.237	2.841	2841.1	navigation	Trial1	navigation/STIM_008.jpg	99
307.383	2.654	2654.1	navigation	Trial1	navigation/STIM_008.jpg	99
313.666	1.65	1650.0	navigation	Trial1	navigation/STIM_008.jpg	99
317.74	2.013	2012.5	navigation	Trial1	navigation/STIM_009.jpg	100
323.418	2.223	2222.9	navigation	Trial1	navigation/STIM_009.jpg	100
329.481	3.741	3741.1	navigation	Trial1	navigation/STIM_009.jpg	99
335.886	2.933	2933.0	navigation	Trial1	navigation/STIM_009.jpg	99
342.555	2.056	2056.4	navigation	Trial1	navigation/STIM_009.jpg	99
347.54	1.691	1691.3	navigation	Trial1	navigation/STIM_009.jpg	100
352.348	3.124	3123.5	navigation	Trial1	navigation/STIM_010.jpg	99
358.153	3.513	3513.4	navigation	Trial1	navigation/STIM_010.jpg	100
365.333	1.968	1967.6	navigation	Trial1	navigation/STIM_010.jpg	100
369.706	1.578	1578.5	navigation	Trial1	navigation/STIM_010.jpg	100
375.204	2.628	2627.5	navigation	Trial1	navigation/STIM_010.jpg	99
381.461	2.196	2196.5	navigation	Trial1	navigation/STIM_010.jpg	99
385.725	3.044	3043.9	navigation	Trial1	navigation/STIM_011.jpg	100
391.897	2.495	2495.2	navigation	Trial1	navigation/STIM_011.jpg	100
397.894	1.771	1771.0	navigation	Trial1	navigation/STIM_011.jpg	99
402.739	1.885	1884.6	navigation	Trial1	navigation/STIM_011.jpg	100
408.115	2.728	2727.6	navigation	Trial1	navigation/STIM_011.jpg	99
413.339	2.322	2322.3	navigation	Trial1	navigation/STIM_011.jpg	100
418.007	0.978	977.5	pointing	Trial1	pointing/STIM_000.jpg	100
422.25	0.914	914.0	pointing	Trial1	pointing/STIM_000.jpg	99
426.924	0.782	782.4	pointing	Trial1	pointing/STIM_000.jpg	99
430.455	0.886	886.5	pointing	Trial1	pointing/STIM_000.jpg	100
434.372	0.92	919.5	pointing	Trial1	pointing/STIM_000.jpg	100
439.132	1.077	1076.9	pointing	Trial1	pointing/STIM_000.jpg	99
443.949	1.33	1329.8	pointing	Trial1	pointing/STIM_001.jpg	99
447.975	0.941	941.1	pointing	Trial1	pointing/STIM_001.jpg	99
452.497	1.008	1008.3	pointing	Trial1	pointing/STIM_001.jpg	99
456.869	1.338	1337.7	pointing	Trial1	pointing/STIM_001.jpg	100
462.133	0.817	816.7	pointing	Trial1	pointing/STIM_001.jpg	99
466.22	0.937	936.8	pointing	Trial1	pointing/STIM_001.jpg	99
469.635	1.167	1167.0	pointing	Trial1	pointing/STIM_002.jpg	100
472.828	1.228	1227.6	pointing	Trial1	pointing/STIM_002.jpg	100
476.268	1.05	1049.7	pointing	Trial1	pointing/STIM_002.jpg	100
480.011	0.976	975.7	pointing	Trial1	pointing/STIM_002.jpg	99
483.709	0.923	922.7	pointing	Trial1	pointing/STIM_002.jpg	99
487.915	0.804	803.7	pointing	Trial1	pointing/STIM_002.jpg	100
492.04	1.274	1273.5	pointing	Trial1	pointing/STIM_003.jpg	100
495.455	1.343	1343.0	pointing	Trial1	pointing/STIM_003.jpg	99
500.697	0.819	818.6	pointing	Trial1	pointing/STIM_003.jpg	99
505.146	1.295	1294.7	pointing	Trial1	pointing/STIM_003.jpg	100
508.55	1.324	1324.2	pointing	Trial1	pointing/STIM_003.jpg	99
512.108	0.809	809.0	pointing	Trial1	pointing/STIM_003.jpg	100
515.311	0.889	888.8	pointing	Trial1	pointing/STIM_004.jpg	99
519.993	1.246	1245.7	pointing	Trial1	pointing/STIM_004.jpg	99
524.027	1.348	1347.9	pointing	Trial1	pointing/STIM_004.jpg	99
527.394	1.053	1053.3	pointing	Trial1	pointing/STIM_004.jpg	100
530.819	1.162	1161.6	pointing	Trial1	pointing/STIM_004.jpg	99
534.405	1.01	1009.6	pointing	Trial1	pointing/STIM_004.jpg	99
538.749	0.775	774.7	pointing	Trial1	pointing/STIM_005.jpg	100
542.974	1.343	1343.3	pointing	Trial1	pointing/STIM_005.jpg	100
548.068	1.29	1289.5	pointing	Trial1	pointing/STIM_005.jpg	100
552.237	0.867	866.8	pointing	Trial1	pointing/STIM_005.jpg	99
556.72	1.034	1033.6	pointing	Trial1	pointing/STIM_005.jpg	99
560.043	0.734	734.0	pointing	Trial1	pointing/STIM_005.jpg	99
563.333	1.076	1075.5	pointing	Trial1	pointing/STIM_006.jpg	100
568.186	1.136	1135.6	pointing	Trial1	pointing/STIM_006.jpg	99
571.904	1.112	1112.3	pointing	Trial1	pointing/STIM_006.jpg	99
576.734	1.093	1092.9	pointing	Trial1	pointing/STIM_006.jpg	99
580.833	1.085	1084.9	pointing	Trial1	pointing/STIM_006.jpg	100
584.532	0.987	986.8	pointing	Trial1	pointing/STIM_006.jpg	99
589.317	0.822	821.8	pointing	Trial1	pointing/STIM_007.jpg	99
592.38	1.056	1056.4	pointing	Trial1	pointing/STIM_007.jpg	99
596.704	1.115	1114.7	pointing	Trial1	pointing/STIM_007.jpg	99
600.215	0.901	900.8	pointing	Trial1	pointing/STIM_007.jpg	99
604.173	1.193	1192.8	pointing	Trial1	pointing/STIM_007.jpg	99
608.994	1.069	1068.9	pointing	Trial1	pointing/STIM_007.jpg	99
612.358	1.061	1060.7	pointing	Trial1	pointing/STIM_008.jpg	99
616.245	1.293	1293.3	pointing	Trial1	pointing/STIM_008.jpg	99
619.834	1.257	1256.7	pointing	Trial1	pointing/STIM_008.jpg	100
623.571	1.128	1128.1	pointing	Trial1	pointing/STIM_008.jpg	99
627.922	1.344	1344.5	pointing	Trial1	pointing/STIM_008.jpg	99
633.183	0.951	951.4	pointing	Trial1	pointing/STIM_008.jpg	100
637.034	1.003	1003.1	pointing	Trial1	pointing/STIM_009.jpg	100
640.204	1.171	1171.4	pointing	Trial1	pointing/STIM_009.jpg	100
643.74	1.287	1286.6	pointing	Trial1	pointing/STIM_009.jpg	100
647.621	0.978	978.2	pointing	Trial1	pointing/STIM_009.jpg	99
651.839	0.742	741.8	pointing	Trial1	pointing/STIM_009.jpg	100
656.101	0.924	924.0	pointing	Trial1	pointing/STIM_009.jpg	99
660.871	0.783	783.2	pointing	Trial1	pointing/STIM_010.jpg	100
664.014	1.06	1059.7	pointing	Trial1	pointing/STIM_010.jpg	99
667.434	0.96	960.5	pointing	Trial1	pointing/STIM_010.jpg	100
670.95	0.844	844.5	pointing	Trial1	pointing/STIM_010.jpg	100
673.802	1.224	1223.9	pointing	Trial1	pointing/STIM_010.jpg	100
677.247	1.284	1284.4	pointing	Trial1	pointing/STIM_010.jpg	99
680.721	1.148	1147.5	pointing	Trial1	pointing/STIM_011.jpg	99
684.473	1.274	1273.5	pointing	Trial1	pointing/STIM_011.jpg	100
689.661	1.309	1308.9	pointing	Trial1	pointing/STIM_011.jpg	100
693.182	1.274	1273.9	pointing	Trial1	pointing/STIM_011.jpg	100
698.051	1.076	1076.5	pointing	Trial1	pointing/STIM_011.jpg	100
702.122	0.964	964.2	pointing	Trial1	pointing/STIM_011.jpg	99
705.863	1.945	1944.7	navigation	Trial2	navigation/STIM_000.jpg	99
710.95	3.186	3186.0	navigation	Trial2	navigation/STIM_000.jpg	99
717.839	2.956	2955.8	navigation	Trial2	navigation/STIM_000.jpg	100
723.812	2.362	2362.3	navigation	Trial2	navigation/STIM_000.jpg	100
729.059	2.576	2576.5	navigation	Trial2	navigation/STIM_000.jpg	99
733.966	2.895	2894.8	navigation	Trial2	navigation/STIM_000.jpg	100
740.392	2.164	2163.9	navigation	Trial2	navigation/STIM_001.jpg	100
744.868	1.859	1858.6	navigation	Trial2	navigation/STIM_001.jpg	99
749.155	2.878	2878.2	navigation	Trial2	navigation/STIM_001.jpg	100
755.0	1.57	1570.2	navigation	Trial2	navigation/STIM_001.jpg	100
759.694	1.905	1904.8	navigation	Trial2	navigation/STIM_001.jpg	99
763.949	2.275	2274.8	navigation	Trial2	navigation/STIM_001.jpg	99
769.745	2.57	2569.6	navigation	Trial2	navigation/STIM_002.jpg	100
775.999	2.396	2395.5	navigation	Trial2	navigation/STIM_002.jpg	100
781.385	1.484	1484.1	navigation	Trial2	navigation/STIM_002.jpg	99
785.044	2.652	2652.4	navigation	Trial2	navigation/STIM_002.jpg	100
790.251	2.054	2053.8	navigation	Trial2	navigation/STIM_002.jpg	99
795.622	1.919	1918.6	navigation	Trial2	navigation/STIM_002.jpg	99
799.852	2.671	2671.3	navigation	Trial2	navigation/STIM_003.jpg	100
806.39	3.124	3123.9	navigation	Trial2	navigation/STIM_003.jpg	100
812.774	1.938	1938.1	navigation	Trial2	navigation/STIM_003.jpg	99
817.537	2.269	2269.3	navigation	Trial2	navigation/STIM_003.jpg	99
823.037	1.765	1765.0	navigation	Trial2	navigation/STIM_003.jpg	99
828.095	2.417	2417.4	navigation	Trial2	navigation/STIM_003.jpg	99
833.256	3.058	3057.9	navigation	Trial2	navigation/STIM_004.jpg	99
838.826	1.872	1872.3	navigation	Trial2	navigation/STIM_004.jpg	99
843.734	2.686	2685.6	navigation	Trial2	navigation/STIM_004.jpg	100
848.45	1.414	1413.7	navigation	Trial2	navigation/STIM_004.jpg	100
853.306	3.152	3152.4	navigation	Trial2	navigation/STIM_004.jpg	99
858.532	1.396	1396.2	navigation	Trial2	navigation/STIM_004.jpg	99
863.071	3.502	3501.6	navigation	Trial2	navigation/STIM_005.jpg	99
868.716	1.506	1506.1	navigation	Trial2	navigation/STIM_005.jpg	99
872.407	2.731	2730.9	navigation	Trial2	navigation/STIM_005.jpg	100
878.645	2.57	2570.1	navigation	Trial2	navigation/STIM_005.jpg	99
884.088	1.821	1821.0	navigation	Trial2	navigation/STIM_005.jpg	99
887.912	3.159	3158.8	navigation	Trial2	navigation/STIM_005.jpg	99
894.504	1.998	1998.5	navigation	Trial2	navigation/STIM_006.jpg	99
898.767	2.119	2118.7	navigation	Trial2	navigation/STIM_006.jpg	99
904.605	2.132	2132.2	navigation	Trial2	navigation/STIM_006.jpg	99
908.998	2.798	2798.4	navigation	Trial2	navigation/STIM_006.jpg	99
915.756	2.058	2058.4	navigation	Trial2	navigation/STIM_006.jpg	99
921.148	3.165	3165.3	navigation	Trial2	navigation/STIM_006.jpg	99
928.05	3.497	3496.8	navigation	Trial2	navigation/STIM_007.jpg	99
933.55	2.194	2193.6	navigation	Trial2	navigation/STIM_007.jpg	100
939.019	1.848	1847.8	navigation	Trial2	navigation/STIM_007.jpg	100
944.178	2.572	2572.3	navigation	Trial2	navigation/STIM_007.jpg	99
949.896	1.297	1296.7	navigation	Trial2	navigation/STIM_007.jpg	99
953.795	2.944	2943.9	navigation	Trial2	navigation/STIM_007.jpg	99
959.068	2.533	2533.1	navigation	Trial2	navigation/STIM_008.jpg	100
963.62	2.416	2416.5	navigation	Trial2	navigation/STIM_008.jpg	100
968.913	2.042	2041.6	navigation	Trial2	navigation/STIM_008.jpg	100
974.245	2.088	2088.2	navigation	Trial2	navigation/STIM_008.jpg	99
980.093	2.843	2842.7	navigation	Trial2	navigation/STIM_008.jpg	100
984.95	1.308	1307.9	navigation	Trial2	navigation/STIM_008.jpg	99
988.297	1.746	1746.2	navigation	Trial2	navigation/STIM_009.jpg	100
992.889	3.48	3480.4	navigation	Trial2	navigation/STIM_009.jpg	99
998.622	1.541	1540.9	navigation	Trial2	navigation/STIM_009.jpg	100
1002.298	2.386	2386.3	navigation	Trial2	navigation/STIM_009.jpg	100
1008.023	1.799	1799.0	navigation	Trial2	navigation/STIM_009.jpg	100
1012.936	2.409	2409.2	navigation	Trial2	navigation/STIM_009.jpg	99
1018.174	3.777	3777.1	navigation	Trial2	navigation/STIM_010.jpg	99
1024.709	3.149	3149.3	navigation	Trial2	navigation/STIM_010.jpg	99
1030.8	2.639	2639.1	navigation	Trial2	navigation/STIM_010.jpg	99
1035.459	2.919	2918.7	navigation	Trial2	navigation/STIM_010.jpg	100
1041.93	2.725	2724.7	navigation	Trial2	navigation/STIM_010.jpg	99
1046.917	2.723	2722.9	navigation	Trial2	navigation/STIM_010.jpg	100
1052.071	2.666	2666.5	navigation	Trial2	navigation/STIM_011.jpg	100
1058.724	2.865	2864.6	navigation	Trial2	navigation/STIM_011.jpg	100
1065.542	2.324	2324.4	navigation	Trial2	navigation/STIM_011.jpg	100
1070.778	2.3	2299.6	navigation	Trial2	navigation/STIM_011.jpg	100
1076.638	2.61	2610.2	navigation	Trial2	navigation/STIM_011.jpg	99
1083.092	1.498	1497.5	navigation	Trial2	navigation/STIM_011.jpg	99
1088.273	0.771	771.0	pointing	Trial2	pointing/STIM_000.jpg	100
1092.406	1.01	1009.9	pointing	Trial2	pointing/STIM_000.jpg	99
1097.39	1.296	1295.7	pointing	Trial2	pointing/STIM_000.jpg	99
1102.0	1.02	1019.5	pointing	Trial2	pointing/STIM_000.jpg	100
1106.162	0.966	966.3	pointing	Trial2	pointing/STIM_000.jpg	99
1111.115	1.319	1318.6	pointing	Trial2	pointing/STIM_000.jpg	99
1116.231	0.802	801.8	pointing	Trial2	pointing/STIM_001.jpg	99
1120.237	1.312	1312.4	pointing	Trial2	pointing/STIM_001.jpg	100
1125.099	1.134	1133.9	pointing	Trial2	pointing/STIM_001.jpg	99
1128.58	0.753	753.0	pointing	Trial2	pointing/STIM_001.jpg	100
1131.926	1.232	1232.1	pointing	Trial2	pointing/STIM_001.jpg	99
1135.27	0.972	972.1	pointing	Trial2	pointing/STIM_001.jpg	100
1139.503	0.87	870.1	pointing	Trial2	pointing/STIM_002.jpg	100
1142.474	0.864	863.5	pointing	Trial2	pointing/STIM_002.jpg	100
1145.609	0.948	948.3	pointing	Trial2	pointing/STIM_002.jpg	100
1149.942	0.986	986.2	pointing	Trial2	pointing/STIM_002.jpg	99
1154.469	1.115	1115.4	pointing	Trial2	pointing/STIM_002.jpg	99
1159.51	0.903	902.9	pointing	Trial2	pointing/STIM_002.jpg	99
1162.923	1.132	1131.5	pointing	Trial2	pointing/STIM_003.jpg	99
1166.496	0.894	893.8	pointing	Trial2	pointing/STIM_003.jpg	99
1170.454	0.994	993.9	pointing	Trial2	pointing/STIM_003.jpg	100
1173.929	1.29	1290.5	pointing	Trial2	pointing/STIM_003.jpg	99
1178.481	1.298	1297.7	pointing	Trial2	pointing/STIM_003.jpg	100
1183.237	0.732	732.1	pointing	Trial2	pointing/STIM_003.jpg	99
1186.032	1.082	1082.0	pointing	Trial2	pointing/STIM_004.jpg	100
1189.847	1.316	1315.8	pointing	Trial2	pointing/STIM_004.jpg	100
1194.301	0.79	790.0	pointing	Trial2	pointing/STIM_004.jpg	99
1198.907	1.344	1343.8	pointing	Trial2	pointing/STIM_004.jpg	100
1203.481	0.84	840.1	pointing	Trial2	pointing/STIM_004.jpg	100
1206.436	1.074	1073.6	pointing	Trial2	pointing/STIM_004.jpg	99
1211.483	1.35	1350.1	pointing	Trial2	pointing/STIM_005.jpg	99
1216.377	1.272	1272.1	pointing	Trial2	pointing/STIM_005.jpg	100
1220.332	1.244	1244.1	pointing	Trial2	pointing/STIM_005.jpg	100
1225.354	0.926	926.5	pointing	Trial2	pointing/STIM_005.jpg	100
1230.227	0.819	818.7	pointing	Trial2	pointing/STIM_005.jpg	100
1234.483	0.973	973.3	pointing	Trial2	pointing/STIM_005.jpg	99
1238.904	0.732	731.9	pointing	Trial2	pointing/STIM_006.jpg	99
1241.778	0.927	926.6	pointing	Trial2	pointing/STIM_006.jpg	100
1246.375	0.91	910.4	pointing	Trial2	pointing/STIM_006.jpg	99
1249.58	1.024	1024.5	pointing	Trial2	pointing/STIM_006.jpg	100
1254.144	0.941	941.2	pointing	Trial2	pointing/STIM_006.jpg	99
1257.941	1.099	1098.8	pointing	Trial2	pointing/STIM_006.jpg	100
1262.836	1.198	1198.2	pointing	Trial2	pointing/STIM_007.jpg	99
1267.556	0.999	998.9	pointing	Trial2	pointing/STIM_007.jpg	99
1271.641	1.194	1194.1	pointing	Trial2	pointing/STIM_007.jpg	99
1276.616	1.261	1260.8	pointing	Trial2	pointing/STIM_007.jpg	99
1279.941	0.747	746.8	pointing	Trial2	pointing/STIM_007.jpg	100
1284.076	1.359	1359.3	pointing	Trial2	pointing/STIM_007.jpg	100
1288.827	1.068	1068.4	pointing	Trial2	pointing/STIM_008.jpg	100
1293.478	1.128	1127.6	pointing	Trial2	pointing/STIM_008.jpg	99
1297.279	1.164	1164.3	pointing	Trial2	pointing/STIM_008.jpg	99
1302.228	0.928	928.0	pointing	Trial2	pointing/STIM_008.jpg	100
1305.87	1.304	1304.1	pointing	Trial2	pointing/STIM_008.jpg	99
1309.263	1.023	1022.7	pointing	Trial2	pointing/STIM_008.jpg	100
1312.294	1.014	1014.3	pointing	Trial2	pointing/STIM_009.jpg	99
1316.865	0.978	978.3	pointing	Trial2	pointing/STIM_009.jpg	100
1320.105	0.936	935.9	pointing	Trial2	pointing/STIM_009.jpg	99
1323.545	0.917	917.3	pointing	Trial2	pointing/STIM_009.jpg	99
1326.72	0.912	912.3	pointing	Trial2	pointing/STIM_009.jpg	100
1331.614	0.933	933.0	pointing	Trial2	pointing/STIM_009.jpg	100
1334.883	1.037	1036.7	pointing	Trial2	pointing/STIM_010.jpg	100
1339.423	1.02	1020.5	pointing	Trial2	pointing/STIM_010.jpg	100
1343.583	1.16	1159.8	pointing	Trial2	pointing/STIM_010.jpg	100
1348.394	0.945	944.8	pointing	Trial2	pointing/STIM_010.jpg	99
1353.009	1.317	1316.9	pointing	Trial2	pointing/STIM_010.jpg	99
1356.363	1.223	1223.2	pointing	Trial2	pointing/STIM_010.jpg	100
1360.146	0.993	992.8	pointing	Trial2	pointing/STIM_011.jpg	100
1364.602	0.855	854.9	pointing	Trial2	pointing/STIM_011.jpg	100
1368.151	1.011	1011.3	pointing	Trial2	pointing/STIM_011.jpg	99
1372.771	1.353	1353.0	pointing	Trial2	pointing/STIM_011.jpg	99
1376.243	0.764	763.7	pointing	Trial2	pointing/STIM_011.jpg	100
1380.651	0.89	889.6	pointing	Trial2	pointing/STIM_011.jpg	100
1384.668	2.559	2558.7	navigation	Trial3	navigation/STIM_000.jpg	99
1389.813	1.776	1775.6	navigation	Trial3	navigation/STIM_000.jpg	100
1395.032	1.95	1950.5	navigation	Trial3	navigation/STIM_000.jpg	100
1400.462	1.872	1871.7	navigation	Trial3	navigation/STIM_000.jpg	100
1404.464	2.718	2718.4	navigation	Trial3	navigation/STIM_000.jpg	100
1409.787	2.104	2104.1	navigation	Trial3	navigation/STIM_000.jpg	99
1414.126	2.376	2375.5	navigation	Trial3	navigation/STIM_001.jpg	99
1420.295	2.173	2172.8	navigation	Trial3	navigation/STIM_001.jpg	99
1425.949	3.171	3171.1	navigation	Trial3	navigation/STIM_001.jpg	100
1432.789	3.136	3135.6	navigation	Trial3	navigation/STIM_001.jpg	99
1439.776	1.737	1736.8	navigation	Trial3	navigation/STIM_001.jpg	100
1444.579	1.683	1683.1	navigation	Trial3	navigation/STIM_001.jpg	99
1449.839	1.456	1455.6	navigation	Trial3	navigation/STIM_002.jpg	100
1454.366	2.982	2982.3	navigation	Trial3	navigation/STIM_002.jpg	100
1460.28	1.366	1366.4	navigation	Trial3	navigation/STIM_002.jpg	99
1464.882	2.031	2030.7	navigation	Trial3	navigation/STIM_002.jpg	99
1469.926	3.123	3122.8	navigation	Trial3	navigation/STIM_002.jpg	99
1475.864	1.286	1285.6	navigation	Trial3	navigation/STIM_002.jpg	99
1480.227	2.041	2041.3	navigation	Trial3	navigation/STIM_003.jpg	99
1485.508	1.506	1506.1	navigation	Trial3	navigation/STIM_003.jpg	100
1489.456	2.557	2557.0	navigation	Trial3	navigation/STIM_003.jpg	99
1495.365	2.931	2930.6	navigation	Trial3	navigation/STIM_003.jpg	100
1500.927	2.681	2680.8	navigation	Trial3	navigation/STIM_003.jpg	99
1506.672	1.842	1842.3	navigation	Trial3	navigation/STIM_003.jpg	100
1512.258	2.28	2280.4	navigation	Trial3	navigation/STIM_004.jpg	100
1516.72	1.757	1757.3	navigation	Trial3	navigation/STIM_004.jpg	99
1521.852	2.994	2994.5	navigation	Trial3	navigation/STIM_004.jpg	99
1527.804	2.206	2206.0	navigation	Trial3	navigation/STIM_004.jpg	99
1533.712	1.598	1597.7	navigation	Trial3	navigation/STIM_004.jpg	99
1538.123	1.594	1593.7	navigation	Trial3	navigation/STIM_004.jpg	100
1543.064	2.838	2837.6	navigation	Trial3	navigation/STIM_005.jpg	100
1548.371	1.327	1327.2	navigation	Trial3	navigation/STIM_005.jpg	100
1553.535	2.028	2027.8	navigation	Trial3	navigation/STIM_005.jpg	99
1559.499	1.387	1387.2	navigation	Trial3	navigation/STIM_005.jpg	100
1564.797	2.099	2098.6	navigation	Trial3	navigation/STIM_005.jpg	100
1569.742	2.501	2500.9	navigation	Trial3	navigation/STIM_005.jpg	99
1575.583	1.874	1874.1	navigation	Trial3	navigation/STIM_006.jpg	99
1580.946	1.634	1633.8	navigation	Trial3	navigation/STIM_006.jpg	100
1585.272	2.32	2320.2	navigation	Trial3	navigation/STIM_006.jpg	100
1590.927	3.133	3133.1	navigation	Trial3	navigation/STIM_006.jpg	100
1597.308	2.909	2908.8	navigation	Trial3	navigation/STIM_006.jpg	99
1602.648	2.755	2754.7	navigation	Trial3	navigation/STIM_006.jpg	99
1608.102	1.32	1320.4	navigation	Trial3	navigation/STIM_007.jpg	100
1613.181	3.158	3158.5	navigation	Trial3	navigation/STIM_007.jpg	100
1618.61	2.248	2248.2	navigation	Trial3	navigation/STIM_007.jpg	99
1623.868	2.15	2149.7	navigation	Trial3	navigation/STIM_007.jpg	99
1629.442	1.932	1931.8	navigation	Trial3	navigation/STIM_007.jpg	100
1635.073	2.76	2760.2	navigation	Trial3	navigation/STIM_007.jpg	100
1641.496	1.773	1773.1	navigation	Trial3	navigation/STIM_008.jpg	100
1646.352	2.376	2375.8	navigation	Trial3	navigation/STIM_008.jpg	100
1651.5	2.069	2069.1	navigation	Trial3	navigation/STIM_008.jpg	99
1656.873	1.755	1755.3	navigation	Trial3	navigation/STIM_008.jpg	100
1661.821	1.396	1395.9	navigation	Trial3	navigation/STIM_008.jpg	100
1666.174	2.438	2437.5	navigation	Trial3	navigation/STIM_008.jpg	99
1671.278	2.834	2834.0	navigation	Trial3	navigation/STIM_009.jpg	99
1677.003	2.914	2914.3	navigation	Trial3	navigation/STIM_009.jpg	99
1682.37	2.231	2230.7	navigation	Trial3	navigation/STIM_009.jpg	99
1686.698	3.089	3088.8	navigation	Trial3	navigation/STIM_009.jpg	99
1693.558	1.38	1379.6	navigation	Trial3	navigation/STIM_009.jpg	99
1698.643	1.985	1985.3	navigation	Trial3	navigation/STIM_009.jpg	99
1703.286	1.32	1320.5	navigation	Trial3	navigation/STIM_010.jpg	99
1707.142	2.432	2432.5	navigation	Trial3	navigation/STIM_010.jpg	100
1712.378	3.077	3076.8	navigation	Trial3	navigation/STIM_010.jpg	100
1718.994	1.823	1823.3	navigation	Trial3	navigation/STIM_010.jpg	100
1723.033	3.178	3177.7	navigation	Trial3	navigation/STIM_010.jpg	99
1728.975	2.944	2944.0	navigation	Trial3	navigation/STIM_010.jpg	100
1734.657	3.088	3088.3	navigation	Trial3	navigation/STIM_011.jpg	99
1740.325	2.303	2302.8	navigation	Trial3	navigation/STIM_011.jpg	99
1746.067	2.44	2440.2	navigation	Trial3	navigation/STIM_011.jpg	99
1752.072	1.657	1656.7	navigation	Trial3	navigation/STIM_011.jpg	99
1756.732	2.666	2665.9	navigation	Trial3	navigation/STIM_011.jpg	100
1762.055	2.147	2147.3	navigation	Trial3	navigation/STIM_011.jpg	99
1767.597	1.207	1206.7	pointing	Trial3	pointing/STIM_000.jpg	99
1771.645	0.952	951.9	pointing	Trial3	pointing/STIM_000.jpg	100
1775.516	0.935	934.6	pointing	Trial3	pointing/STIM_000.jpg	100
1779.08	1.175	1175.4	pointing	Trial3	pointing/STIM_000.jpg	99
1783.109	1.137	1136.8	pointing	Trial3	pointing/STIM_000.jpg	99
1788.032	1.354	1353.9	pointing	Trial3	pointing/STIM_000.jpg	99
1792.582	1.325	1325.0	pointing	Trial3	pointing/STIM_001.jpg	100
1797.397	1.351	1351.2	pointing	Trial3	pointing/STIM_001.jpg	99
1801.784	1.164	1164.0	pointing	Trial3	pointing/STIM_001.jpg	100
1805.316	1.172	1171.7	pointing	Trial3	pointing/STIM_001.jpg	99
1810.28	0.982	982.5	pointing	Trial3	pointing/STIM_001.jpg	100
1814.706	0.881	881.3	pointing	Trial3	pointing/STIM_001.jpg	100
1818.747	0.775	775.1	pointing	Trial3	pointing/STIM_002.jpg	100
1822.242	1.09	1090.4	pointing	Trial3	pointing/STIM_002.jpg	99
1827.012	1.069	1069.1	pointing	Trial3	pointing/STIM_002.jpg	100
1830.643	1.355	1355.3	pointing	Trial3	pointing/STIM_002.jpg	100
1835.619	1.202	1201.8	pointing	Trial3	pointing/STIM_002.jpg	100
1839.208	1.19	1189.5	pointing	Trial3	pointing/STIM_002.jpg	100
1843.18	1.337	1337.4	pointing	Trial3	pointing/STIM_003.jpg	99
1847.195	0.896	896.4	pointing	Trial3	pointing/STIM_003.jpg	99
1850.979	1.098	1097.5	pointing	Trial3	pointing/STIM_003.jpg	100
1854.32	1.343	1342.8	pointing	Trial3	pointing/STIM_003.jpg	100
1858.642	0.861	861.0	pointing	Trial3	pointing/STIM_003.jpg	100
1862.289	0.877	876.6	pointing	Trial3	pointing/STIM_003.jpg	99
1867.129	1.088	1087.6	pointing	Trial3	pointing/STIM_004.jpg	100
1870.723	1.217	1217.3	pointing	Trial3	pointing/STIM_004.jpg	100
1875.934	1.247	1247.4	pointing	Trial3	pointing/STIM_004.jpg	100
1880.524	0.893	892.6	pointing	Trial3	pointing/STIM_004.jpg	100
1883.675	0.979	979.2	pointing	Trial3	pointing/STIM_004.jpg	99
1887.317	1.368	1367.8	pointing	Trial3	pointing/STIM_004.jpg	100
1892.385	1.228	1228.5	pointing	Trial3	pointing/STIM_005.jpg	99
1897.318	1.12	1120.4	pointing	Trial3	pointing/STIM_005.jpg	99
1901.711	0.754	754.3	pointing	Trial3	pointing/STIM_005.jpg	99
1906.451	1.209	1208.9	pointing	Trial3	pointing/STIM_005.jpg	100
1911.4	0.956	956.5	pointing	Trial3	pointing/STIM_005.jpg	99
1914.636	0.968	967.8	pointing	Trial3	pointing/STIM_005.jpg	99
1918.47	0.874	874.2	pointing	Trial3	pointing/STIM_006.jpg	99
1923.081	1.151	1150.6	pointing	Trial3	pointing/STIM_006.jpg	99
1926.252	1.042	1041.8	pointing	Trial3	pointing/STIM_006.jpg	99
1929.919	1.265	1264.7	pointing	Trial3	pointing/STIM_006.jpg	99
1934.965	1.296	1296.5	pointing	Trial3	pointing/STIM_006.jpg	100
1938.965	0.791	790.6	pointing	Trial3	pointing/STIM_006.jpg	100
1943.261	1.19	1189.6	pointing	Trial3	pointing/STIM_007.jpg	100
1948.326	0.925	924.8	pointing	Trial3	pointing/STIM_007.jpg	99
1952.747	1.159	1159.2	pointing	Trial3	pointing/STIM_007.jpg	100
1956.265	0.968	968.1	pointing	Trial3	pointing/STIM_007.jpg	100
1961.156	1.016	1015.6	pointing	Trial3	pointing/STIM_007.jpg	99
1965.147	1.312	1311.5	pointing	Trial3	pointing/STIM_007.jpg	100
1970.285	1.173	1173.4	pointing	Trial3	pointing/STIM_008.jpg	100
1974.817	1.204	1203.9	pointing	Trial3	pointing/STIM_008.jpg	99
1979.382	0.996	995.8	pointing	Trial3	pointing/STIM_008.jpg	100
1982.511	1.138	1137.7	pointing	Trial3	pointing/STIM_008.jpg	99
1986.857	1.29	1289.5	pointing	Trial3	pointing/STIM_008.jpg	100
1991.328	1.228	1227.6	pointing	Trial3	pointing/STIM_008.jpg	99
1996.236	0.883	882.6	pointing	Trial3	pointing/STIM_009.jpg	100
1999.979	1.05	1049.6	pointing	Trial3	pointing/STIM_009.jpg	100
2003.972	1.158	1157.9	pointing	Trial3	pointing/STIM_009.jpg	99
2007.136	1.139	1139.4	pointing	Trial3	pointing/STIM_009.jpg	100
2011.741	1.343	1343.1	pointing	Trial3	pointing/STIM_009.jpg	99
2016.036	0.967	966.8	pointing	Trial3	pointing/STIM_009.jpg	99
2020.826	0.97	969.5	pointing	Trial3	pointing/STIM_010.jpg	100
2025.352	0.754	754.2	pointing	Trial3	pointing/STIM_010.jpg	100
2029.651	1.339	1339.4	pointing	Trial3	pointing/STIM_010.jpg	99
2033.05	0.748	748.0	pointing	Trial3	pointing/STIM_010.jpg	100
2037.053	1.198	1198.2	pointing	Trial3	pointing/STIM_010.jpg	99
2041.97	1.303	1302.7	pointing	Trial3	pointing/STIM_010.jpg	100
2046.283	1.062	1062.0	pointing	Trial3	pointing/STIM_011.jpg	100
2049.63	0.859	859.3	pointing	Trial3	pointing/STIM_011.jpg	100
2052.987	1.343	1342.9	pointing	Trial3	pointing/STIM_011.jpg	100
2057.471	1.216	1216.0	pointing	Trial3	pointing/STIM_011.jpg	100
2062.361	1.146	1145.5	pointing	Trial3	pointing/STIM_011.jpg	100
2067.027	1.362	1361.7	pointing	Trial3	pointing/STIM_011.jpg	99
