onset	duration	response_time_ms	trial_type	learning_stage	stimulus	response_port
0.0	3.548	3548.2	navigation	Trial1	navigation/STIM_000.jpg	100
7.391	2.388	2388.2	navigation	Trial1	navigation/STIM_000.jpg	100
12.382	3.265	3264.9	navigation	Trial1	navigation/STIM_000.jpg	99
18.18	2.051	2051.3	navigation	Trial1	navigation/STIM_000.jpg	99
23.867	3.263	3263.1	navigation	Trial1	navigation/STIM_000.jpg	100
29.169	2.266	2265.7	navigation	Trial1	navigation/STIM_000.jpg	100
34.529	2.937	2936.8	navigation	Trial1	navigation/STIM_001.jpg	100
39.725	4.037	4037.3	navigation	Trial1	navigation/STIM_001.jpg	100
46.431	1.842	1841.5	navigation	Trial1	navigation/STIM_001.jpg	99
50.894	2.258	2258.2	navigation	Trial1	navigation/STIM_001.jpg	100
55.179	3.256	3255.8	navigation	Trial1	navigation/STIM_001.jpg	99
60.511	3.054	3053.6	navigation	Trial1	navigation/STIM_001.jpg	100
66.263	3.1	3099.5	navigation	Trial1	navigation/STIM_002.jpg	99
71.675	2.452	2451.5	navigation	Trial1	navigation/STIM_002.jpg	99
77.386	2.355	2354.6	navigation	Trial1	navigation/STIM_002.jpg	99
82.268	2.731	2731.2	navigation	Trial1	navigation/STIM_002.jpg	99
87.717	3.031	3031.4	navigation	Trial1	navigation/STIM_002.jpg	100
94.367	2.069	2068.7	navigation	Trial1	navigation/STIM_002.jpg	99
99.98	2.585	2584.9	navigation	Trial1	navigation/STIM_003.jpg	99
105.469	2.234	2233.7	navigation	Trial1	navigation/STIM_003.jpg	100
109.964	1.944	1944.1	navigation	Trial1	navigation/STIM_003.jpg	99
114.188	2.547	2547.4	navigation	Trial1	navigation/STIM_003.jpg	100
119.011	2.674	2673.5	navigation	Trial1	navigation/STIM_003.jpg	99
123.906	2.016	2016.3	navigation	Trial1	navigation/STIM_003.jpg	99
129.218	4.31	4309.8	navigation	Trial1	navigation/STIM_004.jpg	100
135.805	2.293	2292.9	navigation	Trial1	navigation/STIM_004.jpg	100
140.262	2.663	2663.1	navigation	Trial1	navigation/STIM_004.jpg	100
145.55	2.04	2039.7	navigation	Trial1	navigation/STIM_004.jpg	100
149.786	2.71	2710.3	navigation	Trial1	navigation/STIM_004.jpg	99
156.29	2.865	2864.9	navigation	Trial1	navigation/STIM_004.jpg	100
162.298	3.358	3357.5	navigation	Trial1	navigation/STIM_005.jpg	100
168.89	3.123	3123.0	navigation	Trial1	navigation/STIM_005.jpg	100
175.564	3.923	3922.7	navigation	Trial1	navigation/STIM_005.jpg	100
183.261	2.485	2484.7	navigation	Trial1	navigation/STIM_005.jpg	99
188.34	1.861	1861.4	navigation	Trial1	navigation/STIM_005.jpg	99
192.752	3.261	3260.7	navigation	Trial1	navigation/STIM_005.jpg	99
198.222	2.452	2452.3	navigation	Trial1	navigation/STIM_006.jpg	99
203.88	3.899	3899.4	navigation	Trial1	navigation/STIM_006.jpg	99
210.518	3.548	3548.2	navigation	Trial1	navigation/STIM_006.jpg	99
217.155	1.643	1643.4	navigation	Trial1	navigation/STIM_006.jpg	100
222.733	2.482	2481.7	navigation	Trial1	navigation/STIM_006.jpg	99
227.743	1.709	1709.1	navigation	Trial1	navigation/STIM_006.jpg	100
232.799	3.986	3985.9	navigation	Trial1	navigation/STIM_007.jpg	100
239.098	3.041	3041.4	navigation	Trial1	navigation/STIM_007.jpg	99
244.416	3.12	3119.9	navigation	Trial1	navigation/STIM_007.jpg	99
249.576	1.668	1668.1	navigation	Trial1	navigation/STIM_007.jpg	100
254.653	3.408	3407.9	navigation	Trial1	navigation/STIM_007.jpg	99
260.932	1.493	1492.9	navigation	Trial1	navigation/STIM_007.jpg	99
266.03	2.367	2367.4	navigation	Trial1	navigation/STIM_008.jpg	100
272.368	2.449	2449.2	navigation	Trial1	navigation/STIM_008.jpg	100
277.985	2.194	2193.6	navigation	Trial1	navigation/STIM_008.jpg	99
282.724	2.675	2674.6	navigation	Trial1	navigation/STIM_008.jpg	100
288.136	3.328	3327.6	navigation	Trial1	navigation/STIM_008.jpg	100
293.612	1.773	1772.7	navigation	Trial1	navigation/STIM_008.jpg	99
297.944	3.785	3785.0	navigation	Trial1	navigation/STIM_009.jpg	99
303.767	3.482	3481.7	navigation	Trial1	navigation/STIM_009.jpg	99
310.091	2.872	2871.7	navigation	Trial1	navigation/STIM_009.jpg	100
315.386	1.834	1834.0	navigation	Trial1	navigation/STIM_009.jpg	99
319.67	3.05	3050.0	navigation	Trial1	navigation/STIM_009.jpg	99
325.143	1.644	1643.5	navigation	Trial1	navigation/STIM_009.jpg	100
329.229	2.658	2657.9	navigation	Trial1	navigation/STIM_010.jpg	99
334.759	2.607	2606.7	navigation	Trial1	navigation/STIM_010.jpg	99
340.65	3.575	3574.6	navigation	Trial1	navigation/STIM_010.jpg	100
347.388	2.853	2853.3	navigation	Trial1	navigation/STIM_010.jpg	100
352.878	2.14	2139.7	navigation	Trial1	navigation/STIM_010.jpg	99
358.267	2.569	2569.3	navigation	Trial1	navigation/STIM_010.jpg	100
364.783	2.209	2209.4	navigation	Trial1	navigation/STIM_011.jpg	99
369.122	3.614	3614.4	navigation	Trial1	navigation/STIM_011.jpg	99
375.831	2.938	2938.2	navigation	Trial1	navigation/STIM_011.jpg	99
382.501	2.308	2308.0	navigation	Trial1	navigation/STIM_011.jpg	100
387.526	2.056	2056.5	navigation	Trial1	navigation/STIM_011.jpg	100
393.043	3.018	3018.4	navigation	Trial1	navigation/STIM_011.jpg	99
399.775	1.278	1277.8	pointing	Trial1	pointing/STIM_000.jpg	100
404.496	1.252	1251.9	pointing	Trial1	pointing/STIM_000.jpg	100
408.332	1.046	1045.5	pointing	Trial1	pointing/STIM_000.jpg	99
412.416	0.875	874.7	pointing	Trial1	pointing/STIM_000.jpg	100
415.922	0.804	804.3	pointing	Trial1	pointing/STIM_000.jpg	99
420.471	0.948	947.6	pointing	Trial1	pointing/STIM_000.jpg	100
425.214	1.302	1301.7	pointing	Trial1	pointing/STIM_001.jpg	100
429.727	0.948	948.1	pointing	Trial1	pointing/STIM_001.jpg	99
433.92	1.238	1237.7	pointing	Trial1	pointing/STIM_001.jpg	100
438.09	0.955	955.4	pointing	Trial1	pointing/STIM_001.jpg	99
442.295	1.062	1062.2	pointing	Trial1	pointing/STIM_001.jpg	100
446.292	0.97	969.5	pointing	Trial1	pointing/STIM_001.jpg	100
450.692	0.951	950.8	pointing	Trial1	pointing/STIM_002.jpg	99
455.41	1.239	1238.8	pointing	Trial1	pointing/STIM_002.jpg	99
459.554	0.795	794.7	pointing	Trial1	pointing/STIM_002.jpg	99
463.501	1.072	1072.1	pointing	Trial1	pointing/STIM_002.jpg	100
466.669	1.254	1253.5	pointing	Trial1	pointing/STIM_002.jpg	99
471.771	0.895	894.7	pointing	Trial1	pointing/STIM_002.jpg	100
475.903	1.17	1170.5	pointing	Trial1	pointing/STIM_003.jpg	99
480.371	1.279	1279.1	pointing	Trial1	pointing/STIM_003.jpg	99
483.694	0.775	775.4	pointing	Trial1	pointing/STIM_003.jpg	100
488.316	1.278	1277.6	pointing	Trial1	pointing/STIM_003.jpg	99
492.807	0.948	947.9	pointing	Trial1	pointing/STIM_003.jpg	99
497.433	0.888	887.5	pointing	Trial1	pointing/STIM_003.jpg	100
501.213	1.135	1135.0	pointing	Trial1	pointing/STIM_004.jpg	100
505.4	0.804	804.4	pointing	Trial1	pointing/STIM_004.jpg	100
509.622	0.945	944.7	pointing	Trial1	pointing/STIM_004.jpg	100
514.245	0.965	964.9	pointing	Trial1	pointing/STIM_004.jpg	99
517.884	0.725	725.1	pointing	Trial1	pointing/STIM_004.jpg	99
522.177	1.302	1302.1	pointing	Trial1	pointing/STIM_004.jpg	99
526.552	1.279	1279.2	pointing	Trial1	pointing/STIM_005.jpg	100
530.74	1.118	1118.3	pointing	Trial1	pointing/STIM_005.jpg	100
534.665	0.893	892.8	pointing	Trial1	pointing/STIM_005.jpg	100
538.322	1.213	1213.1	pointing	Trial1	pointing/STIM_005.jpg	100
542.983	0.939	939.0	pointing	Trial1	pointing/STIM_005.jpg	99
547.162	1.053	1053.3	pointing	Trial1	pointing/STIM_005.jpg	100
550.437	1.064	1064.1	pointing	Trial1	pointing/STIM_006.jpg	99
554.876	1.01	1009.8	pointing	Trial1	pointing/STIM_006.jpg	100
558.45	0.915	915.2	pointing	Trial1	pointing/STIM_006.jpg	99
562.704	1.122	1121.5	pointing	Trial1	pointing/STIM_006.jpg	100
567.722	1.121	1121.0	pointing	Trial1	pointing/STIM_006.jpg	100
571.006	1.08	1080.2	pointing	Trial1	pointing/STIM_006.jpg	99
575.774	1.243	1242.9	pointing	Trial1	pointing/STIM_007.jpg	100
579.041	0.987	986.7	pointing	Trial1	pointing/STIM_007.jpg	99
582.268	1.191	1191.0	pointing	Trial1	pointing/STIM_007.jpg	100
586.239	1.092	1092.5	pointing	Trial1	pointing/STIM_007.jpg	99
590.504	1.215	1215.4	pointing	Trial1	pointing/STIM_007.jpg	100
594.333	0.733	733.1	pointing	Trial1	pointing/STIM_007.jpg	100
599.006	1.211	1210.8	pointing	Trial1	pointing/STIM_008.jpg	100
603.979	1.288	1287.6	pointing	Trial1	pointing/STIM_008.jpg	100
608.952	1.317	1317.3	pointing	Trial1	pointing/STIM_008.jpg	100
613.295	1.254	1253.8	pointing	Trial1	pointing/STIM_008.jpg	99
617.189	0.894	894.0	pointing	Trial1	pointing/STIM_008.jpg	100
621.47	0.823	823.0	pointing	Trial1	pointing/STIM_008.jpg	100
626.206	0.933	933.3	pointing	Trial1	pointing/STIM_009.jpg	99
630.215	0.899	899.0	pointing	Trial1	pointing/STIM_009.jpg	100
633.561	1.069	1069.0	pointing	Trial1	pointing/STIM_009.jpg	99
638.006	0.766	765.7	pointing	Trial1	pointing/STIM_009.jpg	100
642.0	1.06	1059.9	pointing	Trial1	pointing/STIM_009.jpg	100
646.869	0.91	910.0	pointing	Trial1	pointing/STIM_009.jpg	99
649.852	0.842	841.6	pointing	Trial1	pointing/STIM_010.jpg	99
653.583	1.131	1130.8	pointing	Trial1	pointing/STIM_010.jpg	99
656.972	1.161	1160.6	pointing	Trial1	pointing/STIM_010.jpg	100
660.469	1.043	1042.6	pointing	Trial1	pointing/STIM_010.jpg	100
663.992	0.864	864.1	pointing	Trial1	pointing/STIM_010.jpg	100
668.682	1.272	1272.0	pointing	Trial1	pointing/STIM_010.jpg	99
673.761	0.985	984.9	pointing	Trial1	pointing/STIM_011.jpg	99
678.097	1.125	1125.0	pointing	Trial1	pointing/STIM_011.jpg	99
681.828	0.823	822.9	pointing	Trial1	pointing/STIM_011.jpg	99
684.827	0.733	733.3	pointing	Trial1	pointing/STIM_011.jpg	100
687.711	1.254	1253.9	pointing	Trial1	pointing/STIM_011.jpg	99
691.059	0.926	925.9	pointing	Trial1	pointing/STIM_011.jpg	99
695.15	1.715	1714.9	navigation	Trial2	navigation/STIM_000.jpg	100
699.684	1.705	1704.6	navigation	Trial2	navigation/STIM_000.jpg	99
704.482	1.377	1377.4	navigation	Trial2	navigation/STIM_000.jpg	99
709.199	2.034	2034.1	navigation	Trial2	navigation/STIM_000.jpg	99
714.971	2.719	2719.4	navigation	Trial2	navigation/STIM_000.jpg	99
720.146	1.34	1339.8	navigation	Trial2	navigation/STIM_000.jpg	100
724.004	2.281	2280.7	navigation	Trial2	navigation/STIM_001.jpg	100
729.165	2.832	2832.1	navigation	Trial2	navigation/STIM_001.jpg	100
734.801	2.471	2471.2	navigation	Trial2	navigation/STIM_001.jpg	100
739.831	2.595	2595.3	navigation	Trial2	navigation/STIM_001.jpg	100
746.097	3.067	3066.8	navigation	Trial2	navigation/STIM_001.jpg	100
752.396	2.08	2080.1	navigation	Trial2	navigation/STIM_001.jpg	99
757.906	2.378	2378.4	navigation	Trial2	navigation/STIM_002.jpg	99
763.314	1.463	1463.3	navigation	Trial2	navigation/STIM_002.jpg	99
767.972	2.709	2709.4	navigation	Trial2	navigation/STIM_002.jpg	99
773.149	2.358	2357.5	navigation	Trial2	navigation/STIM_002.jpg	99
779.047	2.241	2241.2	navigation	Trial2	navigation/STIM_002.jpg	99
784.59	2.166	2165.9	navigation	Trial2	navigation/STIM_002.jpg	100
790.291	1.907	1907.0	navigation	Trial2	navigation/STIM_003.jpg	99
795.61	1.895	1894.7	navigation	Trial2	navigation/STIM_003.jpg	100
800.185	3.223	3223.0	navigation	Trial2	navigation/STIM_003.jpg	100
807.365	2.934	2933.8	navigation	Trial2	navigation/STIM_003.jpg	99
813.664	2.88	2879.5	navigation	Trial2	navigation/STIM_003.jpg	100
819.522	2.097	2097.2	navigation	Trial2	navigation/STIM_003.jpg	100
825.503	2.209	2208.9	navigation	Trial2	navigation/STIM_004.jpg	100
830.597	3.142	3142.1	navigation	Trial2	navigation/STIM_004.jpg	99
837.438	1.362	1362.1	navigation	Trial2	navigation/STIM_004.jpg	100
842.469	2.83	2829.8	navigation	Trial2	navigation/STIM_004.jpg	99
848.626	2.043	2043.5	navigation	Trial2	navigation/STIM_004.jpg	100
852.71	2.276	2276.3	navigation	Trial2	navigation/STIM_004.jpg	100
858.854	1.74	1739.9	navigation	Trial2	navigation/STIM_005.jpg	100
863.84	1.895	1895.2	navigation	Trial2	navigation/STIM_005.jpg	99
867.994	1.509	1509.2	navigation	Trial2	navigation/STIM_005.jpg	100
872.703	2.015	2015.1	navigation	Trial2	navigation/STIM_005.jpg	100
876.907	1.323	1323.3	navigation	Trial2	navigation/STIM_005.jpg	99
882.112	2.897	2897.4	navigation	Trial2	navigation/STIM_005.jpg	99
887.309	2.552	2552.2	navigation	Trial2	navigation/STIM_006.jpg	99
892.232	3.172	3171.7	navigation	Trial2	navigation/STIM_006.jpg	100
898.856	3.182	3182.5	navigation	Trial2	navigation/STIM_006.jpg	99
904.602	1.888	1888.3	navigation	Trial2	navigation/STIM_006.jpg	99
909.203	2.774	2774.3	navigation	Trial2	navigation/STIM_006.jpg	100
915.015	2.783	2783.0	navigation	Trial2	navigation/STIM_006.jpg	99
920.367	1.865	1865.4	navigation	Trial2	navigation/STIM_007.jpg	99
924.541	1.477	1477.4	navigation	Trial2	navigation/STIM_007.jpg	100
929.5	2.362	2361.8	navigation	Trial2	navigation/STIM_007.jpg	100
935.18	1.356	1355.7	navigation	Trial2	navigation/STIM_007.jpg	99
939.742	2.962	2961.8	navigation	Trial2	navigation/STIM_007.jpg	100
946.622	2.511	2510.7	navigation	Trial2	navigation/STIM_007.jpg	99
952.901	2.046	2046.2	navigation	Trial2	navigation/STIM_008.jpg	99
957.064	3.206	3206.1	navigation	Trial2	navigation/STIM_008.jpg	99
962.377	1.944	1943.6	navigation	Trial2	navigation/STIM_008.jpg	100
967.24	2.818	2818.1	navigation	Trial2	navigation/STIM_008.jpg	99
972.824	2.702	2702.3	navigation	Trial2	navigation/STIM_008.jpg	100
978.38	2.603	2603.2	navigation	Trial2	navigation/STIM_008.jpg	100
983.67	2.439	2438.8	navigation	Trial2	navigation/STIM_009.jpg	100
989.784	2.767	2766.7	navigation	Trial2	navigation/STIM_009.jpg	99
995.368	1.416	1416.1	navigation	Trial2	navigation/STIM_009.jpg	99
1000.402	1.272	1271.9	navigation	Trial2	navigation/STIM_009.jpg	99
1004.417	1.31	1309.5	navigation	Trial2	navigation/STIM_009.jpg	99
1007.973	1.602	1602.5	navigation	Trial2	navigation/STIM_009.jpg	100
1012.023	2.183	2182.7	navigation	Trial2	navigation/STIM_010.jpg	100
1017.329	2.608	2608.1	navigation	Trial2	navigation/STIM_010.jpg	99
1023.529	3.258	3257.6	navigation	Trial2	navigation/STIM_010.jpg	100
1028.806	2.524	2524.1	navigation	Trial2	navigation/STIM_010.jpg	99
1033.487	1.793	1792.8	navigation	Trial2	navigation/STIM_010.jpg	99
1039.267	2.691	2690.7	navigation	Trial2	navigation/STIM_010.jpg	99
1045.23	2.052	2051.6	navigation	Trial2	navigation/STIM_011.jpg	99
1049.839	2.474	2473.5	navigation	Trial2	navigation/STIM_011.jpg	99
1055.179	1.795	1795.2	navigation	Trial2	navigation/STIM_011.jpg	99
1060.919	2.098	2098.2	navigation	Trial2	navigation/STIM_011.jpg	99
1066.012	2.533	2533.2	navigation	Trial2	navigation/STIM_011.jpg	99
1071.315	2.403	2403.4	navigation	Trial2	navigation/STIM_011.jpg	99
1077.026	1.204	1203.7	pointing	Trial2	pointing/STIM_000.jpg	100
1080.477	0.878	878.5	pointing	Trial2	pointing/STIM_000.jpg	100
1085.296	1.295	1294.7	pointing	Trial2	pointing/STIM_000.jpg	99
1089.106	0.818	817.8	pointing	Trial2	pointing/STIM_000.jpg	100
1092.901	1.06	1059.5	pointing	Trial2	pointing/STIM_000.jpg	100
1095.982	1.195	1194.6	pointing	Trial2	pointing/STIM_000.jpg	99
1099.534	1.3	1299.9	pointing	Trial2	pointing/STIM_001.jpg	100
1104.322	1.117	1116.8	pointing	Trial2	pointing/STIM_001.jpg	100
1107.711	1.146	1145.8	pointing	Trial2	pointing/STIM_001.jpg	99
1111.385	1.056	1055.7	pointing	Trial2	pointing/STIM_001.jpg	100
1114.86	0.979	979.4	pointing	Trial2	pointing/STIM_001.jpg	100
1117.912	0.89	890.2	pointing	Trial2	pointing/STIM_001.jpg	99
1121.688	0.966	965.8	pointing	Trial2	pointing/STIM_002.jpg	100
1124.718	1.242	1242.5	pointing	Trial2	pointing/STIM_002.jpg	99
1128.702	0.901	901.4	pointing	Trial2	pointing/STIM_002.jpg	99
1131.655	0.812	812.1	pointing	Trial2	pointing/STIM_002.jpg	99
1135.084	0.755	755.4	pointing	Trial2	pointing/STIM_002.jpg	99
1139.275	0.892	892.3	pointing	Trial2	pointing/STIM_002.jpg	100
1143.971	0.823	823.3	pointing	Trial2	pointing/STIM_003.jpg	99
1147.843	1.12	1120.1	pointing	Trial2	pointing/STIM_003.jpg	99
1151.107	0.73	730.1	pointing	Trial2	pointing/STIM_003.jpg	100
1154.472	0.804	804.5	pointing	Trial2	pointing/STIM_003.jpg	99
1157.325	1.293	1293.1	pointing	Trial2	pointing/STIM_003.jpg	100
1161.05	0.824	823.5	pointing	Trial2	pointing/STIM_003.jpg	99
1165.704	1.254	1254.1	pointing	Trial2	pointing/STIM_004.jpg	99
1170.346	1.309	1309.3	pointing	Trial2	pointing/STIM_004.jpg	100
1173.783	1.178	1177.7	pointing	Trial2	pointing/STIM_004.jpg	100
1177.908	1.203	1202.6	pointing	Trial2	pointing/STIM_004.jpg	100
1182.632	0.788	787.6	pointing	Trial2	pointing/STIM_004.jpg	100
1185.647	0.782	781.8	pointing	Trial2	pointing/STIM_004.jpg	99
1189.203	1.06	1060.3	pointing	Trial2	pointing/STIM_005.jpg	100
1192.626	1.298	1297.5	pointing	Trial2	pointing/STIM_005.jpg	100
1196.388	1.32	1320.4	pointing	Trial2	pointing/STIM_005.jpg	100
1199.853	0.824	823.9	pointing	Trial2	pointing/STIM_005.jpg	99
1202.83	1.271	1271.1	pointing	Trial2	pointing/STIM_005.jpg	100
1206.103	0.82	820.2	pointing	Trial2	pointing/STIM_005.jpg	100
1210.922	1.023	1022.8	pointing	Trial2	pointing/STIM_006.jpg	99
1215.842	1.153	1153.0	pointing	Trial2	pointing/STIM_006.jpg	100
1219.995	1.237	1237.3	pointing	Trial2	pointing/STIM_006.jpg	100
1223.94	0.934	934.4	pointing	Trial2	pointing/STIM_006.jpg	99
1228.812	1.108	1108.4	pointing	Trial2	pointing/STIM_006.jpg	100
1232.408	0.913	913.2	pointing	Trial2	pointing/STIM_006.jpg	100
1237.106	1.15	1149.8	pointing	Trial2	pointing/STIM_007.jpg	99
1241.818	1.148	1147.9	pointing	Trial2	pointing/STIM_007.jpg	100
1245.752	1.3	1299.9	pointing	Trial2	pointing/STIM_007.jpg	100
1250.764	0.936	936.2	pointing	Trial2	pointing/STIM_007.jpg	99
1254.203	1.042	1042.2	pointing	Trial2	pointing/STIM_007.jpg	99
1258.719	0.829	828.8	pointing	Trial2	pointing/STIM_007.jpg	99
1262.673	1.31	1309.5	pointing	Trial2	pointing/STIM_008.jpg	99
1266.278	1.14	1139.6	pointing	Trial2	pointing/STIM_008.jpg	99
1270.701	1.02	1019.8	pointing	Trial2	pointing/STIM_008.jpg	100
1275.25	1.062	1062.5	pointing	Trial2	pointing/STIM_008.jpg	100
1278.424	0.95	950.3	pointing	Trial2	pointing/STIM_008.jpg	99
1282.575	0.795	795.2	pointing	Trial2	pointing/STIM_008.jpg	99
1286.773	1.2	1200.3	pointing	Trial2	pointing/STIM_009.jpg	100
1291.077	0.821	820.8	pointing	Trial2	pointing/STIM_009.jpg	99
1294.453	0.706	706.1	pointing	Trial2	pointing/STIM_009.jpg	100
1298.354	0.902	901.6	pointing	Trial2	pointing/STIM_009.jpg	100
1302.219	1.148	1148.3	pointing	Trial2	pointing/STIM_009.jpg	99
1306.228	1.311	1311.2	pointing	Trial2	pointing/STIM_009.jpg	100
1310.971	1.13	1129.6	pointing	Trial2	pointing/STIM_010.jpg	100
1315.226	1.263	1262.8	pointing	Trial2	pointing/STIM_010.jpg	99
1319.264	0.822	821.8	pointing	Trial2	pointing/STIM_010.jpg	100
1323.66	1.281	1281.0	pointing	Trial2	pointing/STIM_010.jpg	99
1327.045	1.146	1146.1	pointing	Trial2	pointing/STIM_010.jpg	100
1331.007	1.185	1185.2	pointing	Trial2	pointing/STIM_010.jpg	100
1335.647	0.812	811.6	pointing	Trial2	pointing/STIM_011.jpg	99
1339.44	1.248	1247.6	pointing	Trial2	pointing/STIM_011.jpg	99
1344.073	1.105	1105.0	pointing	Trial2	pointing/STIM_011.jpg	100
1348.299	0.995	995.0	pointing	Trial2	pointing/STIM_011.jpg	99
1352.028	0.958	957.9	pointing	Trial2	pointing/STIM_011.jpg	99
1355.025	0.807	807.0	pointing	Trial2	pointing/STIM_011.jpg	99
1359.69	2.397	2396.6	navigation	Trial3	navigation/STIM_000.jpg	99
1364.455	2.809	2809.1	navigation	Trial3	navigation/STIM_000.jpg	100
1370.245	2.737	2737.1	navigation	Trial3	navigation/STIM_000.jpg	99
1374.986	2.525	2525.4	navigation	Trial3	navigation/STIM_000.jpg	99
1380.927	1.238	1237.5	navigation	Trial3	navigation/STIM_000.jpg	100
1384.353	2.022	2022.4	navigation	Trial3	navigation/STIM_000.jpg	100
1389.316	2.519	2519.1	navigation	Trial3	navigation/STIM_001.jpg	100
1395.31	2.65	2650.0	navigation	Trial3	navigation/STIM_001.jpg	99
1400.896	2.732	2731.8	navigation	Trial3	navigation/STIM_001.jpg	100
1407.022	2.086	2086.4	navigation	Trial3	navigation/STIM_001.jpg	100
1412.734	2.955	2954.8	navigation	Trial3	navigation/STIM_001.jpg	100
1418.919	1.986	1986.3	navigation	Trial3	navigation/STIM_001.jpg	100
1424.809	2.122	2122.3	navigation	Trial3	navigation/STIM_002.jpg	99
1430.791	2.44	2439.9	navigation	Trial3	navigation/STIM_002.jpg	100
1436.178	1.946	1945.9	navigation	Trial3	navigation/STIM_002.jpg	99
1440.568	2.746	2746.1	navigation	Trial3	navigation/STIM_002.jpg	99
1445.415	2.576	2576.1	navigation	Trial3	navigation/STIM_002.jpg	100
1450.669	1.277	1277.2	navigation	Trial3	navigation/STIM_002.jpg	100
1455.394	2.71	2710.3	navigation	Trial3	navigation/STIM_003.jpg	99
1461.858	2.814	2813.5	navigation	Trial3	navigation/STIM_003.jpg	99
1468.433	2.746	2746.0	navigation	Trial3	navigation/STIM_003.jpg	100
1474.641	1.421	1420.6	navigation	Trial3	navigation/STIM_003.jpg	99
1479.961	2.495	2494.7	navigation	Trial3	navigation/STIM_003.jpg	99
1485.676	1.891	1891.1	navigation	Trial3	navigation/STIM_003.jpg	100
1491.197	1.899	1898.6	navigation	Trial3	navigation/STIM_004.jpg	100
1495.495	2.128	2128.1	navigation	Trial3	navigation/STIM_004.jpg	99
1500.964	1.338	1338.5	navigation	Trial3	navigation/STIM_004.jpg	100
1505.443	1.843	1842.7	navigation	Trial3	navigation/STIM_004.jpg	100
1510.946	1.407	1407.2	navigation	Trial3	navigation/STIM_004.jpg	100
1514.702	2.594	2593.6	navigation	Trial3	navigation/STIM_004.jpg	99
1521.035	2.113	2113.3	navigation	Trial3	navigation/STIM_005.jpg	100
1525.312	2.119	2119.2	navigation	Trial3	navigation/STIM_005.jpg	100
1531.098	1.988	1987.5	navigation	Trial3	navigation/STIM_005.jpg	99
1535.314	2.815	2814.6	navigation	Trial3	navigation/STIM_005.jpg	99
1540.703	2.186	2185.7	navigation	Trial3	navigation/STIM_005.jpg	99
1545.763	1.838	1837.5	navigation	Trial3	navigation/STIM_005.jpg	100
1550.355	2.488	2488.3	navigation	Trial3	navigation/STIM_006.jpg	100
1555.577	2.195	2195.0	navigation	Trial3	navigation/STIM_006.jpg	99
1561.584	1.642	1642.5	navigation	Trial3	navigation/STIM_006.jpg	99
1565.387	1.623	1622.7	navigation	Trial3	navigation/STIM_006.jpg	99
1570.109	1.411	1410.8	navigation	Trial3	navigation/STIM_006.jpg	99
1574.26	2.759	2759.1	navigation	Trial3	navigation/STIM_006.jpg	100
1579.66	2.916	2915.7	navigation	Trial3	navigation/STIM_007.jpg	100
1584.608	2.428	2428.0	navigation	Trial3	navigation/STIM_007.jpg	100
1589.135	2.717	2717.1	navigation	Trial3	navigation/STIM_007.jpg	99
1593.933	1.633	1632.9	navigation	Trial3	navigation/STIM_007.jpg	99
1599.329	1.79	1789.8	navigation	Trial3	navigation/STIM_007.jpg	99
1605.006	2.412	2411.8	navigation	Trial3	navigation/STIM_007.jpg	100
1610.672	2.617	2616.6	navigation	Trial3	navigation/STIM_008.jpg	99
1616.527	1.479	1479.2	navigation	Trial3	navigation/STIM_008.jpg	100
1621.368	2.113	2113.1	navigation	Trial3	navigation/STIM_008.jpg	99
1626.536	1.744	1744.5	navigation	Trial3	navigation/STIM_008.jpg	100
1631.293	3.026	3026.4	navigation	Trial3	navigation/STIM_008.jpg	99
1636.875	2.964	2964.1	navigation	Trial3	navigation/STIM_008.jpg	100
1643.1	2.458	2457.8	navigation	Trial3	navigation/STIM_009.jpg	100
1647.803	1.594	1593.9	navigation	Trial3	navigation/STIM_009.jpg	99
1652.909	1.399	1399.4	navigation	Trial3	navigation/STIM_009.jpg	99
1657.429	2.131	2130.7	navigation	Trial3	navigation/STIM_009.jpg	99
1663.464	1.496	1495.6	navigation	Trial3	navigation/STIM_009.jpg	99
1668.621	1.853	1853.3	navigation	Trial3	navigation/STIM_009.jpg	99
1672.796	2.138	2138.0	navigation	Trial3	navigation/STIM_010.jpg	100
1677.417	1.695	1694.9	navigation	Trial3	navigation/STIM_010.jpg	100
1681.982	2.325	2324.6	navigation	Trial3	navigation/STIM_010.jpg	100
1687.947	1.356	1356.3	navigation	Trial3	navigation/STIM_010.jpg	99
1691.756	2.582	2582.2	navigation	Trial3	navigation/STIM_010.jpg	99
1697.913	1.33	1329.8	navigation	Trial3	navigation/STIM_010.jpg	99
1701.45	1.541	1540.8	navigation	Trial3	navigation/STIM_011.jpg	99
1705.267	2.766	2766.4	navigation	Trial3	navigation/STIM_011.jpg	99
1710.858	1.488	1488.4	navigation	Trial3	navigation/STIM_011.jpg	99
1715.925	1.91	1910.1	navigation	Trial3	navigation/STIM_011.jpg	99
1720.371	2.22	2220.0	navigation	Trial3	navigation/STIM_011.jpg	100
1724.775	1.481	1481.2	navigation	Trial3	navigation/STIM_011.jpg	99
1729.453	0.743	742.7	pointing	Trial3	pointing/STIM_000.jpg	99
1733.941	0.755	755.0	pointing	Trial3	pointing/STIM_000.jpg	99
1736.98	1.075	1075.4	pointing	Trial3	pointing/STIM_000.jpg	100
1741.147	0.726	726.3	pointing	Trial3	pointing/STIM_000.jpg	99
1745.512	1.316	1315.6	pointing	Trial3	pointing/STIM_000.jpg	99
1749.703	1.085	1084.6	pointing	Trial3	pointing/STIM_000.jpg	99
1753.232	0.917	916.8	pointing	Trial3	pointing/STIM_001.jpg	100
1757.352	0.9	900.3	pointing	Trial3	pointing/STIM_001.jpg	100
1762.147	0.921	920.9	pointing	Trial3	pointing/STIM_001.jpg	100
1765.559	1.277	1276.8	pointing	Trial3	pointing/STIM_001.jpg	99
1770.431	0.716	716.4	pointing	Trial3	pointing/STIM_001.jpg	100
1773.523	1.183	1182.8	pointing	Trial3	pointing/STIM_001.jpg	99
1777.367	0.929	928.9	pointing	Trial3	pointing/STIM_002.jpg	99
1781.66	1.108	1108.3	pointing	Trial3	pointing/STIM_002.jpg	99
1786.437	1.222	1221.9	pointing	Trial3	pointing/STIM_002.jpg	100
1791.35	0.862	861.7	pointing	Trial3	pointing/STIM_002.jpg	99
1794.908	0.754	753.9	pointing	Trial3	pointing/STIM_002.jpg	99
1798.461	1.034	1033.6	pointing	Trial3	pointing/STIM_002.jpg	100
1803.443	1.318	1318.1	pointing	Trial3	pointing/STIM_003.jpg	100
1806.986	1.158	1157.9	pointing	Trial3	pointing/STIM_003.jpg	100
1811.354	1.039	1039.0	pointing	Trial3	pointing/STIM_003.jpg	99
1814.682	0.949	948.8	pointing	Trial3	pointing/STIM_003.jpg	100
1819.566	0.777	776.9	pointing	Trial3	pointing/STIM_003.jpg	100
1822.49	1.313	1313.2	pointing	Trial3	pointing/STIM_003.jpg	99
1826.896	1.232	1231.8	pointing	Trial3	pointing/STIM_004.jpg	99
1830.15	1.045	1044.6	pointing	Trial3	pointing/STIM_004.jpg	99
1833.742	0.916	915.5	pointing	Trial3	pointing/STIM_004.jpg	99
1837.785	1.16	1159.8	pointing	Trial3	pointing/STIM_004.jpg	99
1842.603	1.182	1181.7	pointing	Trial3	pointing/STIM_004.jpg	100
1847.638	1.102	1102.5	pointing	Trial3	pointing/STIM_004.jpg	100
1851.384	1.301	1300.9	pointing	Trial3	pointing/STIM_005.jpg	100
1854.952	1.289	1289.4	pointing	Trial3	pointing/STIM_005.jpg	99
1858.662	1.312	1311.6	pointing	Trial3	pointing/STIM_005.jpg	100
1863.889	0.887	886.9	pointing	Trial3	pointing/STIM_005.jpg	99
1866.843	1.167	1167.4	pointing	Trial3	pointing/STIM_005.jpg	100
1870.642	1.043	1042.8	pointing	Trial3	pointing/STIM_005.jpg	99
1875.223	1.042	1041.9	pointing	Trial3	pointing/STIM_006.jpg	99
1880.058	0.796	796.5	pointing	Trial3	pointing/STIM_006.jpg	99
1883.857	0.835	834.6	pointing	Trial3	pointing/STIM_006.jpg	100
1887.662	0.784	783.9	pointing	Trial3	pointing/STIM_006.jpg	100
1890.982	1.203	1202.8	pointing	Trial3	pointing/STIM_006.jpg	99
1896.154	0.947	946.7	pointing	Trial3	pointing/STIM_006.jpg	100
1900.233	1.201	1201.0	pointing	Trial3	pointing/STIM_007.jpg	99
1905.389	1.043	1042.8	pointing	Trial3	pointing/STIM_007.jpg	99
1909.008	1.0	1000.5	pointing	Trial3	pointing/STIM_007.jpg	100
1912.847	1.0	999.6	pointing	Trial3	pointing/STIM_007.jpg	100
1916.918	1.115	1114.8	pointing	Trial3	pointing/STIM_007.jpg	99
1921.037	1.145	1145.0	pointing	Trial3	pointing/STIM_007.jpg	100
1924.522	1.067	1067.2	pointing	Trial3	pointing/STIM_008.jpg	100
1928.875	0.734	734.2	pointing	Trial3	pointing/STIM_008.jpg	100
1932.813	1.279	1278.6	pointing	Trial3	pointing/STIM_008.jpg	100
1936.754	1.219	1218.8	pointing	Trial3	pointing/STIM_008.jpg	100
1940.54	1.011	1011.2	pointing	Trial3	pointing/STIM_008.jpg	100
1944.526	1.105	1105.4	pointing	Trial3	pointing/STIM_008.jpg	100
1948.966	0.946	945.9	pointing	Trial3	pointing/STIM_009.jpg	99
1952.759	0.738	738.3	pointing	Trial3	pointing/STIM_009.jpg	100
1957.493	1.011	1011.1	pointing	Trial3	pointing/STIM_009.jpg	100
1961.434	1.32	1319.9	pointing	Trial3	pointing/STIM_009.jpg	100
1965.673	0.823	823.1	pointing	Trial3	pointing/STIM_009.jpg	99
1969.936	1.198	1198.3	pointing	Trial3	pointing/STIM_009.jpg	100
1973.595	1.058	1058.1	pointing	Trial3	pointing/STIM_010.jpg	100
1976.983	1.259	1259.3	pointing	Trial3	pointing/STIM_010.jpg	100
1980.391	1.071	1070.9	pointing	Trial3	pointing/STIM_010.jpg	100
1984.42	1.0	999.9	pointing	Trial3	pointing/STIM_010.jpg	100
1989.285	0.756	756.5	pointing	Trial3	pointing/STIM_010.jpg	100
1992.791	1.188	1188.3	pointing	Trial3	pointing/STIM_010.jpg	99
1996.861	0.928	928.3	pointing	Trial3	pointing/STIM_011.jpg	99
2000.28	1.064	1063.7	pointing	Trial3	pointing/STIM_011.jpg	99
2003.686	1.289	1288.8	pointing	Trial3	pointing/STIM_011.jpg	100
2007.785	1.127	1127.4	pointing	Trial3	pointing/STIM_011.jpg	100
2011.821	0.739	739.3	pointing	Trial3	pointing/STIM_011.jpg	100
2016.089	1.104	1103.9	pointing	Trial3	pointing/STIM_011.jpg	100
