onset	duration	response_time_ms	trial_type	learning_stage	stimulus	response_port
0.0	0.636	635.5	incongruent	Block1	incongruent/STIM_000.jpg	100
4.664	0.616	616.0	incongruent	Block1	incongruent/STIM_000.jpg	100
7.633	0.721	720.7	incongruent	Block1	incongruent/STIM_000.jpg	100
12.316	0.928	927.8	incongruent	Block1	incongruent/STIM_000.jpg	99
16.289	0.578	578.4	incongruent	Block1	incongruent/STIM_000.jpg	99
20.416	1.016	1016.5	incongruent	Block1	incongruent/STIM_001.jpg	100
25.393	0.848	847.9	incongruent	Block1	incongruent/STIM_001.jpg	100
29.281	0.833	833.4	incongruent	Block1	incongruent/STIM_001.jpg	100
33.106	0.98	979.8	incongruent	Block1	incongruent/STIM_001.jpg	99
37.282	0.535	535.4	incongruent	Block1	incongruent/STIM_001.jpg	99
41.043	1.001	1000.6	incongruent	Block1	incongruent/STIM_002.jpg	100
45.773	0.727	727.2	incongruent	Block1	incongruent/STIM_002.jpg	100
49.614	0.676	675.9	incongruent	Block1	incongruent/STIM_002.jpg	100
53.583	0.656	656.1	incongruent	Block1	incongruent/STIM_002.jpg	100
58.064	0.53	529.9	incongruent	Block1	incongruent/STIM_002.jpg	100
61.725	0.685	684.8	incongruent	Block1	incongruent/STIM_003.jpg	99
64.616	0.846	845.7	incongruent	Block1	incongruent/STIM_003.jpg	100
68.96	0.94	940.4	incongruent	Block1	incongruent/STIM_003.jpg	100
72.987	1.01	1010.3	incongruent	Block1	incongruent/STIM_003.jpg	99
77.922	1.035	1034.8	incongruent	Block1	incongruent/STIM_003.jpg	99
81.454	0.856	855.9	incongruent	Block1	incongruent/STIM_004.jpg	100
84.83	1.13	1130.5	incongruent	Block1	incongruent/STIM_004.jpg	100
88.627	0.98	980.5	incongruent	Block1	incongruent/STIM_004.jpg	100
93.499	1.0	999.7	incongruent	Block1	incongruent/STIM_004.jpg	100
97.712	0.661	660.8	incongruent	Block1	incongruent/STIM_004.jpg	99
100.629	1.082	1081.6	incongruent	Block1	incongruent/STIM_005.jpg	99
104.094	0.653	652.7	incongruent	Block1	incongruent/STIM_005.jpg	99
108.216	0.75	750.2	incongruent	Block1	incongruent/STIM_005.jpg	99
112.767	0.906	906.2	incongruent	Block1	incongruent/STIM_005.jpg	100
115.889	0.543	543.3	incongruent	Block1	incongruent/STIM_005.jpg	99
118.58	1.175	1175.1	incongruent	Block1	incongruent/STIM_006.jpg	100
122.379	1.074	1073.7	incongruent	Block1	incongruent/STIM_006.jpg	100
126.906	0.95	950.5	incongruent	Block1	incongruent/STIM_006.jpg	100
130.478	0.875	874.9	incongruent	Block1	incongruent/STIM_006.jpg	99
134.999	0.544	543.7	incongruent	Block1	incongruent/STIM_006.jpg	99
139.092	0.921	921.3	incongruent	Block1	incongruent/STIM_007.jpg	99
143.927	0.841	840.6	incongruent	Block1	incongruent/STIM_007.jpg	99
147.146	1.076	1076.3	incongruent	Block1	incongruent/STIM_007.jpg	100
150.951	1.054	1054.3	incongruent	Block1	incongruent/STIM_007.jpg	99
155.606	0.87	869.6	incongruent	Block1	incongruent/STIM_007.jpg	100
158.771	1.152	1151.9	incongruent	Block1	incongruent/STIM_008.jpg	99
163.837	0.803	802.8	incongruent	Block1	incongruent/STIM_008.jpg	100
168.249	0.57	569.8	incongruent	Block1	incongruent/STIM_008.jpg	100
172.656	0.646	646.4	incongruent	Block1	incongruent/STIM_008.jpg	100
176.893	0.798	797.8	incongruent	Block1	incongruent/STIM_008.jpg	99
181.31	0.624	624.3	incongruent	Block1	incongruent/STIM_009.jpg	99
184.184	1.144	1144.3	incongruent	Block1	incongruent/STIM_009.jpg	100
187.789	0.766	765.5	incongruent	Block1	incongruent/STIM_009.jpg	99
192.0	0.989	989.4	incongruent	Block1	incongruent/STIM_009.jpg	99
197.129	0.576	576.2	incongruent	Block1	incongruent/STIM_009.jpg	100
199.855	0.741	741.1	incongruent	Block1	incongruent/STIM_010.jpg	99
203.861	0.935	935.0	incongruent	Block1	incongruent/STIM_010.jpg	99
208.192	1.092	1092.2	incongruent	Block1	incongruent/STIM_010.jpg	99
212.618	1.09	1089.6	incongruent	Block1	incongruent/STIM_010.jpg	99
216.688	1.032	1031.9	incongruent	Block1	incongruent/STIM_010.jpg	99
220.821	0.706	706.1	incongruent	Block1	incongruent/STIM_011.jpg	99
225.473	0.776	776.2	incongruent	Block1	incongruent/STIM_011.jpg	99
229.443	1.062	1061.8	incongruent	Block1	incongruent/STIM_011.jpg	99
234.19	0.529	529.2	incongruent	Block1	incongruent/STIM_011.jpg	99
237.745	0.792	792.2	incongruent	Block1	incongruent/STIM_011.jpg	100
240.779	1.09	1090.4	incongruent	Block1	incongruent/STIM_012.jpg	99
245.489	0.575	574.9	incongruent	Block1	incongruent/STIM_012.jpg	99
249.287	0.901	900.6	incongruent	Block1	incongruent/STIM_012.jpg	99
252.845	0.731	731.0	incongruent	Block1	incongruent/STIM_012.jpg	99
256.479	0.977	977.3	incongruent	Block1	incongruent/STIM_012.jpg	99
260.915	1.146	1146.3	incongruent	Block1	incongruent/STIM_013.jpg	100
265.96	0.631	630.9	incongruent	Block1	incongruent/STIM_013.jpg	99
270.21	0.876	875.8	incongruent	Block1	incongruent/STIM_013.jpg	100
274.777	0.844	843.9	incongruent	Block1	incongruent/STIM_013.jpg	99
279.219	0.575	574.9	incongruent	Block1	incongruent/STIM_013.jpg	99
283.314	0.9	899.9	incongruent	Block1	incongruent/STIM_014.jpg	100
288.325	0.619	619.3	incongruent	Block1	incongruent/STIM_014.jpg	99
291.442	0.591	591.2	incongruent	Block1	incongruent/STIM_014.jpg	100
295.751	0.611	610.8	incongruent	Block1	incongruent/STIM_014.jpg	100
299.081	0.971	970.8	incongruent	Block1	incongruent/STIM_014.jpg	99
303.906	0.72	720.4	incongruent	Block1	incongruent/STIM_015.jpg	99
308.408	0.927	926.9	incongruent	Block1	incongruent/STIM_015.jpg	99
312.47	0.562	561.5	incongruent	Block1	incongruent/STIM_015.jpg	99
316.615	0.56	559.9	incongruent	Block1	incongruent/STIM_015.jpg	99
321.169	0.708	707.5	incongruent	Block1	incongruent/STIM_015.jpg	99
325.389	1.224	1224.1	incongruent	Block1	incongruent/STIM_016.jpg	100
330.376	0.911	911.3	incongruent	Block1	incongruent/STIM_016.jpg	100
334.739	0.814	814.3	incongruent	Block1	incongruent/STIM_016.jpg	100
339.388	0.741	741.2	incongruent	Block1	incongruent/STIM_016.jpg	99
343.334	1.008	1008.2	incongruent	Block1	incongruent/STIM_016.jpg	100
347.455	1.227	1227.4	incongruent	Block1	incongruent/STIM_017.jpg	100
351.416	0.852	852.1	incongruent	Block1	incongruent/STIM_017.jpg	99
354.596	0.957	957.3	incongruent	Block1	incongruent/STIM_017.jpg	99
358.15	0.685	684.7	incongruent	Block1	incongruent/STIM_017.jpg	100
361.876	0.486	486.1	incongruent	Block1	incongruent/STIM_017.jpg	100
364.632	0.698	697.7	incongruent	Block1	incongruent/STIM_018.jpg	99
368.581	1.022	1021.7	incongruent	Block1	incongruent/STIM_018.jpg	100
373.45	0.583	583.1	incongruent	Block1	incongruent/STIM_018.jpg	100
377.582	1.015	1015.3	incongruent	Block1	incongruent/STIM_018.jpg	100
381.174	0.93	930.5	incongruent	Block1	incongruent/STIM_018.jpg	100
385.31	1.161	1160.7	incongruent	Block1	incongruent/STIM_019.jpg	99
388.741	0.575	574.7	incongruent	Block1	incongruent/STIM_019.jpg	100
392.971	0.647	646.9	incongruent	Block1	incongruent/STIM_019.jpg	100
396.392	0.524	523.5	incongruent	Block1	incongruent/STIM_019.jpg	99
399.921	0.928	927.5	incongruent	Block1	incongruent/STIM_019.jpg	99
403.84	0.706	705.6	incongruent	Block1	incongruent/STIM_020.jpg	99
406.929	0.713	713.2	incongruent	Block1	incongruent/STIM_020.jpg	100
411.534	1.086	1085.8	incongruent	Block1	incongruent/STIM_020.jpg	99
415.27	0.906	906.1	incongruent	Block1	incongruent/STIM_020.jpg	99
419.357	0.897	897.2	incongruent	Block1	incongruent/STIM_020.jpg	99
423.965	1.246	1245.8	incongruent	Block1	incongruent/STIM_021.jpg	100
429.15	0.74	740.4	incongruent	Block1	incongruent/STIM_021.jpg	100
432.734	0.823	823.1	incongruent	Block1	incongruent/STIM_021.jpg	100
436.221	0.804	803.8	incongruent	Block1	incongruent/STIM_021.jpg	99
440.196	0.969	968.8	incongruent	Block1	incongruent/STIM_021.jpg	100
444.618	0.919	919.1	incongruent	Block1	incongruent/STIM_022.jpg	100
447.775	1.2	1199.5	incongruent	Block1	incongruent/STIM_022.jpg	99
452.565	0.875	874.8	incongruent	Block1	incongruent/STIM_022.jpg	99
456.343	0.99	990.4	incongruent	Block1	incongruent/STIM_022.jpg	99
460.527	0.887	887.1	incongruent	Block1	incongruent/STIM_022.jpg	100
463.98	0.853	853.2	incongruent	Block1	incongruent/STIM_023.jpg	99
467.707	1.201	1200.8	incongruent	Block1	incongruent/STIM_023.jpg	100
471.932	0.672	671.5	incongruent	Block1	incongruent/STIM_023.jpg	99
474.933	0.53	530.0	incongruent	Block1	incongruent/STIM_023.jpg	100
479.477	0.726	726.0	incongruent	Block1	incongruent/STIM_023.jpg	99
483.806	0.891	891.3	incongruent	Block1	incongruent/STIM_024.jpg	99
488.386	0.838	838.4	incongruent	Block1	incongruent/STIM_024.jpg	100
492.21	0.991	990.6	incongruent	Block1	incongruent/STIM_024.jpg	100
495.798	0.846	845.5	incongruent	Block1	incongruent/STIM_024.jpg	99
500.712	0.988	987.9	incongruent	Block1	incongruent/STIM_024.jpg	99
504.249	1.152	1151.6	incongruent	Block1	incongruent/STIM_025.jpg	99
508.536	0.607	606.9	incongruent	Block1	incongruent/STIM_025.jpg	99
511.35	0.657	657.1	incongruent	Block1	incongruent/STIM_025.jpg	99
514.847	0.875	875.1	incongruent	Block1	incongruent/STIM_025.jpg	100
518.998	0.647	647.4	incongruent	Block1	incongruent/STIM_025.jpg	99
523.65	0.994	994.3	incongruent	Block1	incongruent/STIM_026.jpg	100
526.944	0.85	849.9	incongruent	Block1	incongruent/STIM_026.jpg	100
531.076	0.57	569.7	incongruent	Block1	incongruent/STIM_026.jpg	100
534.683	0.759	758.7	incongruent	Block1	incongruent/STIM_026.jpg	100
537.725	0.869	869.2	incongruent	Block1	incongruent/STIM_026.jpg	100
541.088	1.067	1067.4	incongruent	Block1	incongruent/STIM_027.jpg	100
546.233	0.936	936.4	incongruent	Block1	incongruent/STIM_027.jpg	99
550.955	0.981	980.8	incongruent	Block1	incongruent/STIM_027.jpg	100
554.478	0.818	817.7	incongruent	Block1	incongruent/STIM_027.jpg	100
559.217	0.665	665.1	incongruent	Block1	incongruent/STIM_027.jpg	100
563.953	0.986	986.3	incongruent	Block1	incongruent/STIM_028.jpg	100
567.477	1.03	1029.5	incongruent	Block1	incongruent/STIM_028.jpg	99
572.391	0.752	752.3	incongruent	Block1	incongruent/STIM_028.jpg	100
575.551	1.012	1011.8	incongruent	Block1	incongruent/STIM_028.jpg	100
579.863	0.974	974.2	incongruent	Block1	incongruent/STIM_028.jpg	99
583.349	0.664	663.7	incongruent	Block1	incongruent/STIM_029.jpg	99
586.634	1.148	1148.3	incongruent	Block1	incongruent/STIM_029.jpg	100
591.877	1.033	1032.8	incongruent	Block1	incongruent/STIM_029.jpg	99
595.779	0.978	977.6	incongruent	Block1	incongruent/STIM_029.jpg	99
600.548	0.726	725.9	incongruent	Block1	incongruent/STIM_029.jpg	100
603.95	0.468	468.4	congruent	Block1	congruent/STIM_000.jpg	100
606.685	0.672	672.5	congruent	Block1	congruent/STIM_000.jpg	100
611.121	0.509	509.3	congruent	Block1	congruent/STIM_000.jpg	99
614.438	0.59	590.1	congruent	Block1	congruent/STIM_000.jpg	99
617.801	0.539	538.6	congruent	Block1	congruent/STIM_000.jpg	99
621.885	0.73	730.3	congruent	Block1	congruent/STIM_001.jpg	100
625.601	0.629	629.1	congruent	Block1	congruent/STIM_001.jpg	100
628.537	0.731	730.8	congruent	Block1	congruent/STIM_001.jpg	99
632.002	0.631	630.7	congruent	Block1	congruent/STIM_001.jpg	100
636.587	0.553	553.1	congruent	Block1	congruent/STIM_001.jpg	100
640.313	0.639	639.2	congruent	Block1	congruent/STIM_002.jpg	99
643.137	0.573	573.1	congruent	Block1	congruent/STIM_002.jpg	99
646.734	0.662	661.7	congruent	Block1	congruent/STIM_002.jpg	99
650.305	0.587	587.2	congruent	Block1	congruent/STIM_002.jpg	100
654.091	0.472	472.4	congruent	Block1	congruent/STIM_002.jpg	99
658.557	0.472	472.5	congruent	Block1	congruent/STIM_003.jpg	99
662.752	0.707	706.7	congruent	Block1	congruent/STIM_003.jpg	99
666.129	0.5	499.6	congruent	Block1	congruent/STIM_003.jpg	100
669.769	0.702	701.8	congruent	Block1	congruent/STIM_003.jpg	100
673.317	0.622	621.5	congruent	Block1	congruent/STIM_003.jpg	100
676.322	0.624	624.3	congruent	Block1	congruent/STIM_004.jpg	99
680.491	0.434	434.1	congruent	Block1	congruent/STIM_004.jpg	100
684.365	0.506	506.1	congruent	Block1	congruent/STIM_004.jpg	100
688.663	0.776	775.9	congruent	Block1	congruent/STIM_004.jpg	99
693.529	0.502	502.1	congruent	Block1	congruent/STIM_004.jpg	99
697.177	0.44	439.5	congruent	Block1	congruent/STIM_005.jpg	99
701.226	0.77	769.5	congruent	Block1	congruent/STIM_005.jpg	99
704.218	0.63	630.5	congruent	Block1	congruent/STIM_005.jpg	100
707.263	0.451	450.6	congruent	Block1	congruent/STIM_005.jpg	100
711.709	0.579	579.3	congruent	Block1	congruent/STIM_005.jpg	100
715.435	0.459	459.4	congruent	Block1	congruent/STIM_006.jpg	99
718.333	0.642	642.2	congruent	Block1	congruent/STIM_006.jpg	100
721.76	0.615	614.7	congruent	Block1	congruent/STIM_006.jpg	99
725.455	0.772	772.3	congruent	Block1	congruent/STIM_006.jpg	100
728.994	0.778	777.5	congruent	Block1	congruent/STIM_006.jpg	100
732.175	0.465	465.1	congruent	Block1	congruent/STIM_007.jpg	100
736.637	0.743	742.6	congruent	Block1	congruent/STIM_007.jpg	99
741.37	0.676	676.1	congruent	Block1	congruent/STIM_007.jpg	100
745.226	0.681	681.4	congruent	Block1	congruent/STIM_007.jpg	100
748.695	0.65	649.7	congruent	Block1	congruent/STIM_007.jpg	100
752.643	0.762	761.7	congruent	Block1	congruent/STIM_008.jpg	99
756.825	0.439	438.6	congruent	Block1	congruent/STIM_008.jpg	100
761.15	0.56	559.9	congruent	Block1	congruent/STIM_008.jpg	100
765.541	0.449	448.7	congruent	Block1	congruent/STIM_008.jpg	99
768.237	0.556	555.5	congruent	Block1	congruent/STIM_008.jpg	100
772.678	0.534	534.5	congruent	Block1	congruent/STIM_009.jpg	100
775.696	0.702	702.4	congruent	Block1	congruent/STIM_009.jpg	100
780.036	0.568	567.5	congruent	Block1	congruent/STIM_009.jpg	100
784.247	0.539	539.2	congruent	Block1	congruent/STIM_009.jpg	99
787.251	0.731	731.4	congruent	Block1	congruent/STIM_009.jpg	100
791.436	0.701	700.8	congruent	Block1	congruent/STIM_010.jpg	100
794.395	0.458	457.9	congruent	Block1	congruent/STIM_010.jpg	99
798.693	0.566	566.4	congruent	Block1	congruent/STIM_010.jpg	99
801.472	0.452	452.1	congruent	Block1	congruent/STIM_010.jpg	100
804.111	0.614	614.3	congruent	Block1	congruent/STIM_010.jpg	100
808.224	0.445	444.9	congruent	Block1	congruent/STIM_011.jpg	100
811.866	0.596	595.9	congruent	Block1	congruent/STIM_011.jpg	100
816.47	0.548	548.0	congruent	Block1	congruent/STIM_011.jpg	100
820.276	0.657	657.1	congruent	Block1	congruent/STIM_011.jpg	100
824.792	0.617	617.1	congruent	Block1	congruent/STIM_011.jpg	100
828.221	0.654	654.2	congruent	Block1	congruent/STIM_012.jpg	100
832.682	0.587	587.1	congruent	Block1	congruent/STIM_012.jpg	99
836.123	0.464	463.8	congruent	Block1	congruent/STIM_012.jpg	99
838.991	0.525	525.4	congruent	Block1	congruent/STIM_012.jpg	100
843.344	0.507	507.2	congruent	Block1	congruent/STIM_012.jpg	99
846.858	0.674	673.6	congruent	Block1	congruent/STIM_013.jpg	99
849.998	0.764	763.8	congruent	Block1	congruent/STIM_013.jpg	100
854.07	0.612	612.5	congruent	Block1	congruent/STIM_013.jpg	99
856.84	0.732	731.7	congruent	Block1	congruent/STIM_013.jpg	100
861.1	0.564	564.1	congruent	Block1	congruent/STIM_013.jpg	100
864.032	0.526	525.6	congruent	Block1	congruent/STIM_014.jpg	100
867.005	0.618	617.6	congruent	Block1	congruent/STIM_014.jpg	99
870.603	0.549	548.9	congruent	Block1	congruent/STIM_014.jpg	99
873.333	0.606	606.1	congruent	Block1	congruent/STIM_014.jpg	99
877.926	0.529	529.2	congruent	Block1	congruent/STIM_014.jpg	100
881.123	0.655	655.2	congruent	Block1	congruent/STIM_015.jpg	99
885.381	0.749	749.1	congruent	Block1	congruent/STIM_015.jpg	99
890.034	0.683	682.7	congruent	Block1	congruent/STIM_015.jpg	100
894.672	0.485	485.0	congruent	Block1	congruent/STIM_015.jpg	100
898.995	0.672	671.9	congruent	Block1	congruent/STIM_015.jpg	99
903.563	0.636	636.4	congruent	Block1	congruent/STIM_016.jpg	99
906.783	0.705	705.4	congruent	Block1	congruent/STIM_016.jpg	100
910.397	0.493	493.4	congruent	Block1	congruent/STIM_016.jpg	99
914.865	0.537	537.4	congruent	Block1	congruent/STIM_016.jpg	100
918.553	0.724	724.4	congruent	Block1	congruent/STIM_016.jpg	99
922.169	0.439	439.2	congruent	Block1	congruent/STIM_017.jpg	100
926.114	0.712	712.3	congruent	Block1	congruent/STIM_017.jpg	99
930.296	0.676	675.5	congruent	Block1	congruent/STIM_017.jpg	99
934.58	0.58	579.8	congruent	Block1	congruent/STIM_017.jpg	100
938.951	0.704	703.9	congruent	Block1	congruent/STIM_017.jpg	100
943.195	0.539	539.1	congruent	Block1	congruent/STIM_018.jpg	100
947.186	0.468	467.8	congruent	Block1	congruent/STIM_018.jpg	100
950.508	0.464	464.5	congruent	Block1	congruent/STIM_018.jpg	99
953.862	0.761	760.7	congruent	Block1	congruent/STIM_018.jpg	100
958.458	0.613	613.2	congruent	Block1	congruent/STIM_018.jpg	99
962.388	0.769	768.8	congruent	Block1	congruent/STIM_019.jpg	100
965.872	0.588	587.5	congruent	Block1	congruent/STIM_019.jpg	100
970.497	0.527	526.6	congruent	Block1	congruent/STIM_019.jpg	100
974.87	0.522	521.7	congruent	Block1	congruent/STIM_019.jpg	100
978.331	0.537	536.7	congruent	Block1	congruent/STIM_019.jpg	100
982.009	0.55	549.7	congruent	Block1	congruent/STIM_020.jpg	100
984.731	0.599	599.3	congruent	Block1	congruent/STIM_020.jpg	100
988.455	0.61	610.4	congruent	Block1	congruent/STIM_020.jpg	99
991.982	0.727	726.6	congruent	Block1	congruent/STIM_020.jpg	99
995.005	0.445	445.4	congruent	Block1	congruent/STIM_020.jpg	100
999.093	0.67	669.8	congruent	Block1	congruent/STIM_021.jpg	99
1002.869	0.443	442.6	congruent	Block1	congruent/STIM_021.jpg	99
1005.68	0.583	583.4	congruent	Block1	congruent/STIM_021.jpg	100
1010.084	0.738	738.3	congruent	Block1	congruent/STIM_021.jpg	100
1013.071	0.507	507.5	congruent	Block1	congruent/STIM_021.jpg	100
1017.534	0.558	558.1	congruent	Block1	congruent/STIM_022.jpg	99
1021.941	0.462	462.1	congruent	Block1	congruent/STIM_022.jpg	100
1025.632	0.474	473.6	congruent	Block1	congruent/STIM_022.jpg	99
1030.053	0.711	710.8	congruent	Block1	congruent/STIM_022.jpg	99
1033.58	0.572	572.3	congruent	Block1	congruent/STIM_022.jpg	99
1038.218	0.487	487.3	congruent	Block1	congruent/STIM_023.jpg	99
1042.075	0.518	518.5	congruent	Block1	congruent/STIM_023.jpg	100
1045.823	0.531	530.7	congruent	Block1	congruent/STIM_023.jpg	99
1048.954	0.59	590.4	congruent	Block1	congruent/STIM_023.jpg	99
1051.638	0.474	474.0	congruent	Block1	congruent/STIM_023.jpg	99
1055.962	0.754	754.0	congruent	Block1	congruent/STIM_024.jpg	99
1059.936	0.769	769.3	congruent	Block1	congruent/STIM_024.jpg	100
1064.641	0.448	448.1	congruent	Block1	congruent/STIM_024.jpg	100
1067.891	0.554	553.6	congruent	Block1	congruent/STIM_024.jpg	99
1071.82	0.511	510.8	congruent	Block1	congruent/STIM_024.jpg	99
1075.408	0.65	649.7	congruent	Block1	congruent/STIM_025.jpg	99
1079.626	0.548	548.4	congruent	Block1	congruent/STIM_025.jpg	99
1082.523	0.639	638.6	congruent	Block1	congruent/STIM_025.jpg	100
1086.07	0.551	550.7	congruent	Block1	congruent/STIM_025.jpg	99
1088.969	0.603	603.2	congruent	Block1	congruent/STIM_025.jpg	100
1092.411	0.53	530.0	congruent	Block1	congruent/STIM_026.jpg	99
1096.037	0.758	758.5	congruent	Block1	congruent/STIM_026.jpg	99
1099.729	0.762	761.9	congruent	Block1	congruent/STIM_026.jpg	100
1103.149	0.715	714.8	congruent	Block1	congruent/STIM_026.jpg	100
1106.268	0.646	646.3	congruent	Block1	congruent/STIM_026.jpg	100
1110.096	0.606	606.1	congruent	Block1	congruent/STIM_027.jpg	100
1113.757	0.592	591.5	congruent	Block1	congruent/STIM_027.jpg	99
1117.75	0.752	752.4	congruent	Block1	congruent/STIM_027.jpg	99
1120.836	0.705	705.3	congruent	Block1	congruent/STIM_027.jpg	99
1124.707	0.578	577.5	congruent	Block1	congruent/STIM_027.jpg	99
1128.847	0.575	575.0	congruent	Block1	congruent/STIM_028.jpg	100
1132.09	0.543	542.7	congruent	Block1	congruent/STIM_028.jpg	99
1135.457	0.444	444.3	congruent	Block1	congruent/STIM_028.jpg	99
1139.013	0.497	496.6	congruent	Block1	congruent/STIM_028.jpg	99
1142.429	0.482	481.5	congruent	Block1	congruent/STIM_028.jpg	100
1145.48	0.458	457.5	congruent	Block1	congruent/STIM_029.jpg	100
1149.949	0.599	598.8	congruent	Block1	congruent/STIM_029.jpg	99
1153.839	0.69	689.5	congruent	Block1	congruent/STIM_029.jpg	99
1157.796	0.645	645.2	congruent	Block1	congruent/STIM_029.jpg	100
1162.343	0.566	565.8	congruent	Block1	congruent/STIM_029.jpg	100
1166.578	0.913	912.6	incongruent	Block2	incongruent/STIM_000.jpg	100
1170.545	1.031	1031.2	incongruent	Block2	incongruent/STIM_000.jpg	99
1175.714	0.495	495.1	incongruent	Block2	incongruent/STIM_000.jpg	99
1179.477	0.654	654.0	incongruent	Block2	incongruent/STIM_000.jpg	99
1184.117	0.791	791.2	incongruent	Block2	incongruent/STIM_000.jpg	100
1188.491	0.793	793.3	incongruent	Block2	incongruent/STIM_001.jpg	99
1193.22	0.614	613.7	incongruent	Block2	incongruent/STIM_001.jpg	100
1197.107	0.534	534.5	incongruent	Block2	incongruent/STIM_001.jpg	100
1201.009	0.507	506.9	incongruent	Block2	incongruent/STIM_001.jpg	100
1204.46	0.426	426.1	incongruent	Block2	incongruent/STIM_001.jpg	99
1207.671	1.023	1022.9	incongruent	Block2	incongruent/STIM_002.jpg	100
1212.444	0.801	801.3	incongruent	Block2	incongruent/STIM_002.jpg	100
1215.855	0.947	947.0	incongruent	Block2	incongruent/STIM_002.jpg	99
1219.341	0.631	630.9	incongruent	Block2	incongruent/STIM_002.jpg	100
1223.273	0.511	511.0	incongruent	Block2	incongruent/STIM_002.jpg	100
1226.165	0.873	872.6	incongruent	Block2	incongruent/STIM_003.jpg	100
1230.708	0.824	823.5	incongruent	Block2	incongruent/STIM_003.jpg	100
1234.312	0.794	793.6	incongruent	Block2	incongruent/STIM_003.jpg	100
1237.444	0.549	549.1	incongruent	Block2	incongruent/STIM_003.jpg	100
1240.852	0.434	434.5	incongruent	Block2	incongruent/STIM_003.jpg	99
1245.071	0.553	552.9	incongruent	Block2	incongruent/STIM_004.jpg	99
1249.283	0.986	985.8	incongruent	Block2	incongruent/STIM_004.jpg	100
1253.08	0.605	605.4	incongruent	Block2	incongruent/STIM_004.jpg	99
1255.928	0.819	819.0	incongruent	Block2	incongruent/STIM_004.jpg	99
1260.456	0.493	493.0	incongruent	Block2	incongruent/STIM_004.jpg	99
1263.889	0.786	786.2	incongruent	Block2	incongruent/STIM_005.jpg	100
1267.25	0.516	515.6	incongruent	Block2	incongruent/STIM_005.jpg	99
1270.962	0.596	595.9	incongruent	Block2	incongruent/STIM_005.jpg	100
1275.064	0.593	593.4	incongruent	Block2	incongruent/STIM_005.jpg	99
1277.825	0.733	733.3	incongruent	Block2	incongruent/STIM_005.jpg	99
1281.998	1.041	1040.7	incongruent	Block2	incongruent/STIM_006.jpg	100
1285.368	0.913	912.6	incongruent	Block2	incongruent/STIM_006.jpg	100
1289.78	0.769	769.3	incongruent	Block2	incongruent/STIM_006.jpg	99
1294.049	0.733	733.2	incongruent	Block2	incongruent/STIM_006.jpg	99
1298.679	0.572	571.8	incongruent	Block2	incongruent/STIM_006.jpg	100
1302.419	0.678	678.0	incongruent	Block2	incongruent/STIM_007.jpg	100
1305.29	0.856	856.0	incongruent	Block2	incongruent/STIM_007.jpg	99
1309.456	0.852	852.3	incongruent	Block2	incongruent/STIM_007.jpg	99
1313.53	0.617	617.2	incongruent	Block2	incongruent/STIM_007.jpg	99
1316.655	0.479	479.3	incongruent	Block2	incongruent/STIM_007.jpg	100
1319.901	0.804	803.5	incongruent	Block2	incongruent/STIM_008.jpg	99
1324.759	0.716	716.2	incongruent	Block2	incongruent/STIM_008.jpg	100
1329.485	0.637	637.0	incongruent	Block2	incongruent/STIM_008.jpg	100
1332.831	0.813	812.7	incongruent	Block2	incongruent/STIM_008.jpg	99
1336.485	0.699	698.6	incongruent	Block2	incongruent/STIM_008.jpg	99
1339.409	0.612	612.4	incongruent	Block2	incongruent/STIM_009.jpg	99
1343.382	0.55	550.5	incongruent	Block2	incongruent/STIM_009.jpg	99
1346.585	0.778	777.8	incongruent	Block2	incongruent/STIM_009.jpg	100
1349.972	0.453	452.8	incongruent	Block2	incongruent/STIM_009.jpg	100
1354.422	0.644	644.4	incongruent	Block2	incongruent/STIM_009.jpg	100
1359.144	0.932	932.0	incongruent	Block2	incongruent/STIM_010.jpg	100
1362.301	0.813	813.4	incongruent	Block2	incongruent/STIM_010.jpg	100
1366.67	0.545	544.8	incongruent	Block2	incongruent/STIM_010.jpg	99
1369.727	0.465	464.6	incongruent	Block2	incongruent/STIM_010.jpg	99
1374.054	0.455	455.1	incongruent	Block2	incongruent/STIM_010.jpg	100
1378.238	0.632	632.1	incongruent	Block2	incongruent/STIM_011.jpg	99
1381.494	0.653	653.3	incongruent	Block2	incongruent/STIM_011.jpg	99
1384.67	0.653	652.7	incongruent	Block2	incongruent/STIM_011.jpg	99
1387.678	0.586	585.8	incongruent	Block2	incongruent/STIM_011.jpg	100
1391.159	0.533	533.2	incongruent	Block2	incongruent/STIM_011.jpg	100
1394.264	0.951	951.1	incongruent	Block2	incongruent/STIM_012.jpg	99
1398.775	0.985	984.7	incongruent	Block2	incongruent/STIM_012.jpg	100
1403.557	0.72	720.0	incongruent	Block2	incongruent/STIM_012.jpg	99
1406.663	0.662	661.6	incongruent	Block2	incongruent/STIM_012.jpg	100
1409.915	0.551	551.0	incongruent	Block2	incongruent/STIM_012.jpg	100
1412.871	0.982	981.6	incongruent	Block2	incongruent/STIM_013.jpg	99
1417.971	0.823	823.1	incongruent	Block2	incongruent/STIM_013.jpg	99
1421.672	0.722	721.9	incongruent	Block2	incongruent/STIM_013.jpg	99
1426.187	0.47	469.7	incongruent	Block2	incongruent/STIM_013.jpg	99
1429.27	0.797	797.3	incongruent	Block2	incongruent/STIM_013.jpg	100
1432.814	0.949	949.3	incongruent	Block2	incongruent/STIM_014.jpg	100
1436.904	0.53	529.7	incongruent	Block2	incongruent/STIM_014.jpg	99
1441.011	0.859	858.7	incongruent	Block2	incongruent/STIM_014.jpg	99
1444.046	0.651	650.6	incongruent	Block2	incongruent/STIM_014.jpg	100
1448.38	0.542	542.3	incongruent	Block2	incongruent/STIM_014.jpg	100
1452.179	0.695	695.2	incongruent	Block2	incongruent/STIM_015.jpg	99
1455.855	0.726	726.5	incongruent	Block2	incongruent/STIM_015.jpg	100
1460.325	0.816	815.9	incongruent	Block2	incongruent/STIM_015.jpg	100
1464.836	0.664	663.7	incongruent	Block2	incongruent/STIM_015.jpg	100
1467.876	0.794	793.9	incongruent	Block2	incongruent/STIM_015.jpg	100
1471.504	0.571	570.6	incongruent	Block2	incongruent/STIM_016.jpg	99
1474.897	1.008	1007.5	incongruent	Block2	incongruent/STIM_016.jpg	100
1479.534	0.744	743.9	incongruent	Block2	incongruent/STIM_016.jpg	99
1483.104	0.604	603.6	incongruent	Block2	incongruent/STIM_016.jpg	99
1486.732	0.542	542.1	incongruent	Block2	incongruent/STIM_016.jpg	99
1490.353	1.024	1024.4	incongruent	Block2	incongruent/STIM_017.jpg	99
1494.542	0.541	541.2	incongruent	Block2	incongruent/STIM_017.jpg	99
1498.931	0.811	811.2	incongruent	Block2	incongruent/STIM_017.jpg	99
1503.319	0.827	826.7	incongruent	Block2	incongruent/STIM_017.jpg	100
1508.114	0.672	671.9	incongruent	Block2	incongruent/STIM_017.jpg	99
1511.437	0.629	629.1	incongruent	Block2	incongruent/STIM_018.jpg	100
1514.181	0.783	782.6	incongruent	Block2	incongruent/STIM_018.jpg	99
1518.423	0.819	819.0	incongruent	Block2	incongruent/STIM_018.jpg	100
1522.259	0.702	702.1	incongruent	Block2	incongruent/STIM_018.jpg	99
1527.009	0.45	450.4	incongruent	Block2	incongruent/STIM_018.jpg	99
1531.504	1.078	1078.2	incongruent	Block2	incongruent/STIM_019.jpg	100
1535.698	0.666	665.9	incongruent	Block2	incongruent/STIM_019.jpg	100
1540.092	0.781	781.2	incongruent	Block2	incongruent/STIM_019.jpg	100
1543.249	0.516	515.7	incongruent	Block2	incongruent/STIM_019.jpg	100
1546.643	0.584	583.9	incongruent	Block2	incongruent/STIM_019.jpg	100
1550.094	0.645	645.2	incongruent	Block2	incongruent/STIM_020.jpg	100
1554.357	0.783	783.1	incongruent	Block2	incongruent/STIM_020.jpg	99
1557.294	0.675	675.0	incongruent	Block2	incongruent/STIM_020.jpg	100
1561.696	0.792	792.2	incongruent	Block2	incongruent/STIM_020.jpg	99
1566.44	0.831	831.1	incongruent	Block2	incongruent/STIM_020.jpg	99
1570.545	0.678	677.9	incongruent	Block2	incongruent/STIM_021.jpg	99
1573.552	0.969	968.6	incongruent	Block2	incongruent/STIM_021.jpg	99
1577.859	0.804	804.1	incongruent	Block2	incongruent/STIM_021.jpg	99
1581.203	0.584	584.3	incongruent	Block2	incongruent/STIM_021.jpg	99
1584.276	0.452	451.6	incongruent	Block2	incongruent/STIM_021.jpg	100
1588.544	0.78	780.5	incongruent	Block2	incongruent/STIM_022.jpg	100
1592.756	0.501	500.6	incongruent	Block2	incongruent/STIM_022.jpg	99
1596.998	0.691	691.4	incongruent	Block2	incongruent/STIM_022.jpg	100
1600.417	0.821	821.2	incongruent	Block2	incongruent/STIM_022.jpg	100
1604.844	0.823	822.7	incongruent	Block2	incongruent/STIM_022.jpg	99
1609.024	1.047	1047.1	incongruent	Block2	incongruent/STIM_023.jpg	99
1614.113	0.933	933.0	incongruent	Block2	incongruent/STIM_023.jpg	100
1618.173	0.744	744.1	incongruent	Block2	incongruent/STIM_023.jpg	99
1622.966	0.764	764.1	incongruent	Block2	incongruent/STIM_023.jpg	100
1627.275	0.55	550.4	incongruent	Block2	incongruent/STIM_023.jpg	99
1630.201	0.761	760.8	incongruent	Block2	incongruent/STIM_024.jpg	99
1634.023	0.577	576.7	incongruent	Block2	incongruent/STIM_024.jpg	99
1637.702	0.943	942.9	incongruent	Block2	incongruent/STIM_024.jpg	99
1641.654	0.884	884.2	incongruent	Block2	incongruent/STIM_024.jpg	100
1645.898	0.886	885.7	incongruent	Block2	incongruent/STIM_024.jpg	99
1649.617	0.559	559.3	incongruent	Block2	incongruent/STIM_025.jpg	99
1654.065	0.986	986.3	incongruent	Block2	incongruent/STIM_025.jpg	99
1658.704	0.794	794.3	incongruent	Block2	incongruent/STIM_025.jpg	100
1662.041	0.727	727.1	incongruent	Block2	incongruent/STIM_025.jpg	99
1665.35	0.459	459.0	incongruent	Block2	incongruent/STIM_025.jpg	100
1668.34	1.094	1094.2	incongruent	Block2	incongruent/STIM_026.jpg	100
1672.817	0.86	860.1	incongruent	Block2	incongruent/STIM_026.jpg	100
1677.406	0.907	907.0	incongruent	Block2	incongruent/STIM_026.jpg	100
1682.232	0.519	518.6	incongruent	Block2	incongruent/STIM_026.jpg	100
1685.882	0.64	640.3	incongruent	Block2	incongruent/STIM_026.jpg	99
1689.616	0.728	728.2	incongruent	Block2	incongruent/STIM_027.jpg	100
1693.719	0.679	678.9	incongruent	Block2	incongruent/STIM_027.jpg	99
1696.581	0.821	821.0	incongruent	Block2	incongruent/STIM_027.jpg	100
1700.277	0.459	458.7	incongruent	Block2	incongruent/STIM_027.jpg	99
1703.598	0.779	779.1	incongruent	Block2	incongruent/STIM_027.jpg	99
1708.083	0.579	579.0	incongruent	Block2	incongruent/STIM_028.jpg	100
1711.811	0.974	974.1	incongruent	Block2	incongruent/STIM_028.jpg	99
1715.564	0.883	882.8	incongruent	Block2	incongruent/STIM_028.jpg	99
1720.426	0.507	507.0	incongruent	Block2	incongruent/STIM_028.jpg	99
1724.89	0.791	791.0	incongruent	Block2	incongruent/STIM_028.jpg	99
1729.287	0.716	715.8	incongruent	Block2	incongruent/STIM_029.jpg	99
1733.927	0.911	911.0	incongruent	Block2	incongruent/STIM_029.jpg	99
1737.178	0.79	790.2	incongruent	Block2	incongruent/STIM_029.jpg	99
1740.196	0.685	684.8	incongruent	Block2	incongruent/STIM_029.jpg	99
1744.267	0.693	692.6	incongruent	Block2	incongruent/STIM_029.jpg	99
1747.996	0.451	450.9	congruent	Block2	congruent/STIM_000.jpg	99
1751.198	0.703	702.6	congruent	Block2	congruent/STIM_000.jpg	99
1754.949	0.677	677.0	congruent	Block2	congruent/STIM_000.jpg	99
1758.84	0.776	775.8	congruent	Block2	congruent/STIM_000.jpg	100
1762.47	0.503	502.7	congruent	Block2	congruent/STIM_000.jpg	100
1765.81	0.624	623.5	congruent	Block2	congruent/STIM_001.jpg	100
1769.862	0.48	480.5	congruent	Block2	congruent/STIM_001.jpg	100
1772.508	0.647	646.8	congruent	Block2	congruent/STIM_001.jpg	100
1776.549	0.686	686.3	congruent	Block2	congruent/STIM_001.jpg	99
1780.62	0.708	708.5	congruent	Block2	congruent/STIM_001.jpg	100
1784.051	0.575	575.0	congruent	Block2	congruent/STIM_002.jpg	100
1787.749	0.462	461.9	congruent	Block2	congruent/STIM_002.jpg	99
1790.609	0.445	445.3	congruent	Block2	congruent/STIM_002.jpg	99
1794.33	0.761	760.6	congruent	Block2	congruent/STIM_002.jpg	100
1797.745	0.558	558.4	congruent	Block2	congruent/STIM_002.jpg	100
1801.849	0.692	692.1	congruent	Block2	congruent/STIM_003.jpg	99
1806.64	0.526	525.6	congruent	Block2	congruent/STIM_003.jpg	100
1809.32	0.755	754.9	congruent	Block2	congruent/STIM_003.jpg	99
1813.048	0.445	445.4	congruent	Block2	congruent/STIM_003.jpg	100
1817.442	0.547	547.0	congruent	Block2	congruent/STIM_003.jpg	100
1820.996	0.716	716.0	congruent	Block2	congruent/STIM_004.jpg	100
1824.918	0.504	504.0	congruent	Block2	congruent/STIM_004.jpg	99
1828.254	0.499	498.9	congruent	Block2	congruent/STIM_004.jpg	99
1832.584	0.536	535.9	congruent	Block2	congruent/STIM_004.jpg	99
1836.02	0.625	625.2	congruent	Block2	congruent/STIM_004.jpg	99
1839.435	0.562	562.1	congruent	Block2	congruent/STIM_005.jpg	99
1843.392	0.731	731.2	congruent	Block2	congruent/STIM_005.jpg	99
1846.245	0.752	752.5	congruent	Block2	congruent/STIM_005.jpg	99
1849.775	0.46	459.5	congruent	Block2	congruent/STIM_005.jpg	100
1853.252	0.591	591.2	congruent	Block2	congruent/STIM_005.jpg	99
1857.389	0.647	646.8	congruent	Block2	congruent/STIM_006.jpg	99
1861.865	0.588	588.1	congruent	Block2	congruent/STIM_006.jpg	100
1864.671	0.717	717.0	congruent	Block2	congruent/STIM_006.jpg	99
1867.53	0.607	606.9	congruent	Block2	congruent/STIM_006.jpg	100
1872.052	0.453	452.7	congruent	Block2	congruent/STIM_006.jpg	99
1875.553	0.664	663.6	congruent	Block2	congruent/STIM_007.jpg	100
1879.891	0.686	686.3	congruent	Block2	congruent/STIM_007.jpg	100
1884.273	0.759	759.1	congruent	Block2	congruent/STIM_007.jpg	99
1889.046	0.554	554.2	congruent	Block2	congruent/STIM_007.jpg	99
1892.113	0.62	620.4	congruent	Block2	congruent/STIM_007.jpg	99
1895.189	0.689	689.3	congruent	Block2	congruent/STIM_008.jpg	99
1899.319	0.75	750.3	congruent	Block2	congruent/STIM_008.jpg	100
1903.435	0.516	515.5	congruent	Block2	congruent/STIM_008.jpg	100
1907.776	0.624	623.6	congruent	Block2	congruent/STIM_008.jpg	99
1912.073	0.622	622.1	congruent	Block2	congruent/STIM_008.jpg	100
1914.902	0.506	506.4	congruent	Block2	congruent/STIM_009.jpg	100
1917.98	0.54	540.2	congruent	Block2	congruent/STIM_009.jpg	100
1922.18	0.503	503.2	congruent	Block2	congruent/STIM_009.jpg	99
1924.983	0.564	563.7	congruent	Block2	congruent/STIM_009.jpg	100
1929.14	0.49	490.2	congruent	Block2	congruent/STIM_009.jpg	99
1933.063	0.432	432.4	congruent	Block2	congruent/STIM_010.jpg	99
1935.573	0.708	707.6	congruent	Block2	congruent/STIM_010.jpg	99
1940.23	0.656	656.1	congruent	Block2	congruent/STIM_010.jpg	100
1943.72	0.504	504.4	congruent	Block2	congruent/STIM_010.jpg	100
1948.022	0.478	477.7	congruent	Block2	congruent/STIM_010.jpg	100
1950.733	0.637	636.9	congruent	Block2	congruent/STIM_011.jpg	99
1954.522	0.478	478.0	congruent	Block2	congruent/STIM_011.jpg	100
1958.942	0.466	466.1	congruent	Block2	congruent/STIM_011.jpg	100
1961.831	0.534	534.1	congruent	Block2	congruent/STIM_011.jpg	100
1964.572	0.676	676.1	congruent	Block2	congruent/STIM_011.jpg	99
1967.918	0.772	771.6	congruent	Block2	congruent/STIM_012.jpg	99
1970.856	0.668	668.2	congruent	Block2	congruent/STIM_012.jpg	99
1975.544	0.505	504.6	congruent	Block2	congruent/STIM_012.jpg	100
1979.224	0.474	474.1	congruent	Block2	congruent/STIM_012.jpg	99
1982.259	0.46	460.4	congruent	Block2	congruent/STIM_012.jpg	100
1986.362	0.605	605.0	congruent	Block2	congruent/STIM_013.jpg	99
1989.199	0.571	570.9	congruent	Block2	congruent/STIM_013.jpg	99
1992.553	0.593	593.0	congruent	Block2	congruent/STIM_013.jpg	100
1996.221	0.643	643.1	congruent	Block2	congruent/STIM_013.jpg	100
1999.805	0.487	487.1	congruent	Block2	congruent/STIM_013.jpg	100
2003.892	0.685	684.6	congruent	Block2	congruent/STIM_014.jpg	99
2006.798	0.755	754.6	congruent	Block2	congruent/STIM_014.jpg	99
2011.134	0.646	645.8	congruent	Block2	congruent/STIM_014.jpg	99
2015.158	0.636	635.8	congruent	Block2	congruent/STIM_014.jpg	100
2019.154	0.752	752.2	congruent	Block2	congruent/STIM_014.jpg	99
2022.467	0.437	437.3	congruent	Block2	congruent/STIM_015.jpg	99
2025.941	0.735	735.2	congruent	Block2	congruent/STIM_015.jpg	100
2030.729	0.579	579.3	congruent	Block2	congruent/STIM_015.jpg	100
2034.872	0.443	443.1	congruent	Block2	congruent/STIM_015.jpg	100
2038.339	0.596	596.0	congruent	Block2	congruent/STIM_015.jpg	100
2042.367	0.708	708.3	congruent	Block2	congruent/STIM_016.jpg	99
2045.445	0.734	734.3	congruent	Block2	congruent/STIM_016.jpg	99
2049.602	0.608	607.5	congruent	Block2	congruent/STIM_016.jpg	100
2054.019	0.728	727.6	congruent	Block2	congruent/STIM_016.jpg	99
2056.92	0.666	666.0	congruent	Block2	congruent/STIM_016.jpg	100
2059.807	0.774	774.1	congruent	Block2	congruent/STIM_017.jpg	100
2064.324	0.466	466.1	congruent	Block2	congruent/STIM_017.jpg	99
2066.984	0.627	627.2	congruent	Block2	congruent/STIM_017.jpg	100
2070.352	0.456	456.4	congruent	Block2	congruent/STIM_017.jpg	99
2073.23	0.574	574.4	congruent	Block2	congruent/STIM_017.jpg	100
2076.18	0.674	673.6	congruent	Block2	congruent/STIM_018.jpg	100
2079.072	0.694	693.8	congruent	Block2	congruent/STIM_018.jpg	100
2081.885	0.579	578.9	congruent	Block2	congruent/STIM_018.jpg	100
2086.191	0.482	482.4	congruent	Block2	congruent/STIM_018.jpg	100
2089.468	0.623	622.7	congruent	Block2	congruent/STIM_018.jpg	100
2093.163	0.74	740.1	congruent	Block2	congruent/STIM_019.jpg	100
2096.303	0.436	435.7	congruent	Block2	congruent/STIM_019.jpg	100
2099.674	0.559	558.6	congruent	Block2	congruent/STIM_019.jpg	100
2104.063	0.452	451.9	congruent	Block2	congruent/STIM_019.jpg	99
2108.353	0.605	605.0	congruent	Block2	congruent/STIM_019.jpg	99
2113.021	0.448	448.1	congruent	Block2	congruent/STIM_020.jpg	99
2115.951	0.565	565.0	congruent	Block2	congruent/STIM_020.jpg	99
2119.675	0.44	439.9	congruent	Block2	congruent/STIM_020.jpg	100
2123.792	0.444	443.6	congruent	Block2	congruent/STIM_020.jpg	100
2128.107	0.518	517.8	congruent	Block2	congruent/STIM_020.jpg	99
2131.786	0.588	587.7	congruent	Block2	congruent/STIM_021.jpg	99
2135.556	0.577	577.3	congruent	Block2	congruent/STIM_021.jpg	99
2138.989	0.449	448.7	congruent	Block2	congruent/STIM_021.jpg	100
2143.439	0.454	453.8	congruent	Block2	congruent/STIM_021.jpg	99
2147.176	0.445	444.9	congruent	Block2	congruent/STIM_021.jpg	99
2149.918	0.635	634.6	congruent	Block2	congruent/STIM_022.jpg	100
2152.946	0.692	691.9	congruent	Block2	congruent/STIM_022.jpg	99
2156.364	0.775	774.6	congruent	Block2	congruent/STIM_022.jpg	99
2159.728	0.496	496.2	congruent	Block2	congruent/STIM_022.jpg	99
2162.819	0.482	481.8	congruent	Block2	congruent/STIM_022.jpg	100
2167.037	0.738	737.6	congruent	Block2	congruent/STIM_023.jpg	99
2170.181	0.478	478.1	congruent	Block2	congruent/STIM_023.jpg	100
2173.31	0.651	651.4	congruent	Block2	congruent/STIM_023.jpg	99
2177.802	0.618	617.7	congruent	Block2	congruent/STIM_023.jpg	100
2182.099	0.686	685.6	congruent	Block2	congruent/STIM_023.jpg	99
2185.181	0.725	725.0	congruent	Block2	congruent/STIM_024.jpg	100
2188.314	0.61	610.1	congruent	Block2	congruent/STIM_024.jpg	100
2191.905	0.561	561.2	congruent	Block2	congruent/STIM_024.jpg	99
2194.881	0.468	468.1	congruent	Block2	congruent/STIM_024.jpg	99
2198.673	0.694	693.9	congruent	Block2	congruent/STIM_024.jpg	100
2203.432	0.547	547.3	congruent	Block2	congruent/STIM_025.jpg	99
2207.329	0.454	454.5	congruent	Block2	congruent/STIM_025.jpg	99
2211.649	0.549	549.1	congruent	Block2	congruent/STIM_025.jpg	99
2214.487	0.529	529.4	congruent	Block2	congruent/STIM_025.jpg	99
2217.572	0.745	744.8	congruent	Block2	congruent/STIM_025.jpg	99
2222.285	0.568	568.1	congruent	Block2	congruent/STIM_026.jpg	99
2225.192	0.455	455.1	congruent	Block2	congruent/STIM_026.jpg	99
2228.242	0.47	470.3	congruent	Block2	congruent/STIM_026.jpg	99
2231.701	0.619	619.4	congruent	Block2	congruent/STIM_026.jpg	100
2235.444	0.478	477.9	congruent	Block2	congruent/STIM_026.jpg	100
2238.536	0.585	585.3	congruent	Block2	congruent/STIM_027.jpg	99
2241.938	0.586	585.6	congruent	Block2	congruent/STIM_027.jpg	99
2245.842	0.498	497.6	congruent	Block2	congruent/STIM_027.jpg	99
2249.797	0.721	721.2	congruent	Block2	congruent/STIM_027.jpg	99
2253.676	0.737	737.1	congruent	Block2	congruent/STIM_027.jpg	99
2258.404	0.698	697.6	congruent	Block2	congruent/STIM_028.jpg	100
2261.915	0.62	619.7	congruent	Block2	congruent/STIM_028.jpg	99
2265.199	0.517	516.6	congruent	Block2	congruent/STIM_028.jpg	99
2269.008	0.479	479.2	congruent	Block2	congruent/STIM_028.jpg	100
2273.175	0.673	673.0	congruent	Block2	congruent/STIM_028.jpg	99
2276.113	0.456	456.1	congruent	Block2	congruent/STIM_029.jpg	100
2279.935	0.665	665.4	congruent	Block2	congruent/STIM_029.jpg	99
2283.986	0.748	748.5	congruent	Block2	congruent/STIM_029.jpg	99
2287.104	0.642	641.7	congruent	Block2	congruent/STIM_029.jpg	99
2290.055	0.614	614.2	congruent	Block2	congruent/STIM_029.jpg	100
2294.11	0.83	829.8	incongruent	Block3	incongruent/STIM_000.jpg	100
2298.525	0.715	715.2	incongruent	Block3	incongruent/STIM_000.jpg	100
2302.656	0.431	431.3	incongruent	Block3	incongruent/STIM_000.jpg	100
2305.927	0.83	829.6	incongruent	Block3	incongruent/STIM_000.jpg	100
2309.814	0.454	454.5	incongruent	Block3	incongruent/STIM_000.jpg	100
2313.907	0.512	512.4	incongruent	Block3	incongruent/STIM_001.jpg	100
2317.127	0.902	902.2	incongruent	Block3	incongruent/STIM_001.jpg	99
2321.562	0.889	889.1	incongruent	Block3	incongruent/STIM_001.jpg	100
2324.744	0.83	830.4	incongruent	Block3	incongruent/STIM_001.jpg	99
2327.773	0.457	457.0	incongruent	Block3	incongruent/STIM_001.jpg	100
2331.956	0.571	571.2	incongruent	Block3	incongruent/STIM_002.jpg	99
2335.956	0.776	776.5	incongruent	Block3	incongruent/STIM_002.jpg	99
2339.138	0.706	706.4	incongruent	Block3	incongruent/STIM_002.jpg	100
2343.216	0.715	715.1	incongruent	Block3	incongruent/STIM_002.jpg	100
2346.644	0.901	901.1	incongruent	Block3	incongruent/STIM_002.jpg	99
2349.923	0.566	566.3	incongruent	Block3	incongruent/STIM_003.jpg	99
2353.972	0.873	873.2	incongruent	Block3	incongruent/STIM_003.jpg	99
2358.961	0.607	607.4	incongruent	Block3	incongruent/STIM_003.jpg	99
2362.062	0.8	800.2	incongruent	Block3	incongruent/STIM_003.jpg	100
2365.813	0.763	763.0	incongruent	Block3	incongruent/STIM_003.jpg	99
2369.28	0.582	582.1	incongruent	Block3	incongruent/STIM_004.jpg	100
2373.205	0.624	624.0	incongruent	Block3	incongruent/STIM_004.jpg	99
2376.831	0.743	742.7	incongruent	Block3	incongruent/STIM_004.jpg	100
2380.935	0.425	425.2	incongruent	Block3	incongruent/STIM_004.jpg	100
2384.158	0.636	635.5	incongruent	Block3	incongruent/STIM_004.jpg	100
2388.314	0.602	602.5	incongruent	Block3	incongruent/STIM_005.jpg	99
2392.754	0.453	452.6	incongruent	Block3	incongruent/STIM_005.jpg	99
2395.694	0.672	672.5	incongruent	Block3	incongruent/STIM_005.jpg	99
2400.026	0.899	898.9	incongruent	Block3	incongruent/STIM_005.jpg	100
2404.61	0.605	605.0	incongruent	Block3	incongruent/STIM_005.jpg	99
2407.468	0.526	526.1	incongruent	Block3	incongruent/STIM_006.jpg	100
2411.045	0.628	628.4	incongruent	Block3	incongruent/STIM_006.jpg	100
2415.407	0.598	597.6	incongruent	Block3	incongruent/STIM_006.jpg	99
2419.367	0.907	906.8	incongruent	Block3	incongruent/STIM_006.jpg	100
2423.732	0.568	567.8	incongruent	Block3	incongruent/STIM_006.jpg	100
2426.712	0.705	704.8	incongruent	Block3	incongruent/STIM_007.jpg	100
2430.353	0.875	874.9	incongruent	Block3	incongruent/STIM_007.jpg	99
2434.32	0.572	572.2	incongruent	Block3	incongruent/STIM_007.jpg	100
2437.836	0.511	510.7	incongruent	Block3	incongruent/STIM_007.jpg	99
2441.953	0.596	596.0	incongruent	Block3	incongruent/STIM_007.jpg	100
2445.68	0.455	454.8	incongruent	Block3	incongruent/STIM_008.jpg	100
2449.405	0.58	579.5	incongruent	Block3	incongruent/STIM_008.jpg	100
2453.038	0.442	441.8	incongruent	Block3	incongruent/STIM_008.jpg	100
2455.928	0.646	646.3	incongruent	Block3	incongruent/STIM_008.jpg	100
2458.859	0.484	483.6	incongruent	Block3	incongruent/STIM_008.jpg	100
2462.235	0.524	524.3	incongruent	Block3	incongruent/STIM_009.jpg	99
2466.789	0.561	560.9	incongruent	Block3	incongruent/STIM_009.jpg	99
2471.11	0.456	455.7	incongruent	Block3	incongruent/STIM_009.jpg	100
2474.623	0.893	893.2	incongruent	Block3	incongruent/STIM_009.jpg	99
2478.524	0.78	780.3	incongruent	Block3	incongruent/STIM_009.jpg	99
2482.652	0.54	540.3	incongruent	Block3	incongruent/STIM_010.jpg	99
2485.392	0.875	874.7	incongruent	Block3	incongruent/STIM_010.jpg	100
2489.278	0.639	638.8	incongruent	Block3	incongruent/STIM_010.jpg	100
2493.131	0.603	603.0	incongruent	Block3	incongruent/STIM_010.jpg	99
2497.249	0.595	595.0	incongruent	Block3	incongruent/STIM_010.jpg	100
2501.712	0.865	864.8	incongruent	Block3	incongruent/STIM_011.jpg	100
2505.648	0.86	859.7	incongruent	Block3	incongruent/STIM_011.jpg	100
2509.31	0.833	832.7	incongruent	Block3	incongruent/STIM_011.jpg	99
2513.613	0.434	433.9	incongruent	Block3	incongruent/STIM_011.jpg	99
2517.491	0.788	787.9	incongruent	Block3	incongruent/STIM_011.jpg	99
2521.053	0.719	718.8	incongruent	Block3	incongruent/STIM_012.jpg	99
2523.945	0.714	713.9	incongruent	Block3	incongruent/STIM_012.jpg	100
2528.594	0.513	513.4	incongruent	Block3	incongruent/STIM_012.jpg	100
2532.317	0.856	856.5	incongruent	Block3	incongruent/STIM_012.jpg	99
2535.735	0.51	510.5	incongruent	Block3	incongruent/STIM_012.jpg	100
2539.908	0.86	859.7	incongruent	Block3	incongruent/STIM_013.jpg	100
2544.262	0.863	863.4	incongruent	Block3	incongruent/STIM_013.jpg	99
2548.954	0.707	707.3	incongruent	Block3	incongruent/STIM_013.jpg	100
2553.626	0.757	756.6	incongruent	Block3	incongruent/STIM_013.jpg	100
2557.201	0.444	444.5	incongruent	Block3	incongruent/STIM_013.jpg	99
2560.233	0.558	557.9	incongruent	Block3	incongruent/STIM_014.jpg	100
2563.229	0.703	703.2	incongruent	Block3	incongruent/STIM_014.jpg	100
2566.385	0.466	465.6	incongruent	Block3	incongruent/STIM_014.jpg	99
2570.586	0.808	807.7	incongruent	Block3	incongruent/STIM_014.jpg	99
2573.639	0.601	601.1	incongruent	Block3	incongruent/STIM_014.jpg	99
2576.996	0.85	850.3	incongruent	Block3	incongruent/STIM_015.jpg	99
2580.268	0.582	582.1	incongruent	Block3	incongruent/STIM_015.jpg	99
2584.219	0.801	801.2	incongruent	Block3	incongruent/STIM_015.jpg	99
2589.058	0.898	898.1	incongruent	Block3	incongruent/STIM_015.jpg	100
2593.135	0.561	561.3	incongruent	Block3	incongruent/STIM_015.jpg	100
2597.782	0.492	492.4	incongruent	Block3	incongruent/STIM_016.jpg	99
2601.785	0.717	716.7	incongruent	Block3	incongruent/STIM_016.jpg	99
2604.647	0.562	562.4	incongruent	Block3	incongruent/STIM_016.jpg	100
2607.867	0.626	626.3	incongruent	Block3	incongruent/STIM_016.jpg	99
2612.268	0.89	890.2	incongruent	Block3	incongruent/STIM_016.jpg	99
2616.323	0.712	711.6	incongruent	Block3	incongruent/STIM_017.jpg	100
2620.806	0.609	609.0	incongruent	Block3	incongruent/STIM_017.jpg	99
2624.993	0.468	468.0	incongruent	Block3	incongruent/STIM_017.jpg	99
2629.385	0.74	740.0	incongruent	Block3	incongruent/STIM_017.jpg	100
2632.905	0.527	526.7	incongruent	Block3	incongruent/STIM_017.jpg	100
2636.607	0.8	800.3	incongruent	Block3	incongruent/STIM_018.jpg	100
2641.259	0.665	665.3	incongruent	Block3	incongruent/STIM_018.jpg	99
2645.407	0.541	540.6	incongruent	Block3	incongruent/STIM_018.jpg	99
2648.286	0.464	463.7	incongruent	Block3	incongruent/STIM_018.jpg	100
2651.939	0.746	746.1	incongruent	Block3	incongruent/STIM_018.jpg	100
2656.704	0.708	707.8	incongruent	Block3	incongruent/STIM_019.jpg	100
2660.569	0.736	735.7	incongruent	Block3	incongruent/STIM_019.jpg	99
2664.809	0.754	753.9	incongruent	Block3	incongruent/STIM_019.jpg	100
2668.109	0.428	427.9	incongruent	Block3	incongruent/STIM_019.jpg	99
2672.023	0.751	751.4	incongruent	Block3	incongruent/STIM_019.jpg	100
2675.161	0.877	876.9	incongruent	Block3	incongruent/STIM_020.jpg	99
2678.857	0.696	695.8	incongruent	Block3	incongruent/STIM_020.jpg	100
2683.441	0.483	482.7	incongruent	Block3	incongruent/STIM_020.jpg	99
2687.253	0.856	855.6	incongruent	Block3	incongruent/STIM_020.jpg	100
2691.152	0.784	784.1	incongruent	Block3	incongruent/STIM_020.jpg	100
2694.138	0.467	467.2	incongruent	Block3	incongruent/STIM_021.jpg	100
2696.76	0.51	509.9	incongruent	Block3	incongruent/STIM_021.jpg	100
2700.267	0.442	442.1	incongruent	Block3	incongruent/STIM_021.jpg	99
2704.534	0.48	480.1	incongruent	Block3	incongruent/STIM_021.jpg	99
2707.655	0.625	625.2	incongruent	Block3	incongruent/STIM_021.jpg	99
2711.948	0.575	575.3	incongruent	Block3	incongruent/STIM_022.jpg	100
2716.09	0.732	732.0	incongruent	Block3	incongruent/STIM_022.jpg	100
2719.363	0.638	637.5	incongruent	Block3	incongruent/STIM_022.jpg	100
2722.618	0.557	556.9	incongruent	Block3	incongruent/STIM_022.jpg	100
2726.959	0.531	530.7	incongruent	Block3	incongruent/STIM_022.jpg	100
2730.25	0.779	779.0	incongruent	Block3	incongruent/STIM_023.jpg	99
2733.425	0.646	646.3	incongruent	Block3	incongruent/STIM_023.jpg	100
2737.758	0.571	570.9	incongruent	Block3	incongruent/STIM_023.jpg	100
2740.813	0.782	781.9	incongruent	Block3	incongruent/STIM_023.jpg	100
2743.874	0.695	694.6	incongruent	Block3	incongruent/STIM_023.jpg	99
2746.707	0.807	807.1	incongruent	Block3	incongruent/STIM_024.jpg	99
2751.252	0.805	804.9	incongruent	Block3	incongruent/STIM_024.jpg	100
2755.021	0.819	818.7	incongruent	Block3	incongruent/STIM_024.jpg	99
2759.404	0.508	507.9	incongruent	Block3	incongruent/STIM_024.jpg	100
2763.211	0.424	424.1	incongruent	Block3	incongruent/STIM_024.jpg	100
2767.682	0.442	442.1	incongruent	Block3	incongruent/STIM_025.jpg	99
2771.749	0.843	843.0	incongruent	Block3	incongruent/STIM_025.jpg	99
2774.982	0.649	649.3	incongruent	Block3	incongruent/STIM_025.jpg	99
2778.007	0.826	825.5	incongruent	Block3	incongruent/STIM_025.jpg	99
2782.551	0.613	612.8	incongruent	Block3	incongruent/STIM_025.jpg	99
2786.148	0.791	790.8	incongruent	Block3	incongruent/STIM_026.jpg	99
2789.186	0.467	466.8	incongruent	Block3	incongruent/STIM_026.jpg	99
2792.039	0.581	580.9	incongruent	Block3	incongruent/STIM_026.jpg	99
2796.26	0.582	581.6	incongruent	Block3	incongruent/STIM_026.jpg	100
2799.316	0.721	720.7	incongruent	Block3	incongruent/STIM_026.jpg	99
2802.84	0.794	794.4	incongruent	Block3	incongruent/STIM_027.jpg	99
2807.499	0.453	452.6	incongruent	Block3	incongruent/STIM_027.jpg	99
2810.108	0.547	546.6	incongruent	Block3	incongruent/STIM_027.jpg	100
2812.889	0.542	541.7	incongruent	Block3	incongruent/STIM_027.jpg	100
2815.986	0.627	626.7	incongruent	Block3	incongruent/STIM_027.jpg	100
2820.237	0.723	722.6	incongruent	Block3	incongruent/STIM_028.jpg	100
2824.081	0.573	572.8	incongruent	Block3	incongruent/STIM_028.jpg	100
2826.798	0.725	725.0	incongruent	Block3	incongruent/STIM_028.jpg	100
2829.701	0.508	507.6	incongruent	Block3	incongruent/STIM_028.jpg	99
2832.479	0.586	585.7	incongruent	Block3	incongruent/STIM_028.jpg	100
2836.167	0.44	439.9	incongruent	Block3	incongruent/STIM_029.jpg	99
2839.541	0.491	491.3	incongruent	Block3	incongruent/STIM_029.jpg	99
2842.18	0.472	472.3	incongruent	Block3	incongruent/STIM_029.jpg	99
2845.796	0.644	644.5	incongruent	Block3	incongruent/STIM_029.jpg	100
2849.801	0.885	885.0	incongruent	Block3	incongruent/STIM_029.jpg	99
2854.427	0.625	625.2	congruent	Block3	congruent/STIM_000.jpg	100
2858.413	0.585	584.7	congruent	Block3	congruent/STIM_000.jpg	99
2862.329	0.77	770.0	congruent	Block3	congruent/STIM_000.jpg	100
2865.266	0.623	622.8	congruent	Block3	congruent/STIM_000.jpg	99
2868.139	0.694	694.0	congruent	Block3	congruent/STIM_000.jpg	100
2872.662	0.776	776.3	congruent	Block3	congruent/STIM_001.jpg	100
2876.244	0.463	463.0	congruent	Block3	congruent/STIM_001.jpg	100
2879.254	0.486	485.5	congruent	Block3	congruent/STIM_001.jpg	100
2882.051	0.498	498.3	congruent	Block3	congruent/STIM_001.jpg	99
2885.85	0.661	660.9	congruent	Block3	congruent/STIM_001.jpg	100
2889.06	0.51	509.6	congruent	Block3	congruent/STIM_002.jpg	99
2891.817	0.523	522.9	congruent	Block3	congruent/STIM_002.jpg	100
2895.326	0.548	548.0	congruent	Block3	congruent/STIM_002.jpg	100
2898.808	0.476	476.1	congruent	Block3	congruent/STIM_002.jpg	100
2903.026	0.547	547.3	congruent	Block3	congruent/STIM_002.jpg	100
2905.674	0.647	646.9	congruent	Block3	congruent/STIM_003.jpg	100
2910.272	0.547	547.3	congruent	Block3	congruent/STIM_003.jpg	99
2913.71	0.524	524.0	congruent	Block3	congruent/STIM_003.jpg	99
2916.412	0.691	691.4	congruent	Block3	congruent/STIM_003.jpg	100
2920.189	0.744	743.5	congruent	Block3	congruent/STIM_003.jpg	99
2923.08	0.748	748.4	congruent	Block3	congruent/STIM_004.jpg	100
2926.128	0.438	438.2	congruent	Block3	congruent/STIM_004.jpg	100
2928.729	0.433	432.6	congruent	Block3	congruent/STIM_004.jpg	100
2932.55	0.702	702.4	congruent	Block3	congruent/STIM_004.jpg	99
2936.781	0.634	633.5	congruent	Block3	congruent/STIM_004.jpg	100
2939.858	0.486	485.6	congruent	Block3	congruent/STIM_005.jpg	99
2942.666	0.466	465.5	congruent	Block3	congruent/STIM_005.jpg	99
2945.441	0.676	675.8	congruent	Block3	congruent/STIM_005.jpg	100
2948.613	0.55	550.0	congruent	Block3	congruent/STIM_005.jpg	100
2952.104	0.494	493.6	congruent	Block3	congruent/STIM_005.jpg	100
2956.357	0.586	585.9	congruent	Block3	congruent/STIM_006.jpg	99
2960.654	0.704	704.1	congruent	Block3	congruent/STIM_006.jpg	100
2964.99	0.566	566.3	congruent	Block3	congruent/STIM_006.jpg	100
2969.159	0.604	603.5	congruent	Block3	congruent/STIM_006.jpg	99
2971.991	0.597	597.1	congruent	Block3	congruent/STIM_006.jpg	100
2975.739	0.496	495.9	congruent	Block3	congruent/STIM_007.jpg	99
2979.811	0.573	573.1	congruent	Block3	congruent/STIM_007.jpg	99
2983.917	0.558	558.0	congruent	Block3	congruent/STIM_007.jpg	99
2987.193	0.732	732.5	congruent	Block3	congruent/STIM_007.jpg	99
2990.324	0.744	744.1	congruent	Block3	congruent/STIM_007.jpg	100
2995.059	0.449	449.0	congruent	Block3	congruent/STIM_008.jpg	100
2997.813	0.622	622.2	congruent	Block3	congruent/STIM_008.jpg	99
3000.631	0.475	475.1	congruent	Block3	congruent/STIM_008.jpg	100
3004.493	0.63	629.8	congruent	Block3	congruent/STIM_008.jpg	100
3008.104	0.453	453.4	congruent	Block3	congruent/STIM_008.jpg	100
3011.009	0.614	614.5	congruent	Block3	congruent/STIM_009.jpg	99
3014.143	0.522	522.2	congruent	Block3	congruent/STIM_009.jpg	100
3016.778	0.737	736.9	congruent	Block3	congruent/STIM_009.jpg	99
3020.291	0.557	557.2	congruent	Block3	congruent/STIM_009.jpg	99
3024.0	0.479	479.3	congruent	Block3	congruent/STIM_009.jpg	99
3028.4	0.672	671.9	congruent	Block3	congruent/STIM_010.jpg	100
3032.777	0.669	668.8	congruent	Block3	congruent/STIM_010.jpg	100
3036.787	0.458	457.8	congruent	Block3	congruent/STIM_010.jpg	99
3041.03	0.56	560.2	congruent	Block3	congruent/STIM_010.jpg	99
3044.446	0.446	446.0	congruent	Block3	congruent/STIM_010.jpg	100
3046.986	0.76	759.7	congruent	Block3	congruent/STIM_011.jpg	99
3051.394	0.642	641.8	congruent	Block3	congruent/STIM_011.jpg	99
3054.876	0.723	722.8	congruent	Block3	congruent/STIM_011.jpg	100
3059.251	0.437	437.2	congruent	Block3	congruent/STIM_011.jpg	99
3061.926	0.742	741.6	congruent	Block3	congruent/STIM_011.jpg	99
3065.227	0.546	545.5	congruent	Block3	congruent/STIM_012.jpg	99
3068.211	0.601	600.7	congruent	Block3	congruent/STIM_012.jpg	100
3071.505	0.648	647.6	congruent	Block3	congruent/STIM_012.jpg	100
3075.71	0.454	454.4	congruent	Block3	congruent/STIM_012.jpg	100
3078.444	0.776	776.4	congruent	Block3	congruent/STIM_012.jpg	99
3081.634	0.635	635.0	congruent	Block3	congruent/STIM_013.jpg	100
3084.975	0.466	466.3	congruent	Block3	congruent/STIM_013.jpg	100
3088.543	0.771	771.4	congruent	Block3	congruent/STIM_013.jpg	99
3091.679	0.521	520.7	congruent	Block3	congruent/STIM_013.jpg	100
3096.144	0.533	533.2	congruent	Block3	congruent/STIM_013.jpg	99
3099.554	0.589	589.3	congruent	Block3	congruent/STIM_014.jpg	99
3102.621	0.446	445.7	congruent	Block3	congruent/STIM_014.jpg	100
3105.821	0.571	570.8	congruent	Block3	congruent/STIM_014.jpg	99
3109.603	0.554	553.9	congruent	Block3	congruent/STIM_014.jpg	100
3113.685	0.702	702.2	congruent	Block3	congruent/STIM_014.jpg	100
3117.987	0.771	770.8	congruent	Block3	congruent/STIM_015.jpg	100
3122.543	0.532	531.8	congruent	Block3	congruent/STIM_015.jpg	99
3125.395	0.654	653.5	congruent	Block3	congruent/STIM_015.jpg	100
3129.09	0.687	687.2	congruent	Block3	congruent/STIM_015.jpg	100
3132.846	0.458	458.3	congruent	Block3	congruent/STIM_015.jpg	99
3137.025	0.609	609.1	congruent	Block3	congruent/STIM_016.jpg	100
3141.287	0.513	513.1	congruent	Block3	congruent/STIM_016.jpg	100
3145.538	0.56	559.9	congruent	Block3	congruent/STIM_016.jpg	100
3148.977	0.588	588.4	congruent	Block3	congruent/STIM_016.jpg	99
3152.11	0.712	711.6	congruent	Block3	congruent/STIM_016.jpg	100
3156.885	0.56	560.0	congruent	Block3	congruent/STIM_017.jpg	100
3159.654	0.694	694.2	congruent	Block3	congruent/STIM_017.jpg	99
3162.572	0.521	521.0	congruent	Block3	congruent/STIM_017.jpg	100
3167.147	0.489	489.3	congruent	Block3	congruent/STIM_017.jpg	100
3171.297	0.739	738.9	congruent	Block3	congruent/STIM_017.jpg	99
3176.021	0.614	614.3	congruent	Block3	congruent/STIM_018.jpg	99
3180.522	0.723	723.3	congruent	Block3	congruent/STIM_018.jpg	99
3184.444	0.673	672.7	congruent	Block3	congruent/STIM_018.jpg	99
3188.145	0.746	745.8	congruent	Block3	congruent/STIM_018.jpg	100
3192.448	0.618	618.0	congruent	Block3	congruent/STIM_018.jpg	99
3196.091	0.511	510.9	congruent	Block3	congruent/STIM_019.jpg	99
3199.764	0.58	580.5	congruent	Block3	congruent/STIM_019.jpg	99
3203.575	0.56	559.9	congruent	Block3	congruent/STIM_019.jpg	100
3207.436	0.739	739.0	congruent	Block3	congruent/STIM_019.jpg	99
3211.378	0.617	617.0	congruent	Block3	congruent/STIM_019.jpg	99
3214.157	0.514	513.5	congruent	Block3	congruent/STIM_020.jpg	99
3218.596	0.642	641.8	congruent	Block3	congruent/STIM_020.jpg	99
3221.367	0.491	491.2	congruent	Block3	congruent/STIM_020.jpg	100
3224.252	0.505	504.7	congruent	Block3	congruent/STIM_020.jpg	99
3228.441	0.776	776.4	congruent	Block3	congruent/STIM_020.jpg	99
3231.681	0.766	765.9	congruent	Block3	congruent/STIM_021.jpg	99
3236.144	0.505	505.2	congruent	Block3	congruent/STIM_021.jpg	100
3239.797	0.73	730.2	congruent	Block3	congruent/STIM_021.jpg	99
3243.18	0.468	468.1	congruent	Block3	congruent/STIM_021.jpg	100
3246.165	0.451	451.2	congruent	Block3	congruent/STIM_021.jpg	100
3249.147	0.546	545.6	congruent	Block3	congruent/STIM_022.jpg	100
3253.583	0.468	468.5	congruent	Block3	congruent/STIM_022.jpg	100
3256.425	0.514	513.7	congruent	Block3	congruent/STIM_022.jpg	99
3259.704	0.712	712.5	congruent	Block3	congruent/STIM_022.jpg	99
3264.307	0.718	717.7	congruent	Block3	congruent/STIM_022.jpg	100
3268.254	0.503	503.3	congruent	Block3	congruent/STIM_023.jpg	100
3270.964	0.752	751.6	congruent	Block3	congruent/STIM_023.jpg	100
3273.977	0.515	514.9	congruent	Block3	congruent/STIM_023.jpg	100
3277.888	0.472	472.2	congruent	Block3	congruent/STIM_023.jpg	100
3281.09	0.529	528.7	congruent	Block3	congruent/STIM_023.jpg	100
3283.74	0.672	672.4	congruent	Block3	congruent/STIM_024.jpg	99
3287.591	0.575	575.4	congruent	Block3	congruent/STIM_024.jpg	99
3291.533	0.602	601.5	congruent	Block3	congruent/STIM_024.jpg	99
3294.36	0.688	687.6	congruent	Block3	congruent/STIM_024.jpg	100
3297.944	0.516	515.9	congruent	Block3	congruent/STIM_024.jpg	99
3301.603	0.449	449.2	congruent	Block3	congruent/STIM_025.jpg	100
3304.531	0.584	583.5	congruent	Block3	congruent/STIM_025.jpg	99
3307.356	0.444	443.8	congruent	Block3	congruent/STIM_025.jpg	99
3310.454	0.576	575.5	congruent	Block3	congruent/STIM_025.jpg	100
3314.76	0.491	490.6	congruent	Block3	congruent/STIM_025.jpg	99
3318.709	0.729	728.9	congruent	Block3	congruent/STIM_026.jpg	99
3322.108	0.5	500.2	congruent	Block3	congruent/STIM_026.jpg	100
3325.264	0.67	670.5	congruent	Block3	congruent/STIM_026.jpg	100
3329.391	0.495	495.0	congruent	Block3	congruent/STIM_026.jpg	100
3333.775	0.501	501.1	congruent	Block3	congruent/STIM_026.jpg	99
3338.052	0.618	618.1	congruent	Block3	congruent/STIM_027.jpg	100
3341.431	0.508	507.9	congruent	Block3	congruent/STIM_027.jpg	100
3344.32	0.619	619.2	congruent	Block3	congruent/STIM_027.jpg	99
3348.269	0.492	491.5	congruent	Block3	congruent/STIM_027.jpg	99
3351.428	0.55	550.5	congruent	Block3	congruent/STIM_027.jpg	100
3355.061	0.531	530.7	congruent	Block3	congruent/STIM_028.jpg	100
3358.852	0.728	727.9	congruent	Block3	congruent/STIM_028.jpg	100
3361.847	0.663	663.2	congruent	Block3	congruent/STIM_028.jpg	100
3364.731	0.672	671.9	congruent	Block3	congruent/STIM_028.jpg	100
3368.991	0.475	474.9	congruent	Block3	congruent/STIM_028.jpg	99
3371.873	0.683	683.1	congruent	Block3	congruent/STIM_029.jpg	100
3375.372	0.598	598.2	congruent	Block3	congruent/STIM_029.jpg	99
3378.269	0.631	631.4	congruent	Block3	congruent/STIM_029.jpg	100
3381.833	0.476	475.7	congruent	Block3	congruent/STIM_029.jpg	100
3384.9	0.673	673.2	congruent	Block3	congruent/STIM_029.jpg	100
