onset	duration	response_time_ms	trial_type	learning_stage	stimulus	response_port
0.0	1.282	1282.1	incongruent	Block1	incongruent/STIM_000.jpg	100
4.624	0.888	887.8	incongruent	Block1	incongruent/STIM_000.jpg	100
8.244	1.052	1051.5	incongruent	Block1	incongruent/STIM_000.jpg	100
12.049	0.914	914.5	incongruent	Block1	incongruent/STIM_000.jpg	99
16.286	0.865	865.4	incongruent	Block1	incongruent/STIM_000.jpg	99
21.107	1.522	1522.0	incongruent	Block1	incongruent/STIM_001.jpg	100
25.702	1.421	1421.2	incongruent	Block1	incongruent/STIM_001.jpg	100
30.951	1.386	1386.4	incongruent	Block1	incongruent/STIM_001.jpg	100
35.053	0.954	953.6	incongruent	Block1	incongruent/STIM_001.jpg	99
38.052	0.852	852.4	incongruent	Block1	incongruent/STIM_001.jpg	99
42.847	0.85	850.4	incongruent	Block1	incongruent/STIM_002.jpg	100
46.374	1.125	1125.2	incongruent	Block1	incongruent/STIM_002.jpg	100
50.952	1.529	1529.0	incongruent	Block1	incongruent/STIM_002.jpg	100
56.365	0.824	823.7	incongruent	Block1	incongruent/STIM_002.jpg	100
59.962	1.203	1202.9	incongruent	Block1	incongruent/STIM_002.jpg	100
63.54	1.261	1260.7	incongruent	Block1	incongruent/STIM_003.jpg	99
67.14	1.357	1357.3	incongruent	Block1	incongruent/STIM_003.jpg	100
72.126	1.189	1189.3	incongruent	Block1	incongruent/STIM_003.jpg	100
76.486	1.068	1067.6	incongruent	Block1	incongruent/STIM_003.jpg	99
80.651	1.352	1351.6	incongruent	Block1	incongruent/STIM_003.jpg	99
84.893	0.852	852.3	incongruent	Block1	incongruent/STIM_004.jpg	100
89.373	1.502	1501.9	incongruent	Block1	incongruent/STIM_004.jpg	100
94.703	0.936	935.8	incongruent	Block1	incongruent/STIM_004.jpg	100
98.138	0.823	823.2	incongruent	Block1	incongruent/STIM_004.jpg	100
102.14	1.258	1257.5	incongruent	Block1	incongruent/STIM_004.jpg	99
105.907	1.4	1399.7	incongruent	Block1	incongruent/STIM_005.jpg	99
111.172	1.489	1489.1	incongruent	Block1	incongruent/STIM_005.jpg	99
115.059	0.978	978.1	incongruent	Block1	incongruent/STIM_005.jpg	99
118.366	1.079	1078.7	incongruent	Block1	incongruent/STIM_005.jpg	100
122.293	1.043	1042.8	incongruent	Block1	incongruent/STIM_005.jpg	99
126.981	1.069	1069.0	incongruent	Block1	incongruent/STIM_006.jpg	100
131.118	0.986	986.5	incongruent	Block1	incongruent/STIM_006.jpg	100
134.419	1.016	1015.9	incongruent	Block1	incongruent/STIM_006.jpg	100
139.254	0.802	802.1	incongruent	Block1	incongruent/STIM_006.jpg	99
142.72	0.746	745.8	incongruent	Block1	incongruent/STIM_006.jpg	99
146.917	1.575	1575.3	incongruent	Block1	incongruent/STIM_007.jpg	99
150.826	1.386	1385.8	incongruent	Block1	incongruent/STIM_007.jpg	99
155.549	0.737	737.3	incongruent	Block1	incongruent/STIM_007.jpg	100
159.986	1.196	1196.5	incongruent	Block1	incongruent/STIM_007.jpg	99
164.719	0.775	775.4	incongruent	Block1	incongruent/STIM_007.jpg	100
167.956	1.571	1570.6	incongruent	Block1	incongruent/STIM_008.jpg	99
172.547	1.132	1132.1	incongruent	Block1	incongruent/STIM_008.jpg	100
176.856	1.395	1395.2	incongruent	Block1	incongruent/STIM_008.jpg	100
181.04	0.841	841.4	incongruent	Block1	incongruent/STIM_008.jpg	100
184.909	1.125	1125.2	incongruent	Block1	incongruent/STIM_008.jpg	99
188.241	1.505	1504.7	incongruent	Block1	incongruent/STIM_009.jpg	99
192.644	1.337	1337.2	incongruent	Block1	incongruent/STIM_009.jpg	100
197.823	1.345	1345.1	incongruent	Block1	incongruent/STIM_009.jpg	99
201.871	0.904	903.9	incongruent	Block1	incongruent/STIM_009.jpg	99
204.979	1.122	1122.1	incongruent	Block1	incongruent/STIM_009.jpg	100
209.696	0.946	946.5	incongruent	Block1	incongruent/STIM_010.jpg	99
213.75	0.974	973.8	incongruent	Block1	incongruent/STIM_010.jpg	99
218.153	1.219	1219.3	incongruent	Block1	incongruent/STIM_010.jpg	99
222.978	0.8	800.5	incongruent	Block1	incongruent/STIM_010.jpg	99
227.501	0.877	876.9	incongruent	Block1	incongruent/STIM_010.jpg	99
231.045	0.907	906.9	incongruent	Block1	incongruent/STIM_011.jpg	99
235.519	1.218	1218.2	incongruent	Block1	incongruent/STIM_011.jpg	99
240.206	1.13	1129.7	incongruent	Block1	incongruent/STIM_011.jpg	99
244.814	0.7	700.4	incongruent	Block1	incongruent/STIM_011.jpg	99
248.066	1.23	1230.3	incongruent	Block1	incongruent/STIM_011.jpg	100
252.87	0.822	822.0	incongruent	Block1	incongruent/STIM_012.jpg	99
257.561	1.346	1346.1	incongruent	Block1	incongruent/STIM_012.jpg	99
262.588	1.02	1020.1	incongruent	Block1	incongruent/STIM_012.jpg	99
266.301	1.329	1329.3	incongruent	Block1	incongruent/STIM_012.jpg	99
269.667	0.704	704.0	incongruent	Block1	incongruent/STIM_012.jpg	99
273.705	1.148	1148.0	incongruent	Block1	incongruent/STIM_013.jpg	100
278.033	1.051	1050.8	incongruent	Block1	incongruent/STIM_013.jpg	99
281.807	0.843	843.4	incongruent	Block1	incongruent/STIM_013.jpg	100
284.759	0.913	913.0	incongruent	Block1	incongruent/STIM_013.jpg	99
289.358	0.774	774.0	incongruent	Block1	incongruent/STIM_013.jpg	99
292.816	1.075	1075.0	incongruent	Block1	incongruent/STIM_014.jpg	100
297.677	1.167	1166.9	incongruent	Block1	incongruent/STIM_014.jpg	99
301.092	1.395	1394.6	incongruent	Block1	incongruent/STIM_014.jpg	100
305.759	1.092	1092.1	incongruent	Block1	incongruent/STIM_014.jpg	100
309.127	1.1	1100.1	incongruent	Block1	incongruent/STIM_014.jpg	99
312.375	1.161	1161.2	incongruent	Block1	incongruent/STIM_015.jpg	99
317.263	0.859	859.4	incongruent	Block1	incongruent/STIM_015.jpg	99
321.134	1.023	1022.9	incongruent	Block1	incongruent/STIM_015.jpg	99
326.146	1.03	1029.7	incongruent	Block1	incongruent/STIM_015.jpg	99
330.674	0.911	911.1	incongruent	Block1	incongruent/STIM_015.jpg	99
334.635	0.874	874.5	incongruent	Block1	incongruent/STIM_016.jpg	100
339.256	0.806	805.9	incongruent	Block1	incongruent/STIM_016.jpg	100
343.787	1.528	1527.5	incongruent	Block1	incongruent/STIM_016.jpg	100
349.042	0.84	839.7	incongruent	Block1	incongruent/STIM_016.jpg	99
352.218	1.335	1335.2	incongruent	Block1	incongruent/STIM_016.jpg	100
356.783	1.208	1207.9	incongruent	Block1	incongruent/STIM_017.jpg	100
361.433	1.559	1558.9	incongruent	Block1	incongruent/STIM_017.jpg	99
366.507	1.395	1395.0	incongruent	Block1	incongruent/STIM_017.jpg	99
371.172	1.279	1278.6	incongruent	Block1	incongruent/STIM_017.jpg	100
374.975	1.013	1013.0	incongruent	Block1	incongruent/STIM_017.jpg	100
378.139	1.587	1587.3	incongruent	Block1	incongruent/STIM_018.jpg	99
381.902	1.328	1328.4	incongruent	Block1	incongruent/STIM_018.jpg	100
385.92	1.376	1376.2	incongruent	Block1	incongruent/STIM_018.jpg	100
389.348	0.999	998.7	incongruent	Block1	incongruent/STIM_018.jpg	100
393.266	1.29	1290.0	incongruent	Block1	incongruent/STIM_018.jpg	100
397.526	1.597	1596.9	incongruent	Block1	incongruent/STIM_019.jpg	99
402.478	1.277	1276.7	incongruent	Block1	incongruent/STIM_019.jpg	100
405.919	0.827	827.1	incongruent	Block1	incongruent/STIM_019.jpg	100
410.371	1.438	1438.1	incongruent	Block1	incongruent/STIM_019.jpg	99
415.594	1.125	1125.4	incongruent	Block1	incongruent/STIM_019.jpg	99
419.938	1.058	1057.6	incongruent	Block1	incongruent/STIM_020.jpg	99
424.91	1.276	1276.1	incongruent	Block1	incongruent/STIM_020.jpg	100
428.687	0.8	799.9	incongruent	Block1	incongruent/STIM_020.jpg	99
432.447	1.06	1060.0	incongruent	Block1	incongruent/STIM_020.jpg	99
437.445	0.994	993.7	incongruent	Block1	incongruent/STIM_020.jpg	99
441.231	0.918	918.5	incongruent	Block1	incongruent/STIM_021.jpg	100
444.934	1.511	1511.3	incongruent	Block1	incongruent/STIM_021.jpg	100
448.743	1.487	1486.6	incongruent	Block1	incongruent/STIM_021.jpg	100
453.648	0.969	968.8	incongruent	Block1	incongruent/STIM_021.jpg	99
457.523	0.726	725.5	incongruent	Block1	incongruent/STIM_021.jpg	100
460.466	1.066	1065.6	incongruent	Block1	incongruent/STIM_022.jpg	100
464.895	1.339	1339.1	incongruent	Block1	incongruent/STIM_022.jpg	99
468.739	1.409	1408.8	incongruent	Block1	incongruent/STIM_022.jpg	99
473.342	0.753	752.9	incongruent	Block1	incongruent/STIM_022.jpg	99
477.097	1.053	1053.4	incongruent	Block1	incongruent/STIM_022.jpg	100
480.949	1.222	1222.3	incongruent	Block1	incongruent/STIM_023.jpg	99
484.611	1.167	1167.1	incongruent	Block1	incongruent/STIM_023.jpg	100
488.648	1.503	1503.2	incongruent	Block1	incongruent/STIM_023.jpg	99
494.059	1.439	1438.6	incongruent	Block1	incongruent/STIM_023.jpg	100
499.424	0.998	997.8	incongruent	Block1	incongruent/STIM_023.jpg	99
503.945	0.906	905.5	incongruent	Block1	incongruent/STIM_024.jpg	99
507.091	0.964	964.0	incongruent	Block1	incongruent/STIM_024.jpg	100
510.546	1.12	1120.1	incongruent	Block1	incongruent/STIM_024.jpg	100
514.984	0.938	938.2	incongruent	Block1	incongruent/STIM_024.jpg	99
519.288	1.335	1335.3	incongruent	Block1	incongruent/STIM_024.jpg	99
523.412	1.693	1692.8	incongruent	Block1	incongruent/STIM_025.jpg	99
527.759	1.422	1422.4	incongruent	Block1	incongruent/STIM_025.jpg	99
532.062	1.262	1261.6	incongruent	Block1	incongruent/STIM_025.jpg	99
537.258	1.124	1124.3	incongruent	Block1	incongruent/STIM_025.jpg	100
540.544	0.886	886.0	incongruent	Block1	incongruent/STIM_025.jpg	99
543.587	1.285	1285.1	incongruent	Block1	incongruent/STIM_026.jpg	100
548.819	1.001	1001.0	incongruent	Block1	incongruent/STIM_026.jpg	100
552.945	0.836	835.7	incongruent	Block1	incongruent/STIM_026.jpg	100
557.534	1.199	1199.2	incongruent	Block1	incongruent/STIM_026.jpg	100
562.509	0.886	886.4	incongruent	Block1	incongruent/STIM_026.jpg	100
565.809	1.511	1510.7	incongruent	Block1	incongruent/STIM_027.jpg	100
570.299	0.887	887.1	incongruent	Block1	incongruent/STIM_027.jpg	99
574.764	1.014	1014.3	incongruent	Block1	incongruent/STIM_027.jpg	100
578.241	1.118	1118.5	incongruent	Block1	incongruent/STIM_027.jpg	100
581.76	0.945	945.4	incongruent	Block1	incongruent/STIM_027.jpg	100
585.533	0.816	816.1	incongruent	Block1	incongruent/STIM_028.jpg	100
589.149	0.777	777.3	incongruent	Block1	incongruent/STIM_028.jpg	99
593.55	1.513	1513.0	incongruent	Block1	incongruent/STIM_028.jpg	100
597.428	1.421	1421.1	incongruent	Block1	incongruent/STIM_028.jpg	100
602.739	1.109	1108.6	incongruent	Block1	incongruent/STIM_028.jpg	99
607.003	1.014	1013.8	incongruent	Block1	incongruent/STIM_029.jpg	99
610.955	1.373	1372.8	incongruent	Block1	incongruent/STIM_029.jpg	100
616.097	1.424	1424.4	incongruent	Block1	incongruent/STIM_029.jpg	99
619.765	0.721	720.7	incongruent	Block1	incongruent/STIM_029.jpg	99
622.997	1.196	1195.8	incongruent	Block1	incongruent/STIM_029.jpg	100
626.63	0.853	852.6	congruent	Block1	congruent/STIM_000.jpg	100
630.314	0.891	890.7	congruent	Block1	congruent/STIM_000.jpg	100
634.06	0.868	868.1	congruent	Block1	congruent/STIM_000.jpg	99
637.493	0.737	737.3	congruent	Block1	congruent/STIM_000.jpg	99
640.618	0.953	952.6	congruent	Block1	congruent/STIM_000.jpg	99
644.359	0.781	780.9	congruent	Block1	congruent/STIM_001.jpg	100
648.899	0.788	788.5	congruent	Block1	congruent/STIM_001.jpg	100
653.577	0.687	687.4	congruent	Block1	congruent/STIM_001.jpg	99
656.62	0.575	575.0	congruent	Block1	congruent/STIM_001.jpg	100
660.214	0.6	600.0	congruent	Block1	congruent/STIM_001.jpg	100
663.653	0.626	626.3	congruent	Block1	congruent/STIM_002.jpg	99
667.683	0.573	573.4	congruent	Block1	congruent/STIM_002.jpg	99
672.175	0.872	872.2	congruent	Block1	congruent/STIM_002.jpg	99
675.15	0.702	701.9	congruent	Block1	congruent/STIM_002.jpg	100
679.019	0.851	850.8	congruent	Block1	congruent/STIM_002.jpg	99
682.199	0.637	636.9	congruent	Block1	congruent/STIM_003.jpg	99
686.8	0.631	630.9	congruent	Block1	congruent/STIM_003.jpg	99
690.907	0.77	770.5	congruent	Block1	congruent/STIM_003.jpg	100
693.688	0.965	964.9	congruent	Block1	congruent/STIM_003.jpg	100
697.433	0.917	916.7	congruent	Block1	congruent/STIM_003.jpg	100
701.563	0.642	642.4	congruent	Block1	congruent/STIM_004.jpg	99
705.89	0.849	849.0	congruent	Block1	congruent/STIM_004.jpg	100
710.181	0.915	915.4	congruent	Block1	congruent/STIM_004.jpg	100
713.947	0.97	970.5	congruent	Block1	congruent/STIM_004.jpg	99
717.68	0.715	714.8	congruent	Block1	congruent/STIM_004.jpg	99
722.082	0.717	717.4	congruent	Block1	congruent/STIM_005.jpg	99
725.333	0.824	823.8	congruent	Block1	congruent/STIM_005.jpg	99
729.187	0.755	754.9	congruent	Block1	congruent/STIM_005.jpg	100
732.919	0.858	857.7	congruent	Block1	congruent/STIM_005.jpg	100
736.796	0.781	781.3	congruent	Block1	congruent/STIM_005.jpg	100
739.597	1.01	1010.4	congruent	Block1	congruent/STIM_006.jpg	99
744.032	0.584	583.5	congruent	Block1	congruent/STIM_006.jpg	100
748.361	0.622	622.4	congruent	Block1	congruent/STIM_006.jpg	99
751.322	0.791	791.1	congruent	Block1	congruent/STIM_006.jpg	100
755.022	0.978	977.8	congruent	Block1	congruent/STIM_006.jpg	100
759.423	0.576	575.6	congruent	Block1	congruent/STIM_007.jpg	100
762.893	0.889	888.7	congruent	Block1	congruent/STIM_007.jpg	99
766.761	0.998	997.5	congruent	Block1	congruent/STIM_007.jpg	100
771.628	0.781	780.7	congruent	Block1	congruent/STIM_007.jpg	100
775.836	0.761	760.7	congruent	Block1	congruent/STIM_007.jpg	100
779.371	1.02	1019.6	congruent	Block1	congruent/STIM_008.jpg	99
783.382	0.663	663.1	congruent	Block1	congruent/STIM_008.jpg	100
787.163	0.798	797.7	congruent	Block1	congruent/STIM_008.jpg	100
790.205	0.946	946.2	congruent	Block1	congruent/STIM_008.jpg	99
794.255	0.783	783.1	congruent	Block1	congruent/STIM_008.jpg	100
797.48	0.886	885.6	congruent	Block1	congruent/STIM_009.jpg	100
801.57	0.898	897.7	congruent	Block1	congruent/STIM_009.jpg	100
804.726	0.725	725.2	congruent	Block1	congruent/STIM_009.jpg	100
809.158	0.664	663.9	congruent	Block1	congruent/STIM_009.jpg	99
812.283	1.013	1012.9	congruent	Block1	congruent/STIM_009.jpg	100
816.381	0.958	958.1	congruent	Block1	congruent/STIM_010.jpg	100
820.333	0.594	594.3	congruent	Block1	congruent/STIM_010.jpg	99
823.711	0.596	596.5	congruent	Block1	congruent/STIM_010.jpg	99
827.841	0.848	847.8	congruent	Block1	congruent/STIM_010.jpg	100
830.849	0.696	695.9	congruent	Block1	congruent/STIM_010.jpg	100
833.782	0.83	830.0	congruent	Block1	congruent/STIM_011.jpg	100
836.644	0.615	615.0	congruent	Block1	congruent/STIM_011.jpg	100
840.241	0.596	596.0	congruent	Block1	congruent/STIM_011.jpg	100
844.064	0.685	685.1	congruent	Block1	congruent/STIM_011.jpg	100
846.844	0.619	619.1	congruent	Block1	congruent/STIM_011.jpg	100
849.62	0.617	617.1	congruent	Block1	congruent/STIM_012.jpg	100
852.64	0.729	729.1	congruent	Block1	congruent/STIM_012.jpg	99
856.945	0.832	831.7	congruent	Block1	congruent/STIM_012.jpg	99
860.247	0.638	638.1	congruent	Block1	congruent/STIM_012.jpg	100
863.469	0.698	698.2	congruent	Block1	congruent/STIM_012.jpg	99
866.199	0.858	858.4	congruent	Block1	congruent/STIM_013.jpg	99
869.574	0.988	987.9	congruent	Block1	congruent/STIM_013.jpg	100
873.988	0.584	584.4	congruent	Block1	congruent/STIM_013.jpg	99
876.982	0.714	713.5	congruent	Block1	congruent/STIM_013.jpg	100
881.587	0.642	641.5	congruent	Block1	congruent/STIM_013.jpg	100
884.519	0.778	778.3	congruent	Block1	congruent/STIM_014.jpg	100
888.792	0.751	751.4	congruent	Block1	congruent/STIM_014.jpg	99
891.794	0.932	932.3	congruent	Block1	congruent/STIM_014.jpg	99
895.214	1.016	1015.5	congruent	Block1	congruent/STIM_014.jpg	99
898.686	0.582	581.7	congruent	Block1	congruent/STIM_014.jpg	100
902.021	0.956	956.1	congruent	Block1	congruent/STIM_015.jpg	99
906.028	0.964	964.2	congruent	Block1	congruent/STIM_015.jpg	99
910.317	0.586	586.5	congruent	Block1	congruent/STIM_015.jpg	100
912.914	0.987	987.4	congruent	Block1	congruent/STIM_015.jpg	100
917.782	0.67	669.6	congruent	Block1	congruent/STIM_015.jpg	99
921.902	0.712	711.7	congruent	Block1	congruent/STIM_016.jpg	99
925.788	0.856	856.2	congruent	Block1	congruent/STIM_016.jpg	100
930.298	0.637	636.9	congruent	Block1	congruent/STIM_016.jpg	99
934.045	0.598	598.5	congruent	Block1	congruent/STIM_016.jpg	100
938.218	0.799	799.3	congruent	Block1	congruent/STIM_016.jpg	99
941.999	0.754	753.6	congruent	Block1	congruent/STIM_017.jpg	100
946.098	0.806	806.3	congruent	Block1	congruent/STIM_017.jpg	99
949.699	0.594	593.5	congruent	Block1	congruent/STIM_017.jpg	99
953.752	0.584	584.4	congruent	Block1	congruent/STIM_017.jpg	100
957.507	0.741	741.1	congruent	Block1	congruent/STIM_017.jpg	100
962.187	0.758	758.0	congruent	Block1	congruent/STIM_018.jpg	100
965.499	0.945	944.9	congruent	Block1	congruent/STIM_018.jpg	100
970.095	0.833	833.4	congruent	Block1	congruent/STIM_018.jpg	99
973.232	0.74	740.0	congruent	Block1	congruent/STIM_018.jpg	100
977.612	0.604	604.3	congruent	Block1	congruent/STIM_018.jpg	99
981.142	1.003	1002.6	congruent	Block1	congruent/STIM_019.jpg	100
984.363	0.939	938.9	congruent	Block1	congruent/STIM_019.jpg	100
987.342	0.967	967.0	congruent	Block1	congruent/STIM_019.jpg	100
990.609	0.934	933.5	congruent	Block1	congruent/STIM_019.jpg	100
994.9	0.75	750.3	congruent	Block1	congruent/STIM_019.jpg	100
997.915	0.797	796.8	congruent	Block1	congruent/STIM_020.jpg	100
1002.335	0.803	802.6	congruent	Block1	congruent/STIM_020.jpg	100
1006.532	0.61	610.3	congruent	Block1	congruent/STIM_020.jpg	99
1009.249	0.699	699.1	congruent	Block1	congruent/STIM_020.jpg	99
1012.808	0.715	715.1	congruent	Block1	congruent/STIM_020.jpg	100
1016.314	0.842	841.5	congruent	Block1	congruent/STIM_021.jpg	99
1019.767	0.67	670.0	congruent	Block1	congruent/STIM_021.jpg	99
1024.341	0.982	982.4	congruent	Block1	congruent/STIM_021.jpg	100
1027.622	0.574	573.7	congruent	Block1	congruent/STIM_021.jpg	100
1032.049	0.642	641.9	congruent	Block1	congruent/STIM_021.jpg	100
1035.862	0.829	829.2	congruent	Block1	congruent/STIM_022.jpg	99
1040.441	0.654	653.5	congruent	Block1	congruent/STIM_022.jpg	100
1044.719	0.818	818.1	congruent	Block1	congruent/STIM_022.jpg	99
1048.237	0.743	743.3	congruent	Block1	congruent/STIM_022.jpg	99
1052.775	0.605	604.6	congruent	Block1	congruent/STIM_022.jpg	99
1056.027	0.956	956.0	congruent	Block1	congruent/STIM_023.jpg	99
1059.319	0.852	851.9	congruent	Block1	congruent/STIM_023.jpg	100
1064.049	0.714	714.0	congruent	Block1	congruent/STIM_023.jpg	99
1068.702	0.594	593.9	congruent	Block1	congruent/STIM_023.jpg	99
1071.494	0.896	896.1	congruent	Block1	congruent/STIM_023.jpg	99
1075.981	0.579	578.7	congruent	Block1	congruent/STIM_024.jpg	99
1080.375	0.839	838.8	congruent	Block1	congruent/STIM_024.jpg	100
1083.361	0.911	910.8	congruent	Block1	congruent/STIM_024.jpg	100
1086.395	0.844	843.7	congruent	Block1	congruent/STIM_024.jpg	99
1089.67	0.778	778.3	congruent	Block1	congruent/STIM_024.jpg	99
1092.953	0.87	869.9	congruent	Block1	congruent/STIM_025.jpg	99
1097.579	0.98	980.2	congruent	Block1	congruent/STIM_025.jpg	99
1100.711	1.006	1006.2	congruent	Block1	congruent/STIM_025.jpg	100
1105.084	0.778	778.3	congruent	Block1	congruent/STIM_025.jpg	99
1108.14	0.867	866.9	congruent	Block1	congruent/STIM_025.jpg	100
1111.795	0.888	888.0	congruent	Block1	congruent/STIM_026.jpg	99
1115.324	0.794	793.5	congruent	Block1	congruent/STIM_026.jpg	99
1119.194	0.858	857.6	congruent	Block1	congruent/STIM_026.jpg	100
1123.172	0.855	855.3	congruent	Block1	congruent/STIM_026.jpg	100
1127.891	0.981	980.6	congruent	Block1	congruent/STIM_026.jpg	100
1132.387	0.737	736.9	congruent	Block1	congruent/STIM_027.jpg	100
1136.006	0.83	829.7	congruent	Block1	congruent/STIM_027.jpg	99
1140.376	0.964	963.5	congruent	Block1	congruent/STIM_027.jpg	99
1143.691	0.905	904.9	congruent	Block1	congruent/STIM_027.jpg	99
1148.28	0.657	657.2	congruent	Block1	congruent/STIM_027.jpg	99
1151.769	0.997	996.8	congruent	Block1	congruent/STIM_028.jpg	100
1155.529	0.863	862.7	congruent	Block1	congruent/STIM_028.jpg	99
1160.236	0.936	935.9	congruent	Block1	congruent/STIM_028.jpg	99
1163.423	0.971	971.3	congruent	Block1	congruent/STIM_028.jpg	99
1167.943	0.758	757.5	congruent	Block1	congruent/STIM_028.jpg	100
1171.164	0.569	569.3	congruent	Block1	congruent/STIM_029.jpg	100
1174.84	0.919	919.3	congruent	Block1	congruent/STIM_029.jpg	99
1179.282	0.694	694.4	congruent	Block1	congruent/STIM_029.jpg	99
1182.59	0.98	979.7	congruent	Block1	congruent/STIM_029.jpg	100
1186.673	0.783	782.7	congruent	Block1	congruent/STIM_029.jpg	100
1190.201	0.803	803.2	incongruent	Block2	incongruent/STIM_000.jpg	100
1194.437	1.138	1137.9	incongruent	Block2	incongruent/STIM_000.jpg	99
1197.636	0.878	878.2	incongruent	Block2	incongruent/STIM_000.jpg	99
1201.585	1.043	1043.3	incongruent	Block2	incongruent/STIM_000.jpg	99
1205.418	0.592	592.5	incongruent	Block2	incongruent/STIM_000.jpg	100
1208.412	1.286	1286.4	incongruent	Block2	incongruent/STIM_001.jpg	99
1212.285	1.284	1284.2	incongruent	Block2	incongruent/STIM_001.jpg	100
1216.648	0.608	608.2	incongruent	Block2	incongruent/STIM_001.jpg	100
1220.507	0.594	593.5	incongruent	Block2	incongruent/STIM_001.jpg	100
1224.338	0.699	699.4	incongruent	Block2	incongruent/STIM_001.jpg	99
1229.015	0.904	904.3	incongruent	Block2	incongruent/STIM_002.jpg	100
1233.136	1.231	1231.3	incongruent	Block2	incongruent/STIM_002.jpg	100
1236.703	0.922	922.0	incongruent	Block2	incongruent/STIM_002.jpg	99
1240.894	1.004	1003.9	incongruent	Block2	incongruent/STIM_002.jpg	100
1245.825	1.144	1144.4	incongruent	Block2	incongruent/STIM_002.jpg	100
1250.539	1.348	1347.7	incongruent	Block2	incongruent/STIM_003.jpg	100
1254.559	1.023	1023.1	incongruent	Block2	incongruent/STIM_003.jpg	100
1259.34	0.683	683.0	incongruent	Block2	incongruent/STIM_003.jpg	100
1263.187	1.148	1148.2	incongruent	Block2	incongruent/STIM_003.jpg	100
1266.722	0.688	688.1	incongruent	Block2	incongruent/STIM_003.jpg	99
1270.907	1.018	1017.7	incongruent	Block2	incongruent/STIM_004.jpg	99
1275.636	1.317	1317.1	incongruent	Block2	incongruent/STIM_004.jpg	100
1279.234	0.632	632.2	incongruent	Block2	incongruent/STIM_004.jpg	99
1283.03	1.146	1146.5	incongruent	Block2	incongruent/STIM_004.jpg	99
1287.353	0.626	625.6	incongruent	Block2	incongruent/STIM_004.jpg	99
1290.368	0.76	759.6	incongruent	Block2	incongruent/STIM_005.jpg	100
1294.904	0.887	886.8	incongruent	Block2	incongruent/STIM_005.jpg	99
1298.95	0.675	674.9	incongruent	Block2	incongruent/STIM_005.jpg	100
1302.375	0.876	875.6	incongruent	Block2	incongruent/STIM_005.jpg	99
1305.725	0.91	909.9	incongruent	Block2	incongruent/STIM_005.jpg	99
1310.304	1.375	1374.7	incongruent	Block2	incongruent/STIM_006.jpg	100
1315.147	0.875	875.2	incongruent	Block2	incongruent/STIM_006.jpg	100
1319.97	0.794	793.9	incongruent	Block2	incongruent/STIM_006.jpg	99
1323.368	0.904	904.4	incongruent	Block2	incongruent/STIM_006.jpg	99
1326.438	1.046	1045.7	incongruent	Block2	incongruent/STIM_006.jpg	100
1330.646	1.256	1256.3	incongruent	Block2	incongruent/STIM_007.jpg	100
1333.996	0.93	929.7	incongruent	Block2	incongruent/STIM_007.jpg	99
1337.908	0.845	844.8	incongruent	Block2	incongruent/STIM_007.jpg	99
1342.041	0.728	727.5	incongruent	Block2	incongruent/STIM_007.jpg	99
1345.87	0.681	681.4	incongruent	Block2	incongruent/STIM_007.jpg	100
1348.884	0.814	814.1	incongruent	Block2	incongruent/STIM_008.jpg	99
1352.214	0.662	661.6	incongruent	Block2	incongruent/STIM_008.jpg	100
1356.434	0.942	942.2	incongruent	Block2	incongruent/STIM_008.jpg	100
1360.076	0.703	703.0	incongruent	Block2	incongruent/STIM_008.jpg	99
1364.045	1.017	1016.7	incongruent	Block2	incongruent/STIM_008.jpg	99
1367.965	1.17	1169.5	incongruent	Block2	incongruent/STIM_009.jpg	99
1371.672	0.926	925.5	incongruent	Block2	incongruent/STIM_009.jpg	99
1375.161	0.75	750.3	incongruent	Block2	incongruent/STIM_009.jpg	100
1379.613	0.883	883.2	incongruent	Block2	incongruent/STIM_009.jpg	100
1383.54	0.649	648.6	incongruent	Block2	incongruent/STIM_009.jpg	100
1387.722	0.928	927.9	incongruent	Block2	incongruent/STIM_010.jpg	100
1391.762	1.346	1346.4	incongruent	Block2	incongruent/STIM_010.jpg	100
1396.243	0.753	752.7	incongruent	Block2	incongruent/STIM_010.jpg	99
1399.726	1.071	1071.0	incongruent	Block2	incongruent/STIM_010.jpg	99
1404.639	0.813	812.9	incongruent	Block2	incongruent/STIM_010.jpg	100
1407.908	0.745	745.0	incongruent	Block2	incongruent/STIM_011.jpg	99
1411.726	0.762	761.7	incongruent	Block2	incongruent/STIM_011.jpg	99
1414.63	0.882	882.2	incongruent	Block2	incongruent/STIM_011.jpg	99
1417.927	0.816	815.5	incongruent	Block2	incongruent/STIM_011.jpg	100
1420.988	1.148	1148.5	incongruent	Block2	incongruent/STIM_011.jpg	100
1424.929	1.369	1369.2	incongruent	Block2	incongruent/STIM_012.jpg	99
1430.046	0.862	862.4	incongruent	Block2	incongruent/STIM_012.jpg	100
1434.558	0.615	614.8	incongruent	Block2	incongruent/STIM_012.jpg	99
1437.586	0.592	591.9	incongruent	Block2	incongruent/STIM_012.jpg	100
1441.944	0.996	995.7	incongruent	Block2	incongruent/STIM_012.jpg	100
1446.217	0.694	693.5	incongruent	Block2	incongruent/STIM_013.jpg	99
1450.044	0.917	917.0	incongruent	Block2	incongruent/STIM_013.jpg	99
1454.632	0.963	963.4	incongruent	Block2	incongruent/STIM_013.jpg	99
1458.439	0.915	915.1	incongruent	Block2	incongruent/STIM_013.jpg	99
1461.958	1.021	1021.0	incongruent	Block2	incongruent/STIM_013.jpg	100
1466.389	0.817	816.6	incongruent	Block2	incongruent/STIM_014.jpg	100
1470.969	1.1	1100.4	incongruent	Block2	incongruent/STIM_014.jpg	99
1474.77	0.771	771.3	incongruent	Block2	incongruent/STIM_014.jpg	99
1478.514	1.15	1149.5	incongruent	Block2	incongruent/STIM_014.jpg	100
1481.699	0.8	799.9	incongruent	Block2	incongruent/STIM_014.jpg	100
1486.12	1.378	1377.7	incongruent	Block2	incongruent/STIM_015.jpg	99
1490.237	1.339	1339.0	incongruent	Block2	incongruent/STIM_015.jpg	100
1494.368	1.2	1200.5	incongruent	Block2	incongruent/STIM_015.jpg	100
1498.425	1.064	1064.4	incongruent	Block2	incongruent/STIM_015.jpg	100
1503.421	1.132	1131.5	incongruent	Block2	incongruent/STIM_015.jpg	100
1507.344	0.718	718.2	incongruent	Block2	incongruent/STIM_016.jpg	99
1510.745	1.236	1236.5	incongruent	Block2	incongruent/STIM_016.jpg	100
1515.83	1.226	1225.8	incongruent	Block2	incongruent/STIM_016.jpg	99
1520.646	1.084	1083.9	incongruent	Block2	incongruent/STIM_016.jpg	99
1525.352	0.745	745.3	incongruent	Block2	incongruent/STIM_016.jpg	99
1529.375	1.202	1201.6	incongruent	Block2	incongruent/STIM_017.jpg	99
1533.057	1.163	1163.2	incongruent	Block2	incongruent/STIM_017.jpg	99
1537.252	1.144	1144.2	incongruent	Block2	incongruent/STIM_017.jpg	99
1540.907	0.664	663.5	incongruent	Block2	incongruent/STIM_017.jpg	100
1544.754	1.152	1152.3	incongruent	Block2	incongruent/STIM_017.jpg	99
1548.95	0.751	750.8	incongruent	Block2	incongruent/STIM_018.jpg	100
1551.851	0.942	941.9	incongruent	Block2	incongruent/STIM_018.jpg	99
1556.668	0.779	778.9	incongruent	Block2	incongruent/STIM_018.jpg	100
1560.933	1.176	1176.2	incongruent	Block2	incongruent/STIM_018.jpg	99
1564.654	0.701	701.3	incongruent	Block2	incongruent/STIM_018.jpg	99
1568.082	1.011	1010.9	incongruent	Block2	incongruent/STIM_019.jpg	100
1571.902	0.871	871.0	incongruent	Block2	incongruent/STIM_019.jpg	100
1575.667	0.714	713.7	incongruent	Block2	incongruent/STIM_019.jpg	100
1579.612	0.644	644.2	incongruent	Block2	incongruent/STIM_019.jpg	100
1583.978	0.659	658.9	incongruent	Block2	incongruent/STIM_019.jpg	100
1588.027	1.268	1268.0	incongruent	Block2	incongruent/STIM_020.jpg	100
1592.678	0.786	786.5	incongruent	Block2	incongruent/STIM_020.jpg	99
1597.461	0.719	719.2	incongruent	Block2	incongruent/STIM_020.jpg	100
1600.544	1.004	1004.2	incongruent	Block2	incongruent/STIM_020.jpg	99
1605.137	1.158	1158.5	incongruent	Block2	incongruent/STIM_020.jpg	99
1608.593	0.867	867.2	incongruent	Block2	incongruent/STIM_021.jpg	99
1612.76	0.761	761.1	incongruent	Block2	incongruent/STIM_021.jpg	99
1617.116	0.635	634.8	incongruent	Block2	incongruent/STIM_021.jpg	99
1620.407	1.055	1054.6	incongruent	Block2	incongruent/STIM_021.jpg	99
1624.4	0.708	708.3	incongruent	Block2	incongruent/STIM_021.jpg	100
1627.958	0.762	762.2	incongruent	Block2	incongruent/STIM_022.jpg	100
1631.076	0.841	841.3	incongruent	Block2	incongruent/STIM_022.jpg	99
1633.948	0.76	759.9	incongruent	Block2	incongruent/STIM_022.jpg	100
1637.709	0.724	724.1	incongruent	Block2	incongruent/STIM_022.jpg	100
1640.687	0.702	702.4	incongruent	Block2	incongruent/STIM_022.jpg	99
1644.53	1.022	1022.2	incongruent	Block2	incongruent/STIM_023.jpg	99
1649.546	1.158	1158.3	incongruent	Block2	incongruent/STIM_023.jpg	100
1652.953	1.208	1208.5	incongruent	Block2	incongruent/STIM_023.jpg	99
1658.07	0.94	940.3	incongruent	Block2	incongruent/STIM_023.jpg	100
1661.888	0.922	921.8	incongruent	Block2	incongruent/STIM_023.jpg	99
1666.679	1.298	1298.4	incongruent	Block2	incongruent/STIM_024.jpg	99
1671.043	0.784	783.5	incongruent	Block2	incongruent/STIM_024.jpg	99
1675.541	0.732	732.2	incongruent	Block2	incongruent/STIM_024.jpg	99
1679.26	0.854	854.2	incongruent	Block2	incongruent/STIM_024.jpg	100
1683.856	0.865	864.7	incongruent	Block2	incongruent/STIM_024.jpg	99
1688.012	1.351	1351.0	incongruent	Block2	incongruent/STIM_025.jpg	99
1692.336	1.244	1243.6	incongruent	Block2	incongruent/STIM_025.jpg	99
1695.993	1.107	1107.0	incongruent	Block2	incongruent/STIM_025.jpg	100
1699.449	0.662	662.0	incongruent	Block2	incongruent/STIM_025.jpg	99
1703.014	0.65	650.1	incongruent	Block2	incongruent/STIM_025.jpg	100
1706.561	0.959	958.7	incongruent	Block2	incongruent/STIM_026.jpg	100
1710.92	0.76	760.1	incongruent	Block2	incongruent/STIM_026.jpg	100
1714.487	0.828	828.1	incongruent	Block2	incongruent/STIM_026.jpg	100
1718.323	0.583	583.3	incongruent	Block2	incongruent/STIM_026.jpg	100
1721.529	1.041	1040.6	incongruent	Block2	incongruent/STIM_026.jpg	99
1725.197	1.108	1108.1	incongruent	Block2	incongruent/STIM_027.jpg	100
1729.923	0.999	999.2	incongruent	Block2	incongruent/STIM_027.jpg	99
1733.6	0.915	914.8	incongruent	Block2	incongruent/STIM_027.jpg	100
1737.227	1.031	1031.4	incongruent	Block2	incongruent/STIM_027.jpg	99
1742.141	0.989	988.6	incongruent	Block2	incongruent/STIM_027.jpg	99
1746.447	1.083	1083.4	incongruent	Block2	incongruent/STIM_028.jpg	100
1751.096	1.252	1251.5	incongruent	Block2	incongruent/STIM_028.jpg	99
1755.15	0.897	897.4	incongruent	Block2	incongruent/STIM_028.jpg	99
1759.859	1.057	1057.1	incongruent	Block2	incongruent/STIM_028.jpg	99
1764.064	0.951	950.6	incongruent	Block2	incongruent/STIM_028.jpg	99
1767.892	0.704	703.7	incongruent	Block2	incongruent/STIM_029.jpg	99
1771.882	0.717	716.7	incongruent	Block2	incongruent/STIM_029.jpg	99
1775.688	0.97	970.3	incongruent	Block2	incongruent/STIM_029.jpg	99
1779.586	0.844	844.2	incongruent	Block2	incongruent/STIM_029.jpg	99
1783.953	0.686	686.4	incongruent	Block2	incongruent/STIM_029.jpg	99
1787.572	0.96	960.3	congruent	Block2	congruent/STIM_000.jpg	99
1792.125	0.981	980.8	congruent	Block2	congruent/STIM_000.jpg	99
1796.519	0.722	721.5	congruent	Block2	congruent/STIM_000.jpg	99
1799.655	0.635	635.0	congruent	Block2	congruent/STIM_000.jpg	100
1803.097	0.682	681.7	congruent	Block2	congruent/STIM_000.jpg	100
1807.723	1.014	1013.8	congruent	Block2	congruent/STIM_001.jpg	100
1811.638	0.659	658.9	congruent	Block2	congruent/STIM_001.jpg	100
1815.465	0.92	920.0	congruent	Block2	congruent/STIM_001.jpg	100
1819.392	0.592	591.9	congruent	Block2	congruent/STIM_001.jpg	99
1823.548	0.965	965.0	congruent	Block2	congruent/STIM_001.jpg	100
1827.098	0.914	914.1	congruent	Block2	congruent/STIM_002.jpg	100
1830.123	0.72	720.1	congruent	Block2	congruent/STIM_002.jpg	99
1833.272	0.817	816.7	congruent	Block2	congruent/STIM_002.jpg	99
1836.929	0.712	711.5	congruent	Block2	congruent/STIM_002.jpg	100
1840.825	0.681	681.3	congruent	Block2	congruent/STIM_002.jpg	100
1845.39	0.881	881.3	congruent	Block2	congruent/STIM_003.jpg	99
1850.039	0.929	928.9	congruent	Block2	congruent/STIM_003.jpg	100
1854.575	0.755	755.1	congruent	Block2	congruent/STIM_003.jpg	99
1858.066	0.729	729.3	congruent	Block2	congruent/STIM_003.jpg	100
1861.787	0.675	675.4	congruent	Block2	congruent/STIM_003.jpg	100
1865.961	0.735	735.3	congruent	Block2	congruent/STIM_004.jpg	100
1870.35	0.881	881.2	congruent	Block2	congruent/STIM_004.jpg	99
1874.537	0.749	749.2	congruent	Block2	congruent/STIM_004.jpg	99
1878.569	0.698	698.0	congruent	Block2	congruent/STIM_004.jpg	99
1882.499	0.842	842.1	congruent	Block2	congruent/STIM_004.jpg	99
1886.177	0.826	825.7	congruent	Block2	congruent/STIM_005.jpg	99
1889.528	0.7	700.0	congruent	Block2	congruent/STIM_005.jpg	99
1892.752	0.661	661.1	congruent	Block2	congruent/STIM_005.jpg	99
1895.514	0.654	653.5	congruent	Block2	congruent/STIM_005.jpg	100
1899.051	0.922	922.2	congruent	Block2	congruent/STIM_005.jpg	99
1902.83	0.576	575.5	congruent	Block2	congruent/STIM_006.jpg	99
1907.319	0.983	982.7	congruent	Block2	congruent/STIM_006.jpg	100
1911.808	0.89	890.2	congruent	Block2	congruent/STIM_006.jpg	99
1916.661	0.606	606.2	congruent	Block2	congruent/STIM_006.jpg	100
1920.623	0.61	609.8	congruent	Block2	congruent/STIM_006.jpg	99
1923.755	0.995	995.0	congruent	Block2	congruent/STIM_007.jpg	100
1927.151	0.882	882.1	congruent	Block2	congruent/STIM_007.jpg	100
1931.226	0.712	712.4	congruent	Block2	congruent/STIM_007.jpg	99
1934.385	0.608	608.5	congruent	Block2	congruent/STIM_007.jpg	99
1937.817	0.751	751.3	congruent	Block2	congruent/STIM_007.jpg	99
1942.185	0.805	805.2	congruent	Block2	congruent/STIM_008.jpg	99
1946.945	0.966	965.9	congruent	Block2	congruent/STIM_008.jpg	100
1950.153	0.615	615.4	congruent	Block2	congruent/STIM_008.jpg	100
1953.167	0.889	889.0	congruent	Block2	congruent/STIM_008.jpg	99
1957.932	0.823	822.9	congruent	Block2	congruent/STIM_008.jpg	100
1962.11	0.57	569.5	congruent	Block2	congruent/STIM_009.jpg	100
1965.56	0.653	653.4	congruent	Block2	congruent/STIM_009.jpg	100
1968.402	0.768	768.4	congruent	Block2	congruent/STIM_009.jpg	99
1971.362	0.609	609.1	congruent	Block2	congruent/STIM_009.jpg	100
1974.604	0.888	887.9	congruent	Block2	congruent/STIM_009.jpg	99
1978.976	0.692	691.6	congruent	Block2	congruent/STIM_010.jpg	99
1983.066	0.994	993.6	congruent	Block2	congruent/STIM_010.jpg	99
1987.298	1.019	1019.0	congruent	Block2	congruent/STIM_010.jpg	100
1991.383	0.881	881.4	congruent	Block2	congruent/STIM_010.jpg	100
1995.127	0.754	753.7	congruent	Block2	congruent/STIM_010.jpg	100
1997.987	0.963	963.4	congruent	Block2	congruent/STIM_011.jpg	99
2001.57	0.573	573.2	congruent	Block2	congruent/STIM_011.jpg	100
2005.791	0.907	907.2	congruent	Block2	congruent/STIM_011.jpg	100
2008.879	0.735	735.0	congruent	Block2	congruent/STIM_011.jpg	100
2012.011	0.882	882.1	congruent	Block2	congruent/STIM_011.jpg	99
2015.851	0.691	690.7	congruent	Block2	congruent/STIM_012.jpg	99
2020.517	0.806	806.5	congruent	Block2	congruent/STIM_012.jpg	99
2024.89	0.982	981.8	congruent	Block2	congruent/STIM_012.jpg	100
2028.989	0.759	758.8	congruent	Block2	congruent/STIM_012.jpg	99
2032.924	0.823	823.1	congruent	Block2	congruent/STIM_012.jpg	100
2036.332	0.728	728.1	congruent	Block2	congruent/STIM_013.jpg	99
2039.889	0.606	606.2	congruent	Block2	congruent/STIM_013.jpg	99
2044.027	0.846	845.7	congruent	Block2	congruent/STIM_013.jpg	100
2047.453	0.593	593.0	congruent	Block2	congruent/STIM_013.jpg	100
2051.945	0.989	989.3	congruent	Block2	congruent/STIM_013.jpg	100
2055.022	0.811	811.0	congruent	Block2	congruent/STIM_014.jpg	99
2058.617	1.017	1017.3	congruent	Block2	congruent/STIM_014.jpg	99
2062.829	0.765	765.0	congruent	Block2	congruent/STIM_014.jpg	99
2065.636	0.61	609.9	congruent	Block2	congruent/STIM_014.jpg	100
2068.357	0.755	755.4	congruent	Block2	congruent/STIM_014.jpg	99
2072.919	0.824	824.3	congruent	Block2	congruent/STIM_015.jpg	99
2076.511	0.762	762.4	congruent	Block2	congruent/STIM_015.jpg	100
2080.173	0.712	711.6	congruent	Block2	congruent/STIM_015.jpg	100
2084.828	0.587	587.0	congruent	Block2	congruent/STIM_015.jpg	100
2088.591	0.999	998.8	congruent	Block2	congruent/STIM_015.jpg	100
2092.115	0.685	685.2	congruent	Block2	congruent/STIM_016.jpg	99
2095.84	0.75	750.4	congruent	Block2	congruent/STIM_016.jpg	99
2099.524	0.706	705.6	congruent	Block2	congruent/STIM_016.jpg	100
2104.071	0.726	726.5	congruent	Block2	congruent/STIM_016.jpg	99
2107.539	0.674	674.2	congruent	Block2	congruent/STIM_016.jpg	100
2111.061	0.807	806.8	congruent	Block2	congruent/STIM_017.jpg	100
2115.497	0.614	613.7	congruent	Block2	congruent/STIM_017.jpg	99
2119.032	0.886	886.5	congruent	Block2	congruent/STIM_017.jpg	100
2122.256	0.596	596.0	congruent	Block2	congruent/STIM_017.jpg	99
2126.336	0.582	582.1	congruent	Block2	congruent/STIM_017.jpg	100
2129.065	0.597	596.9	congruent	Block2	congruent/STIM_018.jpg	100
2131.832	0.971	971.4	congruent	Block2	congruent/STIM_018.jpg	100
2134.835	0.763	762.8	congruent	Block2	congruent/STIM_018.jpg	100
2138.327	0.788	788.2	congruent	Block2	congruent/STIM_018.jpg	100
2143.032	0.882	881.5	congruent	Block2	congruent/STIM_018.jpg	100
2147.218	0.766	765.5	congruent	Block2	congruent/STIM_019.jpg	100
2151.966	0.934	933.9	congruent	Block2	congruent/STIM_019.jpg	100
2156.679	0.999	999.4	congruent	Block2	congruent/STIM_019.jpg	100
2160.428	0.82	819.5	congruent	Block2	congruent/STIM_019.jpg	99
2164.303	0.869	869.3	congruent	Block2	congruent/STIM_019.jpg	99
2168.923	0.724	723.9	congruent	Block2	congruent/STIM_020.jpg	99
2173.343	0.793	792.8	congruent	Block2	congruent/STIM_020.jpg	99
2176.398	0.98	980.1	congruent	Block2	congruent/STIM_020.jpg	100
2179.798	0.708	708.2	congruent	Block2	congruent/STIM_020.jpg	100
2184.456	0.887	887.0	congruent	Block2	congruent/STIM_020.jpg	99
2187.779	0.585	584.7	congruent	Block2	congruent/STIM_021.jpg	99
2191.642	0.984	983.7	congruent	Block2	congruent/STIM_021.jpg	99
2196.077	0.763	762.8	congruent	Block2	congruent/STIM_021.jpg	100
2199.55	0.971	971.3	congruent	Block2	congruent/STIM_021.jpg	99
2203.1	0.821	820.6	congruent	Block2	congruent/STIM_021.jpg	99
2206.232	0.906	906.2	congruent	Block2	congruent/STIM_022.jpg	100
2211.066	0.802	801.5	congruent	Block2	congruent/STIM_022.jpg	99
2215.429	0.641	641.4	congruent	Block2	congruent/STIM_022.jpg	99
2218.593	0.735	735.4	congruent	Block2	congruent/STIM_022.jpg	99
2221.629	0.862	862.3	congruent	Block2	congruent/STIM_022.jpg	100
2225.925	0.852	852.1	congruent	Block2	congruent/STIM_023.jpg	99
2230.237	0.818	818.1	congruent	Block2	congruent/STIM_023.jpg	100
2233.298	0.77	770.4	congruent	Block2	congruent/STIM_023.jpg	99
2236.429	0.688	687.6	congruent	Block2	congruent/STIM_023.jpg	100
2239.445	0.913	912.7	congruent	Block2	congruent/STIM_023.jpg	99
2242.73	0.714	713.7	congruent	Block2	congruent/STIM_024.jpg	100
2245.596	0.645	644.9	congruent	Block2	congruent/STIM_024.jpg	100
2249.017	0.677	677.1	congruent	Block2	congruent/STIM_024.jpg	99
2251.896	0.837	836.9	congruent	Block2	congruent/STIM_024.jpg	99
2256.426	0.93	930.4	congruent	Block2	congruent/STIM_024.jpg	100
2260.096	0.938	937.9	congruent	Block2	congruent/STIM_025.jpg	99
2263.205	0.95	949.5	congruent	Block2	congruent/STIM_025.jpg	99
2266.281	1.019	1018.8	congruent	Block2	congruent/STIM_025.jpg	99
2269.917	1.019	1018.7	congruent	Block2	congruent/STIM_025.jpg	99
2273.769	0.904	903.7	congruent	Block2	congruent/STIM_025.jpg	99
2277.101	0.925	925.2	congruent	Block2	congruent/STIM_026.jpg	99
2280.428	0.946	946.2	congruent	Block2	congruent/STIM_026.jpg	99
2283.761	0.623	623.3	congruent	Block2	congruent/STIM_026.jpg	99
2287.1	1.015	1014.7	congruent	Block2	congruent/STIM_026.jpg	100
2290.616	0.795	794.7	congruent	Block2	congruent/STIM_026.jpg	100
2294.514	0.858	857.9	congruent	Block2	congruent/STIM_027.jpg	99
2297.629	1.002	1002.5	congruent	Block2	congruent/STIM_027.jpg	99
2301.276	0.803	803.4	congruent	Block2	congruent/STIM_027.jpg	99
2304.3	0.934	934.3	congruent	Block2	congruent/STIM_027.jpg	99
2308.049	0.912	912.1	congruent	Block2	congruent/STIM_027.jpg	99
2311.536	0.727	727.3	congruent	Block2	congruent/STIM_028.jpg	100
2315.962	1.01	1010.3	congruent	Block2	congruent/STIM_028.jpg	99
2319.804	0.84	840.1	congruent	Block2	congruent/STIM_028.jpg	99
2323.342	0.61	610.1	congruent	Block2	congruent/STIM_028.jpg	100
2326.262	0.597	597.2	congruent	Block2	congruent/STIM_028.jpg	99
2330.461	0.605	605.1	congruent	Block2	congruent/STIM_029.jpg	100
2333.41	0.73	729.8	congruent	Block2	congruent/STIM_029.jpg	99
2336.644	0.678	678.5	congruent	Block2	congruent/STIM_029.jpg	99
2340.233	0.72	719.9	congruent	Block2	congruent/STIM_029.jpg	99
2344.47	1.016	1016.3	congruent	Block2	congruent/STIM_029.jpg	100
2348.703	0.781	781.2	incongruent	Block3	incongruent/STIM_000.jpg	100
2352.963	1.132	1131.6	incongruent	Block3	incongruent/STIM_000.jpg	100
2357.369	0.892	891.8	incongruent	Block3	incongruent/STIM_000.jpg	100
2361.177	1.119	1119.2	incongruent	Block3	incongruent/STIM_000.jpg	100
2365.061	0.886	885.8	incongruent	Block3	incongruent/STIM_000.jpg	100
2368.153	0.871	870.9	incongruent	Block3	incongruent/STIM_001.jpg	100
2371.322	0.736	735.9	incongruent	Block3	incongruent/STIM_001.jpg	99
2374.384	0.782	782.1	incongruent	Block3	incongruent/STIM_001.jpg	100
2377.444	0.588	588.1	incongruent	Block3	incongruent/STIM_001.jpg	99
2381.287	0.948	947.5	incongruent	Block3	incongruent/STIM_001.jpg	100
2385.309	1.042	1042.5	incongruent	Block3	incongruent/STIM_002.jpg	99
2388.464	0.789	788.7	incongruent	Block3	incongruent/STIM_002.jpg	99
2391.771	0.705	705.4	incongruent	Block3	incongruent/STIM_002.jpg	100
2394.889	0.972	972.5	incongruent	Block3	incongruent/STIM_002.jpg	100
2397.918	0.826	826.0	incongruent	Block3	incongruent/STIM_002.jpg	99
2401.252	0.796	795.5	incongruent	Block3	incongruent/STIM_003.jpg	99
2405.892	0.585	584.8	incongruent	Block3	incongruent/STIM_003.jpg	99
2409.184	0.723	723.0	incongruent	Block3	incongruent/STIM_003.jpg	99
2413.484	0.836	835.7	incongruent	Block3	incongruent/STIM_003.jpg	100
2416.915	1.168	1168.5	incongruent	Block3	incongruent/STIM_003.jpg	99
2422.037	1.08	1079.7	incongruent	Block3	incongruent/STIM_004.jpg	100
2426.636	1.162	1162.0	incongruent	Block3	incongruent/STIM_004.jpg	99
2431.426	0.642	642.4	incongruent	Block3	incongruent/STIM_004.jpg	100
2434.599	0.656	656.5	incongruent	Block3	incongruent/STIM_004.jpg	100
2438.417	0.607	607.3	incongruent	Block3	incongruent/STIM_004.jpg	100
2441.922	1.039	1039.4	incongruent	Block3	incongruent/STIM_005.jpg	99
2446.241	1.168	1168.5	incongruent	Block3	incongruent/STIM_005.jpg	99
2451.104	0.893	892.7	incongruent	Block3	incongruent/STIM_005.jpg	99
2454.176	0.656	656.3	incongruent	Block3	incongruent/STIM_005.jpg	100
2457.217	0.975	975.2	incongruent	Block3	incongruent/STIM_005.jpg	99
2460.731	0.708	708.5	incongruent	Block3	incongruent/STIM_006.jpg	100
2464.721	1.078	1078.1	incongruent	Block3	incongruent/STIM_006.jpg	100
2468.971	1.04	1039.9	incongruent	Block3	incongruent/STIM_006.jpg	99
2473.49	1.131	1130.8	incongruent	Block3	incongruent/STIM_006.jpg	100
2476.887	0.574	574.1	incongruent	Block3	incongruent/STIM_006.jpg	100
2479.814	0.772	771.9	incongruent	Block3	incongruent/STIM_007.jpg	100
2483.237	0.878	878.0	incongruent	Block3	incongruent/STIM_007.jpg	99
2487.43	1.056	1056.4	incongruent	Block3	incongruent/STIM_007.jpg	100
2491.825	1.1	1100.0	incongruent	Block3	incongruent/STIM_007.jpg	99
2496.892	0.671	670.9	incongruent	Block3	incongruent/STIM_007.jpg	100
2499.709	0.616	616.4	incongruent	Block3	incongruent/STIM_008.jpg	100
2504.311	0.587	586.7	incongruent	Block3	incongruent/STIM_008.jpg	100
2507.868	0.878	877.6	incongruent	Block3	incongruent/STIM_008.jpg	100
2512.241	0.956	956.0	incongruent	Block3	incongruent/STIM_008.jpg	100
2515.783	0.727	727.3	incongruent	Block3	incongruent/STIM_008.jpg	100
2520.431	0.614	613.9	incongruent	Block3	incongruent/STIM_009.jpg	99
2524.684	0.845	845.4	incongruent	Block3	incongruent/STIM_009.jpg	99
2528.059	1.11	1110.2	incongruent	Block3	incongruent/STIM_009.jpg	100
2532.603	0.712	711.7	incongruent	Block3	incongruent/STIM_009.jpg	99
2536.639	1.155	1155.2	incongruent	Block3	incongruent/STIM_009.jpg	99
2540.191	0.606	606.2	incongruent	Block3	incongruent/STIM_010.jpg	99
2543.688	0.753	753.1	incongruent	Block3	incongruent/STIM_010.jpg	100
2548.124	0.615	614.7	incongruent	Block3	incongruent/STIM_010.jpg	100
2551.938	0.572	571.8	incongruent	Block3	incongruent/STIM_010.jpg	99
2554.656	0.723	723.3	incongruent	Block3	incongruent/STIM_010.jpg	100
2558.605	0.737	737.0	incongruent	Block3	incongruent/STIM_011.jpg	100
2561.962	0.819	819.3	incongruent	Block3	incongruent/STIM_011.jpg	100
2566.157	0.804	803.6	incongruent	Block3	incongruent/STIM_011.jpg	99
2570.391	0.764	763.9	incongruent	Block3	incongruent/STIM_011.jpg	99
2574.247	1.054	1054.5	incongruent	Block3	incongruent/STIM_011.jpg	99
2577.739	0.593	593.4	incongruent	Block3	incongruent/STIM_012.jpg	99
2581.953	1.071	1071.0	incongruent	Block3	incongruent/STIM_012.jpg	100
2586.781	1.076	1075.7	incongruent	Block3	incongruent/STIM_012.jpg	100
2591.115	0.67	670.2	incongruent	Block3	incongruent/STIM_012.jpg	99
2593.866	1.098	1097.7	incongruent	Block3	incongruent/STIM_012.jpg	100
2596.974	0.856	856.0	incongruent	Block3	incongruent/STIM_013.jpg	100
2600.846	0.57	569.6	incongruent	Block3	incongruent/STIM_013.jpg	99
2604.685	0.605	605.1	incongruent	Block3	incongruent/STIM_013.jpg	100
2608.714	0.568	567.6	incongruent	Block3	incongruent/STIM_013.jpg	100
2611.348	0.652	651.6	incongruent	Block3	incongruent/STIM_013.jpg	99
2614.404	0.982	981.9	incongruent	Block3	incongruent/STIM_014.jpg	100
2618.86	0.897	897.1	incongruent	Block3	incongruent/STIM_014.jpg	100
2621.85	0.572	572.0	incongruent	Block3	incongruent/STIM_014.jpg	99
2624.543	1.128	1128.1	incongruent	Block3	incongruent/STIM_014.jpg	99
2628.921	1.056	1055.6	incongruent	Block3	incongruent/STIM_014.jpg	99
2632.782	0.674	673.8	incongruent	Block3	incongruent/STIM_015.jpg	99
2636.801	0.826	825.8	incongruent	Block3	incongruent/STIM_015.jpg	99
2641.031	0.941	940.7	incongruent	Block3	incongruent/STIM_015.jpg	99
2644.96	1.068	1067.6	incongruent	Block3	incongruent/STIM_015.jpg	100
2649.933	0.854	854.4	incongruent	Block3	incongruent/STIM_015.jpg	100
2653.417	0.603	602.7	incongruent	Block3	incongruent/STIM_016.jpg	99
2657.138	0.952	951.9	incongruent	Block3	incongruent/STIM_016.jpg	99
2661.445	0.899	898.6	incongruent	Block3	incongruent/STIM_016.jpg	100
2666.078	1.164	1164.0	incongruent	Block3	incongruent/STIM_016.jpg	99
2669.917	1.173	1173.3	incongruent	Block3	incongruent/STIM_016.jpg	99
2673.299	1.071	1070.8	incongruent	Block3	incongruent/STIM_017.jpg	100
2678.277	1.054	1054.5	incongruent	Block3	incongruent/STIM_017.jpg	99
2681.699	0.856	855.6	incongruent	Block3	incongruent/STIM_017.jpg	99
2686.204	1.156	1155.6	incongruent	Block3	incongruent/STIM_017.jpg	100
2689.457	0.971	971.0	incongruent	Block3	incongruent/STIM_017.jpg	100
2694.42	0.891	890.7	incongruent	Block3	incongruent/STIM_018.jpg	100
2697.46	0.63	629.5	incongruent	Block3	incongruent/STIM_018.jpg	99
2701.287	0.586	586.5	incongruent	Block3	incongruent/STIM_018.jpg	99
2705.719	1.044	1043.7	incongruent	Block3	incongruent/STIM_018.jpg	100
2709.656	0.96	960.5	incongruent	Block3	incongruent/STIM_018.jpg	100
2712.639	0.78	779.6	incongruent	Block3	incongruent/STIM_019.jpg	100
2716.297	1.183	1183.4	incongruent	Block3	incongruent/STIM_019.jpg	99
2719.923	0.95	949.8	incongruent	Block3	incongruent/STIM_019.jpg	100
2723.731	1.167	1166.8	incongruent	Block3	incongruent/STIM_019.jpg	99
2727.814	0.655	655.4	incongruent	Block3	incongruent/STIM_019.jpg	100
2732.404	0.946	946.5	incongruent	Block3	incongruent/STIM_020.jpg	99
2735.742	0.97	970.5	incongruent	Block3	incongruent/STIM_020.jpg	100
2739.255	0.956	956.0	incongruent	Block3	incongruent/STIM_020.jpg	99
2743.492	0.952	952.5	incongruent	Block3	incongruent/STIM_020.jpg	100
2747.962	0.931	930.7	incongruent	Block3	incongruent/STIM_020.jpg	100
2751.822	1.073	1073.2	incongruent	Block3	incongruent/STIM_021.jpg	100
2756.044	1.052	1051.5	incongruent	Block3	incongruent/STIM_021.jpg	100
2759.548	0.946	945.7	incongruent	Block3	incongruent/STIM_021.jpg	99
2763.832	0.787	787.2	incongruent	Block3	incongruent/STIM_021.jpg	99
2766.725	1.163	1162.6	incongruent	Block3	incongruent/STIM_021.jpg	99
2770.569	0.579	579.4	incongruent	Block3	incongruent/STIM_022.jpg	100
2773.326	0.73	730.4	incongruent	Block3	incongruent/STIM_022.jpg	100
2776.22	0.96	960.4	incongruent	Block3	incongruent/STIM_022.jpg	100
2780.531	0.872	871.6	incongruent	Block3	incongruent/STIM_022.jpg	100
2785.355	1.149	1148.8	incongruent	Block3	incongruent/STIM_022.jpg	100
2790.232	0.797	796.7	incongruent	Block3	incongruent/STIM_023.jpg	99
2794.002	1.185	1184.8	incongruent	Block3	incongruent/STIM_023.jpg	100
2797.496	0.561	561.4	incongruent	Block3	incongruent/STIM_023.jpg	100
2800.877	0.886	885.7	incongruent	Block3	incongruent/STIM_023.jpg	100
2804.061	0.794	794.5	incongruent	Block3	incongruent/STIM_023.jpg	99
2808.031	1.064	1063.9	incongruent	Block3	incongruent/STIM_024.jpg	99
2811.245	1.164	1163.9	incongruent	Block3	incongruent/STIM_024.jpg	100
2815.407	0.776	775.7	incongruent	Block3	incongruent/STIM_024.jpg	99
2819.652	1.097	1097.2	incongruent	Block3	incongruent/STIM_024.jpg	100
2823.354	0.612	612.2	incongruent	Block3	incongruent/STIM_024.jpg	100
2826.787	0.932	931.9	incongruent	Block3	incongruent/STIM_025.jpg	99
2830.112	0.604	604.5	incongruent	Block3	incongruent/STIM_025.jpg	99
2834.146	0.641	641.0	incongruent	Block3	incongruent/STIM_025.jpg	99
2838.565	0.953	953.3	incongruent	Block3	incongruent/STIM_025.jpg	99
2841.784	0.928	928.0	incongruent	Block3	incongruent/STIM_025.jpg	99
2845.404	0.941	941.0	incongruent	Block3	incongruent/STIM_026.jpg	99
2849.72	0.832	832.1	incongruent	Block3	incongruent/STIM_026.jpg	99
2854.095	1.111	1111.2	incongruent	Block3	incongruent/STIM_026.jpg	99
2858.759	1.045	1044.9	incongruent	Block3	incongruent/STIM_026.jpg	100
2862.479	1.126	1125.7	incongruent	Block3	incongruent/STIM_026.jpg	99
2866.595	1.126	1125.6	incongruent	Block3	incongruent/STIM_027.jpg	99
2870.607	0.602	602.1	incongruent	Block3	incongruent/STIM_027.jpg	99
2873.226	0.648	647.6	incongruent	Block3	incongruent/STIM_027.jpg	100
2876.346	0.558	557.9	incongruent	Block3	incongruent/STIM_027.jpg	100
2879.998	1.055	1055.4	incongruent	Block3	incongruent/STIM_027.jpg	100
2884.145	0.676	676.3	incongruent	Block3	incongruent/STIM_028.jpg	100
2886.872	0.651	650.6	incongruent	Block3	incongruent/STIM_028.jpg	100
2889.627	1.048	1048.2	incongruent	Block3	incongruent/STIM_028.jpg	100
2893.681	0.711	711.4	incongruent	Block3	incongruent/STIM_028.jpg	99
2896.752	0.867	866.9	incongruent	Block3	incongruent/STIM_028.jpg	100
2900.118	1.027	1026.9	incongruent	Block3	incongruent/STIM_029.jpg	99
2904.986	0.613	613.4	incongruent	Block3	incongruent/STIM_029.jpg	99
2909.108	0.648	648.4	incongruent	Block3	incongruent/STIM_029.jpg	99
2912.611	0.734	733.7	incongruent	Block3	incongruent/STIM_029.jpg	100
2916.511	1.003	1002.9	incongruent	Block3	incongruent/STIM_029.jpg	99
2920.141	0.874	873.9	congruent	Block3	congruent/STIM_000.jpg	100
2923.362	0.886	886.2	congruent	Block3	congruent/STIM_000.jpg	99
2927.352	0.976	975.9	congruent	Block3	congruent/STIM_000.jpg	100
2931.54	0.826	825.8	congruent	Block3	congruent/STIM_000.jpg	99
2935.061	1.011	1011.3	congruent	Block3	congruent/STIM_000.jpg	100
2939.672	0.678	678.0	congruent	Block3	congruent/STIM_001.jpg	100
2942.544	0.919	918.7	congruent	Block3	congruent/STIM_001.jpg	100
2947.176	0.892	891.6	congruent	Block3	congruent/STIM_001.jpg	100
2950.128	0.869	868.9	congruent	Block3	congruent/STIM_001.jpg	99
2954.367	0.804	804.0	congruent	Block3	congruent/STIM_001.jpg	100
2958.684	0.596	595.5	congruent	Block3	congruent/STIM_002.jpg	99
2962.883	0.806	806.4	congruent	Block3	congruent/STIM_002.jpg	100
2967.43	0.684	684.0	congruent	Block3	congruent/STIM_002.jpg	100
2971.016	0.694	694.0	congruent	Block3	congruent/STIM_002.jpg	100
2975.241	0.622	621.5	congruent	Block3	congruent/STIM_002.jpg	100
2978.262	0.879	878.8	congruent	Block3	congruent/STIM_003.jpg	100
2982.403	0.928	928.4	congruent	Block3	congruent/STIM_003.jpg	99
2986.511	0.638	638.4	congruent	Block3	congruent/STIM_003.jpg	99
2989.785	0.89	890.2	congruent	Block3	congruent/STIM_003.jpg	100
2994.618	0.862	861.5	congruent	Block3	congruent/STIM_003.jpg	99
2999.274	0.616	616.1	congruent	Block3	congruent/STIM_004.jpg	100
3002.295	0.939	938.8	congruent	Block3	congruent/STIM_004.jpg	100
3006.31	0.681	681.4	congruent	Block3	congruent/STIM_004.jpg	100
3010.884	0.575	575.1	congruent	Block3	congruent/STIM_004.jpg	99
3014.08	0.573	572.6	congruent	Block3	congruent/STIM_004.jpg	100
3017.99	0.713	713.4	congruent	Block3	congruent/STIM_005.jpg	99
3022.247	0.605	605.2	congruent	Block3	congruent/STIM_005.jpg	99
3025.491	0.704	703.6	congruent	Block3	congruent/STIM_005.jpg	100
3028.672	0.823	822.6	congruent	Block3	congruent/STIM_005.jpg	100
3031.948	0.758	757.8	congruent	Block3	congruent/STIM_005.jpg	100
3036.472	0.61	610.2	congruent	Block3	congruent/STIM_006.jpg	99
3040.473	0.612	612.5	congruent	Block3	congruent/STIM_006.jpg	100
3043.975	0.579	578.7	congruent	Block3	congruent/STIM_006.jpg	100
3048.16	0.609	609.1	congruent	Block3	congruent/STIM_006.jpg	99
3051.666	0.798	797.6	congruent	Block3	congruent/STIM_006.jpg	100
3055.214	0.653	652.9	congruent	Block3	congruent/STIM_007.jpg	99
3058.4	0.687	686.9	congruent	Block3	congruent/STIM_007.jpg	99
3062.143	0.973	972.9	congruent	Block3	congruent/STIM_007.jpg	99
3065.733	0.651	651.1	congruent	Block3	congruent/STIM_007.jpg	99
3070.26	0.993	993.4	congruent	Block3	congruent/STIM_007.jpg	100
3074.59	0.594	593.8	congruent	Block3	congruent/STIM_008.jpg	100
3077.725	0.979	979.4	congruent	Block3	congruent/STIM_008.jpg	99
3081.762	0.76	760.2	congruent	Block3	congruent/STIM_008.jpg	100
3086.468	0.658	657.9	congruent	Block3	congruent/STIM_008.jpg	100
3090.552	0.984	983.9	congruent	Block3	congruent/STIM_008.jpg	100
3094.912	0.727	727.0	congruent	Block3	congruent/STIM_009.jpg	99
3099.558	0.605	605.2	congruent	Block3	congruent/STIM_009.jpg	100
3103.598	0.652	651.5	congruent	Block3	congruent/STIM_009.jpg	99
3107.153	0.707	707.0	congruent	Block3	congruent/STIM_009.jpg	99
3111.503	0.644	644.0	congruent	Block3	congruent/STIM_009.jpg	99
3115.0	0.623	622.7	congruent	Block3	congruent/STIM_010.jpg	100
3119.007	0.928	928.2	congruent	Block3	congruent/STIM_010.jpg	100
3121.979	0.873	872.8	congruent	Block3	congruent/STIM_010.jpg	99
3126.107	0.619	619.3	congruent	Block3	congruent/STIM_010.jpg	99
3130.598	0.731	731.3	congruent	Block3	congruent/STIM_010.jpg	100
3134.53	0.935	935.2	congruent	Block3	congruent/STIM_011.jpg	99
3137.867	0.876	875.9	congruent	Block3	congruent/STIM_011.jpg	99
3141.852	0.83	830.3	congruent	Block3	congruent/STIM_011.jpg	100
3145.682	0.597	596.9	congruent	Block3	congruent/STIM_011.jpg	99
3150.262	0.965	965.0	congruent	Block3	congruent/STIM_011.jpg	99
3154.254	0.646	646.5	congruent	Block3	congruent/STIM_012.jpg	99
3157.014	0.917	916.9	congruent	Block3	congruent/STIM_012.jpg	100
3160.429	0.592	592.5	congruent	Block3	congruent/STIM_012.jpg	100
3163.538	0.949	948.7	congruent	Block3	congruent/STIM_012.jpg	100
3166.778	0.608	608.5	congruent	Block3	congruent/STIM_012.jpg	99
3169.403	0.686	686.5	congruent	Block3	congruent/STIM_013.jpg	100
3172.555	0.67	669.9	congruent	Block3	congruent/STIM_013.jpg	100
3177.121	0.779	779.0	congruent	Block3	congruent/STIM_013.jpg	99
3180.708	0.621	620.6	congruent	Block3	congruent/STIM_013.jpg	100
3185.274	1.012	1012.5	congruent	Block3	congruent/STIM_013.jpg	99
3189.567	1.008	1008.1	congruent	Block3	congruent/STIM_014.jpg	99
3192.621	0.868	867.5	congruent	Block3	congruent/STIM_014.jpg	100
3197.053	0.743	742.8	congruent	Block3	congruent/STIM_014.jpg	99
3201.456	0.791	790.9	congruent	Block3	congruent/STIM_014.jpg	100
3205.01	0.602	602.1	congruent	Block3	congruent/STIM_014.jpg	100
3208.28	1.007	1006.6	congruent	Block3	congruent/STIM_015.jpg	100
3213.219	0.899	899.4	congruent	Block3	congruent/STIM_015.jpg	99
3217.963	0.772	771.6	congruent	Block3	congruent/STIM_015.jpg	100
3222.676	0.755	755.0	congruent	Block3	congruent/STIM_015.jpg	100
3226.197	0.735	735.0	congruent	Block3	congruent/STIM_015.jpg	99
3230.753	0.567	566.6	congruent	Block3	congruent/STIM_016.jpg	100
3235.091	0.61	609.5	congruent	Block3	congruent/STIM_016.jpg	100
3238.742	0.911	910.8	congruent	Block3	congruent/STIM_016.jpg	100
3242.349	0.778	777.6	congruent	Block3	congruent/STIM_016.jpg	99
3245.489	0.854	854.1	congruent	Block3	congruent/STIM_016.jpg	100
3248.674	0.649	649.4	congruent	Block3	congruent/STIM_017.jpg	100
3251.771	1.01	1010.1	congruent	Block3	congruent/STIM_017.jpg	99
3256.576	0.73	730.3	congruent	Block3	congruent/STIM_017.jpg	100
3259.692	0.735	735.4	congruent	Block3	congruent/STIM_017.jpg	100
3264.261	0.569	568.7	congruent	Block3	congruent/STIM_017.jpg	99
3268.334	0.823	823.2	congruent	Block3	congruent/STIM_018.jpg	99
3271.676	0.624	623.6	congruent	Block3	congruent/STIM_018.jpg	99
3274.575	0.909	909.4	congruent	Block3	congruent/STIM_018.jpg	99
3278.909	0.964	963.9	congruent	Block3	congruent/STIM_018.jpg	100
3282.145	0.626	626.2	congruent	Block3	congruent/STIM_018.jpg	99
3286.714	0.617	616.8	congruent	Block3	congruent/STIM_019.jpg	99
3289.76	0.762	762.5	congruent	Block3	congruent/STIM_019.jpg	99
3293.013	0.842	841.8	congruent	Block3	congruent/STIM_019.jpg	100
3297.635	0.85	850.0	congruent	Block3	congruent/STIM_019.jpg	99
3301.762	0.665	664.6	congruent	Block3	congruent/STIM_019.jpg	99
3304.822	0.584	584.1	congruent	Block3	congruent/STIM_020.jpg	99
3308.726	0.864	864.5	congruent	Block3	congruent/STIM_020.jpg	99
3311.675	0.62	619.7	congruent	Block3	congruent/STIM_020.jpg	100
3315.72	0.621	620.6	congruent	Block3	congruent/STIM_020.jpg	99
3319.537	0.611	611.3	congruent	Block3	congruent/STIM_020.jpg	99
3323.088	0.882	882.4	congruent	Block3	congruent/STIM_021.jpg	99
3327.424	0.668	668.0	congruent	Block3	congruent/STIM_021.jpg	100
3332.002	0.892	892.0	congruent	Block3	congruent/STIM_021.jpg	99
3335.353	0.571	571.3	congruent	Block3	congruent/STIM_021.jpg	100
3338.264	0.974	973.9	congruent	Block3	congruent/STIM_021.jpg	100
3341.352	0.797	796.7	congruent	Block3	congruent/STIM_022.jpg	100
3345.692	0.768	767.6	congruent	Block3	congruent/STIM_022.jpg	100
3349.795	0.636	636.4	congruent	Block3	congruent/STIM_022.jpg	99
3354.342	0.584	584.1	congruent	Block3	congruent/STIM_022.jpg	99
3357.988	0.88	880.1	congruent	Block3	congruent/STIM_022.jpg	100
3360.879	0.808	808.5	congruent	Block3	congruent/STIM_023.jpg	100
3365.025	0.76	759.8	congruent	Block3	congruent/STIM_023.jpg	100
3368.132	0.608	608.0	congruent	Block3	congruent/STIM_023.jpg	100
3371.149	0.862	861.6	congruent	Block3	congruent/STIM_023.jpg	100
3374.341	0.801	800.8	congruent	Block3	congruent/STIM_023.jpg	100
3377.353	0.57	569.8	congruent	Block3	congruent/STIM_024.jpg	99
3381.918	0.747	746.8	congruent	Block3	congruent/STIM_024.jpg	99
3386.063	0.633	633.0	congruent	Block3	congruent/STIM_024.jpg	99
3390.067	0.687	687.1	congruent	Block3	congruent/STIM_024.jpg	100
3393.046	0.78	780.4	congruent	Block3	congruent/STIM_024.jpg	99
3397.203	0.949	949.2	congruent	Block3	congruent/STIM_025.jpg	100
3401.376	0.644	643.8	congruent	Block3	congruent/STIM_025.jpg	99
3404.804	0.779	779.4	congruent	Block3	congruent/STIM_025.jpg	99
3409.305	0.574	574.2	congruent	Block3	congruent/STIM_025.jpg	100
3412.676	0.733	732.6	congruent	Block3	congruent/STIM_025.jpg	99
3415.555	0.619	618.8	congruent	Block3	congruent/STIM_026.jpg	99
3419.069	0.921	920.6	congruent	Block3	congruent/STIM_026.jpg	100
3422.373	0.633	633.1	congruent	Block3	congruent/STIM_026.jpg	100
3426.724	0.934	933.5	congruent	Block3	congruent/STIM_026.jpg	100
3430.306	0.788	788.2	congruent	Block3	congruent/STIM_026.jpg	99
3433.961	1.007	1007.1	congruent	Block3	congruent/STIM_027.jpg	100
3438.778	1.006	1005.6	congruent	Block3	congruent/STIM_027.jpg	100
3441.964	0.701	700.9	congruent	Block3	congruent/STIM_027.jpg	99
3444.748	0.585	585.0	congruent	Block3	congruent/STIM_027.jpg	99
3449.072	0.601	601.1	congruent	Block3	congruent/STIM_027.jpg	100
3453.335	0.946	946.4	congruent	Block3	congruent/STIM_028.jpg	100
3457.248	0.772	772.0	congruent	Block3	congruent/STIM_028.jpg	100
3460.394	0.849	849.2	congruent	Block3	congruent/STIM_028.jpg	100
3464.15	0.776	776.0	congruent	Block3	congruent/STIM_028.jpg	100
3468.006	0.803	802.9	congruent	Block3	congruent/STIM_028.jpg	99
3472.212	0.745	745.3	congruent	Block3	congruent/STIM_029.jpg	100
3476.625	0.77	770.1	congruent	Block3	congruent/STIM_029.jpg	99
3480.537	0.976	975.7	congruent	Block3	congruent/STIM_029.jpg	100
3485.376	0.941	941.2	congruent	Block3	congruent/STIM_029.jpg	100
3490.011	0.793	793.1	congruent	Block3	congruent/STIM_029.jpg	100
