onset	duration	accuracy	trial_type	learning_stage	stimulus
0.0	1.282	correct	incongruent	Block1	incongruent/STIM_000.jpg
4.624	0.888	incorrect	incongruent	Block1	incongruent/STIM_000.jpg
8.244	1.052	correct	incongruent	Block1	incongruent/STIM_000.jpg
12.049	0.914	incorrect	incongruent	Block1	incongruent/STIM_000.jpg
16.286	0.865	correct	incongruent	Block1	incongruent/STIM_000.jpg
21.107	1.522	incorrect	incongruent	Block1	incongruent/STIM_001.jpg
25.702	1.421	correct	incongruent	Block1	incongruent/STIM_001.jpg
30.951	1.386	correct	incongruent	Block1	incongruent/STIM_001.jpg
35.053	0.954	correct	incongruent	Block1	incongruent/STIM_001.jpg
38.052	0.852	correct	incongruent	Block1	incongruent/STIM_001.jpg
42.847	0.85	correct	incongruent	Block1	incongruent/STIM_002.jpg
46.374	1.125	incorrect	incongruent	Block1	incongruent/STIM_002.jpg
50.952	1.529	incorrect	incongruent	Block1	incongruent/STIM_002.jpg
56.365	0.824	incorrect	incongruent	Block1	incongruent/STIM_002.jpg
59.962	1.203	correct	incongruent	Block1	incongruent/STIM_002.jpg
63.54	1.261	correct	incongruent	Block1	incongruent/STIM_003.jpg
67.14	1.357	incorrect	incongruent	Block1	incongruent/STIM_003.jpg
72.126	1.189	incorrect	incongruent	Block1	incongruent/STIM_003.jpg
76.486	1.068	incorrect	incongruent	Block1	incongruent/STIM_003.jpg
80.651	1.352	incorrect	incongruent	Block1	incongruent/STIM_003.jpg
84.893	0.852	incorrect	incongruent	Block1	incongruent/STIM_004.jpg
89.373	1.502	incorrect	incongruent	Block1	incongruent/STIM_004.jpg
94.703	0.936	correct	incongruent	Block1	incongruent/STIM_004.jpg
98.138	0.823	incorrect	incongruent	Block1	incongruent/STIM_004.jpg
102.14	1.258	incorrect	incongruent	Block1	incongruent/STIM_004.jpg
105.907	1.4	correct	incongruent	Block1	incongruent/STIM_005.jpg
111.172	1.489	incorrect	incongruent	Block1	incongruent/STIM_005.jpg
115.059	0.978	correct	incongruent	Block1	incongruent/STIM_005.jpg
118.366	1.079	correct	incongruent	Block1	incongruent/STIM_005.jpg
122.293	1.043	correct	incongruent	Block1	incongruent/STIM_005.jpg
126.981	1.069	incorrect	incongruent	Block1	incongruent/STIM_006.jpg
131.118	0.986	correct	incongruent	Block1	incongruent/STIM_006.jpg
134.419	1.016	correct	incongruent	Block1	incongruent/STIM_006.jpg
139.254	0.802	correct	incongruent	Block1	incongruent/STIM_006.jpg
142.72	0.746	correct	incongruent	Block1	incongruent/STIM_006.jpg
146.917	1.575	incorrect	incongruent	Block1	incongruent/STIM_007.jpg
150.826	1.386	correct	incongruent	Block1	incongruent/STIM_007.jpg
155.549	0.737	incorrect	incongruent	Block1	incongruent/STIM_007.jpg
159.986	1.196	correct	incongruent	Block1	incongruent/STIM_007.jpg
164.719	0.775	incorrect	incongruent	Block1	incongruent/STIM_007.jpg
167.956	1.571	correct	incongruent	Block1	incongruent/STIM_008.jpg
172.547	1.132	correct	incongruent	Block1	incongruent/STIM_008.jpg
176.856	1.395	correct	incongruent	Block1	incongruent/STIM_008.jpg
181.04	0.841	incorrect	incongruent	Block1	incongruent/STIM_008.jpg
184.909	1.125	correct	incongruent	Block1	incongruent/STIM_008.jpg
188.241	1.505	incorrect	incongruent	Block1	incongruent/STIM_009.jpg
192.644	1.337	correct	incongruent	Block1	incongruent/STIM_009.jpg
197.823	1.345	correct	incongruent	Block1	incongruent/STIM_009.jpg
201.871	0.904	correct	incongruent	Block1	incongruent/STIM_009.jpg
204.979	1.122	incorrect	incongruent	Block1	incongruent/STIM_009.jpg
209.696	0.946	incorrect	incongruent	Block1	incongruent/STIM_010.jpg
213.75	0.974	correct	incongruent	Block1	incongruent/STIM_010.jpg
218.153	1.219	correct	incongruent	Block1	incongruent/STIM_010.jpg
222.978	0.8	incorrect	incongruent	Block1	incongruent/STIM_010.jpg
227.501	0.877	correct	incongruent	Block1	incongruent/STIM_010.jpg
231.045	0.907	incorrect	incongruent	Block1	incongruent/STIM_011.jpg
235.519	1.218	correct	incongruent	Block1	incongruent/STIM_011.jpg
240.206	1.13	incorrect	incongruent	Block1	incongruent/STIM_011.jpg
244.814	0.7	incorrect	incongruent	Block1	incongruent/STIM_011.jpg
248.066	1.23	correct	incongruent	Block1	incongruent/STIM_011.jpg
252.87	0.822	correct	incongruent	Block1	incongruent/STIM_012.jpg
257.561	1.346	correct	incongruent	Block1	incongruent/STIM_012.jpg
262.588	1.02	correct	incongruent	Block1	incongruent/STIM_012.jpg
266.301	1.329	correct	incongruent	Block1	incongruent/STIM_012.jpg
269.667	0.704	correct	incongruent	Block1	incongruent/STIM_012.jpg
273.705	1.148	incorrect	incongruent	Block1	incongruent/STIM_013.jpg
278.033	1.051	correct	incongruent	Block1	incongruent/STIM_013.jpg
281.807	0.843	correct	incongruent	Block1	incongruent/STIM_013.jpg
284.759	0.913	correct	incongruent	Block1	incongruent/STIM_013.jpg
289.358	0.774	incorrect	incongruent	Block1	incongruent/STIM_013.jpg
292.816	1.075	incorrect	incongruent	Block1	incongruent/STIM_014.jpg
297.677	1.167	correct	incongruent	Block1	incongruent/STIM_014.jpg
301.092	1.395	correct	incongruent	Block1	incongruent/STIM_014.jpg
305.759	1.092	correct	incongruent	Block1	incongruent/STIM_014.jpg
309.127	1.1	incorrect	incongruent	Block1	incongruent/STIM_014.jpg
312.375	1.161	correct	incongruent	Block1	incongruent/STIM_015.jpg
317.263	0.859	incorrect	incongruent	Block1	incongruent/STIM_015.jpg
321.134	1.023	correct	incongruent	Block1	incongruent/STIM_015.jpg
326.146	1.03	incorrect	incongruent	Block1	incongruent/STIM_015.jpg
330.674	0.911	correct	incongruent	Block1	incongruent/STIM_015.jpg
334.635	0.874	correct	incongruent	Block1	incongruent/STIM_016.jpg
339.256	0.806	incorrect	incongruent	Block1	incongruent/STIM_016.jpg
343.787	1.528	incorrect	incongruent	Block1	incongruent/STIM_016.jpg
349.042	0.84	correct	incongruent	Block1	incongruent/STIM_016.jpg
352.218	1.335	correct	incongruent	Block1	incongruent/STIM_016.jpg
356.783	1.208	incorrect	incongruent	Block1	incongruent/STIM_017.jpg
361.433	1.559	incorrect	incongruent	Block1	incongruent/STIM_017.jpg
366.507	1.395	correct	incongruent	Block1	incongruent/STIM_017.jpg
371.172	1.279	correct	incongruent	Block1	incongruent/STIM_017.jpg
374.975	1.013	incorrect	incongruent	Block1	incongruent/STIM_017.jpg
378.139	1.587	correct	incongruent	Block1	incongruent/STIM_018.jpg
381.902	1.328	correct	incongruent	Block1	incongruent/STIM_018.jpg
385.92	1.376	correct	incongruent	Block1	incongruent/STIM_018.jpg
389.348	0.999	incorrect	incongruent	Block1	incongruent/STIM_018.jpg
393.266	1.29	correct	incongruent	Block1	incongruent/STIM_018.jpg
397.526	1.597	correct	incongruent	Block1	incongruent/STIM_019.jpg
402.478	1.277	correct	incongruent	Block1	incongruent/STIM_019.jpg
405.919	0.827	correct	incongruent	Block1	incongruent/STIM_019.jpg
410.371	1.438	correct	incongruent	Block1	incongruent/STIM_019.jpg
415.594	1.125	incorrect	incongruent	Block1	incongruent/STIM_019.jpg
419.938	1.058	incorrect	incongruent	Block1	incongruent/STIM_020.jpg
424.91	1.276	correct	incongruent	Block1	incongruent/STIM_020.jpg
428.687	0.8	correct	incongruent	Block1	incongruent/STIM_020.jpg
432.447	1.06	correct	incongruent	Block1	incongruent/STIM_020.jpg
437.445	0.994	correct	incongruent	Block1	incongruent/STIM_020.jpg
441.231	0.918	correct	incongruent	Block1	incongruent/STIM_021.jpg
444.934	1.511	correct	incongruent	Block1	incongruent/STIM_021.jpg
448.743	1.487	incorrect	incongruent	Block1	incongruent/STIM_021.jpg
453.648	0.969	incorrect	incongruent	Block1	incongruent/STIM_021.jpg
457.523	0.726	correct	incongruent	Block1	incongruent/STIM_021.jpg
460.466	1.066	incorrect	incongruent	Block1	incongruent/STIM_022.jpg
464.895	1.339	incorrect	incongruent	Block1	incongruent/STIM_022.jpg
468.739	1.409	correct	incongruent	Block1	incongruent/STIM_022.jpg
473.342	0.753	correct	incongruent	Block1	incongruent/STIM_022.jpg
477.097	1.053	correct	incongruent	Block1	incongruent/STIM_022.jpg
480.949	1.222	incorrect	incongruent	Block1	incongruent/STIM_023.jpg
484.611	1.167	correct	incongruent	Block1	incongruent/STIM_023.jpg
488.648	1.503	correct	incongruent	Block1	incongruent/STIM_023.jpg
494.059	1.439	correct	incongruent	Block1	incongruent/STIM_023.jpg
499.424	0.998	incorrect	incongruent	Block1	incongruent/STIM_023.jpg
503.945	0.906	incorrect	incongruent	Block1	incongruent/STIM_024.jpg
507.091	0.964	correct	incongruent	Block1	incongruent/STIM_024.jpg
510.546	1.12	incorrect	incongruent	Block1	incongruent/STIM_024.jpg
514.984	0.938	incorrect	incongruent	Block1	incongruent/STIM_024.jpg
519.288	1.335	correct	incongruent	Block1	incongruent/STIM_024.jpg
523.412	1.693	correct	incongruent	Block1	incongruent/STIM_025.jpg
527.759	1.422	correct	incongruent	Block1	incongruent/STIM_025.jpg
532.062	1.262	correct	incongruent	Block1	incongruent/STIM_025.jpg
537.258	1.124	correct	incongruent	Block1	incongruent/STIM_025.jpg
540.544	0.886	correct	incongruent	Block1	incongruent/STIM_025.jpg
543.587	1.285	incorrect	incongruent	Block1	incongruent/STIM_026.jpg
548.819	1.001	correct	incongruent	Block1	incongruent/STIM_026.jpg
552.945	0.836	incorrect	incongruent	Block1	incongruent/STIM_026.jpg
557.534	1.199	incorrect	incongruent	Block1	incongruent/STIM_026.jpg
562.509	0.886	correct	incongruent	Block1	incongruent/STIM_026.jpg
565.809	1.511	correct	incongruent	Block1	incongruent/STIM_027.jpg
570.299	0.887	incorrect	incongruent	Block1	incongruent/STIM_027.jpg
574.764	1.014	incorrect	incongruent	Block1	incongruent/STIM_027.jpg
578.241	1.118	correct	incongruent	Block1	incongruent/STIM_027.jpg
581.76	0.945	correct	incongruent	Block1	incongruent/STIM_027.jpg
585.533	0.816	incorrect	incongruent	Block1	incongruent/STIM_028.jpg
589.149	0.777	correct	incongruent	Block1	incongruent/STIM_028.jpg
593.55	1.513	correct	incongruent	Block1	incongruent/STIM_028.jpg
597.428	1.421	incorrect	incongruent	Block1	incongruent/STIM_028.jpg
602.739	1.109	incorrect	incongruent	Block1	incongruent/STIM_028.jpg
607.003	1.014	correct	incongruent	Block1	incongruent/STIM_029.jpg
610.955	1.373	correct	incongruent	Block1	incongruent/STIM_029.jpg
616.097	1.424	incorrect	incongruent	Block1	incongruent/STIM_029.jpg
619.765	0.721	correct	incongruent	Block1	incongruent/STIM_029.jpg
622.997	1.196	incorrect	incongruent	Block1	incongruent/STIM_029.jpg
626.63	0.853	correct	congruent	Block1	congruent/STIM_000.jpg
630.314	0.891	incorrect	congruent	Block1	congruent/STIM_000.jpg
634.06	0.868	incorrect	congruent	Block1	congruent/STIM_000.jpg
637.493	0.737	incorrect	congruent	Block1	congruent/STIM_000.jpg
640.618	0.953	correct	congruent	Block1	congruent/STIM_000.jpg
644.359	0.781	correct	congruent	Block1	congruent/STIM_001.jpg
648.899	0.788	correct	congruent	Block1	congruent/STIM_001.jpg
653.577	0.687	incorrect	congruent	Block1	congruent/STIM_001.jpg
656.62	0.575	incorrect	congruent	Block1	congruent/STIM_001.jpg
660.214	0.6	incorrect	congruent	Block1	congruent/STIM_001.jpg
663.653	0.626	correct	congruent	Block1	congruent/STIM_002.jpg
667.683	0.573	incorrect	congruent	Block1	congruent/STIM_002.jpg
672.175	0.872	correct	congruent	Block1	congruent/STIM_002.jpg
675.15	0.702	correct	congruent	Block1	congruent/STIM_002.jpg
679.019	0.851	incorrect	congruent	Block1	congruent/STIM_002.jpg
682.199	0.637	correct	congruent	Block1	congruent/STIM_003.jpg
686.8	0.631	incorrect	congruent	Block1	congruent/STIM_003.jpg
690.907	0.77	correct	congruent	Block1	congruent/STIM_003.jpg
693.688	0.965	correct	congruent	Block1	congruent/STIM_003.jpg
697.433	0.917	incorrect	congruent	Block1	congruent/STIM_003.jpg
701.563	0.642	incorrect	congruent	Block1	congruent/STIM_004.jpg
705.89	0.849	correct	congruent	Block1	congruent/STIM_004.jpg
710.181	0.915	incorrect	congruent	Block1	congruent/STIM_004.jpg
713.947	0.97	correct	congruent	Block1	congruent/STIM_004.jpg
717.68	0.715	correct	congruent	Block1	congruent/STIM_004.jpg
722.082	0.717	incorrect	congruent	Block1	congruent/STIM_005.jpg
725.333	0.824	correct	congruent	Block1	congruent/STIM_005.jpg
729.187	0.755	incorrect	congruent	Block1	congruent/STIM_005.jpg
732.919	0.858	incorrect	congruent	Block1	congruent/STIM_005.jpg
736.796	0.781	incorrect	congruent	Block1	congruent/STIM_005.jpg
739.597	1.01	correct	congruent	Block1	congruent/STIM_006.jpg
744.032	0.584	correct	congruent	Block1	congruent/STIM_006.jpg
748.361	0.622	correct	congruent	Block1	congruent/STIM_006.jpg
751.322	0.791	correct	congruent	Block1	congruent/STIM_006.jpg
755.022	0.978	correct	congruent	Block1	congruent/STIM_006.jpg
759.423	0.576	correct	congruent	Block1	congruent/STIM_007.jpg
762.893	0.889	incorrect	congruent	Block1	congruent/STIM_007.jpg
766.761	0.998	correct	congruent	Block1	congruent/STIM_007.jpg
771.628	0.781	correct	congruent	Block1	congruent/STIM_007.jpg
775.836	0.761	correct	congruent	Block1	congruent/STIM_007.jpg
779.371	1.02	incorrect	congruent	Block1	congruent/STIM_008.jpg
783.382	0.663	correct	congruent	Block1	congruent/STIM_008.jpg
787.163	0.798	correct	congruent	Block1	congruent/STIM_008.jpg
790.205	0.946	incorrect	congruent	Block1	congruent/STIM_008.jpg
794.255	0.783	correct	congruent	Block1	congruent/STIM_008.jpg
797.48	0.886	correct	congruent	Block1	congruent/STIM_009.jpg
801.57	0.898	correct	congruent	Block1	congruent/STIM_009.jpg
804.726	0.725	incorrect	congruent	Block1	congruent/STIM_009.jpg
809.158	0.664	incorrect	congruent	Block1	congruent/STIM_009.jpg
812.283	1.013	correct	congruent	Block1	congruent/STIM_009.jpg
816.381	0.958	incorrect	congruent	Block1	congruent/STIM_010.jpg
820.333	0.594	correct	congruent	Block1	congruent/STIM_010.jpg
823.711	0.596	correct	congruent	Block1	congruent/STIM_010.jpg
827.841	0.848	incorrect	congruent	Block1	congruent/STIM_010.jpg
830.849	0.696	incorrect	congruent	Block1	congruent/STIM_010.jpg
833.782	0.83	correct	congruent	Block1	congruent/STIM_011.jpg
836.644	0.615	correct	congruent	Block1	congruent/STIM_011.jpg
840.241	0.596	incorrect	congruent	Block1	congruent/STIM_011.jpg
844.064	0.685	correct	congruent	Block1	congruent/STIM_011.jpg
846.844	0.619	incorrect	congruent	Block1	congruent/STIM_011.jpg
849.62	0.617	correct	congruent	Block1	congruent/STIM_012.jpg
852.64	0.729	correct	congruent	Block1	congruent/STIM_012.jpg
856.945	0.832	incorrect	congruent	Block1	congruent/STIM_012.jpg
860.247	0.638	incorrect	congruent	Block1	congruent/STIM_012.jpg
863.469	0.698	correct	congruent	Block1	congruent/STIM_012.jpg
866.199	0.858	incorrect	congruent	Block1	congruent/STIM_013.jpg
869.574	0.988	correct	congruent	Block1	congruent/STIM_013.jpg
873.988	0.584	correct	congruent	Block1	congruent/STIM_013.jpg
876.982	0.714	correct	congruent	Block1	congruent/STIM_013.jpg
881.587	0.642	correct	congruent	Block1	congruent/STIM_013.jpg
884.519	0.778	incorrect	congruent	Block1	congruent/STIM_014.jpg
888.792	0.751	correct	congruent	Block1	congruent/STIM_014.jpg
891.794	0.932	correct	congruent	Block1	congruent/STIM_014.jpg
895.214	1.016	correct	congruent	Block1	congruent/STIM_014.jpg
898.686	0.582	correct	congruent	Block1	congruent/STIM_014.jpg
902.021	0.956	incorrect	congruent	Block1	congruent/STIM_015.jpg
906.028	0.964	correct	congruent	Block1	congruent/STIM_015.jpg
910.317	0.586	incorrect	congruent	Block1	congruent/STIM_015.jpg
912.914	0.987	correct	congruent	Block1	congruent/STIM_015.jpg
917.782	0.67	correct	congruent	Block1	congruent/STIM_015.jpg
921.902	0.712	incorrect	congruent	Block1	congruent/STIM_016.jpg
925.788	0.856	correct	congruent	Block1	congruent/STIM_016.jpg
930.298	0.637	correct	congruent	Block1	congruent/STIM_016.jpg
934.045	0.598	incorrect	congruent	Block1	congruent/STIM_016.jpg
938.218	0.799	correct	congruent	Block1	congruent/STIM_016.jpg
941.999	0.754	correct	congruent	Block1	congruent/STIM_017.jpg
946.098	0.806	correct	congruent	Block1	congruent/STIM_017.jpg
949.699	0.594	incorrect	congruent	Block1	congruent/STIM_017.jpg
953.752	0.584	incorrect	congruent	Block1	congruent/STIM_017.jpg
957.507	0.741	correct	congruent	Block1	congruent/STIM_017.jpg
962.187	0.758	incorrect	congruent	Block1	congruent/STIM_018.jpg
965.499	0.945	incorrect	congruent	Block1	congruent/STIM_018.jpg
970.095	0.833	correct	congruent	Block1	congruent/STIM_018.jpg
973.232	0.74	incorrect	congruent	Block1	congruent/STIM_018.jpg
977.612	0.604	correct	congruent	Block1	congruent/STIM_018.jpg
981.142	1.003	incorrect	congruent	Block1	congruent/STIM_019.jpg
984.363	0.939	correct	congruent	Block1	congruent/STIM_019.jpg
987.342	0.967	incorrect	congruent	Block1	congruent/STIM_019.jpg
990.609	0.934	correct	congruent	Block1	congruent/STIM_019.jpg
994.9	0.75	correct	congruent	Block1	congruent/STIM_019.jpg
997.915	0.797	correct	congruent	Block1	congruent/STIM_020.jpg
1002.335	0.803	incorrect	congruent	Block1	congruent/STIM_020.jpg
1006.532	0.61	incorrect	congruent	Block1	congruent/STIM_020.jpg
1009.249	0.699	incorrect	congruent	Block1	congruent/STIM_020.jpg
1012.808	0.715	incorrect	congruent	Block1	congruent/STIM_020.jpg
1016.314	0.842	correct	congruent	Block1	congruent/STIM_021.jpg
1019.767	0.67	correct	congruent	Block1	congruent/STIM_021.jpg
1024.341	0.982	incorrect	congruent	Block1	congruent/STIM_021.jpg
1027.622	0.574	correct	congruent	Block1	congruent/STIM_021.jpg
1032.049	0.642	incorrect	congruent	Block1	congruent/STIM_021.jpg
1035.862	0.829	incorrect	congruent	Block1	congruent/STIM_022.jpg
1040.441	0.654	incorrect	congruent	Block1	congruent/STIM_022.jpg
1044.719	0.818	correct	congruent	Block1	congruent/STIM_022.jpg
1048.237	0.743	correct	congruent	Block1	congruent/STIM_022.jpg
1052.775	0.605	correct	congruent	Block1	congruent/STIM_022.jpg
1056.027	0.956	correct	congruent	Block1	congruent/STIM_023.jpg
1059.319	0.852	incorrect	congruent	Block1	congruent/STIM_023.jpg
1064.049	0.714	correct	congruent	Block1	congruent/STIM_023.jpg
1068.702	0.594	incorrect	congruent	Block1	congruent/STIM_023.jpg
1071.494	0.896	correct	congruent	Block1	congruent/STIM_023.jpg
1075.981	0.579	incorrect	congruent	Block1	congruent/STIM_024.jpg
1080.375	0.839	incorrect	congruent	Block1	congruent/STIM_024.jpg
1083.361	0.911	correct	congruent	Block1	congruent/STIM_024.jpg
1086.395	0.844	correct	congruent	Block1	congruent/STIM_024.jpg
1089.67	0.778	correct	congruent	Block1	congruent/STIM_024.jpg
1092.953	0.87	correct	congruent	Block1	congruent/STIM_025.jpg
1097.579	0.98	correct	congruent	Block1	congruent/STIM_025.jpg
1100.711	1.006	correct	congruent	Block1	congruent/STIM_025.jpg
1105.084	0.778	correct	congruent	Block1	congruent/STIM_025.jpg
1108.14	0.867	incorrect	congruent	Block1	congruent/STIM_025.jpg
1111.795	0.888	correct	congruent	Block1	congruent/STIM_026.jpg
1115.324	0.794	correct	congruent	Block1	congruent/STIM_026.jpg
1119.194	0.858	incorrect	congruent	Block1	congruent/STIM_026.jpg
1123.172	0.855	incorrect	congruent	Block1	congruent/STIM_026.jpg
1127.891	0.981	correct	congruent	Block1	congruent/STIM_026.jpg
1132.387	0.737	correct	congruent	Block1	congruent/STIM_027.jpg
1136.006	0.83	correct	congruent	Block1	congruent/STIM_027.jpg
1140.376	0.964	correct	congruent	Block1	congruent/STIM_027.jpg
1143.691	0.905	incorrect	congruent	Block1	congruent/STIM_027.jpg
1148.28	0.657	incorrect	congruent	Block1	congruent/STIM_027.jpg
1151.769	0.997	correct	congruent	Block1	congruent/STIM_028.jpg
1155.529	0.863	incorrect	congruent	Block1	congruent/STIM_028.jpg
1160.236	0.936	correct	congruent	Block1	congruent/STIM_028.jpg
1163.423	0.971	incorrect	congruent	Block1	congruent/STIM_028.jpg
1167.943	0.758	correct	congruent	Block1	congruent/STIM_028.jpg
1171.164	0.569	correct	congruent	Block1	congruent/STIM_029.jpg
1174.84	0.919	correct	congruent	Block1	congruent/STIM_029.jpg
1179.282	0.694	correct	congruent	Block1	congruent/STIM_029.jpg
1182.59	0.98	correct	congruent	Block1	congruent/STIM_029.jpg
1186.673	0.783	correct	congruent	Block1	congruent/STIM_029.jpg
1190.201	0.803	incorrect	incongruent	Block2	incongruent/STIM_000.jpg
1194.437	1.138	correct	incongruent	Block2	incongruent/STIM_000.jpg
1197.636	0.878	incorrect	incongruent	Block2	incongruent/STIM_000.jpg
1201.585	1.043	correct	incongruent	Block2	incongruent/STIM_000.jpg
1205.418	0.592	correct	incongruent	Block2	incongruent/STIM_000.jpg
1208.412	1.286	correct	incongruent	Block2	incongruent/STIM_001.jpg
1212.285	1.284	correct	incongruent	Block2	incongruent/STIM_001.jpg
1216.648	0.608	correct	incongruent	Block2	incongruent/STIM_001.jpg
1220.507	0.594	correct	incongruent	Block2	incongruent/STIM_001.jpg
1224.338	0.699	correct	incongruent	Block2	incongruent/STIM_001.jpg
1229.015	0.904	correct	incongruent	Block2	incongruent/STIM_002.jpg
1233.136	1.231	correct	incongruent	Block2	incongruent/STIM_002.jpg
1236.703	0.922	correct	incongruent	Block2	incongruent/STIM_002.jpg
1240.894	1.004	correct	incongruent	Block2	incongruent/STIM_002.jpg
1245.825	1.144	incorrect	incongruent	Block2	incongruent/STIM_002.jpg
1250.539	1.348	incorrect	incongruent	Block2	incongruent/STIM_003.jpg
1254.559	1.023	correct	incongruent	Block2	incongruent/STIM_003.jpg
1259.34	0.683	correct	incongruent	Block2	incongruent/STIM_003.jpg
1263.187	1.148	incorrect	incongruent	Block2	incongruent/STIM_003.jpg
1266.722	0.688	correct	incongruent	Block2	incongruent/STIM_003.jpg
1270.907	1.018	incorrect	incongruent	Block2	incongruent/STIM_004.jpg
1275.636	1.317	correct	incongruent	Block2	incongruent/STIM_004.jpg
1279.234	0.632	correct	incongruent	Block2	incongruent/STIM_004.jpg
1283.03	1.146	correct	incongruent	Block2	incongruent/STIM_004.jpg
1287.353	0.626	incorrect	incongruent	Block2	incongruent/STIM_004.jpg
1290.368	0.76	incorrect	incongruent	Block2	incongruent/STIM_005.jpg
1294.904	0.887	correct	incongruent	Block2	incongruent/STIM_005.jpg
1298.95	0.675	correct	incongruent	Block2	incongruent/STIM_005.jpg
1302.375	0.876	correct	incongruent	Block2	incongruent/STIM_005.jpg
1305.725	0.91	incorrect	incongruent	Block2	incongruent/STIM_005.jpg
1310.304	1.375	incorrect	incongruent	Block2	incongruent/STIM_006.jpg
1315.147	0.875	correct	incongruent	Block2	incongruent/STIM_006.jpg
1319.97	0.794	incorrect	incongruent	Block2	incongruent/STIM_006.jpg
1323.368	0.904	correct	incongruent	Block2	incongruent/STIM_006.jpg
1326.438	1.046	correct	incongruent	Block2	incongruent/STIM_006.jpg
1330.646	1.256	incorrect	incongruent	Block2	incongruent/STIM_007.jpg
1333.996	0.93	correct	incongruent	Block2	incongruent/STIM_007.jpg
1337.908	0.845	incorrect	incongruent	Block2	incongruent/STIM_007.jpg
1342.041	0.728	correct	incongruent	Block2	incongruent/STIM_007.jpg
1345.87	0.681	correct	incongruent	Block2	incongruent/STIM_007.jpg
1348.884	0.814	correct	incongruent	Block2	incongruent/STIM_008.jpg
1352.214	0.662	correct	incongruent	Block2	incongruent/STIM_008.jpg
1356.434	0.942	incorrect	incongruent	Block2	incongruent/STIM_008.jpg
1360.076	0.703	correct	incongruent	Block2	incongruent/STIM_008.jpg
1364.045	1.017	correct	incongruent	Block2	incongruent/STIM_008.jpg
1367.965	1.17	incorrect	incongruent	Block2	incongruent/STIM_009.jpg
1371.672	0.926	correct	incongruent	Block2	incongruent/STIM_009.jpg
1375.161	0.75	incorrect	incongruent	Block2	incongruent/STIM_009.jpg
1379.613	0.883	correct	incongruent	Block2	incongruent/STIM_009.jpg
1383.54	0.649	correct	incongruent	Block2	incongruent/STIM_009.jpg
1387.722	0.928	incorrect	incongruent	Block2	incongruent/STIM_010.jpg
1391.762	1.346	correct	incongruent	Block2	incongruent/STIM_010.jpg
1396.243	0.753	correct	incongruent	Block2	incongruent/STIM_010.jpg
1399.726	1.071	incorrect	incongruent	Block2	incongruent/STIM_010.jpg
1404.639	0.813	incorrect	incongruent	Block2	incongruent/STIM_010.jpg
1407.908	0.745	correct	incongruent	Block2	incongruent/STIM_011.jpg
1411.726	0.762	incorrect	incongruent	Block2	incongruent/STIM_011.jpg
1414.63	0.882	correct	incongruent	Block2	incongruent/STIM_011.jpg
1417.927	0.816	correct	incongruent	Block2	incongruent/STIM_011.jpg
1420.988	1.148	incorrect	incongruent	Block2	incongruent/STIM_011.jpg
1424.929	1.369	incorrect	incongruent	Block2	incongruent/STIM_012.jpg
1430.046	0.862	correct	incongruent	Block2	incongruent/STIM_012.jpg
1434.558	0.615	incorrect	incongruent	Block2	incongruent/STIM_012.jpg
1437.586	0.592	correct	incongruent	Block2	incongruent/STIM_012.jpg
1441.944	0.996	correct	incongruent	Block2	incongruent/STIM_012.jpg
1446.217	0.694	correct	incongruent	Block2	incongruent/STIM_013.jpg
1450.044	0.917	correct	incongruent	Block2	incongruent/STIM_013.jpg
1454.632	0.963	correct	incongruent	Block2	incongruent/STIM_013.jpg
1458.439	0.915	correct	incongruent	Block2	incongruent/STIM_013.jpg
1461.958	1.021	correct	incongruent	Block2	incongruent/STIM_013.jpg
1466.389	0.817	correct	incongruent	Block2	incongruent/STIM_014.jpg
1470.969	1.1	correct	incongruent	Block2	incongruent/STIM_014.jpg
1474.77	0.771	correct	incongruent	Block2	incongruent/STIM_014.jpg
1478.514	1.15	correct	incongruent	Block2	incongruent/STIM_014.jpg
1481.699	0.8	correct	incongruent	Block2	incongruent/STIM_014.jpg
1486.12	1.378	correct	incongruent	Block2	incongruent/STIM_015.jpg
1490.237	1.339	correct	incongruent	Block2	incongruent/STIM_015.jpg
1494.368	1.2	correct	incongruent	Block2	incongruent/STIM_015.jpg
1498.425	1.064	incorrect	incongruent	Block2	incongruent/STIM_015.jpg
1503.421	1.132	correct	incongruent	Block2	incongruent/STIM_015.jpg
1507.344	0.718	incorrect	incongruent	Block2	incongruent/STIM_016.jpg
1510.745	1.236	incorrect	incongruent	Block2	incongruent/STIM_016.jpg
1515.83	1.226	incorrect	incongruent	Block2	incongruent/STIM_016.jpg
1520.646	1.084	correct	incongruent	Block2	incongruent/STIM_016.jpg
1525.352	0.745	incorrect	incongruent	Block2	incongruent/STIM_016.jpg
1529.375	1.202	correct	incongruent	Block2	incongruent/STIM_017.jpg
1533.057	1.163	correct	incongruent	Block2	incongruent/STIM_017.jpg
1537.252	1.144	correct	incongruent	Block2	incongruent/STIM_017.jpg
1540.907	0.664	correct	incongruent	Block2	incongruent/STIM_017.jpg
1544.754	1.152	correct	incongruent	Block2	incongruent/STIM_017.jpg
1548.95	0.751	correct	incongruent	Block2	incongruent/STIM_018.jpg
1551.851	0.942	correct	incongruent	Block2	incongruent/STIM_018.jpg
1556.668	0.779	correct	incongruent	Block2	incongruent/STIM_018.jpg
1560.933	1.176	correct	incongruent	Block2	incongruent/STIM_018.jpg
1564.654	0.701	incorrect	incongruent	Block2	incongruent/STIM_018.jpg
1568.082	1.011	correct	incongruent	Block2	incongruent/STIM_019.jpg
1571.902	0.871	correct	incongruent	Block2	incongruent/STIM_019.jpg
1575.667	0.714	correct	incongruent	Block2	incongruent/STIM_019.jpg
1579.612	0.644	incorrect	incongruent	Block2	incongruent/STIM_019.jpg
1583.978	0.659	incorrect	incongruent	Block2	incongruent/STIM_019.jpg
1588.027	1.268	correct	incongruent	Block2	incongruent/STIM_020.jpg
1592.678	0.786	correct	incongruent	Block2	incongruent/STIM_020.jpg
1597.461	0.719	correct	incongruent	Block2	incongruent/STIM_020.jpg
1600.544	1.004	correct	incongruent	Block2	incongruent/STIM_020.jpg
1605.137	1.158	correct	incongruent	Block2	incongruent/STIM_020.jpg
1608.593	0.867	incorrect	incongruent	Block2	incongruent/STIM_021.jpg
1612.76	0.761	correct	incongruent	Block2	incongruent/STIM_021.jpg
1617.116	0.635	correct	incongruent	Block2	incongruent/STIM_021.jpg
1620.407	1.055	correct	incongruent	Block2	incongruent/STIM_021.jpg
1624.4	0.708	correct	incongruent	Block2	incongruent/STIM_021.jpg
1627.958	0.762	correct	incongruent	Block2	incongruent/STIM_022.jpg
1631.076	0.841	incorrect	incongruent	Block2	incongruent/STIM_022.jpg
1633.948	0.76	incorrect	incongruent	Block2	incongruent/STIM_022.jpg
1637.709	0.724	correct	incongruent	Block2	incongruent/STIM_022.jpg
1640.687	0.702	incorrect	incongruent	Block2	incongruent/STIM_022.jpg
1644.53	1.022	correct	incongruent	Block2	incongruent/STIM_023.jpg
1649.546	1.158	correct	incongruent	Block2	incongruent/STIM_023.jpg
1652.953	1.208	incorrect	incongruent	Block2	incongruent/STIM_023.jpg
1658.07	0.94	incorrect	incongruent	Block2	incongruent/STIM_023.jpg
1661.888	0.922	incorrect	incongruent	Block2	incongruent/STIM_023.jpg
1666.679	1.298	correct	incongruent	Block2	incongruent/STIM_024.jpg
1671.043	0.784	incorrect	incongruent	Block2	incongruent/STIM_024.jpg
1675.541	0.732	incorrect	incongruent	Block2	incongruent/STIM_024.jpg
1679.26	0.854	correct	incongruent	Block2	incongruent/STIM_024.jpg
1683.856	0.865	correct	incongruent	Block2	incongruent/STIM_024.jpg
1688.012	1.351	correct	incongruent	Block2	incongruent/STIM_025.jpg
1692.336	1.244	incorrect	incongruent	Block2	incongruent/STIM_025.jpg
1695.993	1.107	incorrect	incongruent	Block2	incongruent/STIM_025.jpg
1699.449	0.662	correct	incongruent	Block2	incongruent/STIM_025.jpg
1703.014	0.65	incorrect	incongruent	Block2	incongruent/STIM_025.jpg
1706.561	0.959	incorrect	incongruent	Block2	incongruent/STIM_026.jpg
1710.92	0.76	correct	incongruent	Block2	incongruent/STIM_026.jpg
1714.487	0.828	correct	incongruent	Block2	incongruent/STIM_026.jpg
1718.323	0.583	incorrect	incongruent	Block2	incongruent/STIM_026.jpg
1721.529	1.041	correct	incongruent	Block2	incongruent/STIM_026.jpg
1725.197	1.108	incorrect	incongruent	Block2	incongruent/STIM_027.jpg
1729.923	0.999	correct	incongruent	Block2	incongruent/STIM_027.jpg
1733.6	0.915	correct	incongruent	Block2	incongruent/STIM_027.jpg
1737.227	1.031	incorrect	incongruent	Block2	incongruent/STIM_027.jpg
1742.141	0.989	correct	incongruent	Block2	incongruent/STIM_027.jpg
1746.447	1.083	correct	incongruent	Block2	incongruent/STIM_028.jpg
1751.096	1.252	correct	incongruent	Block2	incongruent/STIM_028.jpg
1755.15	0.897	incorrect	incongruent	Block2	incongruent/STIM_028.jpg
1759.859	1.057	correct	incongruent	Block2	incongruent/STIM_028.jpg
1764.064	0.951	correct	incongruent	Block2	incongruent/STIM_028.jpg
1767.892	0.704	incorrect	incongruent	Block2	incongruent/STIM_029.jpg
1771.882	0.717	correct	incongruent	Block2	incongruent/STIM_029.jpg
1775.688	0.97	correct	incongruent	Block2	incongruent/STIM_029.jpg
1779.586	0.844	incorrect	incongruent	Block2	incongruent/STIM_029.jpg
1783.953	0.686	incorrect	incongruent	Block2	incongruent/STIM_029.jpg
1787.572	0.96	correct	congruent	Block2	congruent/STIM_000.jpg
1792.125	0.981	correct	congruent	Block2	congruent/STIM_000.jpg
1796.519	0.722	correct	congruent	Block2	congruent/STIM_000.jpg
1799.655	0.635	incorrect	congruent	Block2	congruent/STIM_000.jpg
1803.097	0.682	incorrect	congruent	Block2	congruent/STIM_000.jpg
1807.723	1.014	correct	congruent	Block2	congruent/STIM_001.jpg
1811.638	0.659	incorrect	congruent	Block2	congruent/STIM_001.jpg
1815.465	0.92	correct	congruent	Block2	congruent/STIM_001.jpg
1819.392	0.592	incorrect	congruent	Block2	congruent/STIM_001.jpg
1823.548	0.965	incorrect	congruent	Block2	congruent/STIM_001.jpg
1827.098	0.914	correct	congruent	Block2	congruent/STIM_002.jpg
1830.123	0.72	correct	congruent	Block2	congruent/STIM_002.jpg
1833.272	0.817	incorrect	congruent	Block2	congruent/STIM_002.jpg
1836.929	0.712	correct	congruent	Block2	congruent/STIM_002.jpg
1840.825	0.681	incorrect	congruent	Block2	congruent/STIM_002.jpg
1845.39	0.881	incorrect	congruent	Block2	congruent/STIM_003.jpg
1850.039	0.929	incorrect	congruent	Block2	congruent/STIM_003.jpg
1854.575	0.755	correct	congruent	Block2	congruent/STIM_003.jpg
1858.066	0.729	correct	congruent	Block2	congruent/STIM_003.jpg
1861.787	0.675	correct	congruent	Block2	congruent/STIM_003.jpg
1865.961	0.735	correct	congruent	Block2	congruent/STIM_004.jpg
1870.35	0.881	correct	congruent	Block2	congruent/STIM_004.jpg
1874.537	0.749	correct	congruent	Block2	congruent/STIM_004.jpg
1878.569	0.698	incorrect	congruent	Block2	congruent/STIM_004.jpg
1882.499	0.842	correct	congruent	Block2	congruent/STIM_004.jpg
1886.177	0.826	correct	congruent	Block2	congruent/STIM_005.jpg
1889.528	0.7	incorrect	congruent	Block2	congruent/STIM_005.jpg
1892.752	0.661	correct	congruent	Block2	congruent/STIM_005.jpg
1895.514	0.654	incorrect	congruent	Block2	congruent/STIM_005.jpg
1899.051	0.922	incorrect	congruent	Block2	congruent/STIM_005.jpg
1902.83	0.576	correct	congruent	Block2	congruent/STIM_006.jpg
1907.319	0.983	correct	congruent	Block2	congruent/STIM_006.jpg
1911.808	0.89	correct	congruent	Block2	congruent/STIM_006.jpg
1916.661	0.606	correct	congruent	Block2	congruent/STIM_006.jpg
1920.623	0.61	correct	congruent	Block2	congruent/STIM_006.jpg
1923.755	0.995	correct	congruent	Block2	congruent/STIM_007.jpg
1927.151	0.882	correct	congruent	Block2	congruent/STIM_007.jpg
1931.226	0.712	incorrect	congruent	Block2	congruent/STIM_007.jpg
1934.385	0.608	correct	congruent	Block2	congruent/STIM_007.jpg
1937.817	0.751	correct	congruent	Block2	congruent/STIM_007.jpg
1942.185	0.805	correct	congruent	Block2	congruent/STIM_008.jpg
1946.945	0.966	incorrect	congruent	Block2	congruent/STIM_008.jpg
1950.153	0.615	correct	congruent	Block2	congruent/STIM_008.jpg
1953.167	0.889	correct	congruent	Block2	congruent/STIM_008.jpg
1957.932	0.823	correct	congruent	Block2	congruent/STIM_008.jpg
1962.11	0.57	incorrect	congruent	Block2	congruent/STIM_009.jpg
1965.56	0.653	correct	congruent	Block2	congruent/STIM_009.jpg
1968.402	0.768	correct	congruent	Block2	congruent/STIM_009.jpg
1971.362	0.609	correct	congruent	Block2	congruent/STIM_009.jpg
1974.604	0.888	incorrect	congruent	Block2	congruent/STIM_009.jpg
1978.976	0.692	incorrect	congruent	Block2	congruent/STIM_010.jpg
1983.066	0.994	incorrect	congruent	Block2	congruent/STIM_010.jpg
1987.298	1.019	correct	congruent	Block2	congruent/STIM_010.jpg
1991.383	0.881	incorrect	congruent	Block2	congruent/STIM_010.jpg
1995.127	0.754	correct	congruent	Block2	congruent/STIM_010.jpg
1997.987	0.963	correct	congruent	Block2	congruent/STIM_011.jpg
2001.57	0.573	correct	congruent	Block2	congruent/STIM_011.jpg
2005.791	0.907	incorrect	congruent	Block2	congruent/STIM_011.jpg
2008.879	0.735	incorrect	congruent	Block2	congruent/STIM_011.jpg
2012.011	0.882	correct	congruent	Block2	congruent/STIM_011.jpg
2015.851	0.691	correct	congruent	Block2	congruent/STIM_012.jpg
2020.517	0.806	incorrect	congruent	Block2	congruent/STIM_012.jpg
2024.89	0.982	correct	congruent	Block2	congruent/STIM_012.jpg
2028.989	0.759	correct	congruent	Block2	congruent/STIM_012.jpg
2032.924	0.823	incorrect	congruent	Block2	congruent/STIM_012.jpg
2036.332	0.728	correct	congruent	Block2	congruent/STIM_013.jpg
2039.889	0.606	correct	congruent	Block2	congruent/STIM_013.jpg
2044.027	0.846	incorrect	congruent	Block2	congruent/STIM_013.jpg
2047.453	0.593	correct	congruent	Block2	congruent/STIM_013.jpg
2051.945	0.989	incorrect	congruent	Block2	congruent/STIM_013.jpg
2055.022	0.811	correct	congruent	Block2	congruent/STIM_014.jpg
2058.617	1.017	incorrect	congruent	Block2	congruent/STIM_014.jpg
2062.829	0.765	incorrect	congruent	Block2	congruent/STIM_014.jpg
2065.636	0.61	incorrect	congruent	Block2	congruent/STIM_014.jpg
2068.357	0.755	incorrect	congruent	Block2	congruent/STIM_014.jpg
2072.919	0.824	correct	congruent	Block2	congruent/STIM_015.jpg
2076.511	0.762	incorrect	congruent	Block2	congruent/STIM_015.jpg
2080.173	0.712	correct	congruent	Block2	congruent/STIM_015.jpg
2084.828	0.587	correct	congruent	Block2	congruent/STIM_015.jpg
2088.591	0.999	correct	congruent	Block2	congruent/STIM_015.jpg
2092.115	0.685	incorrect	congruent	Block2	congruent/STIM_016.jpg
2095.84	0.75	correct	congruent	Block2	congruent/STIM_016.jpg
2099.524	0.706	incorrect	congruent	Block2	congruent/STIM_016.jpg
2104.071	0.726	correct	congruent	Block2	congruent/STIM_016.jpg
2107.539	0.674	incorrect	congruent	Block2	congruent/STIM_016.jpg
2111.061	0.807	correct	congruent	Block2	congruent/STIM_017.jpg
2115.497	0.614	incorrect	congruent	Block2	congruent/STIM_017.jpg
2119.032	0.886	incorrect	congruent	Block2	congruent/STIM_017.jpg
2122.256	0.596	correct	congruent	Block2	congruent/STIM_017.jpg
2126.336	0.582	incorrect	congruent	Block2	congruent/STIM_017.jpg
2129.065	0.597	incorrect	congruent	Block2	congruent/STIM_018.jpg
2131.832	0.971	incorrect	congruent	Block2	congruent/STIM_018.jpg
2134.835	0.763	correct	congruent	Block2	congruent/STIM_018.jpg
2138.327	0.788	correct	congruent	Block2	congruent/STIM_018.jpg
2143.032	0.882	correct	congruent	Block2	congruent/STIM_018.jpg
2147.218	0.766	incorrect	congruent	Block2	congruent/STIM_019.jpg
2151.966	0.934	correct	congruent	Block2	congruent/STIM_019.jpg
2156.679	0.999	incorrect	congruent	Block2	congruent/STIM_019.jpg
2160.428	0.82	incorrect	congruent	Block2	congruent/STIM_019.jpg
2164.303	0.869	correct	congruent	Block2	congruent/STIM_019.jpg
2168.923	0.724	incorrect	congruent	Block2	congruent/STIM_020.jpg
2173.343	0.793	incorrect	congruent	Block2	congruent/STIM_020.jpg
2176.398	0.98	correct	congruent	Block2	congruent/STIM_020.jpg
2179.798	0.708	correct	congruent	Block2	congruent/STIM_020.jpg
2184.456	0.887	correct	congruent	Block2	congruent/STIM_020.jpg
2187.779	0.585	correct	congruent	Block2	congruent/STIM_021.jpg
2191.642	0.984	incorrect	congruent	Block2	congruent/STIM_021.jpg
2196.077	0.763	correct	congruent	Block2	congruent/STIM_021.jpg
2199.55	0.971	correct	congruent	Block2	congruent/STIM_021.jpg
2203.1	0.821	incorrect	congruent	Block2	congruent/STIM_021.jpg
2206.232	0.906	incorrect	congruent	Block2	congruent/STIM_022.jpg
2211.066	0.802	correct	congruent	Block2	congruent/STIM_022.jpg
2215.429	0.641	incorrect	congruent	Block2	congruent/STIM_022.jpg
2218.593	0.735	correct	congruent	Block2	congruent/STIM_022.jpg
2221.629	0.862	correct	congruent	Block2	congruent/STIM_022.jpg
2225.925	0.852	incorrect	congruent	Block2	congruent/STIM_023.jpg
2230.237	0.818	incorrect	congruent	Block2	congruent/STIM_023.jpg
2233.298	0.77	correct	congruent	Block2	congruent/STIM_023.jpg
2236.429	0.688	incorrect	congruent	Block2	congruent/STIM_023.jpg
2239.445	0.913	correct	congruent	Block2	congruent/STIM_023.jpg
2242.73	0.714	incorrect	congruent	Block2	congruent/STIM_024.jpg
2245.596	0.645	incorrect	congruent	Block2	congruent/STIM_024.jpg
2249.017	0.677	correct	congruent	Block2	congruent/STIM_024.jpg
2251.896	0.837	incorrect	congruent	Block2	congruent/STIM_024.jpg
2256.426	0.93	correct	congruent	Block2	congruent/STIM_024.jpg
2260.096	0.938	correct	congruent	Block2	congruent/STIM_025.jpg
2263.205	0.95	correct	congruent	Block2	congruent/STIM_025.jpg
2266.281	1.019	incorrect	congruent	Block2	congruent/STIM_025.jpg
2269.917	1.019	incorrect	congruent	Block2	congruent/STIM_025.jpg
2273.769	0.904	correct	congruent	Block2	congruent/STIM_025.jpg
2277.101	0.925	correct	congruent	Block2	congruent/STIM_026.jpg
2280.428	0.946	incorrect	congruent	Block2	congruent/STIM_026.jpg
2283.761	0.623	incorrect	congruent	Block2	congruent/STIM_026.jpg
2287.1	1.015	correct	congruent	Block2	congruent/STIM_026.jpg
2290.616	0.795	correct	congruent	Block2	congruent/STIM_026.jpg
2294.514	0.858	correct	congruent	Block2	congruent/STIM_027.jpg
2297.629	1.002	incorrect	congruent	Block2	congruent/STIM_027.jpg
2301.276	0.803	correct	congruent	Block2	congruent/STIM_027.jpg
2304.3	0.934	incorrect	congruent	Block2	congruent/STIM_027.jpg
2308.049	0.912	incorrect	congruent	Block2	congruent/STIM_027.jpg
2311.536	0.727	incorrect	congruent	Block2	congruent/STIM_028.jpg
2315.962	1.01	correct	congruent	Block2	congruent/STIM_028.jpg
2319.804	0.84	incorrect	congruent	Block2	congruent/STIM_028.jpg
2323.342	0.61	correct	congruent	Block2	congruent/STIM_028.jpg
2326.262	0.597	correct	congruent	Block2	congruent/STIM_028.jpg
2330.461	0.605	correct	congruent	Block2	congruent/STIM_029.jpg
2333.41	0.73	correct	congruent	Block2	congruent/STIM_029.jpg
2336.644	0.678	correct	congruent	Block2	congruent/STIM_029.jpg
2340.233	0.72	incorrect	congruent	Block2	congruent/STIM_029.jpg
2344.47	1.016	correct	congruent	Block2	congruent/STIM_029.jpg
2348.703	0.781	incorrect	incongruent	Block3	incongruent/STIM_000.jpg
2352.963	1.132	correct	incongruent	Block3	incongruent/STIM_000.jpg
2357.369	0.892	correct	incongruent	Block3	incongruent/STIM_000.jpg
2361.177	1.119	correct	incongruent	Block3	incongruent/STIM_000.jpg
2365.061	0.886	incorrect	incongruent	Block3	incongruent/STIM_000.jpg
2368.153	0.871	correct	incongruent	Block3	incongruent/STIM_001.jpg
2371.322	0.736	correct	incongruent	Block3	incongruent/STIM_001.jpg
2374.384	0.782	correct	incongruent	Block3	incongruent/STIM_001.jpg
2377.444	0.588	correct	incongruent	Block3	incongruent/STIM_001.jpg
2381.287	0.948	correct	incongruent	Block3	incongruent/STIM_001.jpg
2385.309	1.042	correct	incongruent	Block3	incongruent/STIM_002.jpg
2388.464	0.789	correct	incongruent	Block3	incongruent/STIM_002.jpg
2391.771	0.705	correct	incongruent	Block3	incongruent/STIM_002.jpg
2394.889	0.972	correct	incongruent	Block3	incongruent/STIM_002.jpg
2397.918	0.826	correct	incongruent	Block3	incongruent/STIM_002.jpg
2401.252	0.796	correct	incongruent	Block3	incongruent/STIM_003.jpg
2405.892	0.585	incorrect	incongruent	Block3	incongruent/STIM_003.jpg
2409.184	0.723	incorrect	incongruent	Block3	incongruent/STIM_003.jpg
2413.484	0.836	correct	incongruent	Block3	incongruent/STIM_003.jpg
2416.915	1.168	incorrect	incongruent	Block3	incongruent/STIM_003.jpg
2422.037	1.08	correct	incongruent	Block3	incongruent/STIM_004.jpg
2426.636	1.162	correct	incongruent	Block3	incongruent/STIM_004.jpg
2431.426	0.642	correct	incongruent	Block3	incongruent/STIM_004.jpg
2434.599	0.656	correct	incongruent	Block3	incongruent/STIM_004.jpg
2438.417	0.607	incorrect	incongruent	Block3	incongruent/STIM_004.jpg
2441.922	1.039	correct	incongruent	Block3	incongruent/STIM_005.jpg
2446.241	1.168	correct	incongruent	Block3	incongruent/STIM_005.jpg
2451.104	0.893	correct	incongruent	Block3	incongruent/STIM_005.jpg
2454.176	0.656	incorrect	incongruent	Block3	incongruent/STIM_005.jpg
2457.217	0.975	incorrect	incongruent	Block3	incongruent/STIM_005.jpg
2460.731	0.708	incorrect	incongruent	Block3	incongruent/STIM_006.jpg
2464.721	1.078	correct	incongruent	Block3	incongruent/STIM_006.jpg
2468.971	1.04	correct	incongruent	Block3	incongruent/STIM_006.jpg
2473.49	1.131	incorrect	incongruent	Block3	incongruent/STIM_006.jpg
2476.887	0.574	correct	incongruent	Block3	incongruent/STIM_006.jpg
2479.814	0.772	correct	incongruent	Block3	incongruent/STIM_007.jpg
2483.237	0.878	correct	incongruent	Block3	incongruent/STIM_007.jpg
2487.43	1.056	correct	incongruent	Block3	incongruent/STIM_007.jpg
2491.825	1.1	correct	incongruent	Block3	incongruent/STIM_007.jpg
2496.892	0.671	incorrect	incongruent	Block3	incongruent/STIM_007.jpg
2499.709	0.616	incorrect	incongruent	Block3	incongruent/STIM_008.jpg
2504.311	0.587	incorrect	incongruent	Block3	incongruent/STIM_008.jpg
2507.868	0.878	correct	incongruent	Block3	incongruent/STIM_008.jpg
2512.241	0.956	correct	incongruent	Block3	incongruent/STIM_008.jpg
2515.783	0.727	correct	incongruent	Block3	incongruent/STIM_008.jpg
2520.431	0.614	incorrect	incongruent	Block3	incongruent/STIM_009.jpg
2524.684	0.845	correct	incongruent	Block3	incongruent/STIM_009.jpg
2528.059	1.11	correct	incongruent	Block3	incongruent/STIM_009.jpg
2532.603	0.712	correct	incongruent	Block3	incongruent/STIM_009.jpg
2536.639	1.155	incorrect	incongruent	Block3	incongruent/STIM_009.jpg
2540.191	0.606	correct	incongruent	Block3	incongruent/STIM_010.jpg
2543.688	0.753	correct	incongruent	Block3	incongruent/STIM_010.jpg
2548.124	0.615	incorrect	incongruent	Block3	incongruent/STIM_010.jpg
2551.938	0.572	correct	incongruent	Block3	incongruent/STIM_010.jpg
2554.656	0.723	correct	incongruent	Block3	incongruent/STIM_010.jpg
2558.605	0.737	correct	incongruent	Block3	incongruent/STIM_011.jpg
2561.962	0.819	correct	incongruent	Block3	incongruent/STIM_011.jpg
2566.157	0.804	correct	incongruent	Block3	incongruent/STIM_011.jpg
2570.391	0.764	correct	incongruent	Block3	incongruent/STIM_011.jpg
2574.247	1.054	correct	incongruent	Block3	incongruent/STIM_011.jpg
2577.739	0.593	correct	incongruent	Block3	incongruent/STIM_012.jpg
2581.953	1.071	correct	incongruent	Block3	incongruent/STIM_012.jpg
2586.781	1.076	correct	incongruent	Block3	incongruent/STIM_012.jpg
2591.115	0.67	correct	incongruent	Block3	incongruent/STIM_012.jpg
2593.866	1.098	correct	incongruent	Block3	incongruent/STIM_012.jpg
2596.974	0.856	incorrect	incongruent	Block3	incongruent/STIM_013.jpg
2600.846	0.57	incorrect	incongruent	Block3	incongruent/STIM_013.jpg
2604.685	0.605	correct	incongruent	Block3	incongruent/STIM_013.jpg
2608.714	0.568	incorrect	incongruent	Block3	incongruent/STIM_013.jpg
2611.348	0.652	incorrect	incongruent	Block3	incongruent/STIM_013.jpg
2614.404	0.982	correct	incongruent	Block3	incongruent/STIM_014.jpg
2618.86	0.897	incorrect	incongruent	Block3	incongruent/STIM_014.jpg
2621.85	0.572	correct	incongruent	Block3	incongruent/STIM_014.jpg
2624.543	1.128	correct	incongruent	Block3	incongruent/STIM_014.jpg
2628.921	1.056	correct	incongruent	Block3	incongruent/STIM_014.jpg
2632.782	0.674	correct	incongruent	Block3	incongruent/STIM_015.jpg
2636.801	0.826	correct	incongruent	Block3	incongruent/STIM_015.jpg
2641.031	0.941	correct	incongruent	Block3	incongruent/STIM_015.jpg
2644.96	1.068	correct	incongruent	Block3	incongruent/STIM_015.jpg
2649.933	0.854	correct	incongruent	Block3	incongruent/STIM_015.jpg
2653.417	0.603	correct	incongruent	Block3	incongruent/STIM_016.jpg
2657.138	0.952	correct	incongruent	Block3	incongruent/STIM_016.jpg
2661.445	0.899	correct	incongruent	Block3	incongruent/STIM_016.jpg
2666.078	1.164	correct	incongruent	Block3	incongruent/STIM_016.jpg
2669.917	1.173	correct	incongruent	Block3	incongruent/STIM_016.jpg
2673.299	1.071	correct	incongruent	Block3	incongruent/STIM_017.jpg
2678.277	1.054	incorrect	incongruent	Block3	incongruent/STIM_017.jpg
2681.699	0.856	correct	incongruent	Block3	incongruent/STIM_017.jpg
2686.204	1.156	incorrect	incongruent	Block3	incongruent/STIM_017.jpg
2689.457	0.971	correct	incongruent	Block3	incongruent/STIM_017.jpg
2694.42	0.891	correct	incongruent	Block3	incongruent/STIM_018.jpg
2697.46	0.63	correct	incongruent	Block3	incongruent/STIM_018.jpg
2701.287	0.586	correct	incongruent	Block3	incongruent/STIM_018.jpg
2705.719	1.044	correct	incongruent	Block3	incongruent/STIM_018.jpg
2709.656	0.96	correct	incongruent	Block3	incongruent/STIM_018.jpg
2712.639	0.78	correct	incongruent	Block3	incongruent/STIM_019.jpg
2716.297	1.183	correct	incongruent	Block3	incongruent/STIM_019.jpg
2719.923	0.95	correct	incongruent	Block3	incongruent/STIM_019.jpg
2723.731	1.167	incorrect	incongruent	Block3	incongruent/STIM_019.jpg
2727.814	0.655	correct	incongruent	Block3	incongruent/STIM_019.jpg
2732.404	0.946	incorrect	incongruent	Block3	incongruent/STIM_020.jpg
2735.742	0.97	incorrect	incongruent	Block3	incongruent/STIM_020.jpg
2739.255	0.956	correct	incongruent	Block3	incongruent/STIM_020.jpg
2743.492	0.952	incorrect	incongruent	Block3	incongruent/STIM_020.jpg
2747.962	0.931	correct	incongruent	Block3	incongruent/STIM_020.jpg
2751.822	1.073	correct	incongruent	Block3	incongruent/STIM_021.jpg
2756.044	1.052	correct	incongruent	Block3	incongruent/STIM_021.jpg
2759.548	0.946	incorrect	incongruent	Block3	incongruent/STIM_021.jpg
2763.832	0.787	correct	incongruent	Block3	incongruent/STIM_021.jpg
2766.725	1.163	incorrect	incongruent	Block3	incongruent/STIM_021.jpg
2770.569	0.579	incorrect	incongruent	Block3	incongruent/STIM_022.jpg
2773.326	0.73	correct	incongruent	Block3	incongruent/STIM_022.jpg
2776.22	0.96	correct	incongruent	Block3	incongruent/STIM_022.jpg
2780.531	0.872	correct	incongruent	Block3	incongruent/STIM_022.jpg
2785.355	1.149	correct	incongruent	Block3	incongruent/STIM_022.jpg
2790.232	0.797	correct	incongruent	Block3	incongruent/STIM_023.jpg
2794.002	1.185	incorrect	incongruent	Block3	incongruent/STIM_023.jpg
2797.496	0.561	correct	incongruent	Block3	incongruent/STIM_023.jpg
2800.877	0.886	correct	incongruent	Block3	incongruent/STIM_023.jpg
2804.061	0.794	correct	incongruent	Block3	incongruent/STIM_023.jpg
2808.031	1.064	correct	incongruent	Block3	incongruent/STIM_024.jpg
2811.245	1.164	correct	incongruent	Block3	incongruent/STIM_024.jpg
2815.407	0.776	correct	incongruent	Block3	incongruent/STIM_024.jpg
2819.652	1.097	correct	incongruent	Block3	incongruent/STIM_024.jpg
2823.354	0.612	correct	incongruent	Block3	incongruent/STIM_024.jpg
2826.787	0.932	incorrect	incongruent	Block3	incongruent/STIM_025.jpg
2830.112	0.604	correct	incongruent	Block3	incongruent/STIM_025.jpg
2834.146	0.641	incorrect	incongruent	Block3	incongruent/STIM_025.jpg
2838.565	0.953	correct	incongruent	Block3	incongruent/STIM_025.jpg
2841.784	0.928	correct	incongruent	Block3	incongruent/STIM_025.jpg
2845.404	0.941	correct	incongruent	Block3	incongruent/STIM_026.jpg
2849.72	0.832	correct	incongruent	Block3	incongruent/STIM_026.jpg
2854.095	1.111	correct	incongruent	Block3	incongruent/STIM_026.jpg
2858.759	1.045	correct	incongruent	Block3	incongruent/STIM_026.jpg
2862.479	1.126	correct	incongruent	Block3	incongruent/STIM_026.jpg
2866.595	1.126	correct	incongruent	Block3	incongruent/STIM_027.jpg
2870.607	0.602	correct	incongruent	Block3	incongruent/STIM_027.jpg
2873.226	0.648	correct	incongruent	Block3	incongruent/STIM_027.jpg
2876.346	0.558	correct	incongruent	Block3	incongruent/STIM_027.jpg
2879.998	1.055	incorrect	incongruent	Block3	incongruent/STIM_027.jpg
2884.145	0.676	incorrect	incongruent	Block3	incongruent/STIM_028.jpg
2886.872	0.651	correct	incongruent	Block3	incongruent/STIM_028.jpg
2889.627	1.048	correct	incongruent	Block3	incongruent/STIM_028.jpg
2893.681	0.711	correct	incongruent	Block3	incongruent/STIM_028.jpg
2896.752	0.867	correct	incongruent	Block3	incongruent/STIM_028.jpg
2900.118	1.027	correct	incongruent	Block3	incongruent/STIM_029.jpg
2904.986	0.613	correct	incongruent	Block3	incongruent/STIM_029.jpg
2909.108	0.648	correct	incongruent	Block3	incongruent/STIM_029.jpg
2912.611	0.734	correct	incongruent	Block3	incongruent/STIM_029.jpg
2916.511	1.003	incorrect	incongruent	Block3	incongruent/STIM_029.jpg
2920.141	0.874	correct	congruent	Block3	congruent/STIM_000.jpg
2923.362	0.886	incorrect	congruent	Block3	congruent/STIM_000.jpg
2927.352	0.976	correct	congruent	Block3	congruent/STIM_000.jpg
2931.54	0.826	correct	congruent	Block3	congruent/STIM_000.jpg
2935.061	1.011	correct	congruent	Block3	congruent/STIM_000.jpg
2939.672	0.678	incorrect	congruent	Block3	congruent/STIM_001.jpg
2942.544	0.919	incorrect	congruent	Block3	congruent/STIM_001.jpg
2947.176	0.892	correct	congruent	Block3	congruent/STIM_001.jpg
2950.128	0.869	correct	congruent	Block3	congruent/STIM_001.jpg
2954.367	0.804	correct	congruent	Block3	congruent/STIM_001.jpg
2958.684	0.596	correct	congruent	Block3	congruent/STIM_002.jpg
2962.883	0.806	incorrect	congruent	Block3	congruent/STIM_002.jpg
2967.43	0.684	incorrect	congruent	Block3	congruent/STIM_002.jpg
2971.016	0.694	correct	congruent	Block3	congruent/STIM_002.jpg
2975.241	0.622	correct	congruent	Block3	congruent/STIM_002.jpg
2978.262	0.879	correct	congruent	Block3	congruent/STIM_003.jpg
2982.403	0.928	correct	congruent	Block3	congruent/STIM_003.jpg
2986.511	0.638	correct	congruent	Block3	congruent/STIM_003.jpg
2989.785	0.89	incorrect	congruent	Block3	congruent/STIM_003.jpg
2994.618	0.862	correct	congruent	Block3	congruent/STIM_003.jpg
2999.274	0.616	correct	congruent	Block3	congruent/STIM_004.jpg
3002.295	0.939	correct	congruent	Block3	congruent/STIM_004.jpg
3006.31	0.681	correct	congruent	Block3	congruent/STIM_004.jpg
3010.884	0.575	correct	congruent	Block3	congruent/STIM_004.jpg
3014.08	0.573	correct	congruent	Block3	congruent/STIM_004.jpg
3017.99	0.713	incorrect	congruent	Block3	congruent/STIM_005.jpg
3022.247	0.605	correct	congruent	Block3	congruent/STIM_005.jpg
3025.491	0.704	correct	congruent	Block3	congruent/STIM_005.jpg
3028.672	0.823	incorrect	congruent	Block3	congruent/STIM_005.jpg
3031.948	0.758	incorrect	congruent	Block3	congruent/STIM_005.jpg
3036.472	0.61	correct	congruent	Block3	congruent/STIM_006.jpg
3040.473	0.612	correct	congruent	Block3	congruent/STIM_006.jpg
3043.975	0.579	correct	congruent	Block3	congruent/STIM_006.jpg
3048.16	0.609	correct	congruent	Block3	congruent/STIM_006.jpg
3051.666	0.798	incorrect	congruent	Block3	congruent/STIM_006.jpg
3055.214	0.653	incorrect	congruent	Block3	congruent/STIM_007.jpg
3058.4	0.687	correct	congruent	Block3	congruent/STIM_007.jpg
3062.143	0.973	correct	congruent	Block3	congruent/STIM_007.jpg
3065.733	0.651	correct	congruent	Block3	congruent/STIM_007.jpg
3070.26	0.993	correct	congruent	Block3	congruent/STIM_007.jpg
3074.59	0.594	correct	congruent	Block3	congruent/STIM_008.jpg
3077.725	0.979	incorrect	congruent	Block3	congruent/STIM_008.jpg
3081.762	0.76	incorrect	congruent	Block3	congruent/STIM_008.jpg
3086.468	0.658	correct	congruent	Block3	congruent/STIM_008.jpg
3090.552	0.984	incorrect	congruent	Block3	congruent/STIM_008.jpg
3094.912	0.727	correct	congruent	Block3	congruent/STIM_009.jpg
3099.558	0.605	correct	congruent	Block3	congruent/STIM_009.jpg
3103.598	0.652	correct	congruent	Block3	congruent/STIM_009.jpg
3107.153	0.707	incorrect	congruent	Block3	congruent/STIM_009.jpg
3111.503	0.644	correct	congruent	Block3	congruent/STIM_009.jpg
3115.0	0.623	correct	congruent	Block3	congruent/STIM_010.jpg
3119.007	0.928	correct	congruent	Block3	congruent/STIM_010.jpg
3121.979	0.873	correct	congruent	Block3	congruent/STIM_010.jpg
3126.107	0.619	correct	congruent	Block3	congruent/STIM_010.jpg
3130.598	0.731	correct	congruent	Block3	congruent/STIM_010.jpg
3134.53	0.935	incorrect	congruent	Block3	congruent/STIM_011.jpg
3137.867	0.876	correct	congruent	Block3	congruent/STIM_011.jpg
3141.852	0.83	correct	congruent	Block3	congruent/STIM_011.jpg
3145.682	0.597	incorrect	congruent	Block3	congruent/STIM_011.jpg
3150.262	0.965	incorrect	congruent	Block3	congruent/STIM_011.jpg
3154.254	0.646	correct	congruent	Block3	congruent/STIM_012.jpg
3157.014	0.917	correct	congruent	Block3	congruent/STIM_012.jpg
3160.429	0.592	incorrect	congruent	Block3	congruent/STIM_012.jpg
3163.538	0.949	correct	congruent	Block3	congruent/STIM_012.jpg
3166.778	0.608	incorrect	congruent	Block3	congruent/STIM_012.jpg
3169.403	0.686	correct	congruent	Block3	congruent/STIM_013.jpg
3172.555	0.67	correct	congruent	Block3	congruent/STIM_013.jpg
3177.121	0.779	incorrect	congruent	Block3	congruent/STIM_013.jpg
3180.708	0.621	incorrect	congruent	Block3	congruent/STIM_013.jpg
3185.274	1.012	correct	congruent	Block3	congruent/STIM_013.jpg
3189.567	1.008	correct	congruent	Block3	congruent/STIM_014.jpg
3192.621	0.868	incorrect	congruent	Block3	congruent/STIM_014.jpg
3197.053	0.743	correct	congruent	Block3	congruent/STIM_014.jpg
3201.456	0.791	incorrect	congruent	Block3	congruent/STIM_014.jpg
3205.01	0.602	incorrect	congruent	Block3	congruent/STIM_014.jpg
3208.28	1.007	correct	congruent	Block3	congruent/STIM_015.jpg
3213.219	0.899	correct	congruent	Block3	congruent/STIM_015.jpg
3217.963	0.772	correct	congruent	Block3	congruent/STIM_015.jpg
3222.676	0.755	incorrect	congruent	Block3	congruent/STIM_015.jpg
3226.197	0.735	incorrect	congruent	Block3	congruent/STIM_015.jpg
3230.753	0.567	incorrect	congruent	Block3	congruent/STIM_016.jpg
3235.091	0.61	correct	congruent	Block3	congruent/STIM_016.jpg
3238.742	0.911	correct	congruent	Block3	congruent/STIM_016.jpg
3242.349	0.778	correct	congruent	Block3	congruent/STIM_016.jpg
3245.489	0.854	incorrect	congruent	Block3	congruent/STIM_016.jpg
3248.674	0.649	incorrect	congruent	Block3	congruent/STIM_017.jpg
3251.771	1.01	correct	congruent	Block3	congruent/STIM_017.jpg
3256.576	0.73	correct	congruent	Block3	congruent/STIM_017.jpg
3259.692	0.735	correct	congruent	Block3	congruent/STIM_017.jpg
3264.261	0.569	correct	congruent	Block3	congruent/STIM_017.jpg
3268.334	0.823	incorrect	congruent	Block3	congruent/STIM_018.jpg
3271.676	0.624	correct	congruent	Block3	congruent/STIM_018.jpg
3274.575	0.909	incorrect	congruent	Block3	congruent/STIM_018.jpg
3278.909	0.964	incorrect	congruent	Block3	congruent/STIM_018.jpg
3282.145	0.626	correct	congruent	Block3	congruent/STIM_018.jpg
3286.714	0.617	correct	congruent	Block3	congruent/STIM_019.jpg
3289.76	0.762	correct	congruent	Block3	congruent/STIM_019.jpg
3293.013	0.842	correct	congruent	Block3	congruent/STIM_019.jpg
3297.635	0.85	correct	congruent	Block3	congruent/STIM_019.jpg
3301.762	0.665	incorrect	congruent	Block3	congruent/STIM_019.jpg
3304.822	0.584	incorrect	congruent	Block3	congruent/STIM_020.jpg
3308.726	0.864	incorrect	congruent	Block3	congruent/STIM_020.jpg
3311.675	0.62	correct	congruent	Block3	congruent/STIM_020.jpg
3315.72	0.621	correct	congruent	Block3	congruent/STIM_020.jpg
3319.537	0.611	incorrect	congruent	Block3	congruent/STIM_020.jpg
3323.088	0.882	incorrect	congruent	Block3	congruent/STIM_021.jpg
3327.424	0.668	correct	congruent	Block3	congruent/STIM_021.jpg
3332.002	0.892	incorrect	congruent	Block3	congruent/STIM_021.jpg
3335.353	0.571	correct	congruent	Block3	congruent/STIM_021.jpg
3338.264	0.974	incorrect	congruent	Block3	congruent/STIM_021.jpg
3341.352	0.797	correct	congruent	Block3	congruent/STIM_022.jpg
3345.692	0.768	correct	congruent	Block3	congruent/STIM_022.jpg
3349.795	0.636	correct	congruent	Block3	congruent/STIM_022.jpg
3354.342	0.584	incorrect	congruent	Block3	congruent/STIM_022.jpg
3357.988	0.88	correct	congruent	Block3	congruent/STIM_022.jpg
3360.879	0.808	incorrect	congruent	Block3	congruent/STIM_023.jpg
3365.025	0.76	correct	congruent	Block3	congruent/STIM_023.jpg
3368.132	0.608	correct	congruent	Block3	congruent/STIM_023.jpg
3371.149	0.862	correct	congruent	Block3	congruent/STIM_023.jpg
3374.341	0.801	incorrect	congruent	Block3	congruent/STIM_023.jpg
3377.353	0.57	incorrect	congruent	Block3	congruent/STIM_024.jpg
3381.918	0.747	incorrect	congruent	Block3	congruent/STIM_024.jpg
3386.063	0.633	correct	congruent	Block3	congruent/STIM_024.jpg
3390.067	0.687	incorrect	congruent	Block3	congruent/STIM_024.jpg
3393.046	0.78	correct	congruent	Block3	congruent/STIM_024.jpg
3397.203	0.949	correct	congruent	Block3	congruent/STIM_025.jpg
3401.376	0.644	correct	congruent	Block3	congruent/STIM_025.jpg
3404.804	0.779	correct	congruent	Block3	congruent/STIM_025.jpg
3409.305	0.574	correct	congruent	Block3	congruent/STIM_025.jpg
3412.676	0.733	correct	congruent	Block3	congruent/STIM_025.jpg
3415.555	0.619	correct	congruent	Block3	congruent/STIM_026.jpg
3419.069	0.921	correct	congruent	Block3	congruent/STIM_026.jpg
3422.373	0.633	incorrect	congruent	Block3	congruent/STIM_026.jpg
3426.724	0.934	correct	congruent	Block3	congruent/STIM_026.jpg
3430.306	0.788	incorrect	congruent	Block3	congruent/STIM_026.jpg
3433.961	1.007	correct	congruent	Block3	congruent/STIM_027.jpg
3438.778	1.006	incorrect	congruent	Block3	congruent/STIM_027.jpg
3441.964	0.701	correct	congruent	Block3	congruent/STIM_027.jpg
3444.748	0.585	correct	congruent	Block3	congruent/STIM_027.jpg
3449.072	0.601	correct	congruent	Block3	congruent/STIM_027.jpg
3453.335	0.946	incorrect	congruent	Block3	congruent/STIM_028.jpg
3457.248	0.772	correct	congruent	Block3	congruent/STIM_028.jpg
3460.394	0.849	correct	congruent	Block3	congruent/STIM_028.jpg
3464.15	0.776	correct	congruent	Block3	congruent/STIM_028.jpg
3468.006	0.803	correct	congruent	Block3	congruent/STIM_028.jpg
3472.212	0.745	correct	congruent	Block3	congruent/STIM_029.jpg
3476.625	0.77	correct	congruent	Block3	congruent/STIM_029.jpg
3480.537	0.976	incorrect	congruent	Block3	congruent/STIM_029.jpg
3485.376	0.941	incorrect	congruent	Block3	congruent/STIM_029.jpg
3490.011	0.793	incorrect	congruent	Block3	congruent/STIM_029.jpg
