onset	duration	response_time_ms	trial_type	learning_stage	stimulus	response_port
0.0	1.224	1223.6	2back	Block1	2back/STIM_000.jpg	100
3.477	1.092	1092.5	2back	Block1	2back/STIM_000.jpg	99
7.668	1.167	1166.8	2back	Block1	2back/STIM_000.jpg	99
11.856	1.019	1018.7	2back	Block1	2back/STIM_001.jpg	100
16.176	1.132	1132.3	2back	Block1	2back/STIM_001.jpg	99
19.833	1.214	1213.5	2back	Block1	2back/STIM_001.jpg	99
23.116	1.448	1448.3	2back	Block1	2back/STIM_002.jpg	99
27.31	0.962	962.0	2back	Block1	2back/STIM_002.jpg	100
31.44	0.938	937.6	2back	Block1	2back/STIM_002.jpg	99
34.907	1.546	1545.7	2back	Block1	2back/STIM_003.jpg	100
38.92	1.105	1104.9	2back	Block1	2back/STIM_003.jpg	100
42.489	0.883	883.1	2back	Block1	2back/STIM_003.jpg	100
46.186	1.342	1341.6	2back	Block1	2back/STIM_004.jpg	99
51.366	1.278	1277.9	2back	Block1	2back/STIM_004.jpg	99
56.588	1.416	1415.8	2back	Block1	2back/STIM_004.jpg	99
61.295	1.436	1435.7	2back	Block1	2back/STIM_005.jpg	100
65.641	1.37	1369.6	2back	Block1	2back/STIM_005.jpg	99
69.482	1.179	1178.6	2back	Block1	2back/STIM_005.jpg	99
74.601	1.383	1383.3	2back	Block1	2back/STIM_006.jpg	99
79.653	1.449	1449.3	2back	Block1	2back/STIM_006.jpg	99
83.961	1.022	1022.2	2back	Block1	2back/STIM_006.jpg	99
87.147	1.095	1095.0	2back	Block1	2back/STIM_007.jpg	100
91.561	1.029	1029.0	2back	Block1	2back/STIM_007.jpg	100
95.474	0.845	845.4	2back	Block1	2back/STIM_007.jpg	99
100.113	0.76	759.8	2back	Block1	2back/STIM_008.jpg	99
103.674	1.119	1118.8	2back	Block1	2back/STIM_008.jpg	99
108.037	1.012	1012.1	2back	Block1	2back/STIM_008.jpg	100
112.804	0.865	865.2	2back	Block1	2back/STIM_009.jpg	100
115.788	1.24	1240.3	2back	Block1	2back/STIM_009.jpg	100
120.283	1.207	1206.9	2back	Block1	2back/STIM_009.jpg	99
124.236	1.221	1220.6	2back	Block1	2back/STIM_010.jpg	99
128.41	0.843	842.9	2back	Block1	2back/STIM_010.jpg	99
132.009	0.8	799.5	2back	Block1	2back/STIM_010.jpg	99
136.719	1.151	1150.7	2back	Block1	2back/STIM_011.jpg	100
141.35	1.327	1327.3	2back	Block1	2back/STIM_011.jpg	100
146.066	0.841	841.2	2back	Block1	2back/STIM_011.jpg	99
148.917	0.989	988.7	2back	Block1	2back/STIM_012.jpg	99
152.776	1.29	1289.9	2back	Block1	2back/STIM_012.jpg	100
156.44	1.051	1051.1	2back	Block1	2back/STIM_012.jpg	99
159.68	0.99	990.1	2back	Block1	2back/STIM_013.jpg	100
163.969	1.17	1169.8	2back	Block1	2back/STIM_013.jpg	100
169.056	0.661	661.1	2back	Block1	2back/STIM_013.jpg	99
172.661	1.08	1080.1	2back	Block1	2back/STIM_014.jpg	99
177.194	0.686	685.5	2back	Block1	2back/STIM_014.jpg	99
180.662	0.809	809.3	2back	Block1	2back/STIM_014.jpg	99
185.38	1.166	1165.5	2back	Block1	2back/STIM_015.jpg	99
189.99	0.649	648.6	2back	Block1	2back/STIM_015.jpg	99
193.749	1.399	1398.8	2back	Block1	2back/STIM_015.jpg	100
198.116	1.343	1342.9	2back	Block1	2back/STIM_016.jpg	99
201.613	1.011	1011.1	2back	Block1	2back/STIM_016.jpg	99
204.826	0.759	759.1	2back	Block1	2back/STIM_016.jpg	99
208.309	1.147	1147.1	2back	Block1	2back/STIM_017.jpg	99
213.022	1.402	1402.3	2back	Block1	2back/STIM_017.jpg	99
217.525	0.838	838.0	2back	Block1	2back/STIM_017.jpg	99
220.409	1.242	1242.3	2back	Block1	2back/STIM_018.jpg	99
224.307	1.078	1077.8	2back	Block1	2back/STIM_018.jpg	100
227.795	1.319	1319.4	2back	Block1	2back/STIM_018.jpg	100
232.309	1.035	1035.4	2back	Block1	2back/STIM_019.jpg	100
235.438	1.24	1240.3	2back	Block1	2back/STIM_019.jpg	99
239.868	0.985	985.2	2back	Block1	2back/STIM_019.jpg	100
244.351	1.275	1274.8	2back	Block1	2back/STIM_020.jpg	99
248.793	0.803	803.1	2back	Block1	2back/STIM_020.jpg	100
253.031	0.693	693.0	2back	Block1	2back/STIM_020.jpg	99
255.955	0.89	890.2	2back	Block1	2back/STIM_021.jpg	100
259.786	0.828	827.5	2back	Block1	2back/STIM_021.jpg	100
263.075	1.019	1018.8	2back	Block1	2back/STIM_021.jpg	99
266.156	0.869	869.4	2back	Block1	2back/STIM_022.jpg	99
270.769	0.647	646.9	2back	Block1	2back/STIM_022.jpg	100
274.467	0.734	734.1	2back	Block1	2back/STIM_022.jpg	99
277.971	0.741	740.7	2back	Block1	2back/STIM_023.jpg	99
282.698	0.681	680.7	2back	Block1	2back/STIM_023.jpg	100
286.644	1.354	1354.4	2back	Block1	2back/STIM_023.jpg	99
290.311	0.728	728.0	2back	Block1	2back/STIM_024.jpg	99
293.64	1.483	1483.1	2back	Block1	2back/STIM_024.jpg	100
298.891	0.993	993.2	2back	Block1	2back/STIM_024.jpg	99
303.512	0.71	710.3	2back	Block1	2back/STIM_025.jpg	99
307.438	0.89	889.9	2back	Block1	2back/STIM_025.jpg	99
311.318	0.796	796.1	2back	Block1	2back/STIM_025.jpg	99
314.459	0.818	817.9	2back	Block1	2back/STIM_026.jpg	100
318.155	1.218	1217.8	2back	Block1	2back/STIM_026.jpg	99
323.115	1.339	1339.0	2back	Block1	2back/STIM_026.jpg	99
327.529	1.432	1431.8	2back	Block1	2back/STIM_027.jpg	99
331.051	1.26	1259.9	2back	Block1	2back/STIM_027.jpg	100
335.314	1.095	1094.6	2back	Block1	2back/STIM_027.jpg	99
339.511	0.954	954.5	2back	Block1	2back/STIM_028.jpg	99
343.596	1.316	1316.1	2back	Block1	2back/STIM_028.jpg	99
348.297	0.728	728.5	2back	Block1	2back/STIM_028.jpg	99
351.613	1.092	1092.3	2back	Block1	2back/STIM_029.jpg	100
355.962	1.455	1455.2	2back	Block1	2back/STIM_029.jpg	99
360.864	1.354	1353.9	2back	Block1	2back/STIM_029.jpg	99
364.813	1.56	1559.8	2back	Block1	2back/STIM_030.jpg	99
369.113	1.383	1383.2	2back	Block1	2back/STIM_030.jpg	100
374.167	1.118	1117.7	2back	Block1	2back/STIM_030.jpg	100
379.006	0.757	757.1	2back	Block1	2back/STIM_031.jpg	99
382.525	0.842	841.6	2back	Block1	2back/STIM_031.jpg	100
386.007	1.343	1342.9	2back	Block1	2back/STIM_031.jpg	100
390.417	0.843	842.8	2back	Block1	2back/STIM_032.jpg	99
395.257	1.343	1343.3	2back	Block1	2back/STIM_032.jpg	100
400.575	1.379	1378.9	2back	Block1	2back/STIM_032.jpg	99
404.73	1.546	1546.3	2back	Block1	2back/STIM_033.jpg	100
408.287	0.968	968.2	2back	Block1	2back/STIM_033.jpg	100
412.489	0.794	794.3	2back	Block1	2back/STIM_033.jpg	99
416.122	0.907	906.6	2back	Block1	2back/STIM_034.jpg	99
420.569	1.431	1431.1	2back	Block1	2back/STIM_034.jpg	100
424.307	0.893	892.8	2back	Block1	2back/STIM_034.jpg	100
428.049	1.433	1433.2	2back	Block1	2back/STIM_035.jpg	99
432.24	1.126	1125.9	2back	Block1	2back/STIM_035.jpg	100
437.352	0.993	992.6	2back	Block1	2back/STIM_035.jpg	99
441.356	1.346	1345.8	2back	Block1	2back/STIM_036.jpg	99
446.633	1.006	1005.6	2back	Block1	2back/STIM_036.jpg	100
449.862	1.405	1404.9	2back	Block1	2back/STIM_036.jpg	99
454.94	0.798	797.8	2back	Block1	2back/STIM_037.jpg	100
459.206	1.128	1127.5	2back	Block1	2back/STIM_037.jpg	100
462.56	0.684	683.6	2back	Block1	2back/STIM_037.jpg	100
467.042	0.887	887.3	2back	Block1	2back/STIM_038.jpg	100
471.137	1.1	1100.5	2back	Block1	2back/STIM_038.jpg	99
474.368	1.106	1105.5	2back	Block1	2back/STIM_038.jpg	99
477.733	1.525	1525.4	2back	Block1	2back/STIM_039.jpg	99
481.76	1.08	1080.2	2back	Block1	2back/STIM_039.jpg	100
485.553	1.093	1093.4	2back	Block1	2back/STIM_039.jpg	99
489.888	0.657	657.2	0back	Block1	0back/STIM_000.jpg	99
494.366	0.455	455.0	0back	Block1	0back/STIM_000.jpg	100
497.381	0.862	861.6	0back	Block1	0back/STIM_000.jpg	100
502.123	0.479	479.2	0back	Block1	0back/STIM_001.jpg	99
504.629	0.821	821.1	0back	Block1	0back/STIM_001.jpg	100
509.319	0.654	653.7	0back	Block1	0back/STIM_001.jpg	99
512.972	0.451	450.7	0back	Block1	0back/STIM_002.jpg	100
516.009	0.6	600.2	0back	Block1	0back/STIM_002.jpg	99
520.106	0.606	606.5	0back	Block1	0back/STIM_002.jpg	99
524.202	0.795	794.8	0back	Block1	0back/STIM_003.jpg	100
527.334	0.845	844.8	0back	Block1	0back/STIM_003.jpg	100
531.379	0.458	458.1	0back	Block1	0back/STIM_003.jpg	99
534.29	0.729	729.0	0back	Block1	0back/STIM_004.jpg	100
538.895	0.473	473.4	0back	Block1	0back/STIM_004.jpg	100
542.334	0.472	471.7	0back	Block1	0back/STIM_004.jpg	99
545.583	0.628	627.6	0back	Block1	0back/STIM_005.jpg	99
548.62	0.78	780.0	0back	Block1	0back/STIM_005.jpg	100
552.37	0.478	477.8	0back	Block1	0back/STIM_005.jpg	100
556.42	0.714	714.4	0back	Block1	0back/STIM_006.jpg	99
559.856	0.525	524.9	0back	Block1	0back/STIM_006.jpg	100
563.954	0.826	826.2	0back	Block1	0back/STIM_006.jpg	99
567.904	0.57	569.5	0back	Block1	0back/STIM_007.jpg	100
571.421	0.736	736.5	0back	Block1	0back/STIM_007.jpg	99
574.182	0.507	506.9	0back	Block1	0back/STIM_007.jpg	100
577.936	0.792	791.9	0back	Block1	0back/STIM_008.jpg	99
581.529	0.801	801.1	0back	Block1	0back/STIM_008.jpg	99
585.274	0.734	734.2	0back	Block1	0back/STIM_008.jpg	100
588.154	0.676	675.7	0back	Block1	0back/STIM_009.jpg	100
591.614	0.854	854.5	0back	Block1	0back/STIM_009.jpg	99
595.662	0.542	541.6	0back	Block1	0back/STIM_009.jpg	100
600.101	0.62	619.6	0back	Block1	0back/STIM_010.jpg	99
603.587	0.691	691.1	0back	Block1	0back/STIM_010.jpg	99
606.554	0.454	454.5	0back	Block1	0back/STIM_010.jpg	99
610.755	0.638	638.1	0back	Block1	0back/STIM_011.jpg	100
613.511	0.513	512.9	0back	Block1	0back/STIM_011.jpg	100
617.4	0.767	766.7	0back	Block1	0back/STIM_011.jpg	99
620.679	0.756	756.3	0back	Block1	0back/STIM_012.jpg	99
624.198	0.722	722.5	0back	Block1	0back/STIM_012.jpg	99
627.308	0.452	451.7	0back	Block1	0back/STIM_012.jpg	100
630.249	0.708	707.7	0back	Block1	0back/STIM_013.jpg	100
633.614	0.723	723.3	0back	Block1	0back/STIM_013.jpg	99
637.13	0.806	806.4	0back	Block1	0back/STIM_013.jpg	100
640.997	0.781	781.3	0back	Block1	0back/STIM_014.jpg	100
643.8	0.815	814.9	0back	Block1	0back/STIM_014.jpg	100
647.477	0.603	603.3	0back	Block1	0back/STIM_014.jpg	100
650.531	0.703	703.0	0back	Block1	0back/STIM_015.jpg	99
653.67	0.503	503.3	0back	Block1	0back/STIM_015.jpg	99
657.134	0.589	588.9	0back	Block1	0back/STIM_015.jpg	99
660.53	0.829	829.1	0back	Block1	0back/STIM_016.jpg	99
663.938	0.602	601.8	0back	Block1	0back/STIM_016.jpg	100
667.78	0.456	455.7	0back	Block1	0back/STIM_016.jpg	100
671.481	0.483	482.8	0back	Block1	0back/STIM_017.jpg	99
675.696	0.714	714.4	0back	Block1	0back/STIM_017.jpg	100
679.761	0.77	770.3	0back	Block1	0back/STIM_017.jpg	99
683.662	0.694	694.5	0back	Block1	0back/STIM_018.jpg	99
688.19	0.895	894.7	0back	Block1	0back/STIM_018.jpg	99
692.956	0.738	738.1	0back	Block1	0back/STIM_018.jpg	99
697.543	0.804	804.1	0back	Block1	0back/STIM_019.jpg	100
700.96	0.776	775.6	0back	Block1	0back/STIM_019.jpg	100
705.099	0.706	705.6	0back	Block1	0back/STIM_019.jpg	99
709.552	1.061	1061.2	2back	Block2	2back/STIM_000.jpg	100
713.515	0.784	783.7	2back	Block2	2back/STIM_000.jpg	100
717.198	0.662	662.3	2back	Block2	2back/STIM_000.jpg	99
721.207	1.172	1171.6	2back	Block2	2back/STIM_001.jpg	100
725.578	1.214	1214.2	2back	Block2	2back/STIM_001.jpg	99
730.288	1.169	1169.2	2back	Block2	2back/STIM_001.jpg	99
734.381	0.932	932.4	2back	Block2	2back/STIM_002.jpg	100
738.527	0.867	866.8	2back	Block2	2back/STIM_002.jpg	99
742.516	0.989	989.0	2back	Block2	2back/STIM_002.jpg	99
747.468	0.82	819.9	2back	Block2	2back/STIM_003.jpg	99
750.96	0.779	779.3	2back	Block2	2back/STIM_003.jpg	99
755.024	0.829	829.1	2back	Block2	2back/STIM_003.jpg	99
758.686	0.921	921.1	2back	Block2	2back/STIM_004.jpg	99
762.9	0.711	710.8	2back	Block2	2back/STIM_004.jpg	100
766.03	0.517	517.2	2back	Block2	2back/STIM_004.jpg	99
768.846	1.147	1146.8	2back	Block2	2back/STIM_005.jpg	99
772.361	0.74	739.7	2back	Block2	2back/STIM_005.jpg	100
775.813	1.046	1045.5	2back	Block2	2back/STIM_005.jpg	99
779.411	0.948	948.1	2back	Block2	2back/STIM_006.jpg	100
784.024	1.122	1122.2	2back	Block2	2back/STIM_006.jpg	99
787.839	1.145	1145.4	2back	Block2	2back/STIM_006.jpg	99
792.578	0.705	705.0	2back	Block2	2back/STIM_007.jpg	99
796.637	0.873	872.6	2back	Block2	2back/STIM_007.jpg	99
800.558	0.57	570.2	2back	Block2	2back/STIM_007.jpg	100
803.81	0.833	833.3	2back	Block2	2back/STIM_008.jpg	100
806.935	0.734	734.3	2back	Block2	2back/STIM_008.jpg	99
809.726	0.812	811.5	2back	Block2	2back/STIM_008.jpg	99
813.269	0.879	879.0	2back	Block2	2back/STIM_009.jpg	99
816.772	0.653	653.3	2back	Block2	2back/STIM_009.jpg	100
819.613	0.814	813.5	2back	Block2	2back/STIM_009.jpg	100
823.969	1.131	1130.7	2back	Block2	2back/STIM_010.jpg	99
828.503	0.796	796.0	2back	Block2	2back/STIM_010.jpg	100
831.93	0.63	630.3	2back	Block2	2back/STIM_010.jpg	99
835.808	0.751	750.8	2back	Block2	2back/STIM_011.jpg	100
840.485	0.866	866.2	2back	Block2	2back/STIM_011.jpg	99
843.745	0.63	629.6	2back	Block2	2back/STIM_011.jpg	100
847.617	0.76	760.5	2back	Block2	2back/STIM_012.jpg	100
850.993	0.779	778.6	2back	Block2	2back/STIM_012.jpg	100
853.773	0.962	961.7	2back	Block2	2back/STIM_012.jpg	99
857.903	0.915	914.9	2back	Block2	2back/STIM_013.jpg	100
860.891	0.852	851.5	2back	Block2	2back/STIM_013.jpg	99
863.814	1.077	1076.8	2back	Block2	2back/STIM_013.jpg	100
868.584	0.879	878.9	2back	Block2	2back/STIM_014.jpg	99
873.309	1.178	1177.6	2back	Block2	2back/STIM_014.jpg	100
878.143	0.544	544.4	2back	Block2	2back/STIM_014.jpg	99
882.274	0.789	789.1	2back	Block2	2back/STIM_015.jpg	99
885.171	0.887	886.7	2back	Block2	2back/STIM_015.jpg	99
889.692	1.023	1023.3	2back	Block2	2back/STIM_015.jpg	100
894.327	1.134	1133.7	2back	Block2	2back/STIM_016.jpg	99
898.908	0.641	641.2	2back	Block2	2back/STIM_016.jpg	99
902.771	1.01	1010.1	2back	Block2	2back/STIM_016.jpg	100
907.754	0.908	908.2	2back	Block2	2back/STIM_017.jpg	99
911.799	1.101	1100.9	2back	Block2	2back/STIM_017.jpg	100
915.027	0.711	710.8	2back	Block2	2back/STIM_017.jpg	99
918.491	0.779	778.7	2back	Block2	2back/STIM_018.jpg	99
923.215	1.168	1168.2	2back	Block2	2back/STIM_018.jpg	99
927.803	1.17	1169.6	2back	Block2	2back/STIM_018.jpg	100
931.508	0.626	625.5	2back	Block2	2back/STIM_019.jpg	100
935.69	1.008	1008.0	2back	Block2	2back/STIM_019.jpg	99
940.574	0.928	928.2	2back	Block2	2back/STIM_019.jpg	99
945.156	0.75	750.4	2back	Block2	2back/STIM_020.jpg	100
949.896	1.145	1145.4	2back	Block2	2back/STIM_020.jpg	100
953.222	0.829	828.9	2back	Block2	2back/STIM_020.jpg	100
957.165	0.616	615.6	2back	Block2	2back/STIM_021.jpg	100
960.292	0.578	578.4	2back	Block2	2back/STIM_021.jpg	99
964.483	0.799	799.4	2back	Block2	2back/STIM_021.jpg	99
969.209	0.577	576.6	2back	Block2	2back/STIM_022.jpg	100
971.918	1.121	1120.6	2back	Block2	2back/STIM_022.jpg	100
976.962	0.75	749.8	2back	Block2	2back/STIM_022.jpg	99
979.844	1.255	1254.6	2back	Block2	2back/STIM_023.jpg	100
984.094	0.616	616.4	2back	Block2	2back/STIM_023.jpg	99
988.134	0.53	529.5	2back	Block2	2back/STIM_023.jpg	100
990.709	0.914	914.2	2back	Block2	2back/STIM_024.jpg	99
994.102	1.012	1012.2	2back	Block2	2back/STIM_024.jpg	100
998.678	0.698	698.3	2back	Block2	2back/STIM_024.jpg	99
1003.062	0.794	793.7	2back	Block2	2back/STIM_025.jpg	100
1007.534	0.795	794.8	2back	Block2	2back/STIM_025.jpg	99
1010.438	0.97	970.3	2back	Block2	2back/STIM_025.jpg	100
1014.426	1.308	1308.2	2back	Block2	2back/STIM_026.jpg	100
1019.073	0.797	797.0	2back	Block2	2back/STIM_026.jpg	99
1022.091	0.775	774.9	2back	Block2	2back/STIM_026.jpg	100
1025.384	1.103	1103.2	2back	Block2	2back/STIM_027.jpg	99
1028.557	1.004	1004.2	2back	Block2	2back/STIM_027.jpg	100
1032.568	1.17	1169.7	2back	Block2	2back/STIM_027.jpg	100
1037.122	1.019	1019.0	2back	Block2	2back/STIM_028.jpg	100
1041.88	1.009	1008.6	2back	Block2	2back/STIM_028.jpg	100
1044.906	1.068	1068.0	2back	Block2	2back/STIM_028.jpg	99
1047.999	0.724	724.1	2back	Block2	2back/STIM_029.jpg	99
1052.034	0.838	838.3	2back	Block2	2back/STIM_029.jpg	99
1055.12	1.04	1040.2	2back	Block2	2back/STIM_029.jpg	99
1058.51	0.793	792.7	2back	Block2	2back/STIM_030.jpg	100
1062.928	0.702	702.3	2back	Block2	2back/STIM_030.jpg	99
1066.361	0.721	721.1	2back	Block2	2back/STIM_030.jpg	100
1070.423	1.062	1062.1	2back	Block2	2back/STIM_031.jpg	100
1074.791	1.259	1258.6	2back	Block2	2back/STIM_031.jpg	99
1078.887	1.067	1066.7	2back	Block2	2back/STIM_031.jpg	100
1083.76	0.578	578.2	2back	Block2	2back/STIM_032.jpg	99
1087.042	0.695	695.0	2back	Block2	2back/STIM_032.jpg	100
1090.695	0.896	895.8	2back	Block2	2back/STIM_032.jpg	100
1094.242	0.97	970.4	2back	Block2	2back/STIM_033.jpg	99
1099.109	1.027	1026.8	2back	Block2	2back/STIM_033.jpg	100
1103.235	1.115	1115.4	2back	Block2	2back/STIM_033.jpg	100
1106.701	1.308	1307.7	2back	Block2	2back/STIM_034.jpg	99
1110.34	0.811	811.2	2back	Block2	2back/STIM_034.jpg	99
1114.627	0.611	611.4	2back	Block2	2back/STIM_034.jpg	100
1118.411	1.207	1206.7	2back	Block2	2back/STIM_035.jpg	99
1122.444	1.216	1216.0	2back	Block2	2back/STIM_035.jpg	100
1125.991	0.887	886.9	2back	Block2	2back/STIM_035.jpg	99
1129.995	1.136	1136.4	2back	Block2	2back/STIM_036.jpg	100
1133.539	0.694	694.0	2back	Block2	2back/STIM_036.jpg	99
1137.471	1.031	1031.3	2back	Block2	2back/STIM_036.jpg	99
1140.82	1.306	1306.3	2back	Block2	2back/STIM_037.jpg	99
1144.826	1.103	1103.4	2back	Block2	2back/STIM_037.jpg	100
1148.241	0.628	628.5	2back	Block2	2back/STIM_037.jpg	100
1151.28	0.99	990.5	2back	Block2	2back/STIM_038.jpg	99
1156.03	0.959	959.0	2back	Block2	2back/STIM_038.jpg	99
1159.547	0.825	825.1	2back	Block2	2back/STIM_038.jpg	99
1162.989	1.229	1229.4	2back	Block2	2back/STIM_039.jpg	100
1168.105	0.795	794.7	2back	Block2	2back/STIM_039.jpg	100
1171.422	0.544	544.5	2back	Block2	2back/STIM_039.jpg	99
1174.603	0.854	854.3	0back	Block2	0back/STIM_000.jpg	99
1178.008	0.897	897.0	0back	Block2	0back/STIM_000.jpg	99
1180.976	0.851	850.6	0back	Block2	0back/STIM_000.jpg	100
1185.709	0.574	573.5	0back	Block2	0back/STIM_001.jpg	99
1189.455	0.488	488.4	0back	Block2	0back/STIM_001.jpg	100
1193.128	0.759	758.9	0back	Block2	0back/STIM_001.jpg	99
1197.373	0.531	531.3	0back	Block2	0back/STIM_002.jpg	100
1200.163	0.57	570.0	0back	Block2	0back/STIM_002.jpg	100
1204.075	0.86	859.6	0back	Block2	0back/STIM_002.jpg	100
1207.009	0.635	635.0	0back	Block2	0back/STIM_003.jpg	100
1209.647	0.537	536.9	0back	Block2	0back/STIM_003.jpg	100
1213.508	0.856	855.8	0back	Block2	0back/STIM_003.jpg	100
1216.376	0.853	853.0	0back	Block2	0back/STIM_004.jpg	99
1219.351	0.71	709.8	0back	Block2	0back/STIM_004.jpg	99
1222.892	0.856	855.8	0back	Block2	0back/STIM_004.jpg	100
1226.487	0.554	554.1	0back	Block2	0back/STIM_005.jpg	100
1229.077	0.51	509.7	0back	Block2	0back/STIM_005.jpg	99
1231.828	0.891	891.1	0back	Block2	0back/STIM_005.jpg	99
1235.134	0.519	518.8	0back	Block2	0back/STIM_006.jpg	100
1238.452	0.574	574.5	0back	Block2	0back/STIM_006.jpg	100
1241.599	0.506	506.5	0back	Block2	0back/STIM_006.jpg	99
1244.892	0.63	630.4	0back	Block2	0back/STIM_007.jpg	100
1247.731	0.742	742.1	0back	Block2	0back/STIM_007.jpg	99
1251.737	0.689	689.0	0back	Block2	0back/STIM_007.jpg	99
1255.75	0.651	651.2	0back	Block2	0back/STIM_008.jpg	100
1258.449	0.636	635.5	0back	Block2	0back/STIM_008.jpg	99
1261.376	0.778	777.5	0back	Block2	0back/STIM_008.jpg	99
1265.376	0.664	664.5	0back	Block2	0back/STIM_009.jpg	100
1269.522	0.51	510.5	0back	Block2	0back/STIM_009.jpg	99
1274.007	0.746	746.5	0back	Block2	0back/STIM_009.jpg	100
1277.69	0.773	773.0	0back	Block2	0back/STIM_010.jpg	100
1280.474	0.865	865.1	0back	Block2	0back/STIM_010.jpg	99
1283.573	0.491	490.8	0back	Block2	0back/STIM_010.jpg	99
1287.784	0.522	522.5	0back	Block2	0back/STIM_011.jpg	100
1291.034	0.542	541.8	0back	Block2	0back/STIM_011.jpg	99
1294.402	0.659	659.2	0back	Block2	0back/STIM_011.jpg	100
1297.523	0.799	798.9	0back	Block2	0back/STIM_012.jpg	100
1300.876	0.85	849.9	0back	Block2	0back/STIM_012.jpg	99
1304.084	0.858	858.3	0back	Block2	0back/STIM_012.jpg	100
1308.573	0.834	833.5	0back	Block2	0back/STIM_013.jpg	99
1312.81	0.771	771.4	0back	Block2	0back/STIM_013.jpg	99
1315.907	0.64	640.2	0back	Block2	0back/STIM_013.jpg	100
1319.855	0.683	683.0	0back	Block2	0back/STIM_014.jpg	100
1323.8	0.778	777.8	0back	Block2	0back/STIM_014.jpg	100
1326.922	0.542	542.1	0back	Block2	0back/STIM_014.jpg	100
1331.29	0.491	490.7	0back	Block2	0back/STIM_015.jpg	99
1335.456	0.595	594.8	0back	Block2	0back/STIM_015.jpg	100
1338.708	0.477	476.9	0back	Block2	0back/STIM_015.jpg	100
1342.676	0.453	453.1	0back	Block2	0back/STIM_016.jpg	99
1346.8	0.892	892.2	0back	Block2	0back/STIM_016.jpg	100
1349.851	0.88	879.6	0back	Block2	0back/STIM_016.jpg	99
1353.396	0.828	828.0	0back	Block2	0back/STIM_017.jpg	100
1356.607	0.77	770.5	0back	Block2	0back/STIM_017.jpg	99
1360.576	0.637	637.0	0back	Block2	0back/STIM_017.jpg	100
1364.32	0.877	876.7	0back	Block2	0back/STIM_018.jpg	99
1369.056	0.488	487.5	0back	Block2	0back/STIM_018.jpg	99
1372.092	0.573	572.8	0back	Block2	0back/STIM_018.jpg	100
1375.931	0.879	878.7	0back	Block2	0back/STIM_019.jpg	99
1380.524	0.548	548.5	0back	Block2	0back/STIM_019.jpg	100
1383.421	0.655	654.7	0back	Block2	0back/STIM_019.jpg	100
1387.532	0.668	667.7	2back	Block3	2back/STIM_000.jpg	100
1391.279	0.629	629.3	2back	Block3	2back/STIM_000.jpg	99
1395.361	0.601	601.2	2back	Block3	2back/STIM_000.jpg	100
1398.747	0.56	559.5	2back	Block3	2back/STIM_001.jpg	100
1401.864	0.764	763.9	2back	Block3	2back/STIM_001.jpg	100
1405.665	0.545	544.7	2back	Block3	2back/STIM_001.jpg	100
1409.35	0.8	799.8	2back	Block3	2back/STIM_002.jpg	99
1412.28	0.976	976.0	2back	Block3	2back/STIM_002.jpg	100
1417.02	0.841	840.9	2back	Block3	2back/STIM_002.jpg	99
1421.51	0.606	606.0	2back	Block3	2back/STIM_003.jpg	100
1425.906	1.094	1094.4	2back	Block3	2back/STIM_003.jpg	100
1430.533	0.616	615.6	2back	Block3	2back/STIM_003.jpg	100
1433.293	0.676	676.1	2back	Block3	2back/STIM_004.jpg	99
1436.738	0.899	898.8	2back	Block3	2back/STIM_004.jpg	99
1441.317	0.666	666.2	2back	Block3	2back/STIM_004.jpg	100
1444.026	0.549	549.4	2back	Block3	2back/STIM_005.jpg	99
1446.989	0.986	986.0	2back	Block3	2back/STIM_005.jpg	100
1450.117	0.747	746.8	2back	Block3	2back/STIM_005.jpg	99
1454.227	0.57	570.0	2back	Block3	2back/STIM_006.jpg	99
1458.617	0.796	795.8	2back	Block3	2back/STIM_006.jpg	99
1461.583	1.08	1079.7	2back	Block3	2back/STIM_006.jpg	99
1465.907	0.672	671.5	2back	Block3	2back/STIM_007.jpg	99
1469.59	0.487	486.8	2back	Block3	2back/STIM_007.jpg	100
1473.95	0.846	845.9	2back	Block3	2back/STIM_007.jpg	100
1476.932	0.821	820.7	2back	Block3	2back/STIM_008.jpg	100
1480.096	0.717	716.8	2back	Block3	2back/STIM_008.jpg	99
1483.639	1.047	1046.9	2back	Block3	2back/STIM_008.jpg	100
1486.771	0.564	564.4	2back	Block3	2back/STIM_009.jpg	99
1490.489	0.496	496.5	2back	Block3	2back/STIM_009.jpg	99
1494.938	0.742	742.0	2back	Block3	2back/STIM_009.jpg	99
1498.471	0.692	692.5	2back	Block3	2back/STIM_010.jpg	100
1502.307	0.898	898.4	2back	Block3	2back/STIM_010.jpg	99
1506.712	1.077	1076.9	2back	Block3	2back/STIM_010.jpg	99
1510.745	0.576	575.5	2back	Block3	2back/STIM_011.jpg	99
1513.9	0.63	629.9	2back	Block3	2back/STIM_011.jpg	99
1517.034	0.996	995.8	2back	Block3	2back/STIM_011.jpg	100
1520.494	0.768	767.7	2back	Block3	2back/STIM_012.jpg	99
1524.661	0.949	949.0	2back	Block3	2back/STIM_012.jpg	100
1528.877	1.028	1027.9	2back	Block3	2back/STIM_012.jpg	99
1533.306	0.967	966.7	2back	Block3	2back/STIM_013.jpg	99
1537.51	1.008	1007.6	2back	Block3	2back/STIM_013.jpg	100
1540.533	0.841	841.3	2back	Block3	2back/STIM_013.jpg	99
1543.957	0.607	606.8	2back	Block3	2back/STIM_014.jpg	100
1547.551	0.76	759.5	2back	Block3	2back/STIM_014.jpg	100
1552.128	0.537	537.1	2back	Block3	2back/STIM_014.jpg	99
1554.944	0.519	519.0	2back	Block3	2back/STIM_015.jpg	100
1558.567	0.747	747.2	2back	Block3	2back/STIM_015.jpg	99
1563.26	0.845	845.4	2back	Block3	2back/STIM_015.jpg	100
1566.494	0.82	820.1	2back	Block3	2back/STIM_016.jpg	99
1570.318	0.55	550.4	2back	Block3	2back/STIM_016.jpg	99
1574.171	0.5	500.0	2back	Block3	2back/STIM_016.jpg	99
1578.169	1.092	1092.5	2back	Block3	2back/STIM_017.jpg	99
1582.084	0.515	514.7	2back	Block3	2back/STIM_017.jpg	99
1586.394	0.582	581.8	2back	Block3	2back/STIM_017.jpg	99
1589.925	0.496	495.7	2back	Block3	2back/STIM_018.jpg	99
1593.285	0.946	945.5	2back	Block3	2back/STIM_018.jpg	100
1597.342	0.536	535.6	2back	Block3	2back/STIM_018.jpg	100
1601.354	0.894	893.9	2back	Block3	2back/STIM_019.jpg	99
1605.697	0.732	732.1	2back	Block3	2back/STIM_019.jpg	100
1608.836	0.794	794.0	2back	Block3	2back/STIM_019.jpg	99
1613.438	0.485	484.6	2back	Block3	2back/STIM_020.jpg	100
1616.864	1.058	1058.4	2back	Block3	2back/STIM_020.jpg	100
1620.988	0.691	691.2	2back	Block3	2back/STIM_020.jpg	99
1624.832	0.806	805.8	2back	Block3	2back/STIM_021.jpg	100
1628.467	0.649	648.8	2back	Block3	2back/STIM_021.jpg	99
1632.505	0.87	870.2	2back	Block3	2back/STIM_021.jpg	100
1636.11	0.663	663.0	2back	Block3	2back/STIM_022.jpg	99
1639.148	0.484	484.3	2back	Block3	2back/STIM_022.jpg	99
1642.021	1.096	1096.2	2back	Block3	2back/STIM_022.jpg	100
1646.319	0.999	998.9	2back	Block3	2back/STIM_023.jpg	100
1649.363	0.929	928.9	2back	Block3	2back/STIM_023.jpg	99
1652.856	1.026	1026.5	2back	Block3	2back/STIM_023.jpg	99
1656.126	0.547	546.7	2back	Block3	2back/STIM_024.jpg	100
1659.094	0.511	511.2	2back	Block3	2back/STIM_024.jpg	99
1662.81	0.718	718.0	2back	Block3	2back/STIM_024.jpg	100
1666.966	0.754	753.7	2back	Block3	2back/STIM_025.jpg	99
1670.016	0.842	842.0	2back	Block3	2back/STIM_025.jpg	100
1672.962	1.037	1037.0	2back	Block3	2back/STIM_025.jpg	100
1677.835	0.645	644.8	2back	Block3	2back/STIM_026.jpg	100
1680.799	0.641	640.9	2back	Block3	2back/STIM_026.jpg	99
1684.83	0.784	784.3	2back	Block3	2back/STIM_026.jpg	99
1687.979	0.956	956.2	2back	Block3	2back/STIM_027.jpg	100
1691.845	1.083	1083.2	2back	Block3	2back/STIM_027.jpg	99
1695.945	0.819	819.1	2back	Block3	2back/STIM_027.jpg	100
1698.995	0.872	871.5	2back	Block3	2back/STIM_028.jpg	99
1702.448	0.809	809.4	2back	Block3	2back/STIM_028.jpg	100
1705.988	0.754	753.6	2back	Block3	2back/STIM_028.jpg	99
1708.779	1.004	1004.5	2back	Block3	2back/STIM_029.jpg	99
1713.189	0.659	659.4	2back	Block3	2back/STIM_029.jpg	100
1717.052	0.732	732.1	2back	Block3	2back/STIM_029.jpg	100
1720.014	0.969	969.3	2back	Block3	2back/STIM_030.jpg	99
1723.184	0.475	474.7	2back	Block3	2back/STIM_030.jpg	99
1727.414	0.907	906.8	2back	Block3	2back/STIM_030.jpg	100
1730.673	1.103	1102.7	2back	Block3	2back/STIM_031.jpg	100
1735.298	1.025	1024.7	2back	Block3	2back/STIM_031.jpg	100
1739.858	1.072	1072.3	2back	Block3	2back/STIM_031.jpg	99
1743.423	1.005	1005.1	2back	Block3	2back/STIM_032.jpg	100
1747.061	0.536	536.3	2back	Block3	2back/STIM_032.jpg	99
1749.626	0.753	752.8	2back	Block3	2back/STIM_032.jpg	99
1754.025	0.928	928.0	2back	Block3	2back/STIM_033.jpg	99
1758.71	0.845	845.3	2back	Block3	2back/STIM_033.jpg	99
1762.547	0.592	591.6	2back	Block3	2back/STIM_033.jpg	100
1766.782	1.102	1101.6	2back	Block3	2back/STIM_034.jpg	99
1771.649	0.696	695.6	2back	Block3	2back/STIM_034.jpg	99
1776.098	0.807	807.2	2back	Block3	2back/STIM_034.jpg	99
1779.619	0.729	729.1	2back	Block3	2back/STIM_035.jpg	99
1784.346	0.918	918.2	2back	Block3	2back/STIM_035.jpg	99
1788.939	0.753	753.0	2back	Block3	2back/STIM_035.jpg	100
1793.071	0.606	605.6	2back	Block3	2back/STIM_036.jpg	99
1796.751	0.641	640.9	2back	Block3	2back/STIM_036.jpg	100
1800.939	0.651	651.2	2back	Block3	2back/STIM_036.jpg	99
1805.373	0.952	951.6	2back	Block3	2back/STIM_037.jpg	100
1808.905	0.961	961.0	2back	Block3	2back/STIM_037.jpg	99
1812.844	0.647	646.9	2back	Block3	2back/STIM_037.jpg	99
1816.354	0.709	709.3	2back	Block3	2back/STIM_038.jpg	99
1819.162	0.937	936.7	2back	Block3	2back/STIM_038.jpg	100
1822.166	0.95	950.5	2back	Block3	2back/STIM_038.jpg	100
1826.864	0.751	750.6	2back	Block3	2back/STIM_039.jpg	99
1830.222	0.891	890.8	2back	Block3	2back/STIM_039.jpg	100
1834.551	0.576	575.7	2back	Block3	2back/STIM_039.jpg	100
1837.27	0.525	524.7	0back	Block3	0back/STIM_000.jpg	100
1840.286	0.605	605.3	0back	Block3	0back/STIM_000.jpg	99
1844.04	0.878	878.1	0back	Block3	0back/STIM_000.jpg	99
1848.203	0.634	634.2	0back	Block3	0back/STIM_001.jpg	100
1852.242	0.555	555.3	0back	Block3	0back/STIM_001.jpg	100
1856.305	0.737	737.4	0back	Block3	0back/STIM_001.jpg	99
1860.437	0.885	885.0	0back	Block3	0back/STIM_002.jpg	99
1863.414	0.489	489.3	0back	Block3	0back/STIM_002.jpg	100
1866.559	0.687	687.0	0back	Block3	0back/STIM_002.jpg	99
1869.281	0.513	512.7	0back	Block3	0back/STIM_003.jpg	100
1873.602	0.891	890.9	0back	Block3	0back/STIM_003.jpg	100
1877.543	0.678	677.9	0back	Block3	0back/STIM_003.jpg	100
1881.059	0.762	761.9	0back	Block3	0back/STIM_004.jpg	100
1884.636	0.659	658.6	0back	Block3	0back/STIM_004.jpg	100
1889.111	0.88	879.7	0back	Block3	0back/STIM_004.jpg	100
1893.187	0.609	609.2	0back	Block3	0back/STIM_005.jpg	100
1896.185	0.901	900.7	0back	Block3	0back/STIM_005.jpg	99
1900.694	0.828	828.4	0back	Block3	0back/STIM_005.jpg	99
1903.599	0.475	475.2	0back	Block3	0back/STIM_006.jpg	99
1907.871	0.794	794.1	0back	Block3	0back/STIM_006.jpg	99
1911.81	0.838	837.8	0back	Block3	0back/STIM_006.jpg	100
1915.469	0.589	589.4	0back	Block3	0back/STIM_007.jpg	99
1918.213	0.724	723.7	0back	Block3	0back/STIM_007.jpg	100
1922.567	0.668	668.2	0back	Block3	0back/STIM_007.jpg	99
1925.297	0.531	531.1	0back	Block3	0back/STIM_008.jpg	100
1928.227	0.557	556.9	0back	Block3	0back/STIM_008.jpg	99
1932.35	0.582	582.4	0back	Block3	0back/STIM_008.jpg	100
1935.956	0.716	716.3	0back	Block3	0back/STIM_009.jpg	99
1939.15	0.857	857.4	0back	Block3	0back/STIM_009.jpg	100
1943.994	0.64	640.2	0back	Block3	0back/STIM_009.jpg	99
1947.964	0.569	569.0	0back	Block3	0back/STIM_010.jpg	99
1950.562	0.589	588.6	0back	Block3	0back/STIM_010.jpg	99
1954.983	0.851	850.6	0back	Block3	0back/STIM_010.jpg	100
1958.903	0.799	798.8	0back	Block3	0back/STIM_011.jpg	100
1962.152	0.704	704.1	0back	Block3	0back/STIM_011.jpg	99
1965.092	0.47	470.1	0back	Block3	0back/STIM_011.jpg	99
1969.21	0.849	848.9	0back	Block3	0back/STIM_012.jpg	100
1973.521	0.866	866.0	0back	Block3	0back/STIM_012.jpg	99
1977.642	0.659	659.2	0back	Block3	0back/STIM_012.jpg	99
1980.322	0.725	725.1	0back	Block3	0back/STIM_013.jpg	100
1983.912	0.808	807.8	0back	Block3	0back/STIM_013.jpg	100
1987.566	0.894	894.2	0back	Block3	0back/STIM_013.jpg	100
1990.712	0.456	455.6	0back	Block3	0back/STIM_014.jpg	99
1994.168	0.682	681.5	0back	Block3	0back/STIM_014.jpg	99
1997.874	0.554	554.2	0back	Block3	0back/STIM_014.jpg	99
2002.032	0.515	515.4	0back	Block3	0back/STIM_015.jpg	99
2004.867	0.792	791.6	0back	Block3	0back/STIM_015.jpg	99
2009.556	0.554	553.8	0back	Block3	0back/STIM_015.jpg	100
2012.261	0.54	540.5	0back	Block3	0back/STIM_016.jpg	99
2015.378	0.47	470.2	0back	Block3	0back/STIM_016.jpg	99
2018.755	0.742	742.1	0back	Block3	0back/STIM_016.jpg	100
2021.552	0.495	494.9	0back	Block3	0back/STIM_017.jpg	99
2024.863	0.722	721.5	0back	Block3	0back/STIM_017.jpg	99
2029.415	0.653	653.3	0back	Block3	0back/STIM_017.jpg	100
2032.834	0.741	741.1	0back	Block3	0back/STIM_018.jpg	100
2036.979	0.573	572.9	0back	Block3	0back/STIM_018.jpg	100
2040.788	0.678	677.8	0back	Block3	0back/STIM_018.jpg	100
2045.419	0.507	506.9	0back	Block3	0back/STIM_019.jpg	100
2048.01	0.485	485.4	0back	Block3	0back/STIM_019.jpg	99
2051.407	0.834	834.0	0back	Block3	0back/STIM_019.jpg	99
2055.208	0.736	735.9	2back	Block4	2back/STIM_000.jpg	99
2057.948	0.973	973.0	2back	Block4	2back/STIM_000.jpg	99
2061.302	0.924	923.8	2back	Block4	2back/STIM_000.jpg	99
2064.987	0.886	885.7	2back	Block4	2back/STIM_001.jpg	100
2069.045	0.552	552.4	2back	Block4	2back/STIM_001.jpg	99
2073.467	0.953	952.6	2back	Block4	2back/STIM_001.jpg	99
2078.332	0.695	695.2	2back	Block4	2back/STIM_002.jpg	100
2081.073	0.855	855.4	2back	Block4	2back/STIM_002.jpg	100
2084.37	0.61	609.6	2back	Block4	2back/STIM_002.jpg	100
2087.882	0.865	865.3	2back	Block4	2back/STIM_003.jpg	100
2091.872	0.514	514.3	2back	Block4	2back/STIM_003.jpg	100
2096.008	0.72	719.6	2back	Block4	2back/STIM_003.jpg	100
2098.912	0.646	645.7	2back	Block4	2back/STIM_004.jpg	100
2102.971	0.833	833.3	2back	Block4	2back/STIM_004.jpg	100
2106.867	0.656	655.7	2back	Block4	2back/STIM_004.jpg	100
2109.733	0.931	930.8	2back	Block4	2back/STIM_005.jpg	99
2114.537	1.007	1007.1	2back	Block4	2back/STIM_005.jpg	99
2118.548	0.901	900.9	2back	Block4	2back/STIM_005.jpg	100
2122.71	1.007	1007.2	2back	Block4	2back/STIM_006.jpg	99
2127.635	0.897	897.1	2back	Block4	2back/STIM_006.jpg	100
2132.331	0.951	950.8	2back	Block4	2back/STIM_006.jpg	99
2136.275	0.885	884.7	2back	Block4	2back/STIM_007.jpg	100
2140.167	0.807	806.8	2back	Block4	2back/STIM_007.jpg	99
2144.968	0.891	891.4	2back	Block4	2back/STIM_007.jpg	100
2149.457	0.55	550.2	2back	Block4	2back/STIM_008.jpg	100
2152.781	0.976	975.7	2back	Block4	2back/STIM_008.jpg	100
2155.874	0.627	626.8	2back	Block4	2back/STIM_008.jpg	100
2160.343	0.707	706.7	2back	Block4	2back/STIM_009.jpg	100
2163.555	0.611	610.6	2back	Block4	2back/STIM_009.jpg	99
2166.62	0.602	601.6	2back	Block4	2back/STIM_009.jpg	100
2170.852	0.652	651.5	2back	Block4	2back/STIM_010.jpg	99
2174.091	0.488	487.8	2back	Block4	2back/STIM_010.jpg	100
2178.175	0.713	712.6	2back	Block4	2back/STIM_010.jpg	100
2181.606	0.654	653.8	2back	Block4	2back/STIM_011.jpg	99
2184.67	0.923	922.8	2back	Block4	2back/STIM_011.jpg	99
2187.609	0.578	577.7	2back	Block4	2back/STIM_011.jpg	99
2190.504	1.013	1012.7	2back	Block4	2back/STIM_012.jpg	100
2193.624	0.683	682.9	2back	Block4	2back/STIM_012.jpg	99
2196.763	0.58	579.6	2back	Block4	2back/STIM_012.jpg	99
2200.906	0.842	841.5	2back	Block4	2back/STIM_013.jpg	99
2205.513	0.912	912.5	2back	Block4	2back/STIM_013.jpg	100
2209.295	0.56	559.8	2back	Block4	2back/STIM_013.jpg	100
2213.214	0.54	540.4	2back	Block4	2back/STIM_014.jpg	100
2216.441	1.015	1014.6	2back	Block4	2back/STIM_014.jpg	100
2221.238	1.01	1010.0	2back	Block4	2back/STIM_014.jpg	100
2224.877	0.656	656.1	2back	Block4	2back/STIM_015.jpg	99
2229.277	0.898	898.0	2back	Block4	2back/STIM_015.jpg	100
2233.902	0.581	580.7	2back	Block4	2back/STIM_015.jpg	100
2236.757	0.978	977.8	2back	Block4	2back/STIM_016.jpg	99
2240.021	0.938	938.5	2back	Block4	2back/STIM_016.jpg	99
2244.522	0.967	966.8	2back	Block4	2back/STIM_016.jpg	100
2248.936	0.589	589.0	2back	Block4	2back/STIM_017.jpg	100
2251.543	0.612	611.5	2back	Block4	2back/STIM_017.jpg	100
2256.017	0.626	626.4	2back	Block4	2back/STIM_017.jpg	99
2260.639	0.878	878.3	2back	Block4	2back/STIM_018.jpg	100
2263.632	0.675	674.8	2back	Block4	2back/STIM_018.jpg	100
2266.844	0.98	980.5	2back	Block4	2back/STIM_018.jpg	100
2271.373	0.964	964.3	2back	Block4	2back/STIM_019.jpg	99
2274.517	0.874	874.3	2back	Block4	2back/STIM_019.jpg	100
2278.441	0.547	547.4	2back	Block4	2back/STIM_019.jpg	99
2282.613	0.528	528.2	2back	Block4	2back/STIM_020.jpg	99
2287.132	0.672	671.8	2back	Block4	2back/STIM_020.jpg	100
2290.961	0.599	598.9	2back	Block4	2back/STIM_020.jpg	100
2295.175	1.025	1025.4	2back	Block4	2back/STIM_021.jpg	100
2300.0	0.695	694.9	2back	Block4	2back/STIM_021.jpg	100
2302.86	0.703	703.1	2back	Block4	2back/STIM_021.jpg	99
2307.107	1.01	1010.4	2back	Block4	2back/STIM_022.jpg	99
2310.673	0.964	963.7	2back	Block4	2back/STIM_022.jpg	100
2314.645	0.498	498.2	2back	Block4	2back/STIM_022.jpg	99
2317.972	1.051	1051.0	2back	Block4	2back/STIM_023.jpg	99
2322.26	1.045	1044.7	2back	Block4	2back/STIM_023.jpg	99
2326.236	0.94	939.8	2back	Block4	2back/STIM_023.jpg	100
2331.003	0.767	767.1	2back	Block4	2back/STIM_024.jpg	100
2334.078	0.637	637.0	2back	Block4	2back/STIM_024.jpg	99
2337.293	1.006	1006.1	2back	Block4	2back/STIM_024.jpg	99
2341.091	0.564	563.5	2back	Block4	2back/STIM_025.jpg	99
2345.627	0.685	685.3	2back	Block4	2back/STIM_025.jpg	99
2348.6	0.699	698.8	2back	Block4	2back/STIM_025.jpg	99
2352.122	1.031	1031.3	2back	Block4	2back/STIM_026.jpg	100
2355.747	0.692	691.6	2back	Block4	2back/STIM_026.jpg	100
2359.027	0.673	672.7	2back	Block4	2back/STIM_026.jpg	99
2363.096	0.584	584.1	2back	Block4	2back/STIM_027.jpg	100
2366.358	0.656	656.2	2back	Block4	2back/STIM_027.jpg	100
2369.867	0.654	653.9	2back	Block4	2back/STIM_027.jpg	100
2374.362	0.561	561.0	2back	Block4	2back/STIM_028.jpg	99
2377.181	0.94	939.9	2back	Block4	2back/STIM_028.jpg	99
2380.122	1.033	1033.3	2back	Block4	2back/STIM_028.jpg	99
2384.825	0.534	534.4	2back	Block4	2back/STIM_029.jpg	99
2388.134	0.558	558.2	2back	Block4	2back/STIM_029.jpg	99
2392.635	0.527	526.7	2back	Block4	2back/STIM_029.jpg	99
2396.278	0.693	692.7	2back	Block4	2back/STIM_030.jpg	99
2400.126	0.933	932.7	2back	Block4	2back/STIM_030.jpg	99
2404.545	0.806	805.7	2back	Block4	2back/STIM_030.jpg	100
2408.537	0.989	989.2	2back	Block4	2back/STIM_031.jpg	99
2412.833	0.769	769.2	2back	Block4	2back/STIM_031.jpg	99
2417.007	0.819	819.4	2back	Block4	2back/STIM_031.jpg	99
2421.131	0.78	779.6	2back	Block4	2back/STIM_032.jpg	99
2425.055	0.685	684.6	2back	Block4	2back/STIM_032.jpg	100
2428.283	1.075	1074.6	2back	Block4	2back/STIM_032.jpg	99
2432.941	1.088	1088.2	2back	Block4	2back/STIM_033.jpg	99
2436.323	0.788	788.4	2back	Block4	2back/STIM_033.jpg	100
2440.338	0.722	722.5	2back	Block4	2back/STIM_033.jpg	99
2444.212	0.913	912.9	2back	Block4	2back/STIM_034.jpg	100
2447.284	0.88	880.4	2back	Block4	2back/STIM_034.jpg	99
2450.591	0.66	660.5	2back	Block4	2back/STIM_034.jpg	99
2453.442	0.726	725.6	2back	Block4	2back/STIM_035.jpg	100
2458.047	1.064	1063.5	2back	Block4	2back/STIM_035.jpg	99
2462.963	0.655	654.9	2back	Block4	2back/STIM_035.jpg	99
2467.59	0.648	648.3	2back	Block4	2back/STIM_036.jpg	100
2470.862	0.538	538.4	2back	Block4	2back/STIM_036.jpg	99
2474.463	0.831	830.8	2back	Block4	2back/STIM_036.jpg	100
2477.514	0.858	857.5	2back	Block4	2back/STIM_037.jpg	99
2481.897	0.875	874.7	2back	Block4	2back/STIM_037.jpg	99
2485.399	0.994	994.1	2back	Block4	2back/STIM_037.jpg	100
2489.894	0.995	994.7	2back	Block4	2back/STIM_038.jpg	100
2494.712	0.806	806.2	2back	Block4	2back/STIM_038.jpg	99
2499.118	1.083	1082.6	2back	Block4	2back/STIM_038.jpg	99
2502.399	0.474	474.0	2back	Block4	2back/STIM_039.jpg	100
2505.79	0.826	826.0	2back	Block4	2back/STIM_039.jpg	99
2510.546	0.759	758.8	2back	Block4	2back/STIM_039.jpg	100
2513.475	0.731	731.0	0back	Block4	0back/STIM_000.jpg	99
2517.091	0.886	885.7	0back	Block4	0back/STIM_000.jpg	100
2520.007	0.466	465.9	0back	Block4	0back/STIM_000.jpg	99
2523.098	0.688	687.8	0back	Block4	0back/STIM_001.jpg	99
2526.091	0.768	767.7	0back	Block4	0back/STIM_001.jpg	99
2529.912	0.54	540.2	0back	Block4	0back/STIM_001.jpg	100
2533.917	0.708	707.8	0back	Block4	0back/STIM_002.jpg	100
2536.927	0.895	894.6	0back	Block4	0back/STIM_002.jpg	100
2540.719	0.638	637.6	0back	Block4	0back/STIM_002.jpg	100
2545.211	0.818	817.8	0back	Block4	0back/STIM_003.jpg	100
2548.551	0.657	657.1	0back	Block4	0back/STIM_003.jpg	99
2552.18	0.625	625.2	0back	Block4	0back/STIM_003.jpg	99
2554.858	0.655	654.6	0back	Block4	0back/STIM_004.jpg	99
2557.697	0.495	495.0	0back	Block4	0back/STIM_004.jpg	100
2560.843	0.593	593.2	0back	Block4	0back/STIM_004.jpg	100
2564.638	0.58	579.6	0back	Block4	0back/STIM_005.jpg	99
2567.891	0.855	855.0	0back	Block4	0back/STIM_005.jpg	100
2570.886	0.691	691.3	0back	Block4	0back/STIM_005.jpg	99
2573.689	0.462	462.5	0back	Block4	0back/STIM_006.jpg	100
2577.18	0.88	880.4	0back	Block4	0back/STIM_006.jpg	100
2580.073	0.79	790.0	0back	Block4	0back/STIM_006.jpg	100
2584.438	0.878	877.9	0back	Block4	0back/STIM_007.jpg	100
2587.838	0.844	843.7	0back	Block4	0back/STIM_007.jpg	99
2591.296	0.738	738.5	0back	Block4	0back/STIM_007.jpg	100
2595.177	0.63	629.9	0back	Block4	0back/STIM_008.jpg	99
2598.88	0.546	546.0	0back	Block4	0back/STIM_008.jpg	100
2601.642	0.613	613.2	0back	Block4	0back/STIM_008.jpg	100
2605.104	0.58	580.1	0back	Block4	0back/STIM_009.jpg	99
2609.305	0.661	661.2	0back	Block4	0back/STIM_009.jpg	99
2612.407	0.701	700.8	0back	Block4	0back/STIM_009.jpg	100
2616.544	0.875	875.2	0back	Block4	0back/STIM_010.jpg	99
2619.725	0.786	786.2	0back	Block4	0back/STIM_010.jpg	99
2622.886	0.88	879.7	0back	Block4	0back/STIM_010.jpg	99
2627.338	0.821	821.3	0back	Block4	0back/STIM_011.jpg	100
2630.214	0.456	455.7	0back	Block4	0back/STIM_011.jpg	99
2633.481	0.869	868.9	0back	Block4	0back/STIM_011.jpg	100
2637.675	0.814	813.6	0back	Block4	0back/STIM_012.jpg	99
2641.824	0.873	872.7	0back	Block4	0back/STIM_012.jpg	99
2646.163	0.782	782.1	0back	Block4	0back/STIM_012.jpg	100
2649.269	0.688	688.3	0back	Block4	0back/STIM_013.jpg	99
2653.287	0.802	801.8	0back	Block4	0back/STIM_013.jpg	100
2656.23	0.594	593.7	0back	Block4	0back/STIM_013.jpg	100
2660.133	0.862	861.5	0back	Block4	0back/STIM_014.jpg	100
2664.986	0.469	469.1	0back	Block4	0back/STIM_014.jpg	100
2669.262	0.653	652.8	0back	Block4	0back/STIM_014.jpg	99
2673.284	0.771	771.4	0back	Block4	0back/STIM_015.jpg	99
2676.517	0.461	461.4	0back	Block4	0back/STIM_015.jpg	99
2679.48	0.703	703.3	0back	Block4	0back/STIM_015.jpg	99
2684.038	0.678	678.4	0back	Block4	0back/STIM_016.jpg	100
2688.591	0.806	806.5	0back	Block4	0back/STIM_016.jpg	99
2693.301	0.661	661.3	0back	Block4	0back/STIM_016.jpg	100
2697.753	0.55	549.5	0back	Block4	0back/STIM_017.jpg	100
2700.767	0.888	887.9	0back	Block4	0back/STIM_017.jpg	99
2704.582	0.669	669.2	0back	Block4	0back/STIM_017.jpg	100
2708.31	0.598	598.4	0back	Block4	0back/STIM_018.jpg	100
2712.891	0.853	853.1	0back	Block4	0back/STIM_018.jpg	99
2716.589	0.706	706.3	0back	Block4	0back/STIM_018.jpg	99
2721.181	0.695	695.4	0back	Block4	0back/STIM_019.jpg	100
2725.174	0.525	525.1	0back	Block4	0back/STIM_019.jpg	99
2729.351	0.78	779.6	0back	Block4	0back/STIM_019.jpg	100
