onset	duration	accuracy_binary	trial_type	learning_stage	stimulus
0.0	1.224	1	2back	Block1	2back/STIM_000.jpg
3.477	1.092	1	2back	Block1	2back/STIM_000.jpg
7.668	1.167	1	2back	Block1	2back/STIM_000.jpg
11.856	1.019	1	2back	Block1	2back/STIM_001.jpg
16.176	1.132	0	2back	Block1	2back/STIM_001.jpg
19.833	1.214	1	2back	Block1	2back/STIM_001.jpg
23.116	1.448	1	2back	Block1	2back/STIM_002.jpg
27.31	0.962	1	2back	Block1	2back/STIM_002.jpg
31.44	0.938	1	2back	Block1	2back/STIM_002.jpg
34.907	1.546	1	2back	Block1	2back/STIM_003.jpg
38.92	1.105	0	2back	Block1	2back/STIM_003.jpg
42.489	0.883	1	2back	Block1	2back/STIM_003.jpg
46.186	1.342	1	2back	Block1	2back/STIM_004.jpg
51.366	1.278	1	2back	Block1	2back/STIM_004.jpg
56.588	1.416	1	2back	Block1	2back/STIM_004.jpg
61.295	1.436	0	2back	Block1	2back/STIM_005.jpg
65.641	1.37	1	2back	Block1	2back/STIM_005.jpg
69.482	1.179	1	2back	Block1	2back/STIM_005.jpg
74.601	1.383	1	2back	Block1	2back/STIM_006.jpg
79.653	1.449	1	2back	Block1	2back/STIM_006.jpg
83.961	1.022	1	2back	Block1	2back/STIM_006.jpg
87.147	1.095	1	2back	Block1	2back/STIM_007.jpg
91.561	1.029	1	2back	Block1	2back/STIM_007.jpg
95.474	0.845	1	2back	Block1	2back/STIM_007.jpg
100.113	0.76	1	2back	Block1	2back/STIM_008.jpg
103.674	1.119	0	2back	Block1	2back/STIM_008.jpg
108.037	1.012	1	2back	Block1	2back/STIM_008.jpg
112.804	0.865	1	2back	Block1	2back/STIM_009.jpg
115.788	1.24	1	2back	Block1	2back/STIM_009.jpg
120.283	1.207	1	2back	Block1	2back/STIM_009.jpg
124.236	1.221	1	2back	Block1	2back/STIM_010.jpg
128.41	0.843	1	2back	Block1	2back/STIM_010.jpg
132.009	0.8	1	2back	Block1	2back/STIM_010.jpg
136.719	1.151	1	2back	Block1	2back/STIM_011.jpg
141.35	1.327	1	2back	Block1	2back/STIM_011.jpg
146.066	0.841	1	2back	Block1	2back/STIM_011.jpg
148.917	0.989	1	2back	Block1	2back/STIM_012.jpg
152.776	1.29	1	2back	Block1	2back/STIM_012.jpg
156.44	1.051	1	2back	Block1	2back/STIM_012.jpg
159.68	0.99	1	2back	Block1	2back/STIM_013.jpg
163.969	1.17	1	2back	Block1	2back/STIM_013.jpg
169.056	0.661	1	2back	Block1	2back/STIM_013.jpg
172.661	1.08	1	2back	Block1	2back/STIM_014.jpg
177.194	0.686	1	2back	Block1	2back/STIM_014.jpg
180.662	0.809	1	2back	Block1	2back/STIM_014.jpg
185.38	1.166	1	2back	Block1	2back/STIM_015.jpg
189.99	0.649	1	2back	Block1	2back/STIM_015.jpg
193.749	1.399	1	2back	Block1	2back/STIM_015.jpg
198.116	1.343	1	2back	Block1	2back/STIM_016.jpg
201.613	1.011	1	2back	Block1	2back/STIM_016.jpg
204.826	0.759	1	2back	Block1	2back/STIM_016.jpg
208.309	1.147	1	2back	Block1	2back/STIM_017.jpg
213.022	1.402	1	2back	Block1	2back/STIM_017.jpg
217.525	0.838	1	2back	Block1	2back/STIM_017.jpg
220.409	1.242	0	2back	Block1	2back/STIM_018.jpg
224.307	1.078	1	2back	Block1	2back/STIM_018.jpg
227.795	1.319	1	2back	Block1	2back/STIM_018.jpg
232.309	1.035	1	2back	Block1	2back/STIM_019.jpg
235.438	1.24	1	2back	Block1	2back/STIM_019.jpg
239.868	0.985	1	2back	Block1	2back/STIM_019.jpg
244.351	1.275	1	2back	Block1	2back/STIM_020.jpg
248.793	0.803	0	2back	Block1	2back/STIM_020.jpg
253.031	0.693	1	2back	Block1	2back/STIM_020.jpg
255.955	0.89	1	2back	Block1	2back/STIM_021.jpg
259.786	0.828	1	2back	Block1	2back/STIM_021.jpg
263.075	1.019	1	2back	Block1	2back/STIM_021.jpg
266.156	0.869	1	2back	Block1	2back/STIM_022.jpg
270.769	0.647	1	2back	Block1	2back/STIM_022.jpg
274.467	0.734	1	2back	Block1	2back/STIM_022.jpg
277.971	0.741	1	2back	Block1	2back/STIM_023.jpg
282.698	0.681	1	2back	Block1	2back/STIM_023.jpg
286.644	1.354	1	2back	Block1	2back/STIM_023.jpg
290.311	0.728	0	2back	Block1	2back/STIM_024.jpg
293.64	1.483	1	2back	Block1	2back/STIM_024.jpg
298.891	0.993	1	2back	Block1	2back/STIM_024.jpg
303.512	0.71	1	2back	Block1	2back/STIM_025.jpg
307.438	0.89	1	2back	Block1	2back/STIM_025.jpg
311.318	0.796	1	2back	Block1	2back/STIM_025.jpg
314.459	0.818	1	2back	Block1	2back/STIM_026.jpg
318.155	1.218	1	2back	Block1	2back/STIM_026.jpg
323.115	1.339	1	2back	Block1	2back/STIM_026.jpg
327.529	1.432	1	2back	Block1	2back/STIM_027.jpg
331.051	1.26	1	2back	Block1	2back/STIM_027.jpg
335.314	1.095	1	2back	Block1	2back/STIM_027.jpg
339.511	0.954	1	2back	Block1	2back/STIM_028.jpg
343.596	1.316	1	2back	Block1	2back/STIM_028.jpg
348.297	0.728	1	2back	Block1	2back/STIM_028.jpg
351.613	1.092	1	2back	Block1	2back/STIM_029.jpg
355.962	1.455	1	2back	Block1	2back/STIM_029.jpg
360.864	1.354	1	2back	Block1	2back/STIM_029.jpg
364.813	1.56	1	2back	Block1	2back/STIM_030.jpg
369.113	1.383	1	2back	Block1	2back/STIM_030.jpg
374.167	1.118	1	2back	Block1	2back/STIM_030.jpg
379.006	0.757	1	2back	Block1	2back/STIM_031.jpg
382.525	0.842	1	2back	Block1	2back/STIM_031.jpg
386.007	1.343	1	2back	Block1	2back/STIM_031.jpg
390.417	0.843	1	2back	Block1	2back/STIM_032.jpg
395.257	1.343	1	2back	Block1	2back/STIM_032.jpg
400.575	1.379	1	2back	Block1	2back/STIM_032.jpg
404.73	1.546	1	2back	Block1	2back/STIM_033.jpg
408.287	0.968	1	2back	Block1	2back/STIM_033.jpg
412.489	0.794	1	2back	Block1	2back/STIM_033.jpg
416.122	0.907	1	2back	Block1	2back/STIM_034.jpg
420.569	1.431	1	2back	Block1	2back/STIM_034.jpg
424.307	0.893	1	2back	Block1	2back/STIM_034.jpg
428.049	1.433	1	2back	Block1	2back/STIM_035.jpg
432.24	1.126	1	2back	Block1	2back/STIM_035.jpg
437.352	0.993	1	2back	Block1	2back/STIM_035.jpg
441.356	1.346	1	2back	Block1	2back/STIM_036.jpg
446.633	1.006	1	2back	Block1	2back/STIM_036.jpg
449.862	1.405	0	2back	Block1	2back/STIM_036.jpg
454.94	0.798	1	2back	Block1	2back/STIM_037.jpg
459.206	1.128	1	2back	Block1	2back/STIM_037.jpg
462.56	0.684	1	2back	Block1	2back/STIM_037.jpg
467.042	0.887	1	2back	Block1	2back/STIM_038.jpg
471.137	1.1	1	2back	Block1	2back/STIM_038.jpg
474.368	1.106	1	2back	Block1	2back/STIM_038.jpg
477.733	1.525	1	2back	Block1	2back/STIM_039.jpg
481.76	1.08	1	2back	Block1	2back/STIM_039.jpg
485.553	1.093	1	2back	Block1	2back/STIM_039.jpg
489.888	0.657	1	0back	Block1	0back/STIM_000.jpg
494.366	0.455	1	0back	Block1	0back/STIM_000.jpg
497.381	0.862	1	0back	Block1	0back/STIM_000.jpg
502.123	0.479	1	0back	Block1	0back/STIM_001.jpg
504.629	0.821	1	0back	Block1	0back/STIM_001.jpg
509.319	0.654	1	0back	Block1	0back/STIM_001.jpg
512.972	0.451	1	0back	Block1	0back/STIM_002.jpg
516.009	0.6	1	0back	Block1	0back/STIM_002.jpg
520.106	0.606	1	0back	Block1	0back/STIM_002.jpg
524.202	0.795	1	0back	Block1	0back/STIM_003.jpg
527.334	0.845	1	0back	Block1	0back/STIM_003.jpg
531.379	0.458	1	0back	Block1	0back/STIM_003.jpg
534.29	0.729	1	0back	Block1	0back/STIM_004.jpg
538.895	0.473	1	0back	Block1	0back/STIM_004.jpg
542.334	0.472	1	0back	Block1	0back/STIM_004.jpg
545.583	0.628	1	0back	Block1	0back/STIM_005.jpg
548.62	0.78	1	0back	Block1	0back/STIM_005.jpg
552.37	0.478	1	0back	Block1	0back/STIM_005.jpg
556.42	0.714	1	0back	Block1	0back/STIM_006.jpg
559.856	0.525	1	0back	Block1	0back/STIM_006.jpg
563.954	0.826	1	0back	Block1	0back/STIM_006.jpg
567.904	0.57	1	0back	Block1	0back/STIM_007.jpg
571.421	0.736	1	0back	Block1	0back/STIM_007.jpg
574.182	0.507	1	0back	Block1	0back/STIM_007.jpg
577.936	0.792	1	0back	Block1	0back/STIM_008.jpg
581.529	0.801	1	0back	Block1	0back/STIM_008.jpg
585.274	0.734	1	0back	Block1	0back/STIM_008.jpg
588.154	0.676	1	0back	Block1	0back/STIM_009.jpg
591.614	0.854	1	0back	Block1	0back/STIM_009.jpg
595.662	0.542	1	0back	Block1	0back/STIM_009.jpg
600.101	0.62	1	0back	Block1	0back/STIM_010.jpg
603.587	0.691	1	0back	Block1	0back/STIM_010.jpg
606.554	0.454	1	0back	Block1	0back/STIM_010.jpg
610.755	0.638	1	0back	Block1	0back/STIM_011.jpg
613.511	0.513	1	0back	Block1	0back/STIM_011.jpg
617.4	0.767	1	0back	Block1	0back/STIM_011.jpg
620.679	0.756	1	0back	Block1	0back/STIM_012.jpg
624.198	0.722	1	0back	Block1	0back/STIM_012.jpg
627.308	0.452	1	0back	Block1	0back/STIM_012.jpg
630.249	0.708	1	0back	Block1	0back/STIM_013.jpg
633.614	0.723	1	0back	Block1	0back/STIM_013.jpg
637.13	0.806	1	0back	Block1	0back/STIM_013.jpg
640.997	0.781	1	0back	Block1	0back/STIM_014.jpg
643.8	0.815	1	0back	Block1	0back/STIM_014.jpg
647.477	0.603	1	0back	Block1	0back/STIM_014.jpg
650.531	0.703	1	0back	Block1	0back/STIM_015.jpg
653.67	0.503	1	0back	Block1	0back/STIM_015.jpg
657.134	0.589	1	0back	Block1	0back/STIM_015.jpg
660.53	0.829	1	0back	Block1	0back/STIM_016.jpg
663.938	0.602	1	0back	Block1	0back/STIM_016.jpg
667.78	0.456	1	0back	Block1	0back/STIM_016.jpg
671.481	0.483	1	0back	Block1	0back/STIM_017.jpg
675.696	0.714	1	0back	Block1	0back/STIM_017.jpg
679.761	0.77	1	0back	Block1	0back/STIM_017.jpg
683.662	0.694	1	0back	Block1	0back/STIM_018.jpg
688.19	0.895	1	0back	Block1	0back/STIM_018.jpg
692.956	0.738	1	0back	Block1	0back/STIM_018.jpg
697.543	0.804	1	0back	Block1	0back/STIM_019.jpg
700.96	0.776	1	0back	Block1	0back/STIM_019.jpg
705.099	0.706	1	0back	Block1	0back/STIM_019.jpg
709.552	1.061	1	2back	Block2	2back/STIM_000.jpg
713.515	0.784	1	2back	Block2	2back/STIM_000.jpg
717.198	0.662	1	2back	Block2	2back/STIM_000.jpg
721.207	1.172	1	2back	Block2	2back/STIM_001.jpg
725.578	1.214	1	2back	Block2	2back/STIM_001.jpg
730.288	1.169	1	2back	Block2	2back/STIM_001.jpg
734.381	0.932	1	2back	Block2	2back/STIM_002.jpg
738.527	0.867	1	2back	Block2	2back/STIM_002.jpg
742.516	0.989	1	2back	Block2	2back/STIM_002.jpg
747.468	0.82	1	2back	Block2	2back/STIM_003.jpg
750.96	0.779	1	2back	Block2	2back/STIM_003.jpg
755.024	0.829	1	2back	Block2	2back/STIM_003.jpg
758.686	0.921	1	2back	Block2	2back/STIM_004.jpg
762.9	0.711	1	2back	Block2	2back/STIM_004.jpg
766.03	0.517	1	2back	Block2	2back/STIM_004.jpg
768.846	1.147	1	2back	Block2	2back/STIM_005.jpg
772.361	0.74	0	2back	Block2	2back/STIM_005.jpg
775.813	1.046	1	2back	Block2	2back/STIM_005.jpg
779.411	0.948	1	2back	Block2	2back/STIM_006.jpg
784.024	1.122	1	2back	Block2	2back/STIM_006.jpg
787.839	1.145	1	2back	Block2	2back/STIM_006.jpg
792.578	0.705	1	2back	Block2	2back/STIM_007.jpg
796.637	0.873	1	2back	Block2	2back/STIM_007.jpg
800.558	0.57	1	2back	Block2	2back/STIM_007.jpg
803.81	0.833	1	2back	Block2	2back/STIM_008.jpg
806.935	0.734	1	2back	Block2	2back/STIM_008.jpg
809.726	0.812	1	2back	Block2	2back/STIM_008.jpg
813.269	0.879	1	2back	Block2	2back/STIM_009.jpg
816.772	0.653	0	2back	Block2	2back/STIM_009.jpg
819.613	0.814	1	2back	Block2	2back/STIM_009.jpg
823.969	1.131	1	2back	Block2	2back/STIM_010.jpg
828.503	0.796	1	2back	Block2	2back/STIM_010.jpg
831.93	0.63	1	2back	Block2	2back/STIM_010.jpg
835.808	0.751	1	2back	Block2	2back/STIM_011.jpg
840.485	0.866	1	2back	Block2	2back/STIM_011.jpg
843.745	0.63	1	2back	Block2	2back/STIM_011.jpg
847.617	0.76	1	2back	Block2	2back/STIM_012.jpg
850.993	0.779	1	2back	Block2	2back/STIM_012.jpg
853.773	0.962	1	2back	Block2	2back/STIM_012.jpg
857.903	0.915	1	2back	Block2	2back/STIM_013.jpg
860.891	0.852	1	2back	Block2	2back/STIM_013.jpg
863.814	1.077	1	2back	Block2	2back/STIM_013.jpg
868.584	0.879	1	2back	Block2	2back/STIM_014.jpg
873.309	1.178	1	2back	Block2	2back/STIM_014.jpg
878.143	0.544	1	2back	Block2	2back/STIM_014.jpg
882.274	0.789	1	2back	Block2	2back/STIM_015.jpg
885.171	0.887	1	2back	Block2	2back/STIM_015.jpg
889.692	1.023	1	2back	Block2	2back/STIM_015.jpg
894.327	1.134	1	2back	Block2	2back/STIM_016.jpg
898.908	0.641	1	2back	Block2	2back/STIM_016.jpg
902.771	1.01	1	2back	Block2	2back/STIM_016.jpg
907.754	0.908	1	2back	Block2	2back/STIM_017.jpg
911.799	1.101	1	2back	Block2	2back/STIM_017.jpg
915.027	0.711	1	2back	Block2	2back/STIM_017.jpg
918.491	0.779	1	2back	Block2	2back/STIM_018.jpg
923.215	1.168	1	2back	Block2	2back/STIM_018.jpg
927.803	1.17	1	2back	Block2	2back/STIM_018.jpg
931.508	0.626	1	2back	Block2	2back/STIM_019.jpg
935.69	1.008	1	2back	Block2	2back/STIM_019.jpg
940.574	0.928	1	2back	Block2	2back/STIM_019.jpg
945.156	0.75	1	2back	Block2	2back/STIM_020.jpg
949.896	1.145	1	2back	Block2	2back/STIM_020.jpg
953.222	0.829	1	2back	Block2	2back/STIM_020.jpg
957.165	0.616	1	2back	Block2	2back/STIM_021.jpg
960.292	0.578	1	2back	Block2	2back/STIM_021.jpg
964.483	0.799	1	2back	Block2	2back/STIM_021.jpg
969.209	0.577	1	2back	Block2	2back/STIM_022.jpg
971.918	1.121	1	2back	Block2	2back/STIM_022.jpg
976.962	0.75	1	2back	Block2	2back/STIM_022.jpg
979.844	1.255	1	2back	Block2	2back/STIM_023.jpg
984.094	0.616	1	2back	Block2	2back/STIM_023.jpg
988.134	0.53	1	2back	Block2	2back/STIM_023.jpg
990.709	0.914	1	2back	Block2	2back/STIM_024.jpg
994.102	1.012	1	2back	Block2	2back/STIM_024.jpg
998.678	0.698	1	2back	Block2	2back/STIM_024.jpg
1003.062	0.794	1	2back	Block2	2back/STIM_025.jpg
1007.534	0.795	1	2back	Block2	2back/STIM_025.jpg
1010.438	0.97	1	2back	Block2	2back/STIM_025.jpg
1014.426	1.308	1	2back	Block2	2back/STIM_026.jpg
1019.073	0.797	1	2back	Block2	2back/STIM_026.jpg
1022.091	0.775	0	2back	Block2	2back/STIM_026.jpg
1025.384	1.103	1	2back	Block2	2back/STIM_027.jpg
1028.557	1.004	0	2back	Block2	2back/STIM_027.jpg
1032.568	1.17	1	2back	Block2	2back/STIM_027.jpg
1037.122	1.019	1	2back	Block2	2back/STIM_028.jpg
1041.88	1.009	1	2back	Block2	2back/STIM_028.jpg
1044.906	1.068	1	2back	Block2	2back/STIM_028.jpg
1047.999	0.724	1	2back	Block2	2back/STIM_029.jpg
1052.034	0.838	1	2back	Block2	2back/STIM_029.jpg
1055.12	1.04	1	2back	Block2	2back/STIM_029.jpg
1058.51	0.793	1	2back	Block2	2back/STIM_030.jpg
1062.928	0.702	1	2back	Block2	2back/STIM_030.jpg
1066.361	0.721	1	2back	Block2	2back/STIM_030.jpg
1070.423	1.062	1	2back	Block2	2back/STIM_031.jpg
1074.791	1.259	1	2back	Block2	2back/STIM_031.jpg
1078.887	1.067	1	2back	Block2	2back/STIM_031.jpg
1083.76	0.578	1	2back	Block2	2back/STIM_032.jpg
1087.042	0.695	1	2back	Block2	2back/STIM_032.jpg
1090.695	0.896	1	2back	Block2	2back/STIM_032.jpg
1094.242	0.97	1	2back	Block2	2back/STIM_033.jpg
1099.109	1.027	1	2back	Block2	2back/STIM_033.jpg
1103.235	1.115	1	2back	Block2	2back/STIM_033.jpg
1106.701	1.308	1	2back	Block2	2back/STIM_034.jpg
1110.34	0.811	0	2back	Block2	2back/STIM_034.jpg
1114.627	0.611	1	2back	Block2	2back/STIM_034.jpg
1118.411	1.207	1	2back	Block2	2back/STIM_035.jpg
1122.444	1.216	1	2back	Block2	2back/STIM_035.jpg
1125.991	0.887	1	2back	Block2	2back/STIM_035.jpg
1129.995	1.136	1	2back	Block2	2back/STIM_036.jpg
1133.539	0.694	0	2back	Block2	2back/STIM_036.jpg
1137.471	1.031	1	2back	Block2	2back/STIM_036.jpg
1140.82	1.306	1	2back	Block2	2back/STIM_037.jpg
1144.826	1.103	1	2back	Block2	2back/STIM_037.jpg
1148.241	0.628	1	2back	Block2	2back/STIM_037.jpg
1151.28	0.99	1	2back	Block2	2back/STIM_038.jpg
1156.03	0.959	1	2back	Block2	2back/STIM_038.jpg
1159.547	0.825	1	2back	Block2	2back/STIM_038.jpg
1162.989	1.229	1	2back	Block2	2back/STIM_039.jpg
1168.105	0.795	1	2back	Block2	2back/STIM_039.jpg
1171.422	0.544	1	2back	Block2	2back/STIM_039.jpg
1174.603	0.854	1	0back	Block2	0back/STIM_000.jpg
1178.008	0.897	1	0back	Block2	0back/STIM_000.jpg
1180.976	0.851	1	0back	Block2	0back/STIM_000.jpg
1185.709	0.574	1	0back	Block2	0back/STIM_001.jpg
1189.455	0.488	1	0back	Block2	0back/STIM_001.jpg
1193.128	0.759	1	0back	Block2	0back/STIM_001.jpg
1197.373	0.531	1	0back	Block2	0back/STIM_002.jpg
1200.163	0.57	1	0back	Block2	0back/STIM_002.jpg
1204.075	0.86	1	0back	Block2	0back/STIM_002.jpg
1207.009	0.635	1	0back	Block2	0back/STIM_003.jpg
1209.647	0.537	1	0back	Block2	0back/STIM_003.jpg
1213.508	0.856	1	0back	Block2	0back/STIM_003.jpg
1216.376	0.853	0	0back	Block2	0back/STIM_004.jpg
1219.351	0.71	1	0back	Block2	0back/STIM_004.jpg
1222.892	0.856	1	0back	Block2	0back/STIM_004.jpg
1226.487	0.554	1	0back	Block2	0back/STIM_005.jpg
1229.077	0.51	1	0back	Block2	0back/STIM_005.jpg
1231.828	0.891	1	0back	Block2	0back/STIM_005.jpg
1235.134	0.519	1	0back	Block2	0back/STIM_006.jpg
1238.452	0.574	1	0back	Block2	0back/STIM_006.jpg
1241.599	0.506	1	0back	Block2	0back/STIM_006.jpg
1244.892	0.63	0	0back	Block2	0back/STIM_007.jpg
1247.731	0.742	1	0back	Block2	0back/STIM_007.jpg
1251.737	0.689	1	0back	Block2	0back/STIM_007.jpg
1255.75	0.651	1	0back	Block2	0back/STIM_008.jpg
1258.449	0.636	1	0back	Block2	0back/STIM_008.jpg
1261.376	0.778	1	0back	Block2	0back/STIM_008.jpg
1265.376	0.664	1	0back	Block2	0back/STIM_009.jpg
1269.522	0.51	1	0back	Block2	0back/STIM_009.jpg
1274.007	0.746	1	0back	Block2	0back/STIM_009.jpg
1277.69	0.773	1	0back	Block2	0back/STIM_010.jpg
1280.474	0.865	1	0back	Block2	0back/STIM_010.jpg
1283.573	0.491	1	0back	Block2	0back/STIM_010.jpg
1287.784	0.522	1	0back	Block2	0back/STIM_011.jpg
1291.034	0.542	1	0back	Block2	0back/STIM_011.jpg
1294.402	0.659	1	0back	Block2	0back/STIM_011.jpg
1297.523	0.799	1	0back	Block2	0back/STIM_012.jpg
1300.876	0.85	1	0back	Block2	0back/STIM_012.jpg
1304.084	0.858	1	0back	Block2	0back/STIM_012.jpg
1308.573	0.834	1	0back	Block2	0back/STIM_013.jpg
1312.81	0.771	1	0back	Block2	0back/STIM_013.jpg
1315.907	0.64	1	0back	Block2	0back/STIM_013.jpg
1319.855	0.683	1	0back	Block2	0back/STIM_014.jpg
1323.8	0.778	1	0back	Block2	0back/STIM_014.jpg
1326.922	0.542	1	0back	Block2	0back/STIM_014.jpg
1331.29	0.491	1	0back	Block2	0back/STIM_015.jpg
1335.456	0.595	1	0back	Block2	0back/STIM_015.jpg
1338.708	0.477	1	0back	Block2	0back/STIM_015.jpg
1342.676	0.453	1	0back	Block2	0back/STIM_016.jpg
1346.8	0.892	0	0back	Block2	0back/STIM_016.jpg
1349.851	0.88	1	0back	Block2	0back/STIM_016.jpg
1353.396	0.828	1	0back	Block2	0back/STIM_017.jpg
1356.607	0.77	1	0back	Block2	0back/STIM_017.jpg
1360.576	0.637	1	0back	Block2	0back/STIM_017.jpg
1364.32	0.877	1	0back	Block2	0back/STIM_018.jpg
1369.056	0.488	1	0back	Block2	0back/STIM_018.jpg
1372.092	0.573	1	0back	Block2	0back/STIM_018.jpg
1375.931	0.879	1	0back	Block2	0back/STIM_019.jpg
1380.524	0.548	1	0back	Block2	0back/STIM_019.jpg
1383.421	0.655	1	0back	Block2	0back/STIM_019.jpg
1387.532	0.668	1	2back	Block3	2back/STIM_000.jpg
1391.279	0.629	1	2back	Block3	2back/STIM_000.jpg
1395.361	0.601	1	2back	Block3	2back/STIM_000.jpg
1398.747	0.56	1	2back	Block3	2back/STIM_001.jpg
1401.864	0.764	1	2back	Block3	2back/STIM_001.jpg
1405.665	0.545	1	2back	Block3	2back/STIM_001.jpg
1409.35	0.8	1	2back	Block3	2back/STIM_002.jpg
1412.28	0.976	1	2back	Block3	2back/STIM_002.jpg
1417.02	0.841	1	2back	Block3	2back/STIM_002.jpg
1421.51	0.606	1	2back	Block3	2back/STIM_003.jpg
1425.906	1.094	1	2back	Block3	2back/STIM_003.jpg
1430.533	0.616	1	2back	Block3	2back/STIM_003.jpg
1433.293	0.676	1	2back	Block3	2back/STIM_004.jpg
1436.738	0.899	1	2back	Block3	2back/STIM_004.jpg
1441.317	0.666	1	2back	Block3	2back/STIM_004.jpg
1444.026	0.549	1	2back	Block3	2back/STIM_005.jpg
1446.989	0.986	1	2back	Block3	2back/STIM_005.jpg
1450.117	0.747	1	2back	Block3	2back/STIM_005.jpg
1454.227	0.57	1	2back	Block3	2back/STIM_006.jpg
1458.617	0.796	1	2back	Block3	2back/STIM_006.jpg
1461.583	1.08	1	2back	Block3	2back/STIM_006.jpg
1465.907	0.672	1	2back	Block3	2back/STIM_007.jpg
1469.59	0.487	1	2back	Block3	2back/STIM_007.jpg
1473.95	0.846	1	2back	Block3	2back/STIM_007.jpg
1476.932	0.821	1	2back	Block3	2back/STIM_008.jpg
1480.096	0.717	1	2back	Block3	2back/STIM_008.jpg
1483.639	1.047	1	2back	Block3	2back/STIM_008.jpg
1486.771	0.564	1	2back	Block3	2back/STIM_009.jpg
1490.489	0.496	1	2back	Block3	2back/STIM_009.jpg
1494.938	0.742	1	2back	Block3	2back/STIM_009.jpg
1498.471	0.692	1	2back	Block3	2back/STIM_010.jpg
1502.307	0.898	1	2back	Block3	2back/STIM_010.jpg
1506.712	1.077	1	2back	Block3	2back/STIM_010.jpg
1510.745	0.576	1	2back	Block3	2back/STIM_011.jpg
1513.9	0.63	1	2back	Block3	2back/STIM_011.jpg
1517.034	0.996	1	2back	Block3	2back/STIM_011.jpg
1520.494	0.768	1	2back	Block3	2back/STIM_012.jpg
1524.661	0.949	1	2back	Block3	2back/STIM_012.jpg
1528.877	1.028	0	2back	Block3	2back/STIM_012.jpg
1533.306	0.967	1	2back	Block3	2back/STIM_013.jpg
1537.51	1.008	1	2back	Block3	2back/STIM_013.jpg
1540.533	0.841	1	2back	Block3	2back/STIM_013.jpg
1543.957	0.607	1	2back	Block3	2back/STIM_014.jpg
1547.551	0.76	1	2back	Block3	2back/STIM_014.jpg
1552.128	0.537	1	2back	Block3	2back/STIM_014.jpg
1554.944	0.519	1	2back	Block3	2back/STIM_015.jpg
1558.567	0.747	1	2back	Block3	2back/STIM_015.jpg
1563.26	0.845	1	2back	Block3	2back/STIM_015.jpg
1566.494	0.82	1	2back	Block3	2back/STIM_016.jpg
1570.318	0.55	1	2back	Block3	2back/STIM_016.jpg
1574.171	0.5	1	2back	Block3	2back/STIM_016.jpg
1578.169	1.092	1	2back	Block3	2back/STIM_017.jpg
1582.084	0.515	1	2back	Block3	2back/STIM_017.jpg
1586.394	0.582	1	2back	Block3	2back/STIM_017.jpg
1589.925	0.496	1	2back	Block3	2back/STIM_018.jpg
1593.285	0.946	1	2back	Block3	2back/STIM_018.jpg
1597.342	0.536	1	2back	Block3	2back/STIM_018.jpg
1601.354	0.894	1	2back	Block3	2back/STIM_019.jpg
1605.697	0.732	1	2back	Block3	2back/STIM_019.jpg
1608.836	0.794	1	2back	Block3	2back/STIM_019.jpg
1613.438	0.485	1	2back	Block3	2back/STIM_020.jpg
1616.864	1.058	1	2back	Block3	2back/STIM_020.jpg
1620.988	0.691	1	2back	Block3	2back/STIM_020.jpg
1624.832	0.806	1	2back	Block3	2back/STIM_021.jpg
1628.467	0.649	1	2back	Block3	2back/STIM_021.jpg
1632.505	0.87	1	2back	Block3	2back/STIM_021.jpg
1636.11	0.663	1	2back	Block3	2back/STIM_022.jpg
1639.148	0.484	1	2back	Block3	2back/STIM_022.jpg
1642.021	1.096	1	2back	Block3	2back/STIM_022.jpg
1646.319	0.999	1	2back	Block3	2back/STIM_023.jpg
1649.363	0.929	1	2back	Block3	2back/STIM_023.jpg
1652.856	1.026	1	2back	Block3	2back/STIM_023.jpg
1656.126	0.547	1	2back	Block3	2back/STIM_024.jpg
1659.094	0.511	1	2back	Block3	2back/STIM_024.jpg
1662.81	0.718	1	2back	Block3	2back/STIM_024.jpg
1666.966	0.754	1	2back	Block3	2back/STIM_025.jpg
1670.016	0.842	1	2back	Block3	2back/STIM_025.jpg
1672.962	1.037	1	2back	Block3	2back/STIM_025.jpg
1677.835	0.645	1	2back	Block3	2back/STIM_026.jpg
1680.799	0.641	1	2back	Block3	2back/STIM_026.jpg
1684.83	0.784	1	2back	Block3	2back/STIM_026.jpg
1687.979	0.956	1	2back	Block3	2back/STIM_027.jpg
1691.845	1.083	1	2back	Block3	2back/STIM_027.jpg
1695.945	0.819	1	2back	Block3	2back/STIM_027.jpg
1698.995	0.872	1	2back	Block3	2back/STIM_028.jpg
1702.448	0.809	1	2back	Block3	2back/STIM_028.jpg
1705.988	0.754	1	2back	Block3	2back/STIM_028.jpg
1708.779	1.004	1	2back	Block3	2back/STIM_029.jpg
1713.189	0.659	1	2back	Block3	2back/STIM_029.jpg
1717.052	0.732	1	2back	Block3	2back/STIM_029.jpg
1720.014	0.969	1	2back	Block3	2back/STIM_030.jpg
1723.184	0.475	1	2back	Block3	2back/STIM_030.jpg
1727.414	0.907	1	2back	Block3	2back/STIM_030.jpg
1730.673	1.103	1	2back	Block3	2back/STIM_031.jpg
1735.298	1.025	1	2back	Block3	2back/STIM_031.jpg
1739.858	1.072	1	2back	Block3	2back/STIM_031.jpg
1743.423	1.005	1	2back	Block3	2back/STIM_032.jpg
1747.061	0.536	1	2back	Block3	2back/STIM_032.jpg
1749.626	0.753	1	2back	Block3	2back/STIM_032.jpg
1754.025	0.928	1	2back	Block3	2back/STIM_033.jpg
1758.71	0.845	1	2back	Block3	2back/STIM_033.jpg
1762.547	0.592	1	2back	Block3	2back/STIM_033.jpg
1766.782	1.102	1	2back	Block3	2back/STIM_034.jpg
1771.649	0.696	1	2back	Block3	2back/STIM_034.jpg
1776.098	0.807	1	2back	Block3	2back/STIM_034.jpg
1779.619	0.729	1	2back	Block3	2back/STIM_035.jpg
1784.346	0.918	1	2back	Block3	2back/STIM_035.jpg
1788.939	0.753	0	2back	Block3	2back/STIM_035.jpg
1793.071	0.606	1	2back	Block3	2back/STIM_036.jpg
1796.751	0.641	1	2back	Block3	2back/STIM_036.jpg
1800.939	0.651	1	2back	Block3	2back/STIM_036.jpg
1805.373	0.952	1	2back	Block3	2back/STIM_037.jpg
1808.905	0.961	1	2back	Block3	2back/STIM_037.jpg
1812.844	0.647	1	2back	Block3	2back/STIM_037.jpg
1816.354	0.709	1	2back	Block3	2back/STIM_038.jpg
1819.162	0.937	1	2back	Block3	2back/STIM_038.jpg
1822.166	0.95	1	2back	Block3	2back/STIM_038.jpg
1826.864	0.751	1	2back	Block3	2back/STIM_039.jpg
1830.222	0.891	1	2back	Block3	2back/STIM_039.jpg
1834.551	0.576	1	2back	Block3	2back/STIM_039.jpg
1837.27	0.525	1	0back	Block3	0back/STIM_000.jpg
1840.286	0.605	1	0back	Block3	0back/STIM_000.jpg
1844.04	0.878	1	0back	Block3	0back/STIM_000.jpg
1848.203	0.634	1	0back	Block3	0back/STIM_001.jpg
1852.242	0.555	1	0back	Block3	0back/STIM_001.jpg
1856.305	0.737	1	0back	Block3	0back/STIM_001.jpg
1860.437	0.885	1	0back	Block3	0back/STIM_002.jpg
1863.414	0.489	1	0back	Block3	0back/STIM_002.jpg
1866.559	0.687	1	0back	Block3	0back/STIM_002.jpg
1869.281	0.513	1	0back	Block3	0back/STIM_003.jpg
1873.602	0.891	1	0back	Block3	0back/STIM_003.jpg
1877.543	0.678	1	0back	Block3	0back/STIM_003.jpg
1881.059	0.762	1	0back	Block3	0back/STIM_004.jpg
1884.636	0.659	1	0back	Block3	0back/STIM_004.jpg
1889.111	0.88	1	0back	Block3	0back/STIM_004.jpg
1893.187	0.609	1	0back	Block3	0back/STIM_005.jpg
1896.185	0.901	1	0back	Block3	0back/STIM_005.jpg
1900.694	0.828	1	0back	Block3	0back/STIM_005.jpg
1903.599	0.475	1	0back	Block3	0back/STIM_006.jpg
1907.871	0.794	1	0back	Block3	0back/STIM_006.jpg
1911.81	0.838	0	0back	Block3	0back/STIM_006.jpg
1915.469	0.589	1	0back	Block3	0back/STIM_007.jpg
1918.213	0.724	1	0back	Block3	0back/STIM_007.jpg
1922.567	0.668	1	0back	Block3	0back/STIM_007.jpg
1925.297	0.531	1	0back	Block3	0back/STIM_008.jpg
1928.227	0.557	1	0back	Block3	0back/STIM_008.jpg
1932.35	0.582	1	0back	Block3	0back/STIM_008.jpg
1935.956	0.716	1	0back	Block3	0back/STIM_009.jpg
1939.15	0.857	1	0back	Block3	0back/STIM_009.jpg
1943.994	0.64	1	0back	Block3	0back/STIM_009.jpg
1947.964	0.569	1	0back	Block3	0back/STIM_010.jpg
1950.562	0.589	1	0back	Block3	0back/STIM_010.jpg
1954.983	0.851	1	0back	Block3	0back/STIM_010.jpg
1958.903	0.799	1	0back	Block3	0back/STIM_011.jpg
1962.152	0.704	1	0back	Block3	0back/STIM_011.jpg
1965.092	0.47	1	0back	Block3	0back/STIM_011.jpg
1969.21	0.849	1	0back	Block3	0back/STIM_012.jpg
1973.521	0.866	1	0back	Block3	0back/STIM_012.jpg
1977.642	0.659	1	0back	Block3	0back/STIM_012.jpg
1980.322	0.725	1	0back	Block3	0back/STIM_013.jpg
1983.912	0.808	1	0back	Block3	0back/STIM_013.jpg
1987.566	0.894	1	0back	Block3	0back/STIM_013.jpg
1990.712	0.456	1	0back	Block3	0back/STIM_014.jpg
1994.168	0.682	1	0back	Block3	0back/STIM_014.jpg
1997.874	0.554	1	0back	Block3	0back/STIM_014.jpg
2002.032	0.515	1	0back	Block3	0back/STIM_015.jpg
2004.867	0.792	1	0back	Block3	0back/STIM_015.jpg
2009.556	0.554	1	0back	Block3	0back/STIM_015.jpg
2012.261	0.54	1	0back	Block3	0back/STIM_016.jpg
2015.378	0.47	1	0back	Block3	0back/STIM_016.jpg
2018.755	0.742	1	0back	Block3	0back/STIM_016.jpg
2021.552	0.495	1	0back	Block3	0back/STIM_017.jpg
2024.863	0.722	1	0back	Block3	0back/STIM_017.jpg
2029.415	0.653	1	0back	Block3	0back/STIM_017.jpg
2032.834	0.741	1	0back	Block3	0back/STIM_018.jpg
2036.979	0.573	1	0back	Block3	0back/STIM_018.jpg
2040.788	0.678	1	0back	Block3	0back/STIM_018.jpg
2045.419	0.507	1	0back	Block3	0back/STIM_019.jpg
2048.01	0.485	1	0back	Block3	0back/STIM_019.jpg
2051.407	0.834	1	0back	Block3	0back/STIM_019.jpg
2055.208	0.736	1	2back	Block4	2back/STIM_000.jpg
2057.948	0.973	1	2back	Block4	2back/STIM_000.jpg
2061.302	0.924	1	2back	Block4	2back/STIM_000.jpg
2064.987	0.886	1	2back	Block4	2back/STIM_001.jpg
2069.045	0.552	1	2back	Block4	2back/STIM_001.jpg
2073.467	0.953	1	2back	Block4	2back/STIM_001.jpg
2078.332	0.695	1	2back	Block4	2back/STIM_002.jpg
2081.073	0.855	1	2back	Block4	2back/STIM_002.jpg
2084.37	0.61	1	2back	Block4	2back/STIM_002.jpg
2087.882	0.865	1	2back	Block4	2back/STIM_003.jpg
2091.872	0.514	1	2back	Block4	2back/STIM_003.jpg
2096.008	0.72	1	2back	Block4	2back/STIM_003.jpg
2098.912	0.646	1	2back	Block4	2back/STIM_004.jpg
2102.971	0.833	1	2back	Block4	2back/STIM_004.jpg
2106.867	0.656	1	2back	Block4	2back/STIM_004.jpg
2109.733	0.931	1	2back	Block4	2back/STIM_005.jpg
2114.537	1.007	1	2back	Block4	2back/STIM_005.jpg
2118.548	0.901	1	2back	Block4	2back/STIM_005.jpg
2122.71	1.007	1	2back	Block4	2back/STIM_006.jpg
2127.635	0.897	1	2back	Block4	2back/STIM_006.jpg
2132.331	0.951	1	2back	Block4	2back/STIM_006.jpg
2136.275	0.885	1	2back	Block4	2back/STIM_007.jpg
2140.167	0.807	1	2back	Block4	2back/STIM_007.jpg
2144.968	0.891	1	2back	Block4	2back/STIM_007.jpg
2149.457	0.55	1	2back	Block4	2back/STIM_008.jpg
2152.781	0.976	1	2back	Block4	2back/STIM_008.jpg
2155.874	0.627	1	2back	Block4	2back/STIM_008.jpg
2160.343	0.707	1	2back	Block4	2back/STIM_009.jpg
2163.555	0.611	1	2back	Block4	2back/STIM_009.jpg
2166.62	0.602	1	2back	Block4	2back/STIM_009.jpg
2170.852	0.652	1	2back	Block4	2back/STIM_010.jpg
2174.091	0.488	1	2back	Block4	2back/STIM_010.jpg
2178.175	0.713	1	2back	Block4	2back/STIM_010.jpg
2181.606	0.654	1	2back	Block4	2back/STIM_011.jpg
2184.67	0.923	1	2back	Block4	2back/STIM_011.jpg
2187.609	0.578	1	2back	Block4	2back/STIM_011.jpg
2190.504	1.013	1	2back	Block4	2back/STIM_012.jpg
2193.624	0.683	1	2back	Block4	2back/STIM_012.jpg
2196.763	0.58	1	2back	Block4	2back/STIM_012.jpg
2200.906	0.842	1	2back	Block4	2back/STIM_013.jpg
2205.513	0.912	1	2back	Block4	2back/STIM_013.jpg
2209.295	0.56	1	2back	Block4	2back/STIM_013.jpg
2213.214	0.54	1	2back	Block4	2back/STIM_014.jpg
2216.441	1.015	1	2back	Block4	2back/STIM_014.jpg
2221.238	1.01	1	2back	Block4	2back/STIM_014.jpg
2224.877	0.656	1	2back	Block4	2back/STIM_015.jpg
2229.277	0.898	1	2back	Block4	2back/STIM_015.jpg
2233.902	0.581	1	2back	Block4	2back/STIM_015.jpg
2236.757	0.978	1	2back	Block4	2back/STIM_016.jpg
2240.021	0.938	1	2back	Block4	2back/STIM_016.jpg
2244.522	0.967	1	2back	Block4	2back/STIM_016.jpg
2248.936	0.589	1	2back	Block4	2back/STIM_017.jpg
2251.543	0.612	1	2back	Block4	2back/STIM_017.jpg
2256.017	0.626	1	2back	Block4	2back/STIM_017.jpg
2260.639	0.878	1	2back	Block4	2back/STIM_018.jpg
2263.632	0.675	1	2back	Block4	2back/STIM_018.jpg
2266.844	0.98	1	2back	Block4	2back/STIM_018.jpg
2271.373	0.964	1	2back	Block4	2back/STIM_019.jpg
2274.517	0.874	1	2back	Block4	2back/STIM_019.jpg
2278.441	0.547	1	2back	Block4	2back/STIM_019.jpg
2282.613	0.528	1	2back	Block4	2back/STIM_020.jpg
2287.132	0.672	1	2back	Block4	2back/STIM_020.jpg
2290.961	0.599	1	2back	Block4	2back/STIM_020.jpg
2295.175	1.025	1	2back	Block4	2back/STIM_021.jpg
2300.0	0.695	1	2back	Block4	2back/STIM_021.jpg
2302.86	0.703	1	2back	Block4	2back/STIM_021.jpg
2307.107	1.01	1	2back	Block4	2back/STIM_022.jpg
2310.673	0.964	1	2back	Block4	2back/STIM_022.jpg
2314.645	0.498	1	2back	Block4	2back/STIM_022.jpg
2317.972	1.051	1	2back	Block4	2back/STIM_023.jpg
2322.26	1.045	1	2back	Block4	2back/STIM_023.jpg
2326.236	0.94	1	2back	Block4	2back/STIM_023.jpg
2331.003	0.767	1	2back	Block4	2back/STIM_024.jpg
2334.078	0.637	1	2back	Block4	2back/STIM_024.jpg
2337.293	1.006	1	2back	Block4	2back/STIM_024.jpg
2341.091	0.564	1	2back	Block4	2back/STIM_025.jpg
2345.627	0.685	1	2back	Block4	2back/STIM_025.jpg
2348.6	0.699	1	2back	Block4	2back/STIM_025.jpg
2352.122	1.031	1	2back	Block4	2back/STIM_026.jpg
2355.747	0.692	1	2back	Block4	2back/STIM_026.jpg
2359.027	0.673	1	2back	Block4	2back/STIM_026.jpg
2363.096	0.584	1	2back	Block4	2back/STIM_027.jpg
2366.358	0.656	1	2back	Block4	2back/STIM_027.jpg
2369.867	0.654	1	2back	Block4	2back/STIM_027.jpg
2374.362	0.561	1	2back	Block4	2back/STIM_028.jpg
2377.181	0.94	1	2back	Block4	2back/STIM_028.jpg
2380.122	1.033	1	2back	Block4	2back/STIM_028.jpg
2384.825	0.534	1	2back	Block4	2back/STIM_029.jpg
2388.134	0.558	1	2back	Block4	2back/STIM_029.jpg
2392.635	0.527	1	2back	Block4	2back/STIM_029.jpg
2396.278	0.693	1	2back	Block4	2back/STIM_030.jpg
2400.126	0.933	1	2back	Block4	2back/STIM_030.jpg
2404.545	0.806	1	2back	Block4	2back/STIM_030.jpg
2408.537	0.989	1	2back	Block4	2back/STIM_031.jpg
2412.833	0.769	1	2back	Block4	2back/STIM_031.jpg
2417.007	0.819	1	2back	Block4	2back/STIM_031.jpg
2421.131	0.78	1	2back	Block4	2back/STIM_032.jpg
2425.055	0.685	1	2back	Block4	2back/STIM_032.jpg
2428.283	1.075	1	2back	Block4	2back/STIM_032.jpg
2432.941	1.088	1	2back	Block4	2back/STIM_033.jpg
2436.323	0.788	1	2back	Block4	2back/STIM_033.jpg
2440.338	0.722	1	2back	Block4	2back/STIM_033.jpg
2444.212	0.913	1	2back	Block4	2back/STIM_034.jpg
2447.284	0.88	1	2back	Block4	2back/STIM_034.jpg
2450.591	0.66	1	2back	Block4	2back/STIM_034.jpg
2453.442	0.726	1	2back	Block4	2back/STIM_035.jpg
2458.047	1.064	1	2back	Block4	2back/STIM_035.jpg
2462.963	0.655	1	2back	Block4	2back/STIM_035.jpg
2467.59	0.648	1	2back	Block4	2back/STIM_036.jpg
2470.862	0.538	1	2back	Block4	2back/STIM_036.jpg
2474.463	0.831	1	2back	Block4	2back/STIM_036.jpg
2477.514	0.858	1	2back	Block4	2back/STIM_037.jpg
2481.897	0.875	1	2back	Block4	2back/STIM_037.jpg
2485.399	0.994	1	2back	Block4	2back/STIM_037.jpg
2489.894	0.995	1	2back	Block4	2back/STIM_038.jpg
2494.712	0.806	1	2back	Block4	2back/STIM_038.jpg
2499.118	1.083	1	2back	Block4	2back/STIM_038.jpg
2502.399	0.474	1	2back	Block4	2back/STIM_039.jpg
2505.79	0.826	1	2back	Block4	2back/STIM_039.jpg
2510.546	0.759	0	2back	Block4	2back/STIM_039.jpg
2513.475	0.731	1	0back	Block4	0back/STIM_000.jpg
2517.091	0.886	1	0back	Block4	0back/STIM_000.jpg
2520.007	0.466	1	0back	Block4	0back/STIM_000.jpg
2523.098	0.688	1	0back	Block4	0back/STIM_001.jpg
2526.091	0.768	1	0back	Block4	0back/STIM_001.jpg
2529.912	0.54	1	0back	Block4	0back/STIM_001.jpg
2533.917	0.708	1	0back	Block4	0back/STIM_002.jpg
2536.927	0.895	1	0back	Block4	0back/STIM_002.jpg
2540.719	0.638	1	0back	Block4	0back/STIM_002.jpg
2545.211	0.818	1	0back	Block4	0back/STIM_003.jpg
2548.551	0.657	1	0back	Block4	0back/STIM_003.jpg
2552.18	0.625	1	0back	Block4	0back/STIM_003.jpg
2554.858	0.655	1	0back	Block4	0back/STIM_004.jpg
2557.697	0.495	1	0back	Block4	0back/STIM_004.jpg
2560.843	0.593	1	0back	Block4	0back/STIM_004.jpg
2564.638	0.58	1	0back	Block4	0back/STIM_005.jpg
2567.891	0.855	1	0back	Block4	0back/STIM_005.jpg
2570.886	0.691	1	0back	Block4	0back/STIM_005.jpg
2573.689	0.462	1	0back	Block4	0back/STIM_006.jpg
2577.18	0.88	1	0back	Block4	0back/STIM_006.jpg
2580.073	0.79	1	0back	Block4	0back/STIM_006.jpg
2584.438	0.878	1	0back	Block4	0back/STIM_007.jpg
2587.838	0.844	1	0back	Block4	0back/STIM_007.jpg
2591.296	0.738	1	0back	Block4	0back/STIM_007.jpg
2595.177	0.63	1	0back	Block4	0back/STIM_008.jpg
2598.88	0.546	1	0back	Block4	0back/STIM_008.jpg
2601.642	0.613	1	0back	Block4	0back/STIM_008.jpg
2605.104	0.58	1	0back	Block4	0back/STIM_009.jpg
2609.305	0.661	1	0back	Block4	0back/STIM_009.jpg
2612.407	0.701	1	0back	Block4	0back/STIM_009.jpg
2616.544	0.875	1	0back	Block4	0back/STIM_010.jpg
2619.725	0.786	1	0back	Block4	0back/STIM_010.jpg
2622.886	0.88	1	0back	Block4	0back/STIM_010.jpg
2627.338	0.821	1	0back	Block4	0back/STIM_011.jpg
2630.214	0.456	1	0back	Block4	0back/STIM_011.jpg
2633.481	0.869	1	0back	Block4	0back/STIM_011.jpg
2637.675	0.814	1	0back	Block4	0back/STIM_012.jpg
2641.824	0.873	1	0back	Block4	0back/STIM_012.jpg
2646.163	0.782	1	0back	Block4	0back/STIM_012.jpg
2649.269	0.688	1	0back	Block4	0back/STIM_013.jpg
2653.287	0.802	1	0back	Block4	0back/STIM_013.jpg
2656.23	0.594	1	0back	Block4	0back/STIM_013.jpg
2660.133	0.862	1	0back	Block4	0back/STIM_014.jpg
2664.986	0.469	1	0back	Block4	0back/STIM_014.jpg
2669.262	0.653	1	0back	Block4	0back/STIM_014.jpg
2673.284	0.771	1	0back	Block4	0back/STIM_015.jpg
2676.517	0.461	1	0back	Block4	0back/STIM_015.jpg
2679.48	0.703	1	0back	Block4	0back/STIM_015.jpg
2684.038	0.678	1	0back	Block4	0back/STIM_016.jpg
2688.591	0.806	1	0back	Block4	0back/STIM_016.jpg
2693.301	0.661	1	0back	Block4	0back/STIM_016.jpg
2697.753	0.55	1	0back	Block4	0back/STIM_017.jpg
2700.767	0.888	1	0back	Block4	0back/STIM_017.jpg
2704.582	0.669	1	0back	Block4	0back/STIM_017.jpg
2708.31	0.598	1	0back	Block4	0back/STIM_018.jpg
2712.891	0.853	1	0back	Block4	0back/STIM_018.jpg
2716.589	0.706	1	0back	Block4	0back/STIM_018.jpg
2721.181	0.695	1	0back	Block4	0back/STIM_019.jpg
2725.174	0.525	1	0back	Block4	0back/STIM_019.jpg
2729.351	0.78	1	0back	Block4	0back/STIM_019.jpg
