onset	duration	response_time_ms	trial_type	learning_stage	stimulus	response_port
0.0	1.086	1085.5	2back	Block1	2back/STIM_000.jpg	100
5.053	0.659	659.4	2back	Block1	2back/STIM_000.jpg	99
8.546	1.274	1274.5	2back	Block1	2back/STIM_000.jpg	99
12.51	1.162	1162.4	2back	Block1	2back/STIM_001.jpg	100
17.3	0.662	662.4	2back	Block1	2back/STIM_001.jpg	99
20.971	0.691	691.4	2back	Block1	2back/STIM_001.jpg	99
25.251	0.677	676.8	2back	Block1	2back/STIM_002.jpg	99
29.823	1.33	1329.5	2back	Block1	2back/STIM_002.jpg	100
34.763	0.961	960.6	2back	Block1	2back/STIM_002.jpg	99
37.809	1.211	1211.4	2back	Block1	2back/STIM_003.jpg	100
41.179	0.959	959.3	2back	Block1	2back/STIM_003.jpg	100
44.378	0.782	782.1	2back	Block1	2back/STIM_003.jpg	100
47.994	0.881	881.0	2back	Block1	2back/STIM_004.jpg	99
51.647	1.251	1251.2	2back	Block1	2back/STIM_004.jpg	99
55.82	1.101	1100.6	2back	Block1	2back/STIM_004.jpg	99
59.449	0.753	753.1	2back	Block1	2back/STIM_005.jpg	100
63.286	0.971	971.1	2back	Block1	2back/STIM_005.jpg	99
67.977	0.945	945.1	2back	Block1	2back/STIM_005.jpg	99
72.722	1.335	1335.0	2back	Block1	2back/STIM_006.jpg	99
77.581	0.988	988.2	2back	Block1	2back/STIM_006.jpg	99
81.239	0.77	769.7	2back	Block1	2back/STIM_006.jpg	99
84.63	0.792	791.8	2back	Block1	2back/STIM_007.jpg	100
89.131	0.906	905.7	2back	Block1	2back/STIM_007.jpg	100
92.322	1.18	1179.9	2back	Block1	2back/STIM_007.jpg	99
96.93	0.841	841.2	2back	Block1	2back/STIM_008.jpg	99
101.507	1.312	1311.8	2back	Block1	2back/STIM_008.jpg	99
105.564	0.929	928.9	2back	Block1	2back/STIM_008.jpg	100
110.389	0.74	739.9	2back	Block1	2back/STIM_009.jpg	100
114.323	0.893	892.7	2back	Block1	2back/STIM_009.jpg	100
118.844	0.752	751.8	2back	Block1	2back/STIM_009.jpg	99
122.694	1.406	1406.3	2back	Block1	2back/STIM_010.jpg	99
127.866	0.856	855.5	2back	Block1	2back/STIM_010.jpg	99
131.288	0.968	968.3	2back	Block1	2back/STIM_010.jpg	99
134.71	1.411	1411.0	2back	Block1	2back/STIM_011.jpg	100
139.119	0.975	974.8	2back	Block1	2back/STIM_011.jpg	100
143.506	1.07	1069.6	2back	Block1	2back/STIM_011.jpg	99
147.061	1.059	1058.6	2back	Block1	2back/STIM_012.jpg	99
150.848	1.274	1274.1	2back	Block1	2back/STIM_012.jpg	100
155.283	0.777	777.0	2back	Block1	2back/STIM_012.jpg	99
159.681	1.374	1374.3	2back	Block1	2back/STIM_013.jpg	100
163.895	1.325	1324.8	2back	Block1	2back/STIM_013.jpg	100
167.203	0.921	921.2	2back	Block1	2back/STIM_013.jpg	99
170.395	0.988	988.1	2back	Block1	2back/STIM_014.jpg	99
174.171	0.668	667.6	2back	Block1	2back/STIM_014.jpg	99
178.093	0.832	831.9	2back	Block1	2back/STIM_014.jpg	99
181.386	0.894	893.5	2back	Block1	2back/STIM_015.jpg	99
185.947	1.176	1176.5	2back	Block1	2back/STIM_015.jpg	99
189.547	0.753	752.7	2back	Block1	2back/STIM_015.jpg	100
192.447	1.021	1021.3	2back	Block1	2back/STIM_016.jpg	99
196.129	0.989	988.7	2back	Block1	2back/STIM_016.jpg	99
200.675	1.244	1243.5	2back	Block1	2back/STIM_016.jpg	99
205.088	0.89	889.9	2back	Block1	2back/STIM_017.jpg	99
208.475	1.11	1109.5	2back	Block1	2back/STIM_017.jpg	99
211.751	1.159	1159.0	2back	Block1	2back/STIM_017.jpg	99
215.72	0.619	618.9	2back	Block1	2back/STIM_018.jpg	99
219.892	1.063	1062.7	2back	Block1	2back/STIM_018.jpg	100
224.32	0.713	712.8	2back	Block1	2back/STIM_018.jpg	100
228.147	0.626	626.4	2back	Block1	2back/STIM_019.jpg	100
232.086	1.313	1312.8	2back	Block1	2back/STIM_019.jpg	99
236.742	1.255	1255.0	2back	Block1	2back/STIM_019.jpg	100
240.31	1.273	1273.3	2back	Block1	2back/STIM_020.jpg	99
245.02	0.887	886.9	2back	Block1	2back/STIM_020.jpg	100
249.758	1.171	1170.7	2back	Block1	2back/STIM_020.jpg	99
253.656	0.996	996.2	2back	Block1	2back/STIM_021.jpg	100
256.712	0.674	674.0	2back	Block1	2back/STIM_021.jpg	100
259.906	0.689	689.2	2back	Block1	2back/STIM_021.jpg	99
262.629	0.858	858.3	2back	Block1	2back/STIM_022.jpg	99
266.362	0.598	597.8	2back	Block1	2back/STIM_022.jpg	100
270.146	0.661	660.7	2back	Block1	2back/STIM_022.jpg	99
273.576	1.307	1307.3	2back	Block1	2back/STIM_023.jpg	99
278.29	0.884	883.5	2back	Block1	2back/STIM_023.jpg	100
282.558	0.788	787.6	2back	Block1	2back/STIM_023.jpg	99
286.423	0.744	743.8	2back	Block1	2back/STIM_024.jpg	99
291.01	1.047	1046.9	2back	Block1	2back/STIM_024.jpg	100
294.754	0.911	910.9	2back	Block1	2back/STIM_024.jpg	99
299.28	0.971	971.4	2back	Block1	2back/STIM_025.jpg	99
303.132	0.657	657.2	2back	Block1	2back/STIM_025.jpg	99
307.037	0.744	744.5	2back	Block1	2back/STIM_025.jpg	99
310.359	1.251	1251.2	2back	Block1	2back/STIM_026.jpg	100
313.695	0.634	633.8	2back	Block1	2back/STIM_026.jpg	99
317.761	1.272	1272.4	2back	Block1	2back/STIM_026.jpg	99
322.409	0.929	929.0	2back	Block1	2back/STIM_027.jpg	99
326.11	0.609	608.9	2back	Block1	2back/STIM_027.jpg	100
328.814	0.712	711.9	2back	Block1	2back/STIM_027.jpg	99
333.309	0.951	951.1	2back	Block1	2back/STIM_028.jpg	99
336.425	0.978	978.4	2back	Block1	2back/STIM_028.jpg	99
340.82	0.634	634.5	2back	Block1	2back/STIM_028.jpg	99
344.219	0.755	754.9	2back	Block1	2back/STIM_029.jpg	100
348.483	1.147	1147.4	2back	Block1	2back/STIM_029.jpg	99
353.13	0.76	759.6	2back	Block1	2back/STIM_029.jpg	99
357.079	0.656	656.0	2back	Block1	2back/STIM_030.jpg	99
360.949	0.736	735.9	2back	Block1	2back/STIM_030.jpg	100
364.573	0.864	864.4	2back	Block1	2back/STIM_030.jpg	100
368.239	0.944	944.1	2back	Block1	2back/STIM_031.jpg	99
371.213	0.868	867.8	2back	Block1	2back/STIM_031.jpg	100
374.486	0.605	604.8	2back	Block1	2back/STIM_031.jpg	100
377.291	1.036	1036.4	2back	Block1	2back/STIM_032.jpg	99
380.612	1.079	1078.9	2back	Block1	2back/STIM_032.jpg	100
384.324	1.064	1063.8	2back	Block1	2back/STIM_032.jpg	99
389.018	0.912	911.9	2back	Block1	2back/STIM_033.jpg	100
391.991	0.637	636.6	2back	Block1	2back/STIM_033.jpg	100
395.901	0.756	756.2	2back	Block1	2back/STIM_033.jpg	99
400.53	1.305	1304.9	2back	Block1	2back/STIM_034.jpg	99
404.566	0.883	882.9	2back	Block1	2back/STIM_034.jpg	100
408.123	0.588	587.7	2back	Block1	2back/STIM_034.jpg	100
412.244	1.322	1322.1	2back	Block1	2back/STIM_035.jpg	99
416.576	0.95	950.5	2back	Block1	2back/STIM_035.jpg	100
419.593	1.047	1047.4	2back	Block1	2back/STIM_035.jpg	99
424.522	0.999	999.3	2back	Block1	2back/STIM_036.jpg	99
429.133	1.104	1103.9	2back	Block1	2back/STIM_036.jpg	100
433.963	1.134	1134.5	2back	Block1	2back/STIM_036.jpg	99
438.611	0.624	623.5	2back	Block1	2back/STIM_037.jpg	100
441.629	0.67	669.8	2back	Block1	2back/STIM_037.jpg	100
444.891	0.898	897.6	2back	Block1	2back/STIM_037.jpg	100
448.435	0.756	755.5	2back	Block1	2back/STIM_038.jpg	100
452.393	0.916	916.1	2back	Block1	2back/STIM_038.jpg	99
456.822	0.966	965.8	2back	Block1	2back/STIM_038.jpg	99
460.796	1.014	1014.2	2back	Block1	2back/STIM_039.jpg	99
463.857	0.702	702.3	2back	Block1	2back/STIM_039.jpg	100
467.979	0.692	692.4	2back	Block1	2back/STIM_039.jpg	99
472.647	0.56	560.2	0back	Block1	0back/STIM_000.jpg	99
476.137	0.65	649.7	0back	Block1	0back/STIM_000.jpg	100
478.993	0.74	740.5	0back	Block1	0back/STIM_000.jpg	100
482.566	0.759	758.9	0back	Block1	0back/STIM_001.jpg	99
485.656	0.484	484.2	0back	Block1	0back/STIM_001.jpg	100
488.133	0.703	703.3	0back	Block1	0back/STIM_001.jpg	99
491.687	0.758	757.5	0back	Block1	0back/STIM_002.jpg	100
494.706	0.803	802.6	0back	Block1	0back/STIM_002.jpg	99
498.275	0.713	713.2	0back	Block1	0back/STIM_002.jpg	99
502.108	0.566	566.3	0back	Block1	0back/STIM_003.jpg	100
506.03	0.583	583.3	0back	Block1	0back/STIM_003.jpg	100
510.153	0.767	767.3	0back	Block1	0back/STIM_003.jpg	99
513.276	0.676	676.5	0back	Block1	0back/STIM_004.jpg	100
517.19	0.525	524.6	0back	Block1	0back/STIM_004.jpg	100
521.553	0.601	601.2	0back	Block1	0back/STIM_004.jpg	99
524.507	0.796	796.5	0back	Block1	0back/STIM_005.jpg	99
529.015	0.487	486.8	0back	Block1	0back/STIM_005.jpg	100
533.259	0.677	677.1	0back	Block1	0back/STIM_005.jpg	100
537.6	0.668	667.8	0back	Block1	0back/STIM_006.jpg	99
542.22	0.672	671.5	0back	Block1	0back/STIM_006.jpg	100
545.654	0.479	478.7	0back	Block1	0back/STIM_006.jpg	99
549.29	0.754	754.5	0back	Block1	0back/STIM_007.jpg	100
552.904	0.654	653.9	0back	Block1	0back/STIM_007.jpg	99
556.516	0.768	768.0	0back	Block1	0back/STIM_007.jpg	100
561.197	0.806	806.3	0back	Block1	0back/STIM_008.jpg	99
564.269	0.548	547.5	0back	Block1	0back/STIM_008.jpg	99
566.841	0.598	598.3	0back	Block1	0back/STIM_008.jpg	100
570.562	0.738	737.6	0back	Block1	0back/STIM_009.jpg	100
574.381	0.681	680.6	0back	Block1	0back/STIM_009.jpg	99
577.996	0.796	796.3	0back	Block1	0back/STIM_009.jpg	100
582.008	0.518	517.8	0back	Block1	0back/STIM_010.jpg	99
586.087	0.428	428.5	0back	Block1	0back/STIM_010.jpg	99
589.742	0.801	801.1	0back	Block1	0back/STIM_010.jpg	99
594.482	0.706	705.5	0back	Block1	0back/STIM_011.jpg	100
597.655	0.677	677.4	0back	Block1	0back/STIM_011.jpg	100
600.867	0.558	557.6	0back	Block1	0back/STIM_011.jpg	99
604.594	0.646	645.6	0back	Block1	0back/STIM_012.jpg	99
608.501	0.653	653.3	0back	Block1	0back/STIM_012.jpg	99
611.802	0.628	627.5	0back	Block1	0back/STIM_012.jpg	100
616.12	0.662	661.5	0back	Block1	0back/STIM_013.jpg	100
620.734	0.431	431.1	0back	Block1	0back/STIM_013.jpg	99
623.924	0.684	683.8	0back	Block1	0back/STIM_013.jpg	100
627.304	0.56	559.6	0back	Block1	0back/STIM_014.jpg	100
631.222	0.75	749.8	0back	Block1	0back/STIM_014.jpg	100
634.612	0.753	752.9	0back	Block1	0back/STIM_014.jpg	100
637.859	0.588	587.7	0back	Block1	0back/STIM_015.jpg	99
640.966	0.482	482.3	0back	Block1	0back/STIM_015.jpg	99
644.481	0.632	631.6	0back	Block1	0back/STIM_015.jpg	99
647.276	0.412	411.8	0back	Block1	0back/STIM_016.jpg	99
651.169	0.705	704.6	0back	Block1	0back/STIM_016.jpg	100
655.625	0.484	483.8	0back	Block1	0back/STIM_016.jpg	100
659.0	0.618	617.9	0back	Block1	0back/STIM_017.jpg	99
661.792	0.782	782.3	0back	Block1	0back/STIM_017.jpg	100
664.58	0.411	411.2	0back	Block1	0back/STIM_017.jpg	99
667.81	0.769	769.1	0back	Block1	0back/STIM_018.jpg	99
670.678	0.489	489.1	0back	Block1	0back/STIM_018.jpg	99
675.015	0.561	561.3	0back	Block1	0back/STIM_018.jpg	99
678.632	0.457	456.9	0back	Block1	0back/STIM_019.jpg	100
682.26	0.532	531.8	0back	Block1	0back/STIM_019.jpg	100
685.68	0.573	573.3	0back	Block1	0back/STIM_019.jpg	99
689.41	0.941	941.1	2back	Block2	2back/STIM_000.jpg	100
693.298	0.56	560.3	2back	Block2	2back/STIM_000.jpg	100
697.076	0.557	556.7	2back	Block2	2back/STIM_000.jpg	99
700.139	0.943	942.9	2back	Block2	2back/STIM_001.jpg	100
703.832	0.926	926.3	2back	Block2	2back/STIM_001.jpg	99
707.726	0.783	782.6	2back	Block2	2back/STIM_001.jpg	99
710.823	1.118	1118.4	2back	Block2	2back/STIM_002.jpg	100
714.085	0.75	750.5	2back	Block2	2back/STIM_002.jpg	99
717.069	0.789	789.1	2back	Block2	2back/STIM_002.jpg	99
721.603	0.95	950.3	2back	Block2	2back/STIM_003.jpg	99
726.166	1.011	1011.2	2back	Block2	2back/STIM_003.jpg	99
730.808	0.752	752.1	2back	Block2	2back/STIM_003.jpg	99
734.811	0.556	556.5	2back	Block2	2back/STIM_004.jpg	99
737.954	0.556	555.8	2back	Block2	2back/STIM_004.jpg	100
741.969	0.516	515.8	2back	Block2	2back/STIM_004.jpg	99
744.978	0.794	794.1	2back	Block2	2back/STIM_005.jpg	99
747.963	0.869	868.8	2back	Block2	2back/STIM_005.jpg	100
752.072	0.642	642.0	2back	Block2	2back/STIM_005.jpg	99
754.743	0.832	832.5	2back	Block2	2back/STIM_006.jpg	100
759.238	0.938	938.5	2back	Block2	2back/STIM_006.jpg	99
763.303	0.528	528.1	2back	Block2	2back/STIM_006.jpg	99
767.463	0.666	666.4	2back	Block2	2back/STIM_007.jpg	99
770.76	0.936	935.7	2back	Block2	2back/STIM_007.jpg	99
773.74	0.969	969.4	2back	Block2	2back/STIM_007.jpg	100
776.921	1.204	1204.2	2back	Block2	2back/STIM_008.jpg	100
781.385	1.017	1016.9	2back	Block2	2back/STIM_008.jpg	99
785.658	0.51	510.2	2back	Block2	2back/STIM_008.jpg	99
788.885	0.76	759.8	2back	Block2	2back/STIM_009.jpg	99
793.2	0.817	817.3	2back	Block2	2back/STIM_009.jpg	100
796.655	0.835	835.1	2back	Block2	2back/STIM_009.jpg	100
799.644	0.648	648.2	2back	Block2	2back/STIM_010.jpg	99
802.454	0.986	986.1	2back	Block2	2back/STIM_010.jpg	100
806.262	0.729	729.4	2back	Block2	2back/STIM_010.jpg	99
809.747	0.746	745.7	2back	Block2	2back/STIM_011.jpg	100
813.086	0.592	592.5	2back	Block2	2back/STIM_011.jpg	99
817.063	0.846	845.7	2back	Block2	2back/STIM_011.jpg	100
820.08	0.975	974.8	2back	Block2	2back/STIM_012.jpg	100
824.272	1.114	1113.8	2back	Block2	2back/STIM_012.jpg	100
828.694	0.631	630.7	2back	Block2	2back/STIM_012.jpg	99
832.11	0.969	969.2	2back	Block2	2back/STIM_013.jpg	100
835.126	0.857	857.4	2back	Block2	2back/STIM_013.jpg	99
839.744	0.734	734.2	2back	Block2	2back/STIM_013.jpg	100
842.758	0.77	770.5	2back	Block2	2back/STIM_014.jpg	99
847.016	0.984	983.8	2back	Block2	2back/STIM_014.jpg	100
850.122	0.795	795.0	2back	Block2	2back/STIM_014.jpg	99
854.556	0.822	821.7	2back	Block2	2back/STIM_015.jpg	99
858.706	0.566	565.8	2back	Block2	2back/STIM_015.jpg	99
862.44	0.879	879.0	2back	Block2	2back/STIM_015.jpg	100
866.145	1.042	1041.5	2back	Block2	2back/STIM_016.jpg	99
869.238	0.957	957.2	2back	Block2	2back/STIM_016.jpg	99
873.502	0.824	823.9	2back	Block2	2back/STIM_016.jpg	100
876.763	0.782	782.2	2back	Block2	2back/STIM_017.jpg	99
881.045	0.789	788.9	2back	Block2	2back/STIM_017.jpg	100
884.53	0.832	831.8	2back	Block2	2back/STIM_017.jpg	99
887.643	1.206	1206.5	2back	Block2	2back/STIM_018.jpg	99
891.543	0.73	729.9	2back	Block2	2back/STIM_018.jpg	99
896.224	0.842	841.6	2back	Block2	2back/STIM_018.jpg	100
900.143	0.642	641.9	2back	Block2	2back/STIM_019.jpg	100
904.297	0.953	952.7	2back	Block2	2back/STIM_019.jpg	99
908.368	0.846	846.4	2back	Block2	2back/STIM_019.jpg	99
912.878	1.152	1151.7	2back	Block2	2back/STIM_020.jpg	100
917.941	0.66	659.5	2back	Block2	2back/STIM_020.jpg	100
922.224	0.516	515.9	2back	Block2	2back/STIM_020.jpg	100
925.38	0.988	987.5	2back	Block2	2back/STIM_021.jpg	100
928.397	0.636	636.1	2back	Block2	2back/STIM_021.jpg	99
931.425	0.659	659.2	2back	Block2	2back/STIM_021.jpg	99
935.823	0.537	537.1	2back	Block2	2back/STIM_022.jpg	100
940.063	0.634	634.1	2back	Block2	2back/STIM_022.jpg	100
943.877	0.644	644.4	2back	Block2	2back/STIM_022.jpg	99
946.809	1.12	1119.7	2back	Block2	2back/STIM_023.jpg	100
951.434	0.658	658.1	2back	Block2	2back/STIM_023.jpg	99
954.431	0.974	973.6	2back	Block2	2back/STIM_023.jpg	100
959.377	0.978	977.6	2back	Block2	2back/STIM_024.jpg	99
963.816	1.116	1115.5	2back	Block2	2back/STIM_024.jpg	100
967.69	0.874	874.3	2back	Block2	2back/STIM_024.jpg	99
971.927	0.632	631.6	2back	Block2	2back/STIM_025.jpg	100
975.269	0.844	844.4	2back	Block2	2back/STIM_025.jpg	99
979.967	1.054	1054.5	2back	Block2	2back/STIM_025.jpg	100
983.536	0.892	891.5	2back	Block2	2back/STIM_026.jpg	100
988.101	0.785	785.2	2back	Block2	2back/STIM_026.jpg	99
992.067	1.028	1028.0	2back	Block2	2back/STIM_026.jpg	100
996.498	0.771	771.2	2back	Block2	2back/STIM_027.jpg	99
999.607	1.059	1058.9	2back	Block2	2back/STIM_027.jpg	100
1002.748	0.516	515.9	2back	Block2	2back/STIM_027.jpg	100
1006.613	0.664	663.8	2back	Block2	2back/STIM_028.jpg	100
1010.657	0.722	721.7	2back	Block2	2back/STIM_028.jpg	100
1013.523	0.624	624.3	2back	Block2	2back/STIM_028.jpg	99
1017.677	0.765	765.0	2back	Block2	2back/STIM_029.jpg	99
1021.983	1.039	1038.7	2back	Block2	2back/STIM_029.jpg	99
1025.422	0.485	484.8	2back	Block2	2back/STIM_029.jpg	99
1028.065	1.19	1189.8	2back	Block2	2back/STIM_030.jpg	100
1033.229	0.592	592.5	2back	Block2	2back/STIM_030.jpg	99
1037.075	0.97	969.5	2back	Block2	2back/STIM_030.jpg	100
1040.919	0.906	906.2	2back	Block2	2back/STIM_031.jpg	100
1044.784	0.92	920.3	2back	Block2	2back/STIM_031.jpg	99
1048.998	0.814	813.5	2back	Block2	2back/STIM_031.jpg	100
1053.784	0.723	722.6	2back	Block2	2back/STIM_032.jpg	99
1056.786	0.703	702.9	2back	Block2	2back/STIM_032.jpg	100
1060.45	0.664	664.3	2back	Block2	2back/STIM_032.jpg	100
1063.158	0.897	897.4	2back	Block2	2back/STIM_033.jpg	99
1066.384	0.701	700.9	2back	Block2	2back/STIM_033.jpg	100
1069.608	0.568	568.0	2back	Block2	2back/STIM_033.jpg	100
1073.472	0.915	915.4	2back	Block2	2back/STIM_034.jpg	99
1077.071	0.571	571.4	2back	Block2	2back/STIM_034.jpg	99
1079.99	1.038	1037.5	2back	Block2	2back/STIM_034.jpg	100
1083.461	1.027	1026.7	2back	Block2	2back/STIM_035.jpg	99
1088.363	0.809	808.8	2back	Block2	2back/STIM_035.jpg	100
1091.945	0.969	969.1	2back	Block2	2back/STIM_035.jpg	99
1096.038	1.175	1174.8	2back	Block2	2back/STIM_036.jpg	100
1099.359	0.716	716.5	2back	Block2	2back/STIM_036.jpg	99
1102.181	0.753	752.8	2back	Block2	2back/STIM_036.jpg	99
1105.079	0.679	678.6	2back	Block2	2back/STIM_037.jpg	99
1108.75	0.632	631.5	2back	Block2	2back/STIM_037.jpg	100
1112.427	1.012	1011.8	2back	Block2	2back/STIM_037.jpg	100
1115.45	0.733	733.4	2back	Block2	2back/STIM_038.jpg	99
1118.823	0.712	712.0	2back	Block2	2back/STIM_038.jpg	99
1123.367	0.611	610.6	2back	Block2	2back/STIM_038.jpg	99
1127.181	0.708	707.6	2back	Block2	2back/STIM_039.jpg	100
1131.167	0.998	998.4	2back	Block2	2back/STIM_039.jpg	100
1134.767	0.465	464.6	2back	Block2	2back/STIM_039.jpg	99
1138.411	0.663	663.1	0back	Block2	0back/STIM_000.jpg	99
1142.226	0.789	788.8	0back	Block2	0back/STIM_000.jpg	99
1146.859	0.534	534.0	0back	Block2	0back/STIM_000.jpg	100
1151.377	0.806	806.4	0back	Block2	0back/STIM_001.jpg	99
1155.23	0.646	646.5	0back	Block2	0back/STIM_001.jpg	100
1158.051	0.418	418.2	0back	Block2	0back/STIM_001.jpg	99
1161.123	0.546	545.7	0back	Block2	0back/STIM_002.jpg	100
1165.173	0.677	676.6	0back	Block2	0back/STIM_002.jpg	100
1168.516	0.732	731.5	0back	Block2	0back/STIM_002.jpg	100
1171.504	0.584	583.9	0back	Block2	0back/STIM_003.jpg	100
1175.913	0.78	779.8	0back	Block2	0back/STIM_003.jpg	100
1179.033	0.471	470.9	0back	Block2	0back/STIM_003.jpg	100
1183.39	0.619	619.4	0back	Block2	0back/STIM_004.jpg	99
1186.041	0.446	445.6	0back	Block2	0back/STIM_004.jpg	99
1189.168	0.417	416.8	0back	Block2	0back/STIM_004.jpg	100
1192.313	0.57	570.4	0back	Block2	0back/STIM_005.jpg	100
1195.095	0.682	682.2	0back	Block2	0back/STIM_005.jpg	99
1198.313	0.466	466.5	0back	Block2	0back/STIM_005.jpg	99
1201.225	0.506	506.4	0back	Block2	0back/STIM_006.jpg	100
1205.064	0.701	700.8	0back	Block2	0back/STIM_006.jpg	100
1208.089	0.535	535.1	0back	Block2	0back/STIM_006.jpg	99
1211.886	0.656	655.8	0back	Block2	0back/STIM_007.jpg	100
1214.828	0.744	744.3	0back	Block2	0back/STIM_007.jpg	99
1217.792	0.696	695.6	0back	Block2	0back/STIM_007.jpg	99
1222.098	0.54	539.8	0back	Block2	0back/STIM_008.jpg	100
1225.674	0.711	710.6	0back	Block2	0back/STIM_008.jpg	99
1229.688	0.454	454.5	0back	Block2	0back/STIM_008.jpg	99
1232.654	0.44	440.3	0back	Block2	0back/STIM_009.jpg	100
1235.43	0.556	556.5	0back	Block2	0back/STIM_009.jpg	99
1239.067	0.666	666.2	0back	Block2	0back/STIM_009.jpg	100
1243.654	0.447	447.2	0back	Block2	0back/STIM_010.jpg	100
1246.43	0.76	759.8	0back	Block2	0back/STIM_010.jpg	99
1251.1	0.495	495.1	0back	Block2	0back/STIM_010.jpg	99
1254.016	0.416	415.7	0back	Block2	0back/STIM_011.jpg	100
1258.248	0.507	507.1	0back	Block2	0back/STIM_011.jpg	99
1261.773	0.782	782.3	0back	Block2	0back/STIM_011.jpg	100
1265.59	0.468	468.1	0back	Block2	0back/STIM_012.jpg	100
1269.705	0.455	455.3	0back	Block2	0back/STIM_012.jpg	99
1273.393	0.723	723.2	0back	Block2	0back/STIM_012.jpg	100
1278.019	0.545	544.6	0back	Block2	0back/STIM_013.jpg	99
1281.83	0.747	746.8	0back	Block2	0back/STIM_013.jpg	99
1286.261	0.505	505.1	0back	Block2	0back/STIM_013.jpg	100
1289.648	0.779	779.1	0back	Block2	0back/STIM_014.jpg	100
1293.305	0.516	515.8	0back	Block2	0back/STIM_014.jpg	100
1296.092	0.577	576.7	0back	Block2	0back/STIM_014.jpg	100
1299.515	0.639	638.9	0back	Block2	0back/STIM_015.jpg	99
1302.409	0.558	558.4	0back	Block2	0back/STIM_015.jpg	100
1305.237	0.555	555.2	0back	Block2	0back/STIM_015.jpg	100
1308.341	0.56	560.0	0back	Block2	0back/STIM_016.jpg	99
1312.157	0.489	488.8	0back	Block2	0back/STIM_016.jpg	100
1316.171	0.681	680.7	0back	Block2	0back/STIM_016.jpg	99
1320.438	0.716	715.9	0back	Block2	0back/STIM_017.jpg	100
1324.74	0.408	408.5	0back	Block2	0back/STIM_017.jpg	99
1327.439	0.671	671.1	0back	Block2	0back/STIM_017.jpg	100
1330.338	0.604	603.9	0back	Block2	0back/STIM_018.jpg	99
1333.444	0.794	794.2	0back	Block2	0back/STIM_018.jpg	99
1338.175	0.476	476.1	0back	Block2	0back/STIM_018.jpg	100
1340.652	0.567	567.0	0back	Block2	0back/STIM_019.jpg	99
1343.52	0.576	576.5	0back	Block2	0back/STIM_019.jpg	100
1347.287	0.445	444.6	0back	Block2	0back/STIM_019.jpg	100
1351.686	0.786	786.1	2back	Block3	2back/STIM_000.jpg	100
1355.577	0.578	577.8	2back	Block3	2back/STIM_000.jpg	99
1359.152	0.504	503.6	2back	Block3	2back/STIM_000.jpg	100
1362.153	0.619	618.8	2back	Block3	2back/STIM_001.jpg	100
1365.949	0.482	481.9	2back	Block3	2back/STIM_001.jpg	100
1368.568	0.701	701.2	2back	Block3	2back/STIM_001.jpg	100
1371.287	0.924	923.9	2back	Block3	2back/STIM_002.jpg	99
1375.653	0.794	793.7	2back	Block3	2back/STIM_002.jpg	100
1379.168	0.912	912.0	2back	Block3	2back/STIM_002.jpg	99
1383.162	0.921	920.7	2back	Block3	2back/STIM_003.jpg	100
1386.674	0.566	565.6	2back	Block3	2back/STIM_003.jpg	100
1390.359	0.826	826.2	2back	Block3	2back/STIM_003.jpg	100
1394.647	0.739	738.8	2back	Block3	2back/STIM_004.jpg	99
1398.518	0.846	846.3	2back	Block3	2back/STIM_004.jpg	99
1401.847	0.65	650.1	2back	Block3	2back/STIM_004.jpg	100
1405.773	0.432	431.9	2back	Block3	2back/STIM_005.jpg	99
1410.014	0.599	598.7	2back	Block3	2back/STIM_005.jpg	100
1413.786	0.892	891.6	2back	Block3	2back/STIM_005.jpg	99
1417.856	0.828	827.7	2back	Block3	2back/STIM_006.jpg	99
1422.636	0.874	873.9	2back	Block3	2back/STIM_006.jpg	99
1427.453	0.699	699.0	2back	Block3	2back/STIM_006.jpg	99
1431.706	0.702	701.8	2back	Block3	2back/STIM_007.jpg	99
1434.992	0.972	971.8	2back	Block3	2back/STIM_007.jpg	100
1438.023	0.841	841.1	2back	Block3	2back/STIM_007.jpg	100
1442.212	0.741	741.0	2back	Block3	2back/STIM_008.jpg	100
1446.839	0.755	754.7	2back	Block3	2back/STIM_008.jpg	99
1451.578	0.522	521.9	2back	Block3	2back/STIM_008.jpg	100
1455.366	0.655	654.7	2back	Block3	2back/STIM_009.jpg	99
1459.254	0.602	601.9	2back	Block3	2back/STIM_009.jpg	99
1463.654	0.522	522.5	2back	Block3	2back/STIM_009.jpg	99
1467.244	0.736	736.0	2back	Block3	2back/STIM_010.jpg	100
1470.749	0.926	926.4	2back	Block3	2back/STIM_010.jpg	99
1475.221	0.738	737.9	2back	Block3	2back/STIM_010.jpg	99
1478.332	0.538	538.5	2back	Block3	2back/STIM_011.jpg	99
1481.691	0.472	472.2	2back	Block3	2back/STIM_011.jpg	99
1485.356	0.522	522.2	2back	Block3	2back/STIM_011.jpg	100
1488.542	0.76	760.0	2back	Block3	2back/STIM_012.jpg	99
1493.142	0.655	655.2	2back	Block3	2back/STIM_012.jpg	100
1497.597	0.696	695.7	2back	Block3	2back/STIM_012.jpg	99
1502.225	0.738	737.7	2back	Block3	2back/STIM_013.jpg	99
1506.253	0.776	776.1	2back	Block3	2back/STIM_013.jpg	100
1510.729	0.953	953.4	2back	Block3	2back/STIM_013.jpg	99
1514.683	0.93	930.2	2back	Block3	2back/STIM_014.jpg	100
1518.897	0.482	482.4	2back	Block3	2back/STIM_014.jpg	100
1521.589	0.713	713.4	2back	Block3	2back/STIM_014.jpg	99
1525.576	0.995	995.3	2back	Block3	2back/STIM_015.jpg	100
1528.956	0.542	542.1	2back	Block3	2back/STIM_015.jpg	99
1532.801	0.958	957.5	2back	Block3	2back/STIM_015.jpg	100
1537.24	0.819	818.7	2back	Block3	2back/STIM_016.jpg	99
1540.615	0.936	935.9	2back	Block3	2back/STIM_016.jpg	99
1543.609	0.831	831.4	2back	Block3	2back/STIM_016.jpg	99
1547.352	0.714	714.2	2back	Block3	2back/STIM_017.jpg	99
1550.989	0.458	457.6	2back	Block3	2back/STIM_017.jpg	99
1553.64	0.75	750.5	2back	Block3	2back/STIM_017.jpg	99
1558.196	0.485	485.0	2back	Block3	2back/STIM_018.jpg	99
1561.431	0.779	779.3	2back	Block3	2back/STIM_018.jpg	100
1564.292	0.68	679.9	2back	Block3	2back/STIM_018.jpg	100
1567.132	0.752	752.5	2back	Block3	2back/STIM_019.jpg	99
1571.484	0.904	904.4	2back	Block3	2back/STIM_019.jpg	100
1575.597	0.714	713.7	2back	Block3	2back/STIM_019.jpg	99
1578.793	0.958	957.5	2back	Block3	2back/STIM_020.jpg	100
1583.693	0.872	872.5	2back	Block3	2back/STIM_020.jpg	100
1587.03	0.896	895.6	2back	Block3	2back/STIM_020.jpg	99
1590.728	0.938	938.0	2back	Block3	2back/STIM_021.jpg	100
1594.379	0.639	638.7	2back	Block3	2back/STIM_021.jpg	99
1598.725	0.804	804.3	2back	Block3	2back/STIM_021.jpg	100
1603.306	0.494	493.7	2back	Block3	2back/STIM_022.jpg	99
1607.185	0.649	649.3	2back	Block3	2back/STIM_022.jpg	99
1610.95	0.549	548.7	2back	Block3	2back/STIM_022.jpg	100
1614.152	0.889	888.9	2back	Block3	2back/STIM_023.jpg	100
1617.583	0.773	773.1	2back	Block3	2back/STIM_023.jpg	99
1620.628	0.57	570.1	2back	Block3	2back/STIM_023.jpg	99
1623.579	0.537	536.6	2back	Block3	2back/STIM_024.jpg	100
1627.196	0.938	938.5	2back	Block3	2back/STIM_024.jpg	99
1631.676	0.741	740.7	2back	Block3	2back/STIM_024.jpg	100
1635.824	0.66	660.4	2back	Block3	2back/STIM_025.jpg	99
1640.296	0.504	503.7	2back	Block3	2back/STIM_025.jpg	100
1644.488	0.694	693.7	2back	Block3	2back/STIM_025.jpg	100
1647.34	0.856	856.1	2back	Block3	2back/STIM_026.jpg	100
1650.305	0.582	581.7	2back	Block3	2back/STIM_026.jpg	99
1654.705	0.56	560.4	2back	Block3	2back/STIM_026.jpg	99
1657.778	0.672	671.5	2back	Block3	2back/STIM_027.jpg	100
1662.12	0.646	646.2	2back	Block3	2back/STIM_027.jpg	99
1666.382	0.68	680.0	2back	Block3	2back/STIM_027.jpg	100
1669.662	0.79	789.9	2back	Block3	2back/STIM_028.jpg	99
1672.591	0.825	825.1	2back	Block3	2back/STIM_028.jpg	100
1676.06	0.441	440.7	2back	Block3	2back/STIM_028.jpg	99
1679.492	0.51	509.8	2back	Block3	2back/STIM_029.jpg	99
1683.935	0.748	748.0	2back	Block3	2back/STIM_029.jpg	100
1688.206	0.928	928.0	2back	Block3	2back/STIM_029.jpg	100
1692.015	0.911	911.3	2back	Block3	2back/STIM_030.jpg	99
1695.876	0.647	647.3	2back	Block3	2back/STIM_030.jpg	99
1699.454	0.881	880.9	2back	Block3	2back/STIM_030.jpg	100
1702.8	0.712	712.1	2back	Block3	2back/STIM_031.jpg	100
1705.538	0.519	519.0	2back	Block3	2back/STIM_031.jpg	100
1709.781	0.684	684.4	2back	Block3	2back/STIM_031.jpg	99
1712.531	0.983	983.1	2back	Block3	2back/STIM_032.jpg	100
1716.755	0.705	705.1	2back	Block3	2back/STIM_032.jpg	99
1720.044	0.902	902.5	2back	Block3	2back/STIM_032.jpg	99
1723.514	0.674	674.1	2back	Block3	2back/STIM_033.jpg	99
1726.977	0.637	637.4	2back	Block3	2back/STIM_033.jpg	99
1731.309	0.744	744.0	2back	Block3	2back/STIM_033.jpg	100
1734.896	0.802	801.7	2back	Block3	2back/STIM_034.jpg	99
1738.346	0.789	789.2	2back	Block3	2back/STIM_034.jpg	99
1742.384	0.898	897.9	2back	Block3	2back/STIM_034.jpg	99
1746.62	0.948	948.5	2back	Block3	2back/STIM_035.jpg	99
1751.223	0.672	671.7	2back	Block3	2back/STIM_035.jpg	99
1755.439	0.934	934.4	2back	Block3	2back/STIM_035.jpg	100
1760.179	0.814	814.4	2back	Block3	2back/STIM_036.jpg	99
1763.633	0.754	754.0	2back	Block3	2back/STIM_036.jpg	100
1766.493	0.617	616.6	2back	Block3	2back/STIM_036.jpg	99
1770.676	0.483	482.7	2back	Block3	2back/STIM_037.jpg	100
1774.912	0.994	994.0	2back	Block3	2back/STIM_037.jpg	99
1778.082	0.59	589.5	2back	Block3	2back/STIM_037.jpg	99
1781.792	0.764	763.6	2back	Block3	2back/STIM_038.jpg	99
1785.7	0.791	790.6	2back	Block3	2back/STIM_038.jpg	100
1789.373	0.676	675.8	2back	Block3	2back/STIM_038.jpg	100
1793.752	0.687	687.4	2back	Block3	2back/STIM_039.jpg	99
1798.259	0.812	812.2	2back	Block3	2back/STIM_039.jpg	100
1802.16	0.676	676.0	2back	Block3	2back/STIM_039.jpg	100
1805.684	0.756	756.3	0back	Block3	0back/STIM_000.jpg	100
1809.131	0.47	470.4	0back	Block3	0back/STIM_000.jpg	99
1812.913	0.698	698.3	0back	Block3	0back/STIM_000.jpg	99
1816.348	0.583	583.1	0back	Block3	0back/STIM_001.jpg	100
1819.536	0.613	612.6	0back	Block3	0back/STIM_001.jpg	100
1822.449	0.652	651.5	0back	Block3	0back/STIM_001.jpg	99
1826.436	0.608	607.7	0back	Block3	0back/STIM_002.jpg	99
1829.836	0.751	750.8	0back	Block3	0back/STIM_002.jpg	100
1833.713	0.683	683.2	0back	Block3	0back/STIM_002.jpg	99
1838.062	0.58	579.5	0back	Block3	0back/STIM_003.jpg	100
1842.183	0.466	465.6	0back	Block3	0back/STIM_003.jpg	100
1846.378	0.435	434.9	0back	Block3	0back/STIM_003.jpg	100
1850.735	0.557	556.6	0back	Block3	0back/STIM_004.jpg	100
1853.946	0.43	430.2	0back	Block3	0back/STIM_004.jpg	100
1857.255	0.554	553.8	0back	Block3	0back/STIM_004.jpg	100
1860.848	0.658	657.9	0back	Block3	0back/STIM_005.jpg	100
1865.036	0.472	472.4	0back	Block3	0back/STIM_005.jpg	99
1868.27	0.683	683.1	0back	Block3	0back/STIM_005.jpg	99
1871.3	0.738	737.5	0back	Block3	0back/STIM_006.jpg	99
1875.636	0.45	450.2	0back	Block3	0back/STIM_006.jpg	99
1878.303	0.422	422.0	0back	Block3	0back/STIM_006.jpg	100
1881.821	0.444	443.5	0back	Block3	0back/STIM_007.jpg	99
1885.933	0.513	512.7	0back	Block3	0back/STIM_007.jpg	100
1890.14	0.47	470.2	0back	Block3	0back/STIM_007.jpg	99
1893.93	0.717	717.1	0back	Block3	0back/STIM_008.jpg	100
1897.867	0.646	645.5	0back	Block3	0back/STIM_008.jpg	99
1900.62	0.702	702.2	0back	Block3	0back/STIM_008.jpg	100
1903.676	0.611	611.0	0back	Block3	0back/STIM_009.jpg	99
1906.303	0.436	436.2	0back	Block3	0back/STIM_009.jpg	100
1910.021	0.685	685.3	0back	Block3	0back/STIM_009.jpg	99
1912.816	0.727	726.9	0back	Block3	0back/STIM_010.jpg	99
1916.221	0.5	499.7	0back	Block3	0back/STIM_010.jpg	99
1918.919	0.691	691.1	0back	Block3	0back/STIM_010.jpg	100
1922.024	0.707	706.9	0back	Block3	0back/STIM_011.jpg	100
1925.402	0.42	419.9	0back	Block3	0back/STIM_011.jpg	99
1928.481	0.699	698.8	0back	Block3	0back/STIM_011.jpg	99
1932.869	0.792	791.7	0back	Block3	0back/STIM_012.jpg	100
1935.956	0.596	595.9	0back	Block3	0back/STIM_012.jpg	99
1940.536	0.705	705.1	0back	Block3	0back/STIM_012.jpg	99
1943.763	0.722	722.1	0back	Block3	0back/STIM_013.jpg	100
1946.822	0.607	607.4	0back	Block3	0back/STIM_013.jpg	100
1949.693	0.623	622.7	0back	Block3	0back/STIM_013.jpg	100
1953.729	0.45	450.3	0back	Block3	0back/STIM_014.jpg	99
1957.325	0.423	422.8	0back	Block3	0back/STIM_014.jpg	99
1960.304	0.501	501.2	0back	Block3	0back/STIM_014.jpg	99
1964.134	0.611	610.9	0back	Block3	0back/STIM_015.jpg	99
1968.48	0.584	583.6	0back	Block3	0back/STIM_015.jpg	99
1971.922	0.558	557.5	0back	Block3	0back/STIM_015.jpg	100
1976.412	0.436	436.3	0back	Block3	0back/STIM_016.jpg	99
1980.585	0.707	707.4	0back	Block3	0back/STIM_016.jpg	99
1983.339	0.528	528.1	0back	Block3	0back/STIM_016.jpg	100
1987.389	0.725	725.3	0back	Block3	0back/STIM_017.jpg	99
1991.059	0.624	624.2	0back	Block3	0back/STIM_017.jpg	99
1994.64	0.682	681.7	0back	Block3	0back/STIM_017.jpg	100
1998.498	0.814	814.1	0back	Block3	0back/STIM_018.jpg	100
2001.515	0.68	679.5	0back	Block3	0back/STIM_018.jpg	100
2005.118	0.72	720.1	0back	Block3	0back/STIM_018.jpg	100
2008.267	0.577	576.7	0back	Block3	0back/STIM_019.jpg	100
2010.918	0.432	431.8	0back	Block3	0back/STIM_019.jpg	99
2015.3	0.435	434.9	0back	Block3	0back/STIM_019.jpg	99
2018.793	0.895	894.6	2back	Block4	2back/STIM_000.jpg	99
2022.355	0.711	710.6	2back	Block4	2back/STIM_000.jpg	99
2025.443	0.954	954.4	2back	Block4	2back/STIM_000.jpg	99
2029.735	0.978	978.3	2back	Block4	2back/STIM_001.jpg	100
2032.763	0.541	541.0	2back	Block4	2back/STIM_001.jpg	99
2035.378	0.971	971.3	2back	Block4	2back/STIM_001.jpg	99
2038.69	0.92	920.5	2back	Block4	2back/STIM_002.jpg	100
2043.473	0.986	985.7	2back	Block4	2back/STIM_002.jpg	100
2048.334	0.616	615.6	2back	Block4	2back/STIM_002.jpg	100
2052.761	0.555	554.8	2back	Block4	2back/STIM_003.jpg	100
2055.339	0.947	946.7	2back	Block4	2back/STIM_003.jpg	100
2058.768	0.71	709.8	2back	Block4	2back/STIM_003.jpg	100
2061.733	0.969	969.0	2back	Block4	2back/STIM_004.jpg	100
2065.55	0.838	837.7	2back	Block4	2back/STIM_004.jpg	100
2069.793	0.984	983.7	2back	Block4	2back/STIM_004.jpg	100
2073.491	0.95	949.8	2back	Block4	2back/STIM_005.jpg	99
2076.982	0.444	443.8	2back	Block4	2back/STIM_005.jpg	99
2080.42	0.688	688.1	2back	Block4	2back/STIM_005.jpg	100
2083.394	0.433	432.6	2back	Block4	2back/STIM_006.jpg	99
2086.41	0.591	590.7	2back	Block4	2back/STIM_006.jpg	100
2089.426	0.738	738.2	2back	Block4	2back/STIM_006.jpg	99
2092.67	0.67	669.5	2back	Block4	2back/STIM_007.jpg	100
2096.277	0.844	843.6	2back	Block4	2back/STIM_007.jpg	99
2100.025	0.494	493.6	2back	Block4	2back/STIM_007.jpg	100
2104.041	0.723	722.7	2back	Block4	2back/STIM_008.jpg	100
2108.523	0.731	730.7	2back	Block4	2back/STIM_008.jpg	100
2112.219	0.626	625.7	2back	Block4	2back/STIM_008.jpg	100
2115.616	0.694	694.3	2back	Block4	2back/STIM_009.jpg	100
2120.172	0.883	883.4	2back	Block4	2back/STIM_009.jpg	99
2124.109	0.716	715.6	2back	Block4	2back/STIM_009.jpg	100
2128.727	0.896	895.9	2back	Block4	2back/STIM_010.jpg	99
2132.652	0.846	846.5	2back	Block4	2back/STIM_010.jpg	100
2136.878	0.762	761.6	2back	Block4	2back/STIM_010.jpg	100
2141.029	0.692	691.6	2back	Block4	2back/STIM_011.jpg	99
2144.235	0.721	720.7	2back	Block4	2back/STIM_011.jpg	99
2147.629	0.558	558.0	2back	Block4	2back/STIM_011.jpg	99
2150.445	0.645	645.0	2back	Block4	2back/STIM_012.jpg	100
2154.623	0.599	598.9	2back	Block4	2back/STIM_012.jpg	99
2158.663	0.809	809.3	2back	Block4	2back/STIM_012.jpg	99
2161.685	0.794	793.5	2back	Block4	2back/STIM_013.jpg	99
2165.826	0.768	768.5	2back	Block4	2back/STIM_013.jpg	100
2168.611	0.994	994.4	2back	Block4	2back/STIM_013.jpg	100
2171.999	0.795	794.7	2back	Block4	2back/STIM_014.jpg	100
2176.448	0.857	857.1	2back	Block4	2back/STIM_014.jpg	100
2179.523	0.648	647.7	2back	Block4	2back/STIM_014.jpg	100
2183.148	0.537	536.6	2back	Block4	2back/STIM_015.jpg	99
2187.016	0.487	487.0	2back	Block4	2back/STIM_015.jpg	100
2190.045	0.937	937.4	2back	Block4	2back/STIM_015.jpg	100
2194.118	0.462	461.7	2back	Block4	2back/STIM_016.jpg	99
2197.618	0.52	519.7	2back	Block4	2back/STIM_016.jpg	99
2201.054	0.942	941.9	2back	Block4	2back/STIM_016.jpg	100
2205.788	0.544	543.5	2back	Block4	2back/STIM_017.jpg	100
2208.844	0.722	722.5	2back	Block4	2back/STIM_017.jpg	100
2213.182	0.634	633.5	2back	Block4	2back/STIM_017.jpg	99
2216.758	0.808	808.5	2back	Block4	2back/STIM_018.jpg	100
2220.528	0.802	802.2	2back	Block4	2back/STIM_018.jpg	100
2223.809	0.629	628.9	2back	Block4	2back/STIM_018.jpg	100
2227.502	0.499	499.3	2back	Block4	2back/STIM_019.jpg	99
2231.098	0.944	943.5	2back	Block4	2back/STIM_019.jpg	100
2235.022	0.675	675.2	2back	Block4	2back/STIM_019.jpg	99
2239.044	0.823	823.1	2back	Block4	2back/STIM_020.jpg	99
2242.306	0.538	537.9	2back	Block4	2back/STIM_020.jpg	100
2246.209	0.793	792.6	2back	Block4	2back/STIM_020.jpg	100
2250.477	0.877	876.7	2back	Block4	2back/STIM_021.jpg	100
2255.055	0.958	958.4	2back	Block4	2back/STIM_021.jpg	100
2259.183	0.561	561.2	2back	Block4	2back/STIM_021.jpg	99
2262.939	0.739	739.2	2back	Block4	2back/STIM_022.jpg	99
2267.454	0.758	757.9	2back	Block4	2back/STIM_022.jpg	100
2271.569	0.662	661.9	2back	Block4	2back/STIM_022.jpg	99
2274.747	0.846	845.6	2back	Block4	2back/STIM_023.jpg	99
2279.249	0.862	861.8	2back	Block4	2back/STIM_023.jpg	99
2283.477	0.635	635.2	2back	Block4	2back/STIM_023.jpg	100
2286.463	0.794	793.7	2back	Block4	2back/STIM_024.jpg	100
2290.478	0.761	760.9	2back	Block4	2back/STIM_024.jpg	99
2295.146	0.789	788.9	2back	Block4	2back/STIM_024.jpg	99
2298.808	0.933	933.3	2back	Block4	2back/STIM_025.jpg	99
2303.044	0.925	924.7	2back	Block4	2back/STIM_025.jpg	99
2307.823	0.626	625.9	2back	Block4	2back/STIM_025.jpg	99
2312.039	0.593	593.2	2back	Block4	2back/STIM_026.jpg	100
2315.439	0.557	556.7	2back	Block4	2back/STIM_026.jpg	100
2318.823	0.711	710.9	2back	Block4	2back/STIM_026.jpg	99
2322.107	0.745	744.6	2back	Block4	2back/STIM_027.jpg	100
2326.206	0.882	881.6	2back	Block4	2back/STIM_027.jpg	100
2330.92	0.658	657.7	2back	Block4	2back/STIM_027.jpg	100
2334.631	0.58	580.5	2back	Block4	2back/STIM_028.jpg	99
2337.842	0.844	844.3	2back	Block4	2back/STIM_028.jpg	99
2342.387	0.67	670.4	2back	Block4	2back/STIM_028.jpg	99
2345.218	0.594	594.5	2back	Block4	2back/STIM_029.jpg	99
2348.323	0.612	612.2	2back	Block4	2back/STIM_029.jpg	99
2350.976	0.587	587.3	2back	Block4	2back/STIM_029.jpg	99
2354.523	0.818	817.8	2back	Block4	2back/STIM_030.jpg	99
2359.054	0.481	480.7	2back	Block4	2back/STIM_030.jpg	99
2362.153	0.789	788.8	2back	Block4	2back/STIM_030.jpg	100
2365.239	0.946	945.5	2back	Block4	2back/STIM_031.jpg	99
2369.3	0.745	744.6	2back	Block4	2back/STIM_031.jpg	99
2372.713	0.802	801.7	2back	Block4	2back/STIM_031.jpg	99
2376.517	0.763	762.6	2back	Block4	2back/STIM_032.jpg	99
2380.85	0.61	610.2	2back	Block4	2back/STIM_032.jpg	100
2384.841	0.556	556.0	2back	Block4	2back/STIM_032.jpg	99
2388.634	0.684	683.5	2back	Block4	2back/STIM_033.jpg	99
2393.235	0.866	866.4	2back	Block4	2back/STIM_033.jpg	100
2397.633	0.851	850.7	2back	Block4	2back/STIM_033.jpg	99
2400.54	0.641	640.8	2back	Block4	2back/STIM_034.jpg	100
2404.36	0.74	739.6	2back	Block4	2back/STIM_034.jpg	99
2407.693	0.496	495.6	2back	Block4	2back/STIM_034.jpg	99
2411.171	0.664	664.4	2back	Block4	2back/STIM_035.jpg	100
2414.328	0.9	900.0	2back	Block4	2back/STIM_035.jpg	99
2418.544	0.648	647.9	2back	Block4	2back/STIM_035.jpg	99
2423.049	0.723	723.3	2back	Block4	2back/STIM_036.jpg	100
2425.852	0.679	679.0	2back	Block4	2back/STIM_036.jpg	99
2429.931	0.452	452.3	2back	Block4	2back/STIM_036.jpg	100
2433.816	0.713	712.7	2back	Block4	2back/STIM_037.jpg	99
2437.398	0.719	718.9	2back	Block4	2back/STIM_037.jpg	99
2441.72	0.818	818.4	2back	Block4	2back/STIM_037.jpg	100
2446.256	0.438	437.5	2back	Block4	2back/STIM_038.jpg	100
2450.624	0.471	470.6	2back	Block4	2back/STIM_038.jpg	99
2454.97	0.653	653.3	2back	Block4	2back/STIM_038.jpg	99
2457.761	0.507	506.6	2back	Block4	2back/STIM_039.jpg	100
2462.253	0.776	776.3	2back	Block4	2back/STIM_039.jpg	99
2465.321	0.624	623.6	2back	Block4	2back/STIM_039.jpg	100
2469.499	0.668	668.5	0back	Block4	0back/STIM_000.jpg	99
2473.681	0.597	596.9	0back	Block4	0back/STIM_000.jpg	100
2476.995	0.61	610.1	0back	Block4	0back/STIM_000.jpg	99
2479.656	0.691	691.3	0back	Block4	0back/STIM_001.jpg	99
2483.893	0.694	694.1	0back	Block4	0back/STIM_001.jpg	99
2486.62	0.788	788.5	0back	Block4	0back/STIM_001.jpg	100
2489.596	0.436	436.1	0back	Block4	0back/STIM_002.jpg	100
2492.101	0.568	568.5	0back	Block4	0back/STIM_002.jpg	100
2495.128	0.554	553.5	0back	Block4	0back/STIM_002.jpg	100
2498.186	0.422	422.5	0back	Block4	0back/STIM_003.jpg	100
2501.162	0.624	624.2	0back	Block4	0back/STIM_003.jpg	99
2505.603	0.503	503.3	0back	Block4	0back/STIM_003.jpg	99
2509.927	0.775	774.7	0back	Block4	0back/STIM_004.jpg	99
2513.189	0.766	765.7	0back	Block4	0back/STIM_004.jpg	100
2516.383	0.456	456.1	0back	Block4	0back/STIM_004.jpg	100
2519.324	0.516	515.7	0back	Block4	0back/STIM_005.jpg	99
2523.626	0.793	793.2	0back	Block4	0back/STIM_005.jpg	100
2527.936	0.738	737.7	0back	Block4	0back/STIM_005.jpg	99
2531.356	0.534	534.1	0back	Block4	0back/STIM_006.jpg	100
2534.722	0.815	815.1	0back	Block4	0back/STIM_006.jpg	100
2538.658	0.489	489.2	0back	Block4	0back/STIM_006.jpg	100
2541.301	0.595	594.8	0back	Block4	0back/STIM_007.jpg	100
2544.12	0.479	479.1	0back	Block4	0back/STIM_007.jpg	99
2547.225	0.541	541.3	0back	Block4	0back/STIM_007.jpg	100
2550.334	0.65	650.3	0back	Block4	0back/STIM_008.jpg	99
2553.322	0.601	600.7	0back	Block4	0back/STIM_008.jpg	100
2557.389	0.771	771.3	0back	Block4	0back/STIM_008.jpg	100
2561.252	0.418	417.6	0back	Block4	0back/STIM_009.jpg	99
2564.203	0.512	512.1	0back	Block4	0back/STIM_009.jpg	99
2568.684	0.498	498.4	0back	Block4	0back/STIM_009.jpg	100
2571.333	0.592	592.2	0back	Block4	0back/STIM_010.jpg	99
2574.408	0.782	781.5	0back	Block4	0back/STIM_010.jpg	99
2578.578	0.643	642.7	0back	Block4	0back/STIM_010.jpg	99
2582.358	0.686	685.5	0back	Block4	0back/STIM_011.jpg	100
2586.828	0.801	801.2	0back	Block4	0back/STIM_011.jpg	99
2591.292	0.471	471.2	0back	Block4	0back/STIM_011.jpg	100
2594.864	0.745	744.9	0back	Block4	0back/STIM_012.jpg	99
2598.093	0.629	629.0	0back	Block4	0back/STIM_012.jpg	99
2601.451	0.551	550.9	0back	Block4	0back/STIM_012.jpg	100
2605.964	0.51	510.4	0back	Block4	0back/STIM_013.jpg	99
2608.625	0.752	751.5	0back	Block4	0back/STIM_013.jpg	100
2611.791	0.546	546.1	0back	Block4	0back/STIM_013.jpg	100
2615.43	0.703	702.8	0back	Block4	0back/STIM_014.jpg	100
2619.308	0.472	472.5	0back	Block4	0back/STIM_014.jpg	100
2622.035	0.448	448.0	0back	Block4	0back/STIM_014.jpg	99
2626.333	0.679	679.1	0back	Block4	0back/STIM_015.jpg	99
2630.435	0.481	481.2	0back	Block4	0back/STIM_015.jpg	99
2634.862	0.455	455.1	0back	Block4	0back/STIM_015.jpg	99
2637.753	0.667	667.3	0back	Block4	0back/STIM_016.jpg	100
2641.848	0.654	654.1	0back	Block4	0back/STIM_016.jpg	99
2644.668	0.601	600.6	0back	Block4	0back/STIM_016.jpg	100
2649.136	0.493	493.0	0back	Block4	0back/STIM_017.jpg	100
2653.42	0.501	501.2	0back	Block4	0back/STIM_017.jpg	99
2656.317	0.512	512.5	0back	Block4	0back/STIM_017.jpg	100
2659.59	0.728	728.5	0back	Block4	0back/STIM_018.jpg	100
2662.979	0.482	482.3	0back	Block4	0back/STIM_018.jpg	99
2665.976	0.656	655.6	0back	Block4	0back/STIM_018.jpg	99
2669.816	0.658	658.4	0back	Block4	0back/STIM_019.jpg	100
2674.1	0.691	691.3	0back	Block4	0back/STIM_019.jpg	99
2678.527	0.597	596.7	0back	Block4	0back/STIM_019.jpg	100
