onset	duration	accuracy_binary	trial_type	learning_stage	stimulus
0.0	1.086	1	2back	Block1	2back/STIM_000.jpg
5.053	0.659	1	2back	Block1	2back/STIM_000.jpg
8.546	1.274	1	2back	Block1	2back/STIM_000.jpg
12.51	1.162	1	2back	Block1	2back/STIM_001.jpg
17.3	0.662	0	2back	Block1	2back/STIM_001.jpg
20.971	0.691	1	2back	Block1	2back/STIM_001.jpg
25.251	0.677	1	2back	Block1	2back/STIM_002.jpg
29.823	1.33	1	2back	Block1	2back/STIM_002.jpg
34.763	0.961	1	2back	Block1	2back/STIM_002.jpg
37.809	1.211	1	2back	Block1	2back/STIM_003.jpg
41.179	0.959	0	2back	Block1	2back/STIM_003.jpg
44.378	0.782	1	2back	Block1	2back/STIM_003.jpg
47.994	0.881	1	2back	Block1	2back/STIM_004.jpg
51.647	1.251	1	2back	Block1	2back/STIM_004.jpg
55.82	1.101	1	2back	Block1	2back/STIM_004.jpg
59.449	0.753	0	2back	Block1	2back/STIM_005.jpg
63.286	0.971	1	2back	Block1	2back/STIM_005.jpg
67.977	0.945	1	2back	Block1	2back/STIM_005.jpg
72.722	1.335	0	2back	Block1	2back/STIM_006.jpg
77.581	0.988	1	2back	Block1	2back/STIM_006.jpg
81.239	0.77	1	2back	Block1	2back/STIM_006.jpg
84.63	0.792	1	2back	Block1	2back/STIM_007.jpg
89.131	0.906	1	2back	Block1	2back/STIM_007.jpg
92.322	1.18	1	2back	Block1	2back/STIM_007.jpg
96.93	0.841	0	2back	Block1	2back/STIM_008.jpg
101.507	1.312	0	2back	Block1	2back/STIM_008.jpg
105.564	0.929	1	2back	Block1	2back/STIM_008.jpg
110.389	0.74	1	2back	Block1	2back/STIM_009.jpg
114.323	0.893	1	2back	Block1	2back/STIM_009.jpg
118.844	0.752	1	2back	Block1	2back/STIM_009.jpg
122.694	1.406	0	2back	Block1	2back/STIM_010.jpg
127.866	0.856	1	2back	Block1	2back/STIM_010.jpg
131.288	0.968	1	2back	Block1	2back/STIM_010.jpg
134.71	1.411	1	2back	Block1	2back/STIM_011.jpg
139.119	0.975	1	2back	Block1	2back/STIM_011.jpg
143.506	1.07	1	2back	Block1	2back/STIM_011.jpg
147.061	1.059	0	2back	Block1	2back/STIM_012.jpg
150.848	1.274	1	2back	Block1	2back/STIM_012.jpg
155.283	0.777	1	2back	Block1	2back/STIM_012.jpg
159.681	1.374	1	2back	Block1	2back/STIM_013.jpg
163.895	1.325	0	2back	Block1	2back/STIM_013.jpg
167.203	0.921	1	2back	Block1	2back/STIM_013.jpg
170.395	0.988	1	2back	Block1	2back/STIM_014.jpg
174.171	0.668	1	2back	Block1	2back/STIM_014.jpg
178.093	0.832	1	2back	Block1	2back/STIM_014.jpg
181.386	0.894	1	2back	Block1	2back/STIM_015.jpg
185.947	1.176	1	2back	Block1	2back/STIM_015.jpg
189.547	0.753	0	2back	Block1	2back/STIM_015.jpg
192.447	1.021	0	2back	Block1	2back/STIM_016.jpg
196.129	0.989	1	2back	Block1	2back/STIM_016.jpg
200.675	1.244	1	2back	Block1	2back/STIM_016.jpg
205.088	0.89	0	2back	Block1	2back/STIM_017.jpg
208.475	1.11	1	2back	Block1	2back/STIM_017.jpg
211.751	1.159	0	2back	Block1	2back/STIM_017.jpg
215.72	0.619	0	2back	Block1	2back/STIM_018.jpg
219.892	1.063	1	2back	Block1	2back/STIM_018.jpg
224.32	0.713	1	2back	Block1	2back/STIM_018.jpg
228.147	0.626	1	2back	Block1	2back/STIM_019.jpg
232.086	1.313	1	2back	Block1	2back/STIM_019.jpg
236.742	1.255	1	2back	Block1	2back/STIM_019.jpg
240.31	1.273	1	2back	Block1	2back/STIM_020.jpg
245.02	0.887	0	2back	Block1	2back/STIM_020.jpg
249.758	1.171	1	2back	Block1	2back/STIM_020.jpg
253.656	0.996	1	2back	Block1	2back/STIM_021.jpg
256.712	0.674	1	2back	Block1	2back/STIM_021.jpg
259.906	0.689	1	2back	Block1	2back/STIM_021.jpg
262.629	0.858	1	2back	Block1	2back/STIM_022.jpg
266.362	0.598	1	2back	Block1	2back/STIM_022.jpg
270.146	0.661	1	2back	Block1	2back/STIM_022.jpg
273.576	1.307	1	2back	Block1	2back/STIM_023.jpg
278.29	0.884	1	2back	Block1	2back/STIM_023.jpg
282.558	0.788	1	2back	Block1	2back/STIM_023.jpg
286.423	0.744	0	2back	Block1	2back/STIM_024.jpg
291.01	1.047	1	2back	Block1	2back/STIM_024.jpg
294.754	0.911	1	2back	Block1	2back/STIM_024.jpg
299.28	0.971	1	2back	Block1	2back/STIM_025.jpg
303.132	0.657	0	2back	Block1	2back/STIM_025.jpg
307.037	0.744	1	2back	Block1	2back/STIM_025.jpg
310.359	1.251	1	2back	Block1	2back/STIM_026.jpg
313.695	0.634	1	2back	Block1	2back/STIM_026.jpg
317.761	1.272	1	2back	Block1	2back/STIM_026.jpg
322.409	0.929	1	2back	Block1	2back/STIM_027.jpg
326.11	0.609	1	2back	Block1	2back/STIM_027.jpg
328.814	0.712	0	2back	Block1	2back/STIM_027.jpg
333.309	0.951	1	2back	Block1	2back/STIM_028.jpg
336.425	0.978	0	2back	Block1	2back/STIM_028.jpg
340.82	0.634	1	2back	Block1	2back/STIM_028.jpg
344.219	0.755	0	2back	Block1	2back/STIM_029.jpg
348.483	1.147	1	2back	Block1	2back/STIM_029.jpg
353.13	0.76	1	2back	Block1	2back/STIM_029.jpg
357.079	0.656	1	2back	Block1	2back/STIM_030.jpg
360.949	0.736	0	2back	Block1	2back/STIM_030.jpg
364.573	0.864	1	2back	Block1	2back/STIM_030.jpg
368.239	0.944	1	2back	Block1	2back/STIM_031.jpg
371.213	0.868	0	2back	Block1	2back/STIM_031.jpg
374.486	0.605	1	2back	Block1	2back/STIM_031.jpg
377.291	1.036	0	2back	Block1	2back/STIM_032.jpg
380.612	1.079	1	2back	Block1	2back/STIM_032.jpg
384.324	1.064	1	2back	Block1	2back/STIM_032.jpg
389.018	0.912	1	2back	Block1	2back/STIM_033.jpg
391.991	0.637	1	2back	Block1	2back/STIM_033.jpg
395.901	0.756	1	2back	Block1	2back/STIM_033.jpg
400.53	1.305	1	2back	Block1	2back/STIM_034.jpg
404.566	0.883	1	2back	Block1	2back/STIM_034.jpg
408.123	0.588	0	2back	Block1	2back/STIM_034.jpg
412.244	1.322	1	2back	Block1	2back/STIM_035.jpg
416.576	0.95	1	2back	Block1	2back/STIM_035.jpg
419.593	1.047	1	2back	Block1	2back/STIM_035.jpg
424.522	0.999	1	2back	Block1	2back/STIM_036.jpg
429.133	1.104	1	2back	Block1	2back/STIM_036.jpg
433.963	1.134	0	2back	Block1	2back/STIM_036.jpg
438.611	0.624	1	2back	Block1	2back/STIM_037.jpg
441.629	0.67	1	2back	Block1	2back/STIM_037.jpg
444.891	0.898	1	2back	Block1	2back/STIM_037.jpg
448.435	0.756	1	2back	Block1	2back/STIM_038.jpg
452.393	0.916	1	2back	Block1	2back/STIM_038.jpg
456.822	0.966	1	2back	Block1	2back/STIM_038.jpg
460.796	1.014	1	2back	Block1	2back/STIM_039.jpg
463.857	0.702	1	2back	Block1	2back/STIM_039.jpg
467.979	0.692	1	2back	Block1	2back/STIM_039.jpg
472.647	0.56	1	0back	Block1	0back/STIM_000.jpg
476.137	0.65	1	0back	Block1	0back/STIM_000.jpg
478.993	0.74	1	0back	Block1	0back/STIM_000.jpg
482.566	0.759	1	0back	Block1	0back/STIM_001.jpg
485.656	0.484	1	0back	Block1	0back/STIM_001.jpg
488.133	0.703	1	0back	Block1	0back/STIM_001.jpg
491.687	0.758	1	0back	Block1	0back/STIM_002.jpg
494.706	0.803	1	0back	Block1	0back/STIM_002.jpg
498.275	0.713	1	0back	Block1	0back/STIM_002.jpg
502.108	0.566	1	0back	Block1	0back/STIM_003.jpg
506.03	0.583	0	0back	Block1	0back/STIM_003.jpg
510.153	0.767	1	0back	Block1	0back/STIM_003.jpg
513.276	0.676	1	0back	Block1	0back/STIM_004.jpg
517.19	0.525	1	0back	Block1	0back/STIM_004.jpg
521.553	0.601	1	0back	Block1	0back/STIM_004.jpg
524.507	0.796	1	0back	Block1	0back/STIM_005.jpg
529.015	0.487	1	0back	Block1	0back/STIM_005.jpg
533.259	0.677	1	0back	Block1	0back/STIM_005.jpg
537.6	0.668	1	0back	Block1	0back/STIM_006.jpg
542.22	0.672	1	0back	Block1	0back/STIM_006.jpg
545.654	0.479	1	0back	Block1	0back/STIM_006.jpg
549.29	0.754	1	0back	Block1	0back/STIM_007.jpg
552.904	0.654	1	0back	Block1	0back/STIM_007.jpg
556.516	0.768	1	0back	Block1	0back/STIM_007.jpg
561.197	0.806	1	0back	Block1	0back/STIM_008.jpg
564.269	0.548	1	0back	Block1	0back/STIM_008.jpg
566.841	0.598	1	0back	Block1	0back/STIM_008.jpg
570.562	0.738	1	0back	Block1	0back/STIM_009.jpg
574.381	0.681	1	0back	Block1	0back/STIM_009.jpg
577.996	0.796	1	0back	Block1	0back/STIM_009.jpg
582.008	0.518	1	0back	Block1	0back/STIM_010.jpg
586.087	0.428	1	0back	Block1	0back/STIM_010.jpg
589.742	0.801	1	0back	Block1	0back/STIM_010.jpg
594.482	0.706	1	0back	Block1	0back/STIM_011.jpg
597.655	0.677	1	0back	Block1	0back/STIM_011.jpg
600.867	0.558	1	0back	Block1	0back/STIM_011.jpg
604.594	0.646	1	0back	Block1	0back/STIM_012.jpg
608.501	0.653	1	0back	Block1	0back/STIM_012.jpg
611.802	0.628	1	0back	Block1	0back/STIM_012.jpg
616.12	0.662	1	0back	Block1	0back/STIM_013.jpg
620.734	0.431	1	0back	Block1	0back/STIM_013.jpg
623.924	0.684	1	0back	Block1	0back/STIM_013.jpg
627.304	0.56	1	0back	Block1	0back/STIM_014.jpg
631.222	0.75	1	0back	Block1	0back/STIM_014.jpg
634.612	0.753	1	0back	Block1	0back/STIM_014.jpg
637.859	0.588	1	0back	Block1	0back/STIM_015.jpg
640.966	0.482	1	0back	Block1	0back/STIM_015.jpg
644.481	0.632	1	0back	Block1	0back/STIM_015.jpg
647.276	0.412	1	0back	Block1	0back/STIM_016.jpg
651.169	0.705	1	0back	Block1	0back/STIM_016.jpg
655.625	0.484	1	0back	Block1	0back/STIM_016.jpg
659.0	0.618	1	0back	Block1	0back/STIM_017.jpg
661.792	0.782	1	0back	Block1	0back/STIM_017.jpg
664.58	0.411	1	0back	Block1	0back/STIM_017.jpg
667.81	0.769	1	0back	Block1	0back/STIM_018.jpg
670.678	0.489	1	0back	Block1	0back/STIM_018.jpg
675.015	0.561	1	0back	Block1	0back/STIM_018.jpg
678.632	0.457	1	0back	Block1	0back/STIM_019.jpg
682.26	0.532	1	0back	Block1	0back/STIM_019.jpg
685.68	0.573	1	0back	Block1	0back/STIM_019.jpg
689.41	0.941	0	2back	Block2	2back/STIM_000.jpg
693.298	0.56	1	2back	Block2	2back/STIM_000.jpg
697.076	0.557	1	2back	Block2	2back/STIM_000.jpg
700.139	0.943	1	2back	Block2	2back/STIM_001.jpg
703.832	0.926	1	2back	Block2	2back/STIM_001.jpg
707.726	0.783	1	2back	Block2	2back/STIM_001.jpg
710.823	1.118	0	2back	Block2	2back/STIM_002.jpg
714.085	0.75	1	2back	Block2	2back/STIM_002.jpg
717.069	0.789	1	2back	Block2	2back/STIM_002.jpg
721.603	0.95	1	2back	Block2	2back/STIM_003.jpg
726.166	1.011	1	2back	Block2	2back/STIM_003.jpg
730.808	0.752	1	2back	Block2	2back/STIM_003.jpg
734.811	0.556	1	2back	Block2	2back/STIM_004.jpg
737.954	0.556	1	2back	Block2	2back/STIM_004.jpg
741.969	0.516	1	2back	Block2	2back/STIM_004.jpg
744.978	0.794	1	2back	Block2	2back/STIM_005.jpg
747.963	0.869	0	2back	Block2	2back/STIM_005.jpg
752.072	0.642	1	2back	Block2	2back/STIM_005.jpg
754.743	0.832	1	2back	Block2	2back/STIM_006.jpg
759.238	0.938	1	2back	Block2	2back/STIM_006.jpg
763.303	0.528	1	2back	Block2	2back/STIM_006.jpg
767.463	0.666	1	2back	Block2	2back/STIM_007.jpg
770.76	0.936	1	2back	Block2	2back/STIM_007.jpg
773.74	0.969	1	2back	Block2	2back/STIM_007.jpg
776.921	1.204	1	2back	Block2	2back/STIM_008.jpg
781.385	1.017	1	2back	Block2	2back/STIM_008.jpg
785.658	0.51	1	2back	Block2	2back/STIM_008.jpg
788.885	0.76	1	2back	Block2	2back/STIM_009.jpg
793.2	0.817	0	2back	Block2	2back/STIM_009.jpg
796.655	0.835	1	2back	Block2	2back/STIM_009.jpg
799.644	0.648	1	2back	Block2	2back/STIM_010.jpg
802.454	0.986	1	2back	Block2	2back/STIM_010.jpg
806.262	0.729	1	2back	Block2	2back/STIM_010.jpg
809.747	0.746	1	2back	Block2	2back/STIM_011.jpg
813.086	0.592	1	2back	Block2	2back/STIM_011.jpg
817.063	0.846	1	2back	Block2	2back/STIM_011.jpg
820.08	0.975	1	2back	Block2	2back/STIM_012.jpg
824.272	1.114	1	2back	Block2	2back/STIM_012.jpg
828.694	0.631	1	2back	Block2	2back/STIM_012.jpg
832.11	0.969	1	2back	Block2	2back/STIM_013.jpg
835.126	0.857	1	2back	Block2	2back/STIM_013.jpg
839.744	0.734	1	2back	Block2	2back/STIM_013.jpg
842.758	0.77	1	2back	Block2	2back/STIM_014.jpg
847.016	0.984	1	2back	Block2	2back/STIM_014.jpg
850.122	0.795	1	2back	Block2	2back/STIM_014.jpg
854.556	0.822	1	2back	Block2	2back/STIM_015.jpg
858.706	0.566	1	2back	Block2	2back/STIM_015.jpg
862.44	0.879	1	2back	Block2	2back/STIM_015.jpg
866.145	1.042	1	2back	Block2	2back/STIM_016.jpg
869.238	0.957	1	2back	Block2	2back/STIM_016.jpg
873.502	0.824	1	2back	Block2	2back/STIM_016.jpg
876.763	0.782	1	2back	Block2	2back/STIM_017.jpg
881.045	0.789	1	2back	Block2	2back/STIM_017.jpg
884.53	0.832	1	2back	Block2	2back/STIM_017.jpg
887.643	1.206	0	2back	Block2	2back/STIM_018.jpg
891.543	0.73	1	2back	Block2	2back/STIM_018.jpg
896.224	0.842	1	2back	Block2	2back/STIM_018.jpg
900.143	0.642	1	2back	Block2	2back/STIM_019.jpg
904.297	0.953	1	2back	Block2	2back/STIM_019.jpg
908.368	0.846	1	2back	Block2	2back/STIM_019.jpg
912.878	1.152	1	2back	Block2	2back/STIM_020.jpg
917.941	0.66	1	2back	Block2	2back/STIM_020.jpg
922.224	0.516	1	2back	Block2	2back/STIM_020.jpg
925.38	0.988	1	2back	Block2	2back/STIM_021.jpg
928.397	0.636	1	2back	Block2	2back/STIM_021.jpg
931.425	0.659	1	2back	Block2	2back/STIM_021.jpg
935.823	0.537	1	2back	Block2	2back/STIM_022.jpg
940.063	0.634	1	2back	Block2	2back/STIM_022.jpg
943.877	0.644	1	2back	Block2	2back/STIM_022.jpg
946.809	1.12	1	2back	Block2	2back/STIM_023.jpg
951.434	0.658	1	2back	Block2	2back/STIM_023.jpg
954.431	0.974	1	2back	Block2	2back/STIM_023.jpg
959.377	0.978	1	2back	Block2	2back/STIM_024.jpg
963.816	1.116	1	2back	Block2	2back/STIM_024.jpg
967.69	0.874	1	2back	Block2	2back/STIM_024.jpg
971.927	0.632	1	2back	Block2	2back/STIM_025.jpg
975.269	0.844	1	2back	Block2	2back/STIM_025.jpg
979.967	1.054	1	2back	Block2	2back/STIM_025.jpg
983.536	0.892	1	2back	Block2	2back/STIM_026.jpg
988.101	0.785	1	2back	Block2	2back/STIM_026.jpg
992.067	1.028	1	2back	Block2	2back/STIM_026.jpg
996.498	0.771	1	2back	Block2	2back/STIM_027.jpg
999.607	1.059	0	2back	Block2	2back/STIM_027.jpg
1002.748	0.516	1	2back	Block2	2back/STIM_027.jpg
1006.613	0.664	1	2back	Block2	2back/STIM_028.jpg
1010.657	0.722	1	2back	Block2	2back/STIM_028.jpg
1013.523	0.624	1	2back	Block2	2back/STIM_028.jpg
1017.677	0.765	1	2back	Block2	2back/STIM_029.jpg
1021.983	1.039	0	2back	Block2	2back/STIM_029.jpg
1025.422	0.485	1	2back	Block2	2back/STIM_029.jpg
1028.065	1.19	1	2back	Block2	2back/STIM_030.jpg
1033.229	0.592	1	2back	Block2	2back/STIM_030.jpg
1037.075	0.97	1	2back	Block2	2back/STIM_030.jpg
1040.919	0.906	1	2back	Block2	2back/STIM_031.jpg
1044.784	0.92	1	2back	Block2	2back/STIM_031.jpg
1048.998	0.814	1	2back	Block2	2back/STIM_031.jpg
1053.784	0.723	1	2back	Block2	2back/STIM_032.jpg
1056.786	0.703	1	2back	Block2	2back/STIM_032.jpg
1060.45	0.664	1	2back	Block2	2back/STIM_032.jpg
1063.158	0.897	1	2back	Block2	2back/STIM_033.jpg
1066.384	0.701	1	2back	Block2	2back/STIM_033.jpg
1069.608	0.568	1	2back	Block2	2back/STIM_033.jpg
1073.472	0.915	1	2back	Block2	2back/STIM_034.jpg
1077.071	0.571	0	2back	Block2	2back/STIM_034.jpg
1079.99	1.038	1	2back	Block2	2back/STIM_034.jpg
1083.461	1.027	1	2back	Block2	2back/STIM_035.jpg
1088.363	0.809	1	2back	Block2	2back/STIM_035.jpg
1091.945	0.969	1	2back	Block2	2back/STIM_035.jpg
1096.038	1.175	1	2back	Block2	2back/STIM_036.jpg
1099.359	0.716	1	2back	Block2	2back/STIM_036.jpg
1102.181	0.753	1	2back	Block2	2back/STIM_036.jpg
1105.079	0.679	1	2back	Block2	2back/STIM_037.jpg
1108.75	0.632	1	2back	Block2	2back/STIM_037.jpg
1112.427	1.012	1	2back	Block2	2back/STIM_037.jpg
1115.45	0.733	0	2back	Block2	2back/STIM_038.jpg
1118.823	0.712	0	2back	Block2	2back/STIM_038.jpg
1123.367	0.611	1	2back	Block2	2back/STIM_038.jpg
1127.181	0.708	1	2back	Block2	2back/STIM_039.jpg
1131.167	0.998	1	2back	Block2	2back/STIM_039.jpg
1134.767	0.465	1	2back	Block2	2back/STIM_039.jpg
1138.411	0.663	1	0back	Block2	0back/STIM_000.jpg
1142.226	0.789	1	0back	Block2	0back/STIM_000.jpg
1146.859	0.534	1	0back	Block2	0back/STIM_000.jpg
1151.377	0.806	1	0back	Block2	0back/STIM_001.jpg
1155.23	0.646	1	0back	Block2	0back/STIM_001.jpg
1158.051	0.418	1	0back	Block2	0back/STIM_001.jpg
1161.123	0.546	0	0back	Block2	0back/STIM_002.jpg
1165.173	0.677	1	0back	Block2	0back/STIM_002.jpg
1168.516	0.732	1	0back	Block2	0back/STIM_002.jpg
1171.504	0.584	1	0back	Block2	0back/STIM_003.jpg
1175.913	0.78	1	0back	Block2	0back/STIM_003.jpg
1179.033	0.471	0	0back	Block2	0back/STIM_003.jpg
1183.39	0.619	0	0back	Block2	0back/STIM_004.jpg
1186.041	0.446	1	0back	Block2	0back/STIM_004.jpg
1189.168	0.417	1	0back	Block2	0back/STIM_004.jpg
1192.313	0.57	1	0back	Block2	0back/STIM_005.jpg
1195.095	0.682	1	0back	Block2	0back/STIM_005.jpg
1198.313	0.466	1	0back	Block2	0back/STIM_005.jpg
1201.225	0.506	1	0back	Block2	0back/STIM_006.jpg
1205.064	0.701	1	0back	Block2	0back/STIM_006.jpg
1208.089	0.535	1	0back	Block2	0back/STIM_006.jpg
1211.886	0.656	0	0back	Block2	0back/STIM_007.jpg
1214.828	0.744	0	0back	Block2	0back/STIM_007.jpg
1217.792	0.696	1	0back	Block2	0back/STIM_007.jpg
1222.098	0.54	1	0back	Block2	0back/STIM_008.jpg
1225.674	0.711	1	0back	Block2	0back/STIM_008.jpg
1229.688	0.454	1	0back	Block2	0back/STIM_008.jpg
1232.654	0.44	1	0back	Block2	0back/STIM_009.jpg
1235.43	0.556	1	0back	Block2	0back/STIM_009.jpg
1239.067	0.666	1	0back	Block2	0back/STIM_009.jpg
1243.654	0.447	0	0back	Block2	0back/STIM_010.jpg
1246.43	0.76	1	0back	Block2	0back/STIM_010.jpg
1251.1	0.495	1	0back	Block2	0back/STIM_010.jpg
1254.016	0.416	1	0back	Block2	0back/STIM_011.jpg
1258.248	0.507	1	0back	Block2	0back/STIM_011.jpg
1261.773	0.782	1	0back	Block2	0back/STIM_011.jpg
1265.59	0.468	1	0back	Block2	0back/STIM_012.jpg
1269.705	0.455	1	0back	Block2	0back/STIM_012.jpg
1273.393	0.723	1	0back	Block2	0back/STIM_012.jpg
1278.019	0.545	1	0back	Block2	0back/STIM_013.jpg
1281.83	0.747	1	0back	Block2	0back/STIM_013.jpg
1286.261	0.505	1	0back	Block2	0back/STIM_013.jpg
1289.648	0.779	1	0back	Block2	0back/STIM_014.jpg
1293.305	0.516	1	0back	Block2	0back/STIM_014.jpg
1296.092	0.577	1	0back	Block2	0back/STIM_014.jpg
1299.515	0.639	1	0back	Block2	0back/STIM_015.jpg
1302.409	0.558	1	0back	Block2	0back/STIM_015.jpg
1305.237	0.555	1	0back	Block2	0back/STIM_015.jpg
1308.341	0.56	1	0back	Block2	0back/STIM_016.jpg
1312.157	0.489	0	0back	Block2	0back/STIM_016.jpg
1316.171	0.681	1	0back	Block2	0back/STIM_016.jpg
1320.438	0.716	1	0back	Block2	0back/STIM_017.jpg
1324.74	0.408	1	0back	Block2	0back/STIM_017.jpg
1327.439	0.671	1	0back	Block2	0back/STIM_017.jpg
1330.338	0.604	1	0back	Block2	0back/STIM_018.jpg
1333.444	0.794	1	0back	Block2	0back/STIM_018.jpg
1338.175	0.476	1	0back	Block2	0back/STIM_018.jpg
1340.652	0.567	1	0back	Block2	0back/STIM_019.jpg
1343.52	0.576	1	0back	Block2	0back/STIM_019.jpg
1347.287	0.445	1	0back	Block2	0back/STIM_019.jpg
1351.686	0.786	1	2back	Block3	2back/STIM_000.jpg
1355.577	0.578	1	2back	Block3	2back/STIM_000.jpg
1359.152	0.504	1	2back	Block3	2back/STIM_000.jpg
1362.153	0.619	1	2back	Block3	2back/STIM_001.jpg
1365.949	0.482	1	2back	Block3	2back/STIM_001.jpg
1368.568	0.701	1	2back	Block3	2back/STIM_001.jpg
1371.287	0.924	1	2back	Block3	2back/STIM_002.jpg
1375.653	0.794	1	2back	Block3	2back/STIM_002.jpg
1379.168	0.912	1	2back	Block3	2back/STIM_002.jpg
1383.162	0.921	1	2back	Block3	2back/STIM_003.jpg
1386.674	0.566	1	2back	Block3	2back/STIM_003.jpg
1390.359	0.826	1	2back	Block3	2back/STIM_003.jpg
1394.647	0.739	1	2back	Block3	2back/STIM_004.jpg
1398.518	0.846	1	2back	Block3	2back/STIM_004.jpg
1401.847	0.65	1	2back	Block3	2back/STIM_004.jpg
1405.773	0.432	0	2back	Block3	2back/STIM_005.jpg
1410.014	0.599	0	2back	Block3	2back/STIM_005.jpg
1413.786	0.892	1	2back	Block3	2back/STIM_005.jpg
1417.856	0.828	1	2back	Block3	2back/STIM_006.jpg
1422.636	0.874	1	2back	Block3	2back/STIM_006.jpg
1427.453	0.699	1	2back	Block3	2back/STIM_006.jpg
1431.706	0.702	1	2back	Block3	2back/STIM_007.jpg
1434.992	0.972	1	2back	Block3	2back/STIM_007.jpg
1438.023	0.841	1	2back	Block3	2back/STIM_007.jpg
1442.212	0.741	1	2back	Block3	2back/STIM_008.jpg
1446.839	0.755	0	2back	Block3	2back/STIM_008.jpg
1451.578	0.522	1	2back	Block3	2back/STIM_008.jpg
1455.366	0.655	1	2back	Block3	2back/STIM_009.jpg
1459.254	0.602	1	2back	Block3	2back/STIM_009.jpg
1463.654	0.522	1	2back	Block3	2back/STIM_009.jpg
1467.244	0.736	1	2back	Block3	2back/STIM_010.jpg
1470.749	0.926	1	2back	Block3	2back/STIM_010.jpg
1475.221	0.738	1	2back	Block3	2back/STIM_010.jpg
1478.332	0.538	1	2back	Block3	2back/STIM_011.jpg
1481.691	0.472	1	2back	Block3	2back/STIM_011.jpg
1485.356	0.522	1	2back	Block3	2back/STIM_011.jpg
1488.542	0.76	1	2back	Block3	2back/STIM_012.jpg
1493.142	0.655	1	2back	Block3	2back/STIM_012.jpg
1497.597	0.696	0	2back	Block3	2back/STIM_012.jpg
1502.225	0.738	1	2back	Block3	2back/STIM_013.jpg
1506.253	0.776	1	2back	Block3	2back/STIM_013.jpg
1510.729	0.953	1	2back	Block3	2back/STIM_013.jpg
1514.683	0.93	1	2back	Block3	2back/STIM_014.jpg
1518.897	0.482	1	2back	Block3	2back/STIM_014.jpg
1521.589	0.713	1	2back	Block3	2back/STIM_014.jpg
1525.576	0.995	1	2back	Block3	2back/STIM_015.jpg
1528.956	0.542	1	2back	Block3	2back/STIM_015.jpg
1532.801	0.958	1	2back	Block3	2back/STIM_015.jpg
1537.24	0.819	1	2back	Block3	2back/STIM_016.jpg
1540.615	0.936	1	2back	Block3	2back/STIM_016.jpg
1543.609	0.831	1	2back	Block3	2back/STIM_016.jpg
1547.352	0.714	1	2back	Block3	2back/STIM_017.jpg
1550.989	0.458	1	2back	Block3	2back/STIM_017.jpg
1553.64	0.75	1	2back	Block3	2back/STIM_017.jpg
1558.196	0.485	1	2back	Block3	2back/STIM_018.jpg
1561.431	0.779	1	2back	Block3	2back/STIM_018.jpg
1564.292	0.68	1	2back	Block3	2back/STIM_018.jpg
1567.132	0.752	1	2back	Block3	2back/STIM_019.jpg
1571.484	0.904	1	2back	Block3	2back/STIM_019.jpg
1575.597	0.714	1	2back	Block3	2back/STIM_019.jpg
1578.793	0.958	1	2back	Block3	2back/STIM_020.jpg
1583.693	0.872	1	2back	Block3	2back/STIM_020.jpg
1587.03	0.896	1	2back	Block3	2back/STIM_020.jpg
1590.728	0.938	1	2back	Block3	2back/STIM_021.jpg
1594.379	0.639	1	2back	Block3	2back/STIM_021.jpg
1598.725	0.804	1	2back	Block3	2back/STIM_021.jpg
1603.306	0.494	1	2back	Block3	2back/STIM_022.jpg
1607.185	0.649	1	2back	Block3	2back/STIM_022.jpg
1610.95	0.549	1	2back	Block3	2back/STIM_022.jpg
1614.152	0.889	1	2back	Block3	2back/STIM_023.jpg
1617.583	0.773	1	2back	Block3	2back/STIM_023.jpg
1620.628	0.57	1	2back	Block3	2back/STIM_023.jpg
1623.579	0.537	1	2back	Block3	2back/STIM_024.jpg
1627.196	0.938	1	2back	Block3	2back/STIM_024.jpg
1631.676	0.741	1	2back	Block3	2back/STIM_024.jpg
1635.824	0.66	0	2back	Block3	2back/STIM_025.jpg
1640.296	0.504	1	2back	Block3	2back/STIM_025.jpg
1644.488	0.694	1	2back	Block3	2back/STIM_025.jpg
1647.34	0.856	1	2back	Block3	2back/STIM_026.jpg
1650.305	0.582	1	2back	Block3	2back/STIM_026.jpg
1654.705	0.56	1	2back	Block3	2back/STIM_026.jpg
1657.778	0.672	1	2back	Block3	2back/STIM_027.jpg
1662.12	0.646	1	2back	Block3	2back/STIM_027.jpg
1666.382	0.68	1	2back	Block3	2back/STIM_027.jpg
1669.662	0.79	1	2back	Block3	2back/STIM_028.jpg
1672.591	0.825	1	2back	Block3	2back/STIM_028.jpg
1676.06	0.441	1	2back	Block3	2back/STIM_028.jpg
1679.492	0.51	1	2back	Block3	2back/STIM_029.jpg
1683.935	0.748	1	2back	Block3	2back/STIM_029.jpg
1688.206	0.928	1	2back	Block3	2back/STIM_029.jpg
1692.015	0.911	1	2back	Block3	2back/STIM_030.jpg
1695.876	0.647	1	2back	Block3	2back/STIM_030.jpg
1699.454	0.881	1	2back	Block3	2back/STIM_030.jpg
1702.8	0.712	1	2back	Block3	2back/STIM_031.jpg
1705.538	0.519	1	2back	Block3	2back/STIM_031.jpg
1709.781	0.684	1	2back	Block3	2back/STIM_031.jpg
1712.531	0.983	1	2back	Block3	2back/STIM_032.jpg
1716.755	0.705	1	2back	Block3	2back/STIM_032.jpg
1720.044	0.902	1	2back	Block3	2back/STIM_032.jpg
1723.514	0.674	1	2back	Block3	2back/STIM_033.jpg
1726.977	0.637	1	2back	Block3	2back/STIM_033.jpg
1731.309	0.744	1	2back	Block3	2back/STIM_033.jpg
1734.896	0.802	1	2back	Block3	2back/STIM_034.jpg
1738.346	0.789	1	2back	Block3	2back/STIM_034.jpg
1742.384	0.898	1	2back	Block3	2back/STIM_034.jpg
1746.62	0.948	1	2back	Block3	2back/STIM_035.jpg
1751.223	0.672	1	2back	Block3	2back/STIM_035.jpg
1755.439	0.934	0	2back	Block3	2back/STIM_035.jpg
1760.179	0.814	1	2back	Block3	2back/STIM_036.jpg
1763.633	0.754	1	2back	Block3	2back/STIM_036.jpg
1766.493	0.617	1	2back	Block3	2back/STIM_036.jpg
1770.676	0.483	1	2back	Block3	2back/STIM_037.jpg
1774.912	0.994	1	2back	Block3	2back/STIM_037.jpg
1778.082	0.59	1	2back	Block3	2back/STIM_037.jpg
1781.792	0.764	1	2back	Block3	2back/STIM_038.jpg
1785.7	0.791	1	2back	Block3	2back/STIM_038.jpg
1789.373	0.676	1	2back	Block3	2back/STIM_038.jpg
1793.752	0.687	1	2back	Block3	2back/STIM_039.jpg
1798.259	0.812	1	2back	Block3	2back/STIM_039.jpg
1802.16	0.676	1	2back	Block3	2back/STIM_039.jpg
1805.684	0.756	1	0back	Block3	0back/STIM_000.jpg
1809.131	0.47	1	0back	Block3	0back/STIM_000.jpg
1812.913	0.698	1	0back	Block3	0back/STIM_000.jpg
1816.348	0.583	1	0back	Block3	0back/STIM_001.jpg
1819.536	0.613	1	0back	Block3	0back/STIM_001.jpg
1822.449	0.652	1	0back	Block3	0back/STIM_001.jpg
1826.436	0.608	1	0back	Block3	0back/STIM_002.jpg
1829.836	0.751	1	0back	Block3	0back/STIM_002.jpg
1833.713	0.683	1	0back	Block3	0back/STIM_002.jpg
1838.062	0.58	1	0back	Block3	0back/STIM_003.jpg
1842.183	0.466	1	0back	Block3	0back/STIM_003.jpg
1846.378	0.435	1	0back	Block3	0back/STIM_003.jpg
1850.735	0.557	1	0back	Block3	0back/STIM_004.jpg
1853.946	0.43	1	0back	Block3	0back/STIM_004.jpg
1857.255	0.554	1	0back	Block3	0back/STIM_004.jpg
1860.848	0.658	1	0back	Block3	0back/STIM_005.jpg
1865.036	0.472	1	0back	Block3	0back/STIM_005.jpg
1868.27	0.683	1	0back	Block3	0back/STIM_005.jpg
1871.3	0.738	1	0back	Block3	0back/STIM_006.jpg
1875.636	0.45	1	0back	Block3	0back/STIM_006.jpg
1878.303	0.422	0	0back	Block3	0back/STIM_006.jpg
1881.821	0.444	1	0back	Block3	0back/STIM_007.jpg
1885.933	0.513	1	0back	Block3	0back/STIM_007.jpg
1890.14	0.47	1	0back	Block3	0back/STIM_007.jpg
1893.93	0.717	1	0back	Block3	0back/STIM_008.jpg
1897.867	0.646	1	0back	Block3	0back/STIM_008.jpg
1900.62	0.702	1	0back	Block3	0back/STIM_008.jpg
1903.676	0.611	1	0back	Block3	0back/STIM_009.jpg
1906.303	0.436	1	0back	Block3	0back/STIM_009.jpg
1910.021	0.685	1	0back	Block3	0back/STIM_009.jpg
1912.816	0.727	1	0back	Block3	0back/STIM_010.jpg
1916.221	0.5	1	0back	Block3	0back/STIM_010.jpg
1918.919	0.691	1	0back	Block3	0back/STIM_010.jpg
1922.024	0.707	1	0back	Block3	0back/STIM_011.jpg
1925.402	0.42	0	0back	Block3	0back/STIM_011.jpg
1928.481	0.699	1	0back	Block3	0back/STIM_011.jpg
1932.869	0.792	1	0back	Block3	0back/STIM_012.jpg
1935.956	0.596	1	0back	Block3	0back/STIM_012.jpg
1940.536	0.705	1	0back	Block3	0back/STIM_012.jpg
1943.763	0.722	1	0back	Block3	0back/STIM_013.jpg
1946.822	0.607	1	0back	Block3	0back/STIM_013.jpg
1949.693	0.623	1	0back	Block3	0back/STIM_013.jpg
1953.729	0.45	1	0back	Block3	0back/STIM_014.jpg
1957.325	0.423	1	0back	Block3	0back/STIM_014.jpg
1960.304	0.501	1	0back	Block3	0back/STIM_014.jpg
1964.134	0.611	1	0back	Block3	0back/STIM_015.jpg
1968.48	0.584	1	0back	Block3	0back/STIM_015.jpg
1971.922	0.558	1	0back	Block3	0back/STIM_015.jpg
1976.412	0.436	1	0back	Block3	0back/STIM_016.jpg
1980.585	0.707	1	0back	Block3	0back/STIM_016.jpg
1983.339	0.528	1	0back	Block3	0back/STIM_016.jpg
1987.389	0.725	1	0back	Block3	0back/STIM_017.jpg
1991.059	0.624	0	0back	Block3	0back/STIM_017.jpg
1994.64	0.682	1	0back	Block3	0back/STIM_017.jpg
1998.498	0.814	1	0back	Block3	0back/STIM_018.jpg
2001.515	0.68	1	0back	Block3	0back/STIM_018.jpg
2005.118	0.72	1	0back	Block3	0back/STIM_018.jpg
2008.267	0.577	1	0back	Block3	0back/STIM_019.jpg
2010.918	0.432	1	0back	Block3	0back/STIM_019.jpg
2015.3	0.435	1	0back	Block3	0back/STIM_019.jpg
2018.793	0.895	1	2back	Block4	2back/STIM_000.jpg
2022.355	0.711	1	2back	Block4	2back/STIM_000.jpg
2025.443	0.954	1	2back	Block4	2back/STIM_000.jpg
2029.735	0.978	1	2back	Block4	2back/STIM_001.jpg
2032.763	0.541	1	2back	Block4	2back/STIM_001.jpg
2035.378	0.971	1	2back	Block4	2back/STIM_001.jpg
2038.69	0.92	1	2back	Block4	2back/STIM_002.jpg
2043.473	0.986	1	2back	Block4	2back/STIM_002.jpg
2048.334	0.616	1	2back	Block4	2back/STIM_002.jpg
2052.761	0.555	1	2back	Block4	2back/STIM_003.jpg
2055.339	0.947	1	2back	Block4	2back/STIM_003.jpg
2058.768	0.71	1	2back	Block4	2back/STIM_003.jpg
2061.733	0.969	1	2back	Block4	2back/STIM_004.jpg
2065.55	0.838	1	2back	Block4	2back/STIM_004.jpg
2069.793	0.984	1	2back	Block4	2back/STIM_004.jpg
2073.491	0.95	1	2back	Block4	2back/STIM_005.jpg
2076.982	0.444	1	2back	Block4	2back/STIM_005.jpg
2080.42	0.688	1	2back	Block4	2back/STIM_005.jpg
2083.394	0.433	1	2back	Block4	2back/STIM_006.jpg
2086.41	0.591	1	2back	Block4	2back/STIM_006.jpg
2089.426	0.738	1	2back	Block4	2back/STIM_006.jpg
2092.67	0.67	1	2back	Block4	2back/STIM_007.jpg
2096.277	0.844	1	2back	Block4	2back/STIM_007.jpg
2100.025	0.494	1	2back	Block4	2back/STIM_007.jpg
2104.041	0.723	1	2back	Block4	2back/STIM_008.jpg
2108.523	0.731	1	2back	Block4	2back/STIM_008.jpg
2112.219	0.626	1	2back	Block4	2back/STIM_008.jpg
2115.616	0.694	1	2back	Block4	2back/STIM_009.jpg
2120.172	0.883	1	2back	Block4	2back/STIM_009.jpg
2124.109	0.716	1	2back	Block4	2back/STIM_009.jpg
2128.727	0.896	1	2back	Block4	2back/STIM_010.jpg
2132.652	0.846	1	2back	Block4	2back/STIM_010.jpg
2136.878	0.762	1	2back	Block4	2back/STIM_010.jpg
2141.029	0.692	1	2back	Block4	2back/STIM_011.jpg
2144.235	0.721	1	2back	Block4	2back/STIM_011.jpg
2147.629	0.558	1	2back	Block4	2back/STIM_011.jpg
2150.445	0.645	1	2back	Block4	2back/STIM_012.jpg
2154.623	0.599	1	2back	Block4	2back/STIM_012.jpg
2158.663	0.809	1	2back	Block4	2back/STIM_012.jpg
2161.685	0.794	1	2back	Block4	2back/STIM_013.jpg
2165.826	0.768	1	2back	Block4	2back/STIM_013.jpg
2168.611	0.994	1	2back	Block4	2back/STIM_013.jpg
2171.999	0.795	1	2back	Block4	2back/STIM_014.jpg
2176.448	0.857	1	2back	Block4	2back/STIM_014.jpg
2179.523	0.648	1	2back	Block4	2back/STIM_014.jpg
2183.148	0.537	1	2back	Block4	2back/STIM_015.jpg
2187.016	0.487	1	2back	Block4	2back/STIM_015.jpg
2190.045	0.937	1	2back	Block4	2back/STIM_015.jpg
2194.118	0.462	1	2back	Block4	2back/STIM_016.jpg
2197.618	0.52	1	2back	Block4	2back/STIM_016.jpg
2201.054	0.942	1	2back	Block4	2back/STIM_016.jpg
2205.788	0.544	1	2back	Block4	2back/STIM_017.jpg
2208.844	0.722	1	2back	Block4	2back/STIM_017.jpg
2213.182	0.634	1	2back	Block4	2back/STIM_017.jpg
2216.758	0.808	1	2back	Block4	2back/STIM_018.jpg
2220.528	0.802	1	2back	Block4	2back/STIM_018.jpg
2223.809	0.629	1	2back	Block4	2back/STIM_018.jpg
2227.502	0.499	1	2back	Block4	2back/STIM_019.jpg
2231.098	0.944	1	2back	Block4	2back/STIM_019.jpg
2235.022	0.675	1	2back	Block4	2back/STIM_019.jpg
2239.044	0.823	1	2back	Block4	2back/STIM_020.jpg
2242.306	0.538	1	2back	Block4	2back/STIM_020.jpg
2246.209	0.793	1	2back	Block4	2back/STIM_020.jpg
2250.477	0.877	1	2back	Block4	2back/STIM_021.jpg
2255.055	0.958	1	2back	Block4	2back/STIM_021.jpg
2259.183	0.561	1	2back	Block4	2back/STIM_021.jpg
2262.939	0.739	0	2back	Block4	2back/STIM_022.jpg
2267.454	0.758	1	2back	Block4	2back/STIM_022.jpg
2271.569	0.662	1	2back	Block4	2back/STIM_022.jpg
2274.747	0.846	1	2back	Block4	2back/STIM_023.jpg
2279.249	0.862	1	2back	Block4	2back/STIM_023.jpg
2283.477	0.635	1	2back	Block4	2back/STIM_023.jpg
2286.463	0.794	1	2back	Block4	2back/STIM_024.jpg
2290.478	0.761	1	2back	Block4	2back/STIM_024.jpg
2295.146	0.789	1	2back	Block4	2back/STIM_024.jpg
2298.808	0.933	1	2back	Block4	2back/STIM_025.jpg
2303.044	0.925	1	2back	Block4	2back/STIM_025.jpg
2307.823	0.626	1	2back	Block4	2back/STIM_025.jpg
2312.039	0.593	1	2back	Block4	2back/STIM_026.jpg
2315.439	0.557	1	2back	Block4	2back/STIM_026.jpg
2318.823	0.711	1	2back	Block4	2back/STIM_026.jpg
2322.107	0.745	1	2back	Block4	2back/STIM_027.jpg
2326.206	0.882	1	2back	Block4	2back/STIM_027.jpg
2330.92	0.658	1	2back	Block4	2back/STIM_027.jpg
2334.631	0.58	1	2back	Block4	2back/STIM_028.jpg
2337.842	0.844	1	2back	Block4	2back/STIM_028.jpg
2342.387	0.67	1	2back	Block4	2back/STIM_028.jpg
2345.218	0.594	1	2back	Block4	2back/STIM_029.jpg
2348.323	0.612	1	2back	Block4	2back/STIM_029.jpg
2350.976	0.587	1	2back	Block4	2back/STIM_029.jpg
2354.523	0.818	1	2back	Block4	2back/STIM_030.jpg
2359.054	0.481	1	2back	Block4	2back/STIM_030.jpg
2362.153	0.789	1	2back	Block4	2back/STIM_030.jpg
2365.239	0.946	1	2back	Block4	2back/STIM_031.jpg
2369.3	0.745	1	2back	Block4	2back/STIM_031.jpg
2372.713	0.802	1	2back	Block4	2back/STIM_031.jpg
2376.517	0.763	1	2back	Block4	2back/STIM_032.jpg
2380.85	0.61	1	2back	Block4	2back/STIM_032.jpg
2384.841	0.556	1	2back	Block4	2back/STIM_032.jpg
2388.634	0.684	1	2back	Block4	2back/STIM_033.jpg
2393.235	0.866	1	2back	Block4	2back/STIM_033.jpg
2397.633	0.851	1	2back	Block4	2back/STIM_033.jpg
2400.54	0.641	1	2back	Block4	2back/STIM_034.jpg
2404.36	0.74	1	2back	Block4	2back/STIM_034.jpg
2407.693	0.496	1	2back	Block4	2back/STIM_034.jpg
2411.171	0.664	1	2back	Block4	2back/STIM_035.jpg
2414.328	0.9	1	2back	Block4	2back/STIM_035.jpg
2418.544	0.648	1	2back	Block4	2back/STIM_035.jpg
2423.049	0.723	1	2back	Block4	2back/STIM_036.jpg
2425.852	0.679	1	2back	Block4	2back/STIM_036.jpg
2429.931	0.452	1	2back	Block4	2back/STIM_036.jpg
2433.816	0.713	1	2back	Block4	2back/STIM_037.jpg
2437.398	0.719	1	2back	Block4	2back/STIM_037.jpg
2441.72	0.818	1	2back	Block4	2back/STIM_037.jpg
2446.256	0.438	1	2back	Block4	2back/STIM_038.jpg
2450.624	0.471	1	2back	Block4	2back/STIM_038.jpg
2454.97	0.653	1	2back	Block4	2back/STIM_038.jpg
2457.761	0.507	1	2back	Block4	2back/STIM_039.jpg
2462.253	0.776	1	2back	Block4	2back/STIM_039.jpg
2465.321	0.624	0	2back	Block4	2back/STIM_039.jpg
2469.499	0.668	1	0back	Block4	0back/STIM_000.jpg
2473.681	0.597	1	0back	Block4	0back/STIM_000.jpg
2476.995	0.61	1	0back	Block4	0back/STIM_000.jpg
2479.656	0.691	1	0back	Block4	0back/STIM_001.jpg
2483.893	0.694	1	0back	Block4	0back/STIM_001.jpg
2486.62	0.788	1	0back	Block4	0back/STIM_001.jpg
2489.596	0.436	1	0back	Block4	0back/STIM_002.jpg
2492.101	0.568	1	0back	Block4	0back/STIM_002.jpg
2495.128	0.554	1	0back	Block4	0back/STIM_002.jpg
2498.186	0.422	1	0back	Block4	0back/STIM_003.jpg
2501.162	0.624	1	0back	Block4	0back/STIM_003.jpg
2505.603	0.503	1	0back	Block4	0back/STIM_003.jpg
2509.927	0.775	1	0back	Block4	0back/STIM_004.jpg
2513.189	0.766	1	0back	Block4	0back/STIM_004.jpg
2516.383	0.456	1	0back	Block4	0back/STIM_004.jpg
2519.324	0.516	1	0back	Block4	0back/STIM_005.jpg
2523.626	0.793	1	0back	Block4	0back/STIM_005.jpg
2527.936	0.738	1	0back	Block4	0back/STIM_005.jpg
2531.356	0.534	1	0back	Block4	0back/STIM_006.jpg
2534.722	0.815	1	0back	Block4	0back/STIM_006.jpg
2538.658	0.489	1	0back	Block4	0back/STIM_006.jpg
2541.301	0.595	1	0back	Block4	0back/STIM_007.jpg
2544.12	0.479	1	0back	Block4	0back/STIM_007.jpg
2547.225	0.541	1	0back	Block4	0back/STIM_007.jpg
2550.334	0.65	1	0back	Block4	0back/STIM_008.jpg
2553.322	0.601	1	0back	Block4	0back/STIM_008.jpg
2557.389	0.771	1	0back	Block4	0back/STIM_008.jpg
2561.252	0.418	1	0back	Block4	0back/STIM_009.jpg
2564.203	0.512	1	0back	Block4	0back/STIM_009.jpg
2568.684	0.498	1	0back	Block4	0back/STIM_009.jpg
2571.333	0.592	1	0back	Block4	0back/STIM_010.jpg
2574.408	0.782	1	0back	Block4	0back/STIM_010.jpg
2578.578	0.643	1	0back	Block4	0back/STIM_010.jpg
2582.358	0.686	1	0back	Block4	0back/STIM_011.jpg
2586.828	0.801	1	0back	Block4	0back/STIM_011.jpg
2591.292	0.471	1	0back	Block4	0back/STIM_011.jpg
2594.864	0.745	1	0back	Block4	0back/STIM_012.jpg
2598.093	0.629	1	0back	Block4	0back/STIM_012.jpg
2601.451	0.551	1	0back	Block4	0back/STIM_012.jpg
2605.964	0.51	1	0back	Block4	0back/STIM_013.jpg
2608.625	0.752	1	0back	Block4	0back/STIM_013.jpg
2611.791	0.546	1	0back	Block4	0back/STIM_013.jpg
2615.43	0.703	1	0back	Block4	0back/STIM_014.jpg
2619.308	0.472	1	0back	Block4	0back/STIM_014.jpg
2622.035	0.448	1	0back	Block4	0back/STIM_014.jpg
2626.333	0.679	1	0back	Block4	0back/STIM_015.jpg
2630.435	0.481	1	0back	Block4	0back/STIM_015.jpg
2634.862	0.455	1	0back	Block4	0back/STIM_015.jpg
2637.753	0.667	1	0back	Block4	0back/STIM_016.jpg
2641.848	0.654	1	0back	Block4	0back/STIM_016.jpg
2644.668	0.601	1	0back	Block4	0back/STIM_016.jpg
2649.136	0.493	1	0back	Block4	0back/STIM_017.jpg
2653.42	0.501	1	0back	Block4	0back/STIM_017.jpg
2656.317	0.512	1	0back	Block4	0back/STIM_017.jpg
2659.59	0.728	1	0back	Block4	0back/STIM_018.jpg
2662.979	0.482	1	0back	Block4	0back/STIM_018.jpg
2665.976	0.656	1	0back	Block4	0back/STIM_018.jpg
2669.816	0.658	1	0back	Block4	0back/STIM_019.jpg
2674.1	0.691	1	0back	Block4	0back/STIM_019.jpg
2678.527	0.597	1	0back	Block4	0back/STIM_019.jpg
