onset	duration	response_time_ms	trial_type	learning_stage	stimulus	response_port
0.0	1.222	1221.5	incongruent	Block1	incongruent/STIM_000.jpg	99
4.577	0.956	956.3	incongruent	Block1	incongruent/STIM_000.jpg	99
9.332	0.8	799.5	incongruent	Block1	incongruent/STIM_000.jpg	99
13.617	0.643	643.2	incongruent	Block1	incongruent/STIM_000.jpg	100
17.662	0.778	777.6	incongruent	Block1	incongruent/STIM_000.jpg	100
21.703	0.914	914.3	incongruent	Block1	incongruent/STIM_001.jpg	100
25.169	1.212	1212.3	incongruent	Block1	incongruent/STIM_001.jpg	100
30.312	1.262	1262.2	incongruent	Block1	incongruent/STIM_001.jpg	100
35.172	0.709	708.7	incongruent	Block1	incongruent/STIM_001.jpg	99
39.696	1.049	1048.8	incongruent	Block1	incongruent/STIM_001.jpg	100
43.72	0.958	957.9	incongruent	Block1	incongruent/STIM_002.jpg	100
47.351	0.747	747.4	incongruent	Block1	incongruent/STIM_002.jpg	99
51.49	1.14	1140.3	incongruent	Block1	incongruent/STIM_002.jpg	99
55.099	0.743	742.7	incongruent	Block1	incongruent/STIM_002.jpg	99
58.981	1.123	1123.0	incongruent	Block1	incongruent/STIM_002.jpg	100
63.389	0.873	872.6	incongruent	Block1	incongruent/STIM_003.jpg	100
66.766	0.635	634.8	incongruent	Block1	incongruent/STIM_003.jpg	99
70.897	1.001	1000.9	incongruent	Block1	incongruent/STIM_003.jpg	99
74.313	1.028	1028.3	incongruent	Block1	incongruent/STIM_003.jpg	100
78.922	0.758	758.5	incongruent	Block1	incongruent/STIM_003.jpg	99
83.259	0.912	911.7	incongruent	Block1	incongruent/STIM_004.jpg	100
86.34	1.074	1073.5	incongruent	Block1	incongruent/STIM_004.jpg	100
91.007	1.135	1135.2	incongruent	Block1	incongruent/STIM_004.jpg	99
95.192	1.138	1138.1	incongruent	Block1	incongruent/STIM_004.jpg	100
98.701	1.066	1066.5	incongruent	Block1	incongruent/STIM_004.jpg	100
102.757	1.179	1178.7	incongruent	Block1	incongruent/STIM_005.jpg	99
106.633	1.003	1003.3	incongruent	Block1	incongruent/STIM_005.jpg	99
110.865	0.977	977.0	incongruent	Block1	incongruent/STIM_005.jpg	100
114.092	1.064	1064.0	incongruent	Block1	incongruent/STIM_005.jpg	100
117.337	0.582	581.8	incongruent	Block1	incongruent/STIM_005.jpg	99
120.789	0.743	743.0	incongruent	Block1	incongruent/STIM_006.jpg	99
125.276	0.822	822.2	incongruent	Block1	incongruent/STIM_006.jpg	99
128.948	0.742	742.2	incongruent	Block1	incongruent/STIM_006.jpg	99
133.628	0.848	848.5	incongruent	Block1	incongruent/STIM_006.jpg	100
138.056	0.597	596.8	incongruent	Block1	incongruent/STIM_006.jpg	100
141.796	0.761	760.9	incongruent	Block1	incongruent/STIM_007.jpg	99
145.997	1.159	1158.6	incongruent	Block1	incongruent/STIM_007.jpg	99
150.458	0.708	708.2	incongruent	Block1	incongruent/STIM_007.jpg	100
154.565	1.045	1044.8	incongruent	Block1	incongruent/STIM_007.jpg	99
157.673	0.716	716.3	incongruent	Block1	incongruent/STIM_007.jpg	100
160.684	0.678	678.0	incongruent	Block1	incongruent/STIM_008.jpg	99
164.343	0.96	960.2	incongruent	Block1	incongruent/STIM_008.jpg	100
169.022	0.762	761.6	incongruent	Block1	incongruent/STIM_008.jpg	100
173.787	0.977	976.8	incongruent	Block1	incongruent/STIM_008.jpg	99
177.364	0.709	708.7	incongruent	Block1	incongruent/STIM_008.jpg	100
181.84	1.384	1384.0	incongruent	Block1	incongruent/STIM_009.jpg	99
186.271	1.148	1148.3	incongruent	Block1	incongruent/STIM_009.jpg	99
189.851	1.117	1116.7	incongruent	Block1	incongruent/STIM_009.jpg	100
194.362	0.62	620.0	incongruent	Block1	incongruent/STIM_009.jpg	100
197.849	0.799	799.0	incongruent	Block1	incongruent/STIM_009.jpg	100
200.964	1.322	1322.5	incongruent	Block1	incongruent/STIM_010.jpg	100
204.829	1.174	1174.3	incongruent	Block1	incongruent/STIM_010.jpg	100
208.902	0.721	721.2	incongruent	Block1	incongruent/STIM_010.jpg	100
213.322	1.146	1146.1	incongruent	Block1	incongruent/STIM_010.jpg	100
216.644	0.535	535.1	incongruent	Block1	incongruent/STIM_010.jpg	99
221.142	0.793	792.6	incongruent	Block1	incongruent/STIM_011.jpg	99
224.356	0.951	950.8	incongruent	Block1	incongruent/STIM_011.jpg	100
227.6	0.606	605.5	incongruent	Block1	incongruent/STIM_011.jpg	100
231.036	0.794	794.1	incongruent	Block1	incongruent/STIM_011.jpg	100
234.358	0.832	832.2	incongruent	Block1	incongruent/STIM_011.jpg	100
238.285	0.784	783.9	incongruent	Block1	incongruent/STIM_012.jpg	100
242.885	1.149	1148.6	incongruent	Block1	incongruent/STIM_012.jpg	100
247.575	0.737	737.3	incongruent	Block1	incongruent/STIM_012.jpg	100
250.426	1.202	1202.0	incongruent	Block1	incongruent/STIM_012.jpg	100
255.484	1.069	1068.9	incongruent	Block1	incongruent/STIM_012.jpg	99
258.853	0.749	748.6	incongruent	Block1	incongruent/STIM_013.jpg	100
261.859	0.902	902.1	incongruent	Block1	incongruent/STIM_013.jpg	100
264.988	0.922	922.4	incongruent	Block1	incongruent/STIM_013.jpg	100
268.008	0.746	746.4	incongruent	Block1	incongruent/STIM_013.jpg	99
271.725	0.848	847.8	incongruent	Block1	incongruent/STIM_013.jpg	100
275.176	0.675	675.0	incongruent	Block1	incongruent/STIM_014.jpg	100
279.183	1.146	1146.4	incongruent	Block1	incongruent/STIM_014.jpg	100
282.655	1.063	1063.0	incongruent	Block1	incongruent/STIM_014.jpg	100
287.215	1.101	1100.9	incongruent	Block1	incongruent/STIM_014.jpg	100
292.273	0.925	924.7	incongruent	Block1	incongruent/STIM_014.jpg	100
296.691	1.077	1077.1	incongruent	Block1	incongruent/STIM_015.jpg	100
300.991	0.719	718.6	incongruent	Block1	incongruent/STIM_015.jpg	100
305.624	1.014	1013.9	incongruent	Block1	incongruent/STIM_015.jpg	100
309.188	0.628	628.2	incongruent	Block1	incongruent/STIM_015.jpg	99
313.619	0.592	591.6	incongruent	Block1	incongruent/STIM_015.jpg	100
317.594	1.215	1215.3	incongruent	Block1	incongruent/STIM_016.jpg	100
322.57	0.788	787.5	incongruent	Block1	incongruent/STIM_016.jpg	99
326.437	0.802	802.1	incongruent	Block1	incongruent/STIM_016.jpg	99
329.351	0.64	639.9	incongruent	Block1	incongruent/STIM_016.jpg	100
333.341	1.081	1080.7	incongruent	Block1	incongruent/STIM_016.jpg	99
336.553	1.294	1294.0	incongruent	Block1	incongruent/STIM_017.jpg	100
340.929	0.724	723.8	incongruent	Block1	incongruent/STIM_017.jpg	100
344.957	1.232	1232.5	incongruent	Block1	incongruent/STIM_017.jpg	99
349.899	0.635	634.8	incongruent	Block1	incongruent/STIM_017.jpg	100
354.179	0.679	679.2	incongruent	Block1	incongruent/STIM_017.jpg	100
358.475	0.987	986.9	incongruent	Block1	incongruent/STIM_018.jpg	99
363.11	0.7	699.9	incongruent	Block1	incongruent/STIM_018.jpg	99
366.439	0.942	942.2	incongruent	Block1	incongruent/STIM_018.jpg	100
370.152	1.174	1174.0	incongruent	Block1	incongruent/STIM_018.jpg	100
374.788	0.837	837.3	incongruent	Block1	incongruent/STIM_018.jpg	99
378.178	1.291	1290.7	incongruent	Block1	incongruent/STIM_019.jpg	100
382.359	0.733	732.7	incongruent	Block1	incongruent/STIM_019.jpg	99
385.926	1.023	1022.7	incongruent	Block1	incongruent/STIM_019.jpg	99
390.298	0.854	854.4	incongruent	Block1	incongruent/STIM_019.jpg	100
393.818	1.09	1090.3	incongruent	Block1	incongruent/STIM_019.jpg	100
398.31	0.794	793.9	incongruent	Block1	incongruent/STIM_020.jpg	99
402.545	0.994	994.2	incongruent	Block1	incongruent/STIM_020.jpg	99
405.773	0.698	697.8	incongruent	Block1	incongruent/STIM_020.jpg	100
409.397	1.13	1129.7	incongruent	Block1	incongruent/STIM_020.jpg	100
414.577	0.653	653.3	incongruent	Block1	incongruent/STIM_020.jpg	100
417.969	1.046	1046.3	incongruent	Block1	incongruent/STIM_021.jpg	100
422.73	0.903	903.2	incongruent	Block1	incongruent/STIM_021.jpg	100
427.066	1.052	1052.1	incongruent	Block1	incongruent/STIM_021.jpg	100
431.903	0.799	799.2	incongruent	Block1	incongruent/STIM_021.jpg	99
434.762	0.696	696.0	incongruent	Block1	incongruent/STIM_021.jpg	99
439.12	0.804	803.7	incongruent	Block1	incongruent/STIM_022.jpg	100
443.775	0.981	981.0	incongruent	Block1	incongruent/STIM_022.jpg	99
448.598	0.714	713.6	incongruent	Block1	incongruent/STIM_022.jpg	99
452.375	0.798	797.7	incongruent	Block1	incongruent/STIM_022.jpg	100
455.335	0.891	890.8	incongruent	Block1	incongruent/STIM_022.jpg	99
459.794	1.06	1059.5	incongruent	Block1	incongruent/STIM_023.jpg	100
464.866	0.942	941.9	incongruent	Block1	incongruent/STIM_023.jpg	99
469.828	1.077	1076.8	incongruent	Block1	incongruent/STIM_023.jpg	100
473.453	1.047	1047.1	incongruent	Block1	incongruent/STIM_023.jpg	100
478.338	0.565	565.3	incongruent	Block1	incongruent/STIM_023.jpg	99
481.242	0.73	729.5	incongruent	Block1	incongruent/STIM_024.jpg	99
485.329	1.286	1285.6	incongruent	Block1	incongruent/STIM_024.jpg	99
490.5	0.894	894.5	incongruent	Block1	incongruent/STIM_024.jpg	99
494.061	1.05	1049.6	incongruent	Block1	incongruent/STIM_024.jpg	99
498.429	0.739	739.0	incongruent	Block1	incongruent/STIM_024.jpg	100
502.784	1.263	1263.0	incongruent	Block1	incongruent/STIM_025.jpg	99
506.473	0.75	750.3	incongruent	Block1	incongruent/STIM_025.jpg	100
509.84	0.986	986.2	incongruent	Block1	incongruent/STIM_025.jpg	100
514.01	0.766	766.5	incongruent	Block1	incongruent/STIM_025.jpg	100
517.687	0.908	908.0	incongruent	Block1	incongruent/STIM_025.jpg	100
522.238	0.776	775.9	incongruent	Block1	incongruent/STIM_026.jpg	100
526.989	1.072	1071.7	incongruent	Block1	incongruent/STIM_026.jpg	100
530.456	1.281	1280.9	incongruent	Block1	incongruent/STIM_026.jpg	100
534.668	0.661	660.8	incongruent	Block1	incongruent/STIM_026.jpg	99
539.283	0.758	758.3	incongruent	Block1	incongruent/STIM_026.jpg	99
543.227	1.361	1360.9	incongruent	Block1	incongruent/STIM_027.jpg	100
547.218	1.022	1021.9	incongruent	Block1	incongruent/STIM_027.jpg	99
550.874	0.868	867.7	incongruent	Block1	incongruent/STIM_027.jpg	99
554.84	0.953	953.3	incongruent	Block1	incongruent/STIM_027.jpg	100
558.287	0.87	870.1	incongruent	Block1	incongruent/STIM_027.jpg	100
561.412	1.338	1338.3	incongruent	Block1	incongruent/STIM_028.jpg	100
566.408	0.762	762.3	incongruent	Block1	incongruent/STIM_028.jpg	99
571.081	0.842	842.3	incongruent	Block1	incongruent/STIM_028.jpg	99
574.841	1.006	1006.3	incongruent	Block1	incongruent/STIM_028.jpg	99
578.028	0.61	610.3	incongruent	Block1	incongruent/STIM_028.jpg	99
581.308	1.156	1156.0	incongruent	Block1	incongruent/STIM_029.jpg	99
586.346	0.782	782.5	incongruent	Block1	incongruent/STIM_029.jpg	100
589.536	1.033	1033.3	incongruent	Block1	incongruent/STIM_029.jpg	99
592.789	0.854	853.9	incongruent	Block1	incongruent/STIM_029.jpg	99
595.781	0.72	720.0	incongruent	Block1	incongruent/STIM_029.jpg	100
599.741	0.555	555.4	congruent	Block1	congruent/STIM_000.jpg	99
603.844	0.749	749.0	congruent	Block1	congruent/STIM_000.jpg	99
608.358	0.775	774.9	congruent	Block1	congruent/STIM_000.jpg	100
611.477	0.577	577.0	congruent	Block1	congruent/STIM_000.jpg	99
614.853	0.621	620.7	congruent	Block1	congruent/STIM_000.jpg	99
618.065	0.652	652.0	congruent	Block1	congruent/STIM_001.jpg	100
622.011	0.798	797.5	congruent	Block1	congruent/STIM_001.jpg	99
625.628	0.557	556.9	congruent	Block1	congruent/STIM_001.jpg	99
628.957	0.759	758.7	congruent	Block1	congruent/STIM_001.jpg	100
632.25	0.503	502.8	congruent	Block1	congruent/STIM_001.jpg	99
636.223	0.608	607.6	congruent	Block1	congruent/STIM_002.jpg	99
640.778	0.515	514.7	congruent	Block1	congruent/STIM_002.jpg	99
644.431	0.684	684.3	congruent	Block1	congruent/STIM_002.jpg	100
648.193	0.676	676.3	congruent	Block1	congruent/STIM_002.jpg	100
651.508	0.776	775.7	congruent	Block1	congruent/STIM_002.jpg	100
654.482	0.687	686.6	congruent	Block1	congruent/STIM_003.jpg	100
658.739	0.521	520.6	congruent	Block1	congruent/STIM_003.jpg	100
662.32	0.568	568.0	congruent	Block1	congruent/STIM_003.jpg	100
666.4	0.485	485.2	congruent	Block1	congruent/STIM_003.jpg	99
670.559	0.784	783.6	congruent	Block1	congruent/STIM_003.jpg	99
674.08	0.792	792.1	congruent	Block1	congruent/STIM_004.jpg	100
677.474	0.757	756.8	congruent	Block1	congruent/STIM_004.jpg	99
680.322	0.662	662.4	congruent	Block1	congruent/STIM_004.jpg	99
684.727	0.571	571.2	congruent	Block1	congruent/STIM_004.jpg	100
689.229	0.741	741.0	congruent	Block1	congruent/STIM_004.jpg	99
693.121	0.61	609.8	congruent	Block1	congruent/STIM_005.jpg	100
697.679	0.49	489.7	congruent	Block1	congruent/STIM_005.jpg	99
700.578	0.762	762.1	congruent	Block1	congruent/STIM_005.jpg	99
704.236	0.744	743.6	congruent	Block1	congruent/STIM_005.jpg	99
707.051	0.488	488.1	congruent	Block1	congruent/STIM_005.jpg	99
709.756	0.673	673.0	congruent	Block1	congruent/STIM_006.jpg	99
712.783	0.732	732.2	congruent	Block1	congruent/STIM_006.jpg	100
717.029	0.58	579.5	congruent	Block1	congruent/STIM_006.jpg	100
720.679	0.645	644.6	congruent	Block1	congruent/STIM_006.jpg	100
724.217	0.53	529.5	congruent	Block1	congruent/STIM_006.jpg	99
728.717	0.853	853.3	congruent	Block1	congruent/STIM_007.jpg	99
732.58	0.687	686.9	congruent	Block1	congruent/STIM_007.jpg	99
735.993	0.7	699.5	congruent	Block1	congruent/STIM_007.jpg	100
740.331	0.756	756.1	congruent	Block1	congruent/STIM_007.jpg	99
744.76	0.599	599.1	congruent	Block1	congruent/STIM_007.jpg	100
748.105	0.567	567.4	congruent	Block1	congruent/STIM_008.jpg	100
751.183	0.776	775.6	congruent	Block1	congruent/STIM_008.jpg	100
755.407	0.677	677.3	congruent	Block1	congruent/STIM_008.jpg	99
759.001	0.611	611.1	congruent	Block1	congruent/STIM_008.jpg	100
763.188	0.69	689.6	congruent	Block1	congruent/STIM_008.jpg	99
767.015	0.626	626.3	congruent	Block1	congruent/STIM_009.jpg	100
770.669	0.783	783.3	congruent	Block1	congruent/STIM_009.jpg	99
775.491	0.743	743.3	congruent	Block1	congruent/STIM_009.jpg	100
780.099	0.476	476.1	congruent	Block1	congruent/STIM_009.jpg	99
783.097	0.513	512.9	congruent	Block1	congruent/STIM_009.jpg	99
786.451	0.516	516.5	congruent	Block1	congruent/STIM_010.jpg	99
790.905	0.761	760.8	congruent	Block1	congruent/STIM_010.jpg	99
794.118	0.539	539.1	congruent	Block1	congruent/STIM_010.jpg	99
796.949	0.823	822.9	congruent	Block1	congruent/STIM_010.jpg	99
801.786	0.572	572.2	congruent	Block1	congruent/STIM_010.jpg	99
804.755	0.67	670.5	congruent	Block1	congruent/STIM_011.jpg	99
807.587	0.482	481.8	congruent	Block1	congruent/STIM_011.jpg	100
810.222	0.778	777.9	congruent	Block1	congruent/STIM_011.jpg	100
814.429	0.592	592.3	congruent	Block1	congruent/STIM_011.jpg	99
817.14	0.69	690.0	congruent	Block1	congruent/STIM_011.jpg	99
820.726	0.501	501.5	congruent	Block1	congruent/STIM_012.jpg	99
823.387	0.629	629.0	congruent	Block1	congruent/STIM_012.jpg	100
827.724	0.527	527.1	congruent	Block1	congruent/STIM_012.jpg	100
830.661	0.708	707.5	congruent	Block1	congruent/STIM_012.jpg	100
835.189	0.52	520.3	congruent	Block1	congruent/STIM_012.jpg	99
839.647	0.529	528.9	congruent	Block1	congruent/STIM_013.jpg	100
842.668	0.768	768.5	congruent	Block1	congruent/STIM_013.jpg	100
846.129	0.766	766.2	congruent	Block1	congruent/STIM_013.jpg	99
849.094	0.628	628.5	congruent	Block1	congruent/STIM_013.jpg	100
852.698	0.703	703.4	congruent	Block1	congruent/STIM_013.jpg	99
855.852	0.536	536.5	congruent	Block1	congruent/STIM_014.jpg	100
858.52	0.677	677.2	congruent	Block1	congruent/STIM_014.jpg	99
862.321	0.602	601.9	congruent	Block1	congruent/STIM_014.jpg	100
866.893	0.743	742.8	congruent	Block1	congruent/STIM_014.jpg	100
869.876	0.52	520.2	congruent	Block1	congruent/STIM_014.jpg	99
874.246	0.819	819.4	congruent	Block1	congruent/STIM_015.jpg	100
877.205	0.66	660.4	congruent	Block1	congruent/STIM_015.jpg	100
881.464	0.721	721.2	congruent	Block1	congruent/STIM_015.jpg	99
884.877	0.772	771.9	congruent	Block1	congruent/STIM_015.jpg	100
889.155	0.654	653.8	congruent	Block1	congruent/STIM_015.jpg	100
893.0	0.599	598.6	congruent	Block1	congruent/STIM_016.jpg	99
897.625	0.709	709.3	congruent	Block1	congruent/STIM_016.jpg	100
900.379	0.726	726.2	congruent	Block1	congruent/STIM_016.jpg	99
904.71	0.623	622.6	congruent	Block1	congruent/STIM_016.jpg	99
909.098	0.484	484.3	congruent	Block1	congruent/STIM_016.jpg	99
912.562	0.753	752.7	congruent	Block1	congruent/STIM_017.jpg	100
916.276	0.613	612.6	congruent	Block1	congruent/STIM_017.jpg	99
920.613	0.514	513.9	congruent	Block1	congruent/STIM_017.jpg	100
923.982	0.594	593.5	congruent	Block1	congruent/STIM_017.jpg	99
927.423	0.504	504.0	congruent	Block1	congruent/STIM_017.jpg	100
930.537	0.477	476.8	congruent	Block1	congruent/STIM_018.jpg	100
933.061	0.516	516.1	congruent	Block1	congruent/STIM_018.jpg	99
936.545	0.539	539.4	congruent	Block1	congruent/STIM_018.jpg	99
941.038	0.594	593.7	congruent	Block1	congruent/STIM_018.jpg	99
945.298	0.813	812.6	congruent	Block1	congruent/STIM_018.jpg	100
949.215	0.789	789.2	congruent	Block1	congruent/STIM_019.jpg	100
954.025	0.516	516.0	congruent	Block1	congruent/STIM_019.jpg	99
956.959	0.511	510.8	congruent	Block1	congruent/STIM_019.jpg	100
960.521	0.723	723.3	congruent	Block1	congruent/STIM_019.jpg	99
963.887	0.796	796.4	congruent	Block1	congruent/STIM_019.jpg	100
967.63	0.779	779.4	congruent	Block1	congruent/STIM_020.jpg	100
970.61	0.75	750.0	congruent	Block1	congruent/STIM_020.jpg	99
973.726	0.742	742.5	congruent	Block1	congruent/STIM_020.jpg	100
977.448	0.494	494.3	congruent	Block1	congruent/STIM_020.jpg	100
980.486	0.588	587.5	congruent	Block1	congruent/STIM_020.jpg	100
983.194	0.732	732.1	congruent	Block1	congruent/STIM_021.jpg	100
986.253	0.617	616.7	congruent	Block1	congruent/STIM_021.jpg	100
988.903	0.792	792.0	congruent	Block1	congruent/STIM_021.jpg	99
992.373	0.728	728.1	congruent	Block1	congruent/STIM_021.jpg	100
996.803	0.8	799.6	congruent	Block1	congruent/STIM_021.jpg	99
1001.106	0.843	843.1	congruent	Block1	congruent/STIM_022.jpg	99
1004.086	0.63	629.9	congruent	Block1	congruent/STIM_022.jpg	99
1007.659	0.509	509.2	congruent	Block1	congruent/STIM_022.jpg	100
1011.552	0.684	684.5	congruent	Block1	congruent/STIM_022.jpg	100
1015.756	0.783	783.1	congruent	Block1	congruent/STIM_022.jpg	99
1018.874	0.546	546.0	congruent	Block1	congruent/STIM_023.jpg	99
1021.952	0.673	672.8	congruent	Block1	congruent/STIM_023.jpg	99
1025.892	0.528	528.1	congruent	Block1	congruent/STIM_023.jpg	99
1030.316	0.49	490.4	congruent	Block1	congruent/STIM_023.jpg	100
1034.54	0.536	536.4	congruent	Block1	congruent/STIM_023.jpg	100
1038.031	0.76	760.3	congruent	Block1	congruent/STIM_024.jpg	100
1041.006	0.841	840.9	congruent	Block1	congruent/STIM_024.jpg	99
1044.766	0.512	511.6	congruent	Block1	congruent/STIM_024.jpg	100
1048.294	0.806	806.0	congruent	Block1	congruent/STIM_024.jpg	99
1052.264	0.521	520.6	congruent	Block1	congruent/STIM_024.jpg	100
1055.171	0.563	563.3	congruent	Block1	congruent/STIM_025.jpg	99
1057.817	0.776	776.0	congruent	Block1	congruent/STIM_025.jpg	99
1062.547	0.685	685.1	congruent	Block1	congruent/STIM_025.jpg	99
1067.098	0.813	812.9	congruent	Block1	congruent/STIM_025.jpg	100
1070.617	0.655	654.7	congruent	Block1	congruent/STIM_025.jpg	99
1075.272	0.821	821.3	congruent	Block1	congruent/STIM_026.jpg	99
1078.906	0.582	581.6	congruent	Block1	congruent/STIM_026.jpg	100
1083.404	0.53	529.8	congruent	Block1	congruent/STIM_026.jpg	100
1085.986	0.721	720.8	congruent	Block1	congruent/STIM_026.jpg	100
1089.477	0.499	499.2	congruent	Block1	congruent/STIM_026.jpg	99
1093.063	0.706	705.7	congruent	Block1	congruent/STIM_027.jpg	99
1097.638	0.713	712.6	congruent	Block1	congruent/STIM_027.jpg	99
1102.362	0.836	836.4	congruent	Block1	congruent/STIM_027.jpg	100
1105.722	0.563	563.3	congruent	Block1	congruent/STIM_027.jpg	100
1109.698	0.531	531.0	congruent	Block1	congruent/STIM_027.jpg	99
1114.23	0.832	831.6	congruent	Block1	congruent/STIM_028.jpg	99
1118.835	0.676	676.5	congruent	Block1	congruent/STIM_028.jpg	100
1122.034	0.721	720.6	congruent	Block1	congruent/STIM_028.jpg	100
1125.294	0.669	669.3	congruent	Block1	congruent/STIM_028.jpg	99
1128.478	0.848	847.9	congruent	Block1	congruent/STIM_028.jpg	99
1133.309	0.81	809.7	congruent	Block1	congruent/STIM_029.jpg	99
1137.006	0.778	777.7	congruent	Block1	congruent/STIM_029.jpg	100
1139.858	0.581	581.2	congruent	Block1	congruent/STIM_029.jpg	99
1143.071	0.8	799.9	congruent	Block1	congruent/STIM_029.jpg	100
1147.787	0.675	674.8	congruent	Block1	congruent/STIM_029.jpg	99
1151.236	1.004	1003.5	incongruent	Block2	incongruent/STIM_000.jpg	100
1154.647	0.666	665.5	incongruent	Block2	incongruent/STIM_000.jpg	100
1159.001	0.969	969.4	incongruent	Block2	incongruent/STIM_000.jpg	100
1162.718	0.505	504.8	incongruent	Block2	incongruent/STIM_000.jpg	100
1167.004	0.86	860.2	incongruent	Block2	incongruent/STIM_000.jpg	100
1171.223	0.817	816.8	incongruent	Block2	incongruent/STIM_001.jpg	99
1175.11	0.78	779.9	incongruent	Block2	incongruent/STIM_001.jpg	99
1179.304	0.501	500.8	incongruent	Block2	incongruent/STIM_001.jpg	99
1181.846	0.571	570.7	incongruent	Block2	incongruent/STIM_001.jpg	100
1184.472	0.477	477.0	incongruent	Block2	incongruent/STIM_001.jpg	100
1187.179	0.934	933.8	incongruent	Block2	incongruent/STIM_002.jpg	100
1190.241	0.69	690.3	incongruent	Block2	incongruent/STIM_002.jpg	99
1194.129	0.787	786.9	incongruent	Block2	incongruent/STIM_002.jpg	99
1197.179	0.521	521.4	incongruent	Block2	incongruent/STIM_002.jpg	99
1199.756	0.477	477.3	incongruent	Block2	incongruent/STIM_002.jpg	100
1204.207	0.754	754.2	incongruent	Block2	incongruent/STIM_003.jpg	100
1207.193	0.868	868.1	incongruent	Block2	incongruent/STIM_003.jpg	100
1211.345	0.592	592.1	incongruent	Block2	incongruent/STIM_003.jpg	99
1215.482	0.906	905.9	incongruent	Block2	incongruent/STIM_003.jpg	99
1218.532	0.902	901.5	incongruent	Block2	incongruent/STIM_003.jpg	100
1222.755	0.702	701.7	incongruent	Block2	incongruent/STIM_004.jpg	99
1226.402	1.045	1044.6	incongruent	Block2	incongruent/STIM_004.jpg	99
1231.41	0.636	636.5	incongruent	Block2	incongruent/STIM_004.jpg	100
1234.335	0.516	516.4	incongruent	Block2	incongruent/STIM_004.jpg	99
1237.747	0.642	641.6	incongruent	Block2	incongruent/STIM_004.jpg	100
1241.846	0.887	887.4	incongruent	Block2	incongruent/STIM_005.jpg	99
1246.437	1.075	1075.2	incongruent	Block2	incongruent/STIM_005.jpg	100
1250.309	0.708	708.0	incongruent	Block2	incongruent/STIM_005.jpg	99
1254.475	0.514	513.8	incongruent	Block2	incongruent/STIM_005.jpg	100
1258.023	0.741	740.8	incongruent	Block2	incongruent/STIM_005.jpg	100
1262.572	0.672	671.6	incongruent	Block2	incongruent/STIM_006.jpg	99
1266.563	0.624	624.0	incongruent	Block2	incongruent/STIM_006.jpg	100
1271.033	1.015	1014.6	incongruent	Block2	incongruent/STIM_006.jpg	100
1275.156	0.945	945.2	incongruent	Block2	incongruent/STIM_006.jpg	100
1280.01	0.741	741.3	incongruent	Block2	incongruent/STIM_006.jpg	100
1282.859	1.182	1181.9	incongruent	Block2	incongruent/STIM_007.jpg	99
1286.573	1.074	1074.0	incongruent	Block2	incongruent/STIM_007.jpg	99
1291.501	0.535	535.2	incongruent	Block2	incongruent/STIM_007.jpg	100
1295.835	0.587	587.2	incongruent	Block2	incongruent/STIM_007.jpg	99
1298.979	0.562	562.0	incongruent	Block2	incongruent/STIM_007.jpg	100
1301.741	0.741	741.3	incongruent	Block2	incongruent/STIM_008.jpg	100
1304.653	0.918	918.5	incongruent	Block2	incongruent/STIM_008.jpg	100
1307.762	0.506	506.3	incongruent	Block2	incongruent/STIM_008.jpg	99
1310.935	0.622	621.7	incongruent	Block2	incongruent/STIM_008.jpg	100
1315.547	0.697	696.9	incongruent	Block2	incongruent/STIM_008.jpg	99
1319.096	0.74	739.5	incongruent	Block2	incongruent/STIM_009.jpg	100
1323.129	0.845	845.1	incongruent	Block2	incongruent/STIM_009.jpg	99
1326.473	0.878	877.6	incongruent	Block2	incongruent/STIM_009.jpg	100
1330.477	0.571	571.0	incongruent	Block2	incongruent/STIM_009.jpg	99
1333.939	0.576	576.3	incongruent	Block2	incongruent/STIM_009.jpg	99
1338.538	0.641	641.0	incongruent	Block2	incongruent/STIM_010.jpg	100
1342.984	0.656	656.1	incongruent	Block2	incongruent/STIM_010.jpg	99
1347.207	0.926	926.4	incongruent	Block2	incongruent/STIM_010.jpg	99
1351.193	0.598	597.5	incongruent	Block2	incongruent/STIM_010.jpg	99
1354.037	0.756	756.3	incongruent	Block2	incongruent/STIM_010.jpg	100
1357.659	0.673	673.4	incongruent	Block2	incongruent/STIM_011.jpg	99
1361.132	0.672	672.2	incongruent	Block2	incongruent/STIM_011.jpg	100
1363.951	0.689	688.6	incongruent	Block2	incongruent/STIM_011.jpg	100
1367.981	0.501	501.3	incongruent	Block2	incongruent/STIM_011.jpg	99
1370.559	0.878	878.3	incongruent	Block2	incongruent/STIM_011.jpg	100
1374.953	0.727	727.0	incongruent	Block2	incongruent/STIM_012.jpg	99
1378.735	0.571	571.2	incongruent	Block2	incongruent/STIM_012.jpg	99
1383.271	0.729	728.7	incongruent	Block2	incongruent/STIM_012.jpg	100
1386.215	0.506	506.0	incongruent	Block2	incongruent/STIM_012.jpg	100
1389.51	0.679	678.7	incongruent	Block2	incongruent/STIM_012.jpg	100
1393.246	0.936	936.3	incongruent	Block2	incongruent/STIM_013.jpg	99
1398.127	0.813	813.2	incongruent	Block2	incongruent/STIM_013.jpg	99
1402.63	0.783	783.1	incongruent	Block2	incongruent/STIM_013.jpg	99
1407.428	0.48	479.8	incongruent	Block2	incongruent/STIM_013.jpg	100
1411.341	0.637	637.4	incongruent	Block2	incongruent/STIM_013.jpg	100
1415.619	0.977	977.2	incongruent	Block2	incongruent/STIM_014.jpg	99
1420.554	1.105	1104.6	incongruent	Block2	incongruent/STIM_014.jpg	99
1424.793	0.658	658.3	incongruent	Block2	incongruent/STIM_014.jpg	100
1428.821	0.589	588.7	incongruent	Block2	incongruent/STIM_014.jpg	99
1432.146	0.603	602.8	incongruent	Block2	incongruent/STIM_014.jpg	100
1435.7	0.858	858.3	incongruent	Block2	incongruent/STIM_015.jpg	100
1439.381	1.036	1036.1	incongruent	Block2	incongruent/STIM_015.jpg	100
1442.703	0.783	783.1	incongruent	Block2	incongruent/STIM_015.jpg	99
1445.978	0.555	554.6	incongruent	Block2	incongruent/STIM_015.jpg	100
1450.115	0.87	870.1	incongruent	Block2	incongruent/STIM_015.jpg	100
1454.934	0.78	780.3	incongruent	Block2	incongruent/STIM_016.jpg	100
1457.904	1.138	1138.0	incongruent	Block2	incongruent/STIM_016.jpg	100
1462.694	0.624	624.2	incongruent	Block2	incongruent/STIM_016.jpg	100
1465.738	0.977	976.7	incongruent	Block2	incongruent/STIM_016.jpg	100
1469.962	0.857	857.1	incongruent	Block2	incongruent/STIM_016.jpg	99
1474.201	0.643	643.2	incongruent	Block2	incongruent/STIM_017.jpg	99
1477.189	0.893	893.0	incongruent	Block2	incongruent/STIM_017.jpg	100
1481.56	0.621	621.1	incongruent	Block2	incongruent/STIM_017.jpg	100
1485.276	0.781	780.9	incongruent	Block2	incongruent/STIM_017.jpg	99
1488.176	0.494	494.4	incongruent	Block2	incongruent/STIM_017.jpg	100
1491.237	1.001	1000.6	incongruent	Block2	incongruent/STIM_018.jpg	99
1494.59	0.789	789.4	incongruent	Block2	incongruent/STIM_018.jpg	99
1497.565	0.621	621.4	incongruent	Block2	incongruent/STIM_018.jpg	99
1501.721	0.491	491.4	incongruent	Block2	incongruent/STIM_018.jpg	99
1505.768	0.554	553.6	incongruent	Block2	incongruent/STIM_018.jpg	100
1508.797	1.171	1170.6	incongruent	Block2	incongruent/STIM_019.jpg	100
1512.894	0.908	908.4	incongruent	Block2	incongruent/STIM_019.jpg	99
1516.487	0.975	974.8	incongruent	Block2	incongruent/STIM_019.jpg	100
1519.794	0.921	921.1	incongruent	Block2	incongruent/STIM_019.jpg	100
1524.12	0.979	978.8	incongruent	Block2	incongruent/STIM_019.jpg	100
1528.413	0.773	773.4	incongruent	Block2	incongruent/STIM_020.jpg	99
1532.709	0.851	850.6	incongruent	Block2	incongruent/STIM_020.jpg	99
1535.724	0.764	764.5	incongruent	Block2	incongruent/STIM_020.jpg	100
1540.404	0.69	690.3	incongruent	Block2	incongruent/STIM_020.jpg	100
1544.603	0.749	749.2	incongruent	Block2	incongruent/STIM_020.jpg	100
1549.359	0.709	709.4	incongruent	Block2	incongruent/STIM_021.jpg	100
1553.51	0.921	920.8	incongruent	Block2	incongruent/STIM_021.jpg	100
1558.269	0.992	992.5	incongruent	Block2	incongruent/STIM_021.jpg	100
1561.881	0.753	752.8	incongruent	Block2	incongruent/STIM_021.jpg	100
1566.113	0.56	560.5	incongruent	Block2	incongruent/STIM_021.jpg	99
1569.235	1.205	1204.8	incongruent	Block2	incongruent/STIM_022.jpg	100
1572.651	0.967	966.9	incongruent	Block2	incongruent/STIM_022.jpg	100
1576.957	0.624	624.5	incongruent	Block2	incongruent/STIM_022.jpg	99
1580.212	0.645	645.1	incongruent	Block2	incongruent/STIM_022.jpg	99
1583.751	0.517	517.4	incongruent	Block2	incongruent/STIM_022.jpg	99
1586.757	1.125	1125.1	incongruent	Block2	incongruent/STIM_023.jpg	99
1590.013	0.969	969.3	incongruent	Block2	incongruent/STIM_023.jpg	99
1594.1	1.009	1008.8	incongruent	Block2	incongruent/STIM_023.jpg	99
1597.196	0.882	882.0	incongruent	Block2	incongruent/STIM_023.jpg	99
1601.049	0.619	619.2	incongruent	Block2	incongruent/STIM_023.jpg	99
1604.616	0.656	656.2	incongruent	Block2	incongruent/STIM_024.jpg	99
1607.883	0.883	883.4	incongruent	Block2	incongruent/STIM_024.jpg	100
1612.026	0.576	576.5	incongruent	Block2	incongruent/STIM_024.jpg	99
1615.693	0.616	615.9	incongruent	Block2	incongruent/STIM_024.jpg	100
1619.051	0.928	928.5	incongruent	Block2	incongruent/STIM_024.jpg	99
1622.051	0.685	685.0	incongruent	Block2	incongruent/STIM_025.jpg	99
1625.974	0.667	666.8	incongruent	Block2	incongruent/STIM_025.jpg	99
1629.735	0.617	616.7	incongruent	Block2	incongruent/STIM_025.jpg	99
1633.921	0.521	520.6	incongruent	Block2	incongruent/STIM_025.jpg	99
1638.314	0.554	554.4	incongruent	Block2	incongruent/STIM_025.jpg	100
1642.042	0.768	767.8	incongruent	Block2	incongruent/STIM_026.jpg	99
1646.422	1.052	1052.2	incongruent	Block2	incongruent/STIM_026.jpg	99
1650.425	0.677	676.7	incongruent	Block2	incongruent/STIM_026.jpg	100
1654.786	0.794	793.7	incongruent	Block2	incongruent/STIM_026.jpg	99
1658.646	0.781	780.9	incongruent	Block2	incongruent/STIM_026.jpg	100
1662.01	0.641	641.1	incongruent	Block2	incongruent/STIM_027.jpg	100
1665.069	0.754	753.8	incongruent	Block2	incongruent/STIM_027.jpg	100
1668.15	0.528	528.1	incongruent	Block2	incongruent/STIM_027.jpg	99
1672.439	0.505	505.4	incongruent	Block2	incongruent/STIM_027.jpg	99
1675.738	0.875	874.7	incongruent	Block2	incongruent/STIM_027.jpg	100
1678.78	1.177	1177.4	incongruent	Block2	incongruent/STIM_028.jpg	100
1683.811	0.59	589.7	incongruent	Block2	incongruent/STIM_028.jpg	100
1687.2	0.552	551.6	incongruent	Block2	incongruent/STIM_028.jpg	100
1690.28	0.984	983.9	incongruent	Block2	incongruent/STIM_028.jpg	99
1694.099	0.553	552.6	incongruent	Block2	incongruent/STIM_028.jpg	100
1697.978	1.004	1003.7	incongruent	Block2	incongruent/STIM_029.jpg	99
1702.488	0.791	791.0	incongruent	Block2	incongruent/STIM_029.jpg	99
1705.633	0.504	503.9	incongruent	Block2	incongruent/STIM_029.jpg	100
1710.141	0.866	866.4	incongruent	Block2	incongruent/STIM_029.jpg	99
1714.334	0.499	498.7	incongruent	Block2	incongruent/STIM_029.jpg	100
1717.595	0.485	484.8	congruent	Block2	congruent/STIM_000.jpg	100
1721.662	0.667	667.2	congruent	Block2	congruent/STIM_000.jpg	100
1726.14	0.73	729.7	congruent	Block2	congruent/STIM_000.jpg	100
1729.1	0.52	519.6	congruent	Block2	congruent/STIM_000.jpg	100
1733.572	0.792	791.9	congruent	Block2	congruent/STIM_000.jpg	100
1737.202	0.624	623.6	congruent	Block2	congruent/STIM_001.jpg	100
1740.718	0.632	632.5	congruent	Block2	congruent/STIM_001.jpg	100
1744.776	0.729	728.6	congruent	Block2	congruent/STIM_001.jpg	99
1747.774	0.652	652.3	congruent	Block2	congruent/STIM_001.jpg	100
1750.978	0.482	482.5	congruent	Block2	congruent/STIM_001.jpg	100
1754.467	0.69	690.5	congruent	Block2	congruent/STIM_002.jpg	99
1759.109	0.605	605.2	congruent	Block2	congruent/STIM_002.jpg	99
1762.436	0.746	745.9	congruent	Block2	congruent/STIM_002.jpg	100
1766.452	0.653	653.4	congruent	Block2	congruent/STIM_002.jpg	99
1770.301	0.831	831.4	congruent	Block2	congruent/STIM_002.jpg	99
1774.445	0.54	539.6	congruent	Block2	congruent/STIM_003.jpg	100
1777.584	0.802	802.3	congruent	Block2	congruent/STIM_003.jpg	99
1782.389	0.481	481.1	congruent	Block2	congruent/STIM_003.jpg	100
1786.059	0.82	819.6	congruent	Block2	congruent/STIM_003.jpg	99
1789.217	0.752	752.4	congruent	Block2	congruent/STIM_003.jpg	100
1793.655	0.5	500.5	congruent	Block2	congruent/STIM_004.jpg	99
1797.708	0.579	578.7	congruent	Block2	congruent/STIM_004.jpg	100
1801.924	0.682	682.3	congruent	Block2	congruent/STIM_004.jpg	99
1804.684	0.549	549.2	congruent	Block2	congruent/STIM_004.jpg	99
1807.592	0.624	624.4	congruent	Block2	congruent/STIM_004.jpg	100
1810.501	0.806	805.8	congruent	Block2	congruent/STIM_005.jpg	99
1814.711	0.481	481.3	congruent	Block2	congruent/STIM_005.jpg	100
1819.103	0.592	592.0	congruent	Block2	congruent/STIM_005.jpg	100
1821.913	0.529	529.1	congruent	Block2	congruent/STIM_005.jpg	99
1825.269	0.64	640.1	congruent	Block2	congruent/STIM_005.jpg	99
1829.465	0.499	499.1	congruent	Block2	congruent/STIM_006.jpg	99
1832.233	0.512	512.0	congruent	Block2	congruent/STIM_006.jpg	100
1835.596	0.563	562.6	congruent	Block2	congruent/STIM_006.jpg	99
1839.654	0.591	590.7	congruent	Block2	congruent/STIM_006.jpg	99
1843.315	0.559	559.4	congruent	Block2	congruent/STIM_006.jpg	99
1845.916	0.604	604.5	congruent	Block2	congruent/STIM_007.jpg	99
1850.185	0.845	844.9	congruent	Block2	congruent/STIM_007.jpg	100
1854.684	0.801	800.8	congruent	Block2	congruent/STIM_007.jpg	100
1859.226	0.75	750.4	congruent	Block2	congruent/STIM_007.jpg	99
1863.648	0.634	634.4	congruent	Block2	congruent/STIM_007.jpg	100
1868.07	0.731	730.6	congruent	Block2	congruent/STIM_008.jpg	99
1871.128	0.843	843.4	congruent	Block2	congruent/STIM_008.jpg	100
1875.637	0.79	790.5	congruent	Block2	congruent/STIM_008.jpg	100
1880.059	0.74	740.2	congruent	Block2	congruent/STIM_008.jpg	100
1883.549	0.674	673.5	congruent	Block2	congruent/STIM_008.jpg	100
1888.172	0.66	660.3	congruent	Block2	congruent/STIM_009.jpg	99
1892.81	0.724	724.3	congruent	Block2	congruent/STIM_009.jpg	100
1895.902	0.602	601.7	congruent	Block2	congruent/STIM_009.jpg	99
1900.09	0.527	527.1	congruent	Block2	congruent/STIM_009.jpg	100
1904.233	0.852	852.2	congruent	Block2	congruent/STIM_009.jpg	100
1908.029	0.5	499.8	congruent	Block2	congruent/STIM_010.jpg	100
1910.846	0.516	515.8	congruent	Block2	congruent/STIM_010.jpg	100
1913.986	0.759	759.4	congruent	Block2	congruent/STIM_010.jpg	99
1918.029	0.776	775.7	congruent	Block2	congruent/STIM_010.jpg	99
1922.053	0.842	842.5	congruent	Block2	congruent/STIM_010.jpg	99
1925.077	0.518	517.6	congruent	Block2	congruent/STIM_011.jpg	100
1929.448	0.71	709.5	congruent	Block2	congruent/STIM_011.jpg	99
1934.123	0.816	815.7	congruent	Block2	congruent/STIM_011.jpg	100
1938.485	0.821	821.4	congruent	Block2	congruent/STIM_011.jpg	99
1942.594	0.753	752.7	congruent	Block2	congruent/STIM_011.jpg	99
1945.904	0.717	716.6	congruent	Block2	congruent/STIM_012.jpg	99
1949.347	0.616	616.1	congruent	Block2	congruent/STIM_012.jpg	99
1953.707	0.821	820.9	congruent	Block2	congruent/STIM_012.jpg	100
1957.209	0.58	579.7	congruent	Block2	congruent/STIM_012.jpg	100
1961.438	0.646	645.5	congruent	Block2	congruent/STIM_012.jpg	100
1965.343	0.575	575.4	congruent	Block2	congruent/STIM_013.jpg	100
1968.787	0.709	708.6	congruent	Block2	congruent/STIM_013.jpg	99
1971.688	0.732	731.5	congruent	Block2	congruent/STIM_013.jpg	100
1976.228	0.747	747.2	congruent	Block2	congruent/STIM_013.jpg	99
1979.325	0.713	712.7	congruent	Block2	congruent/STIM_013.jpg	99
1983.54	0.721	721.4	congruent	Block2	congruent/STIM_014.jpg	99
1987.518	0.534	533.9	congruent	Block2	congruent/STIM_014.jpg	100
1991.263	0.502	501.7	congruent	Block2	congruent/STIM_014.jpg	100
1994.254	0.64	640.4	congruent	Block2	congruent/STIM_014.jpg	100
1997.613	0.515	514.9	congruent	Block2	congruent/STIM_014.jpg	100
2000.395	0.802	802.4	congruent	Block2	congruent/STIM_015.jpg	99
2004.001	0.71	709.7	congruent	Block2	congruent/STIM_015.jpg	99
2007.185	0.734	734.2	congruent	Block2	congruent/STIM_015.jpg	99
2011.533	0.584	583.5	congruent	Block2	congruent/STIM_015.jpg	100
2014.672	0.772	771.6	congruent	Block2	congruent/STIM_015.jpg	100
2018.71	0.5	500.2	congruent	Block2	congruent/STIM_016.jpg	100
2021.5	0.716	716.1	congruent	Block2	congruent/STIM_016.jpg	100
2024.749	0.789	788.9	congruent	Block2	congruent/STIM_016.jpg	99
2027.74	0.698	697.8	congruent	Block2	congruent/STIM_016.jpg	99
2031.976	0.606	605.6	congruent	Block2	congruent/STIM_016.jpg	100
2036.486	0.495	495.1	congruent	Block2	congruent/STIM_017.jpg	99
2039.352	0.616	616.2	congruent	Block2	congruent/STIM_017.jpg	99
2043.027	0.833	832.8	congruent	Block2	congruent/STIM_017.jpg	99
2046.873	0.742	741.6	congruent	Block2	congruent/STIM_017.jpg	99
2051.097	0.846	846.4	congruent	Block2	congruent/STIM_017.jpg	99
2054.643	0.562	562.5	congruent	Block2	congruent/STIM_018.jpg	100
2058.454	0.669	669.3	congruent	Block2	congruent/STIM_018.jpg	99
2062.18	0.834	834.5	congruent	Block2	congruent/STIM_018.jpg	99
2066.078	0.644	644.3	congruent	Block2	congruent/STIM_018.jpg	99
2069.179	0.784	784.1	congruent	Block2	congruent/STIM_018.jpg	99
2073.963	0.537	537.3	congruent	Block2	congruent/STIM_019.jpg	100
2078.4	0.646	645.5	congruent	Block2	congruent/STIM_019.jpg	100
2081.815	0.522	522.3	congruent	Block2	congruent/STIM_019.jpg	99
2085.673	0.722	721.7	congruent	Block2	congruent/STIM_019.jpg	100
2088.582	0.774	774.0	congruent	Block2	congruent/STIM_019.jpg	99
2091.523	0.633	632.9	congruent	Block2	congruent/STIM_020.jpg	100
2095.494	0.816	815.5	congruent	Block2	congruent/STIM_020.jpg	100
2098.913	0.611	610.8	congruent	Block2	congruent/STIM_020.jpg	100
2102.268	0.755	754.9	congruent	Block2	congruent/STIM_020.jpg	100
2106.34	0.675	674.8	congruent	Block2	congruent/STIM_020.jpg	99
2109.159	0.681	680.6	congruent	Block2	congruent/STIM_021.jpg	100
2112.109	0.651	650.8	congruent	Block2	congruent/STIM_021.jpg	100
2115.933	0.753	753.2	congruent	Block2	congruent/STIM_021.jpg	100
2118.738	0.665	664.9	congruent	Block2	congruent/STIM_021.jpg	100
2121.611	0.806	805.7	congruent	Block2	congruent/STIM_021.jpg	100
2125.922	0.571	571.3	congruent	Block2	congruent/STIM_022.jpg	99
2130.515	0.662	662.4	congruent	Block2	congruent/STIM_022.jpg	99
2133.609	0.66	659.6	congruent	Block2	congruent/STIM_022.jpg	100
2136.771	0.716	716.3	congruent	Block2	congruent/STIM_022.jpg	99
2140.137	0.767	766.9	congruent	Block2	congruent/STIM_022.jpg	100
2143.654	0.651	651.4	congruent	Block2	congruent/STIM_023.jpg	99
2147.193	0.591	591.1	congruent	Block2	congruent/STIM_023.jpg	100
2151.676	0.586	585.7	congruent	Block2	congruent/STIM_023.jpg	100
2154.707	0.796	795.7	congruent	Block2	congruent/STIM_023.jpg	99
2157.854	0.775	775.1	congruent	Block2	congruent/STIM_023.jpg	100
2161.556	0.544	543.7	congruent	Block2	congruent/STIM_024.jpg	100
2164.763	0.486	486.4	congruent	Block2	congruent/STIM_024.jpg	99
2168.017	0.806	805.6	congruent	Block2	congruent/STIM_024.jpg	100
2171.896	0.561	561.4	congruent	Block2	congruent/STIM_024.jpg	99
2174.8	0.537	537.0	congruent	Block2	congruent/STIM_024.jpg	100
2177.877	0.636	635.5	congruent	Block2	congruent/STIM_025.jpg	100
2180.925	0.671	671.0	congruent	Block2	congruent/STIM_025.jpg	100
2184.363	0.576	576.2	congruent	Block2	congruent/STIM_025.jpg	99
2188.813	0.477	477.3	congruent	Block2	congruent/STIM_025.jpg	99
2192.141	0.814	814.3	congruent	Block2	congruent/STIM_025.jpg	100
2196.753	0.65	649.5	congruent	Block2	congruent/STIM_026.jpg	99
2201.301	0.804	804.2	congruent	Block2	congruent/STIM_026.jpg	99
2204.354	0.833	832.8	congruent	Block2	congruent/STIM_026.jpg	100
2208.232	0.542	541.9	congruent	Block2	congruent/STIM_026.jpg	99
2211.294	0.842	841.5	congruent	Block2	congruent/STIM_026.jpg	100
2214.898	0.666	665.5	congruent	Block2	congruent/STIM_027.jpg	100
2217.99	0.629	628.9	congruent	Block2	congruent/STIM_027.jpg	100
2221.476	0.826	826.0	congruent	Block2	congruent/STIM_027.jpg	99
2225.293	0.5	499.6	congruent	Block2	congruent/STIM_027.jpg	99
2229.442	0.562	562.3	congruent	Block2	congruent/STIM_027.jpg	100
2232.667	0.813	812.9	congruent	Block2	congruent/STIM_028.jpg	100
2235.84	0.665	665.3	congruent	Block2	congruent/STIM_028.jpg	100
2239.077	0.517	516.8	congruent	Block2	congruent/STIM_028.jpg	100
2242.1	0.516	515.9	congruent	Block2	congruent/STIM_028.jpg	100
2245.414	0.551	550.6	congruent	Block2	congruent/STIM_028.jpg	100
2249.686	0.801	800.9	congruent	Block2	congruent/STIM_029.jpg	100
2254.42	0.804	804.4	congruent	Block2	congruent/STIM_029.jpg	100
2258.298	0.747	746.7	congruent	Block2	congruent/STIM_029.jpg	99
2262.575	0.738	737.7	congruent	Block2	congruent/STIM_029.jpg	100
2267.238	0.831	830.6	congruent	Block2	congruent/STIM_029.jpg	99
2270.408	0.771	771.0	incongruent	Block3	incongruent/STIM_000.jpg	100
2273.606	0.785	784.6	incongruent	Block3	incongruent/STIM_000.jpg	99
2276.523	0.993	993.0	incongruent	Block3	incongruent/STIM_000.jpg	99
2281.104	0.633	633.0	incongruent	Block3	incongruent/STIM_000.jpg	99
2283.895	0.874	873.9	incongruent	Block3	incongruent/STIM_000.jpg	100
2286.947	0.622	622.2	incongruent	Block3	incongruent/STIM_001.jpg	99
2290.737	0.502	502.2	incongruent	Block3	incongruent/STIM_001.jpg	99
2295.053	0.858	858.4	incongruent	Block3	incongruent/STIM_001.jpg	100
2297.986	0.516	516.0	incongruent	Block3	incongruent/STIM_001.jpg	100
2301.821	0.516	515.6	incongruent	Block3	incongruent/STIM_001.jpg	100
2304.712	0.777	777.1	incongruent	Block3	incongruent/STIM_002.jpg	100
2308.01	0.96	959.9	incongruent	Block3	incongruent/STIM_002.jpg	100
2311.753	0.654	654.0	incongruent	Block3	incongruent/STIM_002.jpg	100
2315.809	0.471	471.0	incongruent	Block3	incongruent/STIM_002.jpg	100
2318.998	0.777	777.0	incongruent	Block3	incongruent/STIM_002.jpg	99
2323.052	0.582	581.8	incongruent	Block3	incongruent/STIM_003.jpg	100
2327.388	0.606	605.6	incongruent	Block3	incongruent/STIM_003.jpg	99
2330.064	0.549	548.6	incongruent	Block3	incongruent/STIM_003.jpg	100
2333.266	0.689	689.4	incongruent	Block3	incongruent/STIM_003.jpg	100
2337.714	0.815	814.9	incongruent	Block3	incongruent/STIM_003.jpg	100
2340.714	0.873	873.4	incongruent	Block3	incongruent/STIM_004.jpg	100
2344.613	0.488	487.9	incongruent	Block3	incongruent/STIM_004.jpg	100
2348.141	0.856	855.9	incongruent	Block3	incongruent/STIM_004.jpg	99
2352.761	0.663	662.7	incongruent	Block3	incongruent/STIM_004.jpg	99
2355.518	0.522	521.6	incongruent	Block3	incongruent/STIM_004.jpg	100
2358.941	0.949	949.4	incongruent	Block3	incongruent/STIM_005.jpg	100
2362.205	0.864	864.0	incongruent	Block3	incongruent/STIM_005.jpg	99
2365.701	0.904	904.0	incongruent	Block3	incongruent/STIM_005.jpg	99
2369.58	0.995	994.6	incongruent	Block3	incongruent/STIM_005.jpg	99
2373.891	0.473	472.9	incongruent	Block3	incongruent/STIM_005.jpg	99
2377.655	0.634	633.8	incongruent	Block3	incongruent/STIM_006.jpg	100
2380.543	0.81	809.5	incongruent	Block3	incongruent/STIM_006.jpg	100
2383.86	0.965	965.2	incongruent	Block3	incongruent/STIM_006.jpg	99
2387.76	0.801	801.2	incongruent	Block3	incongruent/STIM_006.jpg	100
2391.051	0.708	707.5	incongruent	Block3	incongruent/STIM_006.jpg	99
2395.342	0.649	649.4	incongruent	Block3	incongruent/STIM_007.jpg	100
2399.794	0.514	514.4	incongruent	Block3	incongruent/STIM_007.jpg	100
2404.037	0.977	977.0	incongruent	Block3	incongruent/STIM_007.jpg	100
2407.737	0.704	704.2	incongruent	Block3	incongruent/STIM_007.jpg	99
2412.305	0.647	647.0	incongruent	Block3	incongruent/STIM_007.jpg	100
2415.488	0.513	513.0	incongruent	Block3	incongruent/STIM_008.jpg	99
2418.992	0.845	844.9	incongruent	Block3	incongruent/STIM_008.jpg	100
2423.768	0.695	695.0	incongruent	Block3	incongruent/STIM_008.jpg	100
2428.342	0.681	680.9	incongruent	Block3	incongruent/STIM_008.jpg	99
2431.861	0.771	771.3	incongruent	Block3	incongruent/STIM_008.jpg	100
2435.087	0.719	718.9	incongruent	Block3	incongruent/STIM_009.jpg	100
2438.327	0.496	495.7	incongruent	Block3	incongruent/STIM_009.jpg	100
2441.53	0.566	566.3	incongruent	Block3	incongruent/STIM_009.jpg	99
2444.27	0.761	760.6	incongruent	Block3	incongruent/STIM_009.jpg	100
2447.085	0.801	800.7	incongruent	Block3	incongruent/STIM_009.jpg	99
2450.108	0.738	738.4	incongruent	Block3	incongruent/STIM_010.jpg	99
2454.763	0.743	743.4	incongruent	Block3	incongruent/STIM_010.jpg	99
2458.217	0.748	747.6	incongruent	Block3	incongruent/STIM_010.jpg	100
2461.771	0.473	473.0	incongruent	Block3	incongruent/STIM_010.jpg	99
2466.102	0.877	876.6	incongruent	Block3	incongruent/STIM_010.jpg	99
2469.131	0.913	913.2	incongruent	Block3	incongruent/STIM_011.jpg	99
2472.779	0.912	911.6	incongruent	Block3	incongruent/STIM_011.jpg	99
2477.05	0.757	757.3	incongruent	Block3	incongruent/STIM_011.jpg	99
2481.002	0.7	700.0	incongruent	Block3	incongruent/STIM_011.jpg	99
2484.91	0.726	726.4	incongruent	Block3	incongruent/STIM_011.jpg	100
2487.926	0.898	898.3	incongruent	Block3	incongruent/STIM_012.jpg	100
2492.809	0.739	738.9	incongruent	Block3	incongruent/STIM_012.jpg	99
2495.729	0.746	745.8	incongruent	Block3	incongruent/STIM_012.jpg	100
2499.693	0.814	813.7	incongruent	Block3	incongruent/STIM_012.jpg	99
2503.373	0.898	897.5	incongruent	Block3	incongruent/STIM_012.jpg	99
2507.717	0.591	591.3	incongruent	Block3	incongruent/STIM_013.jpg	99
2511.545	0.759	758.8	incongruent	Block3	incongruent/STIM_013.jpg	100
2515.171	0.996	995.9	incongruent	Block3	incongruent/STIM_013.jpg	99
2519.989	0.702	702.0	incongruent	Block3	incongruent/STIM_013.jpg	99
2524.596	0.86	860.3	incongruent	Block3	incongruent/STIM_013.jpg	99
2528.747	0.882	881.8	incongruent	Block3	incongruent/STIM_014.jpg	99
2532.245	0.962	962.2	incongruent	Block3	incongruent/STIM_014.jpg	99
2536.754	0.877	876.6	incongruent	Block3	incongruent/STIM_014.jpg	100
2541.23	0.477	476.9	incongruent	Block3	incongruent/STIM_014.jpg	100
2544.082	0.616	616.4	incongruent	Block3	incongruent/STIM_014.jpg	100
2547.599	0.989	988.9	incongruent	Block3	incongruent/STIM_015.jpg	100
2551.88	0.952	952.3	incongruent	Block3	incongruent/STIM_015.jpg	100
2555.278	0.838	837.6	incongruent	Block3	incongruent/STIM_015.jpg	100
2560.147	0.589	588.7	incongruent	Block3	incongruent/STIM_015.jpg	99
2564.141	0.648	648.2	incongruent	Block3	incongruent/STIM_015.jpg	99
2567.746	0.806	806.0	incongruent	Block3	incongruent/STIM_016.jpg	100
2572.413	0.683	682.8	incongruent	Block3	incongruent/STIM_016.jpg	99
2576.326	0.894	893.6	incongruent	Block3	incongruent/STIM_016.jpg	99
2580.877	0.546	546.0	incongruent	Block3	incongruent/STIM_016.jpg	100
2585.13	0.478	478.1	incongruent	Block3	incongruent/STIM_016.jpg	99
2587.976	0.708	708.4	incongruent	Block3	incongruent/STIM_017.jpg	99
2590.975	0.477	476.9	incongruent	Block3	incongruent/STIM_017.jpg	99
2593.908	0.526	525.7	incongruent	Block3	incongruent/STIM_017.jpg	99
2597.312	0.687	687.4	incongruent	Block3	incongruent/STIM_017.jpg	99
2601.92	0.468	467.5	incongruent	Block3	incongruent/STIM_017.jpg	99
2605.29	0.567	567.1	incongruent	Block3	incongruent/STIM_018.jpg	99
2609.457	0.503	503.5	incongruent	Block3	incongruent/STIM_018.jpg	99
2612.422	0.467	466.9	incongruent	Block3	incongruent/STIM_018.jpg	99
2615.867	0.511	510.6	incongruent	Block3	incongruent/STIM_018.jpg	99
2619.442	0.738	737.5	incongruent	Block3	incongruent/STIM_018.jpg	100
2622.371	0.692	691.9	incongruent	Block3	incongruent/STIM_019.jpg	99
2625.384	0.955	955.2	incongruent	Block3	incongruent/STIM_019.jpg	100
2630.291	0.853	852.7	incongruent	Block3	incongruent/STIM_019.jpg	100
2634.932	0.659	659.4	incongruent	Block3	incongruent/STIM_019.jpg	100
2638.794	0.582	581.7	incongruent	Block3	incongruent/STIM_019.jpg	100
2642.33	0.941	940.7	incongruent	Block3	incongruent/STIM_020.jpg	99
2646.656	0.66	659.6	incongruent	Block3	incongruent/STIM_020.jpg	100
2650.33	0.627	626.6	incongruent	Block3	incongruent/STIM_020.jpg	100
2654.509	0.762	762.4	incongruent	Block3	incongruent/STIM_020.jpg	100
2657.753	0.648	648.2	incongruent	Block3	incongruent/STIM_020.jpg	99
2661.747	0.539	539.3	incongruent	Block3	incongruent/STIM_021.jpg	99
2665.44	0.841	841.0	incongruent	Block3	incongruent/STIM_021.jpg	99
2668.342	0.939	939.2	incongruent	Block3	incongruent/STIM_021.jpg	100
2672.608	0.907	906.7	incongruent	Block3	incongruent/STIM_021.jpg	100
2676.197	0.863	863.1	incongruent	Block3	incongruent/STIM_021.jpg	100
2679.632	0.859	858.9	incongruent	Block3	incongruent/STIM_022.jpg	99
2683.686	0.633	632.8	incongruent	Block3	incongruent/STIM_022.jpg	99
2687.344	0.703	703.3	incongruent	Block3	incongruent/STIM_022.jpg	99
2690.324	0.484	483.8	incongruent	Block3	incongruent/STIM_022.jpg	100
2694.074	0.61	610.0	incongruent	Block3	incongruent/STIM_022.jpg	99
2697.07	0.837	836.8	incongruent	Block3	incongruent/STIM_023.jpg	99
2701.444	0.763	762.6	incongruent	Block3	incongruent/STIM_023.jpg	100
2705.084	0.754	754.2	incongruent	Block3	incongruent/STIM_023.jpg	100
2708.37	0.712	711.8	incongruent	Block3	incongruent/STIM_023.jpg	100
2712.521	0.799	799.3	incongruent	Block3	incongruent/STIM_023.jpg	99
2717.121	0.596	595.5	incongruent	Block3	incongruent/STIM_024.jpg	100
2720.365	0.737	737.4	incongruent	Block3	incongruent/STIM_024.jpg	99
2723.586	0.73	730.0	incongruent	Block3	incongruent/STIM_024.jpg	100
2728.251	0.807	806.8	incongruent	Block3	incongruent/STIM_024.jpg	99
2732.103	0.796	795.9	incongruent	Block3	incongruent/STIM_024.jpg	100
2736.661	0.871	870.9	incongruent	Block3	incongruent/STIM_025.jpg	100
2740.891	0.916	916.1	incongruent	Block3	incongruent/STIM_025.jpg	100
2744.564	0.923	922.6	incongruent	Block3	incongruent/STIM_025.jpg	100
2747.694	0.906	905.8	incongruent	Block3	incongruent/STIM_025.jpg	99
2750.751	0.845	844.6	incongruent	Block3	incongruent/STIM_025.jpg	99
2755.206	0.674	674.1	incongruent	Block3	incongruent/STIM_026.jpg	99
2759.727	0.665	665.3	incongruent	Block3	incongruent/STIM_026.jpg	100
2763.833	0.514	513.5	incongruent	Block3	incongruent/STIM_026.jpg	100
2766.981	0.588	587.7	incongruent	Block3	incongruent/STIM_026.jpg	100
2770.304	0.608	608.4	incongruent	Block3	incongruent/STIM_026.jpg	100
2774.31	0.572	571.6	incongruent	Block3	incongruent/STIM_027.jpg	99
2778.753	0.8	800.2	incongruent	Block3	incongruent/STIM_027.jpg	100
2783.259	0.764	763.5	incongruent	Block3	incongruent/STIM_027.jpg	99
2786.668	0.792	791.6	incongruent	Block3	incongruent/STIM_027.jpg	99
2790.462	0.931	931.1	incongruent	Block3	incongruent/STIM_027.jpg	100
2794.644	0.782	782.0	incongruent	Block3	incongruent/STIM_028.jpg	100
2799.179	0.473	473.3	incongruent	Block3	incongruent/STIM_028.jpg	99
2803.516	0.69	690.5	incongruent	Block3	incongruent/STIM_028.jpg	100
2807.232	0.47	470.5	incongruent	Block3	incongruent/STIM_028.jpg	99
2811.497	0.955	954.8	incongruent	Block3	incongruent/STIM_028.jpg	100
2816.111	0.536	535.8	incongruent	Block3	incongruent/STIM_029.jpg	100
2819.964	0.857	857.3	incongruent	Block3	incongruent/STIM_029.jpg	100
2824.087	0.675	675.0	incongruent	Block3	incongruent/STIM_029.jpg	99
2827.792	0.895	895.4	incongruent	Block3	incongruent/STIM_029.jpg	100
2831.488	0.742	741.9	incongruent	Block3	incongruent/STIM_029.jpg	99
2835.777	0.765	765.2	congruent	Block3	congruent/STIM_000.jpg	100
2840.134	0.554	553.6	congruent	Block3	congruent/STIM_000.jpg	100
2843.818	0.589	588.6	congruent	Block3	congruent/STIM_000.jpg	100
2848.158	0.62	619.6	congruent	Block3	congruent/STIM_000.jpg	99
2851.73	0.663	663.2	congruent	Block3	congruent/STIM_000.jpg	99
2854.454	0.61	610.2	congruent	Block3	congruent/STIM_001.jpg	99
2857.784	0.624	624.2	congruent	Block3	congruent/STIM_001.jpg	99
2860.94	0.831	831.1	congruent	Block3	congruent/STIM_001.jpg	99
2864.066	0.548	547.7	congruent	Block3	congruent/STIM_001.jpg	100
2867.205	0.51	510.3	congruent	Block3	congruent/STIM_001.jpg	100
2870.654	0.649	649.0	congruent	Block3	congruent/STIM_002.jpg	100
2873.633	0.522	521.9	congruent	Block3	congruent/STIM_002.jpg	100
2878.008	0.758	758.1	congruent	Block3	congruent/STIM_002.jpg	100
2880.946	0.742	741.6	congruent	Block3	congruent/STIM_002.jpg	100
2883.845	0.517	516.8	congruent	Block3	congruent/STIM_002.jpg	99
2886.848	0.817	817.3	congruent	Block3	congruent/STIM_003.jpg	100
2891.567	0.481	480.9	congruent	Block3	congruent/STIM_003.jpg	99
2895.899	0.679	679.2	congruent	Block3	congruent/STIM_003.jpg	100
2899.093	0.493	492.9	congruent	Block3	congruent/STIM_003.jpg	99
2901.963	0.642	641.6	congruent	Block3	congruent/STIM_003.jpg	99
2905.775	0.668	667.6	congruent	Block3	congruent/STIM_004.jpg	100
2909.217	0.61	610.1	congruent	Block3	congruent/STIM_004.jpg	99
2913.286	0.698	697.8	congruent	Block3	congruent/STIM_004.jpg	99
2916.455	0.79	790.3	congruent	Block3	congruent/STIM_004.jpg	99
2920.76	0.608	607.9	congruent	Block3	congruent/STIM_004.jpg	99
2923.504	0.765	765.0	congruent	Block3	congruent/STIM_005.jpg	99
2926.994	0.519	519.3	congruent	Block3	congruent/STIM_005.jpg	100
2931.457	0.593	592.9	congruent	Block3	congruent/STIM_005.jpg	100
2935.627	0.654	653.8	congruent	Block3	congruent/STIM_005.jpg	100
2938.735	0.625	624.9	congruent	Block3	congruent/STIM_005.jpg	99
2943.13	0.532	531.7	congruent	Block3	congruent/STIM_006.jpg	100
2946.656	0.636	636.2	congruent	Block3	congruent/STIM_006.jpg	100
2951.056	0.814	814.3	congruent	Block3	congruent/STIM_006.jpg	99
2954.272	0.639	638.9	congruent	Block3	congruent/STIM_006.jpg	100
2957.736	0.816	815.6	congruent	Block3	congruent/STIM_006.jpg	99
2961.054	0.588	587.7	congruent	Block3	congruent/STIM_007.jpg	99
2964.131	0.826	825.7	congruent	Block3	congruent/STIM_007.jpg	100
2968.636	0.607	606.6	congruent	Block3	congruent/STIM_007.jpg	100
2972.352	0.65	649.9	congruent	Block3	congruent/STIM_007.jpg	100
2975.771	0.831	830.9	congruent	Block3	congruent/STIM_007.jpg	99
2979.786	0.841	841.0	congruent	Block3	congruent/STIM_008.jpg	100
2983.222	0.578	577.7	congruent	Block3	congruent/STIM_008.jpg	100
2987.349	0.813	813.4	congruent	Block3	congruent/STIM_008.jpg	100
2990.481	0.538	538.0	congruent	Block3	congruent/STIM_008.jpg	99
2993.798	0.759	759.2	congruent	Block3	congruent/STIM_008.jpg	99
2997.056	0.522	521.7	congruent	Block3	congruent/STIM_009.jpg	99
2999.736	0.633	633.2	congruent	Block3	congruent/STIM_009.jpg	100
3004.268	0.546	545.7	congruent	Block3	congruent/STIM_009.jpg	100
3007.573	0.51	510.3	congruent	Block3	congruent/STIM_009.jpg	99
3010.871	0.608	608.2	congruent	Block3	congruent/STIM_009.jpg	99
3013.904	0.597	597.2	congruent	Block3	congruent/STIM_010.jpg	100
3017.497	0.801	801.1	congruent	Block3	congruent/STIM_010.jpg	99
3021.188	0.826	825.6	congruent	Block3	congruent/STIM_010.jpg	99
3025.029	0.764	764.0	congruent	Block3	congruent/STIM_010.jpg	99
3029.192	0.766	766.0	congruent	Block3	congruent/STIM_010.jpg	99
3032.695	0.841	841.1	congruent	Block3	congruent/STIM_011.jpg	100
3037.237	0.677	677.3	congruent	Block3	congruent/STIM_011.jpg	99
3041.852	0.57	569.8	congruent	Block3	congruent/STIM_011.jpg	99
3044.466	0.618	618.3	congruent	Block3	congruent/STIM_011.jpg	99
3047.383	0.686	685.7	congruent	Block3	congruent/STIM_011.jpg	99
3052.036	0.664	663.9	congruent	Block3	congruent/STIM_012.jpg	99
3056.426	0.661	661.4	congruent	Block3	congruent/STIM_012.jpg	99
3060.414	0.846	846.3	congruent	Block3	congruent/STIM_012.jpg	100
3063.722	0.603	603.4	congruent	Block3	congruent/STIM_012.jpg	99
3067.203	0.743	743.3	congruent	Block3	congruent/STIM_012.jpg	99
3071.963	0.792	792.5	congruent	Block3	congruent/STIM_013.jpg	100
3076.106	0.531	530.6	congruent	Block3	congruent/STIM_013.jpg	99
3080.634	0.607	607.2	congruent	Block3	congruent/STIM_013.jpg	99
3083.597	0.582	582.2	congruent	Block3	congruent/STIM_013.jpg	99
3087.153	0.642	642.4	congruent	Block3	congruent/STIM_013.jpg	100
3090.742	0.745	745.2	congruent	Block3	congruent/STIM_014.jpg	99
3095.068	0.599	598.9	congruent	Block3	congruent/STIM_014.jpg	99
3097.716	0.659	659.0	congruent	Block3	congruent/STIM_014.jpg	99
3101.117	0.488	488.4	congruent	Block3	congruent/STIM_014.jpg	99
3103.925	0.739	738.9	congruent	Block3	congruent/STIM_014.jpg	100
3106.869	0.604	604.1	congruent	Block3	congruent/STIM_015.jpg	100
3111.002	0.833	832.7	congruent	Block3	congruent/STIM_015.jpg	99
3113.924	0.764	763.9	congruent	Block3	congruent/STIM_015.jpg	100
3117.171	0.79	789.8	congruent	Block3	congruent/STIM_015.jpg	100
3121.086	0.716	716.1	congruent	Block3	congruent/STIM_015.jpg	99
3125.537	0.748	747.5	congruent	Block3	congruent/STIM_016.jpg	99
3128.367	0.72	720.5	congruent	Block3	congruent/STIM_016.jpg	100
3132.9	0.78	779.7	congruent	Block3	congruent/STIM_016.jpg	100
3136.827	0.555	555.2	congruent	Block3	congruent/STIM_016.jpg	100
3139.939	0.626	626.1	congruent	Block3	congruent/STIM_016.jpg	100
3144.157	0.516	516.0	congruent	Block3	congruent/STIM_017.jpg	100
3148.569	0.742	742.4	congruent	Block3	congruent/STIM_017.jpg	99
3153.133	0.551	551.1	congruent	Block3	congruent/STIM_017.jpg	99
3156.785	0.613	613.3	congruent	Block3	congruent/STIM_017.jpg	100
3160.451	0.722	722.4	congruent	Block3	congruent/STIM_017.jpg	99
3163.981	0.793	793.0	congruent	Block3	congruent/STIM_018.jpg	100
3167.099	0.483	483.3	congruent	Block3	congruent/STIM_018.jpg	100
3169.941	0.791	790.8	congruent	Block3	congruent/STIM_018.jpg	100
3173.47	0.608	607.7	congruent	Block3	congruent/STIM_018.jpg	99
3177.923	0.635	635.3	congruent	Block3	congruent/STIM_018.jpg	99
3181.164	0.776	776.2	congruent	Block3	congruent/STIM_019.jpg	99
3185.06	0.529	529.3	congruent	Block3	congruent/STIM_019.jpg	99
3188.477	0.682	682.2	congruent	Block3	congruent/STIM_019.jpg	99
3191.765	0.851	851.4	congruent	Block3	congruent/STIM_019.jpg	100
3196.227	0.688	687.7	congruent	Block3	congruent/STIM_019.jpg	99
3199.99	0.76	760.4	congruent	Block3	congruent/STIM_020.jpg	99
3203.308	0.624	623.7	congruent	Block3	congruent/STIM_020.jpg	100
3206.605	0.627	627.0	congruent	Block3	congruent/STIM_020.jpg	99
3209.555	0.846	846.1	congruent	Block3	congruent/STIM_020.jpg	100
3212.623	0.599	599.4	congruent	Block3	congruent/STIM_020.jpg	100
3216.405	0.576	575.6	congruent	Block3	congruent/STIM_021.jpg	99
3220.177	0.637	637.3	congruent	Block3	congruent/STIM_021.jpg	99
3222.87	0.627	626.6	congruent	Block3	congruent/STIM_021.jpg	100
3227.19	0.542	542.0	congruent	Block3	congruent/STIM_021.jpg	99
3230.947	0.572	572.4	congruent	Block3	congruent/STIM_021.jpg	99
3234.682	0.656	655.6	congruent	Block3	congruent/STIM_022.jpg	100
3237.561	0.667	667.0	congruent	Block3	congruent/STIM_022.jpg	100
3241.014	0.511	511.5	congruent	Block3	congruent/STIM_022.jpg	99
3244.413	0.809	808.7	congruent	Block3	congruent/STIM_022.jpg	99
3248.529	0.543	542.6	congruent	Block3	congruent/STIM_022.jpg	100
3251.15	0.818	817.5	congruent	Block3	congruent/STIM_023.jpg	99
3254.67	0.708	707.9	congruent	Block3	congruent/STIM_023.jpg	99
3257.91	0.806	805.5	congruent	Block3	congruent/STIM_023.jpg	99
3261.689	0.736	736.1	congruent	Block3	congruent/STIM_023.jpg	99
3265.138	0.631	631.0	congruent	Block3	congruent/STIM_023.jpg	99
3269.534	0.55	549.5	congruent	Block3	congruent/STIM_024.jpg	100
3273.103	0.541	540.9	congruent	Block3	congruent/STIM_024.jpg	99
3277.151	0.717	716.8	congruent	Block3	congruent/STIM_024.jpg	99
3281.643	0.517	517.4	congruent	Block3	congruent/STIM_024.jpg	99
3286.041	0.527	526.9	congruent	Block3	congruent/STIM_024.jpg	99
3290.017	0.59	590.5	congruent	Block3	congruent/STIM_025.jpg	100
3292.745	0.548	547.8	congruent	Block3	congruent/STIM_025.jpg	100
3295.379	0.724	724.3	congruent	Block3	congruent/STIM_025.jpg	99
3299.804	0.816	815.5	congruent	Block3	congruent/STIM_025.jpg	100
3304.199	0.478	477.9	congruent	Block3	congruent/STIM_025.jpg	100
3308.229	0.671	671.3	congruent	Block3	congruent/STIM_026.jpg	99
3312.9	0.764	764.0	congruent	Block3	congruent/STIM_026.jpg	99
3316.993	0.677	676.7	congruent	Block3	congruent/STIM_026.jpg	100
3320.403	0.61	610.1	congruent	Block3	congruent/STIM_026.jpg	100
3323.551	0.573	572.6	congruent	Block3	congruent/STIM_026.jpg	100
3327.299	0.808	808.1	congruent	Block3	congruent/STIM_027.jpg	100
3330.295	0.658	657.7	congruent	Block3	congruent/STIM_027.jpg	99
3334.276	0.727	726.9	congruent	Block3	congruent/STIM_027.jpg	100
3337.641	0.678	678.0	congruent	Block3	congruent/STIM_027.jpg	100
3342.225	0.544	544.0	congruent	Block3	congruent/STIM_027.jpg	99
3345.647	0.585	585.3	congruent	Block3	congruent/STIM_028.jpg	100
3348.284	0.725	725.0	congruent	Block3	congruent/STIM_028.jpg	100
3351.812	0.776	776.5	congruent	Block3	congruent/STIM_028.jpg	100
3355.618	0.674	674.5	congruent	Block3	congruent/STIM_028.jpg	100
3359.066	0.531	530.7	congruent	Block3	congruent/STIM_028.jpg	99
3362.629	0.665	665.1	congruent	Block3	congruent/STIM_029.jpg	100
3367.274	0.727	727.1	congruent	Block3	congruent/STIM_029.jpg	99
3371.82	0.567	567.0	congruent	Block3	congruent/STIM_029.jpg	100
3375.642	0.808	808.4	congruent	Block3	congruent/STIM_029.jpg	99
3379.147	0.698	698.2	congruent	Block3	congruent/STIM_029.jpg	100
