onset	duration	response_time_ms	trial_type	learning_stage	stimulus	response_port
0.0	0.996	996.1	incongruent	Block1	incongruent/STIM_000.jpg	99
4.703	1.488	1488.4	incongruent	Block1	incongruent/STIM_000.jpg	99
9.444	0.864	863.6	incongruent	Block1	incongruent/STIM_000.jpg	99
14.207	1.132	1132.4	incongruent	Block1	incongruent/STIM_000.jpg	100
17.741	0.893	893.2	incongruent	Block1	incongruent/STIM_000.jpg	100
22.601	1.22	1219.8	incongruent	Block1	incongruent/STIM_001.jpg	100
27.178	1.061	1061.1	incongruent	Block1	incongruent/STIM_001.jpg	100
30.321	0.704	704.0	incongruent	Block1	incongruent/STIM_001.jpg	100
33.734	0.81	809.5	incongruent	Block1	incongruent/STIM_001.jpg	99
38.388	1.174	1174.4	incongruent	Block1	incongruent/STIM_001.jpg	100
43.56	0.982	981.5	incongruent	Block1	incongruent/STIM_002.jpg	100
47.594	0.889	888.7	incongruent	Block1	incongruent/STIM_002.jpg	99
51.407	1.085	1084.7	incongruent	Block1	incongruent/STIM_002.jpg	99
54.82	0.945	944.7	incongruent	Block1	incongruent/STIM_002.jpg	99
58.219	0.772	771.5	incongruent	Block1	incongruent/STIM_002.jpg	100
61.567	1.537	1537.2	incongruent	Block1	incongruent/STIM_003.jpg	100
66.747	0.89	889.7	incongruent	Block1	incongruent/STIM_003.jpg	99
69.774	0.871	870.7	incongruent	Block1	incongruent/STIM_003.jpg	99
74.632	1.268	1267.7	incongruent	Block1	incongruent/STIM_003.jpg	100
78.155	1.103	1103.3	incongruent	Block1	incongruent/STIM_003.jpg	99
83.146	1.523	1522.9	incongruent	Block1	incongruent/STIM_004.jpg	100
87.898	1.107	1107.4	incongruent	Block1	incongruent/STIM_004.jpg	100
91.683	1.445	1445.3	incongruent	Block1	incongruent/STIM_004.jpg	99
96.095	0.997	996.6	incongruent	Block1	incongruent/STIM_004.jpg	100
101.069	0.837	836.9	incongruent	Block1	incongruent/STIM_004.jpg	100
105.022	0.805	804.7	incongruent	Block1	incongruent/STIM_005.jpg	99
109.322	1.051	1051.0	incongruent	Block1	incongruent/STIM_005.jpg	99
114.269	1.117	1117.0	incongruent	Block1	incongruent/STIM_005.jpg	100
119.264	0.909	908.9	incongruent	Block1	incongruent/STIM_005.jpg	100
123.656	1.074	1073.7	incongruent	Block1	incongruent/STIM_005.jpg	99
128.266	1.456	1455.8	incongruent	Block1	incongruent/STIM_006.jpg	99
132.638	1.035	1035.3	incongruent	Block1	incongruent/STIM_006.jpg	99
137.563	0.942	941.6	incongruent	Block1	incongruent/STIM_006.jpg	99
140.814	1.053	1053.2	incongruent	Block1	incongruent/STIM_006.jpg	100
145.801	0.735	734.9	incongruent	Block1	incongruent/STIM_006.jpg	100
149.878	1.254	1254.4	incongruent	Block1	incongruent/STIM_007.jpg	99
153.221	1.079	1079.1	incongruent	Block1	incongruent/STIM_007.jpg	99
156.478	0.965	965.2	incongruent	Block1	incongruent/STIM_007.jpg	100
160.161	1.249	1248.8	incongruent	Block1	incongruent/STIM_007.jpg	99
164.722	1.024	1024.5	incongruent	Block1	incongruent/STIM_007.jpg	100
168.391	1.041	1040.9	incongruent	Block1	incongruent/STIM_008.jpg	99
172.271	1.338	1338.3	incongruent	Block1	incongruent/STIM_008.jpg	100
177.559	1.375	1375.2	incongruent	Block1	incongruent/STIM_008.jpg	100
182.316	0.928	927.8	incongruent	Block1	incongruent/STIM_008.jpg	99
185.816	0.737	737.2	incongruent	Block1	incongruent/STIM_008.jpg	100
188.556	1.366	1366.3	incongruent	Block1	incongruent/STIM_009.jpg	99
192.722	1.179	1179.3	incongruent	Block1	incongruent/STIM_009.jpg	99
197.168	0.846	845.6	incongruent	Block1	incongruent/STIM_009.jpg	100
200.04	0.8	800.5	incongruent	Block1	incongruent/STIM_009.jpg	100
204.801	1.1	1099.6	incongruent	Block1	incongruent/STIM_009.jpg	100
208.257	0.858	858.4	incongruent	Block1	incongruent/STIM_010.jpg	100
212.048	0.801	801.2	incongruent	Block1	incongruent/STIM_010.jpg	100
214.901	1.091	1090.6	incongruent	Block1	incongruent/STIM_010.jpg	100
218.191	1.11	1109.5	incongruent	Block1	incongruent/STIM_010.jpg	100
222.534	0.961	960.9	incongruent	Block1	incongruent/STIM_010.jpg	99
227.253	1.121	1121.0	incongruent	Block1	incongruent/STIM_011.jpg	99
231.45	1.409	1408.9	incongruent	Block1	incongruent/STIM_011.jpg	100
235.937	1.215	1215.1	incongruent	Block1	incongruent/STIM_011.jpg	100
240.59	0.871	870.6	incongruent	Block1	incongruent/STIM_011.jpg	100
244.309	1.012	1011.6	incongruent	Block1	incongruent/STIM_011.jpg	100
249.202	1.503	1502.7	incongruent	Block1	incongruent/STIM_012.jpg	100
254.664	1.552	1552.2	incongruent	Block1	incongruent/STIM_012.jpg	100
260.129	1.135	1135.0	incongruent	Block1	incongruent/STIM_012.jpg	100
264.633	0.949	949.3	incongruent	Block1	incongruent/STIM_012.jpg	100
269.242	1.02	1020.2	incongruent	Block1	incongruent/STIM_012.jpg	99
273.402	1.19	1189.8	incongruent	Block1	incongruent/STIM_013.jpg	100
277.703	1.172	1171.9	incongruent	Block1	incongruent/STIM_013.jpg	100
281.794	0.973	972.7	incongruent	Block1	incongruent/STIM_013.jpg	100
285.6	0.91	910.0	incongruent	Block1	incongruent/STIM_013.jpg	99
289.343	1.132	1131.6	incongruent	Block1	incongruent/STIM_013.jpg	100
293.689	1.166	1166.4	incongruent	Block1	incongruent/STIM_014.jpg	100
298.696	1.418	1417.8	incongruent	Block1	incongruent/STIM_014.jpg	100
303.371	0.809	808.6	incongruent	Block1	incongruent/STIM_014.jpg	100
306.248	0.948	947.5	incongruent	Block1	incongruent/STIM_014.jpg	100
310.526	0.876	876.1	incongruent	Block1	incongruent/STIM_014.jpg	100
314.461	0.876	875.8	incongruent	Block1	incongruent/STIM_015.jpg	100
317.631	1.55	1550.1	incongruent	Block1	incongruent/STIM_015.jpg	100
322.031	1.473	1472.9	incongruent	Block1	incongruent/STIM_015.jpg	100
326.582	1.329	1328.9	incongruent	Block1	incongruent/STIM_015.jpg	99
331.399	0.858	857.5	incongruent	Block1	incongruent/STIM_015.jpg	100
335.684	1.275	1274.8	incongruent	Block1	incongruent/STIM_016.jpg	100
340.301	1.476	1475.6	incongruent	Block1	incongruent/STIM_016.jpg	99
344.62	0.962	961.7	incongruent	Block1	incongruent/STIM_016.jpg	99
349.09	1.061	1060.7	incongruent	Block1	incongruent/STIM_016.jpg	100
353.98	1.232	1231.7	incongruent	Block1	incongruent/STIM_016.jpg	99
358.313	1.658	1658.1	incongruent	Block1	incongruent/STIM_017.jpg	100
362.261	1.058	1057.9	incongruent	Block1	incongruent/STIM_017.jpg	100
366.244	0.733	733.1	incongruent	Block1	incongruent/STIM_017.jpg	99
370.549	1.327	1327.3	incongruent	Block1	incongruent/STIM_017.jpg	100
375.03	0.841	840.6	incongruent	Block1	incongruent/STIM_017.jpg	100
378.172	1.438	1438.4	incongruent	Block1	incongruent/STIM_018.jpg	99
383.437	1.492	1492.4	incongruent	Block1	incongruent/STIM_018.jpg	99
388.89	0.765	765.3	incongruent	Block1	incongruent/STIM_018.jpg	100
393.631	1.295	1294.6	incongruent	Block1	incongruent/STIM_018.jpg	100
397.102	1.097	1097.3	incongruent	Block1	incongruent/STIM_018.jpg	99
401.783	1.002	1001.5	incongruent	Block1	incongruent/STIM_019.jpg	100
405.53	0.888	887.5	incongruent	Block1	incongruent/STIM_019.jpg	99
408.767	0.881	881.1	incongruent	Block1	incongruent/STIM_019.jpg	99
412.032	0.804	804.4	incongruent	Block1	incongruent/STIM_019.jpg	100
415.762	0.675	675.2	incongruent	Block1	incongruent/STIM_019.jpg	100
419.85	1.354	1353.5	incongruent	Block1	incongruent/STIM_020.jpg	99
424.882	1.081	1081.0	incongruent	Block1	incongruent/STIM_020.jpg	99
428.919	1.455	1454.9	incongruent	Block1	incongruent/STIM_020.jpg	100
433.509	1.003	1002.8	incongruent	Block1	incongruent/STIM_020.jpg	100
438.198	0.66	659.6	incongruent	Block1	incongruent/STIM_020.jpg	100
441.757	1.058	1058.2	incongruent	Block1	incongruent/STIM_021.jpg	100
445.735	1.294	1294.2	incongruent	Block1	incongruent/STIM_021.jpg	100
450.743	0.942	941.6	incongruent	Block1	incongruent/STIM_021.jpg	100
455.156	1.21	1209.9	incongruent	Block1	incongruent/STIM_021.jpg	99
458.371	0.837	836.6	incongruent	Block1	incongruent/STIM_021.jpg	99
463.151	1.524	1524.2	incongruent	Block1	incongruent/STIM_022.jpg	100
466.703	1.508	1508.2	incongruent	Block1	incongruent/STIM_022.jpg	99
470.721	1.023	1023.4	incongruent	Block1	incongruent/STIM_022.jpg	99
474.081	1.088	1088.4	incongruent	Block1	incongruent/STIM_022.jpg	100
477.278	0.933	933.4	incongruent	Block1	incongruent/STIM_022.jpg	99
481.249	0.91	909.9	incongruent	Block1	incongruent/STIM_023.jpg	100
485.061	1.576	1575.5	incongruent	Block1	incongruent/STIM_023.jpg	99
489.476	0.994	993.8	incongruent	Block1	incongruent/STIM_023.jpg	100
494.151	1.211	1210.7	incongruent	Block1	incongruent/STIM_023.jpg	100
499.264	0.692	691.7	incongruent	Block1	incongruent/STIM_023.jpg	99
502.029	1.055	1054.9	incongruent	Block1	incongruent/STIM_024.jpg	99
505.836	1.239	1239.2	incongruent	Block1	incongruent/STIM_024.jpg	99
510.942	1.304	1303.8	incongruent	Block1	incongruent/STIM_024.jpg	99
515.053	0.99	989.6	incongruent	Block1	incongruent/STIM_024.jpg	99
519.563	1.316	1316.3	incongruent	Block1	incongruent/STIM_024.jpg	100
523.863	1.065	1064.6	incongruent	Block1	incongruent/STIM_025.jpg	99
528.06	1.57	1570.1	incongruent	Block1	incongruent/STIM_025.jpg	100
532.024	0.898	898.0	incongruent	Block1	incongruent/STIM_025.jpg	100
536.308	1.05	1049.7	incongruent	Block1	incongruent/STIM_025.jpg	100
540.211	1.121	1120.8	incongruent	Block1	incongruent/STIM_025.jpg	100
544.277	1.034	1034.4	incongruent	Block1	incongruent/STIM_026.jpg	100
548.948	1.445	1444.6	incongruent	Block1	incongruent/STIM_026.jpg	100
553.028	1.044	1043.8	incongruent	Block1	incongruent/STIM_026.jpg	100
558.051	1.289	1288.9	incongruent	Block1	incongruent/STIM_026.jpg	99
562.077	1.319	1318.9	incongruent	Block1	incongruent/STIM_026.jpg	99
566.769	1.483	1483.3	incongruent	Block1	incongruent/STIM_027.jpg	100
570.403	0.869	868.9	incongruent	Block1	incongruent/STIM_027.jpg	99
574.501	1.06	1060.2	incongruent	Block1	incongruent/STIM_027.jpg	99
577.945	1.164	1163.6	incongruent	Block1	incongruent/STIM_027.jpg	100
581.976	1.117	1117.4	incongruent	Block1	incongruent/STIM_027.jpg	100
586.718	0.826	826.0	incongruent	Block1	incongruent/STIM_028.jpg	100
589.98	0.966	965.7	incongruent	Block1	incongruent/STIM_028.jpg	99
593.767	1.227	1227.0	incongruent	Block1	incongruent/STIM_028.jpg	99
597.204	0.683	683.3	incongruent	Block1	incongruent/STIM_028.jpg	99
600.809	0.826	825.5	incongruent	Block1	incongruent/STIM_028.jpg	99
605.62	1.154	1153.9	incongruent	Block1	incongruent/STIM_029.jpg	99
608.834	1.571	1571.3	incongruent	Block1	incongruent/STIM_029.jpg	100
614.211	1.029	1029.2	incongruent	Block1	incongruent/STIM_029.jpg	99
618.635	1.105	1104.7	incongruent	Block1	incongruent/STIM_029.jpg	99
623.078	0.772	771.5	incongruent	Block1	incongruent/STIM_029.jpg	100
626.598	0.909	908.6	congruent	Block1	congruent/STIM_000.jpg	99
630.242	0.864	863.5	congruent	Block1	congruent/STIM_000.jpg	99
635.062	0.826	825.8	congruent	Block1	congruent/STIM_000.jpg	100
639.069	0.881	880.7	congruent	Block1	congruent/STIM_000.jpg	99
643.932	0.71	709.5	congruent	Block1	congruent/STIM_000.jpg	99
647.947	0.878	877.5	congruent	Block1	congruent/STIM_001.jpg	100
651.324	0.701	700.8	congruent	Block1	congruent/STIM_001.jpg	99
654.178	0.798	798.2	congruent	Block1	congruent/STIM_001.jpg	99
657.472	0.995	994.8	congruent	Block1	congruent/STIM_001.jpg	100
661.76	0.863	863.3	congruent	Block1	congruent/STIM_001.jpg	99
665.78	0.972	972.0	congruent	Block1	congruent/STIM_002.jpg	99
669.227	0.677	677.3	congruent	Block1	congruent/STIM_002.jpg	99
672.203	0.678	677.7	congruent	Block1	congruent/STIM_002.jpg	100
676.658	0.74	740.4	congruent	Block1	congruent/STIM_002.jpg	100
679.447	0.607	606.9	congruent	Block1	congruent/STIM_002.jpg	100
682.39	0.788	787.9	congruent	Block1	congruent/STIM_003.jpg	100
685.597	0.611	611.0	congruent	Block1	congruent/STIM_003.jpg	100
689.328	0.784	784.3	congruent	Block1	congruent/STIM_003.jpg	100
693.627	0.962	962.1	congruent	Block1	congruent/STIM_003.jpg	99
697.656	0.775	775.3	congruent	Block1	congruent/STIM_003.jpg	99
701.449	0.636	635.8	congruent	Block1	congruent/STIM_004.jpg	100
704.345	0.99	990.4	congruent	Block1	congruent/STIM_004.jpg	99
709.136	0.963	962.7	congruent	Block1	congruent/STIM_004.jpg	99
712.619	0.637	636.6	congruent	Block1	congruent/STIM_004.jpg	100
715.626	0.936	935.8	congruent	Block1	congruent/STIM_004.jpg	99
718.594	0.849	848.9	congruent	Block1	congruent/STIM_005.jpg	100
721.891	0.688	687.6	congruent	Block1	congruent/STIM_005.jpg	99
725.996	0.784	784.5	congruent	Block1	congruent/STIM_005.jpg	99
730.596	0.718	717.9	congruent	Block1	congruent/STIM_005.jpg	99
734.547	0.917	916.7	congruent	Block1	congruent/STIM_005.jpg	99
737.871	0.922	922.4	congruent	Block1	congruent/STIM_006.jpg	99
742.443	0.81	809.8	congruent	Block1	congruent/STIM_006.jpg	100
745.515	0.811	810.6	congruent	Block1	congruent/STIM_006.jpg	100
749.122	0.842	842.2	congruent	Block1	congruent/STIM_006.jpg	100
752.932	0.865	864.6	congruent	Block1	congruent/STIM_006.jpg	99
756.8	0.954	954.1	congruent	Block1	congruent/STIM_007.jpg	99
760.15	0.874	874.0	congruent	Block1	congruent/STIM_007.jpg	99
763.45	0.692	692.5	congruent	Block1	congruent/STIM_007.jpg	100
766.415	0.776	775.8	congruent	Block1	congruent/STIM_007.jpg	99
770.431	0.664	663.8	congruent	Block1	congruent/STIM_007.jpg	100
773.554	0.76	760.2	congruent	Block1	congruent/STIM_008.jpg	100
777.299	0.763	763.3	congruent	Block1	congruent/STIM_008.jpg	100
780.713	0.977	976.9	congruent	Block1	congruent/STIM_008.jpg	99
784.336	0.847	847.0	congruent	Block1	congruent/STIM_008.jpg	100
788.939	0.588	588.4	congruent	Block1	congruent/STIM_008.jpg	99
793.079	0.766	766.3	congruent	Block1	congruent/STIM_009.jpg	100
796.444	0.91	910.3	congruent	Block1	congruent/STIM_009.jpg	99
799.934	0.878	878.1	congruent	Block1	congruent/STIM_009.jpg	100
804.429	0.897	896.6	congruent	Block1	congruent/STIM_009.jpg	99
808.198	0.812	811.5	congruent	Block1	congruent/STIM_009.jpg	99
811.906	0.955	954.7	congruent	Block1	congruent/STIM_010.jpg	99
816.058	0.58	580.5	congruent	Block1	congruent/STIM_010.jpg	99
818.988	0.645	645.1	congruent	Block1	congruent/STIM_010.jpg	99
821.998	0.681	681.3	congruent	Block1	congruent/STIM_010.jpg	99
825.61	0.668	668.5	congruent	Block1	congruent/STIM_010.jpg	99
829.158	0.816	815.5	congruent	Block1	congruent/STIM_011.jpg	99
832.684	0.854	854.1	congruent	Block1	congruent/STIM_011.jpg	100
836.927	0.767	767.0	congruent	Block1	congruent/STIM_011.jpg	100
839.741	0.604	603.7	congruent	Block1	congruent/STIM_011.jpg	99
842.577	0.909	909.1	congruent	Block1	congruent/STIM_011.jpg	99
845.647	0.657	656.8	congruent	Block1	congruent/STIM_012.jpg	99
848.579	0.696	695.9	congruent	Block1	congruent/STIM_012.jpg	100
852.929	0.805	805.2	congruent	Block1	congruent/STIM_012.jpg	100
857.187	0.835	835.2	congruent	Block1	congruent/STIM_012.jpg	100
861.135	0.738	737.5	congruent	Block1	congruent/STIM_012.jpg	99
865.031	0.983	982.7	congruent	Block1	congruent/STIM_013.jpg	100
868.028	0.975	975.2	congruent	Block1	congruent/STIM_013.jpg	100
872.861	0.909	908.6	congruent	Block1	congruent/STIM_013.jpg	99
876.637	0.769	768.7	congruent	Block1	congruent/STIM_013.jpg	100
880.554	0.805	804.7	congruent	Block1	congruent/STIM_013.jpg	99
883.641	0.777	777.4	congruent	Block1	congruent/STIM_014.jpg	100
887.422	0.884	884.2	congruent	Block1	congruent/STIM_014.jpg	99
892.108	0.94	940.4	congruent	Block1	congruent/STIM_014.jpg	100
895.822	0.963	963.3	congruent	Block1	congruent/STIM_014.jpg	100
899.648	0.727	727.3	congruent	Block1	congruent/STIM_014.jpg	99
903.065	0.574	574.0	congruent	Block1	congruent/STIM_015.jpg	100
905.917	0.966	965.5	congruent	Block1	congruent/STIM_015.jpg	100
910.771	0.798	798.1	congruent	Block1	congruent/STIM_015.jpg	99
914.143	0.728	727.6	congruent	Block1	congruent/STIM_015.jpg	100
918.297	0.964	963.8	congruent	Block1	congruent/STIM_015.jpg	100
923.144	0.598	597.9	congruent	Block1	congruent/STIM_016.jpg	99
927.535	0.956	955.8	congruent	Block1	congruent/STIM_016.jpg	100
931.252	0.59	590.5	congruent	Block1	congruent/STIM_016.jpg	99
935.638	0.609	609.3	congruent	Block1	congruent/STIM_016.jpg	99
938.588	0.631	631.4	congruent	Block1	congruent/STIM_016.jpg	99
941.616	0.556	555.9	congruent	Block1	congruent/STIM_017.jpg	100
944.522	0.926	926.1	congruent	Block1	congruent/STIM_017.jpg	99
947.599	0.917	917.0	congruent	Block1	congruent/STIM_017.jpg	100
952.18	0.583	583.2	congruent	Block1	congruent/STIM_017.jpg	99
956.308	0.646	646.5	congruent	Block1	congruent/STIM_017.jpg	100
960.531	0.673	672.8	congruent	Block1	congruent/STIM_018.jpg	100
964.448	0.882	882.1	congruent	Block1	congruent/STIM_018.jpg	99
969.165	0.566	565.5	congruent	Block1	congruent/STIM_018.jpg	99
973.258	0.554	554.5	congruent	Block1	congruent/STIM_018.jpg	99
977.462	0.805	804.6	congruent	Block1	congruent/STIM_018.jpg	100
981.316	0.691	691.3	congruent	Block1	congruent/STIM_019.jpg	100
984.522	0.889	889.1	congruent	Block1	congruent/STIM_019.jpg	99
987.859	0.98	979.7	congruent	Block1	congruent/STIM_019.jpg	100
990.99	0.758	758.4	congruent	Block1	congruent/STIM_019.jpg	99
995.124	0.839	839.0	congruent	Block1	congruent/STIM_019.jpg	100
998.746	0.594	594.5	congruent	Block1	congruent/STIM_020.jpg	100
1001.631	0.667	667.0	congruent	Block1	congruent/STIM_020.jpg	99
1004.457	0.811	811.0	congruent	Block1	congruent/STIM_020.jpg	100
1008.809	0.909	908.7	congruent	Block1	congruent/STIM_020.jpg	100
1012.447	0.694	694.1	congruent	Block1	congruent/STIM_020.jpg	100
1015.273	0.816	815.6	congruent	Block1	congruent/STIM_021.jpg	100
1019.428	0.949	949.1	congruent	Block1	congruent/STIM_021.jpg	100
1024.293	0.765	765.3	congruent	Block1	congruent/STIM_021.jpg	99
1028.082	0.559	559.2	congruent	Block1	congruent/STIM_021.jpg	100
1032.494	0.83	830.1	congruent	Block1	congruent/STIM_021.jpg	99
1035.581	0.618	617.7	congruent	Block1	congruent/STIM_022.jpg	99
1038.766	0.618	617.6	congruent	Block1	congruent/STIM_022.jpg	99
1043.197	0.634	634.0	congruent	Block1	congruent/STIM_022.jpg	100
1046.387	0.904	903.7	congruent	Block1	congruent/STIM_022.jpg	100
1049.444	0.855	854.6	congruent	Block1	congruent/STIM_022.jpg	99
1052.866	0.977	977.0	congruent	Block1	congruent/STIM_023.jpg	99
1057.02	0.965	965.3	congruent	Block1	congruent/STIM_023.jpg	99
1060.917	0.885	884.8	congruent	Block1	congruent/STIM_023.jpg	99
1064.291	0.769	769.4	congruent	Block1	congruent/STIM_023.jpg	100
1068.259	0.863	863.1	congruent	Block1	congruent/STIM_023.jpg	100
1072.785	0.952	951.8	congruent	Block1	congruent/STIM_024.jpg	100
1075.778	0.679	679.1	congruent	Block1	congruent/STIM_024.jpg	99
1078.529	0.989	988.8	congruent	Block1	congruent/STIM_024.jpg	100
1082.306	0.703	702.6	congruent	Block1	congruent/STIM_024.jpg	99
1086.641	0.717	717.0	congruent	Block1	congruent/STIM_024.jpg	100
1090.994	0.711	710.7	congruent	Block1	congruent/STIM_025.jpg	99
1094.121	0.741	741.0	congruent	Block1	congruent/STIM_025.jpg	99
1097.069	0.768	768.3	congruent	Block1	congruent/STIM_025.jpg	99
1101.11	0.76	760.1	congruent	Block1	congruent/STIM_025.jpg	100
1104.866	0.62	619.5	congruent	Block1	congruent/STIM_025.jpg	99
1109.412	0.654	654.2	congruent	Block1	congruent/STIM_026.jpg	99
1112.126	0.881	880.7	congruent	Block1	congruent/STIM_026.jpg	100
1115.82	0.988	987.5	congruent	Block1	congruent/STIM_026.jpg	100
1120.696	0.906	905.8	congruent	Block1	congruent/STIM_026.jpg	100
1125.422	0.913	913.1	congruent	Block1	congruent/STIM_026.jpg	99
1129.512	0.633	632.6	congruent	Block1	congruent/STIM_027.jpg	99
1132.559	0.888	888.5	congruent	Block1	congruent/STIM_027.jpg	99
1136.576	0.597	597.3	congruent	Block1	congruent/STIM_027.jpg	100
1139.26	0.728	728.1	congruent	Block1	congruent/STIM_027.jpg	100
1142.147	0.84	839.9	congruent	Block1	congruent/STIM_027.jpg	99
1145.903	0.64	640.5	congruent	Block1	congruent/STIM_028.jpg	99
1150.428	0.685	684.7	congruent	Block1	congruent/STIM_028.jpg	100
1153.786	0.945	945.1	congruent	Block1	congruent/STIM_028.jpg	100
1158.324	0.684	684.3	congruent	Block1	congruent/STIM_028.jpg	99
1162.297	0.93	929.9	congruent	Block1	congruent/STIM_028.jpg	99
1167.115	0.809	808.8	congruent	Block1	congruent/STIM_029.jpg	99
1171.61	0.694	694.3	congruent	Block1	congruent/STIM_029.jpg	100
1176.077	0.794	794.4	congruent	Block1	congruent/STIM_029.jpg	99
1179.357	0.675	674.9	congruent	Block1	congruent/STIM_029.jpg	100
1183.568	0.839	839.3	congruent	Block1	congruent/STIM_029.jpg	99
1188.025	0.751	751.4	incongruent	Block2	incongruent/STIM_000.jpg	100
1192.462	1.292	1292.3	incongruent	Block2	incongruent/STIM_000.jpg	100
1196.991	0.733	732.6	incongruent	Block2	incongruent/STIM_000.jpg	100
1201.297	0.855	855.2	incongruent	Block2	incongruent/STIM_000.jpg	100
1206.116	0.958	957.5	incongruent	Block2	incongruent/STIM_000.jpg	100
1210.632	0.66	659.7	incongruent	Block2	incongruent/STIM_001.jpg	99
1214.016	0.984	983.8	incongruent	Block2	incongruent/STIM_001.jpg	99
1217.52	0.921	921.0	incongruent	Block2	incongruent/STIM_001.jpg	99
1221.684	0.816	816.0	incongruent	Block2	incongruent/STIM_001.jpg	100
1224.982	1.024	1024.4	incongruent	Block2	incongruent/STIM_001.jpg	100
1229.276	1.406	1406.5	incongruent	Block2	incongruent/STIM_002.jpg	100
1233.114	1.274	1273.8	incongruent	Block2	incongruent/STIM_002.jpg	99
1238.353	0.832	832.1	incongruent	Block2	incongruent/STIM_002.jpg	99
1241.778	0.739	739.2	incongruent	Block2	incongruent/STIM_002.jpg	99
1245.793	0.902	901.9	incongruent	Block2	incongruent/STIM_002.jpg	100
1248.934	0.826	826.2	incongruent	Block2	incongruent/STIM_003.jpg	100
1253.091	1.028	1027.9	incongruent	Block2	incongruent/STIM_003.jpg	100
1256.658	0.63	630.0	incongruent	Block2	incongruent/STIM_003.jpg	99
1260.333	1.008	1008.3	incongruent	Block2	incongruent/STIM_003.jpg	99
1263.618	0.919	918.6	incongruent	Block2	incongruent/STIM_003.jpg	100
1268.396	1.038	1038.0	incongruent	Block2	incongruent/STIM_004.jpg	99
1273.137	0.952	951.5	incongruent	Block2	incongruent/STIM_004.jpg	99
1277.67	1.014	1014.5	incongruent	Block2	incongruent/STIM_004.jpg	100
1282.249	0.791	791.3	incongruent	Block2	incongruent/STIM_004.jpg	99
1285.594	1.153	1153.0	incongruent	Block2	incongruent/STIM_004.jpg	100
1290.183	0.841	840.6	incongruent	Block2	incongruent/STIM_005.jpg	99
1293.357	0.91	909.6	incongruent	Block2	incongruent/STIM_005.jpg	100
1297.596	0.682	682.0	incongruent	Block2	incongruent/STIM_005.jpg	99
1301.194	0.851	851.4	incongruent	Block2	incongruent/STIM_005.jpg	100
1305.451	0.552	551.5	incongruent	Block2	incongruent/STIM_005.jpg	100
1309.691	1.4	1399.8	incongruent	Block2	incongruent/STIM_006.jpg	99
1314.372	1.275	1274.6	incongruent	Block2	incongruent/STIM_006.jpg	100
1317.717	1.074	1073.7	incongruent	Block2	incongruent/STIM_006.jpg	100
1322.774	1.009	1009.1	incongruent	Block2	incongruent/STIM_006.jpg	100
1326.015	1.088	1088.5	incongruent	Block2	incongruent/STIM_006.jpg	100
1329.215	0.755	754.9	incongruent	Block2	incongruent/STIM_007.jpg	99
1332.388	0.967	966.9	incongruent	Block2	incongruent/STIM_007.jpg	99
1336.032	0.621	621.0	incongruent	Block2	incongruent/STIM_007.jpg	100
1339.309	0.659	659.3	incongruent	Block2	incongruent/STIM_007.jpg	99
1342.384	0.6	599.7	incongruent	Block2	incongruent/STIM_007.jpg	100
1345.557	1.28	1279.6	incongruent	Block2	incongruent/STIM_008.jpg	100
1350.499	0.826	826.2	incongruent	Block2	incongruent/STIM_008.jpg	100
1353.727	0.625	625.1	incongruent	Block2	incongruent/STIM_008.jpg	99
1357.406	1.056	1055.5	incongruent	Block2	incongruent/STIM_008.jpg	100
1360.698	1.161	1161.3	incongruent	Block2	incongruent/STIM_008.jpg	99
1364.245	1.384	1383.8	incongruent	Block2	incongruent/STIM_009.jpg	100
1369.067	0.932	932.3	incongruent	Block2	incongruent/STIM_009.jpg	99
1373.213	0.866	866.4	incongruent	Block2	incongruent/STIM_009.jpg	100
1377.822	0.65	650.2	incongruent	Block2	incongruent/STIM_009.jpg	99
1380.829	0.862	862.3	incongruent	Block2	incongruent/STIM_009.jpg	99
1385.674	1.039	1038.6	incongruent	Block2	incongruent/STIM_010.jpg	100
1389.549	0.818	817.5	incongruent	Block2	incongruent/STIM_010.jpg	99
1393.75	0.804	804.1	incongruent	Block2	incongruent/STIM_010.jpg	99
1397.684	0.891	890.9	incongruent	Block2	incongruent/STIM_010.jpg	99
1402.412	0.972	972.2	incongruent	Block2	incongruent/STIM_010.jpg	100
1406.215	1.103	1102.6	incongruent	Block2	incongruent/STIM_011.jpg	99
1410.455	0.988	987.8	incongruent	Block2	incongruent/STIM_011.jpg	100
1413.748	1.225	1224.9	incongruent	Block2	incongruent/STIM_011.jpg	100
1418.698	0.802	801.8	incongruent	Block2	incongruent/STIM_011.jpg	99
1422.728	0.751	751.0	incongruent	Block2	incongruent/STIM_011.jpg	100
1427.001	1.15	1150.0	incongruent	Block2	incongruent/STIM_012.jpg	99
1432.079	0.779	778.6	incongruent	Block2	incongruent/STIM_012.jpg	99
1434.905	0.672	671.5	incongruent	Block2	incongruent/STIM_012.jpg	100
1437.963	1.014	1013.9	incongruent	Block2	incongruent/STIM_012.jpg	100
1441.921	0.548	548.1	incongruent	Block2	incongruent/STIM_012.jpg	100
1445.796	1.255	1254.8	incongruent	Block2	incongruent/STIM_013.jpg	99
1450.62	0.755	755.2	incongruent	Block2	incongruent/STIM_013.jpg	99
1454.22	0.661	661.1	incongruent	Block2	incongruent/STIM_013.jpg	99
1457.342	0.56	559.9	incongruent	Block2	incongruent/STIM_013.jpg	100
1461.519	0.803	803.3	incongruent	Block2	incongruent/STIM_013.jpg	100
1464.52	0.926	926.0	incongruent	Block2	incongruent/STIM_014.jpg	99
1468.919	1.113	1112.9	incongruent	Block2	incongruent/STIM_014.jpg	99
1472.638	0.7	699.9	incongruent	Block2	incongruent/STIM_014.jpg	100
1476.948	0.84	839.7	incongruent	Block2	incongruent/STIM_014.jpg	99
1481.734	0.665	664.6	incongruent	Block2	incongruent/STIM_014.jpg	100
1485.545	1.376	1376.1	incongruent	Block2	incongruent/STIM_015.jpg	100
1489.456	1.318	1317.9	incongruent	Block2	incongruent/STIM_015.jpg	100
1493.315	0.685	685.0	incongruent	Block2	incongruent/STIM_015.jpg	99
1497.046	0.992	991.5	incongruent	Block2	incongruent/STIM_015.jpg	100
1500.545	0.888	888.1	incongruent	Block2	incongruent/STIM_015.jpg	100
1504.03	1.006	1005.6	incongruent	Block2	incongruent/STIM_016.jpg	100
1507.938	0.628	627.9	incongruent	Block2	incongruent/STIM_016.jpg	100
1510.881	0.791	790.9	incongruent	Block2	incongruent/STIM_016.jpg	100
1515.485	0.876	876.0	incongruent	Block2	incongruent/STIM_016.jpg	100
1519.57	0.808	807.9	incongruent	Block2	incongruent/STIM_016.jpg	99
1522.702	0.948	948.0	incongruent	Block2	incongruent/STIM_017.jpg	99
1526.852	1.043	1042.6	incongruent	Block2	incongruent/STIM_017.jpg	100
1529.912	0.785	784.8	incongruent	Block2	incongruent/STIM_017.jpg	100
1534.077	1.044	1043.9	incongruent	Block2	incongruent/STIM_017.jpg	99
1537.156	0.717	717.3	incongruent	Block2	incongruent/STIM_017.jpg	100
1540.577	1.116	1116.0	incongruent	Block2	incongruent/STIM_018.jpg	99
1544.838	1.161	1161.3	incongruent	Block2	incongruent/STIM_018.jpg	99
1549.522	1.077	1077.0	incongruent	Block2	incongruent/STIM_018.jpg	99
1552.914	0.914	913.8	incongruent	Block2	incongruent/STIM_018.jpg	99
1557.538	1.028	1027.9	incongruent	Block2	incongruent/STIM_018.jpg	100
1561.884	0.829	829.1	incongruent	Block2	incongruent/STIM_019.jpg	100
1566.579	0.811	811.4	incongruent	Block2	incongruent/STIM_019.jpg	99
1571.314	1.217	1217.0	incongruent	Block2	incongruent/STIM_019.jpg	100
1574.974	0.705	705.2	incongruent	Block2	incongruent/STIM_019.jpg	100
1578.537	1.036	1035.5	incongruent	Block2	incongruent/STIM_019.jpg	100
1583.507	0.94	940.3	incongruent	Block2	incongruent/STIM_020.jpg	99
1587.739	1.214	1213.6	incongruent	Block2	incongruent/STIM_020.jpg	99
1591.731	0.737	736.6	incongruent	Block2	incongruent/STIM_020.jpg	100
1595.937	0.807	806.9	incongruent	Block2	incongruent/STIM_020.jpg	100
1600.052	0.975	974.8	incongruent	Block2	incongruent/STIM_020.jpg	100
1603.366	1.248	1247.7	incongruent	Block2	incongruent/STIM_021.jpg	100
1606.994	0.974	973.9	incongruent	Block2	incongruent/STIM_021.jpg	100
1610.8	1.134	1134.4	incongruent	Block2	incongruent/STIM_021.jpg	100
1615.094	1.043	1043.2	incongruent	Block2	incongruent/STIM_021.jpg	100
1618.533	0.947	947.0	incongruent	Block2	incongruent/STIM_021.jpg	99
1621.942	0.872	872.3	incongruent	Block2	incongruent/STIM_022.jpg	100
1626.414	1.01	1010.0	incongruent	Block2	incongruent/STIM_022.jpg	100
1630.816	0.93	929.7	incongruent	Block2	incongruent/STIM_022.jpg	99
1634.485	0.696	695.9	incongruent	Block2	incongruent/STIM_022.jpg	99
1638.732	0.637	636.8	incongruent	Block2	incongruent/STIM_022.jpg	99
1641.949	1.41	1410.4	incongruent	Block2	incongruent/STIM_023.jpg	99
1646.452	0.75	749.8	incongruent	Block2	incongruent/STIM_023.jpg	99
1649.207	0.982	981.6	incongruent	Block2	incongruent/STIM_023.jpg	99
1653.715	0.695	695.2	incongruent	Block2	incongruent/STIM_023.jpg	99
1657.342	0.723	723.4	incongruent	Block2	incongruent/STIM_023.jpg	99
1660.168	0.924	923.9	incongruent	Block2	incongruent/STIM_024.jpg	99
1663.577	0.661	661.2	incongruent	Block2	incongruent/STIM_024.jpg	100
1666.534	1.056	1056.1	incongruent	Block2	incongruent/STIM_024.jpg	99
1670.398	1.058	1058.3	incongruent	Block2	incongruent/STIM_024.jpg	100
1674.189	0.591	591.1	incongruent	Block2	incongruent/STIM_024.jpg	99
1677.432	1.142	1141.6	incongruent	Block2	incongruent/STIM_025.jpg	99
1680.641	0.983	982.6	incongruent	Block2	incongruent/STIM_025.jpg	99
1684.289	0.965	964.9	incongruent	Block2	incongruent/STIM_025.jpg	99
1687.365	0.858	857.6	incongruent	Block2	incongruent/STIM_025.jpg	99
1690.768	1.154	1153.5	incongruent	Block2	incongruent/STIM_025.jpg	100
1695.21	1.132	1131.8	incongruent	Block2	incongruent/STIM_026.jpg	99
1699.519	0.811	811.4	incongruent	Block2	incongruent/STIM_026.jpg	99
1702.961	0.726	726.5	incongruent	Block2	incongruent/STIM_026.jpg	100
1705.71	1.039	1039.0	incongruent	Block2	incongruent/STIM_026.jpg	99
1710.173	0.635	635.1	incongruent	Block2	incongruent/STIM_026.jpg	100
1713.488	0.921	921.0	incongruent	Block2	incongruent/STIM_027.jpg	100
1717.892	1.052	1051.5	incongruent	Block2	incongruent/STIM_027.jpg	100
1721.637	1.144	1144.2	incongruent	Block2	incongruent/STIM_027.jpg	99
1724.8	1.113	1112.8	incongruent	Block2	incongruent/STIM_027.jpg	99
1728.57	0.986	986.5	incongruent	Block2	incongruent/STIM_027.jpg	100
1733.238	0.99	989.8	incongruent	Block2	incongruent/STIM_028.jpg	100
1737.148	0.999	999.2	incongruent	Block2	incongruent/STIM_028.jpg	100
1741.333	0.812	811.6	incongruent	Block2	incongruent/STIM_028.jpg	100
1745.312	0.948	948.4	incongruent	Block2	incongruent/STIM_028.jpg	99
1748.883	0.701	701.1	incongruent	Block2	incongruent/STIM_028.jpg	100
1752.843	1.025	1024.7	incongruent	Block2	incongruent/STIM_029.jpg	99
1757.5	0.656	656.3	incongruent	Block2	incongruent/STIM_029.jpg	99
1760.748	1.223	1222.6	incongruent	Block2	incongruent/STIM_029.jpg	100
1765.601	0.815	815.1	incongruent	Block2	incongruent/STIM_029.jpg	99
1768.531	0.56	560.5	incongruent	Block2	incongruent/STIM_029.jpg	100
1772.686	0.881	880.7	congruent	Block2	congruent/STIM_000.jpg	100
1777.128	0.647	646.6	congruent	Block2	congruent/STIM_000.jpg	100
1781.525	0.579	579.4	congruent	Block2	congruent/STIM_000.jpg	100
1784.458	0.581	580.8	congruent	Block2	congruent/STIM_000.jpg	100
1787.716	0.931	931.4	congruent	Block2	congruent/STIM_000.jpg	100
1790.653	0.568	568.4	congruent	Block2	congruent/STIM_001.jpg	100
1794.233	0.726	726.3	congruent	Block2	congruent/STIM_001.jpg	100
1797.023	0.614	614.2	congruent	Block2	congruent/STIM_001.jpg	99
1801.47	0.634	633.8	congruent	Block2	congruent/STIM_001.jpg	100
1805.253	0.65	649.8	congruent	Block2	congruent/STIM_001.jpg	100
1809.394	0.871	870.9	congruent	Block2	congruent/STIM_002.jpg	99
1814.217	0.67	670.4	congruent	Block2	congruent/STIM_002.jpg	99
1818.569	0.98	979.6	congruent	Block2	congruent/STIM_002.jpg	100
1822.898	0.798	798.5	congruent	Block2	congruent/STIM_002.jpg	99
1826.832	0.561	560.9	congruent	Block2	congruent/STIM_002.jpg	99
1831.019	0.748	747.8	congruent	Block2	congruent/STIM_003.jpg	100
1833.837	0.662	661.9	congruent	Block2	congruent/STIM_003.jpg	99
1837.498	0.702	702.1	congruent	Block2	congruent/STIM_003.jpg	100
1840.948	0.765	764.7	congruent	Block2	congruent/STIM_003.jpg	99
1843.729	0.597	597.3	congruent	Block2	congruent/STIM_003.jpg	100
1846.924	0.88	880.5	congruent	Block2	congruent/STIM_004.jpg	99
1851.329	0.731	730.9	congruent	Block2	congruent/STIM_004.jpg	100
1856.045	0.756	756.5	congruent	Block2	congruent/STIM_004.jpg	99
1859.33	0.561	561.1	congruent	Block2	congruent/STIM_004.jpg	99
1862.76	0.684	683.8	congruent	Block2	congruent/STIM_004.jpg	100
1865.771	0.978	977.6	congruent	Block2	congruent/STIM_005.jpg	99
1870.569	0.751	750.9	congruent	Block2	congruent/STIM_005.jpg	100
1875.151	0.577	576.9	congruent	Block2	congruent/STIM_005.jpg	100
1877.989	0.799	799.3	congruent	Block2	congruent/STIM_005.jpg	99
1881.319	0.705	705.0	congruent	Block2	congruent/STIM_005.jpg	99
1885.064	0.781	781.2	congruent	Block2	congruent/STIM_006.jpg	99
1889.146	0.691	691.0	congruent	Block2	congruent/STIM_006.jpg	100
1893.756	0.87	870.2	congruent	Block2	congruent/STIM_006.jpg	99
1898.134	0.989	989.0	congruent	Block2	congruent/STIM_006.jpg	99
1901.293	0.66	660.2	congruent	Block2	congruent/STIM_006.jpg	99
1905.637	0.923	923.3	congruent	Block2	congruent/STIM_007.jpg	99
1909.671	0.856	856.3	congruent	Block2	congruent/STIM_007.jpg	100
1912.639	0.587	587.4	congruent	Block2	congruent/STIM_007.jpg	100
1917.217	0.849	848.9	congruent	Block2	congruent/STIM_007.jpg	99
1920.859	0.981	980.7	congruent	Block2	congruent/STIM_007.jpg	100
1925.665	0.838	837.9	congruent	Block2	congruent/STIM_008.jpg	99
1929.597	0.835	835.1	congruent	Block2	congruent/STIM_008.jpg	100
1934.364	0.684	684.5	congruent	Block2	congruent/STIM_008.jpg	100
1938.379	0.629	629.0	congruent	Block2	congruent/STIM_008.jpg	100
1941.776	0.604	604.3	congruent	Block2	congruent/STIM_008.jpg	100
1945.482	0.872	871.6	congruent	Block2	congruent/STIM_009.jpg	99
1948.796	0.779	779.0	congruent	Block2	congruent/STIM_009.jpg	100
1952.305	0.87	870.4	congruent	Block2	congruent/STIM_009.jpg	99
1956.015	0.964	963.5	congruent	Block2	congruent/STIM_009.jpg	100
1960.863	0.829	829.0	congruent	Block2	congruent/STIM_009.jpg	100
1965.214	0.614	614.4	congruent	Block2	congruent/STIM_010.jpg	100
1968.292	0.842	841.6	congruent	Block2	congruent/STIM_010.jpg	100
1972.848	0.569	568.9	congruent	Block2	congruent/STIM_010.jpg	99
1975.437	0.592	592.5	congruent	Block2	congruent/STIM_010.jpg	99
1979.7	0.749	749.3	congruent	Block2	congruent/STIM_010.jpg	99
1983.935	0.865	865.0	congruent	Block2	congruent/STIM_011.jpg	100
1987.933	0.971	970.9	congruent	Block2	congruent/STIM_011.jpg	99
1992.168	0.589	589.4	congruent	Block2	congruent/STIM_011.jpg	100
1996.603	0.97	969.8	congruent	Block2	congruent/STIM_011.jpg	99
2000.627	0.675	675.0	congruent	Block2	congruent/STIM_011.jpg	99
2005.113	0.99	990.5	congruent	Block2	congruent/STIM_012.jpg	99
2008.909	0.921	921.4	congruent	Block2	congruent/STIM_012.jpg	99
2013.427	0.972	972.1	congruent	Block2	congruent/STIM_012.jpg	100
2016.533	0.651	651.1	congruent	Block2	congruent/STIM_012.jpg	100
2020.223	0.906	905.9	congruent	Block2	congruent/STIM_012.jpg	100
2023.565	0.736	736.2	congruent	Block2	congruent/STIM_013.jpg	100
2027.772	0.561	561.1	congruent	Block2	congruent/STIM_013.jpg	99
2030.769	0.833	832.8	congruent	Block2	congruent/STIM_013.jpg	100
2034.028	0.754	753.7	congruent	Block2	congruent/STIM_013.jpg	99
2037.318	0.857	857.2	congruent	Block2	congruent/STIM_013.jpg	99
2040.995	0.87	870.1	congruent	Block2	congruent/STIM_014.jpg	99
2044.308	0.676	676.1	congruent	Block2	congruent/STIM_014.jpg	100
2048.16	0.69	689.6	congruent	Block2	congruent/STIM_014.jpg	100
2052.031	0.811	811.0	congruent	Block2	congruent/STIM_014.jpg	100
2056.31	0.793	792.6	congruent	Block2	congruent/STIM_014.jpg	100
2059.557	0.977	976.9	congruent	Block2	congruent/STIM_015.jpg	99
2062.651	0.7	700.1	congruent	Block2	congruent/STIM_015.jpg	99
2066.355	0.728	727.6	congruent	Block2	congruent/STIM_015.jpg	99
2069.289	0.869	868.6	congruent	Block2	congruent/STIM_015.jpg	100
2073.71	0.836	835.7	congruent	Block2	congruent/STIM_015.jpg	100
2077.503	0.758	758.4	congruent	Block2	congruent/STIM_016.jpg	100
2081.971	0.886	886.1	congruent	Block2	congruent/STIM_016.jpg	100
2086.4	0.716	716.1	congruent	Block2	congruent/STIM_016.jpg	99
2090.011	0.556	555.6	congruent	Block2	congruent/STIM_016.jpg	99
2093.072	0.884	884.2	congruent	Block2	congruent/STIM_016.jpg	100
2096.107	0.636	636.4	congruent	Block2	congruent/STIM_017.jpg	99
2099.341	0.701	700.8	congruent	Block2	congruent/STIM_017.jpg	99
2102.705	0.871	871.3	congruent	Block2	congruent/STIM_017.jpg	99
2105.932	0.716	716.1	congruent	Block2	congruent/STIM_017.jpg	99
2109.472	0.684	684.4	congruent	Block2	congruent/STIM_017.jpg	99
2113.319	0.76	760.1	congruent	Block2	congruent/STIM_018.jpg	100
2118.005	0.877	876.7	congruent	Block2	congruent/STIM_018.jpg	99
2121.238	0.63	630.3	congruent	Block2	congruent/STIM_018.jpg	99
2124.476	0.957	956.8	congruent	Block2	congruent/STIM_018.jpg	99
2127.978	0.95	950.0	congruent	Block2	congruent/STIM_018.jpg	99
2131.059	0.989	989.4	congruent	Block2	congruent/STIM_019.jpg	100
2135.787	0.878	878.4	congruent	Block2	congruent/STIM_019.jpg	100
2139.043	0.636	636.5	congruent	Block2	congruent/STIM_019.jpg	99
2143.2	0.814	814.1	congruent	Block2	congruent/STIM_019.jpg	100
2146.189	0.841	841.3	congruent	Block2	congruent/STIM_019.jpg	99
2150.507	0.968	967.8	congruent	Block2	congruent/STIM_020.jpg	100
2154.145	0.67	669.8	congruent	Block2	congruent/STIM_020.jpg	100
2157.921	0.627	626.6	congruent	Block2	congruent/STIM_020.jpg	100
2162.389	0.703	703.3	congruent	Block2	congruent/STIM_020.jpg	100
2165.438	0.684	684.3	congruent	Block2	congruent/STIM_020.jpg	99
2169.491	0.776	776.3	congruent	Block2	congruent/STIM_021.jpg	100
2173.225	0.655	655.2	congruent	Block2	congruent/STIM_021.jpg	100
2177.3	0.876	876.3	congruent	Block2	congruent/STIM_021.jpg	100
2181.096	0.804	803.8	congruent	Block2	congruent/STIM_021.jpg	100
2184.909	0.676	676.0	congruent	Block2	congruent/STIM_021.jpg	100
2188.347	0.827	827.3	congruent	Block2	congruent/STIM_022.jpg	99
2191.825	0.916	915.8	congruent	Block2	congruent/STIM_022.jpg	99
2194.994	0.564	564.3	congruent	Block2	congruent/STIM_022.jpg	100
2198.679	0.641	640.6	congruent	Block2	congruent/STIM_022.jpg	99
2203.181	0.65	649.8	congruent	Block2	congruent/STIM_022.jpg	100
2206.799	0.591	590.9	congruent	Block2	congruent/STIM_023.jpg	99
2209.686	0.961	960.9	congruent	Block2	congruent/STIM_023.jpg	100
2212.743	0.937	936.8	congruent	Block2	congruent/STIM_023.jpg	100
2216.657	0.893	893.2	congruent	Block2	congruent/STIM_023.jpg	99
2220.75	0.754	754.0	congruent	Block2	congruent/STIM_023.jpg	100
2225.491	0.944	944.4	congruent	Block2	congruent/STIM_024.jpg	100
2229.224	0.963	963.3	congruent	Block2	congruent/STIM_024.jpg	99
2233.089	0.622	621.9	congruent	Block2	congruent/STIM_024.jpg	100
2235.987	0.634	634.1	congruent	Block2	congruent/STIM_024.jpg	99
2238.895	0.894	894.2	congruent	Block2	congruent/STIM_024.jpg	100
2242.871	0.667	666.6	congruent	Block2	congruent/STIM_025.jpg	100
2246.2	0.653	653.1	congruent	Block2	congruent/STIM_025.jpg	100
2249.861	0.794	794.3	congruent	Block2	congruent/STIM_025.jpg	99
2253.392	0.986	985.6	congruent	Block2	congruent/STIM_025.jpg	99
2258.108	0.83	829.5	congruent	Block2	congruent/STIM_025.jpg	100
2261.955	0.789	788.8	congruent	Block2	congruent/STIM_026.jpg	99
2265.153	0.814	814.5	congruent	Block2	congruent/STIM_026.jpg	99
2268.164	0.981	981.1	congruent	Block2	congruent/STIM_026.jpg	100
2272.199	0.568	567.5	congruent	Block2	congruent/STIM_026.jpg	99
2275.282	0.975	974.9	congruent	Block2	congruent/STIM_026.jpg	100
2280.137	0.574	574.0	congruent	Block2	congruent/STIM_027.jpg	100
2282.919	0.981	980.8	congruent	Block2	congruent/STIM_027.jpg	100
2286.619	0.782	782.1	congruent	Block2	congruent/STIM_027.jpg	99
2290.439	0.653	653.2	congruent	Block2	congruent/STIM_027.jpg	99
2293.146	0.703	703.3	congruent	Block2	congruent/STIM_027.jpg	100
2296.244	0.923	923.4	congruent	Block2	congruent/STIM_028.jpg	100
2300.693	0.978	977.5	congruent	Block2	congruent/STIM_028.jpg	100
2304.988	0.567	567.4	congruent	Block2	congruent/STIM_028.jpg	100
2308.819	0.769	768.6	congruent	Block2	congruent/STIM_028.jpg	100
2312.217	0.666	665.6	congruent	Block2	congruent/STIM_028.jpg	100
2316.258	0.9	900.5	congruent	Block2	congruent/STIM_029.jpg	100
2320.648	0.574	573.5	congruent	Block2	congruent/STIM_029.jpg	100
2324.923	0.841	841.3	congruent	Block2	congruent/STIM_029.jpg	99
2329.588	0.925	924.7	congruent	Block2	congruent/STIM_029.jpg	100
2332.697	0.582	582.0	congruent	Block2	congruent/STIM_029.jpg	99
2336.971	1.085	1085.0	incongruent	Block3	incongruent/STIM_000.jpg	100
2341.663	0.992	992.0	incongruent	Block3	incongruent/STIM_000.jpg	99
2346.511	0.974	974.4	incongruent	Block3	incongruent/STIM_000.jpg	99
2351.337	1.017	1016.9	incongruent	Block3	incongruent/STIM_000.jpg	99
2355.564	0.829	829.0	incongruent	Block3	incongruent/STIM_000.jpg	100
2360.248	0.978	978.5	incongruent	Block3	incongruent/STIM_001.jpg	99
2364.819	0.587	586.7	incongruent	Block3	incongruent/STIM_001.jpg	99
2369.266	0.8	800.2	incongruent	Block3	incongruent/STIM_001.jpg	100
2372.401	0.558	557.6	incongruent	Block3	incongruent/STIM_001.jpg	100
2375.307	1.028	1028.2	incongruent	Block3	incongruent/STIM_001.jpg	100
2378.873	0.677	676.8	incongruent	Block3	incongruent/STIM_002.jpg	100
2383.435	1.153	1153.3	incongruent	Block3	incongruent/STIM_002.jpg	100
2386.82	1.129	1129.1	incongruent	Block3	incongruent/STIM_002.jpg	100
2390.735	0.569	568.7	incongruent	Block3	incongruent/STIM_002.jpg	100
2394.377	0.765	764.6	incongruent	Block3	incongruent/STIM_002.jpg	99
2398.707	0.644	644.5	incongruent	Block3	incongruent/STIM_003.jpg	100
2401.633	1.089	1088.9	incongruent	Block3	incongruent/STIM_003.jpg	99
2406.688	0.809	808.9	incongruent	Block3	incongruent/STIM_003.jpg	100
2409.991	0.931	931.1	incongruent	Block3	incongruent/STIM_003.jpg	100
2413.306	0.822	822.4	incongruent	Block3	incongruent/STIM_003.jpg	100
2416.568	0.84	840.1	incongruent	Block3	incongruent/STIM_004.jpg	100
2420.046	0.949	948.9	incongruent	Block3	incongruent/STIM_004.jpg	100
2423.641	0.732	731.9	incongruent	Block3	incongruent/STIM_004.jpg	99
2427.306	0.882	882.2	incongruent	Block3	incongruent/STIM_004.jpg	99
2432.069	0.981	981.2	incongruent	Block3	incongruent/STIM_004.jpg	100
2436.971	1.062	1061.7	incongruent	Block3	incongruent/STIM_005.jpg	100
2441.628	0.828	828.5	incongruent	Block3	incongruent/STIM_005.jpg	99
2444.679	0.813	813.0	incongruent	Block3	incongruent/STIM_005.jpg	99
2448.665	0.644	643.8	incongruent	Block3	incongruent/STIM_005.jpg	99
2453.275	0.836	836.5	incongruent	Block3	incongruent/STIM_005.jpg	99
2457.861	0.879	879.4	incongruent	Block3	incongruent/STIM_006.jpg	100
2462.295	0.704	703.9	incongruent	Block3	incongruent/STIM_006.jpg	100
2465.721	0.667	666.8	incongruent	Block3	incongruent/STIM_006.jpg	99
2469.617	0.977	977.4	incongruent	Block3	incongruent/STIM_006.jpg	100
2473.316	0.641	641.2	incongruent	Block3	incongruent/STIM_006.jpg	99
2476.404	0.664	664.5	incongruent	Block3	incongruent/STIM_007.jpg	100
2479.738	1.079	1079.4	incongruent	Block3	incongruent/STIM_007.jpg	100
2484.555	0.646	646.5	incongruent	Block3	incongruent/STIM_007.jpg	100
2487.409	1.062	1061.7	incongruent	Block3	incongruent/STIM_007.jpg	99
2491.695	0.799	798.9	incongruent	Block3	incongruent/STIM_007.jpg	100
2496.153	0.733	732.6	incongruent	Block3	incongruent/STIM_008.jpg	99
2499.406	0.621	620.7	incongruent	Block3	incongruent/STIM_008.jpg	100
2503.123	1.061	1060.9	incongruent	Block3	incongruent/STIM_008.jpg	100
2508.09	0.891	891.1	incongruent	Block3	incongruent/STIM_008.jpg	99
2511.657	0.544	543.7	incongruent	Block3	incongruent/STIM_008.jpg	100
2515.316	0.571	571.2	incongruent	Block3	incongruent/STIM_009.jpg	100
2519.66	0.576	576.4	incongruent	Block3	incongruent/STIM_009.jpg	100
2523.689	0.601	600.6	incongruent	Block3	incongruent/STIM_009.jpg	99
2527.366	0.619	619.1	incongruent	Block3	incongruent/STIM_009.jpg	100
2530.112	0.59	589.5	incongruent	Block3	incongruent/STIM_009.jpg	99
2532.77	1.031	1030.6	incongruent	Block3	incongruent/STIM_010.jpg	99
2536.837	0.679	679.2	incongruent	Block3	incongruent/STIM_010.jpg	99
2540.443	0.841	840.7	incongruent	Block3	incongruent/STIM_010.jpg	100
2545.068	0.603	602.6	incongruent	Block3	incongruent/STIM_010.jpg	99
2547.724	0.638	637.6	incongruent	Block3	incongruent/STIM_010.jpg	99
2551.266	1.136	1135.7	incongruent	Block3	incongruent/STIM_011.jpg	99
2555.824	0.92	919.6	incongruent	Block3	incongruent/STIM_011.jpg	99
2559.849	0.809	809.1	incongruent	Block3	incongruent/STIM_011.jpg	99
2563.009	0.778	777.9	incongruent	Block3	incongruent/STIM_011.jpg	99
2565.878	0.722	721.8	incongruent	Block3	incongruent/STIM_011.jpg	100
2570.317	0.844	844.1	incongruent	Block3	incongruent/STIM_012.jpg	100
2574.529	1.034	1034.5	incongruent	Block3	incongruent/STIM_012.jpg	99
2578.025	0.764	764.3	incongruent	Block3	incongruent/STIM_012.jpg	100
2582.482	1.002	1002.0	incongruent	Block3	incongruent/STIM_012.jpg	99
2586.799	1.076	1075.6	incongruent	Block3	incongruent/STIM_012.jpg	99
2590.139	0.7	699.5	incongruent	Block3	incongruent/STIM_013.jpg	99
2594.685	0.595	595.1	incongruent	Block3	incongruent/STIM_013.jpg	100
2597.297	1.043	1042.7	incongruent	Block3	incongruent/STIM_013.jpg	99
2600.806	1.101	1101.0	incongruent	Block3	incongruent/STIM_013.jpg	99
2604.422	0.674	674.0	incongruent	Block3	incongruent/STIM_013.jpg	99
2608.692	1.134	1134.1	incongruent	Block3	incongruent/STIM_014.jpg	99
2613.594	0.837	836.8	incongruent	Block3	incongruent/STIM_014.jpg	99
2616.955	0.703	702.8	incongruent	Block3	incongruent/STIM_014.jpg	100
2620.702	0.701	700.8	incongruent	Block3	incongruent/STIM_014.jpg	100
2624.668	0.585	584.7	incongruent	Block3	incongruent/STIM_014.jpg	100
2627.624	1.011	1011.3	incongruent	Block3	incongruent/STIM_015.jpg	100
2631.413	0.966	966.1	incongruent	Block3	incongruent/STIM_015.jpg	100
2635.484	0.793	793.4	incongruent	Block3	incongruent/STIM_015.jpg	100
2638.593	1.049	1049.3	incongruent	Block3	incongruent/STIM_015.jpg	99
2642.61	1.014	1014.5	incongruent	Block3	incongruent/STIM_015.jpg	99
2646.431	0.984	984.1	incongruent	Block3	incongruent/STIM_016.jpg	100
2650.916	0.945	945.3	incongruent	Block3	incongruent/STIM_016.jpg	99
2654.96	1.14	1140.1	incongruent	Block3	incongruent/STIM_016.jpg	99
2658.233	1.079	1079.0	incongruent	Block3	incongruent/STIM_016.jpg	100
2662.382	0.746	745.7	incongruent	Block3	incongruent/STIM_016.jpg	99
2665.381	0.638	638.1	incongruent	Block3	incongruent/STIM_017.jpg	99
2668.718	1.153	1152.7	incongruent	Block3	incongruent/STIM_017.jpg	99
2673.319	0.928	927.6	incongruent	Block3	incongruent/STIM_017.jpg	99
2677.497	1.098	1097.9	incongruent	Block3	incongruent/STIM_017.jpg	99
2680.883	0.91	909.9	incongruent	Block3	incongruent/STIM_017.jpg	99
2684.01	0.67	669.6	incongruent	Block3	incongruent/STIM_018.jpg	99
2688.36	0.664	664.3	incongruent	Block3	incongruent/STIM_018.jpg	99
2691.892	0.668	668.5	incongruent	Block3	incongruent/STIM_018.jpg	99
2695.612	1.086	1086.5	incongruent	Block3	incongruent/STIM_018.jpg	99
2700.301	0.919	919.3	incongruent	Block3	incongruent/STIM_018.jpg	100
2705.102	1.062	1061.6	incongruent	Block3	incongruent/STIM_019.jpg	99
2710.059	1.151	1151.3	incongruent	Block3	incongruent/STIM_019.jpg	100
2713.774	0.864	863.7	incongruent	Block3	incongruent/STIM_019.jpg	100
2717.521	1.003	1002.9	incongruent	Block3	incongruent/STIM_019.jpg	100
2722.314	0.765	764.8	incongruent	Block3	incongruent/STIM_019.jpg	100
2726.123	0.84	840.3	incongruent	Block3	incongruent/STIM_020.jpg	99
2729.134	1.011	1010.7	incongruent	Block3	incongruent/STIM_020.jpg	100
2732.192	0.762	761.7	incongruent	Block3	incongruent/STIM_020.jpg	100
2735.737	0.544	544.5	incongruent	Block3	incongruent/STIM_020.jpg	100
2739.285	1.028	1027.8	incongruent	Block3	incongruent/STIM_020.jpg	99
2744.143	0.864	864.5	incongruent	Block3	incongruent/STIM_021.jpg	99
2748.444	0.704	704.1	incongruent	Block3	incongruent/STIM_021.jpg	99
2752.58	1.102	1102.2	incongruent	Block3	incongruent/STIM_021.jpg	100
2756.9	0.787	786.9	incongruent	Block3	incongruent/STIM_021.jpg	100
2759.733	0.772	772.4	incongruent	Block3	incongruent/STIM_021.jpg	100
2763.683	0.655	654.7	incongruent	Block3	incongruent/STIM_022.jpg	99
2767.348	0.947	946.8	incongruent	Block3	incongruent/STIM_022.jpg	99
2772.264	0.69	689.6	incongruent	Block3	incongruent/STIM_022.jpg	99
2775.321	0.672	672.2	incongruent	Block3	incongruent/STIM_022.jpg	100
2778.24	0.668	668.4	incongruent	Block3	incongruent/STIM_022.jpg	99
2781.802	0.636	635.5	incongruent	Block3	incongruent/STIM_023.jpg	99
2786.017	1.138	1138.2	incongruent	Block3	incongruent/STIM_023.jpg	100
2789.551	0.725	725.1	incongruent	Block3	incongruent/STIM_023.jpg	100
2792.706	0.917	917.2	incongruent	Block3	incongruent/STIM_023.jpg	100
2795.635	0.694	693.9	incongruent	Block3	incongruent/STIM_023.jpg	99
2800.103	0.627	627.3	incongruent	Block3	incongruent/STIM_024.jpg	100
2804.725	1.12	1120.1	incongruent	Block3	incongruent/STIM_024.jpg	99
2808.788	1.135	1135.3	incongruent	Block3	incongruent/STIM_024.jpg	100
2813.019	1.072	1072.0	incongruent	Block3	incongruent/STIM_024.jpg	99
2816.396	0.862	862.2	incongruent	Block3	incongruent/STIM_024.jpg	100
2819.739	0.581	581.3	incongruent	Block3	incongruent/STIM_025.jpg	100
2823.359	0.849	849.4	incongruent	Block3	incongruent/STIM_025.jpg	100
2828.082	1.088	1087.7	incongruent	Block3	incongruent/STIM_025.jpg	100
2831.758	0.791	791.1	incongruent	Block3	incongruent/STIM_025.jpg	99
2835.399	0.827	827.2	incongruent	Block3	incongruent/STIM_025.jpg	99
2838.859	0.631	631.1	incongruent	Block3	incongruent/STIM_026.jpg	99
2841.883	0.58	579.9	incongruent	Block3	incongruent/STIM_026.jpg	100
2845.514	1.087	1087.4	incongruent	Block3	incongruent/STIM_026.jpg	100
2850.075	0.578	578.2	incongruent	Block3	incongruent/STIM_026.jpg	100
2853.592	0.641	640.9	incongruent	Block3	incongruent/STIM_026.jpg	100
2857.064	0.72	719.8	incongruent	Block3	incongruent/STIM_027.jpg	99
2860.483	0.805	804.9	incongruent	Block3	incongruent/STIM_027.jpg	100
2864.341	0.597	596.6	incongruent	Block3	incongruent/STIM_027.jpg	99
2868.93	0.709	709.3	incongruent	Block3	incongruent/STIM_027.jpg	99
2871.878	0.897	897.3	incongruent	Block3	incongruent/STIM_027.jpg	100
2876.662	0.842	842.0	incongruent	Block3	incongruent/STIM_028.jpg	100
2880.936	1.13	1129.8	incongruent	Block3	incongruent/STIM_028.jpg	99
2885.235	1.017	1017.1	incongruent	Block3	incongruent/STIM_028.jpg	100
2888.305	0.745	744.6	incongruent	Block3	incongruent/STIM_028.jpg	99
2892.548	0.704	704.0	incongruent	Block3	incongruent/STIM_028.jpg	100
2895.699	1.155	1154.8	incongruent	Block3	incongruent/STIM_029.jpg	100
2899.919	0.82	819.7	incongruent	Block3	incongruent/STIM_029.jpg	100
2903.995	0.953	953.2	incongruent	Block3	incongruent/STIM_029.jpg	99
2908.456	0.6	600.1	incongruent	Block3	incongruent/STIM_029.jpg	100
2912.654	0.568	567.7	incongruent	Block3	incongruent/STIM_029.jpg	99
2915.792	0.87	870.5	congruent	Block3	congruent/STIM_000.jpg	100
2920.354	0.722	721.9	congruent	Block3	congruent/STIM_000.jpg	100
2924.523	0.859	859.0	congruent	Block3	congruent/STIM_000.jpg	100
2928.743	0.8	799.6	congruent	Block3	congruent/STIM_000.jpg	99
2932.974	0.97	970.0	congruent	Block3	congruent/STIM_000.jpg	99
2937.284	0.862	861.7	congruent	Block3	congruent/STIM_001.jpg	99
2940.693	0.796	796.4	congruent	Block3	congruent/STIM_001.jpg	99
2944.801	0.625	624.8	congruent	Block3	congruent/STIM_001.jpg	99
2948.549	0.912	911.6	congruent	Block3	congruent/STIM_001.jpg	100
2953.077	0.732	731.6	congruent	Block3	congruent/STIM_001.jpg	100
2956.367	0.91	909.7	congruent	Block3	congruent/STIM_002.jpg	100
2959.928	0.933	932.9	congruent	Block3	congruent/STIM_002.jpg	100
2964.059	0.739	739.3	congruent	Block3	congruent/STIM_002.jpg	100
2967.648	0.839	838.7	congruent	Block3	congruent/STIM_002.jpg	100
2970.497	0.76	759.9	congruent	Block3	congruent/STIM_002.jpg	99
2973.257	0.615	615.2	congruent	Block3	congruent/STIM_003.jpg	100
2977.456	0.558	557.8	congruent	Block3	congruent/STIM_003.jpg	99
2981.799	0.681	680.6	congruent	Block3	congruent/STIM_003.jpg	100
2986.302	0.782	782.1	congruent	Block3	congruent/STIM_003.jpg	99
2990.484	0.814	813.6	congruent	Block3	congruent/STIM_003.jpg	99
2994.6	0.975	975.2	congruent	Block3	congruent/STIM_004.jpg	100
2998.195	0.758	758.5	congruent	Block3	congruent/STIM_004.jpg	99
3001.37	0.604	603.8	congruent	Block3	congruent/STIM_004.jpg	99
3005.481	0.921	920.7	congruent	Block3	congruent/STIM_004.jpg	99
3010.151	0.561	561.3	congruent	Block3	congruent/STIM_004.jpg	99
3014.649	0.569	569.3	congruent	Block3	congruent/STIM_005.jpg	99
3019.197	0.653	653.2	congruent	Block3	congruent/STIM_005.jpg	100
3023.54	0.611	611.0	congruent	Block3	congruent/STIM_005.jpg	100
3027.953	0.588	587.8	congruent	Block3	congruent/STIM_005.jpg	100
3032.315	0.924	923.6	congruent	Block3	congruent/STIM_005.jpg	99
3035.445	0.629	629.4	congruent	Block3	congruent/STIM_006.jpg	100
3039.291	0.811	810.8	congruent	Block3	congruent/STIM_006.jpg	100
3042.541	0.827	826.9	congruent	Block3	congruent/STIM_006.jpg	99
3046.76	0.751	750.7	congruent	Block3	congruent/STIM_006.jpg	100
3051.087	0.839	838.9	congruent	Block3	congruent/STIM_006.jpg	99
3054.041	0.571	570.9	congruent	Block3	congruent/STIM_007.jpg	99
3056.908	0.586	586.3	congruent	Block3	congruent/STIM_007.jpg	100
3059.921	0.82	820.3	congruent	Block3	congruent/STIM_007.jpg	100
3063.507	0.598	598.3	congruent	Block3	congruent/STIM_007.jpg	100
3066.11	0.569	569.4	congruent	Block3	congruent/STIM_007.jpg	99
3069.958	0.801	801.4	congruent	Block3	congruent/STIM_008.jpg	100
3074.204	0.811	811.3	congruent	Block3	congruent/STIM_008.jpg	100
3078.746	0.721	720.9	congruent	Block3	congruent/STIM_008.jpg	100
3082.215	0.928	927.5	congruent	Block3	congruent/STIM_008.jpg	99
3086.668	0.882	881.5	congruent	Block3	congruent/STIM_008.jpg	99
3089.886	0.622	622.1	congruent	Block3	congruent/STIM_009.jpg	99
3093.124	0.639	638.9	congruent	Block3	congruent/STIM_009.jpg	100
3096.616	0.858	858.1	congruent	Block3	congruent/STIM_009.jpg	100
3100.936	0.905	905.3	congruent	Block3	congruent/STIM_009.jpg	99
3105.815	0.816	815.6	congruent	Block3	congruent/STIM_009.jpg	99
3110.095	0.567	567.0	congruent	Block3	congruent/STIM_010.jpg	100
3112.758	0.988	988.5	congruent	Block3	congruent/STIM_010.jpg	99
3116.944	0.974	973.6	congruent	Block3	congruent/STIM_010.jpg	99
3120.834	0.66	659.6	congruent	Block3	congruent/STIM_010.jpg	99
3123.718	0.908	908.4	congruent	Block3	congruent/STIM_010.jpg	99
3126.796	0.847	847.2	congruent	Block3	congruent/STIM_011.jpg	100
3130.784	0.821	821.1	congruent	Block3	congruent/STIM_011.jpg	99
3135.36	0.874	874.0	congruent	Block3	congruent/STIM_011.jpg	99
3139.835	0.665	665.3	congruent	Block3	congruent/STIM_011.jpg	99
3143.813	0.604	603.6	congruent	Block3	congruent/STIM_011.jpg	99
3147.557	0.666	665.7	congruent	Block3	congruent/STIM_012.jpg	99
3152.197	0.907	906.9	congruent	Block3	congruent/STIM_012.jpg	99
3156.687	0.631	630.7	congruent	Block3	congruent/STIM_012.jpg	100
3160.346	0.857	856.8	congruent	Block3	congruent/STIM_012.jpg	99
3163.951	0.911	910.6	congruent	Block3	congruent/STIM_012.jpg	99
3168.727	0.639	638.9	congruent	Block3	congruent/STIM_013.jpg	100
3172.501	0.665	665.2	congruent	Block3	congruent/STIM_013.jpg	99
3175.589	0.763	762.6	congruent	Block3	congruent/STIM_013.jpg	99
3179.215	0.65	649.8	congruent	Block3	congruent/STIM_013.jpg	99
3183.362	0.867	866.8	congruent	Block3	congruent/STIM_013.jpg	100
3187.895	0.91	909.7	congruent	Block3	congruent/STIM_014.jpg	99
3191.9	0.757	757.0	congruent	Block3	congruent/STIM_014.jpg	99
3195.148	0.865	865.3	congruent	Block3	congruent/STIM_014.jpg	99
3198.836	0.763	763.4	congruent	Block3	congruent/STIM_014.jpg	99
3203.342	0.68	679.8	congruent	Block3	congruent/STIM_014.jpg	100
3206.717	0.557	556.7	congruent	Block3	congruent/STIM_015.jpg	100
3211.185	0.632	632.0	congruent	Block3	congruent/STIM_015.jpg	99
3215.129	0.954	953.7	congruent	Block3	congruent/STIM_015.jpg	100
3218.334	0.683	682.8	congruent	Block3	congruent/STIM_015.jpg	100
3222.33	0.567	566.7	congruent	Block3	congruent/STIM_015.jpg	99
3224.921	0.602	601.7	congruent	Block3	congruent/STIM_016.jpg	99
3229.356	0.907	907.3	congruent	Block3	congruent/STIM_016.jpg	100
3233.202	0.744	743.6	congruent	Block3	congruent/STIM_016.jpg	100
3237.8	0.99	990.1	congruent	Block3	congruent/STIM_016.jpg	100
3241.885	0.904	904.1	congruent	Block3	congruent/STIM_016.jpg	100
3246.336	0.578	577.5	congruent	Block3	congruent/STIM_017.jpg	100
3249.783	0.573	572.8	congruent	Block3	congruent/STIM_017.jpg	99
3253.3	0.642	642.1	congruent	Block3	congruent/STIM_017.jpg	99
3256.373	0.661	660.8	congruent	Block3	congruent/STIM_017.jpg	100
3260.803	0.75	749.6	congruent	Block3	congruent/STIM_017.jpg	99
3264.112	0.716	715.5	congruent	Block3	congruent/STIM_018.jpg	100
3268.669	0.868	867.7	congruent	Block3	congruent/STIM_018.jpg	100
3273.054	0.746	745.7	congruent	Block3	congruent/STIM_018.jpg	100
3277.344	0.973	973.1	congruent	Block3	congruent/STIM_018.jpg	99
3280.907	0.665	665.0	congruent	Block3	congruent/STIM_018.jpg	99
3284.045	0.844	844.5	congruent	Block3	congruent/STIM_019.jpg	99
3286.907	0.675	675.4	congruent	Block3	congruent/STIM_019.jpg	99
3290.326	0.724	724.5	congruent	Block3	congruent/STIM_019.jpg	99
3295.038	0.773	772.6	congruent	Block3	congruent/STIM_019.jpg	100
3299.449	0.883	882.6	congruent	Block3	congruent/STIM_019.jpg	99
3304.279	0.787	786.9	congruent	Block3	congruent/STIM_020.jpg	99
3307.534	0.582	581.5	congruent	Block3	congruent/STIM_020.jpg	100
3311.391	0.984	984.3	congruent	Block3	congruent/STIM_020.jpg	99
3314.882	0.752	751.8	congruent	Block3	congruent/STIM_020.jpg	100
3318.528	0.554	554.1	congruent	Block3	congruent/STIM_020.jpg	100
3321.127	0.83	829.7	congruent	Block3	congruent/STIM_021.jpg	99
3324.329	0.612	612.2	congruent	Block3	congruent/STIM_021.jpg	99
3327.343	0.587	587.3	congruent	Block3	congruent/STIM_021.jpg	100
3330.902	0.696	695.5	congruent	Block3	congruent/STIM_021.jpg	99
3335.556	0.789	788.9	congruent	Block3	congruent/STIM_021.jpg	99
3339.62	0.783	783.3	congruent	Block3	congruent/STIM_022.jpg	100
3343.241	0.737	737.3	congruent	Block3	congruent/STIM_022.jpg	100
3346.75	0.926	926.4	congruent	Block3	congruent/STIM_022.jpg	99
3350.625	0.639	639.3	congruent	Block3	congruent/STIM_022.jpg	99
3353.708	0.788	788.0	congruent	Block3	congruent/STIM_022.jpg	100
3357.753	0.718	717.7	congruent	Block3	congruent/STIM_023.jpg	99
3361.212	0.653	653.3	congruent	Block3	congruent/STIM_023.jpg	99
3364.83	0.588	588.5	congruent	Block3	congruent/STIM_023.jpg	99
3367.456	0.637	637.1	congruent	Block3	congruent/STIM_023.jpg	99
3371.875	0.824	824.3	congruent	Block3	congruent/STIM_023.jpg	99
3375.748	0.682	682.3	congruent	Block3	congruent/STIM_024.jpg	100
3380.408	0.953	953.3	congruent	Block3	congruent/STIM_024.jpg	99
3384.019	0.978	977.7	congruent	Block3	congruent/STIM_024.jpg	99
3388.247	0.774	773.9	congruent	Block3	congruent/STIM_024.jpg	99
3391.291	0.615	614.6	congruent	Block3	congruent/STIM_024.jpg	99
3394.263	0.871	871.4	congruent	Block3	congruent/STIM_025.jpg	100
3398.038	0.673	672.7	congruent	Block3	congruent/STIM_025.jpg	100
3402.274	0.908	907.5	congruent	Block3	congruent/STIM_025.jpg	99
3406.789	0.873	873.4	congruent	Block3	congruent/STIM_025.jpg	100
3409.995	0.707	706.6	congruent	Block3	congruent/STIM_025.jpg	100
3414.526	0.86	860.0	congruent	Block3	congruent/STIM_026.jpg	99
3417.732	0.628	627.8	congruent	Block3	congruent/STIM_026.jpg	99
3420.515	0.87	869.9	congruent	Block3	congruent/STIM_026.jpg	100
3423.979	0.729	729.4	congruent	Block3	congruent/STIM_026.jpg	100
3427.559	0.726	726.3	congruent	Block3	congruent/STIM_026.jpg	100
3431.279	0.991	991.3	congruent	Block3	congruent/STIM_027.jpg	100
3436.093	0.604	604.1	congruent	Block3	congruent/STIM_027.jpg	99
3439.469	0.848	848.2	congruent	Block3	congruent/STIM_027.jpg	100
3442.705	0.893	892.8	congruent	Block3	congruent/STIM_027.jpg	100
3447.351	0.887	886.9	congruent	Block3	congruent/STIM_027.jpg	99
3451.354	0.632	632.4	congruent	Block3	congruent/STIM_028.jpg	100
3455.236	0.956	956.5	congruent	Block3	congruent/STIM_028.jpg	100
3460.054	0.775	774.8	congruent	Block3	congruent/STIM_028.jpg	100
3464.443	0.977	976.7	congruent	Block3	congruent/STIM_028.jpg	100
3467.894	0.889	889.2	congruent	Block3	congruent/STIM_028.jpg	99
3471.299	0.68	680.1	congruent	Block3	congruent/STIM_029.jpg	100
3475.249	0.828	827.9	congruent	Block3	congruent/STIM_029.jpg	99
3479.147	0.668	668.0	congruent	Block3	congruent/STIM_029.jpg	100
3482.705	0.916	916.4	congruent	Block3	congruent/STIM_029.jpg	99
3487.066	0.697	697.1	congruent	Block3	congruent/STIM_029.jpg	100
