onset	duration	accuracy_binary	trial_type	learning_stage	stimulus
0.0	0.996	1	incongruent	Block1	incongruent/STIM_000.jpg
4.703	1.488	1	incongruent	Block1	incongruent/STIM_000.jpg
9.444	0.864	1	incongruent	Block1	incongruent/STIM_000.jpg
14.207	1.132	1	incongruent	Block1	incongruent/STIM_000.jpg
17.741	0.893	1	incongruent	Block1	incongruent/STIM_000.jpg
22.601	1.22	1	incongruent	Block1	incongruent/STIM_001.jpg
27.178	1.061	1	incongruent	Block1	incongruent/STIM_001.jpg
30.321	0.704	1	incongruent	Block1	incongruent/STIM_001.jpg
33.734	0.81	1	incongruent	Block1	incongruent/STIM_001.jpg
38.388	1.174	1	incongruent	Block1	incongruent/STIM_001.jpg
43.56	0.982	1	incongruent	Block1	incongruent/STIM_002.jpg
47.594	0.889	1	incongruent	Block1	incongruent/STIM_002.jpg
51.407	1.085	0	incongruent	Block1	incongruent/STIM_002.jpg
54.82	0.945	1	incongruent	Block1	incongruent/STIM_002.jpg
58.219	0.772	1	incongruent	Block1	incongruent/STIM_002.jpg
61.567	1.537	1	incongruent	Block1	incongruent/STIM_003.jpg
66.747	0.89	1	incongruent	Block1	incongruent/STIM_003.jpg
69.774	0.871	1	incongruent	Block1	incongruent/STIM_003.jpg
74.632	1.268	0	incongruent	Block1	incongruent/STIM_003.jpg
78.155	1.103	1	incongruent	Block1	incongruent/STIM_003.jpg
83.146	1.523	1	incongruent	Block1	incongruent/STIM_004.jpg
87.898	1.107	1	incongruent	Block1	incongruent/STIM_004.jpg
91.683	1.445	1	incongruent	Block1	incongruent/STIM_004.jpg
96.095	0.997	1	incongruent	Block1	incongruent/STIM_004.jpg
101.069	0.837	1	incongruent	Block1	incongruent/STIM_004.jpg
105.022	0.805	1	incongruent	Block1	incongruent/STIM_005.jpg
109.322	1.051	1	incongruent	Block1	incongruent/STIM_005.jpg
114.269	1.117	1	incongruent	Block1	incongruent/STIM_005.jpg
119.264	0.909	1	incongruent	Block1	incongruent/STIM_005.jpg
123.656	1.074	1	incongruent	Block1	incongruent/STIM_005.jpg
128.266	1.456	1	incongruent	Block1	incongruent/STIM_006.jpg
132.638	1.035	1	incongruent	Block1	incongruent/STIM_006.jpg
137.563	0.942	1	incongruent	Block1	incongruent/STIM_006.jpg
140.814	1.053	1	incongruent	Block1	incongruent/STIM_006.jpg
145.801	0.735	1	incongruent	Block1	incongruent/STIM_006.jpg
149.878	1.254	1	incongruent	Block1	incongruent/STIM_007.jpg
153.221	1.079	1	incongruent	Block1	incongruent/STIM_007.jpg
156.478	0.965	1	incongruent	Block1	incongruent/STIM_007.jpg
160.161	1.249	1	incongruent	Block1	incongruent/STIM_007.jpg
164.722	1.024	1	incongruent	Block1	incongruent/STIM_007.jpg
168.391	1.041	1	incongruent	Block1	incongruent/STIM_008.jpg
172.271	1.338	1	incongruent	Block1	incongruent/STIM_008.jpg
177.559	1.375	0	incongruent	Block1	incongruent/STIM_008.jpg
182.316	0.928	1	incongruent	Block1	incongruent/STIM_008.jpg
185.816	0.737	1	incongruent	Block1	incongruent/STIM_008.jpg
188.556	1.366	1	incongruent	Block1	incongruent/STIM_009.jpg
192.722	1.179	1	incongruent	Block1	incongruent/STIM_009.jpg
197.168	0.846	1	incongruent	Block1	incongruent/STIM_009.jpg
200.04	0.8	1	incongruent	Block1	incongruent/STIM_009.jpg
204.801	1.1	1	incongruent	Block1	incongruent/STIM_009.jpg
208.257	0.858	1	incongruent	Block1	incongruent/STIM_010.jpg
212.048	0.801	1	incongruent	Block1	incongruent/STIM_010.jpg
214.901	1.091	1	incongruent	Block1	incongruent/STIM_010.jpg
218.191	1.11	1	incongruent	Block1	incongruent/STIM_010.jpg
222.534	0.961	1	incongruent	Block1	incongruent/STIM_010.jpg
227.253	1.121	1	incongruent	Block1	incongruent/STIM_011.jpg
231.45	1.409	1	incongruent	Block1	incongruent/STIM_011.jpg
235.937	1.215	1	incongruent	Block1	incongruent/STIM_011.jpg
240.59	0.871	1	incongruent	Block1	incongruent/STIM_011.jpg
244.309	1.012	1	incongruent	Block1	incongruent/STIM_011.jpg
249.202	1.503	1	incongruent	Block1	incongruent/STIM_012.jpg
254.664	1.552	1	incongruent	Block1	incongruent/STIM_012.jpg
260.129	1.135	1	incongruent	Block1	incongruent/STIM_012.jpg
264.633	0.949	1	incongruent	Block1	incongruent/STIM_012.jpg
269.242	1.02	1	incongruent	Block1	incongruent/STIM_012.jpg
273.402	1.19	1	incongruent	Block1	incongruent/STIM_013.jpg
277.703	1.172	1	incongruent	Block1	incongruent/STIM_013.jpg
281.794	0.973	1	incongruent	Block1	incongruent/STIM_013.jpg
285.6	0.91	1	incongruent	Block1	incongruent/STIM_013.jpg
289.343	1.132	1	incongruent	Block1	incongruent/STIM_013.jpg
293.689	1.166	1	incongruent	Block1	incongruent/STIM_014.jpg
298.696	1.418	1	incongruent	Block1	incongruent/STIM_014.jpg
303.371	0.809	1	incongruent	Block1	incongruent/STIM_014.jpg
306.248	0.948	1	incongruent	Block1	incongruent/STIM_014.jpg
310.526	0.876	1	incongruent	Block1	incongruent/STIM_014.jpg
314.461	0.876	1	incongruent	Block1	incongruent/STIM_015.jpg
317.631	1.55	1	incongruent	Block1	incongruent/STIM_015.jpg
322.031	1.473	1	incongruent	Block1	incongruent/STIM_015.jpg
326.582	1.329	1	incongruent	Block1	incongruent/STIM_015.jpg
331.399	0.858	1	incongruent	Block1	incongruent/STIM_015.jpg
335.684	1.275	1	incongruent	Block1	incongruent/STIM_016.jpg
340.301	1.476	1	incongruent	Block1	incongruent/STIM_016.jpg
344.62	0.962	1	incongruent	Block1	incongruent/STIM_016.jpg
349.09	1.061	1	incongruent	Block1	incongruent/STIM_016.jpg
353.98	1.232	1	incongruent	Block1	incongruent/STIM_016.jpg
358.313	1.658	1	incongruent	Block1	incongruent/STIM_017.jpg
362.261	1.058	1	incongruent	Block1	incongruent/STIM_017.jpg
366.244	0.733	1	incongruent	Block1	incongruent/STIM_017.jpg
370.549	1.327	1	incongruent	Block1	incongruent/STIM_017.jpg
375.03	0.841	1	incongruent	Block1	incongruent/STIM_017.jpg
378.172	1.438	1	incongruent	Block1	incongruent/STIM_018.jpg
383.437	1.492	1	incongruent	Block1	incongruent/STIM_018.jpg
388.89	0.765	0	incongruent	Block1	incongruent/STIM_018.jpg
393.631	1.295	1	incongruent	Block1	incongruent/STIM_018.jpg
397.102	1.097	1	incongruent	Block1	incongruent/STIM_018.jpg
401.783	1.002	1	incongruent	Block1	incongruent/STIM_019.jpg
405.53	0.888	1	incongruent	Block1	incongruent/STIM_019.jpg
408.767	0.881	1	incongruent	Block1	incongruent/STIM_019.jpg
412.032	0.804	1	incongruent	Block1	incongruent/STIM_019.jpg
415.762	0.675	1	incongruent	Block1	incongruent/STIM_019.jpg
419.85	1.354	0	incongruent	Block1	incongruent/STIM_020.jpg
424.882	1.081	1	incongruent	Block1	incongruent/STIM_020.jpg
428.919	1.455	1	incongruent	Block1	incongruent/STIM_020.jpg
433.509	1.003	1	incongruent	Block1	incongruent/STIM_020.jpg
438.198	0.66	1	incongruent	Block1	incongruent/STIM_020.jpg
441.757	1.058	1	incongruent	Block1	incongruent/STIM_021.jpg
445.735	1.294	1	incongruent	Block1	incongruent/STIM_021.jpg
450.743	0.942	1	incongruent	Block1	incongruent/STIM_021.jpg
455.156	1.21	1	incongruent	Block1	incongruent/STIM_021.jpg
458.371	0.837	1	incongruent	Block1	incongruent/STIM_021.jpg
463.151	1.524	1	incongruent	Block1	incongruent/STIM_022.jpg
466.703	1.508	1	incongruent	Block1	incongruent/STIM_022.jpg
470.721	1.023	1	incongruent	Block1	incongruent/STIM_022.jpg
474.081	1.088	1	incongruent	Block1	incongruent/STIM_022.jpg
477.278	0.933	1	incongruent	Block1	incongruent/STIM_022.jpg
481.249	0.91	1	incongruent	Block1	incongruent/STIM_023.jpg
485.061	1.576	1	incongruent	Block1	incongruent/STIM_023.jpg
489.476	0.994	1	incongruent	Block1	incongruent/STIM_023.jpg
494.151	1.211	1	incongruent	Block1	incongruent/STIM_023.jpg
499.264	0.692	1	incongruent	Block1	incongruent/STIM_023.jpg
502.029	1.055	1	incongruent	Block1	incongruent/STIM_024.jpg
505.836	1.239	1	incongruent	Block1	incongruent/STIM_024.jpg
510.942	1.304	1	incongruent	Block1	incongruent/STIM_024.jpg
515.053	0.99	1	incongruent	Block1	incongruent/STIM_024.jpg
519.563	1.316	0	incongruent	Block1	incongruent/STIM_024.jpg
523.863	1.065	1	incongruent	Block1	incongruent/STIM_025.jpg
528.06	1.57	1	incongruent	Block1	incongruent/STIM_025.jpg
532.024	0.898	1	incongruent	Block1	incongruent/STIM_025.jpg
536.308	1.05	1	incongruent	Block1	incongruent/STIM_025.jpg
540.211	1.121	0	incongruent	Block1	incongruent/STIM_025.jpg
544.277	1.034	1	incongruent	Block1	incongruent/STIM_026.jpg
548.948	1.445	1	incongruent	Block1	incongruent/STIM_026.jpg
553.028	1.044	1	incongruent	Block1	incongruent/STIM_026.jpg
558.051	1.289	1	incongruent	Block1	incongruent/STIM_026.jpg
562.077	1.319	1	incongruent	Block1	incongruent/STIM_026.jpg
566.769	1.483	1	incongruent	Block1	incongruent/STIM_027.jpg
570.403	0.869	1	incongruent	Block1	incongruent/STIM_027.jpg
574.501	1.06	1	incongruent	Block1	incongruent/STIM_027.jpg
577.945	1.164	1	incongruent	Block1	incongruent/STIM_027.jpg
581.976	1.117	1	incongruent	Block1	incongruent/STIM_027.jpg
586.718	0.826	1	incongruent	Block1	incongruent/STIM_028.jpg
589.98	0.966	1	incongruent	Block1	incongruent/STIM_028.jpg
593.767	1.227	1	incongruent	Block1	incongruent/STIM_028.jpg
597.204	0.683	1	incongruent	Block1	incongruent/STIM_028.jpg
600.809	0.826	1	incongruent	Block1	incongruent/STIM_028.jpg
605.62	1.154	1	incongruent	Block1	incongruent/STIM_029.jpg
608.834	1.571	1	incongruent	Block1	incongruent/STIM_029.jpg
614.211	1.029	1	incongruent	Block1	incongruent/STIM_029.jpg
618.635	1.105	1	incongruent	Block1	incongruent/STIM_029.jpg
623.078	0.772	1	incongruent	Block1	incongruent/STIM_029.jpg
626.598	0.909	1	congruent	Block1	congruent/STIM_000.jpg
630.242	0.864	1	congruent	Block1	congruent/STIM_000.jpg
635.062	0.826	0	congruent	Block1	congruent/STIM_000.jpg
639.069	0.881	1	congruent	Block1	congruent/STIM_000.jpg
643.932	0.71	1	congruent	Block1	congruent/STIM_000.jpg
647.947	0.878	0	congruent	Block1	congruent/STIM_001.jpg
651.324	0.701	1	congruent	Block1	congruent/STIM_001.jpg
654.178	0.798	1	congruent	Block1	congruent/STIM_001.jpg
657.472	0.995	1	congruent	Block1	congruent/STIM_001.jpg
661.76	0.863	1	congruent	Block1	congruent/STIM_001.jpg
665.78	0.972	1	congruent	Block1	congruent/STIM_002.jpg
669.227	0.677	1	congruent	Block1	congruent/STIM_002.jpg
672.203	0.678	1	congruent	Block1	congruent/STIM_002.jpg
676.658	0.74	1	congruent	Block1	congruent/STIM_002.jpg
679.447	0.607	1	congruent	Block1	congruent/STIM_002.jpg
682.39	0.788	1	congruent	Block1	congruent/STIM_003.jpg
685.597	0.611	1	congruent	Block1	congruent/STIM_003.jpg
689.328	0.784	1	congruent	Block1	congruent/STIM_003.jpg
693.627	0.962	1	congruent	Block1	congruent/STIM_003.jpg
697.656	0.775	1	congruent	Block1	congruent/STIM_003.jpg
701.449	0.636	1	congruent	Block1	congruent/STIM_004.jpg
704.345	0.99	1	congruent	Block1	congruent/STIM_004.jpg
709.136	0.963	1	congruent	Block1	congruent/STIM_004.jpg
712.619	0.637	1	congruent	Block1	congruent/STIM_004.jpg
715.626	0.936	1	congruent	Block1	congruent/STIM_004.jpg
718.594	0.849	0	congruent	Block1	congruent/STIM_005.jpg
721.891	0.688	1	congruent	Block1	congruent/STIM_005.jpg
725.996	0.784	1	congruent	Block1	congruent/STIM_005.jpg
730.596	0.718	1	congruent	Block1	congruent/STIM_005.jpg
734.547	0.917	1	congruent	Block1	congruent/STIM_005.jpg
737.871	0.922	1	congruent	Block1	congruent/STIM_006.jpg
742.443	0.81	1	congruent	Block1	congruent/STIM_006.jpg
745.515	0.811	1	congruent	Block1	congruent/STIM_006.jpg
749.122	0.842	1	congruent	Block1	congruent/STIM_006.jpg
752.932	0.865	1	congruent	Block1	congruent/STIM_006.jpg
756.8	0.954	1	congruent	Block1	congruent/STIM_007.jpg
760.15	0.874	1	congruent	Block1	congruent/STIM_007.jpg
763.45	0.692	1	congruent	Block1	congruent/STIM_007.jpg
766.415	0.776	1	congruent	Block1	congruent/STIM_007.jpg
770.431	0.664	1	congruent	Block1	congruent/STIM_007.jpg
773.554	0.76	1	congruent	Block1	congruent/STIM_008.jpg
777.299	0.763	1	congruent	Block1	congruent/STIM_008.jpg
780.713	0.977	1	congruent	Block1	congruent/STIM_008.jpg
784.336	0.847	1	congruent	Block1	congruent/STIM_008.jpg
788.939	0.588	1	congruent	Block1	congruent/STIM_008.jpg
793.079	0.766	1	congruent	Block1	congruent/STIM_009.jpg
796.444	0.91	1	congruent	Block1	congruent/STIM_009.jpg
799.934	0.878	1	congruent	Block1	congruent/STIM_009.jpg
804.429	0.897	1	congruent	Block1	congruent/STIM_009.jpg
808.198	0.812	1	congruent	Block1	congruent/STIM_009.jpg
811.906	0.955	1	congruent	Block1	congruent/STIM_010.jpg
816.058	0.58	1	congruent	Block1	congruent/STIM_010.jpg
818.988	0.645	1	congruent	Block1	congruent/STIM_010.jpg
821.998	0.681	1	congruent	Block1	congruent/STIM_010.jpg
825.61	0.668	1	congruent	Block1	congruent/STIM_010.jpg
829.158	0.816	1	congruent	Block1	congruent/STIM_011.jpg
832.684	0.854	1	congruent	Block1	congruent/STIM_011.jpg
836.927	0.767	1	congruent	Block1	congruent/STIM_011.jpg
839.741	0.604	1	congruent	Block1	congruent/STIM_011.jpg
842.577	0.909	0	congruent	Block1	congruent/STIM_011.jpg
845.647	0.657	1	congruent	Block1	congruent/STIM_012.jpg
848.579	0.696	1	congruent	Block1	congruent/STIM_012.jpg
852.929	0.805	1	congruent	Block1	congruent/STIM_012.jpg
857.187	0.835	1	congruent	Block1	congruent/STIM_012.jpg
861.135	0.738	1	congruent	Block1	congruent/STIM_012.jpg
865.031	0.983	1	congruent	Block1	congruent/STIM_013.jpg
868.028	0.975	1	congruent	Block1	congruent/STIM_013.jpg
872.861	0.909	1	congruent	Block1	congruent/STIM_013.jpg
876.637	0.769	1	congruent	Block1	congruent/STIM_013.jpg
880.554	0.805	0	congruent	Block1	congruent/STIM_013.jpg
883.641	0.777	1	congruent	Block1	congruent/STIM_014.jpg
887.422	0.884	1	congruent	Block1	congruent/STIM_014.jpg
892.108	0.94	1	congruent	Block1	congruent/STIM_014.jpg
895.822	0.963	1	congruent	Block1	congruent/STIM_014.jpg
899.648	0.727	1	congruent	Block1	congruent/STIM_014.jpg
903.065	0.574	1	congruent	Block1	congruent/STIM_015.jpg
905.917	0.966	1	congruent	Block1	congruent/STIM_015.jpg
910.771	0.798	1	congruent	Block1	congruent/STIM_015.jpg
914.143	0.728	1	congruent	Block1	congruent/STIM_015.jpg
918.297	0.964	1	congruent	Block1	congruent/STIM_015.jpg
923.144	0.598	1	congruent	Block1	congruent/STIM_016.jpg
927.535	0.956	1	congruent	Block1	congruent/STIM_016.jpg
931.252	0.59	1	congruent	Block1	congruent/STIM_016.jpg
935.638	0.609	1	congruent	Block1	congruent/STIM_016.jpg
938.588	0.631	1	congruent	Block1	congruent/STIM_016.jpg
941.616	0.556	1	congruent	Block1	congruent/STIM_017.jpg
944.522	0.926	1	congruent	Block1	congruent/STIM_017.jpg
947.599	0.917	1	congruent	Block1	congruent/STIM_017.jpg
952.18	0.583	1	congruent	Block1	congruent/STIM_017.jpg
956.308	0.646	1	congruent	Block1	congruent/STIM_017.jpg
960.531	0.673	1	congruent	Block1	congruent/STIM_018.jpg
964.448	0.882	1	congruent	Block1	congruent/STIM_018.jpg
969.165	0.566	1	congruent	Block1	congruent/STIM_018.jpg
973.258	0.554	1	congruent	Block1	congruent/STIM_018.jpg
977.462	0.805	1	congruent	Block1	congruent/STIM_018.jpg
981.316	0.691	1	congruent	Block1	congruent/STIM_019.jpg
984.522	0.889	1	congruent	Block1	congruent/STIM_019.jpg
987.859	0.98	1	congruent	Block1	congruent/STIM_019.jpg
990.99	0.758	1	congruent	Block1	congruent/STIM_019.jpg
995.124	0.839	1	congruent	Block1	congruent/STIM_019.jpg
998.746	0.594	1	congruent	Block1	congruent/STIM_020.jpg
1001.631	0.667	1	congruent	Block1	congruent/STIM_020.jpg
1004.457	0.811	1	congruent	Block1	congruent/STIM_020.jpg
1008.809	0.909	1	congruent	Block1	congruent/STIM_020.jpg
1012.447	0.694	1	congruent	Block1	congruent/STIM_020.jpg
1015.273	0.816	1	congruent	Block1	congruent/STIM_021.jpg
1019.428	0.949	1	congruent	Block1	congruent/STIM_021.jpg
1024.293	0.765	1	congruent	Block1	congruent/STIM_021.jpg
1028.082	0.559	1	congruent	Block1	congruent/STIM_021.jpg
1032.494	0.83	1	congruent	Block1	congruent/STIM_021.jpg
1035.581	0.618	1	congruent	Block1	congruent/STIM_022.jpg
1038.766	0.618	1	congruent	Block1	congruent/STIM_022.jpg
1043.197	0.634	1	congruent	Block1	congruent/STIM_022.jpg
1046.387	0.904	1	congruent	Block1	congruent/STIM_022.jpg
1049.444	0.855	1	congruent	Block1	congruent/STIM_022.jpg
1052.866	0.977	1	congruent	Block1	congruent/STIM_023.jpg
1057.02	0.965	1	congruent	Block1	congruent/STIM_023.jpg
1060.917	0.885	1	congruent	Block1	congruent/STIM_023.jpg
1064.291	0.769	1	congruent	Block1	congruent/STIM_023.jpg
1068.259	0.863	1	congruent	Block1	congruent/STIM_023.jpg
1072.785	0.952	1	congruent	Block1	congruent/STIM_024.jpg
1075.778	0.679	1	congruent	Block1	congruent/STIM_024.jpg
1078.529	0.989	1	congruent	Block1	congruent/STIM_024.jpg
1082.306	0.703	1	congruent	Block1	congruent/STIM_024.jpg
1086.641	0.717	1	congruent	Block1	congruent/STIM_024.jpg
1090.994	0.711	1	congruent	Block1	congruent/STIM_025.jpg
1094.121	0.741	1	congruent	Block1	congruent/STIM_025.jpg
1097.069	0.768	1	congruent	Block1	congruent/STIM_025.jpg
1101.11	0.76	1	congruent	Block1	congruent/STIM_025.jpg
1104.866	0.62	1	congruent	Block1	congruent/STIM_025.jpg
1109.412	0.654	1	congruent	Block1	congruent/STIM_026.jpg
1112.126	0.881	1	congruent	Block1	congruent/STIM_026.jpg
1115.82	0.988	1	congruent	Block1	congruent/STIM_026.jpg
1120.696	0.906	1	congruent	Block1	congruent/STIM_026.jpg
1125.422	0.913	1	congruent	Block1	congruent/STIM_026.jpg
1129.512	0.633	1	congruent	Block1	congruent/STIM_027.jpg
1132.559	0.888	1	congruent	Block1	congruent/STIM_027.jpg
1136.576	0.597	1	congruent	Block1	congruent/STIM_027.jpg
1139.26	0.728	1	congruent	Block1	congruent/STIM_027.jpg
1142.147	0.84	1	congruent	Block1	congruent/STIM_027.jpg
1145.903	0.64	1	congruent	Block1	congruent/STIM_028.jpg
1150.428	0.685	1	congruent	Block1	congruent/STIM_028.jpg
1153.786	0.945	1	congruent	Block1	congruent/STIM_028.jpg
1158.324	0.684	1	congruent	Block1	congruent/STIM_028.jpg
1162.297	0.93	1	congruent	Block1	congruent/STIM_028.jpg
1167.115	0.809	1	congruent	Block1	congruent/STIM_029.jpg
1171.61	0.694	1	congruent	Block1	congruent/STIM_029.jpg
1176.077	0.794	1	congruent	Block1	congruent/STIM_029.jpg
1179.357	0.675	1	congruent	Block1	congruent/STIM_029.jpg
1183.568	0.839	1	congruent	Block1	congruent/STIM_029.jpg
1188.025	0.751	1	incongruent	Block2	incongruent/STIM_000.jpg
1192.462	1.292	1	incongruent	Block2	incongruent/STIM_000.jpg
1196.991	0.733	1	incongruent	Block2	incongruent/STIM_000.jpg
1201.297	0.855	1	incongruent	Block2	incongruent/STIM_000.jpg
1206.116	0.958	1	incongruent	Block2	incongruent/STIM_000.jpg
1210.632	0.66	1	incongruent	Block2	incongruent/STIM_001.jpg
1214.016	0.984	1	incongruent	Block2	incongruent/STIM_001.jpg
1217.52	0.921	1	incongruent	Block2	incongruent/STIM_001.jpg
1221.684	0.816	1	incongruent	Block2	incongruent/STIM_001.jpg
1224.982	1.024	1	incongruent	Block2	incongruent/STIM_001.jpg
1229.276	1.406	1	incongruent	Block2	incongruent/STIM_002.jpg
1233.114	1.274	0	incongruent	Block2	incongruent/STIM_002.jpg
1238.353	0.832	1	incongruent	Block2	incongruent/STIM_002.jpg
1241.778	0.739	1	incongruent	Block2	incongruent/STIM_002.jpg
1245.793	0.902	1	incongruent	Block2	incongruent/STIM_002.jpg
1248.934	0.826	1	incongruent	Block2	incongruent/STIM_003.jpg
1253.091	1.028	1	incongruent	Block2	incongruent/STIM_003.jpg
1256.658	0.63	1	incongruent	Block2	incongruent/STIM_003.jpg
1260.333	1.008	1	incongruent	Block2	incongruent/STIM_003.jpg
1263.618	0.919	1	incongruent	Block2	incongruent/STIM_003.jpg
1268.396	1.038	1	incongruent	Block2	incongruent/STIM_004.jpg
1273.137	0.952	1	incongruent	Block2	incongruent/STIM_004.jpg
1277.67	1.014	1	incongruent	Block2	incongruent/STIM_004.jpg
1282.249	0.791	1	incongruent	Block2	incongruent/STIM_004.jpg
1285.594	1.153	1	incongruent	Block2	incongruent/STIM_004.jpg
1290.183	0.841	1	incongruent	Block2	incongruent/STIM_005.jpg
1293.357	0.91	1	incongruent	Block2	incongruent/STIM_005.jpg
1297.596	0.682	1	incongruent	Block2	incongruent/STIM_005.jpg
1301.194	0.851	1	incongruent	Block2	incongruent/STIM_005.jpg
1305.451	0.552	1	incongruent	Block2	incongruent/STIM_005.jpg
1309.691	1.4	1	incongruent	Block2	incongruent/STIM_006.jpg
1314.372	1.275	1	incongruent	Block2	incongruent/STIM_006.jpg
1317.717	1.074	1	incongruent	Block2	incongruent/STIM_006.jpg
1322.774	1.009	1	incongruent	Block2	incongruent/STIM_006.jpg
1326.015	1.088	1	incongruent	Block2	incongruent/STIM_006.jpg
1329.215	0.755	1	incongruent	Block2	incongruent/STIM_007.jpg
1332.388	0.967	1	incongruent	Block2	incongruent/STIM_007.jpg
1336.032	0.621	1	incongruent	Block2	incongruent/STIM_007.jpg
1339.309	0.659	1	incongruent	Block2	incongruent/STIM_007.jpg
1342.384	0.6	0	incongruent	Block2	incongruent/STIM_007.jpg
1345.557	1.28	1	incongruent	Block2	incongruent/STIM_008.jpg
1350.499	0.826	1	incongruent	Block2	incongruent/STIM_008.jpg
1353.727	0.625	1	incongruent	Block2	incongruent/STIM_008.jpg
1357.406	1.056	1	incongruent	Block2	incongruent/STIM_008.jpg
1360.698	1.161	1	incongruent	Block2	incongruent/STIM_008.jpg
1364.245	1.384	1	incongruent	Block2	incongruent/STIM_009.jpg
1369.067	0.932	1	incongruent	Block2	incongruent/STIM_009.jpg
1373.213	0.866	1	incongruent	Block2	incongruent/STIM_009.jpg
1377.822	0.65	1	incongruent	Block2	incongruent/STIM_009.jpg
1380.829	0.862	1	incongruent	Block2	incongruent/STIM_009.jpg
1385.674	1.039	1	incongruent	Block2	incongruent/STIM_010.jpg
1389.549	0.818	1	incongruent	Block2	incongruent/STIM_010.jpg
1393.75	0.804	1	incongruent	Block2	incongruent/STIM_010.jpg
1397.684	0.891	1	incongruent	Block2	incongruent/STIM_010.jpg
1402.412	0.972	1	incongruent	Block2	incongruent/STIM_010.jpg
1406.215	1.103	1	incongruent	Block2	incongruent/STIM_011.jpg
1410.455	0.988	1	incongruent	Block2	incongruent/STIM_011.jpg
1413.748	1.225	1	incongruent	Block2	incongruent/STIM_011.jpg
1418.698	0.802	1	incongruent	Block2	incongruent/STIM_011.jpg
1422.728	0.751	1	incongruent	Block2	incongruent/STIM_011.jpg
1427.001	1.15	1	incongruent	Block2	incongruent/STIM_012.jpg
1432.079	0.779	1	incongruent	Block2	incongruent/STIM_012.jpg
1434.905	0.672	1	incongruent	Block2	incongruent/STIM_012.jpg
1437.963	1.014	1	incongruent	Block2	incongruent/STIM_012.jpg
1441.921	0.548	1	incongruent	Block2	incongruent/STIM_012.jpg
1445.796	1.255	1	incongruent	Block2	incongruent/STIM_013.jpg
1450.62	0.755	1	incongruent	Block2	incongruent/STIM_013.jpg
1454.22	0.661	1	incongruent	Block2	incongruent/STIM_013.jpg
1457.342	0.56	1	incongruent	Block2	incongruent/STIM_013.jpg
1461.519	0.803	1	incongruent	Block2	incongruent/STIM_013.jpg
1464.52	0.926	1	incongruent	Block2	incongruent/STIM_014.jpg
1468.919	1.113	1	incongruent	Block2	incongruent/STIM_014.jpg
1472.638	0.7	1	incongruent	Block2	incongruent/STIM_014.jpg
1476.948	0.84	1	incongruent	Block2	incongruent/STIM_014.jpg
1481.734	0.665	0	incongruent	Block2	incongruent/STIM_014.jpg
1485.545	1.376	1	incongruent	Block2	incongruent/STIM_015.jpg
1489.456	1.318	1	incongruent	Block2	incongruent/STIM_015.jpg
1493.315	0.685	1	incongruent	Block2	incongruent/STIM_015.jpg
1497.046	0.992	1	incongruent	Block2	incongruent/STIM_015.jpg
1500.545	0.888	1	incongruent	Block2	incongruent/STIM_015.jpg
1504.03	1.006	1	incongruent	Block2	incongruent/STIM_016.jpg
1507.938	0.628	1	incongruent	Block2	incongruent/STIM_016.jpg
1510.881	0.791	1	incongruent	Block2	incongruent/STIM_016.jpg
1515.485	0.876	1	incongruent	Block2	incongruent/STIM_016.jpg
1519.57	0.808	1	incongruent	Block2	incongruent/STIM_016.jpg
1522.702	0.948	1	incongruent	Block2	incongruent/STIM_017.jpg
1526.852	1.043	1	incongruent	Block2	incongruent/STIM_017.jpg
1529.912	0.785	1	incongruent	Block2	incongruent/STIM_017.jpg
1534.077	1.044	1	incongruent	Block2	incongruent/STIM_017.jpg
1537.156	0.717	1	incongruent	Block2	incongruent/STIM_017.jpg
1540.577	1.116	1	incongruent	Block2	incongruent/STIM_018.jpg
1544.838	1.161	1	incongruent	Block2	incongruent/STIM_018.jpg
1549.522	1.077	1	incongruent	Block2	incongruent/STIM_018.jpg
1552.914	0.914	1	incongruent	Block2	incongruent/STIM_018.jpg
1557.538	1.028	1	incongruent	Block2	incongruent/STIM_018.jpg
1561.884	0.829	1	incongruent	Block2	incongruent/STIM_019.jpg
1566.579	0.811	1	incongruent	Block2	incongruent/STIM_019.jpg
1571.314	1.217	1	incongruent	Block2	incongruent/STIM_019.jpg
1574.974	0.705	1	incongruent	Block2	incongruent/STIM_019.jpg
1578.537	1.036	1	incongruent	Block2	incongruent/STIM_019.jpg
1583.507	0.94	1	incongruent	Block2	incongruent/STIM_020.jpg
1587.739	1.214	1	incongruent	Block2	incongruent/STIM_020.jpg
1591.731	0.737	1	incongruent	Block2	incongruent/STIM_020.jpg
1595.937	0.807	1	incongruent	Block2	incongruent/STIM_020.jpg
1600.052	0.975	1	incongruent	Block2	incongruent/STIM_020.jpg
1603.366	1.248	1	incongruent	Block2	incongruent/STIM_021.jpg
1606.994	0.974	1	incongruent	Block2	incongruent/STIM_021.jpg
1610.8	1.134	1	incongruent	Block2	incongruent/STIM_021.jpg
1615.094	1.043	1	incongruent	Block2	incongruent/STIM_021.jpg
1618.533	0.947	1	incongruent	Block2	incongruent/STIM_021.jpg
1621.942	0.872	1	incongruent	Block2	incongruent/STIM_022.jpg
1626.414	1.01	1	incongruent	Block2	incongruent/STIM_022.jpg
1630.816	0.93	1	incongruent	Block2	incongruent/STIM_022.jpg
1634.485	0.696	0	incongruent	Block2	incongruent/STIM_022.jpg
1638.732	0.637	1	incongruent	Block2	incongruent/STIM_022.jpg
1641.949	1.41	1	incongruent	Block2	incongruent/STIM_023.jpg
1646.452	0.75	1	incongruent	Block2	incongruent/STIM_023.jpg
1649.207	0.982	1	incongruent	Block2	incongruent/STIM_023.jpg
1653.715	0.695	1	incongruent	Block2	incongruent/STIM_023.jpg
1657.342	0.723	1	incongruent	Block2	incongruent/STIM_023.jpg
1660.168	0.924	1	incongruent	Block2	incongruent/STIM_024.jpg
1663.577	0.661	1	incongruent	Block2	incongruent/STIM_024.jpg
1666.534	1.056	1	incongruent	Block2	incongruent/STIM_024.jpg
1670.398	1.058	1	incongruent	Block2	incongruent/STIM_024.jpg
1674.189	0.591	1	incongruent	Block2	incongruent/STIM_024.jpg
1677.432	1.142	1	incongruent	Block2	incongruent/STIM_025.jpg
1680.641	0.983	1	incongruent	Block2	incongruent/STIM_025.jpg
1684.289	0.965	1	incongruent	Block2	incongruent/STIM_025.jpg
1687.365	0.858	1	incongruent	Block2	incongruent/STIM_025.jpg
1690.768	1.154	1	incongruent	Block2	incongruent/STIM_025.jpg
1695.21	1.132	1	incongruent	Block2	incongruent/STIM_026.jpg
1699.519	0.811	1	incongruent	Block2	incongruent/STIM_026.jpg
1702.961	0.726	1	incongruent	Block2	incongruent/STIM_026.jpg
1705.71	1.039	1	incongruent	Block2	incongruent/STIM_026.jpg
1710.173	0.635	1	incongruent	Block2	incongruent/STIM_026.jpg
1713.488	0.921	1	incongruent	Block2	incongruent/STIM_027.jpg
1717.892	1.052	1	incongruent	Block2	incongruent/STIM_027.jpg
1721.637	1.144	1	incongruent	Block2	incongruent/STIM_027.jpg
1724.8	1.113	1	incongruent	Block2	incongruent/STIM_027.jpg
1728.57	0.986	1	incongruent	Block2	incongruent/STIM_027.jpg
1733.238	0.99	1	incongruent	Block2	incongruent/STIM_028.jpg
1737.148	0.999	1	incongruent	Block2	incongruent/STIM_028.jpg
1741.333	0.812	1	incongruent	Block2	incongruent/STIM_028.jpg
1745.312	0.948	1	incongruent	Block2	incongruent/STIM_028.jpg
1748.883	0.701	1	incongruent	Block2	incongruent/STIM_028.jpg
1752.843	1.025	1	incongruent	Block2	incongruent/STIM_029.jpg
1757.5	0.656	1	incongruent	Block2	incongruent/STIM_029.jpg
1760.748	1.223	1	incongruent	Block2	incongruent/STIM_029.jpg
1765.601	0.815	1	incongruent	Block2	incongruent/STIM_029.jpg
1768.531	0.56	1	incongruent	Block2	incongruent/STIM_029.jpg
1772.686	0.881	1	congruent	Block2	congruent/STIM_000.jpg
1777.128	0.647	1	congruent	Block2	congruent/STIM_000.jpg
1781.525	0.579	1	congruent	Block2	congruent/STIM_000.jpg
1784.458	0.581	1	congruent	Block2	congruent/STIM_000.jpg
1787.716	0.931	1	congruent	Block2	congruent/STIM_000.jpg
1790.653	0.568	1	congruent	Block2	congruent/STIM_001.jpg
1794.233	0.726	1	congruent	Block2	congruent/STIM_001.jpg
1797.023	0.614	1	congruent	Block2	congruent/STIM_001.jpg
1801.47	0.634	1	congruent	Block2	congruent/STIM_001.jpg
1805.253	0.65	1	congruent	Block2	congruent/STIM_001.jpg
1809.394	0.871	1	congruent	Block2	congruent/STIM_002.jpg
1814.217	0.67	1	congruent	Block2	congruent/STIM_002.jpg
1818.569	0.98	1	congruent	Block2	congruent/STIM_002.jpg
1822.898	0.798	1	congruent	Block2	congruent/STIM_002.jpg
1826.832	0.561	1	congruent	Block2	congruent/STIM_002.jpg
1831.019	0.748	1	congruent	Block2	congruent/STIM_003.jpg
1833.837	0.662	1	congruent	Block2	congruent/STIM_003.jpg
1837.498	0.702	1	congruent	Block2	congruent/STIM_003.jpg
1840.948	0.765	1	congruent	Block2	congruent/STIM_003.jpg
1843.729	0.597	1	congruent	Block2	congruent/STIM_003.jpg
1846.924	0.88	1	congruent	Block2	congruent/STIM_004.jpg
1851.329	0.731	1	congruent	Block2	congruent/STIM_004.jpg
1856.045	0.756	1	congruent	Block2	congruent/STIM_004.jpg
1859.33	0.561	0	congruent	Block2	congruent/STIM_004.jpg
1862.76	0.684	1	congruent	Block2	congruent/STIM_004.jpg
1865.771	0.978	1	congruent	Block2	congruent/STIM_005.jpg
1870.569	0.751	1	congruent	Block2	congruent/STIM_005.jpg
1875.151	0.577	1	congruent	Block2	congruent/STIM_005.jpg
1877.989	0.799	1	congruent	Block2	congruent/STIM_005.jpg
1881.319	0.705	1	congruent	Block2	congruent/STIM_005.jpg
1885.064	0.781	1	congruent	Block2	congruent/STIM_006.jpg
1889.146	0.691	1	congruent	Block2	congruent/STIM_006.jpg
1893.756	0.87	1	congruent	Block2	congruent/STIM_006.jpg
1898.134	0.989	1	congruent	Block2	congruent/STIM_006.jpg
1901.293	0.66	1	congruent	Block2	congruent/STIM_006.jpg
1905.637	0.923	0	congruent	Block2	congruent/STIM_007.jpg
1909.671	0.856	1	congruent	Block2	congruent/STIM_007.jpg
1912.639	0.587	1	congruent	Block2	congruent/STIM_007.jpg
1917.217	0.849	1	congruent	Block2	congruent/STIM_007.jpg
1920.859	0.981	1	congruent	Block2	congruent/STIM_007.jpg
1925.665	0.838	1	congruent	Block2	congruent/STIM_008.jpg
1929.597	0.835	1	congruent	Block2	congruent/STIM_008.jpg
1934.364	0.684	1	congruent	Block2	congruent/STIM_008.jpg
1938.379	0.629	1	congruent	Block2	congruent/STIM_008.jpg
1941.776	0.604	1	congruent	Block2	congruent/STIM_008.jpg
1945.482	0.872	1	congruent	Block2	congruent/STIM_009.jpg
1948.796	0.779	1	congruent	Block2	congruent/STIM_009.jpg
1952.305	0.87	1	congruent	Block2	congruent/STIM_009.jpg
1956.015	0.964	1	congruent	Block2	congruent/STIM_009.jpg
1960.863	0.829	1	congruent	Block2	congruent/STIM_009.jpg
1965.214	0.614	1	congruent	Block2	congruent/STIM_010.jpg
1968.292	0.842	1	congruent	Block2	congruent/STIM_010.jpg
1972.848	0.569	1	congruent	Block2	congruent/STIM_010.jpg
1975.437	0.592	1	congruent	Block2	congruent/STIM_010.jpg
1979.7	0.749	1	congruent	Block2	congruent/STIM_010.jpg
1983.935	0.865	1	congruent	Block2	congruent/STIM_011.jpg
1987.933	0.971	1	congruent	Block2	congruent/STIM_011.jpg
1992.168	0.589	1	congruent	Block2	congruent/STIM_011.jpg
1996.603	0.97	1	congruent	Block2	congruent/STIM_011.jpg
2000.627	0.675	1	congruent	Block2	congruent/STIM_011.jpg
2005.113	0.99	1	congruent	Block2	congruent/STIM_012.jpg
2008.909	0.921	1	congruent	Block2	congruent/STIM_012.jpg
2013.427	0.972	1	congruent	Block2	congruent/STIM_012.jpg
2016.533	0.651	1	congruent	Block2	congruent/STIM_012.jpg
2020.223	0.906	1	congruent	Block2	congruent/STIM_012.jpg
2023.565	0.736	1	congruent	Block2	congruent/STIM_013.jpg
2027.772	0.561	1	congruent	Block2	congruent/STIM_013.jpg
2030.769	0.833	1	congruent	Block2	congruent/STIM_013.jpg
2034.028	0.754	1	congruent	Block2	congruent/STIM_013.jpg
2037.318	0.857	1	congruent	Block2	congruent/STIM_013.jpg
2040.995	0.87	1	congruent	Block2	congruent/STIM_014.jpg
2044.308	0.676	1	congruent	Block2	congruent/STIM_014.jpg
2048.16	0.69	1	congruent	Block2	congruent/STIM_014.jpg
2052.031	0.811	1	congruent	Block2	congruent/STIM_014.jpg
2056.31	0.793	1	congruent	Block2	congruent/STIM_014.jpg
2059.557	0.977	1	congruent	Block2	congruent/STIM_015.jpg
2062.651	0.7	1	congruent	Block2	congruent/STIM_015.jpg
2066.355	0.728	1	congruent	Block2	congruent/STIM_015.jpg
2069.289	0.869	1	congruent	Block2	congruent/STIM_015.jpg
2073.71	0.836	1	congruent	Block2	congruent/STIM_015.jpg
2077.503	0.758	1	congruent	Block2	congruent/STIM_016.jpg
2081.971	0.886	1	congruent	Block2	congruent/STIM_016.jpg
2086.4	0.716	1	congruent	Block2	congruent/STIM_016.jpg
2090.011	0.556	1	congruent	Block2	congruent/STIM_016.jpg
2093.072	0.884	1	congruent	Block2	congruent/STIM_016.jpg
2096.107	0.636	1	congruent	Block2	congruent/STIM_017.jpg
2099.341	0.701	1	congruent	Block2	congruent/STIM_017.jpg
2102.705	0.871	1	congruent	Block2	congruent/STIM_017.jpg
2105.932	0.716	1	congruent	Block2	congruent/STIM_017.jpg
2109.472	0.684	1	congruent	Block2	congruent/STIM_017.jpg
2113.319	0.76	1	congruent	Block2	congruent/STIM_018.jpg
2118.005	0.877	1	congruent	Block2	congruent/STIM_018.jpg
2121.238	0.63	1	congruent	Block2	congruent/STIM_018.jpg
2124.476	0.957	1	congruent	Block2	congruent/STIM_018.jpg
2127.978	0.95	1	congruent	Block2	congruent/STIM_018.jpg
2131.059	0.989	1	congruent	Block2	congruent/STIM_019.jpg
2135.787	0.878	1	congruent	Block2	congruent/STIM_019.jpg
2139.043	0.636	1	congruent	Block2	congruent/STIM_019.jpg
2143.2	0.814	1	congruent	Block2	congruent/STIM_019.jpg
2146.189	0.841	1	congruent	Block2	congruent/STIM_019.jpg
2150.507	0.968	1	congruent	Block2	congruent/STIM_020.jpg
2154.145	0.67	1	congruent	Block2	congruent/STIM_020.jpg
2157.921	0.627	1	congruent	Block2	congruent/STIM_020.jpg
2162.389	0.703	1	congruent	Block2	congruent/STIM_020.jpg
2165.438	0.684	1	congruent	Block2	congruent/STIM_020.jpg
2169.491	0.776	1	congruent	Block2	congruent/STIM_021.jpg
2173.225	0.655	1	congruent	Block2	congruent/STIM_021.jpg
2177.3	0.876	1	congruent	Block2	congruent/STIM_021.jpg
2181.096	0.804	1	congruent	Block2	congruent/STIM_021.jpg
2184.909	0.676	1	congruent	Block2	congruent/STIM_021.jpg
2188.347	0.827	1	congruent	Block2	congruent/STIM_022.jpg
2191.825	0.916	1	congruent	Block2	congruent/STIM_022.jpg
2194.994	0.564	1	congruent	Block2	congruent/STIM_022.jpg
2198.679	0.641	1	congruent	Block2	congruent/STIM_022.jpg
2203.181	0.65	1	congruent	Block2	congruent/STIM_022.jpg
2206.799	0.591	1	congruent	Block2	congruent/STIM_023.jpg
2209.686	0.961	1	congruent	Block2	congruent/STIM_023.jpg
2212.743	0.937	1	congruent	Block2	congruent/STIM_023.jpg
2216.657	0.893	1	congruent	Block2	congruent/STIM_023.jpg
2220.75	0.754	1	congruent	Block2	congruent/STIM_023.jpg
2225.491	0.944	1	congruent	Block2	congruent/STIM_024.jpg
2229.224	0.963	1	congruent	Block2	congruent/STIM_024.jpg
2233.089	0.622	1	congruent	Block2	congruent/STIM_024.jpg
2235.987	0.634	1	congruent	Block2	congruent/STIM_024.jpg
2238.895	0.894	1	congruent	Block2	congruent/STIM_024.jpg
2242.871	0.667	1	congruent	Block2	congruent/STIM_025.jpg
2246.2	0.653	1	congruent	Block2	congruent/STIM_025.jpg
2249.861	0.794	1	congruent	Block2	congruent/STIM_025.jpg
2253.392	0.986	1	congruent	Block2	congruent/STIM_025.jpg
2258.108	0.83	0	congruent	Block2	congruent/STIM_025.jpg
2261.955	0.789	1	congruent	Block2	congruent/STIM_026.jpg
2265.153	0.814	1	congruent	Block2	congruent/STIM_026.jpg
2268.164	0.981	0	congruent	Block2	congruent/STIM_026.jpg
2272.199	0.568	1	congruent	Block2	congruent/STIM_026.jpg
2275.282	0.975	1	congruent	Block2	congruent/STIM_026.jpg
2280.137	0.574	1	congruent	Block2	congruent/STIM_027.jpg
2282.919	0.981	1	congruent	Block2	congruent/STIM_027.jpg
2286.619	0.782	1	congruent	Block2	congruent/STIM_027.jpg
2290.439	0.653	1	congruent	Block2	congruent/STIM_027.jpg
2293.146	0.703	1	congruent	Block2	congruent/STIM_027.jpg
2296.244	0.923	1	congruent	Block2	congruent/STIM_028.jpg
2300.693	0.978	1	congruent	Block2	congruent/STIM_028.jpg
2304.988	0.567	1	congruent	Block2	congruent/STIM_028.jpg
2308.819	0.769	1	congruent	Block2	congruent/STIM_028.jpg
2312.217	0.666	1	congruent	Block2	congruent/STIM_028.jpg
2316.258	0.9	1	congruent	Block2	congruent/STIM_029.jpg
2320.648	0.574	1	congruent	Block2	congruent/STIM_029.jpg
2324.923	0.841	1	congruent	Block2	congruent/STIM_029.jpg
2329.588	0.925	1	congruent	Block2	congruent/STIM_029.jpg
2332.697	0.582	1	congruent	Block2	congruent/STIM_029.jpg
2336.971	1.085	1	incongruent	Block3	incongruent/STIM_000.jpg
2341.663	0.992	1	incongruent	Block3	incongruent/STIM_000.jpg
2346.511	0.974	1	incongruent	Block3	incongruent/STIM_000.jpg
2351.337	1.017	1	incongruent	Block3	incongruent/STIM_000.jpg
2355.564	0.829	1	incongruent	Block3	incongruent/STIM_000.jpg
2360.248	0.978	1	incongruent	Block3	incongruent/STIM_001.jpg
2364.819	0.587	1	incongruent	Block3	incongruent/STIM_001.jpg
2369.266	0.8	1	incongruent	Block3	incongruent/STIM_001.jpg
2372.401	0.558	1	incongruent	Block3	incongruent/STIM_001.jpg
2375.307	1.028	1	incongruent	Block3	incongruent/STIM_001.jpg
2378.873	0.677	1	incongruent	Block3	incongruent/STIM_002.jpg
2383.435	1.153	1	incongruent	Block3	incongruent/STIM_002.jpg
2386.82	1.129	1	incongruent	Block3	incongruent/STIM_002.jpg
2390.735	0.569	1	incongruent	Block3	incongruent/STIM_002.jpg
2394.377	0.765	1	incongruent	Block3	incongruent/STIM_002.jpg
2398.707	0.644	1	incongruent	Block3	incongruent/STIM_003.jpg
2401.633	1.089	1	incongruent	Block3	incongruent/STIM_003.jpg
2406.688	0.809	1	incongruent	Block3	incongruent/STIM_003.jpg
2409.991	0.931	1	incongruent	Block3	incongruent/STIM_003.jpg
2413.306	0.822	1	incongruent	Block3	incongruent/STIM_003.jpg
2416.568	0.84	1	incongruent	Block3	incongruent/STIM_004.jpg
2420.046	0.949	1	incongruent	Block3	incongruent/STIM_004.jpg
2423.641	0.732	1	incongruent	Block3	incongruent/STIM_004.jpg
2427.306	0.882	1	incongruent	Block3	incongruent/STIM_004.jpg
2432.069	0.981	1	incongruent	Block3	incongruent/STIM_004.jpg
2436.971	1.062	1	incongruent	Block3	incongruent/STIM_005.jpg
2441.628	0.828	1	incongruent	Block3	incongruent/STIM_005.jpg
2444.679	0.813	1	incongruent	Block3	incongruent/STIM_005.jpg
2448.665	0.644	1	incongruent	Block3	incongruent/STIM_005.jpg
2453.275	0.836	1	incongruent	Block3	incongruent/STIM_005.jpg
2457.861	0.879	1	incongruent	Block3	incongruent/STIM_006.jpg
2462.295	0.704	1	incongruent	Block3	incongruent/STIM_006.jpg
2465.721	0.667	1	incongruent	Block3	incongruent/STIM_006.jpg
2469.617	0.977	1	incongruent	Block3	incongruent/STIM_006.jpg
2473.316	0.641	1	incongruent	Block3	incongruent/STIM_006.jpg
2476.404	0.664	1	incongruent	Block3	incongruent/STIM_007.jpg
2479.738	1.079	1	incongruent	Block3	incongruent/STIM_007.jpg
2484.555	0.646	1	incongruent	Block3	incongruent/STIM_007.jpg
2487.409	1.062	1	incongruent	Block3	incongruent/STIM_007.jpg
2491.695	0.799	1	incongruent	Block3	incongruent/STIM_007.jpg
2496.153	0.733	1	incongruent	Block3	incongruent/STIM_008.jpg
2499.406	0.621	1	incongruent	Block3	incongruent/STIM_008.jpg
2503.123	1.061	1	incongruent	Block3	incongruent/STIM_008.jpg
2508.09	0.891	1	incongruent	Block3	incongruent/STIM_008.jpg
2511.657	0.544	1	incongruent	Block3	incongruent/STIM_008.jpg
2515.316	0.571	1	incongruent	Block3	incongruent/STIM_009.jpg
2519.66	0.576	1	incongruent	Block3	incongruent/STIM_009.jpg
2523.689	0.601	0	incongruent	Block3	incongruent/STIM_009.jpg
2527.366	0.619	1	incongruent	Block3	incongruent/STIM_009.jpg
2530.112	0.59	0	incongruent	Block3	incongruent/STIM_009.jpg
2532.77	1.031	1	incongruent	Block3	incongruent/STIM_010.jpg
2536.837	0.679	1	incongruent	Block3	incongruent/STIM_010.jpg
2540.443	0.841	1	incongruent	Block3	incongruent/STIM_010.jpg
2545.068	0.603	1	incongruent	Block3	incongruent/STIM_010.jpg
2547.724	0.638	1	incongruent	Block3	incongruent/STIM_010.jpg
2551.266	1.136	1	incongruent	Block3	incongruent/STIM_011.jpg
2555.824	0.92	1	incongruent	Block3	incongruent/STIM_011.jpg
2559.849	0.809	1	incongruent	Block3	incongruent/STIM_011.jpg
2563.009	0.778	1	incongruent	Block3	incongruent/STIM_011.jpg
2565.878	0.722	1	incongruent	Block3	incongruent/STIM_011.jpg
2570.317	0.844	1	incongruent	Block3	incongruent/STIM_012.jpg
2574.529	1.034	1	incongruent	Block3	incongruent/STIM_012.jpg
2578.025	0.764	1	incongruent	Block3	incongruent/STIM_012.jpg
2582.482	1.002	0	incongruent	Block3	incongruent/STIM_012.jpg
2586.799	1.076	1	incongruent	Block3	incongruent/STIM_012.jpg
2590.139	0.7	1	incongruent	Block3	incongruent/STIM_013.jpg
2594.685	0.595	1	incongruent	Block3	incongruent/STIM_013.jpg
2597.297	1.043	1	incongruent	Block3	incongruent/STIM_013.jpg
2600.806	1.101	1	incongruent	Block3	incongruent/STIM_013.jpg
2604.422	0.674	1	incongruent	Block3	incongruent/STIM_013.jpg
2608.692	1.134	1	incongruent	Block3	incongruent/STIM_014.jpg
2613.594	0.837	1	incongruent	Block3	incongruent/STIM_014.jpg
2616.955	0.703	1	incongruent	Block3	incongruent/STIM_014.jpg
2620.702	0.701	1	incongruent	Block3	incongruent/STIM_014.jpg
2624.668	0.585	1	incongruent	Block3	incongruent/STIM_014.jpg
2627.624	1.011	1	incongruent	Block3	incongruent/STIM_015.jpg
2631.413	0.966	1	incongruent	Block3	incongruent/STIM_015.jpg
2635.484	0.793	1	incongruent	Block3	incongruent/STIM_015.jpg
2638.593	1.049	1	incongruent	Block3	incongruent/STIM_015.jpg
2642.61	1.014	1	incongruent	Block3	incongruent/STIM_015.jpg
2646.431	0.984	1	incongruent	Block3	incongruent/STIM_016.jpg
2650.916	0.945	1	incongruent	Block3	incongruent/STIM_016.jpg
2654.96	1.14	1	incongruent	Block3	incongruent/STIM_016.jpg
2658.233	1.079	1	incongruent	Block3	incongruent/STIM_016.jpg
2662.382	0.746	1	incongruent	Block3	incongruent/STIM_016.jpg
2665.381	0.638	1	incongruent	Block3	incongruent/STIM_017.jpg
2668.718	1.153	1	incongruent	Block3	incongruent/STIM_017.jpg
2673.319	0.928	1	incongruent	Block3	incongruent/STIM_017.jpg
2677.497	1.098	1	incongruent	Block3	incongruent/STIM_017.jpg
2680.883	0.91	1	incongruent	Block3	incongruent/STIM_017.jpg
2684.01	0.67	1	incongruent	Block3	incongruent/STIM_018.jpg
2688.36	0.664	1	incongruent	Block3	incongruent/STIM_018.jpg
2691.892	0.668	1	incongruent	Block3	incongruent/STIM_018.jpg
2695.612	1.086	1	incongruent	Block3	incongruent/STIM_018.jpg
2700.301	0.919	1	incongruent	Block3	incongruent/STIM_018.jpg
2705.102	1.062	1	incongruent	Block3	incongruent/STIM_019.jpg
2710.059	1.151	1	incongruent	Block3	incongruent/STIM_019.jpg
2713.774	0.864	1	incongruent	Block3	incongruent/STIM_019.jpg
2717.521	1.003	1	incongruent	Block3	incongruent/STIM_019.jpg
2722.314	0.765	1	incongruent	Block3	incongruent/STIM_019.jpg
2726.123	0.84	1	incongruent	Block3	incongruent/STIM_020.jpg
2729.134	1.011	1	incongruent	Block3	incongruent/STIM_020.jpg
2732.192	0.762	1	incongruent	Block3	incongruent/STIM_020.jpg
2735.737	0.544	1	incongruent	Block3	incongruent/STIM_020.jpg
2739.285	1.028	1	incongruent	Block3	incongruent/STIM_020.jpg
2744.143	0.864	1	incongruent	Block3	incongruent/STIM_021.jpg
2748.444	0.704	1	incongruent	Block3	incongruent/STIM_021.jpg
2752.58	1.102	1	incongruent	Block3	incongruent/STIM_021.jpg
2756.9	0.787	1	incongruent	Block3	incongruent/STIM_021.jpg
2759.733	0.772	1	incongruent	Block3	incongruent/STIM_021.jpg
2763.683	0.655	1	incongruent	Block3	incongruent/STIM_022.jpg
2767.348	0.947	1	incongruent	Block3	incongruent/STIM_022.jpg
2772.264	0.69	1	incongruent	Block3	incongruent/STIM_022.jpg
2775.321	0.672	1	incongruent	Block3	incongruent/STIM_022.jpg
2778.24	0.668	1	incongruent	Block3	incongruent/STIM_022.jpg
2781.802	0.636	1	incongruent	Block3	incongruent/STIM_023.jpg
2786.017	1.138	1	incongruent	Block3	incongruent/STIM_023.jpg
2789.551	0.725	1	incongruent	Block3	incongruent/STIM_023.jpg
2792.706	0.917	1	incongruent	Block3	incongruent/STIM_023.jpg
2795.635	0.694	1	incongruent	Block3	incongruent/STIM_023.jpg
2800.103	0.627	1	incongruent	Block3	incongruent/STIM_024.jpg
2804.725	1.12	1	incongruent	Block3	incongruent/STIM_024.jpg
2808.788	1.135	1	incongruent	Block3	incongruent/STIM_024.jpg
2813.019	1.072	1	incongruent	Block3	incongruent/STIM_024.jpg
2816.396	0.862	1	incongruent	Block3	incongruent/STIM_024.jpg
2819.739	0.581	1	incongruent	Block3	incongruent/STIM_025.jpg
2823.359	0.849	1	incongruent	Block3	incongruent/STIM_025.jpg
2828.082	1.088	1	incongruent	Block3	incongruent/STIM_025.jpg
2831.758	0.791	1	incongruent	Block3	incongruent/STIM_025.jpg
2835.399	0.827	1	incongruent	Block3	incongruent/STIM_025.jpg
2838.859	0.631	1	incongruent	Block3	incongruent/STIM_026.jpg
2841.883	0.58	1	incongruent	Block3	incongruent/STIM_026.jpg
2845.514	1.087	1	incongruent	Block3	incongruent/STIM_026.jpg
2850.075	0.578	1	incongruent	Block3	incongruent/STIM_026.jpg
2853.592	0.641	1	incongruent	Block3	incongruent/STIM_026.jpg
2857.064	0.72	1	incongruent	Block3	incongruent/STIM_027.jpg
2860.483	0.805	1	incongruent	Block3	incongruent/STIM_027.jpg
2864.341	0.597	1	incongruent	Block3	incongruent/STIM_027.jpg
2868.93	0.709	1	incongruent	Block3	incongruent/STIM_027.jpg
2871.878	0.897	1	incongruent	Block3	incongruent/STIM_027.jpg
2876.662	0.842	0	incongruent	Block3	incongruent/STIM_028.jpg
2880.936	1.13	1	incongruent	Block3	incongruent/STIM_028.jpg
2885.235	1.017	1	incongruent	Block3	incongruent/STIM_028.jpg
2888.305	0.745	1	incongruent	Block3	incongruent/STIM_028.jpg
2892.548	0.704	1	incongruent	Block3	incongruent/STIM_028.jpg
2895.699	1.155	1	incongruent	Block3	incongruent/STIM_029.jpg
2899.919	0.82	1	incongruent	Block3	incongruent/STIM_029.jpg
2903.995	0.953	1	incongruent	Block3	incongruent/STIM_029.jpg
2908.456	0.6	1	incongruent	Block3	incongruent/STIM_029.jpg
2912.654	0.568	1	incongruent	Block3	incongruent/STIM_029.jpg
2915.792	0.87	1	congruent	Block3	congruent/STIM_000.jpg
2920.354	0.722	0	congruent	Block3	congruent/STIM_000.jpg
2924.523	0.859	1	congruent	Block3	congruent/STIM_000.jpg
2928.743	0.8	1	congruent	Block3	congruent/STIM_000.jpg
2932.974	0.97	1	congruent	Block3	congruent/STIM_000.jpg
2937.284	0.862	1	congruent	Block3	congruent/STIM_001.jpg
2940.693	0.796	1	congruent	Block3	congruent/STIM_001.jpg
2944.801	0.625	1	congruent	Block3	congruent/STIM_001.jpg
2948.549	0.912	1	congruent	Block3	congruent/STIM_001.jpg
2953.077	0.732	1	congruent	Block3	congruent/STIM_001.jpg
2956.367	0.91	1	congruent	Block3	congruent/STIM_002.jpg
2959.928	0.933	1	congruent	Block3	congruent/STIM_002.jpg
2964.059	0.739	1	congruent	Block3	congruent/STIM_002.jpg
2967.648	0.839	1	congruent	Block3	congruent/STIM_002.jpg
2970.497	0.76	1	congruent	Block3	congruent/STIM_002.jpg
2973.257	0.615	1	congruent	Block3	congruent/STIM_003.jpg
2977.456	0.558	1	congruent	Block3	congruent/STIM_003.jpg
2981.799	0.681	1	congruent	Block3	congruent/STIM_003.jpg
2986.302	0.782	1	congruent	Block3	congruent/STIM_003.jpg
2990.484	0.814	1	congruent	Block3	congruent/STIM_003.jpg
2994.6	0.975	1	congruent	Block3	congruent/STIM_004.jpg
2998.195	0.758	1	congruent	Block3	congruent/STIM_004.jpg
3001.37	0.604	1	congruent	Block3	congruent/STIM_004.jpg
3005.481	0.921	1	congruent	Block3	congruent/STIM_004.jpg
3010.151	0.561	1	congruent	Block3	congruent/STIM_004.jpg
3014.649	0.569	1	congruent	Block3	congruent/STIM_005.jpg
3019.197	0.653	1	congruent	Block3	congruent/STIM_005.jpg
3023.54	0.611	1	congruent	Block3	congruent/STIM_005.jpg
3027.953	0.588	1	congruent	Block3	congruent/STIM_005.jpg
3032.315	0.924	1	congruent	Block3	congruent/STIM_005.jpg
3035.445	0.629	1	congruent	Block3	congruent/STIM_006.jpg
3039.291	0.811	1	congruent	Block3	congruent/STIM_006.jpg
3042.541	0.827	1	congruent	Block3	congruent/STIM_006.jpg
3046.76	0.751	1	congruent	Block3	congruent/STIM_006.jpg
3051.087	0.839	1	congruent	Block3	congruent/STIM_006.jpg
3054.041	0.571	1	congruent	Block3	congruent/STIM_007.jpg
3056.908	0.586	1	congruent	Block3	congruent/STIM_007.jpg
3059.921	0.82	1	congruent	Block3	congruent/STIM_007.jpg
3063.507	0.598	1	congruent	Block3	congruent/STIM_007.jpg
3066.11	0.569	1	congruent	Block3	congruent/STIM_007.jpg
3069.958	0.801	1	congruent	Block3	congruent/STIM_008.jpg
3074.204	0.811	1	congruent	Block3	congruent/STIM_008.jpg
3078.746	0.721	1	congruent	Block3	congruent/STIM_008.jpg
3082.215	0.928	1	congruent	Block3	congruent/STIM_008.jpg
3086.668	0.882	1	congruent	Block3	congruent/STIM_008.jpg
3089.886	0.622	1	congruent	Block3	congruent/STIM_009.jpg
3093.124	0.639	1	congruent	Block3	congruent/STIM_009.jpg
3096.616	0.858	1	congruent	Block3	congruent/STIM_009.jpg
3100.936	0.905	1	congruent	Block3	congruent/STIM_009.jpg
3105.815	0.816	1	congruent	Block3	congruent/STIM_009.jpg
3110.095	0.567	1	congruent	Block3	congruent/STIM_010.jpg
3112.758	0.988	1	congruent	Block3	congruent/STIM_010.jpg
3116.944	0.974	1	congruent	Block3	congruent/STIM_010.jpg
3120.834	0.66	1	congruent	Block3	congruent/STIM_010.jpg
3123.718	0.908	1	congruent	Block3	congruent/STIM_010.jpg
3126.796	0.847	1	congruent	Block3	congruent/STIM_011.jpg
3130.784	0.821	1	congruent	Block3	congruent/STIM_011.jpg
3135.36	0.874	1	congruent	Block3	congruent/STIM_011.jpg
3139.835	0.665	1	congruent	Block3	congruent/STIM_011.jpg
3143.813	0.604	1	congruent	Block3	congruent/STIM_011.jpg
3147.557	0.666	1	congruent	Block3	congruent/STIM_012.jpg
3152.197	0.907	1	congruent	Block3	congruent/STIM_012.jpg
3156.687	0.631	1	congruent	Block3	congruent/STIM_012.jpg
3160.346	0.857	1	congruent	Block3	congruent/STIM_012.jpg
3163.951	0.911	1	congruent	Block3	congruent/STIM_012.jpg
3168.727	0.639	1	congruent	Block3	congruent/STIM_013.jpg
3172.501	0.665	1	congruent	Block3	congruent/STIM_013.jpg
3175.589	0.763	0	congruent	Block3	congruent/STIM_013.jpg
3179.215	0.65	1	congruent	Block3	congruent/STIM_013.jpg
3183.362	0.867	1	congruent	Block3	congruent/STIM_013.jpg
3187.895	0.91	1	congruent	Block3	congruent/STIM_014.jpg
3191.9	0.757	1	congruent	Block3	congruent/STIM_014.jpg
3195.148	0.865	1	congruent	Block3	congruent/STIM_014.jpg
3198.836	0.763	1	congruent	Block3	congruent/STIM_014.jpg
3203.342	0.68	1	congruent	Block3	congruent/STIM_014.jpg
3206.717	0.557	1	congruent	Block3	congruent/STIM_015.jpg
3211.185	0.632	1	congruent	Block3	congruent/STIM_015.jpg
3215.129	0.954	1	congruent	Block3	congruent/STIM_015.jpg
3218.334	0.683	1	congruent	Block3	congruent/STIM_015.jpg
3222.33	0.567	1	congruent	Block3	congruent/STIM_015.jpg
3224.921	0.602	1	congruent	Block3	congruent/STIM_016.jpg
3229.356	0.907	1	congruent	Block3	congruent/STIM_016.jpg
3233.202	0.744	1	congruent	Block3	congruent/STIM_016.jpg
3237.8	0.99	1	congruent	Block3	congruent/STIM_016.jpg
3241.885	0.904	1	congruent	Block3	congruent/STIM_016.jpg
3246.336	0.578	1	congruent	Block3	congruent/STIM_017.jpg
3249.783	0.573	1	congruent	Block3	congruent/STIM_017.jpg
3253.3	0.642	1	congruent	Block3	congruent/STIM_017.jpg
3256.373	0.661	1	congruent	Block3	congruent/STIM_017.jpg
3260.803	0.75	1	congruent	Block3	congruent/STIM_017.jpg
3264.112	0.716	1	congruent	Block3	congruent/STIM_018.jpg
3268.669	0.868	1	congruent	Block3	congruent/STIM_018.jpg
3273.054	0.746	1	congruent	Block3	congruent/STIM_018.jpg
3277.344	0.973	1	congruent	Block3	congruent/STIM_018.jpg
3280.907	0.665	1	congruent	Block3	congruent/STIM_018.jpg
3284.045	0.844	1	congruent	Block3	congruent/STIM_019.jpg
3286.907	0.675	1	congruent	Block3	congruent/STIM_019.jpg
3290.326	0.724	1	congruent	Block3	congruent/STIM_019.jpg
3295.038	0.773	1	congruent	Block3	congruent/STIM_019.jpg
3299.449	0.883	1	congruent	Block3	congruent/STIM_019.jpg
3304.279	0.787	1	congruent	Block3	congruent/STIM_020.jpg
3307.534	0.582	1	congruent	Block3	congruent/STIM_020.jpg
3311.391	0.984	1	congruent	Block3	congruent/STIM_020.jpg
3314.882	0.752	1	congruent	Block3	congruent/STIM_020.jpg
3318.528	0.554	1	congruent	Block3	congruent/STIM_020.jpg
3321.127	0.83	1	congruent	Block3	congruent/STIM_021.jpg
3324.329	0.612	1	congruent	Block3	congruent/STIM_021.jpg
3327.343	0.587	1	congruent	Block3	congruent/STIM_021.jpg
3330.902	0.696	1	congruent	Block3	congruent/STIM_021.jpg
3335.556	0.789	1	congruent	Block3	congruent/STIM_021.jpg
3339.62	0.783	1	congruent	Block3	congruent/STIM_022.jpg
3343.241	0.737	1	congruent	Block3	congruent/STIM_022.jpg
3346.75	0.926	1	congruent	Block3	congruent/STIM_022.jpg
3350.625	0.639	1	congruent	Block3	congruent/STIM_022.jpg
3353.708	0.788	1	congruent	Block3	congruent/STIM_022.jpg
3357.753	0.718	1	congruent	Block3	congruent/STIM_023.jpg
3361.212	0.653	1	congruent	Block3	congruent/STIM_023.jpg
3364.83	0.588	1	congruent	Block3	congruent/STIM_023.jpg
3367.456	0.637	1	congruent	Block3	congruent/STIM_023.jpg
3371.875	0.824	1	congruent	Block3	congruent/STIM_023.jpg
3375.748	0.682	1	congruent	Block3	congruent/STIM_024.jpg
3380.408	0.953	1	congruent	Block3	congruent/STIM_024.jpg
3384.019	0.978	1	congruent	Block3	congruent/STIM_024.jpg
3388.247	0.774	1	congruent	Block3	congruent/STIM_024.jpg
3391.291	0.615	1	congruent	Block3	congruent/STIM_024.jpg
3394.263	0.871	1	congruent	Block3	congruent/STIM_025.jpg
3398.038	0.673	0	congruent	Block3	congruent/STIM_025.jpg
3402.274	0.908	1	congruent	Block3	congruent/STIM_025.jpg
3406.789	0.873	0	congruent	Block3	congruent/STIM_025.jpg
3409.995	0.707	1	congruent	Block3	congruent/STIM_025.jpg
3414.526	0.86	1	congruent	Block3	congruent/STIM_026.jpg
3417.732	0.628	1	congruent	Block3	congruent/STIM_026.jpg
3420.515	0.87	1	congruent	Block3	congruent/STIM_026.jpg
3423.979	0.729	1	congruent	Block3	congruent/STIM_026.jpg
3427.559	0.726	1	congruent	Block3	congruent/STIM_026.jpg
3431.279	0.991	1	congruent	Block3	congruent/STIM_027.jpg
3436.093	0.604	1	congruent	Block3	congruent/STIM_027.jpg
3439.469	0.848	1	congruent	Block3	congruent/STIM_027.jpg
3442.705	0.893	1	congruent	Block3	congruent/STIM_027.jpg
3447.351	0.887	1	congruent	Block3	congruent/STIM_027.jpg
3451.354	0.632	1	congruent	Block3	congruent/STIM_028.jpg
3455.236	0.956	1	congruent	Block3	congruent/STIM_028.jpg
3460.054	0.775	1	congruent	Block3	congruent/STIM_028.jpg
3464.443	0.977	1	congruent	Block3	congruent/STIM_028.jpg
3467.894	0.889	1	congruent	Block3	congruent/STIM_028.jpg
3471.299	0.68	1	congruent	Block3	congruent/STIM_029.jpg
3475.249	0.828	1	congruent	Block3	congruent/STIM_029.jpg
3479.147	0.668	1	congruent	Block3	congruent/STIM_029.jpg
3482.705	0.916	0	congruent	Block3	congruent/STIM_029.jpg
3487.066	0.697	1	congruent	Block3	congruent/STIM_029.jpg
