onset	duration	accuracy_binary	trial_type	learning_stage	stimulus
0.0	3.542	1	navigation	Trial1	navigation/STIM_000.jpg
6.576	3.064	1	navigation	Trial1	navigation/STIM_000.jpg
13.146	2.985	1	navigation	Trial1	navigation/STIM_000.jpg
18.733	3.316	0	navigation	Trial1	navigation/STIM_000.jpg
25.084	1.702	1	navigation	Trial1	navigation/STIM_000.jpg
29.44	1.571	1	navigation	Trial1	navigation/STIM_000.jpg
34.731	2.35	1	navigation	Trial1	navigation/STIM_001.jpg
39.45	3.208	1	navigation	Trial1	navigation/STIM_001.jpg
45.46	3.812	1	navigation	Trial1	navigation/STIM_001.jpg
51.838	2.501	1	navigation	Trial1	navigation/STIM_001.jpg
57.255	1.534	1	navigation	Trial1	navigation/STIM_001.jpg
61.8	2.558	1	navigation	Trial1	navigation/STIM_001.jpg
68.003	4.499	0	navigation	Trial1	navigation/STIM_002.jpg
75.832	2.535	1	navigation	Trial1	navigation/STIM_002.jpg
82.532	2.497	1	navigation	Trial1	navigation/STIM_002.jpg
87.844	2.766	1	navigation	Trial1	navigation/STIM_002.jpg
93.325	1.824	0	navigation	Trial1	navigation/STIM_002.jpg
98.748	2.167	1	navigation	Trial1	navigation/STIM_002.jpg
104.746	2.024	1	navigation	Trial1	navigation/STIM_003.jpg
109.831	2.366	0	navigation	Trial1	navigation/STIM_003.jpg
115.9	3.723	1	navigation	Trial1	navigation/STIM_003.jpg
123.057	3.396	1	navigation	Trial1	navigation/STIM_003.jpg
129.314	2.381	1	navigation	Trial1	navigation/STIM_003.jpg
135.127	2.379	0	navigation	Trial1	navigation/STIM_003.jpg
140.88	4.43	1	navigation	Trial1	navigation/STIM_004.jpg
149.557	3.318	0	navigation	Trial1	navigation/STIM_004.jpg
155.436	1.88	0	navigation	Trial1	navigation/STIM_004.jpg
160.263	2.89	1	navigation	Trial1	navigation/STIM_004.jpg
166.655	2.531	0	navigation	Trial1	navigation/STIM_004.jpg
172.081	2.976	1	navigation	Trial1	navigation/STIM_004.jpg
177.745	4.387	1	navigation	Trial1	navigation/STIM_005.jpg
185.507	2.194	1	navigation	Trial1	navigation/STIM_005.jpg
189.957	4.068	1	navigation	Trial1	navigation/STIM_005.jpg
197.034	2.977	1	navigation	Trial1	navigation/STIM_005.jpg
203.596	1.909	1	navigation	Trial1	navigation/STIM_005.jpg
208.466	3.186	1	navigation	Trial1	navigation/STIM_005.jpg
214.828	2.802	1	navigation	Trial1	navigation/STIM_006.jpg
221.05	2.354	1	navigation	Trial1	navigation/STIM_006.jpg
227.262	1.74	1	navigation	Trial1	navigation/STIM_006.jpg
233.102	2.364	1	navigation	Trial1	navigation/STIM_006.jpg
238.75	2.804	1	navigation	Trial1	navigation/STIM_006.jpg
244.604	2.904	1	navigation	Trial1	navigation/STIM_006.jpg
251.731	2.958	0	navigation	Trial1	navigation/STIM_007.jpg
258.145	2.462	1	navigation	Trial1	navigation/STIM_007.jpg
262.876	3.234	1	navigation	Trial1	navigation/STIM_007.jpg
270.262	1.713	1	navigation	Trial1	navigation/STIM_007.jpg
276.177	3.251	1	navigation	Trial1	navigation/STIM_007.jpg
282.868	2.806	1	navigation	Trial1	navigation/STIM_007.jpg
288.725	2.886	0	navigation	Trial1	navigation/STIM_008.jpg
294.507	2.36	1	navigation	Trial1	navigation/STIM_008.jpg
300.179	3.114	1	navigation	Trial1	navigation/STIM_008.jpg
306.681	2.7	1	navigation	Trial1	navigation/STIM_008.jpg
313.057	2.252	1	navigation	Trial1	navigation/STIM_008.jpg
317.872	2.529	0	navigation	Trial1	navigation/STIM_008.jpg
324.158	3.2	1	navigation	Trial1	navigation/STIM_009.jpg
330.629	1.81	1	navigation	Trial1	navigation/STIM_009.jpg
336.355	2.552	1	navigation	Trial1	navigation/STIM_009.jpg
341.399	3.185	1	navigation	Trial1	navigation/STIM_009.jpg
347.234	2.71	0	navigation	Trial1	navigation/STIM_009.jpg
353.31	2.766	1	navigation	Trial1	navigation/STIM_009.jpg
360.266	3.99	1	navigation	Trial1	navigation/STIM_010.jpg
366.994	2.451	1	navigation	Trial1	navigation/STIM_010.jpg
373.452	3.443	0	navigation	Trial1	navigation/STIM_010.jpg
379.278	1.785	1	navigation	Trial1	navigation/STIM_010.jpg
385.21	3.356	1	navigation	Trial1	navigation/STIM_010.jpg
391.563	2.223	1	navigation	Trial1	navigation/STIM_010.jpg
397.637	2.816	0	navigation	Trial1	navigation/STIM_011.jpg
403.14	3.08	0	navigation	Trial1	navigation/STIM_011.jpg
408.853	3.978	1	navigation	Trial1	navigation/STIM_011.jpg
416.23	3.188	1	navigation	Trial1	navigation/STIM_011.jpg
422.559	1.858	1	navigation	Trial1	navigation/STIM_011.jpg
427.389	1.401	0	navigation	Trial1	navigation/STIM_011.jpg
431.293	1.139	1	pointing	Trial1	pointing/STIM_000.jpg
434.759	0.968	1	pointing	Trial1	pointing/STIM_000.jpg
439.294	0.867	1	pointing	Trial1	pointing/STIM_000.jpg
442.971	1.244	1	pointing	Trial1	pointing/STIM_000.jpg
448.165	0.766	1	pointing	Trial1	pointing/STIM_000.jpg
452.461	1.11	1	pointing	Trial1	pointing/STIM_000.jpg
456.051	0.751	1	pointing	Trial1	pointing/STIM_001.jpg
458.897	0.722	1	pointing	Trial1	pointing/STIM_001.jpg
463.315	1.204	1	pointing	Trial1	pointing/STIM_001.jpg
467.26	0.898	1	pointing	Trial1	pointing/STIM_001.jpg
471.548	1.374	1	pointing	Trial1	pointing/STIM_001.jpg
475.898	1.032	1	pointing	Trial1	pointing/STIM_001.jpg
479.867	1.108	1	pointing	Trial1	pointing/STIM_002.jpg
483.771	1.006	1	pointing	Trial1	pointing/STIM_002.jpg
488.852	0.885	1	pointing	Trial1	pointing/STIM_002.jpg
493.729	1.024	1	pointing	Trial1	pointing/STIM_002.jpg
498.199	1.029	1	pointing	Trial1	pointing/STIM_002.jpg
503.189	0.818	1	pointing	Trial1	pointing/STIM_002.jpg
506.433	1.278	1	pointing	Trial1	pointing/STIM_003.jpg
511.235	0.735	1	pointing	Trial1	pointing/STIM_003.jpg
514.64	1.173	1	pointing	Trial1	pointing/STIM_003.jpg
519.065	0.787	1	pointing	Trial1	pointing/STIM_003.jpg
523.685	1.29	0	pointing	Trial1	pointing/STIM_003.jpg
527.515	0.795	1	pointing	Trial1	pointing/STIM_003.jpg
531.681	1.296	0	pointing	Trial1	pointing/STIM_004.jpg
535.109	0.924	1	pointing	Trial1	pointing/STIM_004.jpg
538.979	0.758	1	pointing	Trial1	pointing/STIM_004.jpg
543.825	1.372	1	pointing	Trial1	pointing/STIM_004.jpg
548.496	1.027	1	pointing	Trial1	pointing/STIM_004.jpg
552.408	1.129	1	pointing	Trial1	pointing/STIM_004.jpg
557.166	0.821	1	pointing	Trial1	pointing/STIM_005.jpg
561.419	0.737	0	pointing	Trial1	pointing/STIM_005.jpg
564.305	1.301	1	pointing	Trial1	pointing/STIM_005.jpg
569.513	0.835	1	pointing	Trial1	pointing/STIM_005.jpg
573.965	0.995	1	pointing	Trial1	pointing/STIM_005.jpg
578.825	1.037	1	pointing	Trial1	pointing/STIM_005.jpg
582.914	1.111	1	pointing	Trial1	pointing/STIM_006.jpg
586.318	1.161	1	pointing	Trial1	pointing/STIM_006.jpg
590.003	1.119	1	pointing	Trial1	pointing/STIM_006.jpg
595.233	1.16	1	pointing	Trial1	pointing/STIM_006.jpg
599.938	1.017	1	pointing	Trial1	pointing/STIM_006.jpg
604.907	0.723	1	pointing	Trial1	pointing/STIM_006.jpg
609.065	1.056	1	pointing	Trial1	pointing/STIM_007.jpg
613.873	1.137	1	pointing	Trial1	pointing/STIM_007.jpg
617.21	1.087	1	pointing	Trial1	pointing/STIM_007.jpg
620.519	1.173	1	pointing	Trial1	pointing/STIM_007.jpg
623.881	1.334	1	pointing	Trial1	pointing/STIM_007.jpg
628.275	0.927	1	pointing	Trial1	pointing/STIM_007.jpg
632.435	1.073	1	pointing	Trial1	pointing/STIM_008.jpg
637.445	1.274	1	pointing	Trial1	pointing/STIM_008.jpg
642.626	1.136	1	pointing	Trial1	pointing/STIM_008.jpg
646.375	1.245	1	pointing	Trial1	pointing/STIM_008.jpg
651.24	0.835	1	pointing	Trial1	pointing/STIM_008.jpg
655.865	0.848	1	pointing	Trial1	pointing/STIM_008.jpg
660.594	0.9	1	pointing	Trial1	pointing/STIM_009.jpg
663.648	1.128	1	pointing	Trial1	pointing/STIM_009.jpg
667.8	1.045	1	pointing	Trial1	pointing/STIM_009.jpg
672.318	0.8	0	pointing	Trial1	pointing/STIM_009.jpg
676.171	1.184	1	pointing	Trial1	pointing/STIM_009.jpg
680.224	1.267	1	pointing	Trial1	pointing/STIM_009.jpg
683.733	0.872	1	pointing	Trial1	pointing/STIM_010.jpg
687.801	0.867	1	pointing	Trial1	pointing/STIM_010.jpg
691.381	0.993	1	pointing	Trial1	pointing/STIM_010.jpg
696.458	1.274	1	pointing	Trial1	pointing/STIM_010.jpg
700.257	1.018	1	pointing	Trial1	pointing/STIM_010.jpg
704.221	0.859	1	pointing	Trial1	pointing/STIM_010.jpg
707.887	0.929	1	pointing	Trial1	pointing/STIM_011.jpg
712.326	0.769	1	pointing	Trial1	pointing/STIM_011.jpg
716.556	0.933	1	pointing	Trial1	pointing/STIM_011.jpg
721.384	1.148	1	pointing	Trial1	pointing/STIM_011.jpg
725.859	0.752	1	pointing	Trial1	pointing/STIM_011.jpg
729.518	1.243	1	pointing	Trial1	pointing/STIM_011.jpg
732.936	3.724	1	navigation	Trial2	navigation/STIM_000.jpg
739.649	2.478	1	navigation	Trial2	navigation/STIM_000.jpg
744.841	1.535	0	navigation	Trial2	navigation/STIM_000.jpg
750.298	2.934	1	navigation	Trial2	navigation/STIM_000.jpg
755.834	1.944	1	navigation	Trial2	navigation/STIM_000.jpg
761.458	1.685	1	navigation	Trial2	navigation/STIM_000.jpg
766.254	1.724	1	navigation	Trial2	navigation/STIM_001.jpg
771.761	2.505	1	navigation	Trial2	navigation/STIM_001.jpg
777.568	3.444	1	navigation	Trial2	navigation/STIM_001.jpg
783.504	2.764	1	navigation	Trial2	navigation/STIM_001.jpg
788.941	1.653	1	navigation	Trial2	navigation/STIM_001.jpg
793.293	2.484	1	navigation	Trial2	navigation/STIM_001.jpg
798.809	3.476	1	navigation	Trial2	navigation/STIM_002.jpg
806.189	2.933	0	navigation	Trial2	navigation/STIM_002.jpg
812.337	3.244	1	navigation	Trial2	navigation/STIM_002.jpg
818.328	2.074	1	navigation	Trial2	navigation/STIM_002.jpg
823.407	3.02	1	navigation	Trial2	navigation/STIM_002.jpg
829.393	2.7	1	navigation	Trial2	navigation/STIM_002.jpg
835.89	3.719	1	navigation	Trial2	navigation/STIM_003.jpg
842.887	2.695	1	navigation	Trial2	navigation/STIM_003.jpg
848.685	3.404	1	navigation	Trial2	navigation/STIM_003.jpg
855.754	2.821	1	navigation	Trial2	navigation/STIM_003.jpg
861.447	2.704	0	navigation	Trial2	navigation/STIM_003.jpg
868.138	1.548	1	navigation	Trial2	navigation/STIM_003.jpg
872.613	2.785	1	navigation	Trial2	navigation/STIM_004.jpg
878.065	2.723	1	navigation	Trial2	navigation/STIM_004.jpg
883.722	1.313	0	navigation	Trial2	navigation/STIM_004.jpg
888.145	2.309	1	navigation	Trial2	navigation/STIM_004.jpg
894.075	1.662	1	navigation	Trial2	navigation/STIM_004.jpg
898.663	1.657	1	navigation	Trial2	navigation/STIM_004.jpg
904.388	1.812	1	navigation	Trial2	navigation/STIM_005.jpg
909.421	1.51	1	navigation	Trial2	navigation/STIM_005.jpg
913.679	2.231	1	navigation	Trial2	navigation/STIM_005.jpg
918.421	2.755	1	navigation	Trial2	navigation/STIM_005.jpg
924.747	2.9	1	navigation	Trial2	navigation/STIM_005.jpg
931.55	1.742	1	navigation	Trial2	navigation/STIM_005.jpg
935.957	3.4	1	navigation	Trial2	navigation/STIM_006.jpg
943.316	2.987	1	navigation	Trial2	navigation/STIM_006.jpg
948.868	1.68	1	navigation	Trial2	navigation/STIM_006.jpg
953.794	2.407	1	navigation	Trial2	navigation/STIM_006.jpg
959.41	2.774	1	navigation	Trial2	navigation/STIM_006.jpg
966.331	2.221	1	navigation	Trial2	navigation/STIM_006.jpg
970.906	2.969	1	navigation	Trial2	navigation/STIM_007.jpg
976.532	3.585	1	navigation	Trial2	navigation/STIM_007.jpg
982.464	1.939	1	navigation	Trial2	navigation/STIM_007.jpg
986.783	1.809	1	navigation	Trial2	navigation/STIM_007.jpg
992.039	2.435	1	navigation	Trial2	navigation/STIM_007.jpg
998.211	1.492	1	navigation	Trial2	navigation/STIM_007.jpg
1003.499	1.856	1	navigation	Trial2	navigation/STIM_008.jpg
1009.239	2.75	1	navigation	Trial2	navigation/STIM_008.jpg
1015.848	2.857	1	navigation	Trial2	navigation/STIM_008.jpg
1022.421	2.426	0	navigation	Trial2	navigation/STIM_008.jpg
1028.377	2.176	0	navigation	Trial2	navigation/STIM_008.jpg
1033.041	2.161	1	navigation	Trial2	navigation/STIM_008.jpg
1038.351	1.848	1	navigation	Trial2	navigation/STIM_009.jpg
1043.566	2.298	1	navigation	Trial2	navigation/STIM_009.jpg
1048.922	2.417	0	navigation	Trial2	navigation/STIM_009.jpg
1054.968	2.299	1	navigation	Trial2	navigation/STIM_009.jpg
1059.931	2.013	0	navigation	Trial2	navigation/STIM_009.jpg
1065.044	1.703	1	navigation	Trial2	navigation/STIM_009.jpg
1070.693	1.612	1	navigation	Trial2	navigation/STIM_010.jpg
1074.584	2.811	1	navigation	Trial2	navigation/STIM_010.jpg
1079.97	3.276	1	navigation	Trial2	navigation/STIM_010.jpg
1086.146	2.1	1	navigation	Trial2	navigation/STIM_010.jpg
1090.696	1.376	1	navigation	Trial2	navigation/STIM_010.jpg
1095.523	3.11	1	navigation	Trial2	navigation/STIM_010.jpg
1101.819	1.915	0	navigation	Trial2	navigation/STIM_011.jpg
1107.29	1.82	1	navigation	Trial2	navigation/STIM_011.jpg
1113.201	2.925	1	navigation	Trial2	navigation/STIM_011.jpg
1119.296	1.639	1	navigation	Trial2	navigation/STIM_011.jpg
1124.606	1.653	1	navigation	Trial2	navigation/STIM_011.jpg
1129.488	2.396	1	navigation	Trial2	navigation/STIM_011.jpg
1134.807	0.908	1	pointing	Trial2	pointing/STIM_000.jpg
1138.102	0.958	1	pointing	Trial2	pointing/STIM_000.jpg
1141.528	1.12	1	pointing	Trial2	pointing/STIM_000.jpg
1145.81	0.867	1	pointing	Trial2	pointing/STIM_000.jpg
1149.761	1.055	1	pointing	Trial2	pointing/STIM_000.jpg
1153.607	1.039	1	pointing	Trial2	pointing/STIM_000.jpg
1157.684	1.288	1	pointing	Trial2	pointing/STIM_001.jpg
1161.958	1.274	1	pointing	Trial2	pointing/STIM_001.jpg
1166.615	0.949	1	pointing	Trial2	pointing/STIM_001.jpg
1170.858	1.261	1	pointing	Trial2	pointing/STIM_001.jpg
1174.707	1.284	1	pointing	Trial2	pointing/STIM_001.jpg
1178.34	1.36	1	pointing	Trial2	pointing/STIM_001.jpg
1183.104	1.133	1	pointing	Trial2	pointing/STIM_002.jpg
1186.98	1.182	1	pointing	Trial2	pointing/STIM_002.jpg
1191.305	0.993	1	pointing	Trial2	pointing/STIM_002.jpg
1195.715	1.288	1	pointing	Trial2	pointing/STIM_002.jpg
1200.657	0.661	1	pointing	Trial2	pointing/STIM_002.jpg
1203.537	1.056	1	pointing	Trial2	pointing/STIM_002.jpg
1207.657	1.076	1	pointing	Trial2	pointing/STIM_003.jpg
1211.888	0.688	1	pointing	Trial2	pointing/STIM_003.jpg
1215.438	0.923	1	pointing	Trial2	pointing/STIM_003.jpg
1218.761	1.138	1	pointing	Trial2	pointing/STIM_003.jpg
1222.173	1.362	1	pointing	Trial2	pointing/STIM_003.jpg
1226.205	1.294	1	pointing	Trial2	pointing/STIM_003.jpg
1230.53	0.981	1	pointing	Trial2	pointing/STIM_004.jpg
1235.542	1.224	1	pointing	Trial2	pointing/STIM_004.jpg
1240.05	1.16	1	pointing	Trial2	pointing/STIM_004.jpg
1243.47	0.95	0	pointing	Trial2	pointing/STIM_004.jpg
1247.147	0.94	1	pointing	Trial2	pointing/STIM_004.jpg
1252.17	1.154	1	pointing	Trial2	pointing/STIM_004.jpg
1255.708	0.93	1	pointing	Trial2	pointing/STIM_005.jpg
1259.127	1.168	1	pointing	Trial2	pointing/STIM_005.jpg
1262.858	0.93	0	pointing	Trial2	pointing/STIM_005.jpg
1267.402	0.858	1	pointing	Trial2	pointing/STIM_005.jpg
1270.536	0.914	1	pointing	Trial2	pointing/STIM_005.jpg
1274.424	1.42	1	pointing	Trial2	pointing/STIM_005.jpg
1278.536	1.022	1	pointing	Trial2	pointing/STIM_006.jpg
1282.141	1.034	1	pointing	Trial2	pointing/STIM_006.jpg
1285.54	1.187	1	pointing	Trial2	pointing/STIM_006.jpg
1290.524	0.746	1	pointing	Trial2	pointing/STIM_006.jpg
1295.156	0.773	1	pointing	Trial2	pointing/STIM_006.jpg
1298.605	1.094	1	pointing	Trial2	pointing/STIM_006.jpg
1303.196	1.017	1	pointing	Trial2	pointing/STIM_007.jpg
1308.248	1.099	1	pointing	Trial2	pointing/STIM_007.jpg
1313.13	1.141	1	pointing	Trial2	pointing/STIM_007.jpg
1317.067	1.355	1	pointing	Trial2	pointing/STIM_007.jpg
1321.325	0.99	1	pointing	Trial2	pointing/STIM_007.jpg
1326.414	0.896	1	pointing	Trial2	pointing/STIM_007.jpg
1330.821	1.125	1	pointing	Trial2	pointing/STIM_008.jpg
1335.137	0.916	1	pointing	Trial2	pointing/STIM_008.jpg
1339.988	1.126	0	pointing	Trial2	pointing/STIM_008.jpg
1343.92	0.998	1	pointing	Trial2	pointing/STIM_008.jpg
1347.294	0.988	1	pointing	Trial2	pointing/STIM_008.jpg
1351.771	0.755	1	pointing	Trial2	pointing/STIM_008.jpg
1355.62	0.943	1	pointing	Trial2	pointing/STIM_009.jpg
1358.883	0.968	1	pointing	Trial2	pointing/STIM_009.jpg
1363.174	0.934	1	pointing	Trial2	pointing/STIM_009.jpg
1367.657	1.338	1	pointing	Trial2	pointing/STIM_009.jpg
1371.712	1.139	1	pointing	Trial2	pointing/STIM_009.jpg
1376.818	0.798	1	pointing	Trial2	pointing/STIM_009.jpg
1379.697	1.181	1	pointing	Trial2	pointing/STIM_010.jpg
1384.14	0.991	1	pointing	Trial2	pointing/STIM_010.jpg
1388.757	1.243	1	pointing	Trial2	pointing/STIM_010.jpg
1393.852	0.677	1	pointing	Trial2	pointing/STIM_010.jpg
1397.383	0.915	1	pointing	Trial2	pointing/STIM_010.jpg
1400.491	1.197	0	pointing	Trial2	pointing/STIM_010.jpg
1404.726	1.384	0	pointing	Trial2	pointing/STIM_011.jpg
1409.928	1.208	1	pointing	Trial2	pointing/STIM_011.jpg
1415.044	0.892	1	pointing	Trial2	pointing/STIM_011.jpg
1419.704	0.834	1	pointing	Trial2	pointing/STIM_011.jpg
1424.477	1.057	0	pointing	Trial2	pointing/STIM_011.jpg
1428.323	0.649	1	pointing	Trial2	pointing/STIM_011.jpg
1432.838	1.578	1	navigation	Trial3	navigation/STIM_000.jpg
1438.356	2.972	1	navigation	Trial3	navigation/STIM_000.jpg
1445.411	2.264	1	navigation	Trial3	navigation/STIM_000.jpg
1451.872	3.073	1	navigation	Trial3	navigation/STIM_000.jpg
1458.683	2.227	1	navigation	Trial3	navigation/STIM_000.jpg
1463.878	2.91	1	navigation	Trial3	navigation/STIM_000.jpg
1469.368	1.988	1	navigation	Trial3	navigation/STIM_001.jpg
1474.624	1.609	1	navigation	Trial3	navigation/STIM_001.jpg
1479.822	2.96	1	navigation	Trial3	navigation/STIM_001.jpg
1486.893	2.635	1	navigation	Trial3	navigation/STIM_001.jpg
1492.049	2.997	1	navigation	Trial3	navigation/STIM_001.jpg
1498.943	1.36	1	navigation	Trial3	navigation/STIM_001.jpg
1503.679	2.032	1	navigation	Trial3	navigation/STIM_002.jpg
1508.391	2.169	1	navigation	Trial3	navigation/STIM_002.jpg
1512.673	2.802	1	navigation	Trial3	navigation/STIM_002.jpg
1517.792	1.897	1	navigation	Trial3	navigation/STIM_002.jpg
1523.225	2.31	1	navigation	Trial3	navigation/STIM_002.jpg
1529.256	2.198	1	navigation	Trial3	navigation/STIM_002.jpg
1534.617	3.066	0	navigation	Trial3	navigation/STIM_003.jpg
1540.386	2.424	1	navigation	Trial3	navigation/STIM_003.jpg
1546.285	3.126	1	navigation	Trial3	navigation/STIM_003.jpg
1552.137	2.19	1	navigation	Trial3	navigation/STIM_003.jpg
1557.213	2.406	0	navigation	Trial3	navigation/STIM_003.jpg
1562.008	2.462	1	navigation	Trial3	navigation/STIM_003.jpg
1566.823	1.3	1	navigation	Trial3	navigation/STIM_004.jpg
1570.801	2.468	1	navigation	Trial3	navigation/STIM_004.jpg
1577.098	1.673	0	navigation	Trial3	navigation/STIM_004.jpg
1581.586	1.973	1	navigation	Trial3	navigation/STIM_004.jpg
1586.212	1.35	1	navigation	Trial3	navigation/STIM_004.jpg
1590.006	2.688	0	navigation	Trial3	navigation/STIM_004.jpg
1596.561	2.437	1	navigation	Trial3	navigation/STIM_005.jpg
1601.608	2.391	0	navigation	Trial3	navigation/STIM_005.jpg
1606.782	1.817	1	navigation	Trial3	navigation/STIM_005.jpg
1611.415	2.572	1	navigation	Trial3	navigation/STIM_005.jpg
1616.837	3.072	1	navigation	Trial3	navigation/STIM_005.jpg
1622.441	2.958	1	navigation	Trial3	navigation/STIM_005.jpg
1628.447	2.176	1	navigation	Trial3	navigation/STIM_006.jpg
1632.856	1.933	1	navigation	Trial3	navigation/STIM_006.jpg
1638.309	2.854	1	navigation	Trial3	navigation/STIM_006.jpg
1645.069	2.371	1	navigation	Trial3	navigation/STIM_006.jpg
1650.682	2.094	1	navigation	Trial3	navigation/STIM_006.jpg
1656.88	1.6	1	navigation	Trial3	navigation/STIM_006.jpg
1661.767	3.038	1	navigation	Trial3	navigation/STIM_007.jpg
1667.129	1.628	1	navigation	Trial3	navigation/STIM_007.jpg
1672.13	2.619	1	navigation	Trial3	navigation/STIM_007.jpg
1677.625	2.476	1	navigation	Trial3	navigation/STIM_007.jpg
1684.124	1.33	1	navigation	Trial3	navigation/STIM_007.jpg
1689.3	1.496	1	navigation	Trial3	navigation/STIM_007.jpg
1693.853	2.51	1	navigation	Trial3	navigation/STIM_008.jpg
1699.682	1.97	1	navigation	Trial3	navigation/STIM_008.jpg
1704.919	1.673	1	navigation	Trial3	navigation/STIM_008.jpg
1709.69	2.116	0	navigation	Trial3	navigation/STIM_008.jpg
1715.274	2.203	1	navigation	Trial3	navigation/STIM_008.jpg
1720.018	1.851	1	navigation	Trial3	navigation/STIM_008.jpg
1724.483	2.272	1	navigation	Trial3	navigation/STIM_009.jpg
1729.951	1.431	1	navigation	Trial3	navigation/STIM_009.jpg
1734.582	1.654	1	navigation	Trial3	navigation/STIM_009.jpg
1739.286	1.504	1	navigation	Trial3	navigation/STIM_009.jpg
1744.815	2.548	1	navigation	Trial3	navigation/STIM_009.jpg
1750.745	2.317	1	navigation	Trial3	navigation/STIM_009.jpg
1756.367	1.314	1	navigation	Trial3	navigation/STIM_010.jpg
1760.797	2.751	1	navigation	Trial3	navigation/STIM_010.jpg
1766.837	2.095	1	navigation	Trial3	navigation/STIM_010.jpg
1772.662	1.728	1	navigation	Trial3	navigation/STIM_010.jpg
1777.38	2.934	1	navigation	Trial3	navigation/STIM_010.jpg
1784.296	1.878	1	navigation	Trial3	navigation/STIM_010.jpg
1789.749	2.374	1	navigation	Trial3	navigation/STIM_011.jpg
1794.496	1.344	1	navigation	Trial3	navigation/STIM_011.jpg
1798.609	2.492	0	navigation	Trial3	navigation/STIM_011.jpg
1804.775	1.774	1	navigation	Trial3	navigation/STIM_011.jpg
1809.881	1.993	1	navigation	Trial3	navigation/STIM_011.jpg
1815.807	2.037	0	navigation	Trial3	navigation/STIM_011.jpg
1819.972	1.133	1	pointing	Trial3	pointing/STIM_000.jpg
1823.828	0.908	1	pointing	Trial3	pointing/STIM_000.jpg
1826.949	0.866	1	pointing	Trial3	pointing/STIM_000.jpg
1830.691	1.342	1	pointing	Trial3	pointing/STIM_000.jpg
1835.307	1.134	1	pointing	Trial3	pointing/STIM_000.jpg
1839.838	1.164	1	pointing	Trial3	pointing/STIM_000.jpg
1844.582	1.021	1	pointing	Trial3	pointing/STIM_001.jpg
1847.999	1.031	1	pointing	Trial3	pointing/STIM_001.jpg
1851.937	0.885	1	pointing	Trial3	pointing/STIM_001.jpg
1856.049	1.23	1	pointing	Trial3	pointing/STIM_001.jpg
1859.876	1.361	1	pointing	Trial3	pointing/STIM_001.jpg
1865.134	1.094	1	pointing	Trial3	pointing/STIM_001.jpg
1869.721	1.124	1	pointing	Trial3	pointing/STIM_002.jpg
1874.293	0.759	1	pointing	Trial3	pointing/STIM_002.jpg
1877.909	1.305	0	pointing	Trial3	pointing/STIM_002.jpg
1881.527	0.69	1	pointing	Trial3	pointing/STIM_002.jpg
1884.991	1.096	1	pointing	Trial3	pointing/STIM_002.jpg
1889.918	1.122	1	pointing	Trial3	pointing/STIM_002.jpg
1894.009	0.98	1	pointing	Trial3	pointing/STIM_003.jpg
1898.428	1.035	0	pointing	Trial3	pointing/STIM_003.jpg
1903.53	0.683	1	pointing	Trial3	pointing/STIM_003.jpg
1907.178	1.1	1	pointing	Trial3	pointing/STIM_003.jpg
1912.322	1.214	1	pointing	Trial3	pointing/STIM_003.jpg
1916.658	1.27	1	pointing	Trial3	pointing/STIM_003.jpg
1921.906	0.989	1	pointing	Trial3	pointing/STIM_004.jpg
1926.59	1.195	1	pointing	Trial3	pointing/STIM_004.jpg
1931.339	1.333	1	pointing	Trial3	pointing/STIM_004.jpg
1936.794	0.931	1	pointing	Trial3	pointing/STIM_004.jpg
1941.037	0.906	1	pointing	Trial3	pointing/STIM_004.jpg
1944.829	1.061	0	pointing	Trial3	pointing/STIM_004.jpg
1949.285	1.128	1	pointing	Trial3	pointing/STIM_005.jpg
1953.099	1.018	1	pointing	Trial3	pointing/STIM_005.jpg
1958.207	0.926	1	pointing	Trial3	pointing/STIM_005.jpg
1961.687	0.939	0	pointing	Trial3	pointing/STIM_005.jpg
1966.137	1.249	1	pointing	Trial3	pointing/STIM_005.jpg
1970.121	1.293	1	pointing	Trial3	pointing/STIM_005.jpg
1973.803	0.957	1	pointing	Trial3	pointing/STIM_006.jpg
1977.49	1.297	1	pointing	Trial3	pointing/STIM_006.jpg
1981.152	1.288	1	pointing	Trial3	pointing/STIM_006.jpg
1985.012	0.93	0	pointing	Trial3	pointing/STIM_006.jpg
1989.914	0.852	1	pointing	Trial3	pointing/STIM_006.jpg
1994.695	1.098	1	pointing	Trial3	pointing/STIM_006.jpg
1998.174	0.874	1	pointing	Trial3	pointing/STIM_007.jpg
2002.71	1.327	1	pointing	Trial3	pointing/STIM_007.jpg
2006.919	0.745	1	pointing	Trial3	pointing/STIM_007.jpg
2011.109	1.156	1	pointing	Trial3	pointing/STIM_007.jpg
2014.547	1.325	1	pointing	Trial3	pointing/STIM_007.jpg
2019.227	1.042	1	pointing	Trial3	pointing/STIM_007.jpg
2023.241	1.234	1	pointing	Trial3	pointing/STIM_008.jpg
2026.961	1.308	1	pointing	Trial3	pointing/STIM_008.jpg
2031.784	1.204	1	pointing	Trial3	pointing/STIM_008.jpg
2035.274	1.065	1	pointing	Trial3	pointing/STIM_008.jpg
2040.525	1.173	1	pointing	Trial3	pointing/STIM_008.jpg
2044.945	0.77	1	pointing	Trial3	pointing/STIM_008.jpg
2048.015	1.316	1	pointing	Trial3	pointing/STIM_009.jpg
2052.363	0.863	1	pointing	Trial3	pointing/STIM_009.jpg
2057.019	0.918	1	pointing	Trial3	pointing/STIM_009.jpg
2061.285	1.382	1	pointing	Trial3	pointing/STIM_009.jpg
2066.686	1.01	1	pointing	Trial3	pointing/STIM_009.jpg
2071.533	1.001	1	pointing	Trial3	pointing/STIM_009.jpg
2075.634	0.737	1	pointing	Trial3	pointing/STIM_010.jpg
2080.371	1.272	1	pointing	Trial3	pointing/STIM_010.jpg
2084.843	1.295	1	pointing	Trial3	pointing/STIM_010.jpg
2088.887	0.699	1	pointing	Trial3	pointing/STIM_010.jpg
2092.827	1.306	1	pointing	Trial3	pointing/STIM_010.jpg
2097.29	1.159	1	pointing	Trial3	pointing/STIM_010.jpg
2102.459	1.234	1	pointing	Trial3	pointing/STIM_011.jpg
2106.461	0.72	1	pointing	Trial3	pointing/STIM_011.jpg
2110.589	1.15	1	pointing	Trial3	pointing/STIM_011.jpg
2114.002	1.085	1	pointing	Trial3	pointing/STIM_011.jpg
2118.442	0.729	1	pointing	Trial3	pointing/STIM_011.jpg
2123.189	1.113	1	pointing	Trial3	pointing/STIM_011.jpg
