onset	duration	response_time_ms	trial_type	learning_stage	stimulus	response_port
0.0	3.334	3334.5	generate	Run1	generate/STIM_000.jpg	99
7.28	2.698	2697.5	generate	Run1	generate/STIM_000.jpg	99
13.298	2.771	2771.4	generate	Run1	generate/STIM_000.jpg	100
19.732	2.384	2384.3	generate	Run1	generate/STIM_000.jpg	99
25.363	1.673	1673.4	generate	Run1	generate/STIM_000.jpg	99
30.256	1.398	1398.2	generate	Run1	generate/STIM_001.jpg	99
34.552	2.31	2310.3	generate	Run1	generate/STIM_001.jpg	100
40.56	2.972	2972.5	generate	Run1	generate/STIM_001.jpg	100
47.259	1.215	1215.1	generate	Run1	generate/STIM_001.jpg	100
52.251	2.346	2346.1	generate	Run1	generate/STIM_001.jpg	99
57.426	1.887	1887.0	generate	Run1	generate/STIM_002.jpg	99
63.028	3.148	3147.6	generate	Run1	generate/STIM_002.jpg	100
68.543	2.303	2302.8	generate	Run1	generate/STIM_002.jpg	100
73.444	2.75	2749.7	generate	Run1	generate/STIM_002.jpg	99
78.526	1.716	1715.5	generate	Run1	generate/STIM_002.jpg	99
82.575	3.462	3462.4	generate	Run1	generate/STIM_003.jpg	100
88.649	2.727	2727.2	generate	Run1	generate/STIM_003.jpg	100
94.932	2.114	2114.3	generate	Run1	generate/STIM_003.jpg	99
99.538	1.656	1656.2	generate	Run1	generate/STIM_003.jpg	100
103.424	1.328	1328.5	generate	Run1	generate/STIM_003.jpg	100
106.987	1.435	1435.0	generate	Run1	generate/STIM_004.jpg	99
111.547	2.781	2780.6	generate	Run1	generate/STIM_004.jpg	99
116.805	2.216	2215.6	generate	Run1	generate/STIM_004.jpg	99
121.502	1.205	1205.2	generate	Run1	generate/STIM_004.jpg	100
125.326	2.012	2012.2	generate	Run1	generate/STIM_004.jpg	100
130.128	2.394	2394.4	generate	Run1	generate/STIM_005.jpg	100
135.866	1.889	1889.4	generate	Run1	generate/STIM_005.jpg	99
140.344	1.982	1982.2	generate	Run1	generate/STIM_005.jpg	100
146.083	2.081	2081.4	generate	Run1	generate/STIM_005.jpg	100
150.59	1.558	1557.5	generate	Run1	generate/STIM_005.jpg	100
155.944	2.051	2050.8	generate	Run1	generate/STIM_006.jpg	100
160.923	3.194	3193.6	generate	Run1	generate/STIM_006.jpg	99
167.592	1.828	1828.4	generate	Run1	generate/STIM_006.jpg	100
172.3	1.54	1540.4	generate	Run1	generate/STIM_006.jpg	99
177.656	1.227	1226.6	generate	Run1	generate/STIM_006.jpg	99
181.297	2.782	2782.5	generate	Run1	generate/STIM_007.jpg	99
187.651	2.431	2431.0	generate	Run1	generate/STIM_007.jpg	99
193.643	2.202	2202.5	generate	Run1	generate/STIM_007.jpg	99
198.096	1.831	1830.6	generate	Run1	generate/STIM_007.jpg	100
202.673	2.186	2186.4	generate	Run1	generate/STIM_007.jpg	99
208.477	2.305	2304.7	generate	Run1	generate/STIM_008.jpg	99
214.544	1.575	1575.0	generate	Run1	generate/STIM_008.jpg	99
219.946	2.128	2128.2	generate	Run1	generate/STIM_008.jpg	99
224.771	1.43	1429.9	generate	Run1	generate/STIM_008.jpg	100
230.068	1.235	1235.0	generate	Run1	generate/STIM_008.jpg	99
234.38	2.768	2768.5	generate	Run1	generate/STIM_009.jpg	100
239.424	1.848	1848.2	generate	Run1	generate/STIM_009.jpg	99
243.777	2.703	2702.7	generate	Run1	generate/STIM_009.jpg	100
249.529	1.856	1856.5	generate	Run1	generate/STIM_009.jpg	99
254.749	1.757	1757.1	generate	Run1	generate/STIM_009.jpg	100
258.687	2.991	2991.2	generate	Run1	generate/STIM_010.jpg	100
264.312	2.296	2296.5	generate	Run1	generate/STIM_010.jpg	100
269.536	2.766	2766.0	generate	Run1	generate/STIM_010.jpg	99
274.669	1.73	1729.6	generate	Run1	generate/STIM_010.jpg	99
278.725	2.668	2667.5	generate	Run1	generate/STIM_010.jpg	100
283.479	2.727	2726.9	generate	Run1	generate/STIM_011.jpg	100
288.222	2.454	2454.5	generate	Run1	generate/STIM_011.jpg	100
293.03	1.576	1575.9	generate	Run1	generate/STIM_011.jpg	100
297.533	1.504	1504.5	generate	Run1	generate/STIM_011.jpg	100
301.083	1.303	1303.3	generate	Run1	generate/STIM_011.jpg	99
306.203	2.953	2952.7	generate	Run1	generate/STIM_012.jpg	99
311.986	2.001	2000.6	generate	Run1	generate/STIM_012.jpg	100
317.791	2.963	2962.8	generate	Run1	generate/STIM_012.jpg	100
323.303	1.624	1624.2	generate	Run1	generate/STIM_012.jpg	100
328.742	2.535	2535.1	generate	Run1	generate/STIM_012.jpg	100
334.797	1.897	1897.0	generate	Run1	generate/STIM_013.jpg	100
340.179	2.129	2128.8	generate	Run1	generate/STIM_013.jpg	100
345.226	2.299	2299.0	generate	Run1	generate/STIM_013.jpg	100
351.214	2.697	2696.7	generate	Run1	generate/STIM_013.jpg	100
357.163	1.58	1580.5	generate	Run1	generate/STIM_013.jpg	99
360.925	3.398	3397.5	generate	Run1	generate/STIM_014.jpg	99
366.414	2.398	2397.6	generate	Run1	generate/STIM_014.jpg	99
372.376	1.6	1600.0	generate	Run1	generate/STIM_014.jpg	99
376.183	1.22	1220.0	generate	Run1	generate/STIM_014.jpg	99
380.859	1.745	1744.6	generate	Run1	generate/STIM_014.jpg	99
385.101	3.0	3000.0	generate	Run1	generate/STIM_015.jpg	100
391.391	1.654	1653.7	generate	Run1	generate/STIM_015.jpg	99
396.38	1.291	1291.3	generate	Run1	generate/STIM_015.jpg	100
400.006	1.769	1769.0	generate	Run1	generate/STIM_015.jpg	99
404.553	2.483	2483.1	generate	Run1	generate/STIM_015.jpg	99
410.243	2.294	2293.6	generate	Run1	generate/STIM_016.jpg	99
415.138	1.894	1893.8	generate	Run1	generate/STIM_016.jpg	100
420.914	2.92	2920.2	generate	Run1	generate/STIM_016.jpg	100
427.01	2.055	2054.6	generate	Run1	generate/STIM_016.jpg	99
431.297	2.366	2365.7	generate	Run1	generate/STIM_016.jpg	100
436.279	2.097	2097.1	generate	Run1	generate/STIM_017.jpg	100
441.089	2.62	2620.2	generate	Run1	generate/STIM_017.jpg	99
446.866	1.861	1860.9	generate	Run1	generate/STIM_017.jpg	99
451.862	2.6	2599.6	generate	Run1	generate/STIM_017.jpg	100
457.736	2.66	2660.0	generate	Run1	generate/STIM_017.jpg	99
463.581	1.532	1532.2	generate	Run1	generate/STIM_018.jpg	99
468.001	1.987	1987.4	generate	Run1	generate/STIM_018.jpg	100
472.161	2.106	2106.5	generate	Run1	generate/STIM_018.jpg	99
478.135	2.128	2127.5	generate	Run1	generate/STIM_018.jpg	100
482.423	2.442	2442.5	generate	Run1	generate/STIM_018.jpg	99
487.988	1.83	1830.0	generate	Run1	generate/STIM_019.jpg	100
493.421	2.436	2436.5	generate	Run1	generate/STIM_019.jpg	100
499.53	1.522	1521.8	generate	Run1	generate/STIM_019.jpg	100
503.127	1.623	1623.0	generate	Run1	generate/STIM_019.jpg	100
508.409	1.544	1543.9	generate	Run1	generate/STIM_019.jpg	99
513.26	1.494	1493.7	generate	Run1	generate/STIM_020.jpg	99
518.081	3.116	3116.0	generate	Run1	generate/STIM_020.jpg	99
524.785	2.235	2235.3	generate	Run1	generate/STIM_020.jpg	100
530.425	1.864	1863.6	generate	Run1	generate/STIM_020.jpg	100
535.839	1.844	1843.7	generate	Run1	generate/STIM_020.jpg	100
539.706	2.421	2420.7	generate	Run1	generate/STIM_021.jpg	100
545.363	2.507	2506.9	generate	Run1	generate/STIM_021.jpg	99
550.091	2.943	2942.6	generate	Run1	generate/STIM_021.jpg	99
555.959	2.551	2551.1	generate	Run1	generate/STIM_021.jpg	100
562.005	2.643	2642.6	generate	Run1	generate/STIM_021.jpg	100
566.782	2.789	2788.8	generate	Run1	generate/STIM_022.jpg	100
571.634	2.184	2184.3	generate	Run1	generate/STIM_022.jpg	100
576.243	1.993	1993.3	generate	Run1	generate/STIM_022.jpg	100
580.242	1.723	1723.0	generate	Run1	generate/STIM_022.jpg	99
585.081	1.655	1655.2	generate	Run1	generate/STIM_022.jpg	99
589.201	2.454	2453.5	generate	Run1	generate/STIM_023.jpg	99
594.663	1.392	1391.5	generate	Run1	generate/STIM_023.jpg	100
599.594	1.287	1286.7	generate	Run1	generate/STIM_023.jpg	99
603.419	2.588	2587.9	generate	Run1	generate/STIM_023.jpg	100
608.506	1.839	1838.9	generate	Run1	generate/STIM_023.jpg	99
612.377	1.922	1922.3	generate	Run1	generate/STIM_024.jpg	100
618.18	2.477	2476.8	generate	Run1	generate/STIM_024.jpg	99
624.509	2.309	2309.3	generate	Run1	generate/STIM_024.jpg	99
629.499	1.551	1551.2	generate	Run1	generate/STIM_024.jpg	100
633.109	2.468	2468.3	generate	Run1	generate/STIM_024.jpg	99
639.008	0.646	646.4	repeat	Run1	repeat/STIM_000.jpg	100
643.643	0.928	927.6	repeat	Run1	repeat/STIM_000.jpg	99
646.752	1.032	1032.3	repeat	Run1	repeat/STIM_000.jpg	100
650.152	0.636	636.4	repeat	Run1	repeat/STIM_000.jpg	99
654.781	0.849	849.3	repeat	Run1	repeat/STIM_000.jpg	100
659.505	0.624	623.8	repeat	Run1	repeat/STIM_001.jpg	100
663.138	0.898	898.4	repeat	Run1	repeat/STIM_001.jpg	99
666.571	1.139	1138.7	repeat	Run1	repeat/STIM_001.jpg	100
671.463	1.033	1033.0	repeat	Run1	repeat/STIM_001.jpg	99
676.451	1.129	1128.7	repeat	Run1	repeat/STIM_001.jpg	99
681.315	0.902	901.5	repeat	Run1	repeat/STIM_002.jpg	99
685.625	1.087	1087.2	repeat	Run1	repeat/STIM_002.jpg	100
689.012	0.706	706.1	repeat	Run1	repeat/STIM_002.jpg	100
692.05	1.01	1009.9	repeat	Run1	repeat/STIM_002.jpg	100
695.284	0.581	581.2	repeat	Run1	repeat/STIM_002.jpg	100
699.516	1.098	1097.9	repeat	Run1	repeat/STIM_003.jpg	100
702.683	0.976	976.2	repeat	Run1	repeat/STIM_003.jpg	100
705.795	1.099	1098.6	repeat	Run1	repeat/STIM_003.jpg	99
710.564	0.794	794.0	repeat	Run1	repeat/STIM_003.jpg	100
715.009	0.958	957.6	repeat	Run1	repeat/STIM_003.jpg	99
718.531	1.012	1012.5	repeat	Run1	repeat/STIM_004.jpg	99
722.407	0.857	857.1	repeat	Run1	repeat/STIM_004.jpg	100
725.732	1.139	1138.7	repeat	Run1	repeat/STIM_004.jpg	100
730.087	0.797	796.6	repeat	Run1	repeat/STIM_004.jpg	100
734.293	0.932	932.1	repeat	Run1	repeat/STIM_004.jpg	99
738.426	0.588	587.8	repeat	Run1	repeat/STIM_005.jpg	99
741.189	0.996	996.4	repeat	Run1	repeat/STIM_005.jpg	100
745.301	0.641	641.3	repeat	Run1	repeat/STIM_005.jpg	100
748.598	0.96	960.1	repeat	Run1	repeat/STIM_005.jpg	99
752.016	0.723	722.6	repeat	Run1	repeat/STIM_005.jpg	99
755.778	0.617	617.0	repeat	Run1	repeat/STIM_006.jpg	99
760.237	0.834	834.5	repeat	Run1	repeat/STIM_006.jpg	100
764.524	0.741	740.8	repeat	Run1	repeat/STIM_006.jpg	99
767.614	0.75	750.1	repeat	Run1	repeat/STIM_006.jpg	100
771.521	1.041	1041.1	repeat	Run1	repeat/STIM_006.jpg	99
775.321	0.769	768.7	repeat	Run1	repeat/STIM_007.jpg	100
778.942	0.607	607.0	repeat	Run1	repeat/STIM_007.jpg	99
781.648	1.012	1012.2	repeat	Run1	repeat/STIM_007.jpg	99
784.746	1.064	1064.4	repeat	Run1	repeat/STIM_007.jpg	100
789.69	1.088	1087.7	repeat	Run1	repeat/STIM_007.jpg	100
793.169	0.811	811.3	repeat	Run1	repeat/STIM_008.jpg	99
797.182	0.77	769.8	repeat	Run1	repeat/STIM_008.jpg	100
799.982	0.646	645.7	repeat	Run1	repeat/STIM_008.jpg	100
803.917	1.109	1109.4	repeat	Run1	repeat/STIM_008.jpg	100
807.886	1.004	1004.1	repeat	Run1	repeat/STIM_008.jpg	99
811.873	0.656	656.4	repeat	Run1	repeat/STIM_009.jpg	100
815.818	1.058	1058.3	repeat	Run1	repeat/STIM_009.jpg	99
820.271	1.007	1006.9	repeat	Run1	repeat/STIM_009.jpg	100
824.572	0.664	663.7	repeat	Run1	repeat/STIM_009.jpg	100
827.467	0.935	934.6	repeat	Run1	repeat/STIM_009.jpg	99
831.159	0.799	798.6	repeat	Run1	repeat/STIM_010.jpg	99
835.229	0.908	907.5	repeat	Run1	repeat/STIM_010.jpg	99
839.774	0.7	700.4	repeat	Run1	repeat/STIM_010.jpg	100
844.386	1.147	1146.7	repeat	Run1	repeat/STIM_010.jpg	99
848.019	0.742	741.7	repeat	Run1	repeat/STIM_010.jpg	99
852.08	0.639	638.9	repeat	Run1	repeat/STIM_011.jpg	100
855.207	0.993	992.6	repeat	Run1	repeat/STIM_011.jpg	100
859.759	0.784	783.5	repeat	Run1	repeat/STIM_011.jpg	99
863.748	1.054	1054.0	repeat	Run1	repeat/STIM_011.jpg	99
868.238	0.646	645.5	repeat	Run1	repeat/STIM_011.jpg	99
872.38	0.938	937.8	repeat	Run1	repeat/STIM_012.jpg	100
877.067	0.96	959.9	repeat	Run1	repeat/STIM_012.jpg	99
881.32	0.99	990.2	repeat	Run1	repeat/STIM_012.jpg	99
884.389	0.713	713.3	repeat	Run1	repeat/STIM_012.jpg	100
887.916	0.645	645.3	repeat	Run1	repeat/STIM_012.jpg	100
891.52	1.055	1054.9	repeat	Run1	repeat/STIM_013.jpg	100
894.854	0.986	985.6	repeat	Run1	repeat/STIM_013.jpg	100
899.459	0.987	987.4	repeat	Run1	repeat/STIM_013.jpg	99
903.507	0.65	650.1	repeat	Run1	repeat/STIM_013.jpg	100
906.973	0.798	797.9	repeat	Run1	repeat/STIM_013.jpg	100
909.975	0.876	876.5	repeat	Run1	repeat/STIM_014.jpg	99
914.365	0.794	793.7	repeat	Run1	repeat/STIM_014.jpg	99
918.305	1.117	1117.1	repeat	Run1	repeat/STIM_014.jpg	99
923.294	0.808	807.6	repeat	Run1	repeat/STIM_014.jpg	100
926.593	0.722	721.9	repeat	Run1	repeat/STIM_014.jpg	99
929.77	2.464	2464.1	generate	Run2	generate/STIM_000.jpg	100
936.07	2.285	2284.6	generate	Run2	generate/STIM_000.jpg	100
941.58	1.572	1571.6	generate	Run2	generate/STIM_000.jpg	100
946.54	1.247	1246.9	generate	Run2	generate/STIM_000.jpg	99
949.999	1.69	1689.6	generate	Run2	generate/STIM_000.jpg	100
954.362	2.752	2752.4	generate	Run2	generate/STIM_001.jpg	100
960.928	1.66	1659.5	generate	Run2	generate/STIM_001.jpg	100
965.823	1.445	1445.2	generate	Run2	generate/STIM_001.jpg	99
969.774	1.653	1653.1	generate	Run2	generate/STIM_001.jpg	100
973.734	2.268	2268.1	generate	Run2	generate/STIM_001.jpg	100
978.602	2.88	2879.8	generate	Run2	generate/STIM_002.jpg	99
984.191	1.284	1284.0	generate	Run2	generate/STIM_002.jpg	99
989.12	1.976	1976.1	generate	Run2	generate/STIM_002.jpg	99
994.101	1.251	1251.2	generate	Run2	generate/STIM_002.jpg	99
998.85	2.389	2388.7	generate	Run2	generate/STIM_002.jpg	100
1003.7	1.251	1250.9	generate	Run2	generate/STIM_003.jpg	100
1008.412	2.098	2097.8	generate	Run2	generate/STIM_003.jpg	100
1012.907	1.258	1257.5	generate	Run2	generate/STIM_003.jpg	100
1017.708	1.374	1373.5	generate	Run2	generate/STIM_003.jpg	99
1021.182	1.598	1598.5	generate	Run2	generate/STIM_003.jpg	100
1025.98	2.304	2304.1	generate	Run2	generate/STIM_004.jpg	100
1030.81	2.332	2331.7	generate	Run2	generate/STIM_004.jpg	99
1037.105	2.108	2107.7	generate	Run2	generate/STIM_004.jpg	99
1042.731	1.029	1028.8	generate	Run2	generate/STIM_004.jpg	99
1045.793	1.384	1383.7	generate	Run2	generate/STIM_004.jpg	100
1051.172	2.613	2613.2	generate	Run2	generate/STIM_005.jpg	100
1057.617	1.658	1657.7	generate	Run2	generate/STIM_005.jpg	100
1062.732	1.131	1131.4	generate	Run2	generate/STIM_005.jpg	100
1066.968	1.825	1825.2	generate	Run2	generate/STIM_005.jpg	100
1072.542	1.413	1412.6	generate	Run2	generate/STIM_005.jpg	99
1077.192	2.462	2462.3	generate	Run2	generate/STIM_006.jpg	100
1083.485	2.711	2711.0	generate	Run2	generate/STIM_006.jpg	99
1090.103	1.746	1745.9	generate	Run2	generate/STIM_006.jpg	100
1094.426	1.966	1965.5	generate	Run2	generate/STIM_006.jpg	99
1099.811	1.0	999.6	generate	Run2	generate/STIM_006.jpg	99
1104.442	2.119	2119.0	generate	Run2	generate/STIM_007.jpg	100
1110.0	2.627	2627.2	generate	Run2	generate/STIM_007.jpg	99
1116.196	1.108	1108.2	generate	Run2	generate/STIM_007.jpg	100
1119.963	1.613	1612.9	generate	Run2	generate/STIM_007.jpg	99
1125.469	2.109	2109.1	generate	Run2	generate/STIM_007.jpg	99
1131.235	1.188	1187.5	generate	Run2	generate/STIM_008.jpg	100
1134.97	1.566	1566.4	generate	Run2	generate/STIM_008.jpg	99
1140.114	2.263	2263.3	generate	Run2	generate/STIM_008.jpg	99
1145.133	1.413	1413.3	generate	Run2	generate/STIM_008.jpg	100
1149.009	2.238	2238.4	generate	Run2	generate/STIM_008.jpg	100
1153.432	2.242	2242.2	generate	Run2	generate/STIM_009.jpg	100
1158.423	2.756	2755.8	generate	Run2	generate/STIM_009.jpg	99
1163.23	1.386	1385.7	generate	Run2	generate/STIM_009.jpg	99
1166.794	2.2	2199.8	generate	Run2	generate/STIM_009.jpg	100
1171.142	1.607	1607.1	generate	Run2	generate/STIM_009.jpg	100
1175.01	2.577	2577.4	generate	Run2	generate/STIM_010.jpg	100
1179.808	1.454	1454.1	generate	Run2	generate/STIM_010.jpg	100
1185.071	1.855	1854.6	generate	Run2	generate/STIM_010.jpg	100
1190.347	1.586	1585.7	generate	Run2	generate/STIM_010.jpg	99
1194.316	1.951	1950.8	generate	Run2	generate/STIM_010.jpg	100
1198.637	1.327	1326.7	generate	Run2	generate/STIM_011.jpg	99
1203.172	1.194	1193.8	generate	Run2	generate/STIM_011.jpg	99
1206.384	2.25	2249.6	generate	Run2	generate/STIM_011.jpg	100
1211.143	2.189	2189.1	generate	Run2	generate/STIM_011.jpg	100
1216.771	2.046	2046.4	generate	Run2	generate/STIM_011.jpg	100
1222.585	1.911	1910.8	generate	Run2	generate/STIM_012.jpg	99
1227.307	1.29	1289.9	generate	Run2	generate/STIM_012.jpg	99
1230.77	1.413	1412.9	generate	Run2	generate/STIM_012.jpg	99
1235.14	0.995	995.1	generate	Run2	generate/STIM_012.jpg	99
1238.858	1.008	1007.9	generate	Run2	generate/STIM_012.jpg	99
1243.32	2.872	2872.0	generate	Run2	generate/STIM_013.jpg	99
1249.619	2.484	2484.0	generate	Run2	generate/STIM_013.jpg	99
1255.658	2.381	2381.2	generate	Run2	generate/STIM_013.jpg	100
1261.138	2.212	2212.2	generate	Run2	generate/STIM_013.jpg	100
1267.009	2.023	2022.9	generate	Run2	generate/STIM_013.jpg	99
1272.197	1.826	1825.5	generate	Run2	generate/STIM_014.jpg	99
1277.708	2.558	2558.2	generate	Run2	generate/STIM_014.jpg	99
1282.766	2.518	2517.9	generate	Run2	generate/STIM_014.jpg	100
1288.763	1.115	1114.7	generate	Run2	generate/STIM_014.jpg	100
1293.292	1.788	1787.5	generate	Run2	generate/STIM_014.jpg	100
1298.96	2.382	2381.8	generate	Run2	generate/STIM_015.jpg	100
1303.62	1.396	1396.2	generate	Run2	generate/STIM_015.jpg	99
1307.252	1.264	1264.3	generate	Run2	generate/STIM_015.jpg	99
1311.641	1.334	1334.1	generate	Run2	generate/STIM_015.jpg	99
1315.591	2.2	2200.2	generate	Run2	generate/STIM_015.jpg	99
1320.693	2.304	2304.3	generate	Run2	generate/STIM_016.jpg	100
1325.343	1.14	1140.3	generate	Run2	generate/STIM_016.jpg	100
1330.245	1.963	1962.7	generate	Run2	generate/STIM_016.jpg	99
1335.057	1.456	1456.0	generate	Run2	generate/STIM_016.jpg	99
1340.271	1.346	1346.1	generate	Run2	generate/STIM_016.jpg	99
1343.999	2.623	2623.2	generate	Run2	generate/STIM_017.jpg	100
1348.838	2.659	2659.2	generate	Run2	generate/STIM_017.jpg	100
1353.988	1.553	1552.9	generate	Run2	generate/STIM_017.jpg	99
1358.34	1.885	1885.4	generate	Run2	generate/STIM_017.jpg	100
1364.185	2.008	2008.4	generate	Run2	generate/STIM_017.jpg	99
1368.253	1.895	1894.7	generate	Run2	generate/STIM_018.jpg	100
1373.159	1.391	1391.3	generate	Run2	generate/STIM_018.jpg	99
1378.412	1.311	1310.6	generate	Run2	generate/STIM_018.jpg	99
1381.998	1.832	1832.1	generate	Run2	generate/STIM_018.jpg	100
1387.622	1.058	1057.9	generate	Run2	generate/STIM_018.jpg	99
1392.243	2.442	2442.5	generate	Run2	generate/STIM_019.jpg	99
1397.234	2.113	2112.7	generate	Run2	generate/STIM_019.jpg	100
1402.983	1.062	1061.9	generate	Run2	generate/STIM_019.jpg	100
1406.355	1.938	1937.6	generate	Run2	generate/STIM_019.jpg	100
1410.947	1.553	1553.1	generate	Run2	generate/STIM_019.jpg	100
1415.071	2.412	2412.0	generate	Run2	generate/STIM_020.jpg	99
1420.004	2.368	2367.7	generate	Run2	generate/STIM_020.jpg	99
1425.586	1.416	1415.9	generate	Run2	generate/STIM_020.jpg	99
1429.332	2.24	2240.3	generate	Run2	generate/STIM_020.jpg	100
1434.345	2.37	2369.7	generate	Run2	generate/STIM_020.jpg	99
1440.217	2.363	2363.0	generate	Run2	generate/STIM_021.jpg	99
1444.921	1.811	1811.2	generate	Run2	generate/STIM_021.jpg	100
1450.1	2.29	2290.0	generate	Run2	generate/STIM_021.jpg	100
1455.76	2.36	2359.8	generate	Run2	generate/STIM_021.jpg	100
1461.635	1.838	1838.1	generate	Run2	generate/STIM_021.jpg	99
1466.879	2.018	2017.5	generate	Run2	generate/STIM_022.jpg	99
1472.747	1.202	1202.4	generate	Run2	generate/STIM_022.jpg	100
1476.531	2.277	2276.9	generate	Run2	generate/STIM_022.jpg	100
1482.185	1.052	1052.4	generate	Run2	generate/STIM_022.jpg	99
1486.597	2.286	2285.8	generate	Run2	generate/STIM_022.jpg	100
1491.634	1.688	1688.5	generate	Run2	generate/STIM_023.jpg	100
1496.549	2.075	2074.6	generate	Run2	generate/STIM_023.jpg	100
1502.234	2.067	2066.6	generate	Run2	generate/STIM_023.jpg	99
1506.367	1.001	1001.4	generate	Run2	generate/STIM_023.jpg	100
1510.401	2.031	2030.6	generate	Run2	generate/STIM_023.jpg	100
1514.797	1.98	1980.4	generate	Run2	generate/STIM_024.jpg	99
1519.136	2.146	2145.5	generate	Run2	generate/STIM_024.jpg	100
1525.171	1.637	1636.7	generate	Run2	generate/STIM_024.jpg	100
1530.048	1.518	1518.4	generate	Run2	generate/STIM_024.jpg	99
1535.51	1.682	1682.2	generate	Run2	generate/STIM_024.jpg	100
1541.09	0.972	971.8	repeat	Run2	repeat/STIM_000.jpg	99
1544.287	0.701	701.3	repeat	Run2	repeat/STIM_000.jpg	100
1547.28	0.981	980.6	repeat	Run2	repeat/STIM_000.jpg	100
1552.069	0.905	905.2	repeat	Run2	repeat/STIM_000.jpg	100
1555.721	1.023	1023.4	repeat	Run2	repeat/STIM_000.jpg	99
1560.016	1.052	1052.2	repeat	Run2	repeat/STIM_001.jpg	100
1563.158	1.1	1099.7	repeat	Run2	repeat/STIM_001.jpg	100
1566.365	0.834	834.2	repeat	Run2	repeat/STIM_001.jpg	100
1571.16	0.922	921.9	repeat	Run2	repeat/STIM_001.jpg	100
1574.583	0.987	986.9	repeat	Run2	repeat/STIM_001.jpg	99
1578.713	0.656	655.8	repeat	Run2	repeat/STIM_002.jpg	100
1581.845	1.071	1071.2	repeat	Run2	repeat/STIM_002.jpg	100
1586.011	0.622	621.8	repeat	Run2	repeat/STIM_002.jpg	99
1589.495	0.92	919.9	repeat	Run2	repeat/STIM_002.jpg	100
1593.404	0.608	608.3	repeat	Run2	repeat/STIM_002.jpg	100
1597.433	0.634	634.4	repeat	Run2	repeat/STIM_003.jpg	99
1600.072	0.922	922.1	repeat	Run2	repeat/STIM_003.jpg	99
1604.722	0.833	833.1	repeat	Run2	repeat/STIM_003.jpg	100
1609.141	0.658	658.5	repeat	Run2	repeat/STIM_003.jpg	100
1612.668	0.643	643.1	repeat	Run2	repeat/STIM_003.jpg	100
1616.715	1.11	1110.2	repeat	Run2	repeat/STIM_004.jpg	100
1620.654	0.972	972.1	repeat	Run2	repeat/STIM_004.jpg	100
1625.484	0.599	599.4	repeat	Run2	repeat/STIM_004.jpg	100
1628.635	0.904	904.2	repeat	Run2	repeat/STIM_004.jpg	99
1631.867	1.138	1137.6	repeat	Run2	repeat/STIM_004.jpg	100
1636.255	0.956	956.0	repeat	Run2	repeat/STIM_005.jpg	100
1641.14	0.839	839.4	repeat	Run2	repeat/STIM_005.jpg	99
1645.072	0.931	930.8	repeat	Run2	repeat/STIM_005.jpg	99
1648.078	0.629	629.1	repeat	Run2	repeat/STIM_005.jpg	100
1651.632	0.84	840.0	repeat	Run2	repeat/STIM_005.jpg	100
1656.448	1.12	1120.5	repeat	Run2	repeat/STIM_006.jpg	99
1660.572	1.015	1015.2	repeat	Run2	repeat/STIM_006.jpg	99
1665.22	0.817	816.9	repeat	Run2	repeat/STIM_006.jpg	100
1668.048	0.73	730.1	repeat	Run2	repeat/STIM_006.jpg	100
1672.493	0.979	978.9	repeat	Run2	repeat/STIM_006.jpg	99
1676.26	0.863	862.8	repeat	Run2	repeat/STIM_007.jpg	99
1680.356	0.708	708.1	repeat	Run2	repeat/STIM_007.jpg	99
1683.896	0.759	759.0	repeat	Run2	repeat/STIM_007.jpg	100
1686.818	0.705	705.4	repeat	Run2	repeat/STIM_007.jpg	100
1690.876	0.985	984.9	repeat	Run2	repeat/STIM_007.jpg	99
1694.525	0.96	960.2	repeat	Run2	repeat/STIM_008.jpg	99
1698.969	0.992	991.6	repeat	Run2	repeat/STIM_008.jpg	99
1702.371	0.956	956.3	repeat	Run2	repeat/STIM_008.jpg	100
1705.362	0.733	732.8	repeat	Run2	repeat/STIM_008.jpg	99
1708.63	0.889	888.6	repeat	Run2	repeat/STIM_008.jpg	100
1713.502	0.857	857.3	repeat	Run2	repeat/STIM_009.jpg	100
1717.341	0.623	622.6	repeat	Run2	repeat/STIM_009.jpg	99
1720.345	1.059	1059.3	repeat	Run2	repeat/STIM_009.jpg	99
1723.588	0.796	795.9	repeat	Run2	repeat/STIM_009.jpg	100
1728.29	1.076	1076.0	repeat	Run2	repeat/STIM_009.jpg	100
1731.756	0.82	819.6	repeat	Run2	repeat/STIM_010.jpg	100
1736.003	0.868	868.1	repeat	Run2	repeat/STIM_010.jpg	100
1740.044	0.824	823.6	repeat	Run2	repeat/STIM_010.jpg	100
1744.254	0.732	732.2	repeat	Run2	repeat/STIM_010.jpg	99
1747.568	0.691	690.6	repeat	Run2	repeat/STIM_010.jpg	99
1751.77	0.873	872.9	repeat	Run2	repeat/STIM_011.jpg	99
1756.611	0.673	673.0	repeat	Run2	repeat/STIM_011.jpg	99
1760.048	0.653	652.8	repeat	Run2	repeat/STIM_011.jpg	100
1763.773	1.06	1060.2	repeat	Run2	repeat/STIM_011.jpg	99
1768.026	0.95	950.2	repeat	Run2	repeat/STIM_011.jpg	99
1771.103	1.035	1035.2	repeat	Run2	repeat/STIM_012.jpg	100
1774.519	0.586	586.4	repeat	Run2	repeat/STIM_012.jpg	100
1778.656	1.098	1097.9	repeat	Run2	repeat/STIM_012.jpg	99
1781.786	0.773	773.2	repeat	Run2	repeat/STIM_012.jpg	99
1784.655	1.081	1080.8	repeat	Run2	repeat/STIM_012.jpg	100
1788.303	0.951	951.0	repeat	Run2	repeat/STIM_013.jpg	99
1791.474	0.895	895.4	repeat	Run2	repeat/STIM_013.jpg	99
1795.811	0.828	828.1	repeat	Run2	repeat/STIM_013.jpg	100
1799.724	1.082	1081.9	repeat	Run2	repeat/STIM_013.jpg	99
1803.72	0.806	806.5	repeat	Run2	repeat/STIM_013.jpg	99
1808.513	0.761	760.9	repeat	Run2	repeat/STIM_014.jpg	99
1812.825	0.971	971.4	repeat	Run2	repeat/STIM_014.jpg	99
1816.078	0.951	950.7	repeat	Run2	repeat/STIM_014.jpg	100
1819.116	0.619	619.3	repeat	Run2	repeat/STIM_014.jpg	100
1821.835	0.594	594.5	repeat	Run2	repeat/STIM_014.jpg	99
1825.778	1.126	1125.9	generate	Run3	generate/STIM_000.jpg	99
1830.824	2.339	2339.0	generate	Run3	generate/STIM_000.jpg	99
1835.222	2.005	2004.8	generate	Run3	generate/STIM_000.jpg	100
1840.066	2.094	2093.8	generate	Run3	generate/STIM_000.jpg	100
1844.964	1.106	1106.5	generate	Run3	generate/STIM_000.jpg	100
1849.903	1.33	1330.0	generate	Run3	generate/STIM_001.jpg	100
1854.157	2.265	2265.1	generate	Run3	generate/STIM_001.jpg	100
1858.591	1.052	1051.6	generate	Run3	generate/STIM_001.jpg	99
1863.246	1.477	1476.6	generate	Run3	generate/STIM_001.jpg	100
1868.144	1.886	1885.9	generate	Run3	generate/STIM_001.jpg	99
1873.102	1.942	1942.4	generate	Run3	generate/STIM_002.jpg	100
1877.483	2.173	2172.8	generate	Run3	generate/STIM_002.jpg	99
1883.507	1.086	1086.2	generate	Run3	generate/STIM_002.jpg	100
1887.839	1.684	1683.6	generate	Run3	generate/STIM_002.jpg	100
1893.302	1.369	1369.3	generate	Run3	generate/STIM_002.jpg	100
1898.102	1.02	1020.4	generate	Run3	generate/STIM_003.jpg	99
1902.826	1.373	1373.1	generate	Run3	generate/STIM_003.jpg	100
1906.963	2.04	2040.1	generate	Run3	generate/STIM_003.jpg	100
1911.858	1.823	1822.8	generate	Run3	generate/STIM_003.jpg	100
1915.874	1.264	1264.5	generate	Run3	generate/STIM_003.jpg	99
1920.511	1.729	1728.6	generate	Run3	generate/STIM_004.jpg	99
1924.748	1.225	1225.2	generate	Run3	generate/STIM_004.jpg	99
1929.79	1.822	1821.7	generate	Run3	generate/STIM_004.jpg	99
1934.542	1.202	1201.6	generate	Run3	generate/STIM_004.jpg	100
1938.426	2.046	2046.4	generate	Run3	generate/STIM_004.jpg	100
1944.24	2.14	2139.7	generate	Run3	generate/STIM_005.jpg	100
1950.039	1.575	1574.6	generate	Run3	generate/STIM_005.jpg	99
1955.289	1.619	1619.1	generate	Run3	generate/STIM_005.jpg	99
1960.452	1.653	1653.3	generate	Run3	generate/STIM_005.jpg	99
1964.192	1.096	1096.3	generate	Run3	generate/STIM_005.jpg	99
1967.613	1.414	1413.6	generate	Run3	generate/STIM_006.jpg	99
1972.308	1.842	1841.8	generate	Run3	generate/STIM_006.jpg	100
1978.005	1.965	1965.0	generate	Run3	generate/STIM_006.jpg	100
1982.747	2.096	2096.3	generate	Run3	generate/STIM_006.jpg	100
1987.826	1.013	1012.8	generate	Run3	generate/STIM_006.jpg	100
1991.215	2.101	2101.3	generate	Run3	generate/STIM_007.jpg	99
1996.417	1.272	1271.8	generate	Run3	generate/STIM_007.jpg	100
2000.558	1.536	1536.2	generate	Run3	generate/STIM_007.jpg	100
2004.708	1.799	1799.2	generate	Run3	generate/STIM_007.jpg	99
2010.379	1.156	1155.9	generate	Run3	generate/STIM_007.jpg	99
2014.484	1.808	1808.5	generate	Run3	generate/STIM_008.jpg	99
2019.405	1.065	1065.4	generate	Run3	generate/STIM_008.jpg	99
2023.703	1.911	1910.9	generate	Run3	generate/STIM_008.jpg	99
2028.588	1.075	1075.0	generate	Run3	generate/STIM_008.jpg	99
2032.52	1.421	1420.9	generate	Run3	generate/STIM_008.jpg	99
2037.381	2.285	2284.6	generate	Run3	generate/STIM_009.jpg	99
2043.66	1.2	1200.5	generate	Run3	generate/STIM_009.jpg	100
2048.328	1.499	1499.4	generate	Run3	generate/STIM_009.jpg	100
2052.558	1.125	1125.1	generate	Run3	generate/STIM_009.jpg	99
2055.889	1.592	1591.7	generate	Run3	generate/STIM_009.jpg	99
2061.077	2.297	2297.4	generate	Run3	generate/STIM_010.jpg	99
2065.658	1.648	1648.3	generate	Run3	generate/STIM_010.jpg	99
2070.353	2.003	2002.9	generate	Run3	generate/STIM_010.jpg	99
2075.645	1.644	1644.5	generate	Run3	generate/STIM_010.jpg	100
2079.398	1.415	1414.6	generate	Run3	generate/STIM_010.jpg	99
2082.899	1.92	1920.5	generate	Run3	generate/STIM_011.jpg	99
2088.495	1.096	1095.5	generate	Run3	generate/STIM_011.jpg	100
2092.957	2.125	2124.9	generate	Run3	generate/STIM_011.jpg	100
2098.718	1.486	1486.0	generate	Run3	generate/STIM_011.jpg	99
2103.567	1.919	1918.8	generate	Run3	generate/STIM_011.jpg	100
2107.488	1.599	1598.8	generate	Run3	generate/STIM_012.jpg	99
2111.4	1.429	1428.9	generate	Run3	generate/STIM_012.jpg	99
2115.572	1.608	1607.8	generate	Run3	generate/STIM_012.jpg	99
2121.116	1.95	1950.1	generate	Run3	generate/STIM_012.jpg	100
2126.926	2.394	2393.8	generate	Run3	generate/STIM_012.jpg	100
2132.016	2.039	2039.0	generate	Run3	generate/STIM_013.jpg	100
2136.955	1.147	1146.7	generate	Run3	generate/STIM_013.jpg	100
2141.999	2.177	2177.1	generate	Run3	generate/STIM_013.jpg	99
2148.165	1.438	1438.4	generate	Run3	generate/STIM_013.jpg	100
2152.715	2.011	2011.5	generate	Run3	generate/STIM_013.jpg	99
2158.141	2.316	2316.5	generate	Run3	generate/STIM_014.jpg	100
2163.285	1.688	1687.7	generate	Run3	generate/STIM_014.jpg	100
2168.054	2.304	2304.4	generate	Run3	generate/STIM_014.jpg	100
2173.097	1.535	1535.1	generate	Run3	generate/STIM_014.jpg	100
2178.485	1.398	1398.5	generate	Run3	generate/STIM_014.jpg	100
2183.675	2.094	2094.3	generate	Run3	generate/STIM_015.jpg	99
2189.019	1.507	1507.4	generate	Run3	generate/STIM_015.jpg	100
2193.897	2.238	2238.5	generate	Run3	generate/STIM_015.jpg	99
2198.214	0.977	976.9	generate	Run3	generate/STIM_015.jpg	100
2201.3	1.8	1799.7	generate	Run3	generate/STIM_015.jpg	99
2206.993	1.553	1552.9	generate	Run3	generate/STIM_016.jpg	100
2211.88	1.57	1569.8	generate	Run3	generate/STIM_016.jpg	100
2217.24	2.112	2111.9	generate	Run3	generate/STIM_016.jpg	100
2222.853	2.38	2380.3	generate	Run3	generate/STIM_016.jpg	100
2227.543	1.233	1233.4	generate	Run3	generate/STIM_016.jpg	99
2231.595	1.708	1708.0	generate	Run3	generate/STIM_017.jpg	100
2235.831	2.323	2322.7	generate	Run3	generate/STIM_017.jpg	99
2241.767	2.376	2376.5	generate	Run3	generate/STIM_017.jpg	99
2247.179	1.947	1946.8	generate	Run3	generate/STIM_017.jpg	100
2251.475	1.711	1710.7	generate	Run3	generate/STIM_017.jpg	100
2256.074	1.016	1016.5	generate	Run3	generate/STIM_018.jpg	100
2260.858	1.4	1400.4	generate	Run3	generate/STIM_018.jpg	100
2264.955	2.138	2138.4	generate	Run3	generate/STIM_018.jpg	100
2270.467	2.397	2397.2	generate	Run3	generate/STIM_018.jpg	100
2276.608	1.745	1745.0	generate	Run3	generate/STIM_018.jpg	99
2282.174	1.474	1474.3	generate	Run3	generate/STIM_019.jpg	99
2286.17	1.095	1095.1	generate	Run3	generate/STIM_019.jpg	99
2289.938	1.223	1222.8	generate	Run3	generate/STIM_019.jpg	100
2294.192	1.593	1593.0	generate	Run3	generate/STIM_019.jpg	100
2297.901	1.485	1485.1	generate	Run3	generate/STIM_019.jpg	100
2301.414	1.964	1963.9	generate	Run3	generate/STIM_020.jpg	100
2306.617	1.57	1569.5	generate	Run3	generate/STIM_020.jpg	100
2312.077	1.968	1967.6	generate	Run3	generate/STIM_020.jpg	100
2316.245	1.001	1000.8	generate	Run3	generate/STIM_020.jpg	100
2320.483	0.977	977.1	generate	Run3	generate/STIM_020.jpg	99
2323.487	2.149	2149.0	generate	Run3	generate/STIM_021.jpg	99
2327.922	1.817	1817.4	generate	Run3	generate/STIM_021.jpg	99
2333.503	2.189	2188.8	generate	Run3	generate/STIM_021.jpg	100
2339.271	2.277	2277.4	generate	Run3	generate/STIM_021.jpg	100
2343.611	1.063	1063.1	generate	Run3	generate/STIM_021.jpg	100
2347.559	1.319	1319.1	generate	Run3	generate/STIM_022.jpg	100
2352.407	1.197	1197.2	generate	Run3	generate/STIM_022.jpg	100
2357.017	1.163	1162.9	generate	Run3	generate/STIM_022.jpg	100
2361.355	0.972	972.3	generate	Run3	generate/STIM_022.jpg	99
2365.906	2.418	2418.5	generate	Run3	generate/STIM_022.jpg	100
2370.508	1.544	1543.5	generate	Run3	generate/STIM_023.jpg	99
2375.642	2.168	2167.5	generate	Run3	generate/STIM_023.jpg	100
2379.921	1.648	1648.1	generate	Run3	generate/STIM_023.jpg	100
2384.6	2.356	2355.6	generate	Run3	generate/STIM_023.jpg	99
2390.644	1.6	1599.8	generate	Run3	generate/STIM_023.jpg	100
2395.514	1.827	1826.9	generate	Run3	generate/STIM_024.jpg	99
2400.968	2.126	2125.5	generate	Run3	generate/STIM_024.jpg	99
2407.015	2.026	2026.4	generate	Run3	generate/STIM_024.jpg	99
2412.859	1.719	1719.3	generate	Run3	generate/STIM_024.jpg	99
2417.608	1.027	1026.6	generate	Run3	generate/STIM_024.jpg	99
2421.381	0.666	665.8	repeat	Run3	repeat/STIM_000.jpg	99
2425.166	1.066	1065.9	repeat	Run3	repeat/STIM_000.jpg	99
2428.788	0.857	856.8	repeat	Run3	repeat/STIM_000.jpg	100
2433.509	1.14	1139.8	repeat	Run3	repeat/STIM_000.jpg	100
2437.337	0.888	888.3	repeat	Run3	repeat/STIM_000.jpg	100
2441.703	0.828	827.8	repeat	Run3	repeat/STIM_001.jpg	100
2445.687	0.903	903.3	repeat	Run3	repeat/STIM_001.jpg	99
2450.349	0.977	977.0	repeat	Run3	repeat/STIM_001.jpg	99
2453.404	1.123	1122.6	repeat	Run3	repeat/STIM_001.jpg	99
2458.283	0.756	755.9	repeat	Run3	repeat/STIM_001.jpg	100
2462.385	0.748	747.5	repeat	Run3	repeat/STIM_002.jpg	99
2465.562	0.78	780.5	repeat	Run3	repeat/STIM_002.jpg	100
2469.41	0.875	875.1	repeat	Run3	repeat/STIM_002.jpg	100
2474.237	0.623	623.3	repeat	Run3	repeat/STIM_002.jpg	99
2477.024	0.961	961.3	repeat	Run3	repeat/STIM_002.jpg	99
2480.335	0.759	758.7	repeat	Run3	repeat/STIM_003.jpg	99
2483.603	1.034	1034.4	repeat	Run3	repeat/STIM_003.jpg	100
2486.67	0.748	748.1	repeat	Run3	repeat/STIM_003.jpg	100
2490.191	0.766	766.3	repeat	Run3	repeat/STIM_003.jpg	99
2494.524	0.932	931.9	repeat	Run3	repeat/STIM_003.jpg	99
2498.469	1.044	1043.6	repeat	Run3	repeat/STIM_004.jpg	99
2502.463	1.123	1122.8	repeat	Run3	repeat/STIM_004.jpg	100
2507.303	1.111	1111.1	repeat	Run3	repeat/STIM_004.jpg	99
2511.277	1.033	1033.3	repeat	Run3	repeat/STIM_004.jpg	99
2516.135	1.15	1149.6	repeat	Run3	repeat/STIM_004.jpg	100
2519.559	0.803	802.9	repeat	Run3	repeat/STIM_005.jpg	99
2523.637	0.843	843.1	repeat	Run3	repeat/STIM_005.jpg	100
2528.467	0.901	900.7	repeat	Run3	repeat/STIM_005.jpg	100
2533.189	0.696	696.1	repeat	Run3	repeat/STIM_005.jpg	100
2537.133	0.791	791.2	repeat	Run3	repeat/STIM_005.jpg	100
2541.718	1.105	1104.8	repeat	Run3	repeat/STIM_006.jpg	100
2546.617	0.652	651.9	repeat	Run3	repeat/STIM_006.jpg	100
2550.212	0.921	920.8	repeat	Run3	repeat/STIM_006.jpg	100
2554.27	0.992	991.5	repeat	Run3	repeat/STIM_006.jpg	100
2557.458	0.785	785.0	repeat	Run3	repeat/STIM_006.jpg	99
2561.567	0.69	689.6	repeat	Run3	repeat/STIM_007.jpg	100
2565.285	1.001	1001.1	repeat	Run3	repeat/STIM_007.jpg	100
2568.702	0.656	655.5	repeat	Run3	repeat/STIM_007.jpg	99
2571.387	0.917	916.9	repeat	Run3	repeat/STIM_007.jpg	99
2574.736	1.028	1028.1	repeat	Run3	repeat/STIM_007.jpg	100
2579.61	0.923	923.0	repeat	Run3	repeat/STIM_008.jpg	100
2584.42	1.116	1115.5	repeat	Run3	repeat/STIM_008.jpg	99
2588.397	1.053	1052.7	repeat	Run3	repeat/STIM_008.jpg	100
2593.28	1.063	1062.9	repeat	Run3	repeat/STIM_008.jpg	99
2596.676	1.084	1084.5	repeat	Run3	repeat/STIM_008.jpg	100
2599.878	0.913	913.3	repeat	Run3	repeat/STIM_009.jpg	99
2604.188	1.14	1139.5	repeat	Run3	repeat/STIM_009.jpg	100
2607.873	1.154	1153.5	repeat	Run3	repeat/STIM_009.jpg	99
2611.967	0.716	716.3	repeat	Run3	repeat/STIM_009.jpg	100
2616.487	0.757	756.6	repeat	Run3	repeat/STIM_009.jpg	100
2619.778	0.836	835.6	repeat	Run3	repeat/STIM_010.jpg	100
2623.416	0.84	840.4	repeat	Run3	repeat/STIM_010.jpg	99
2628.0	0.983	983.4	repeat	Run3	repeat/STIM_010.jpg	100
2632.077	0.615	615.1	repeat	Run3	repeat/STIM_010.jpg	100
2635.91	0.663	662.8	repeat	Run3	repeat/STIM_010.jpg	100
2639.823	0.952	951.5	repeat	Run3	repeat/STIM_011.jpg	100
2642.782	0.974	974.3	repeat	Run3	repeat/STIM_011.jpg	100
2647.177	1.067	1066.7	repeat	Run3	repeat/STIM_011.jpg	100
2651.046	1.086	1085.6	repeat	Run3	repeat/STIM_011.jpg	99
2655.87	0.815	815.2	repeat	Run3	repeat/STIM_011.jpg	100
2658.956	0.804	803.9	repeat	Run3	repeat/STIM_012.jpg	99
2661.823	0.854	853.5	repeat	Run3	repeat/STIM_012.jpg	100
2666.045	0.944	944.4	repeat	Run3	repeat/STIM_012.jpg	99
2669.142	0.882	882.1	repeat	Run3	repeat/STIM_012.jpg	100
2672.306	0.896	896.3	repeat	Run3	repeat/STIM_012.jpg	99
2676.05	0.71	710.2	repeat	Run3	repeat/STIM_013.jpg	100
2679.608	0.609	608.9	repeat	Run3	repeat/STIM_013.jpg	99
2682.822	0.785	784.6	repeat	Run3	repeat/STIM_013.jpg	99
2686.474	0.596	595.8	repeat	Run3	repeat/STIM_013.jpg	99
2690.106	1.065	1065.3	repeat	Run3	repeat/STIM_013.jpg	100
2694.551	0.757	756.8	repeat	Run3	repeat/STIM_014.jpg	99
2699.049	1.009	1009.2	repeat	Run3	repeat/STIM_014.jpg	99
2702.629	0.69	690.0	repeat	Run3	repeat/STIM_014.jpg	99
2706.884	1.114	1113.6	repeat	Run3	repeat/STIM_014.jpg	99
2711.117	0.58	580.3	repeat	Run3	repeat/STIM_014.jpg	100
2715.576	1.221	1221.3	generate	Run4	generate/STIM_000.jpg	100
2719.639	1.86	1860.4	generate	Run4	generate/STIM_000.jpg	100
2724.268	1.956	1955.6	generate	Run4	generate/STIM_000.jpg	99
2728.562	1.511	1510.9	generate	Run4	generate/STIM_000.jpg	100
2734.024	1.914	1914.5	generate	Run4	generate/STIM_000.jpg	99
2739.355	2.116	2116.1	generate	Run4	generate/STIM_001.jpg	100
2743.523	1.333	1332.6	generate	Run4	generate/STIM_001.jpg	100
2748.419	1.797	1796.9	generate	Run4	generate/STIM_001.jpg	100
2752.676	1.35	1350.2	generate	Run4	generate/STIM_001.jpg	99
2756.531	2.083	2083.2	generate	Run4	generate/STIM_001.jpg	99
2761.662	1.056	1055.8	generate	Run4	generate/STIM_002.jpg	99
2766.418	2.339	2338.7	generate	Run4	generate/STIM_002.jpg	100
2771.561	1.738	1738.2	generate	Run4	generate/STIM_002.jpg	99
2776.56	2.222	2221.7	generate	Run4	generate/STIM_002.jpg	100
2782.273	1.03	1029.9	generate	Run4	generate/STIM_002.jpg	100
2786.407	1.09	1089.6	generate	Run4	generate/STIM_003.jpg	99
2790.015	1.914	1914.0	generate	Run4	generate/STIM_003.jpg	100
2794.597	2.368	2367.8	generate	Run4	generate/STIM_003.jpg	100
2799.695	1.191	1191.1	generate	Run4	generate/STIM_003.jpg	99
2803.194	1.015	1014.6	generate	Run4	generate/STIM_003.jpg	100
2808.135	2.303	2302.6	generate	Run4	generate/STIM_004.jpg	100
2814.263	1.24	1240.5	generate	Run4	generate/STIM_004.jpg	99
2817.624	1.952	1952.4	generate	Run4	generate/STIM_004.jpg	99
2822.342	2.09	2089.8	generate	Run4	generate/STIM_004.jpg	100
2827.427	1.663	1662.9	generate	Run4	generate/STIM_004.jpg	100
2832.993	1.822	1821.7	generate	Run4	generate/STIM_005.jpg	100
2838.209	1.761	1760.9	generate	Run4	generate/STIM_005.jpg	100
2842.566	1.888	1888.3	generate	Run4	generate/STIM_005.jpg	100
2848.165	2.34	2339.5	generate	Run4	generate/STIM_005.jpg	99
2853.358	1.97	1970.2	generate	Run4	generate/STIM_005.jpg	99
2857.719	1.441	1441.1	generate	Run4	generate/STIM_006.jpg	100
2862.894	2.146	2146.4	generate	Run4	generate/STIM_006.jpg	99
2868.792	2.329	2328.9	generate	Run4	generate/STIM_006.jpg	100
2873.699	1.901	1901.2	generate	Run4	generate/STIM_006.jpg	99
2877.659	2.247	2247.3	generate	Run4	generate/STIM_006.jpg	99
2883.557	1.557	1556.7	generate	Run4	generate/STIM_007.jpg	100
2887.303	1.673	1672.9	generate	Run4	generate/STIM_007.jpg	99
2891.339	2.352	2351.8	generate	Run4	generate/STIM_007.jpg	99
2895.743	1.406	1406.3	generate	Run4	generate/STIM_007.jpg	99
2900.406	1.459	1459.4	generate	Run4	generate/STIM_007.jpg	99
2905.344	2.038	2038.4	generate	Run4	generate/STIM_008.jpg	99
2910.424	1.85	1850.3	generate	Run4	generate/STIM_008.jpg	99
2915.828	2.417	2417.2	generate	Run4	generate/STIM_008.jpg	99
2921.433	2.228	2228.3	generate	Run4	generate/STIM_008.jpg	100
2926.071	1.173	1172.6	generate	Run4	generate/STIM_008.jpg	99
2930.957	1.953	1953.1	generate	Run4	generate/STIM_009.jpg	99
2935.564	2.314	2314.2	generate	Run4	generate/STIM_009.jpg	99
2940.043	2.337	2337.2	generate	Run4	generate/STIM_009.jpg	99
2945.465	1.8	1799.5	generate	Run4	generate/STIM_009.jpg	99
2949.582	2.05	2050.0	generate	Run4	generate/STIM_009.jpg	99
2955.109	1.259	1258.6	generate	Run4	generate/STIM_010.jpg	99
2958.458	1.058	1057.6	generate	Run4	generate/STIM_010.jpg	99
2962.754	1.027	1027.3	generate	Run4	generate/STIM_010.jpg	99
2966.183	2.04	2039.8	generate	Run4	generate/STIM_010.jpg	100
2971.309	2.15	2150.0	generate	Run4	generate/STIM_010.jpg	99
2977.044	1.192	1192.0	generate	Run4	generate/STIM_011.jpg	100
2981.957	1.279	1278.6	generate	Run4	generate/STIM_011.jpg	99
2986.837	1.344	1343.7	generate	Run4	generate/STIM_011.jpg	100
2990.789	1.62	1620.1	generate	Run4	generate/STIM_011.jpg	99
2994.499	1.819	1819.4	generate	Run4	generate/STIM_011.jpg	100
3000.243	1.756	1756.3	generate	Run4	generate/STIM_012.jpg	100
3004.118	2.186	2186.2	generate	Run4	generate/STIM_012.jpg	100
3008.691	1.065	1064.9	generate	Run4	generate/STIM_012.jpg	100
3012.555	1.309	1308.8	generate	Run4	generate/STIM_012.jpg	100
3016.824	1.309	1308.6	generate	Run4	generate/STIM_012.jpg	100
3021.173	2.044	2043.6	generate	Run4	generate/STIM_013.jpg	100
3025.715	1.63	1629.6	generate	Run4	generate/STIM_013.jpg	100
3029.868	2.019	2019.1	generate	Run4	generate/STIM_013.jpg	100
3035.08	2.114	2114.0	generate	Run4	generate/STIM_013.jpg	99
3039.814	1.839	1838.8	generate	Run4	generate/STIM_013.jpg	99
3044.706	1.117	1116.8	generate	Run4	generate/STIM_014.jpg	100
3048.625	2.145	2145.0	generate	Run4	generate/STIM_014.jpg	100
3054.533	1.324	1324.5	generate	Run4	generate/STIM_014.jpg	100
3059.18	2.121	2120.6	generate	Run4	generate/STIM_014.jpg	99
3065.106	1.986	1985.6	generate	Run4	generate/STIM_014.jpg	99
3070.922	1.12	1120.0	generate	Run4	generate/STIM_015.jpg	100
3074.291	1.621	1620.8	generate	Run4	generate/STIM_015.jpg	99
3078.468	2.133	2133.4	generate	Run4	generate/STIM_015.jpg	100
3082.796	1.455	1455.3	generate	Run4	generate/STIM_015.jpg	99
3086.543	1.434	1433.7	generate	Run4	generate/STIM_015.jpg	100
3091.066	2.081	2081.2	generate	Run4	generate/STIM_016.jpg	100
3095.951	1.775	1774.9	generate	Run4	generate/STIM_016.jpg	100
3100.777	1.39	1389.7	generate	Run4	generate/STIM_016.jpg	100
3104.828	1.86	1860.5	generate	Run4	generate/STIM_016.jpg	100
3109.634	1.334	1333.8	generate	Run4	generate/STIM_016.jpg	100
3114.498	1.212	1211.7	generate	Run4	generate/STIM_017.jpg	100
3118.413	2.414	2414.2	generate	Run4	generate/STIM_017.jpg	100
3124.498	1.53	1529.7	generate	Run4	generate/STIM_017.jpg	99
3129.685	2.368	2368.0	generate	Run4	generate/STIM_017.jpg	99
3135.014	1.794	1794.2	generate	Run4	generate/STIM_017.jpg	99
3139.95	2.351	2350.9	generate	Run4	generate/STIM_018.jpg	99
3144.632	1.988	1988.3	generate	Run4	generate/STIM_018.jpg	100
3150.196	2.065	2065.1	generate	Run4	generate/STIM_018.jpg	100
3154.861	1.927	1926.6	generate	Run4	generate/STIM_018.jpg	100
3160.241	1.035	1035.0	generate	Run4	generate/STIM_018.jpg	99
3164.254	2.028	2028.1	generate	Run4	generate/STIM_019.jpg	99
3168.83	1.31	1310.1	generate	Run4	generate/STIM_019.jpg	99
3173.336	2.08	2079.8	generate	Run4	generate/STIM_019.jpg	99
3177.698	2.085	2085.0	generate	Run4	generate/STIM_019.jpg	100
3182.46	2.223	2222.7	generate	Run4	generate/STIM_019.jpg	99
3186.919	2.157	2157.3	generate	Run4	generate/STIM_020.jpg	100
3192.446	1.493	1493.4	generate	Run4	generate/STIM_020.jpg	99
3197.41	2.408	2408.0	generate	Run4	generate/STIM_020.jpg	100
3203.649	1.787	1787.3	generate	Run4	generate/STIM_020.jpg	99
3209.392	2.178	2178.3	generate	Run4	generate/STIM_020.jpg	100
3214.812	1.196	1196.3	generate	Run4	generate/STIM_021.jpg	100
3219.815	1.028	1027.9	generate	Run4	generate/STIM_021.jpg	99
3223.185	1.43	1430.2	generate	Run4	generate/STIM_021.jpg	99
3226.852	1.672	1672.5	generate	Run4	generate/STIM_021.jpg	99
3231.219	2.33	2329.5	generate	Run4	generate/STIM_021.jpg	99
3237.196	1.013	1013.0	generate	Run4	generate/STIM_022.jpg	99
3240.82	1.505	1504.9	generate	Run4	generate/STIM_022.jpg	100
3244.561	1.015	1014.9	generate	Run4	generate/STIM_022.jpg	100
3248.991	1.242	1242.1	generate	Run4	generate/STIM_022.jpg	99
3252.285	2.415	2414.9	generate	Run4	generate/STIM_022.jpg	99
3257.789	2.166	2166.5	generate	Run4	generate/STIM_023.jpg	100
3262.509	1.266	1265.8	generate	Run4	generate/STIM_023.jpg	100
3265.902	1.943	1942.8	generate	Run4	generate/STIM_023.jpg	99
3271.435	1.755	1755.2	generate	Run4	generate/STIM_023.jpg	100
3275.754	1.611	1611.1	generate	Run4	generate/STIM_023.jpg	99
3280.845	1.182	1182.4	generate	Run4	generate/STIM_024.jpg	100
3285.084	2.153	2153.0	generate	Run4	generate/STIM_024.jpg	99
3291.01	2.068	2067.8	generate	Run4	generate/STIM_024.jpg	99
3296.774	2.229	2228.9	generate	Run4	generate/STIM_024.jpg	100
3302.476	1.693	1692.8	generate	Run4	generate/STIM_024.jpg	99
3307.0	0.623	622.6	repeat	Run4	repeat/STIM_000.jpg	100
3311.182	0.902	902.5	repeat	Run4	repeat/STIM_000.jpg	99
3315.484	0.79	789.6	repeat	Run4	repeat/STIM_000.jpg	100
3320.066	0.977	976.9	repeat	Run4	repeat/STIM_000.jpg	99
3324.052	1.04	1040.3	repeat	Run4	repeat/STIM_000.jpg	100
3328.767	1.12	1120.2	repeat	Run4	repeat/STIM_001.jpg	100
3333.75	0.599	599.4	repeat	Run4	repeat/STIM_001.jpg	100
3337.839	1.096	1095.7	repeat	Run4	repeat/STIM_001.jpg	100
3342.258	0.762	761.6	repeat	Run4	repeat/STIM_001.jpg	100
3345.472	0.91	910.2	repeat	Run4	repeat/STIM_001.jpg	100
3348.924	0.679	678.6	repeat	Run4	repeat/STIM_002.jpg	100
3352.674	1.022	1022.4	repeat	Run4	repeat/STIM_002.jpg	99
3356.052	0.993	993.0	repeat	Run4	repeat/STIM_002.jpg	100
3359.331	0.95	950.5	repeat	Run4	repeat/STIM_002.jpg	100
3363.669	0.74	739.5	repeat	Run4	repeat/STIM_002.jpg	99
3367.406	0.723	723.1	repeat	Run4	repeat/STIM_003.jpg	100
3371.243	0.816	816.0	repeat	Run4	repeat/STIM_003.jpg	99
3374.797	0.62	620.3	repeat	Run4	repeat/STIM_003.jpg	99
3377.963	0.686	686.3	repeat	Run4	repeat/STIM_003.jpg	99
3382.383	0.974	973.9	repeat	Run4	repeat/STIM_003.jpg	99
3386.549	0.957	956.7	repeat	Run4	repeat/STIM_004.jpg	99
3389.824	0.684	683.7	repeat	Run4	repeat/STIM_004.jpg	99
3393.981	0.794	794.1	repeat	Run4	repeat/STIM_004.jpg	99
3396.945	0.706	706.5	repeat	Run4	repeat/STIM_004.jpg	100
3400.455	0.662	662.5	repeat	Run4	repeat/STIM_004.jpg	99
3405.006	0.696	696.0	repeat	Run4	repeat/STIM_005.jpg	99
3408.137	1.102	1101.9	repeat	Run4	repeat/STIM_005.jpg	100
3412.345	1.092	1092.5	repeat	Run4	repeat/STIM_005.jpg	100
3416.002	0.868	868.2	repeat	Run4	repeat/STIM_005.jpg	99
3420.516	0.968	968.2	repeat	Run4	repeat/STIM_005.jpg	100
3424.847	1.103	1103.2	repeat	Run4	repeat/STIM_006.jpg	100
3429.485	0.899	899.3	repeat	Run4	repeat/STIM_006.jpg	100
3432.757	0.766	765.7	repeat	Run4	repeat/STIM_006.jpg	99
3436.849	0.967	966.6	repeat	Run4	repeat/STIM_006.jpg	100
3441.335	0.869	869.0	repeat	Run4	repeat/STIM_006.jpg	99
3445.283	0.817	817.3	repeat	Run4	repeat/STIM_007.jpg	100
3449.547	0.914	914.5	repeat	Run4	repeat/STIM_007.jpg	99
3453.852	0.586	586.0	repeat	Run4	repeat/STIM_007.jpg	100
3458.412	0.856	856.4	repeat	Run4	repeat/STIM_007.jpg	100
3461.317	0.991	991.4	repeat	Run4	repeat/STIM_007.jpg	99
3464.42	1.103	1103.1	repeat	Run4	repeat/STIM_008.jpg	100
3468.985	0.617	616.9	repeat	Run4	repeat/STIM_008.jpg	99
3471.963	0.628	627.8	repeat	Run4	repeat/STIM_008.jpg	100
3474.9	0.588	588.2	repeat	Run4	repeat/STIM_008.jpg	100
3477.966	0.661	660.7	repeat	Run4	repeat/STIM_008.jpg	100
3481.273	0.648	647.5	repeat	Run4	repeat/STIM_009.jpg	100
3485.405	1.055	1055.4	repeat	Run4	repeat/STIM_009.jpg	99
3488.756	0.84	839.6	repeat	Run4	repeat/STIM_009.jpg	100
3493.177	1.016	1016.0	repeat	Run4	repeat/STIM_009.jpg	99
3497.614	0.972	971.8	repeat	Run4	repeat/STIM_009.jpg	99
3500.627	0.671	670.6	repeat	Run4	repeat/STIM_010.jpg	100
3504.764	0.925	924.8	repeat	Run4	repeat/STIM_010.jpg	99
3507.786	0.626	625.5	repeat	Run4	repeat/STIM_010.jpg	100
3511.678	0.839	838.6	repeat	Run4	repeat/STIM_010.jpg	100
3515.672	0.949	949.2	repeat	Run4	repeat/STIM_010.jpg	100
3520.564	1.12	1120.3	repeat	Run4	repeat/STIM_011.jpg	99
3525.295	1.109	1108.9	repeat	Run4	repeat/STIM_011.jpg	100
3528.984	0.635	635.1	repeat	Run4	repeat/STIM_011.jpg	100
3533.611	0.693	693.0	repeat	Run4	repeat/STIM_011.jpg	99
3536.501	1.019	1019.1	repeat	Run4	repeat/STIM_011.jpg	100
3541.518	1.095	1094.9	repeat	Run4	repeat/STIM_012.jpg	100
3545.127	0.922	922.5	repeat	Run4	repeat/STIM_012.jpg	99
3549.929	0.598	597.5	repeat	Run4	repeat/STIM_012.jpg	99
3552.661	0.828	827.7	repeat	Run4	repeat/STIM_012.jpg	100
3557.234	0.945	945.3	repeat	Run4	repeat/STIM_012.jpg	99
3560.787	0.622	622.1	repeat	Run4	repeat/STIM_013.jpg	100
3565.264	0.632	632.5	repeat	Run4	repeat/STIM_013.jpg	100
3568.635	0.732	732.2	repeat	Run4	repeat/STIM_013.jpg	99
3573.312	0.65	649.7	repeat	Run4	repeat/STIM_013.jpg	99
3577.124	0.861	861.2	repeat	Run4	repeat/STIM_013.jpg	99
3581.984	0.68	679.7	repeat	Run4	repeat/STIM_014.jpg	100
3586.088	0.624	623.9	repeat	Run4	repeat/STIM_014.jpg	99
3590.399	1.108	1108.2	repeat	Run4	repeat/STIM_014.jpg	99
3595.214	0.795	795.2	repeat	Run4	repeat/STIM_014.jpg	99
3599.289	0.645	644.7	repeat	Run4	repeat/STIM_014.jpg	100
