onset	duration	response_time_ms	trial_type	learning_stage	stimulus	response_port
0.0	1.606	1605.7	generate	Run1	generate/STIM_000.jpg	99
4.004	2.745	2745.3	generate	Run1	generate/STIM_000.jpg	99
9.241	1.442	1441.6	generate	Run1	generate/STIM_000.jpg	100
14.623	1.614	1614.4	generate	Run1	generate/STIM_000.jpg	99
19.557	1.813	1813.0	generate	Run1	generate/STIM_000.jpg	99
25.138	2.634	2633.6	generate	Run1	generate/STIM_001.jpg	99
31.062	2.893	2893.2	generate	Run1	generate/STIM_001.jpg	100
36.793	2.728	2728.5	generate	Run1	generate/STIM_001.jpg	100
42.643	1.144	1144.5	generate	Run1	generate/STIM_001.jpg	100
46.822	1.89	1890.3	generate	Run1	generate/STIM_001.jpg	99
52.335	1.552	1552.2	generate	Run1	generate/STIM_002.jpg	99
56.348	2.167	2167.4	generate	Run1	generate/STIM_002.jpg	100
62.311	1.195	1194.6	generate	Run1	generate/STIM_002.jpg	100
66.111	2.54	2539.8	generate	Run1	generate/STIM_002.jpg	99
72.417	1.822	1821.7	generate	Run1	generate/STIM_002.jpg	99
77.578	2.558	2558.3	generate	Run1	generate/STIM_003.jpg	100
82.181	2.871	2871.4	generate	Run1	generate/STIM_003.jpg	100
87.534	2.539	2539.1	generate	Run1	generate/STIM_003.jpg	99
92.467	2.444	2444.1	generate	Run1	generate/STIM_003.jpg	100
98.682	1.237	1236.7	generate	Run1	generate/STIM_003.jpg	100
102.59	1.588	1588.2	generate	Run1	generate/STIM_004.jpg	99
107.63	1.446	1446.0	generate	Run1	generate/STIM_004.jpg	99
112.38	1.315	1315.4	generate	Run1	generate/STIM_004.jpg	99
115.782	1.693	1692.9	generate	Run1	generate/STIM_004.jpg	100
120.763	2.02	2020.4	generate	Run1	generate/STIM_004.jpg	100
126.356	2.954	2954.3	generate	Run1	generate/STIM_005.jpg	100
132.978	2.91	2909.7	generate	Run1	generate/STIM_005.jpg	99
138.298	1.406	1406.1	generate	Run1	generate/STIM_005.jpg	100
143.469	1.421	1421.0	generate	Run1	generate/STIM_005.jpg	100
148.731	2.268	2267.6	generate	Run1	generate/STIM_005.jpg	100
154.137	2.862	2862.5	generate	Run1	generate/STIM_006.jpg	100
160.298	1.957	1956.8	generate	Run1	generate/STIM_006.jpg	99
166.113	2.173	2172.7	generate	Run1	generate/STIM_006.jpg	100
170.866	1.753	1752.6	generate	Run1	generate/STIM_006.jpg	99
175.273	2.403	2403.1	generate	Run1	generate/STIM_006.jpg	99
180.287	1.626	1625.7	generate	Run1	generate/STIM_007.jpg	99
185.543	2.916	2915.8	generate	Run1	generate/STIM_007.jpg	99
192.063	1.77	1770.2	generate	Run1	generate/STIM_007.jpg	99
197.096	1.969	1969.1	generate	Run1	generate/STIM_007.jpg	100
202.117	1.587	1587.3	generate	Run1	generate/STIM_007.jpg	99
207.546	2.292	2292.2	generate	Run1	generate/STIM_008.jpg	99
212.538	1.603	1603.4	generate	Run1	generate/STIM_008.jpg	99
216.334	1.36	1360.1	generate	Run1	generate/STIM_008.jpg	99
220.924	2.163	2163.1	generate	Run1	generate/STIM_008.jpg	100
225.518	1.264	1264.1	generate	Run1	generate/STIM_008.jpg	99
230.651	2.386	2385.7	generate	Run1	generate/STIM_009.jpg	100
235.749	2.354	2353.8	generate	Run1	generate/STIM_009.jpg	99
241.913	1.166	1166.3	generate	Run1	generate/STIM_009.jpg	100
245.659	1.241	1241.4	generate	Run1	generate/STIM_009.jpg	99
250.191	1.698	1697.9	generate	Run1	generate/STIM_009.jpg	100
255.067	2.466	2465.7	generate	Run1	generate/STIM_010.jpg	100
259.714	1.981	1981.1	generate	Run1	generate/STIM_010.jpg	100
264.648	1.302	1302.4	generate	Run1	generate/STIM_010.jpg	99
269.452	2.336	2335.8	generate	Run1	generate/STIM_010.jpg	99
274.765	1.882	1882.1	generate	Run1	generate/STIM_010.jpg	100
279.401	2.62	2619.5	generate	Run1	generate/STIM_011.jpg	100
284.141	1.54	1539.5	generate	Run1	generate/STIM_011.jpg	100
288.512	2.602	2602.3	generate	Run1	generate/STIM_011.jpg	100
294.709	2.631	2631.0	generate	Run1	generate/STIM_011.jpg	100
301.035	2.25	2250.5	generate	Run1	generate/STIM_011.jpg	99
306.824	1.438	1437.7	generate	Run1	generate/STIM_012.jpg	99
310.881	2.221	2220.7	generate	Run1	generate/STIM_012.jpg	100
316.82	2.182	2182.0	generate	Run1	generate/STIM_012.jpg	100
322.3	1.291	1290.9	generate	Run1	generate/STIM_012.jpg	100
326.474	2.05	2050.3	generate	Run1	generate/STIM_012.jpg	100
332.43	1.849	1849.0	generate	Run1	generate/STIM_013.jpg	100
336.782	2.629	2629.4	generate	Run1	generate/STIM_013.jpg	100
341.333	2.79	2790.2	generate	Run1	generate/STIM_013.jpg	100
347.096	1.378	1377.7	generate	Run1	generate/STIM_013.jpg	100
351.195	2.217	2217.0	generate	Run1	generate/STIM_013.jpg	99
356.95	2.286	2285.9	generate	Run1	generate/STIM_014.jpg	99
361.233	2.437	2437.4	generate	Run1	generate/STIM_014.jpg	99
366.833	1.326	1326.1	generate	Run1	generate/STIM_014.jpg	99
371.416	1.65	1650.5	generate	Run1	generate/STIM_014.jpg	99
375.678	1.501	1501.2	generate	Run1	generate/STIM_014.jpg	99
379.814	3.115	3115.3	generate	Run1	generate/STIM_015.jpg	100
386.102	2.912	2912.2	generate	Run1	generate/STIM_015.jpg	99
392.738	1.307	1306.6	generate	Run1	generate/STIM_015.jpg	100
396.719	1.922	1921.9	generate	Run1	generate/STIM_015.jpg	99
401.453	1.333	1332.8	generate	Run1	generate/STIM_015.jpg	99
405.53	2.275	2275.1	generate	Run1	generate/STIM_016.jpg	99
409.881	2.157	2157.3	generate	Run1	generate/STIM_016.jpg	100
415.501	2.11	2109.6	generate	Run1	generate/STIM_016.jpg	100
421.473	2.273	2272.6	generate	Run1	generate/STIM_016.jpg	99
426.728	1.391	1391.2	generate	Run1	generate/STIM_016.jpg	100
430.974	2.904	2904.3	generate	Run1	generate/STIM_017.jpg	100
437.725	1.641	1641.0	generate	Run1	generate/STIM_017.jpg	99
441.698	2.433	2433.4	generate	Run1	generate/STIM_017.jpg	99
447.135	1.175	1175.4	generate	Run1	generate/STIM_017.jpg	100
451.987	2.155	2155.0	generate	Run1	generate/STIM_017.jpg	99
457.044	2.892	2892.4	generate	Run1	generate/STIM_018.jpg	99
462.506	1.373	1373.0	generate	Run1	generate/STIM_018.jpg	100
466.437	1.482	1482.4	generate	Run1	generate/STIM_018.jpg	99
470.544	1.896	1895.5	generate	Run1	generate/STIM_018.jpg	100
474.682	1.16	1159.8	generate	Run1	generate/STIM_018.jpg	99
479.432	2.242	2241.9	generate	Run1	generate/STIM_019.jpg	100
485.127	1.228	1228.3	generate	Run1	generate/STIM_019.jpg	100
489.171	2.716	2715.7	generate	Run1	generate/STIM_019.jpg	100
494.029	1.448	1447.8	generate	Run1	generate/STIM_019.jpg	100
499.068	2.474	2473.9	generate	Run1	generate/STIM_019.jpg	99
503.621	1.298	1298.5	generate	Run1	generate/STIM_020.jpg	99
507.106	2.604	2604.1	generate	Run1	generate/STIM_020.jpg	99
513.003	1.438	1437.8	generate	Run1	generate/STIM_020.jpg	100
517.553	1.991	1991.1	generate	Run1	generate/STIM_020.jpg	100
523.261	2.176	2176.2	generate	Run1	generate/STIM_020.jpg	100
528.461	2.699	2698.8	generate	Run1	generate/STIM_021.jpg	100
534.124	1.313	1313.0	generate	Run1	generate/STIM_021.jpg	99
538.561	2.296	2296.2	generate	Run1	generate/STIM_021.jpg	99
543.457	1.578	1577.9	generate	Run1	generate/STIM_021.jpg	100
548.465	1.282	1282.4	generate	Run1	generate/STIM_021.jpg	100
552.389	2.148	2147.7	generate	Run1	generate/STIM_022.jpg	100
558.324	1.86	1860.4	generate	Run1	generate/STIM_022.jpg	100
564.032	1.945	1944.7	generate	Run1	generate/STIM_022.jpg	100
569.145	2.539	2538.8	generate	Run1	generate/STIM_022.jpg	99
574.196	1.884	1884.3	generate	Run1	generate/STIM_022.jpg	99
579.638	1.835	1835.3	generate	Run1	generate/STIM_023.jpg	99
584.97	1.929	1929.1	generate	Run1	generate/STIM_023.jpg	100
589.538	2.321	2321.0	generate	Run1	generate/STIM_023.jpg	99
595.592	2.028	2028.4	generate	Run1	generate/STIM_023.jpg	100
600.685	2.208	2208.1	generate	Run1	generate/STIM_023.jpg	99
606.662	2.172	2171.8	generate	Run1	generate/STIM_024.jpg	100
611.53	2.006	2005.5	generate	Run1	generate/STIM_024.jpg	99
617.233	1.262	1261.9	generate	Run1	generate/STIM_024.jpg	99
620.947	2.108	2107.7	generate	Run1	generate/STIM_024.jpg	100
626.585	1.371	1370.9	generate	Run1	generate/STIM_024.jpg	99
630.738	0.66	659.8	repeat	Run1	repeat/STIM_000.jpg	100
634.829	0.524	523.5	repeat	Run1	repeat/STIM_000.jpg	99
638.355	0.789	789.3	repeat	Run1	repeat/STIM_000.jpg	100
642.393	0.875	875.3	repeat	Run1	repeat/STIM_000.jpg	99
645.399	0.905	905.0	repeat	Run1	repeat/STIM_000.jpg	100
649.178	1.013	1013.4	repeat	Run1	repeat/STIM_001.jpg	100
653.013	0.95	949.6	repeat	Run1	repeat/STIM_001.jpg	99
655.936	0.98	980.4	repeat	Run1	repeat/STIM_001.jpg	100
660.446	0.589	589.0	repeat	Run1	repeat/STIM_001.jpg	99
663.099	0.749	749.3	repeat	Run1	repeat/STIM_001.jpg	99
666.183	0.702	701.7	repeat	Run1	repeat/STIM_002.jpg	99
669.249	0.695	695.0	repeat	Run1	repeat/STIM_002.jpg	100
672.472	0.592	591.6	repeat	Run1	repeat/STIM_002.jpg	100
675.837	0.776	776.5	repeat	Run1	repeat/STIM_002.jpg	100
680.173	0.663	663.0	repeat	Run1	repeat/STIM_002.jpg	100
684.513	0.922	921.8	repeat	Run1	repeat/STIM_003.jpg	100
687.997	0.907	906.6	repeat	Run1	repeat/STIM_003.jpg	100
692.468	0.96	959.7	repeat	Run1	repeat/STIM_003.jpg	99
696.464	0.767	766.6	repeat	Run1	repeat/STIM_003.jpg	100
699.21	0.819	819.3	repeat	Run1	repeat/STIM_003.jpg	99
702.732	0.721	721.3	repeat	Run1	repeat/STIM_004.jpg	99
705.875	0.648	647.8	repeat	Run1	repeat/STIM_004.jpg	100
709.192	0.543	542.8	repeat	Run1	repeat/STIM_004.jpg	100
712.835	0.521	520.9	repeat	Run1	repeat/STIM_004.jpg	100
715.687	0.916	915.5	repeat	Run1	repeat/STIM_004.jpg	99
718.973	0.73	729.9	repeat	Run1	repeat/STIM_005.jpg	99
723.517	0.799	798.7	repeat	Run1	repeat/STIM_005.jpg	100
727.448	0.726	725.6	repeat	Run1	repeat/STIM_005.jpg	100
731.677	0.572	572.4	repeat	Run1	repeat/STIM_005.jpg	99
735.257	0.652	651.7	repeat	Run1	repeat/STIM_005.jpg	99
738.327	0.764	764.1	repeat	Run1	repeat/STIM_006.jpg	99
742.959	0.609	608.6	repeat	Run1	repeat/STIM_006.jpg	100
745.875	0.532	532.5	repeat	Run1	repeat/STIM_006.jpg	99
749.648	0.546	546.3	repeat	Run1	repeat/STIM_006.jpg	100
753.472	0.651	651.1	repeat	Run1	repeat/STIM_006.jpg	99
756.802	0.769	769.4	repeat	Run1	repeat/STIM_007.jpg	100
760.24	0.865	864.7	repeat	Run1	repeat/STIM_007.jpg	99
763.532	0.747	746.6	repeat	Run1	repeat/STIM_007.jpg	99
767.55	0.786	785.6	repeat	Run1	repeat/STIM_007.jpg	100
771.683	0.567	567.4	repeat	Run1	repeat/STIM_007.jpg	100
775.218	0.665	664.9	repeat	Run1	repeat/STIM_008.jpg	99
779.113	0.522	521.8	repeat	Run1	repeat/STIM_008.jpg	100
782.644	0.651	650.8	repeat	Run1	repeat/STIM_008.jpg	100
786.484	0.947	946.9	repeat	Run1	repeat/STIM_008.jpg	100
790.574	0.684	684.1	repeat	Run1	repeat/STIM_008.jpg	99
793.58	0.652	651.7	repeat	Run1	repeat/STIM_009.jpg	100
796.235	0.844	844.3	repeat	Run1	repeat/STIM_009.jpg	99
800.553	0.819	818.9	repeat	Run1	repeat/STIM_009.jpg	100
803.985	0.874	874.4	repeat	Run1	repeat/STIM_009.jpg	100
806.909	0.945	945.0	repeat	Run1	repeat/STIM_009.jpg	99
810.206	0.816	816.1	repeat	Run1	repeat/STIM_010.jpg	99
813.056	0.721	720.9	repeat	Run1	repeat/STIM_010.jpg	99
817.718	0.532	532.5	repeat	Run1	repeat/STIM_010.jpg	100
822.026	0.993	992.7	repeat	Run1	repeat/STIM_010.jpg	99
826.401	0.897	897.1	repeat	Run1	repeat/STIM_010.jpg	99
829.78	0.606	606.4	repeat	Run1	repeat/STIM_011.jpg	100
834.122	0.981	981.1	repeat	Run1	repeat/STIM_011.jpg	100
838.967	1.023	1023.3	repeat	Run1	repeat/STIM_011.jpg	99
842.705	0.703	703.1	repeat	Run1	repeat/STIM_011.jpg	99
846.621	0.738	738.3	repeat	Run1	repeat/STIM_011.jpg	99
850.925	0.774	773.6	repeat	Run1	repeat/STIM_012.jpg	100
853.733	0.876	876.4	repeat	Run1	repeat/STIM_012.jpg	99
857.999	0.79	790.1	repeat	Run1	repeat/STIM_012.jpg	99
861.715	0.653	652.6	repeat	Run1	repeat/STIM_012.jpg	100
864.965	0.867	867.0	repeat	Run1	repeat/STIM_012.jpg	100
868.943	0.841	841.0	repeat	Run1	repeat/STIM_013.jpg	100
872.327	0.909	908.7	repeat	Run1	repeat/STIM_013.jpg	100
876.284	1.0	1000.2	repeat	Run1	repeat/STIM_013.jpg	99
881.078	0.911	910.8	repeat	Run1	repeat/STIM_013.jpg	100
885.738	0.784	783.7	repeat	Run1	repeat/STIM_013.jpg	100
889.32	0.777	776.6	repeat	Run1	repeat/STIM_014.jpg	99
892.566	0.808	807.5	repeat	Run1	repeat/STIM_014.jpg	99
896.362	0.664	664.1	repeat	Run1	repeat/STIM_014.jpg	99
899.997	0.546	545.6	repeat	Run1	repeat/STIM_014.jpg	100
903.268	0.535	535.3	repeat	Run1	repeat/STIM_014.jpg	99
907.11	2.158	2157.9	generate	Run2	generate/STIM_000.jpg	100
911.918	1.726	1725.8	generate	Run2	generate/STIM_000.jpg	100
916.5	1.047	1047.0	generate	Run2	generate/STIM_000.jpg	100
921.378	1.306	1306.3	generate	Run2	generate/STIM_000.jpg	99
925.391	1.484	1484.3	generate	Run2	generate/STIM_000.jpg	100
929.69	1.793	1793.4	generate	Run2	generate/STIM_001.jpg	100
934.963	1.255	1254.8	generate	Run2	generate/STIM_001.jpg	100
938.422	1.702	1701.6	generate	Run2	generate/STIM_001.jpg	99
943.043	1.573	1573.3	generate	Run2	generate/STIM_001.jpg	100
946.571	0.963	963.2	generate	Run2	generate/STIM_001.jpg	100
949.92	1.121	1120.9	generate	Run2	generate/STIM_002.jpg	99
954.822	2.474	2474.1	generate	Run2	generate/STIM_002.jpg	99
961.182	2.243	2243.4	generate	Run2	generate/STIM_002.jpg	99
966.474	1.038	1038.2	generate	Run2	generate/STIM_002.jpg	99
970.0	1.8	1799.6	generate	Run2	generate/STIM_002.jpg	100
974.247	1.46	1460.3	generate	Run2	generate/STIM_003.jpg	100
977.692	2.303	2303.1	generate	Run2	generate/STIM_003.jpg	100
982.034	1.71	1710.4	generate	Run2	generate/STIM_003.jpg	100
986.939	0.984	984.0	generate	Run2	generate/STIM_003.jpg	99
990.533	0.9	899.8	generate	Run2	generate/STIM_003.jpg	100
994.899	2.323	2322.8	generate	Run2	generate/STIM_004.jpg	100
1000.65	1.353	1352.8	generate	Run2	generate/STIM_004.jpg	99
1004.504	1.436	1436.2	generate	Run2	generate/STIM_004.jpg	99
1009.208	1.185	1185.3	generate	Run2	generate/STIM_004.jpg	99
1013.21	1.268	1267.5	generate	Run2	generate/STIM_004.jpg	100
1016.937	2.366	2365.5	generate	Run2	generate/STIM_005.jpg	100
1021.81	2.06	2060.0	generate	Run2	generate/STIM_005.jpg	100
1026.245	1.277	1277.0	generate	Run2	generate/STIM_005.jpg	100
1031.083	0.926	926.0	generate	Run2	generate/STIM_005.jpg	100
1035.392	1.944	1944.5	generate	Run2	generate/STIM_005.jpg	99
1041.207	1.158	1157.6	generate	Run2	generate/STIM_006.jpg	100
1046.108	2.146	2145.8	generate	Run2	generate/STIM_006.jpg	99
1051.802	1.078	1077.6	generate	Run2	generate/STIM_006.jpg	100
1055.496	1.643	1643.0	generate	Run2	generate/STIM_006.jpg	99
1060.597	1.558	1558.2	generate	Run2	generate/STIM_006.jpg	99
1065.964	1.94	1939.7	generate	Run2	generate/STIM_007.jpg	100
1071.385	2.11	2110.3	generate	Run2	generate/STIM_007.jpg	99
1077.179	1.782	1782.2	generate	Run2	generate/STIM_007.jpg	100
1082.581	1.306	1306.0	generate	Run2	generate/STIM_007.jpg	99
1087.636	1.766	1766.2	generate	Run2	generate/STIM_007.jpg	99
1092.127	1.737	1737.0	generate	Run2	generate/STIM_008.jpg	100
1095.843	2.266	2266.2	generate	Run2	generate/STIM_008.jpg	99
1101.712	2.292	2291.9	generate	Run2	generate/STIM_008.jpg	99
1106.434	1.279	1278.9	generate	Run2	generate/STIM_008.jpg	100
1110.384	1.434	1434.1	generate	Run2	generate/STIM_008.jpg	100
1115.046	1.786	1785.6	generate	Run2	generate/STIM_009.jpg	100
1119.336	1.272	1271.9	generate	Run2	generate/STIM_009.jpg	99
1123.872	1.586	1585.9	generate	Run2	generate/STIM_009.jpg	99
1128.803	1.348	1347.9	generate	Run2	generate/STIM_009.jpg	100
1133.631	1.339	1339.0	generate	Run2	generate/STIM_009.jpg	100
1138.766	1.525	1524.9	generate	Run2	generate/STIM_010.jpg	100
1143.621	1.987	1987.4	generate	Run2	generate/STIM_010.jpg	100
1147.55	1.386	1385.6	generate	Run2	generate/STIM_010.jpg	100
1152.099	1.262	1262.3	generate	Run2	generate/STIM_010.jpg	99
1155.834	1.537	1536.7	generate	Run2	generate/STIM_010.jpg	100
1159.347	2.272	2271.8	generate	Run2	generate/STIM_011.jpg	99
1165.371	1.359	1359.2	generate	Run2	generate/STIM_011.jpg	99
1168.754	1.759	1759.3	generate	Run2	generate/STIM_011.jpg	100
1173.075	1.139	1139.1	generate	Run2	generate/STIM_011.jpg	100
1177.025	1.846	1846.4	generate	Run2	generate/STIM_011.jpg	100
1181.422	2.072	2071.7	generate	Run2	generate/STIM_012.jpg	99
1186.691	1.92	1920.2	generate	Run2	generate/STIM_012.jpg	99
1192.172	1.504	1503.8	generate	Run2	generate/STIM_012.jpg	99
1197.525	1.798	1798.1	generate	Run2	generate/STIM_012.jpg	99
1202.009	1.798	1798.2	generate	Run2	generate/STIM_012.jpg	99
1206.736	1.518	1517.8	generate	Run2	generate/STIM_013.jpg	99
1211.781	2.275	2275.3	generate	Run2	generate/STIM_013.jpg	99
1216.438	1.608	1608.0	generate	Run2	generate/STIM_013.jpg	100
1221.862	1.371	1371.3	generate	Run2	generate/STIM_013.jpg	100
1225.978	1.714	1714.3	generate	Run2	generate/STIM_013.jpg	99
1230.444	1.831	1830.7	generate	Run2	generate/STIM_014.jpg	99
1235.988	2.346	2345.5	generate	Run2	generate/STIM_014.jpg	99
1241.255	2.063	2062.7	generate	Run2	generate/STIM_014.jpg	100
1246.027	1.011	1011.3	generate	Run2	generate/STIM_014.jpg	100
1250.853	1.495	1494.7	generate	Run2	generate/STIM_014.jpg	100
1254.588	2.255	2254.9	generate	Run2	generate/STIM_015.jpg	100
1259.001	1.255	1254.7	generate	Run2	generate/STIM_015.jpg	99
1263.159	1.582	1582.5	generate	Run2	generate/STIM_015.jpg	99
1268.458	0.948	948.1	generate	Run2	generate/STIM_015.jpg	99
1273.245	1.443	1442.7	generate	Run2	generate/STIM_015.jpg	99
1277.413	2.644	2644.4	generate	Run2	generate/STIM_016.jpg	100
1282.022	1.834	1834.2	generate	Run2	generate/STIM_016.jpg	100
1286.949	1.097	1096.9	generate	Run2	generate/STIM_016.jpg	99
1290.579	0.931	931.0	generate	Run2	generate/STIM_016.jpg	99
1294.823	1.241	1241.0	generate	Run2	generate/STIM_016.jpg	99
1299.427	1.44	1439.9	generate	Run2	generate/STIM_017.jpg	100
1303.886	1.95	1950.2	generate	Run2	generate/STIM_017.jpg	100
1308.649	1.412	1412.3	generate	Run2	generate/STIM_017.jpg	99
1312.923	1.923	1922.7	generate	Run2	generate/STIM_017.jpg	100
1317.893	1.268	1268.5	generate	Run2	generate/STIM_017.jpg	99
1322.696	1.498	1498.5	generate	Run2	generate/STIM_018.jpg	100
1326.482	2.158	2157.6	generate	Run2	generate/STIM_018.jpg	99
1331.193	1.236	1235.6	generate	Run2	generate/STIM_018.jpg	99
1335.218	1.517	1517.3	generate	Run2	generate/STIM_018.jpg	100
1339.548	2.035	2034.6	generate	Run2	generate/STIM_018.jpg	99
1343.986	1.887	1886.7	generate	Run2	generate/STIM_019.jpg	99
1349.126	2.128	2128.4	generate	Run2	generate/STIM_019.jpg	100
1354.167	1.674	1674.1	generate	Run2	generate/STIM_019.jpg	100
1358.908	1.469	1469.4	generate	Run2	generate/STIM_019.jpg	100
1362.561	1.55	1549.7	generate	Run2	generate/STIM_019.jpg	100
1367.129	2.504	2503.6	generate	Run2	generate/STIM_020.jpg	99
1372.549	1.668	1667.8	generate	Run2	generate/STIM_020.jpg	99
1376.51	1.505	1504.6	generate	Run2	generate/STIM_020.jpg	99
1381.608	1.896	1895.8	generate	Run2	generate/STIM_020.jpg	100
1385.897	1.065	1065.0	generate	Run2	generate/STIM_020.jpg	99
1390.775	1.389	1389.1	generate	Run2	generate/STIM_021.jpg	99
1394.652	1.694	1693.5	generate	Run2	generate/STIM_021.jpg	100
1399.527	1.994	1994.2	generate	Run2	generate/STIM_021.jpg	100
1403.961	1.837	1837.0	generate	Run2	generate/STIM_021.jpg	100
1408.482	1.978	1977.5	generate	Run2	generate/STIM_021.jpg	99
1413.727	1.269	1268.8	generate	Run2	generate/STIM_022.jpg	99
1416.998	1.624	1623.8	generate	Run2	generate/STIM_022.jpg	100
1422.182	1.638	1637.9	generate	Run2	generate/STIM_022.jpg	100
1427.73	0.977	977.2	generate	Run2	generate/STIM_022.jpg	99
1432.649	1.975	1974.8	generate	Run2	generate/STIM_022.jpg	100
1436.678	2.03	2029.9	generate	Run2	generate/STIM_023.jpg	100
1442.606	1.476	1475.6	generate	Run2	generate/STIM_023.jpg	100
1447.604	1.216	1216.4	generate	Run2	generate/STIM_023.jpg	99
1452.083	1.896	1895.6	generate	Run2	generate/STIM_023.jpg	100
1456.433	1.221	1221.3	generate	Run2	generate/STIM_023.jpg	100
1461.119	1.412	1412.0	generate	Run2	generate/STIM_024.jpg	99
1465.769	2.089	2089.4	generate	Run2	generate/STIM_024.jpg	100
1470.879	2.273	2273.3	generate	Run2	generate/STIM_024.jpg	100
1475.524	1.279	1279.0	generate	Run2	generate/STIM_024.jpg	99
1480.357	1.485	1485.1	generate	Run2	generate/STIM_024.jpg	100
1485.5	0.643	642.9	repeat	Run2	repeat/STIM_000.jpg	99
1488.761	0.798	798.1	repeat	Run2	repeat/STIM_000.jpg	100
1492.018	0.998	997.8	repeat	Run2	repeat/STIM_000.jpg	100
1496.468	0.601	600.6	repeat	Run2	repeat/STIM_000.jpg	100
1499.136	0.556	556.1	repeat	Run2	repeat/STIM_000.jpg	99
1503.297	0.733	732.7	repeat	Run2	repeat/STIM_001.jpg	100
1507.799	0.92	919.6	repeat	Run2	repeat/STIM_001.jpg	100
1511.123	0.656	656.1	repeat	Run2	repeat/STIM_001.jpg	100
1514.092	0.925	924.9	repeat	Run2	repeat/STIM_001.jpg	100
1518.545	0.992	991.7	repeat	Run2	repeat/STIM_001.jpg	99
1522.613	0.828	828.3	repeat	Run2	repeat/STIM_002.jpg	100
1527.249	0.926	925.8	repeat	Run2	repeat/STIM_002.jpg	100
1530.141	0.869	869.4	repeat	Run2	repeat/STIM_002.jpg	99
1534.501	0.99	990.4	repeat	Run2	repeat/STIM_002.jpg	100
1539.264	0.556	555.9	repeat	Run2	repeat/STIM_002.jpg	100
1543.732	0.685	685.2	repeat	Run2	repeat/STIM_003.jpg	99
1547.778	0.604	604.1	repeat	Run2	repeat/STIM_003.jpg	99
1551.494	0.817	817.0	repeat	Run2	repeat/STIM_003.jpg	100
1554.65	0.808	808.1	repeat	Run2	repeat/STIM_003.jpg	100
1557.62	0.864	864.1	repeat	Run2	repeat/STIM_003.jpg	100
1561.782	0.817	817.0	repeat	Run2	repeat/STIM_004.jpg	100
1566.256	0.716	716.3	repeat	Run2	repeat/STIM_004.jpg	100
1570.279	0.875	875.3	repeat	Run2	repeat/STIM_004.jpg	100
1574.192	0.673	673.2	repeat	Run2	repeat/STIM_004.jpg	99
1578.761	0.955	954.6	repeat	Run2	repeat/STIM_004.jpg	100
1583.518	0.688	688.5	repeat	Run2	repeat/STIM_005.jpg	100
1587.335	0.942	941.8	repeat	Run2	repeat/STIM_005.jpg	99
1591.692	0.814	813.6	repeat	Run2	repeat/STIM_005.jpg	99
1594.992	0.653	653.3	repeat	Run2	repeat/STIM_005.jpg	100
1597.673	0.537	536.7	repeat	Run2	repeat/STIM_005.jpg	100
1600.478	0.843	843.0	repeat	Run2	repeat/STIM_006.jpg	99
1603.792	0.715	714.7	repeat	Run2	repeat/STIM_006.jpg	99
1606.991	0.99	990.1	repeat	Run2	repeat/STIM_006.jpg	100
1610.31	0.639	638.6	repeat	Run2	repeat/STIM_006.jpg	100
1613.957	0.923	922.9	repeat	Run2	repeat/STIM_006.jpg	99
1618.172	0.94	939.9	repeat	Run2	repeat/STIM_007.jpg	99
1622.721	0.601	601.4	repeat	Run2	repeat/STIM_007.jpg	99
1626.629	0.843	842.9	repeat	Run2	repeat/STIM_007.jpg	100
1630.191	0.545	544.9	repeat	Run2	repeat/STIM_007.jpg	100
1634.364	0.753	752.6	repeat	Run2	repeat/STIM_007.jpg	99
1638.205	0.627	627.2	repeat	Run2	repeat/STIM_008.jpg	99
1642.017	0.63	629.8	repeat	Run2	repeat/STIM_008.jpg	99
1646.468	0.601	601.4	repeat	Run2	repeat/STIM_008.jpg	100
1649.787	0.864	863.8	repeat	Run2	repeat/STIM_008.jpg	99
1652.646	0.999	998.7	repeat	Run2	repeat/STIM_008.jpg	100
1655.753	0.574	573.9	repeat	Run2	repeat/STIM_009.jpg	100
1659.783	0.926	925.5	repeat	Run2	repeat/STIM_009.jpg	99
1662.91	0.546	546.3	repeat	Run2	repeat/STIM_009.jpg	99
1665.527	0.73	730.3	repeat	Run2	repeat/STIM_009.jpg	100
1670.11	0.789	788.7	repeat	Run2	repeat/STIM_009.jpg	100
1674.005	0.88	879.7	repeat	Run2	repeat/STIM_010.jpg	100
1677.915	1.028	1027.5	repeat	Run2	repeat/STIM_010.jpg	100
1681.208	0.919	919.1	repeat	Run2	repeat/STIM_010.jpg	100
1684.809	1.019	1019.0	repeat	Run2	repeat/STIM_010.jpg	99
1688.163	0.683	683.1	repeat	Run2	repeat/STIM_010.jpg	99
1692.62	0.769	769.4	repeat	Run2	repeat/STIM_011.jpg	99
1696.084	0.959	959.3	repeat	Run2	repeat/STIM_011.jpg	99
1700.292	0.688	687.9	repeat	Run2	repeat/STIM_011.jpg	100
1703.196	0.729	729.2	repeat	Run2	repeat/STIM_011.jpg	99
1706.336	0.698	697.7	repeat	Run2	repeat/STIM_011.jpg	99
1710.421	1.003	1003.3	repeat	Run2	repeat/STIM_012.jpg	100
1714.347	0.542	541.5	repeat	Run2	repeat/STIM_012.jpg	100
1718.228	0.995	995.0	repeat	Run2	repeat/STIM_012.jpg	99
1723.166	0.522	522.5	repeat	Run2	repeat/STIM_012.jpg	99
1726.069	0.546	546.3	repeat	Run2	repeat/STIM_012.jpg	100
1729.928	1.038	1038.4	repeat	Run2	repeat/STIM_013.jpg	99
1734.003	0.894	894.3	repeat	Run2	repeat/STIM_013.jpg	99
1738.028	0.788	788.2	repeat	Run2	repeat/STIM_013.jpg	100
1742.663	0.614	613.6	repeat	Run2	repeat/STIM_013.jpg	99
1745.922	0.638	638.0	repeat	Run2	repeat/STIM_013.jpg	99
1749.501	0.614	613.5	repeat	Run2	repeat/STIM_014.jpg	99
1753.42	0.763	763.4	repeat	Run2	repeat/STIM_014.jpg	99
1756.438	1.014	1014.5	repeat	Run2	repeat/STIM_014.jpg	100
1761.324	0.584	584.2	repeat	Run2	repeat/STIM_014.jpg	100
1765.081	0.735	734.8	repeat	Run2	repeat/STIM_014.jpg	99
1768.352	1.652	1651.7	generate	Run3	generate/STIM_000.jpg	99
1772.194	2.058	2057.7	generate	Run3	generate/STIM_000.jpg	99
1776.253	0.994	993.5	generate	Run3	generate/STIM_000.jpg	100
1780.713	1.674	1674.1	generate	Run3	generate/STIM_000.jpg	100
1785.115	1.743	1743.3	generate	Run3	generate/STIM_000.jpg	100
1789.715	2.109	2108.8	generate	Run3	generate/STIM_001.jpg	100
1794.922	2.028	2028.2	generate	Run3	generate/STIM_001.jpg	100
1800.686	1.516	1515.7	generate	Run3	generate/STIM_001.jpg	99
1805.805	1.573	1572.7	generate	Run3	generate/STIM_001.jpg	100
1809.327	1.159	1159.4	generate	Run3	generate/STIM_001.jpg	99
1813.468	1.596	1596.4	generate	Run3	generate/STIM_002.jpg	100
1817.512	1.419	1418.9	generate	Run3	generate/STIM_002.jpg	99
1822.455	1.947	1947.2	generate	Run3	generate/STIM_002.jpg	100
1827.458	1.631	1631.3	generate	Run3	generate/STIM_002.jpg	100
1831.489	0.958	957.7	generate	Run3	generate/STIM_002.jpg	100
1836.007	1.196	1195.6	generate	Run3	generate/STIM_003.jpg	99
1840.898	1.936	1936.2	generate	Run3	generate/STIM_003.jpg	100
1846.111	1.707	1706.8	generate	Run3	generate/STIM_003.jpg	100
1851.342	1.742	1741.5	generate	Run3	generate/STIM_003.jpg	100
1856.598	1.705	1705.1	generate	Run3	generate/STIM_003.jpg	99
1860.618	1.411	1411.2	generate	Run3	generate/STIM_004.jpg	99
1865.26	1.915	1915.4	generate	Run3	generate/STIM_004.jpg	99
1870.314	1.133	1132.8	generate	Run3	generate/STIM_004.jpg	99
1874.464	1.239	1239.0	generate	Run3	generate/STIM_004.jpg	100
1878.607	1.743	1742.7	generate	Run3	generate/STIM_004.jpg	100
1882.82	1.21	1209.9	generate	Run3	generate/STIM_005.jpg	100
1886.807	1.791	1791.3	generate	Run3	generate/STIM_005.jpg	99
1891.107	1.565	1565.3	generate	Run3	generate/STIM_005.jpg	99
1895.373	1.796	1795.5	generate	Run3	generate/STIM_005.jpg	99
1900.352	1.71	1709.8	generate	Run3	generate/STIM_005.jpg	99
1904.816	1.568	1568.1	generate	Run3	generate/STIM_006.jpg	99
1909.094	1.662	1661.7	generate	Run3	generate/STIM_006.jpg	100
1914.231	2.064	2063.7	generate	Run3	generate/STIM_006.jpg	100
1919.35	1.597	1596.7	generate	Run3	generate/STIM_006.jpg	100
1924.782	1.291	1290.9	generate	Run3	generate/STIM_006.jpg	100
1929.934	1.296	1295.5	generate	Run3	generate/STIM_007.jpg	99
1934.554	1.163	1163.1	generate	Run3	generate/STIM_007.jpg	100
1938.593	1.559	1559.3	generate	Run3	generate/STIM_007.jpg	100
1943.801	2.18	2180.4	generate	Run3	generate/STIM_007.jpg	99
1948.642	1.152	1151.6	generate	Run3	generate/STIM_007.jpg	99
1952.652	1.57	1570.5	generate	Run3	generate/STIM_008.jpg	99
1957.165	1.434	1434.4	generate	Run3	generate/STIM_008.jpg	99
1961.67	2.164	2164.5	generate	Run3	generate/STIM_008.jpg	99
1967.085	1.504	1503.9	generate	Run3	generate/STIM_008.jpg	99
1971.698	1.539	1539.4	generate	Run3	generate/STIM_008.jpg	99
1976.867	2.056	2055.6	generate	Run3	generate/STIM_009.jpg	99
1981.969	1.559	1559.0	generate	Run3	generate/STIM_009.jpg	100
1986.864	1.294	1293.5	generate	Run3	generate/STIM_009.jpg	100
1990.484	2.126	2126.3	generate	Run3	generate/STIM_009.jpg	99
1995.482	0.98	979.8	generate	Run3	generate/STIM_009.jpg	99
1999.185	1.268	1268.5	generate	Run3	generate/STIM_010.jpg	99
2002.533	1.895	1895.3	generate	Run3	generate/STIM_010.jpg	99
2008.272	1.069	1069.0	generate	Run3	generate/STIM_010.jpg	99
2011.31	1.658	1658.1	generate	Run3	generate/STIM_010.jpg	100
2015.89	1.804	1804.0	generate	Run3	generate/STIM_010.jpg	99
2019.676	1.946	1946.2	generate	Run3	generate/STIM_011.jpg	99
2024.764	1.527	1526.8	generate	Run3	generate/STIM_011.jpg	100
2028.66	0.939	939.1	generate	Run3	generate/STIM_011.jpg	100
2031.947	1.01	1010.4	generate	Run3	generate/STIM_011.jpg	99
2036.007	1.799	1799.2	generate	Run3	generate/STIM_011.jpg	100
2041.604	1.782	1781.8	generate	Run3	generate/STIM_012.jpg	99
2045.793	0.992	991.9	generate	Run3	generate/STIM_012.jpg	99
2049.108	1.621	1620.6	generate	Run3	generate/STIM_012.jpg	99
2054.233	1.546	1546.0	generate	Run3	generate/STIM_012.jpg	100
2057.823	1.639	1639.0	generate	Run3	generate/STIM_012.jpg	100
2061.853	1.303	1302.6	generate	Run3	generate/STIM_013.jpg	100
2066.433	1.167	1167.3	generate	Run3	generate/STIM_013.jpg	100
2070.891	1.963	1962.9	generate	Run3	generate/STIM_013.jpg	99
2074.827	1.124	1124.0	generate	Run3	generate/STIM_013.jpg	100
2079.067	1.145	1145.2	generate	Run3	generate/STIM_013.jpg	99
2083.934	1.48	1479.5	generate	Run3	generate/STIM_014.jpg	100
2088.125	1.156	1156.2	generate	Run3	generate/STIM_014.jpg	100
2092.697	2.069	2068.9	generate	Run3	generate/STIM_014.jpg	100
2098.416	0.931	930.6	generate	Run3	generate/STIM_014.jpg	100
2103.199	2.096	2096.5	generate	Run3	generate/STIM_014.jpg	100
2107.455	1.659	1658.7	generate	Run3	generate/STIM_015.jpg	99
2111.461	1.258	1258.4	generate	Run3	generate/STIM_015.jpg	100
2115.354	1.516	1516.5	generate	Run3	generate/STIM_015.jpg	99
2119.65	1.604	1604.2	generate	Run3	generate/STIM_015.jpg	100
2123.898	1.033	1032.6	generate	Run3	generate/STIM_015.jpg	99
2127.919	1.104	1103.9	generate	Run3	generate/STIM_016.jpg	100
2132.082	1.133	1133.3	generate	Run3	generate/STIM_016.jpg	100
2136.241	1.774	1774.5	generate	Run3	generate/STIM_016.jpg	100
2141.35	2.056	2055.7	generate	Run3	generate/STIM_016.jpg	100
2146.471	1.752	1751.5	generate	Run3	generate/STIM_016.jpg	99
2151.721	1.414	1414.1	generate	Run3	generate/STIM_017.jpg	100
2156.15	1.638	1637.6	generate	Run3	generate/STIM_017.jpg	99
2161.022	1.074	1074.4	generate	Run3	generate/STIM_017.jpg	99
2164.139	0.89	890.1	generate	Run3	generate/STIM_017.jpg	100
2168.776	0.925	924.6	generate	Run3	generate/STIM_017.jpg	100
2171.805	1.038	1038.3	generate	Run3	generate/STIM_018.jpg	100
2176.651	1.333	1332.8	generate	Run3	generate/STIM_018.jpg	100
2180.958	2.118	2117.9	generate	Run3	generate/STIM_018.jpg	100
2186.16	1.608	1607.9	generate	Run3	generate/STIM_018.jpg	100
2191.082	1.166	1166.0	generate	Run3	generate/STIM_018.jpg	99
2195.639	1.095	1095.1	generate	Run3	generate/STIM_019.jpg	99
2199.805	1.472	1472.3	generate	Run3	generate/STIM_019.jpg	99
2205.076	1.139	1138.8	generate	Run3	generate/STIM_019.jpg	100
2209.699	1.47	1469.7	generate	Run3	generate/STIM_019.jpg	100
2214.774	0.98	980.5	generate	Run3	generate/STIM_019.jpg	100
2217.884	1.836	1835.6	generate	Run3	generate/STIM_020.jpg	100
2221.915	1.474	1473.6	generate	Run3	generate/STIM_020.jpg	100
2225.827	1.949	1948.8	generate	Run3	generate/STIM_020.jpg	100
2230.016	1.731	1730.6	generate	Run3	generate/STIM_020.jpg	100
2234.48	0.933	932.9	generate	Run3	generate/STIM_020.jpg	99
2237.682	2.052	2052.3	generate	Run3	generate/STIM_021.jpg	99
2242.762	2.173	2173.2	generate	Run3	generate/STIM_021.jpg	99
2247.49	0.919	918.8	generate	Run3	generate/STIM_021.jpg	100
2251.356	1.642	1641.7	generate	Run3	generate/STIM_021.jpg	100
2255.025	1.413	1413.3	generate	Run3	generate/STIM_021.jpg	100
2258.951	2.075	2074.7	generate	Run3	generate/STIM_022.jpg	100
2263.944	1.917	1917.0	generate	Run3	generate/STIM_022.jpg	100
2268.26	1.141	1140.8	generate	Run3	generate/STIM_022.jpg	100
2271.364	1.667	1666.6	generate	Run3	generate/STIM_022.jpg	99
2276.392	1.245	1244.7	generate	Run3	generate/STIM_022.jpg	100
2280.232	1.771	1770.8	generate	Run3	generate/STIM_023.jpg	99
2284.261	1.641	1641.3	generate	Run3	generate/STIM_023.jpg	100
2289.466	0.934	934.5	generate	Run3	generate/STIM_023.jpg	100
2293.416	1.61	1609.6	generate	Run3	generate/STIM_023.jpg	99
2297.326	2.038	2037.9	generate	Run3	generate/STIM_023.jpg	100
2302.582	0.999	998.8	generate	Run3	generate/STIM_024.jpg	99
2306.126	0.894	894.2	generate	Run3	generate/STIM_024.jpg	99
2310.927	2.042	2042.1	generate	Run3	generate/STIM_024.jpg	99
2315.847	1.262	1261.5	generate	Run3	generate/STIM_024.jpg	99
2319.705	1.946	1945.9	generate	Run3	generate/STIM_024.jpg	99
2323.943	0.558	557.6	repeat	Run3	repeat/STIM_000.jpg	99
2327.798	0.96	959.9	repeat	Run3	repeat/STIM_000.jpg	99
2331.926	0.698	698.3	repeat	Run3	repeat/STIM_000.jpg	100
2336.497	1.032	1031.7	repeat	Run3	repeat/STIM_000.jpg	100
2340.036	0.783	783.1	repeat	Run3	repeat/STIM_000.jpg	100
2342.881	0.641	640.7	repeat	Run3	repeat/STIM_001.jpg	100
2345.863	1.003	1003.0	repeat	Run3	repeat/STIM_001.jpg	99
2349.784	0.966	966.1	repeat	Run3	repeat/STIM_001.jpg	99
2353.317	0.783	783.3	repeat	Run3	repeat/STIM_001.jpg	99
2356.997	0.758	757.6	repeat	Run3	repeat/STIM_001.jpg	100
2361.054	0.801	800.6	repeat	Run3	repeat/STIM_002.jpg	99
2364.526	0.859	858.7	repeat	Run3	repeat/STIM_002.jpg	100
2367.637	0.884	883.8	repeat	Run3	repeat/STIM_002.jpg	100
2372.474	0.906	905.6	repeat	Run3	repeat/STIM_002.jpg	99
2376.684	0.604	603.7	repeat	Run3	repeat/STIM_002.jpg	99
2381.174	0.989	988.8	repeat	Run3	repeat/STIM_003.jpg	99
2385.368	0.824	823.9	repeat	Run3	repeat/STIM_003.jpg	100
2389.598	0.9	899.8	repeat	Run3	repeat/STIM_003.jpg	100
2393.773	0.765	765.0	repeat	Run3	repeat/STIM_003.jpg	99
2396.923	0.83	829.6	repeat	Run3	repeat/STIM_003.jpg	99
2400.681	0.697	696.7	repeat	Run3	repeat/STIM_004.jpg	99
2404.164	0.549	549.4	repeat	Run3	repeat/STIM_004.jpg	100
2407.333	0.903	903.2	repeat	Run3	repeat/STIM_004.jpg	99
2411.19	0.981	980.6	repeat	Run3	repeat/STIM_004.jpg	99
2414.584	0.944	944.0	repeat	Run3	repeat/STIM_004.jpg	100
2418.416	0.778	777.6	repeat	Run3	repeat/STIM_005.jpg	99
2421.434	0.803	803.4	repeat	Run3	repeat/STIM_005.jpg	100
2426.193	0.69	689.6	repeat	Run3	repeat/STIM_005.jpg	100
2430.0	0.617	617.2	repeat	Run3	repeat/STIM_005.jpg	100
2434.45	1.036	1036.5	repeat	Run3	repeat/STIM_005.jpg	100
2439.01	0.913	913.4	repeat	Run3	repeat/STIM_006.jpg	100
2442.314	0.997	997.0	repeat	Run3	repeat/STIM_006.jpg	100
2446.198	1.017	1016.8	repeat	Run3	repeat/STIM_006.jpg	100
2449.911	0.826	826.4	repeat	Run3	repeat/STIM_006.jpg	100
2454.103	0.912	912.2	repeat	Run3	repeat/STIM_006.jpg	99
2457.858	1.018	1018.0	repeat	Run3	repeat/STIM_007.jpg	100
2461.48	0.716	716.5	repeat	Run3	repeat/STIM_007.jpg	100
2464.193	0.694	693.7	repeat	Run3	repeat/STIM_007.jpg	99
2467.073	0.707	707.1	repeat	Run3	repeat/STIM_007.jpg	99
2469.798	0.716	715.8	repeat	Run3	repeat/STIM_007.jpg	100
2474.467	0.838	837.9	repeat	Run3	repeat/STIM_008.jpg	100
2479.033	0.78	780.3	repeat	Run3	repeat/STIM_008.jpg	99
2483.632	0.895	894.8	repeat	Run3	repeat/STIM_008.jpg	100
2487.664	0.883	883.2	repeat	Run3	repeat/STIM_008.jpg	99
2491.933	0.541	540.6	repeat	Run3	repeat/STIM_008.jpg	100
2494.935	0.799	798.7	repeat	Run3	repeat/STIM_009.jpg	99
2498.533	0.902	902.2	repeat	Run3	repeat/STIM_009.jpg	100
2502.072	0.593	592.9	repeat	Run3	repeat/STIM_009.jpg	99
2505.921	0.941	940.7	repeat	Run3	repeat/STIM_009.jpg	100
2510.144	0.815	814.8	repeat	Run3	repeat/STIM_009.jpg	100
2512.952	0.777	777.2	repeat	Run3	repeat/STIM_010.jpg	100
2515.706	0.713	713.3	repeat	Run3	repeat/STIM_010.jpg	99
2518.888	0.671	670.8	repeat	Run3	repeat/STIM_010.jpg	100
2523.064	0.552	552.2	repeat	Run3	repeat/STIM_010.jpg	100
2527.068	0.591	590.7	repeat	Run3	repeat/STIM_010.jpg	100
2531.211	0.693	692.7	repeat	Run3	repeat/STIM_011.jpg	100
2535.287	0.998	998.1	repeat	Run3	repeat/STIM_011.jpg	100
2539.84	0.816	815.8	repeat	Run3	repeat/STIM_011.jpg	100
2543.931	0.588	588.5	repeat	Run3	repeat/STIM_011.jpg	99
2547.459	0.697	697.4	repeat	Run3	repeat/STIM_011.jpg	100
2551.893	0.993	992.8	repeat	Run3	repeat/STIM_012.jpg	99
2556.254	0.855	855.4	repeat	Run3	repeat/STIM_012.jpg	100
2560.146	0.6	600.0	repeat	Run3	repeat/STIM_012.jpg	99
2564.689	0.728	727.9	repeat	Run3	repeat/STIM_012.jpg	100
2568.295	0.787	786.7	repeat	Run3	repeat/STIM_012.jpg	99
2571.643	0.736	736.2	repeat	Run3	repeat/STIM_013.jpg	100
2576.09	0.965	965.3	repeat	Run3	repeat/STIM_013.jpg	99
2580.953	0.541	540.6	repeat	Run3	repeat/STIM_013.jpg	99
2584.744	0.703	702.7	repeat	Run3	repeat/STIM_013.jpg	99
2588.475	0.65	650.1	repeat	Run3	repeat/STIM_013.jpg	100
2592.781	0.693	693.0	repeat	Run3	repeat/STIM_014.jpg	99
2596.133	0.689	688.7	repeat	Run3	repeat/STIM_014.jpg	99
2600.363	0.682	682.2	repeat	Run3	repeat/STIM_014.jpg	99
2604.776	0.962	962.0	repeat	Run3	repeat/STIM_014.jpg	99
2608.841	0.602	602.0	repeat	Run3	repeat/STIM_014.jpg	100
2611.608	0.995	995.0	generate	Run4	generate/STIM_000.jpg	100
2614.921	2.092	2091.5	generate	Run4	generate/STIM_000.jpg	100
2620.88	0.895	894.7	generate	Run4	generate/STIM_000.jpg	99
2624.904	1.129	1128.6	generate	Run4	generate/STIM_000.jpg	100
2629.704	1.438	1438.4	generate	Run4	generate/STIM_000.jpg	99
2634.118	1.925	1924.9	generate	Run4	generate/STIM_001.jpg	100
2638.495	1.951	1950.6	generate	Run4	generate/STIM_001.jpg	100
2642.866	1.918	1917.7	generate	Run4	generate/STIM_001.jpg	100
2647.477	1.649	1649.0	generate	Run4	generate/STIM_001.jpg	99
2651.123	1.734	1733.7	generate	Run4	generate/STIM_001.jpg	99
2655.763	1.382	1382.3	generate	Run4	generate/STIM_002.jpg	99
2660.653	1.195	1195.1	generate	Run4	generate/STIM_002.jpg	100
2664.225	2.021	2021.0	generate	Run4	generate/STIM_002.jpg	99
2668.92	1.379	1379.0	generate	Run4	generate/STIM_002.jpg	100
2673.344	1.789	1788.9	generate	Run4	generate/STIM_002.jpg	100
2678.219	1.81	1809.6	generate	Run4	generate/STIM_003.jpg	99
2682.408	2.042	2042.5	generate	Run4	generate/STIM_003.jpg	100
2687.813	1.872	1872.5	generate	Run4	generate/STIM_003.jpg	100
2693.195	2.09	2089.9	generate	Run4	generate/STIM_003.jpg	99
2697.522	1.713	1712.9	generate	Run4	generate/STIM_003.jpg	100
2702.404	1.034	1034.5	generate	Run4	generate/STIM_004.jpg	100
2706.199	1.107	1107.0	generate	Run4	generate/STIM_004.jpg	99
2710.633	1.476	1475.6	generate	Run4	generate/STIM_004.jpg	99
2714.499	1.455	1454.7	generate	Run4	generate/STIM_004.jpg	100
2718.516	1.921	1920.9	generate	Run4	generate/STIM_004.jpg	100
2723.376	2.108	2108.0	generate	Run4	generate/STIM_005.jpg	100
2728.329	1.665	1664.8	generate	Run4	generate/STIM_005.jpg	100
2733.174	1.847	1847.1	generate	Run4	generate/STIM_005.jpg	100
2737.971	1.434	1433.7	generate	Run4	generate/STIM_005.jpg	99
2742.473	1.945	1944.9	generate	Run4	generate/STIM_005.jpg	99
2747.652	1.317	1317.1	generate	Run4	generate/STIM_006.jpg	100
2752.495	0.937	937.1	generate	Run4	generate/STIM_006.jpg	99
2756.87	1.864	1864.4	generate	Run4	generate/STIM_006.jpg	100
2761.183	1.241	1241.2	generate	Run4	generate/STIM_006.jpg	99
2766.264	2.027	2027.1	generate	Run4	generate/STIM_006.jpg	99
2771.265	1.18	1180.0	generate	Run4	generate/STIM_007.jpg	100
2775.273	0.974	974.1	generate	Run4	generate/STIM_007.jpg	99
2778.76	1.07	1070.1	generate	Run4	generate/STIM_007.jpg	99
2783.199	1.231	1230.9	generate	Run4	generate/STIM_007.jpg	99
2786.824	1.396	1396.5	generate	Run4	generate/STIM_007.jpg	99
2791.592	1.932	1932.4	generate	Run4	generate/STIM_008.jpg	99
2797.235	2.108	2108.1	generate	Run4	generate/STIM_008.jpg	99
2802.574	2.025	2024.5	generate	Run4	generate/STIM_008.jpg	99
2807.551	1.185	1184.9	generate	Run4	generate/STIM_008.jpg	100
2811.979	1.606	1606.4	generate	Run4	generate/STIM_008.jpg	99
2816.495	2.11	2110.4	generate	Run4	generate/STIM_009.jpg	99
2821.933	2.018	2018.5	generate	Run4	generate/STIM_009.jpg	99
2826.261	1.673	1673.0	generate	Run4	generate/STIM_009.jpg	99
2830.305	1.779	1779.1	generate	Run4	generate/STIM_009.jpg	99
2834.919	1.879	1879.2	generate	Run4	generate/STIM_009.jpg	99
2838.907	1.218	1218.1	generate	Run4	generate/STIM_010.jpg	99
2842.824	2.132	2132.2	generate	Run4	generate/STIM_010.jpg	99
2848.113	1.45	1449.8	generate	Run4	generate/STIM_010.jpg	99
2852.36	1.466	1465.6	generate	Run4	generate/STIM_010.jpg	100
2857.265	1.794	1794.0	generate	Run4	generate/STIM_010.jpg	99
2862.521	0.912	912.1	generate	Run4	generate/STIM_011.jpg	100
2867.062	1.258	1258.0	generate	Run4	generate/STIM_011.jpg	99
2872.199	0.908	908.0	generate	Run4	generate/STIM_011.jpg	100
2875.811	1.729	1728.7	generate	Run4	generate/STIM_011.jpg	99
2880.735	1.31	1310.4	generate	Run4	generate/STIM_011.jpg	100
2885.676	1.279	1279.0	generate	Run4	generate/STIM_012.jpg	100
2889.597	1.317	1316.7	generate	Run4	generate/STIM_012.jpg	100
2894.592	1.423	1423.2	generate	Run4	generate/STIM_012.jpg	100
2899.699	1.034	1033.5	generate	Run4	generate/STIM_012.jpg	100
2903.398	1.048	1047.8	generate	Run4	generate/STIM_012.jpg	100
2906.692	0.919	918.9	generate	Run4	generate/STIM_013.jpg	100
2911.045	2.144	2144.5	generate	Run4	generate/STIM_013.jpg	100
2916.441	1.96	1960.3	generate	Run4	generate/STIM_013.jpg	100
2921.537	1.86	1859.7	generate	Run4	generate/STIM_013.jpg	99
2925.4	1.433	1433.1	generate	Run4	generate/STIM_013.jpg	99
2929.714	1.7	1700.5	generate	Run4	generate/STIM_014.jpg	100
2934.44	2.058	2058.3	generate	Run4	generate/STIM_014.jpg	100
2938.757	1.786	1786.2	generate	Run4	generate/STIM_014.jpg	100
2944.459	1.17	1169.6	generate	Run4	generate/STIM_014.jpg	99
2949.511	1.647	1647.1	generate	Run4	generate/STIM_014.jpg	99
2953.881	2.009	2008.9	generate	Run4	generate/STIM_015.jpg	100
2958.308	1.557	1556.7	generate	Run4	generate/STIM_015.jpg	99
2962.805	1.987	1986.8	generate	Run4	generate/STIM_015.jpg	100
2968.6	1.303	1303.0	generate	Run4	generate/STIM_015.jpg	99
2972.012	1.76	1760.1	generate	Run4	generate/STIM_015.jpg	100
2975.723	2.145	2145.2	generate	Run4	generate/STIM_016.jpg	100
2981.639	1.373	1373.3	generate	Run4	generate/STIM_016.jpg	100
2985.978	1.704	1704.4	generate	Run4	generate/STIM_016.jpg	100
2989.901	2.155	2155.0	generate	Run4	generate/STIM_016.jpg	100
2995.931	1.906	1906.4	generate	Run4	generate/STIM_016.jpg	100
3001.297	1.295	1295.1	generate	Run4	generate/STIM_017.jpg	100
3005.14	1.801	1800.7	generate	Run4	generate/STIM_017.jpg	100
3009.249	2.18	2179.6	generate	Run4	generate/STIM_017.jpg	99
3013.767	1.783	1782.7	generate	Run4	generate/STIM_017.jpg	99
3019.202	1.667	1666.6	generate	Run4	generate/STIM_017.jpg	99
3024.601	1.722	1722.5	generate	Run4	generate/STIM_018.jpg	99
3029.907	1.844	1843.5	generate	Run4	generate/STIM_018.jpg	100
3034.47	2.104	2104.0	generate	Run4	generate/STIM_018.jpg	100
3040.418	2.05	2050.0	generate	Run4	generate/STIM_018.jpg	100
3044.966	1.15	1149.5	generate	Run4	generate/STIM_018.jpg	99
3048.701	1.243	1242.9	generate	Run4	generate/STIM_019.jpg	99
3052.756	1.572	1571.6	generate	Run4	generate/STIM_019.jpg	99
3056.745	1.963	1962.6	generate	Run4	generate/STIM_019.jpg	99
3061.451	0.951	950.6	generate	Run4	generate/STIM_019.jpg	100
3064.583	1.242	1242.3	generate	Run4	generate/STIM_019.jpg	99
3069.666	1.492	1492.5	generate	Run4	generate/STIM_020.jpg	100
3074.282	1.152	1151.7	generate	Run4	generate/STIM_020.jpg	99
3077.846	2.021	2021.1	generate	Run4	generate/STIM_020.jpg	100
3081.899	1.159	1158.6	generate	Run4	generate/STIM_020.jpg	99
3086.468	1.959	1958.6	generate	Run4	generate/STIM_020.jpg	100
3092.011	1.327	1327.4	generate	Run4	generate/STIM_021.jpg	100
3096.847	1.386	1385.8	generate	Run4	generate/STIM_021.jpg	99
3102.079	1.114	1113.7	generate	Run4	generate/STIM_021.jpg	99
3105.196	1.978	1977.8	generate	Run4	generate/STIM_021.jpg	99
3110.335	1.135	1134.8	generate	Run4	generate/STIM_021.jpg	99
3114.181	1.674	1673.5	generate	Run4	generate/STIM_022.jpg	99
3118.567	1.362	1362.1	generate	Run4	generate/STIM_022.jpg	100
3122.127	1.17	1170.2	generate	Run4	generate/STIM_022.jpg	100
3126.344	1.282	1281.7	generate	Run4	generate/STIM_022.jpg	99
3130.31	1.898	1898.3	generate	Run4	generate/STIM_022.jpg	99
3135.958	0.96	959.6	generate	Run4	generate/STIM_023.jpg	100
3139.997	1.884	1884.2	generate	Run4	generate/STIM_023.jpg	100
3143.956	1.673	1673.1	generate	Run4	generate/STIM_023.jpg	99
3147.728	2.076	2075.7	generate	Run4	generate/STIM_023.jpg	100
3152.973	1.833	1833.2	generate	Run4	generate/STIM_023.jpg	99
3157.038	1.882	1882.4	generate	Run4	generate/STIM_024.jpg	100
3161.816	1.68	1679.6	generate	Run4	generate/STIM_024.jpg	99
3167.266	1.39	1390.0	generate	Run4	generate/STIM_024.jpg	99
3170.646	1.904	1904.1	generate	Run4	generate/STIM_024.jpg	100
3175.534	2.073	2073.0	generate	Run4	generate/STIM_024.jpg	99
3179.797	0.849	849.2	repeat	Run4	repeat/STIM_000.jpg	100
3183.525	0.931	930.6	repeat	Run4	repeat/STIM_000.jpg	99
3187.248	0.709	708.6	repeat	Run4	repeat/STIM_000.jpg	100
3190.765	0.998	998.3	repeat	Run4	repeat/STIM_000.jpg	99
3195.074	0.672	672.0	repeat	Run4	repeat/STIM_000.jpg	100
3197.884	0.831	831.4	repeat	Run4	repeat/STIM_001.jpg	100
3202.275	0.896	896.5	repeat	Run4	repeat/STIM_001.jpg	100
3207.012	0.577	577.0	repeat	Run4	repeat/STIM_001.jpg	100
3211.133	0.586	586.1	repeat	Run4	repeat/STIM_001.jpg	100
3214.35	0.574	574.1	repeat	Run4	repeat/STIM_001.jpg	100
3218.456	0.716	715.5	repeat	Run4	repeat/STIM_002.jpg	100
3222.199	0.875	874.9	repeat	Run4	repeat/STIM_002.jpg	99
3226.717	0.898	898.1	repeat	Run4	repeat/STIM_002.jpg	100
3231.059	0.705	705.0	repeat	Run4	repeat/STIM_002.jpg	100
3233.892	0.884	883.5	repeat	Run4	repeat/STIM_002.jpg	99
3236.825	0.635	635.2	repeat	Run4	repeat/STIM_003.jpg	100
3239.477	1.005	1004.8	repeat	Run4	repeat/STIM_003.jpg	99
3243.216	0.697	697.4	repeat	Run4	repeat/STIM_003.jpg	99
3246.909	0.812	811.7	repeat	Run4	repeat/STIM_003.jpg	99
3250.312	0.528	528.1	repeat	Run4	repeat/STIM_003.jpg	99
3253.48	0.616	616.3	repeat	Run4	repeat/STIM_004.jpg	99
3256.897	0.994	993.8	repeat	Run4	repeat/STIM_004.jpg	99
3260.703	0.535	535.0	repeat	Run4	repeat/STIM_004.jpg	99
3264.716	0.891	890.6	repeat	Run4	repeat/STIM_004.jpg	100
3269.021	0.617	617.0	repeat	Run4	repeat/STIM_004.jpg	99
3273.177	0.854	854.0	repeat	Run4	repeat/STIM_005.jpg	99
3277.934	0.683	683.3	repeat	Run4	repeat/STIM_005.jpg	100
3282.28	0.684	683.6	repeat	Run4	repeat/STIM_005.jpg	100
3285.65	0.966	966.0	repeat	Run4	repeat/STIM_005.jpg	99
3290.06	0.521	520.9	repeat	Run4	repeat/STIM_005.jpg	100
3294.137	0.65	650.5	repeat	Run4	repeat/STIM_006.jpg	100
3298.035	0.907	907.3	repeat	Run4	repeat/STIM_006.jpg	100
3302.659	0.616	616.5	repeat	Run4	repeat/STIM_006.jpg	99
3306.51	0.701	701.4	repeat	Run4	repeat/STIM_006.jpg	100
3310.026	0.665	665.4	repeat	Run4	repeat/STIM_006.jpg	99
3313.536	0.9	899.9	repeat	Run4	repeat/STIM_007.jpg	100
3318.391	0.649	649.2	repeat	Run4	repeat/STIM_007.jpg	99
3322.374	0.797	796.8	repeat	Run4	repeat/STIM_007.jpg	100
3326.745	0.761	760.9	repeat	Run4	repeat/STIM_007.jpg	100
3330.112	0.844	844.2	repeat	Run4	repeat/STIM_007.jpg	99
3334.401	0.784	783.8	repeat	Run4	repeat/STIM_008.jpg	100
3337.512	0.779	779.0	repeat	Run4	repeat/STIM_008.jpg	99
3341.667	0.916	916.0	repeat	Run4	repeat/STIM_008.jpg	100
3344.615	0.893	893.3	repeat	Run4	repeat/STIM_008.jpg	100
3349.303	0.861	861.0	repeat	Run4	repeat/STIM_008.jpg	100
3353.419	0.995	995.0	repeat	Run4	repeat/STIM_009.jpg	100
3356.649	0.546	546.5	repeat	Run4	repeat/STIM_009.jpg	99
3359.772	0.88	879.5	repeat	Run4	repeat/STIM_009.jpg	100
3364.374	0.554	553.7	repeat	Run4	repeat/STIM_009.jpg	99
3367.972	0.809	808.7	repeat	Run4	repeat/STIM_009.jpg	99
3372.164	0.899	898.9	repeat	Run4	repeat/STIM_010.jpg	100
3375.32	0.968	968.3	repeat	Run4	repeat/STIM_010.jpg	99
3379.233	0.914	913.7	repeat	Run4	repeat/STIM_010.jpg	100
3383.23	0.859	858.6	repeat	Run4	repeat/STIM_010.jpg	100
3386.385	0.731	731.2	repeat	Run4	repeat/STIM_010.jpg	100
3389.828	0.666	666.3	repeat	Run4	repeat/STIM_011.jpg	99
3392.589	0.719	718.6	repeat	Run4	repeat/STIM_011.jpg	100
3396.772	0.634	634.1	repeat	Run4	repeat/STIM_011.jpg	100
3400.469	0.813	812.7	repeat	Run4	repeat/STIM_011.jpg	99
3403.918	0.702	701.6	repeat	Run4	repeat/STIM_011.jpg	100
3406.664	1.025	1024.7	repeat	Run4	repeat/STIM_012.jpg	100
3410.863	0.627	627.2	repeat	Run4	repeat/STIM_012.jpg	99
3413.584	0.579	578.7	repeat	Run4	repeat/STIM_012.jpg	99
3417.333	1.032	1031.7	repeat	Run4	repeat/STIM_012.jpg	100
3421.38	0.965	965.1	repeat	Run4	repeat/STIM_012.jpg	99
3425.751	0.956	955.9	repeat	Run4	repeat/STIM_013.jpg	100
3429.649	0.578	577.9	repeat	Run4	repeat/STIM_013.jpg	100
3433.21	0.74	739.8	repeat	Run4	repeat/STIM_013.jpg	99
3437.349	1.012	1011.8	repeat	Run4	repeat/STIM_013.jpg	99
3442.292	0.816	815.9	repeat	Run4	repeat/STIM_013.jpg	99
3445.746	0.766	766.4	repeat	Run4	repeat/STIM_014.jpg	100
3448.724	0.598	597.8	repeat	Run4	repeat/STIM_014.jpg	99
3451.992	0.551	551.1	repeat	Run4	repeat/STIM_014.jpg	99
3456.002	0.738	737.9	repeat	Run4	repeat/STIM_014.jpg	99
3460.521	0.903	902.9	repeat	Run4	repeat/STIM_014.jpg	100
