onset	duration	accuracy_binary	trial_type	learning_stage	stimulus
0.0	3.334	1	generate	Run1	generate/STIM_000.jpg
7.28	2.698	1	generate	Run1	generate/STIM_000.jpg
13.298	2.771	1	generate	Run1	generate/STIM_000.jpg
19.732	2.384	1	generate	Run1	generate/STIM_000.jpg
25.363	1.673	1	generate	Run1	generate/STIM_000.jpg
30.256	1.398	1	generate	Run1	generate/STIM_001.jpg
34.552	2.31	1	generate	Run1	generate/STIM_001.jpg
40.56	2.972	1	generate	Run1	generate/STIM_001.jpg
47.259	1.215	1	generate	Run1	generate/STIM_001.jpg
52.251	2.346	1	generate	Run1	generate/STIM_001.jpg
57.426	1.887	1	generate	Run1	generate/STIM_002.jpg
63.028	3.148	1	generate	Run1	generate/STIM_002.jpg
68.543	2.303	1	generate	Run1	generate/STIM_002.jpg
73.444	2.75	1	generate	Run1	generate/STIM_002.jpg
78.526	1.716	1	generate	Run1	generate/STIM_002.jpg
82.575	3.462	1	generate	Run1	generate/STIM_003.jpg
88.649	2.727	0	generate	Run1	generate/STIM_003.jpg
94.932	2.114	1	generate	Run1	generate/STIM_003.jpg
99.538	1.656	1	generate	Run1	generate/STIM_003.jpg
103.424	1.328	1	generate	Run1	generate/STIM_003.jpg
106.987	1.435	1	generate	Run1	generate/STIM_004.jpg
111.547	2.781	1	generate	Run1	generate/STIM_004.jpg
116.805	2.216	1	generate	Run1	generate/STIM_004.jpg
121.502	1.205	1	generate	Run1	generate/STIM_004.jpg
125.326	2.012	1	generate	Run1	generate/STIM_004.jpg
130.128	2.394	1	generate	Run1	generate/STIM_005.jpg
135.866	1.889	1	generate	Run1	generate/STIM_005.jpg
140.344	1.982	0	generate	Run1	generate/STIM_005.jpg
146.083	2.081	1	generate	Run1	generate/STIM_005.jpg
150.59	1.558	0	generate	Run1	generate/STIM_005.jpg
155.944	2.051	1	generate	Run1	generate/STIM_006.jpg
160.923	3.194	1	generate	Run1	generate/STIM_006.jpg
167.592	1.828	1	generate	Run1	generate/STIM_006.jpg
172.3	1.54	1	generate	Run1	generate/STIM_006.jpg
177.656	1.227	1	generate	Run1	generate/STIM_006.jpg
181.297	2.782	1	generate	Run1	generate/STIM_007.jpg
187.651	2.431	1	generate	Run1	generate/STIM_007.jpg
193.643	2.202	0	generate	Run1	generate/STIM_007.jpg
198.096	1.831	1	generate	Run1	generate/STIM_007.jpg
202.673	2.186	0	generate	Run1	generate/STIM_007.jpg
208.477	2.305	1	generate	Run1	generate/STIM_008.jpg
214.544	1.575	0	generate	Run1	generate/STIM_008.jpg
219.946	2.128	0	generate	Run1	generate/STIM_008.jpg
224.771	1.43	1	generate	Run1	generate/STIM_008.jpg
230.068	1.235	1	generate	Run1	generate/STIM_008.jpg
234.38	2.768	1	generate	Run1	generate/STIM_009.jpg
239.424	1.848	1	generate	Run1	generate/STIM_009.jpg
243.777	2.703	1	generate	Run1	generate/STIM_009.jpg
249.529	1.856	1	generate	Run1	generate/STIM_009.jpg
254.749	1.757	1	generate	Run1	generate/STIM_009.jpg
258.687	2.991	0	generate	Run1	generate/STIM_010.jpg
264.312	2.296	0	generate	Run1	generate/STIM_010.jpg
269.536	2.766	1	generate	Run1	generate/STIM_010.jpg
274.669	1.73	1	generate	Run1	generate/STIM_010.jpg
278.725	2.668	1	generate	Run1	generate/STIM_010.jpg
283.479	2.727	1	generate	Run1	generate/STIM_011.jpg
288.222	2.454	1	generate	Run1	generate/STIM_011.jpg
293.03	1.576	1	generate	Run1	generate/STIM_011.jpg
297.533	1.504	1	generate	Run1	generate/STIM_011.jpg
301.083	1.303	0	generate	Run1	generate/STIM_011.jpg
306.203	2.953	1	generate	Run1	generate/STIM_012.jpg
311.986	2.001	1	generate	Run1	generate/STIM_012.jpg
317.791	2.963	1	generate	Run1	generate/STIM_012.jpg
323.303	1.624	1	generate	Run1	generate/STIM_012.jpg
328.742	2.535	1	generate	Run1	generate/STIM_012.jpg
334.797	1.897	1	generate	Run1	generate/STIM_013.jpg
340.179	2.129	1	generate	Run1	generate/STIM_013.jpg
345.226	2.299	0	generate	Run1	generate/STIM_013.jpg
351.214	2.697	1	generate	Run1	generate/STIM_013.jpg
357.163	1.58	0	generate	Run1	generate/STIM_013.jpg
360.925	3.398	1	generate	Run1	generate/STIM_014.jpg
366.414	2.398	1	generate	Run1	generate/STIM_014.jpg
372.376	1.6	1	generate	Run1	generate/STIM_014.jpg
376.183	1.22	1	generate	Run1	generate/STIM_014.jpg
380.859	1.745	1	generate	Run1	generate/STIM_014.jpg
385.101	3.0	0	generate	Run1	generate/STIM_015.jpg
391.391	1.654	1	generate	Run1	generate/STIM_015.jpg
396.38	1.291	1	generate	Run1	generate/STIM_015.jpg
400.006	1.769	1	generate	Run1	generate/STIM_015.jpg
404.553	2.483	1	generate	Run1	generate/STIM_015.jpg
410.243	2.294	1	generate	Run1	generate/STIM_016.jpg
415.138	1.894	1	generate	Run1	generate/STIM_016.jpg
420.914	2.92	1	generate	Run1	generate/STIM_016.jpg
427.01	2.055	1	generate	Run1	generate/STIM_016.jpg
431.297	2.366	1	generate	Run1	generate/STIM_016.jpg
436.279	2.097	1	generate	Run1	generate/STIM_017.jpg
441.089	2.62	1	generate	Run1	generate/STIM_017.jpg
446.866	1.861	1	generate	Run1	generate/STIM_017.jpg
451.862	2.6	0	generate	Run1	generate/STIM_017.jpg
457.736	2.66	1	generate	Run1	generate/STIM_017.jpg
463.581	1.532	1	generate	Run1	generate/STIM_018.jpg
468.001	1.987	1	generate	Run1	generate/STIM_018.jpg
472.161	2.106	1	generate	Run1	generate/STIM_018.jpg
478.135	2.128	1	generate	Run1	generate/STIM_018.jpg
482.423	2.442	1	generate	Run1	generate/STIM_018.jpg
487.988	1.83	1	generate	Run1	generate/STIM_019.jpg
493.421	2.436	0	generate	Run1	generate/STIM_019.jpg
499.53	1.522	1	generate	Run1	generate/STIM_019.jpg
503.127	1.623	1	generate	Run1	generate/STIM_019.jpg
508.409	1.544	1	generate	Run1	generate/STIM_019.jpg
513.26	1.494	1	generate	Run1	generate/STIM_020.jpg
518.081	3.116	0	generate	Run1	generate/STIM_020.jpg
524.785	2.235	0	generate	Run1	generate/STIM_020.jpg
530.425	1.864	0	generate	Run1	generate/STIM_020.jpg
535.839	1.844	1	generate	Run1	generate/STIM_020.jpg
539.706	2.421	1	generate	Run1	generate/STIM_021.jpg
545.363	2.507	1	generate	Run1	generate/STIM_021.jpg
550.091	2.943	1	generate	Run1	generate/STIM_021.jpg
555.959	2.551	1	generate	Run1	generate/STIM_021.jpg
562.005	2.643	1	generate	Run1	generate/STIM_021.jpg
566.782	2.789	1	generate	Run1	generate/STIM_022.jpg
571.634	2.184	1	generate	Run1	generate/STIM_022.jpg
576.243	1.993	1	generate	Run1	generate/STIM_022.jpg
580.242	1.723	1	generate	Run1	generate/STIM_022.jpg
585.081	1.655	0	generate	Run1	generate/STIM_022.jpg
589.201	2.454	1	generate	Run1	generate/STIM_023.jpg
594.663	1.392	1	generate	Run1	generate/STIM_023.jpg
599.594	1.287	1	generate	Run1	generate/STIM_023.jpg
603.419	2.588	1	generate	Run1	generate/STIM_023.jpg
608.506	1.839	1	generate	Run1	generate/STIM_023.jpg
612.377	1.922	1	generate	Run1	generate/STIM_024.jpg
618.18	2.477	1	generate	Run1	generate/STIM_024.jpg
624.509	2.309	1	generate	Run1	generate/STIM_024.jpg
629.499	1.551	1	generate	Run1	generate/STIM_024.jpg
633.109	2.468	1	generate	Run1	generate/STIM_024.jpg
639.008	0.646	1	repeat	Run1	repeat/STIM_000.jpg
643.643	0.928	1	repeat	Run1	repeat/STIM_000.jpg
646.752	1.032	1	repeat	Run1	repeat/STIM_000.jpg
650.152	0.636	1	repeat	Run1	repeat/STIM_000.jpg
654.781	0.849	1	repeat	Run1	repeat/STIM_000.jpg
659.505	0.624	1	repeat	Run1	repeat/STIM_001.jpg
663.138	0.898	1	repeat	Run1	repeat/STIM_001.jpg
666.571	1.139	1	repeat	Run1	repeat/STIM_001.jpg
671.463	1.033	1	repeat	Run1	repeat/STIM_001.jpg
676.451	1.129	1	repeat	Run1	repeat/STIM_001.jpg
681.315	0.902	1	repeat	Run1	repeat/STIM_002.jpg
685.625	1.087	1	repeat	Run1	repeat/STIM_002.jpg
689.012	0.706	1	repeat	Run1	repeat/STIM_002.jpg
692.05	1.01	1	repeat	Run1	repeat/STIM_002.jpg
695.284	0.581	1	repeat	Run1	repeat/STIM_002.jpg
699.516	1.098	1	repeat	Run1	repeat/STIM_003.jpg
702.683	0.976	1	repeat	Run1	repeat/STIM_003.jpg
705.795	1.099	1	repeat	Run1	repeat/STIM_003.jpg
710.564	0.794	1	repeat	Run1	repeat/STIM_003.jpg
715.009	0.958	1	repeat	Run1	repeat/STIM_003.jpg
718.531	1.012	1	repeat	Run1	repeat/STIM_004.jpg
722.407	0.857	1	repeat	Run1	repeat/STIM_004.jpg
725.732	1.139	1	repeat	Run1	repeat/STIM_004.jpg
730.087	0.797	1	repeat	Run1	repeat/STIM_004.jpg
734.293	0.932	1	repeat	Run1	repeat/STIM_004.jpg
738.426	0.588	1	repeat	Run1	repeat/STIM_005.jpg
741.189	0.996	1	repeat	Run1	repeat/STIM_005.jpg
745.301	0.641	1	repeat	Run1	repeat/STIM_005.jpg
748.598	0.96	1	repeat	Run1	repeat/STIM_005.jpg
752.016	0.723	1	repeat	Run1	repeat/STIM_005.jpg
755.778	0.617	1	repeat	Run1	repeat/STIM_006.jpg
760.237	0.834	1	repeat	Run1	repeat/STIM_006.jpg
764.524	0.741	1	repeat	Run1	repeat/STIM_006.jpg
767.614	0.75	1	repeat	Run1	repeat/STIM_006.jpg
771.521	1.041	1	repeat	Run1	repeat/STIM_006.jpg
775.321	0.769	1	repeat	Run1	repeat/STIM_007.jpg
778.942	0.607	1	repeat	Run1	repeat/STIM_007.jpg
781.648	1.012	1	repeat	Run1	repeat/STIM_007.jpg
784.746	1.064	1	repeat	Run1	repeat/STIM_007.jpg
789.69	1.088	1	repeat	Run1	repeat/STIM_007.jpg
793.169	0.811	1	repeat	Run1	repeat/STIM_008.jpg
797.182	0.77	1	repeat	Run1	repeat/STIM_008.jpg
799.982	0.646	1	repeat	Run1	repeat/STIM_008.jpg
803.917	1.109	1	repeat	Run1	repeat/STIM_008.jpg
807.886	1.004	1	repeat	Run1	repeat/STIM_008.jpg
811.873	0.656	0	repeat	Run1	repeat/STIM_009.jpg
815.818	1.058	1	repeat	Run1	repeat/STIM_009.jpg
820.271	1.007	1	repeat	Run1	repeat/STIM_009.jpg
824.572	0.664	1	repeat	Run1	repeat/STIM_009.jpg
827.467	0.935	1	repeat	Run1	repeat/STIM_009.jpg
831.159	0.799	1	repeat	Run1	repeat/STIM_010.jpg
835.229	0.908	1	repeat	Run1	repeat/STIM_010.jpg
839.774	0.7	1	repeat	Run1	repeat/STIM_010.jpg
844.386	1.147	0	repeat	Run1	repeat/STIM_010.jpg
848.019	0.742	1	repeat	Run1	repeat/STIM_010.jpg
852.08	0.639	1	repeat	Run1	repeat/STIM_011.jpg
855.207	0.993	1	repeat	Run1	repeat/STIM_011.jpg
859.759	0.784	1	repeat	Run1	repeat/STIM_011.jpg
863.748	1.054	1	repeat	Run1	repeat/STIM_011.jpg
868.238	0.646	1	repeat	Run1	repeat/STIM_011.jpg
872.38	0.938	1	repeat	Run1	repeat/STIM_012.jpg
877.067	0.96	1	repeat	Run1	repeat/STIM_012.jpg
881.32	0.99	1	repeat	Run1	repeat/STIM_012.jpg
884.389	0.713	1	repeat	Run1	repeat/STIM_012.jpg
887.916	0.645	1	repeat	Run1	repeat/STIM_012.jpg
891.52	1.055	1	repeat	Run1	repeat/STIM_013.jpg
894.854	0.986	1	repeat	Run1	repeat/STIM_013.jpg
899.459	0.987	1	repeat	Run1	repeat/STIM_013.jpg
903.507	0.65	1	repeat	Run1	repeat/STIM_013.jpg
906.973	0.798	1	repeat	Run1	repeat/STIM_013.jpg
909.975	0.876	1	repeat	Run1	repeat/STIM_014.jpg
914.365	0.794	1	repeat	Run1	repeat/STIM_014.jpg
918.305	1.117	1	repeat	Run1	repeat/STIM_014.jpg
923.294	0.808	0	repeat	Run1	repeat/STIM_014.jpg
926.593	0.722	1	repeat	Run1	repeat/STIM_014.jpg
929.77	2.464	0	generate	Run2	generate/STIM_000.jpg
936.07	2.285	1	generate	Run2	generate/STIM_000.jpg
941.58	1.572	1	generate	Run2	generate/STIM_000.jpg
946.54	1.247	1	generate	Run2	generate/STIM_000.jpg
949.999	1.69	1	generate	Run2	generate/STIM_000.jpg
954.362	2.752	1	generate	Run2	generate/STIM_001.jpg
960.928	1.66	0	generate	Run2	generate/STIM_001.jpg
965.823	1.445	1	generate	Run2	generate/STIM_001.jpg
969.774	1.653	1	generate	Run2	generate/STIM_001.jpg
973.734	2.268	1	generate	Run2	generate/STIM_001.jpg
978.602	2.88	1	generate	Run2	generate/STIM_002.jpg
984.191	1.284	1	generate	Run2	generate/STIM_002.jpg
989.12	1.976	0	generate	Run2	generate/STIM_002.jpg
994.101	1.251	1	generate	Run2	generate/STIM_002.jpg
998.85	2.389	1	generate	Run2	generate/STIM_002.jpg
1003.7	1.251	1	generate	Run2	generate/STIM_003.jpg
1008.412	2.098	1	generate	Run2	generate/STIM_003.jpg
1012.907	1.258	1	generate	Run2	generate/STIM_003.jpg
1017.708	1.374	1	generate	Run2	generate/STIM_003.jpg
1021.182	1.598	1	generate	Run2	generate/STIM_003.jpg
1025.98	2.304	1	generate	Run2	generate/STIM_004.jpg
1030.81	2.332	1	generate	Run2	generate/STIM_004.jpg
1037.105	2.108	1	generate	Run2	generate/STIM_004.jpg
1042.731	1.029	1	generate	Run2	generate/STIM_004.jpg
1045.793	1.384	1	generate	Run2	generate/STIM_004.jpg
1051.172	2.613	1	generate	Run2	generate/STIM_005.jpg
1057.617	1.658	1	generate	Run2	generate/STIM_005.jpg
1062.732	1.131	1	generate	Run2	generate/STIM_005.jpg
1066.968	1.825	1	generate	Run2	generate/STIM_005.jpg
1072.542	1.413	1	generate	Run2	generate/STIM_005.jpg
1077.192	2.462	1	generate	Run2	generate/STIM_006.jpg
1083.485	2.711	1	generate	Run2	generate/STIM_006.jpg
1090.103	1.746	1	generate	Run2	generate/STIM_006.jpg
1094.426	1.966	1	generate	Run2	generate/STIM_006.jpg
1099.811	1.0	1	generate	Run2	generate/STIM_006.jpg
1104.442	2.119	1	generate	Run2	generate/STIM_007.jpg
1110.0	2.627	1	generate	Run2	generate/STIM_007.jpg
1116.196	1.108	1	generate	Run2	generate/STIM_007.jpg
1119.963	1.613	1	generate	Run2	generate/STIM_007.jpg
1125.469	2.109	1	generate	Run2	generate/STIM_007.jpg
1131.235	1.188	0	generate	Run2	generate/STIM_008.jpg
1134.97	1.566	1	generate	Run2	generate/STIM_008.jpg
1140.114	2.263	1	generate	Run2	generate/STIM_008.jpg
1145.133	1.413	1	generate	Run2	generate/STIM_008.jpg
1149.009	2.238	0	generate	Run2	generate/STIM_008.jpg
1153.432	2.242	1	generate	Run2	generate/STIM_009.jpg
1158.423	2.756	0	generate	Run2	generate/STIM_009.jpg
1163.23	1.386	1	generate	Run2	generate/STIM_009.jpg
1166.794	2.2	1	generate	Run2	generate/STIM_009.jpg
1171.142	1.607	1	generate	Run2	generate/STIM_009.jpg
1175.01	2.577	1	generate	Run2	generate/STIM_010.jpg
1179.808	1.454	0	generate	Run2	generate/STIM_010.jpg
1185.071	1.855	1	generate	Run2	generate/STIM_010.jpg
1190.347	1.586	0	generate	Run2	generate/STIM_010.jpg
1194.316	1.951	1	generate	Run2	generate/STIM_010.jpg
1198.637	1.327	0	generate	Run2	generate/STIM_011.jpg
1203.172	1.194	1	generate	Run2	generate/STIM_011.jpg
1206.384	2.25	1	generate	Run2	generate/STIM_011.jpg
1211.143	2.189	1	generate	Run2	generate/STIM_011.jpg
1216.771	2.046	1	generate	Run2	generate/STIM_011.jpg
1222.585	1.911	1	generate	Run2	generate/STIM_012.jpg
1227.307	1.29	1	generate	Run2	generate/STIM_012.jpg
1230.77	1.413	0	generate	Run2	generate/STIM_012.jpg
1235.14	0.995	1	generate	Run2	generate/STIM_012.jpg
1238.858	1.008	1	generate	Run2	generate/STIM_012.jpg
1243.32	2.872	0	generate	Run2	generate/STIM_013.jpg
1249.619	2.484	0	generate	Run2	generate/STIM_013.jpg
1255.658	2.381	1	generate	Run2	generate/STIM_013.jpg
1261.138	2.212	1	generate	Run2	generate/STIM_013.jpg
1267.009	2.023	1	generate	Run2	generate/STIM_013.jpg
1272.197	1.826	1	generate	Run2	generate/STIM_014.jpg
1277.708	2.558	1	generate	Run2	generate/STIM_014.jpg
1282.766	2.518	1	generate	Run2	generate/STIM_014.jpg
1288.763	1.115	1	generate	Run2	generate/STIM_014.jpg
1293.292	1.788	0	generate	Run2	generate/STIM_014.jpg
1298.96	2.382	1	generate	Run2	generate/STIM_015.jpg
1303.62	1.396	1	generate	Run2	generate/STIM_015.jpg
1307.252	1.264	1	generate	Run2	generate/STIM_015.jpg
1311.641	1.334	1	generate	Run2	generate/STIM_015.jpg
1315.591	2.2	1	generate	Run2	generate/STIM_015.jpg
1320.693	2.304	1	generate	Run2	generate/STIM_016.jpg
1325.343	1.14	1	generate	Run2	generate/STIM_016.jpg
1330.245	1.963	0	generate	Run2	generate/STIM_016.jpg
1335.057	1.456	1	generate	Run2	generate/STIM_016.jpg
1340.271	1.346	1	generate	Run2	generate/STIM_016.jpg
1343.999	2.623	1	generate	Run2	generate/STIM_017.jpg
1348.838	2.659	1	generate	Run2	generate/STIM_017.jpg
1353.988	1.553	1	generate	Run2	generate/STIM_017.jpg
1358.34	1.885	1	generate	Run2	generate/STIM_017.jpg
1364.185	2.008	1	generate	Run2	generate/STIM_017.jpg
1368.253	1.895	1	generate	Run2	generate/STIM_018.jpg
1373.159	1.391	0	generate	Run2	generate/STIM_018.jpg
1378.412	1.311	1	generate	Run2	generate/STIM_018.jpg
1381.998	1.832	1	generate	Run2	generate/STIM_018.jpg
1387.622	1.058	1	generate	Run2	generate/STIM_018.jpg
1392.243	2.442	1	generate	Run2	generate/STIM_019.jpg
1397.234	2.113	1	generate	Run2	generate/STIM_019.jpg
1402.983	1.062	1	generate	Run2	generate/STIM_019.jpg
1406.355	1.938	1	generate	Run2	generate/STIM_019.jpg
1410.947	1.553	1	generate	Run2	generate/STIM_019.jpg
1415.071	2.412	1	generate	Run2	generate/STIM_020.jpg
1420.004	2.368	1	generate	Run2	generate/STIM_020.jpg
1425.586	1.416	1	generate	Run2	generate/STIM_020.jpg
1429.332	2.24	1	generate	Run2	generate/STIM_020.jpg
1434.345	2.37	1	generate	Run2	generate/STIM_020.jpg
1440.217	2.363	0	generate	Run2	generate/STIM_021.jpg
1444.921	1.811	0	generate	Run2	generate/STIM_021.jpg
1450.1	2.29	1	generate	Run2	generate/STIM_021.jpg
1455.76	2.36	1	generate	Run2	generate/STIM_021.jpg
1461.635	1.838	1	generate	Run2	generate/STIM_021.jpg
1466.879	2.018	1	generate	Run2	generate/STIM_022.jpg
1472.747	1.202	1	generate	Run2	generate/STIM_022.jpg
1476.531	2.277	1	generate	Run2	generate/STIM_022.jpg
1482.185	1.052	1	generate	Run2	generate/STIM_022.jpg
1486.597	2.286	1	generate	Run2	generate/STIM_022.jpg
1491.634	1.688	1	generate	Run2	generate/STIM_023.jpg
1496.549	2.075	1	generate	Run2	generate/STIM_023.jpg
1502.234	2.067	1	generate	Run2	generate/STIM_023.jpg
1506.367	1.001	1	generate	Run2	generate/STIM_023.jpg
1510.401	2.031	1	generate	Run2	generate/STIM_023.jpg
1514.797	1.98	1	generate	Run2	generate/STIM_024.jpg
1519.136	2.146	1	generate	Run2	generate/STIM_024.jpg
1525.171	1.637	0	generate	Run2	generate/STIM_024.jpg
1530.048	1.518	1	generate	Run2	generate/STIM_024.jpg
1535.51	1.682	1	generate	Run2	generate/STIM_024.jpg
1541.09	0.972	1	repeat	Run2	repeat/STIM_000.jpg
1544.287	0.701	0	repeat	Run2	repeat/STIM_000.jpg
1547.28	0.981	1	repeat	Run2	repeat/STIM_000.jpg
1552.069	0.905	1	repeat	Run2	repeat/STIM_000.jpg
1555.721	1.023	1	repeat	Run2	repeat/STIM_000.jpg
1560.016	1.052	1	repeat	Run2	repeat/STIM_001.jpg
1563.158	1.1	1	repeat	Run2	repeat/STIM_001.jpg
1566.365	0.834	1	repeat	Run2	repeat/STIM_001.jpg
1571.16	0.922	1	repeat	Run2	repeat/STIM_001.jpg
1574.583	0.987	1	repeat	Run2	repeat/STIM_001.jpg
1578.713	0.656	1	repeat	Run2	repeat/STIM_002.jpg
1581.845	1.071	1	repeat	Run2	repeat/STIM_002.jpg
1586.011	0.622	1	repeat	Run2	repeat/STIM_002.jpg
1589.495	0.92	1	repeat	Run2	repeat/STIM_002.jpg
1593.404	0.608	1	repeat	Run2	repeat/STIM_002.jpg
1597.433	0.634	1	repeat	Run2	repeat/STIM_003.jpg
1600.072	0.922	0	repeat	Run2	repeat/STIM_003.jpg
1604.722	0.833	1	repeat	Run2	repeat/STIM_003.jpg
1609.141	0.658	1	repeat	Run2	repeat/STIM_003.jpg
1612.668	0.643	1	repeat	Run2	repeat/STIM_003.jpg
1616.715	1.11	1	repeat	Run2	repeat/STIM_004.jpg
1620.654	0.972	1	repeat	Run2	repeat/STIM_004.jpg
1625.484	0.599	1	repeat	Run2	repeat/STIM_004.jpg
1628.635	0.904	1	repeat	Run2	repeat/STIM_004.jpg
1631.867	1.138	1	repeat	Run2	repeat/STIM_004.jpg
1636.255	0.956	1	repeat	Run2	repeat/STIM_005.jpg
1641.14	0.839	1	repeat	Run2	repeat/STIM_005.jpg
1645.072	0.931	1	repeat	Run2	repeat/STIM_005.jpg
1648.078	0.629	1	repeat	Run2	repeat/STIM_005.jpg
1651.632	0.84	1	repeat	Run2	repeat/STIM_005.jpg
1656.448	1.12	1	repeat	Run2	repeat/STIM_006.jpg
1660.572	1.015	0	repeat	Run2	repeat/STIM_006.jpg
1665.22	0.817	1	repeat	Run2	repeat/STIM_006.jpg
1668.048	0.73	1	repeat	Run2	repeat/STIM_006.jpg
1672.493	0.979	1	repeat	Run2	repeat/STIM_006.jpg
1676.26	0.863	1	repeat	Run2	repeat/STIM_007.jpg
1680.356	0.708	1	repeat	Run2	repeat/STIM_007.jpg
1683.896	0.759	1	repeat	Run2	repeat/STIM_007.jpg
1686.818	0.705	1	repeat	Run2	repeat/STIM_007.jpg
1690.876	0.985	1	repeat	Run2	repeat/STIM_007.jpg
1694.525	0.96	1	repeat	Run2	repeat/STIM_008.jpg
1698.969	0.992	1	repeat	Run2	repeat/STIM_008.jpg
1702.371	0.956	1	repeat	Run2	repeat/STIM_008.jpg
1705.362	0.733	1	repeat	Run2	repeat/STIM_008.jpg
1708.63	0.889	1	repeat	Run2	repeat/STIM_008.jpg
1713.502	0.857	1	repeat	Run2	repeat/STIM_009.jpg
1717.341	0.623	1	repeat	Run2	repeat/STIM_009.jpg
1720.345	1.059	1	repeat	Run2	repeat/STIM_009.jpg
1723.588	0.796	1	repeat	Run2	repeat/STIM_009.jpg
1728.29	1.076	1	repeat	Run2	repeat/STIM_009.jpg
1731.756	0.82	0	repeat	Run2	repeat/STIM_010.jpg
1736.003	0.868	1	repeat	Run2	repeat/STIM_010.jpg
1740.044	0.824	1	repeat	Run2	repeat/STIM_010.jpg
1744.254	0.732	1	repeat	Run2	repeat/STIM_010.jpg
1747.568	0.691	0	repeat	Run2	repeat/STIM_010.jpg
1751.77	0.873	1	repeat	Run2	repeat/STIM_011.jpg
1756.611	0.673	1	repeat	Run2	repeat/STIM_011.jpg
1760.048	0.653	1	repeat	Run2	repeat/STIM_011.jpg
1763.773	1.06	1	repeat	Run2	repeat/STIM_011.jpg
1768.026	0.95	1	repeat	Run2	repeat/STIM_011.jpg
1771.103	1.035	1	repeat	Run2	repeat/STIM_012.jpg
1774.519	0.586	1	repeat	Run2	repeat/STIM_012.jpg
1778.656	1.098	1	repeat	Run2	repeat/STIM_012.jpg
1781.786	0.773	1	repeat	Run2	repeat/STIM_012.jpg
1784.655	1.081	1	repeat	Run2	repeat/STIM_012.jpg
1788.303	0.951	1	repeat	Run2	repeat/STIM_013.jpg
1791.474	0.895	1	repeat	Run2	repeat/STIM_013.jpg
1795.811	0.828	1	repeat	Run2	repeat/STIM_013.jpg
1799.724	1.082	1	repeat	Run2	repeat/STIM_013.jpg
1803.72	0.806	1	repeat	Run2	repeat/STIM_013.jpg
1808.513	0.761	1	repeat	Run2	repeat/STIM_014.jpg
1812.825	0.971	1	repeat	Run2	repeat/STIM_014.jpg
1816.078	0.951	1	repeat	Run2	repeat/STIM_014.jpg
1819.116	0.619	1	repeat	Run2	repeat/STIM_014.jpg
1821.835	0.594	1	repeat	Run2	repeat/STIM_014.jpg
1825.778	1.126	1	generate	Run3	generate/STIM_000.jpg
1830.824	2.339	1	generate	Run3	generate/STIM_000.jpg
1835.222	2.005	0	generate	Run3	generate/STIM_000.jpg
1840.066	2.094	1	generate	Run3	generate/STIM_000.jpg
1844.964	1.106	1	generate	Run3	generate/STIM_000.jpg
1849.903	1.33	1	generate	Run3	generate/STIM_001.jpg
1854.157	2.265	1	generate	Run3	generate/STIM_001.jpg
1858.591	1.052	1	generate	Run3	generate/STIM_001.jpg
1863.246	1.477	1	generate	Run3	generate/STIM_001.jpg
1868.144	1.886	1	generate	Run3	generate/STIM_001.jpg
1873.102	1.942	1	generate	Run3	generate/STIM_002.jpg
1877.483	2.173	1	generate	Run3	generate/STIM_002.jpg
1883.507	1.086	1	generate	Run3	generate/STIM_002.jpg
1887.839	1.684	1	generate	Run3	generate/STIM_002.jpg
1893.302	1.369	1	generate	Run3	generate/STIM_002.jpg
1898.102	1.02	1	generate	Run3	generate/STIM_003.jpg
1902.826	1.373	1	generate	Run3	generate/STIM_003.jpg
1906.963	2.04	1	generate	Run3	generate/STIM_003.jpg
1911.858	1.823	1	generate	Run3	generate/STIM_003.jpg
1915.874	1.264	1	generate	Run3	generate/STIM_003.jpg
1920.511	1.729	1	generate	Run3	generate/STIM_004.jpg
1924.748	1.225	1	generate	Run3	generate/STIM_004.jpg
1929.79	1.822	1	generate	Run3	generate/STIM_004.jpg
1934.542	1.202	1	generate	Run3	generate/STIM_004.jpg
1938.426	2.046	1	generate	Run3	generate/STIM_004.jpg
1944.24	2.14	0	generate	Run3	generate/STIM_005.jpg
1950.039	1.575	1	generate	Run3	generate/STIM_005.jpg
1955.289	1.619	1	generate	Run3	generate/STIM_005.jpg
1960.452	1.653	1	generate	Run3	generate/STIM_005.jpg
1964.192	1.096	1	generate	Run3	generate/STIM_005.jpg
1967.613	1.414	0	generate	Run3	generate/STIM_006.jpg
1972.308	1.842	1	generate	Run3	generate/STIM_006.jpg
1978.005	1.965	1	generate	Run3	generate/STIM_006.jpg
1982.747	2.096	1	generate	Run3	generate/STIM_006.jpg
1987.826	1.013	1	generate	Run3	generate/STIM_006.jpg
1991.215	2.101	1	generate	Run3	generate/STIM_007.jpg
1996.417	1.272	1	generate	Run3	generate/STIM_007.jpg
2000.558	1.536	1	generate	Run3	generate/STIM_007.jpg
2004.708	1.799	1	generate	Run3	generate/STIM_007.jpg
2010.379	1.156	1	generate	Run3	generate/STIM_007.jpg
2014.484	1.808	1	generate	Run3	generate/STIM_008.jpg
2019.405	1.065	1	generate	Run3	generate/STIM_008.jpg
2023.703	1.911	1	generate	Run3	generate/STIM_008.jpg
2028.588	1.075	1	generate	Run3	generate/STIM_008.jpg
2032.52	1.421	0	generate	Run3	generate/STIM_008.jpg
2037.381	2.285	0	generate	Run3	generate/STIM_009.jpg
2043.66	1.2	1	generate	Run3	generate/STIM_009.jpg
2048.328	1.499	1	generate	Run3	generate/STIM_009.jpg
2052.558	1.125	1	generate	Run3	generate/STIM_009.jpg
2055.889	1.592	1	generate	Run3	generate/STIM_009.jpg
2061.077	2.297	1	generate	Run3	generate/STIM_010.jpg
2065.658	1.648	1	generate	Run3	generate/STIM_010.jpg
2070.353	2.003	1	generate	Run3	generate/STIM_010.jpg
2075.645	1.644	1	generate	Run3	generate/STIM_010.jpg
2079.398	1.415	1	generate	Run3	generate/STIM_010.jpg
2082.899	1.92	1	generate	Run3	generate/STIM_011.jpg
2088.495	1.096	0	generate	Run3	generate/STIM_011.jpg
2092.957	2.125	1	generate	Run3	generate/STIM_011.jpg
2098.718	1.486	1	generate	Run3	generate/STIM_011.jpg
2103.567	1.919	1	generate	Run3	generate/STIM_011.jpg
2107.488	1.599	1	generate	Run3	generate/STIM_012.jpg
2111.4	1.429	1	generate	Run3	generate/STIM_012.jpg
2115.572	1.608	1	generate	Run3	generate/STIM_012.jpg
2121.116	1.95	1	generate	Run3	generate/STIM_012.jpg
2126.926	2.394	1	generate	Run3	generate/STIM_012.jpg
2132.016	2.039	1	generate	Run3	generate/STIM_013.jpg
2136.955	1.147	0	generate	Run3	generate/STIM_013.jpg
2141.999	2.177	0	generate	Run3	generate/STIM_013.jpg
2148.165	1.438	0	generate	Run3	generate/STIM_013.jpg
2152.715	2.011	1	generate	Run3	generate/STIM_013.jpg
2158.141	2.316	0	generate	Run3	generate/STIM_014.jpg
2163.285	1.688	1	generate	Run3	generate/STIM_014.jpg
2168.054	2.304	1	generate	Run3	generate/STIM_014.jpg
2173.097	1.535	1	generate	Run3	generate/STIM_014.jpg
2178.485	1.398	1	generate	Run3	generate/STIM_014.jpg
2183.675	2.094	1	generate	Run3	generate/STIM_015.jpg
2189.019	1.507	1	generate	Run3	generate/STIM_015.jpg
2193.897	2.238	1	generate	Run3	generate/STIM_015.jpg
2198.214	0.977	1	generate	Run3	generate/STIM_015.jpg
2201.3	1.8	1	generate	Run3	generate/STIM_015.jpg
2206.993	1.553	1	generate	Run3	generate/STIM_016.jpg
2211.88	1.57	1	generate	Run3	generate/STIM_016.jpg
2217.24	2.112	1	generate	Run3	generate/STIM_016.jpg
2222.853	2.38	1	generate	Run3	generate/STIM_016.jpg
2227.543	1.233	1	generate	Run3	generate/STIM_016.jpg
2231.595	1.708	0	generate	Run3	generate/STIM_017.jpg
2235.831	2.323	1	generate	Run3	generate/STIM_017.jpg
2241.767	2.376	1	generate	Run3	generate/STIM_017.jpg
2247.179	1.947	1	generate	Run3	generate/STIM_017.jpg
2251.475	1.711	0	generate	Run3	generate/STIM_017.jpg
2256.074	1.016	1	generate	Run3	generate/STIM_018.jpg
2260.858	1.4	1	generate	Run3	generate/STIM_018.jpg
2264.955	2.138	1	generate	Run3	generate/STIM_018.jpg
2270.467	2.397	1	generate	Run3	generate/STIM_018.jpg
2276.608	1.745	1	generate	Run3	generate/STIM_018.jpg
2282.174	1.474	1	generate	Run3	generate/STIM_019.jpg
2286.17	1.095	1	generate	Run3	generate/STIM_019.jpg
2289.938	1.223	1	generate	Run3	generate/STIM_019.jpg
2294.192	1.593	1	generate	Run3	generate/STIM_019.jpg
2297.901	1.485	1	generate	Run3	generate/STIM_019.jpg
2301.414	1.964	1	generate	Run3	generate/STIM_020.jpg
2306.617	1.57	1	generate	Run3	generate/STIM_020.jpg
2312.077	1.968	1	generate	Run3	generate/STIM_020.jpg
2316.245	1.001	1	generate	Run3	generate/STIM_020.jpg
2320.483	0.977	1	generate	Run3	generate/STIM_020.jpg
2323.487	2.149	1	generate	Run3	generate/STIM_021.jpg
2327.922	1.817	1	generate	Run3	generate/STIM_021.jpg
2333.503	2.189	1	generate	Run3	generate/STIM_021.jpg
2339.271	2.277	1	generate	Run3	generate/STIM_021.jpg
2343.611	1.063	0	generate	Run3	generate/STIM_021.jpg
2347.559	1.319	1	generate	Run3	generate/STIM_022.jpg
2352.407	1.197	1	generate	Run3	generate/STIM_022.jpg
2357.017	1.163	1	generate	Run3	generate/STIM_022.jpg
2361.355	0.972	1	generate	Run3	generate/STIM_022.jpg
2365.906	2.418	1	generate	Run3	generate/STIM_022.jpg
2370.508	1.544	1	generate	Run3	generate/STIM_023.jpg
2375.642	2.168	1	generate	Run3	generate/STIM_023.jpg
2379.921	1.648	1	generate	Run3	generate/STIM_023.jpg
2384.6	2.356	1	generate	Run3	generate/STIM_023.jpg
2390.644	1.6	1	generate	Run3	generate/STIM_023.jpg
2395.514	1.827	1	generate	Run3	generate/STIM_024.jpg
2400.968	2.126	1	generate	Run3	generate/STIM_024.jpg
2407.015	2.026	1	generate	Run3	generate/STIM_024.jpg
2412.859	1.719	1	generate	Run3	generate/STIM_024.jpg
2417.608	1.027	1	generate	Run3	generate/STIM_024.jpg
2421.381	0.666	1	repeat	Run3	repeat/STIM_000.jpg
2425.166	1.066	1	repeat	Run3	repeat/STIM_000.jpg
2428.788	0.857	1	repeat	Run3	repeat/STIM_000.jpg
2433.509	1.14	1	repeat	Run3	repeat/STIM_000.jpg
2437.337	0.888	1	repeat	Run3	repeat/STIM_000.jpg
2441.703	0.828	1	repeat	Run3	repeat/STIM_001.jpg
2445.687	0.903	1	repeat	Run3	repeat/STIM_001.jpg
2450.349	0.977	1	repeat	Run3	repeat/STIM_001.jpg
2453.404	1.123	1	repeat	Run3	repeat/STIM_001.jpg
2458.283	0.756	1	repeat	Run3	repeat/STIM_001.jpg
2462.385	0.748	1	repeat	Run3	repeat/STIM_002.jpg
2465.562	0.78	1	repeat	Run3	repeat/STIM_002.jpg
2469.41	0.875	1	repeat	Run3	repeat/STIM_002.jpg
2474.237	0.623	1	repeat	Run3	repeat/STIM_002.jpg
2477.024	0.961	1	repeat	Run3	repeat/STIM_002.jpg
2480.335	0.759	1	repeat	Run3	repeat/STIM_003.jpg
2483.603	1.034	1	repeat	Run3	repeat/STIM_003.jpg
2486.67	0.748	1	repeat	Run3	repeat/STIM_003.jpg
2490.191	0.766	1	repeat	Run3	repeat/STIM_003.jpg
2494.524	0.932	1	repeat	Run3	repeat/STIM_003.jpg
2498.469	1.044	1	repeat	Run3	repeat/STIM_004.jpg
2502.463	1.123	1	repeat	Run3	repeat/STIM_004.jpg
2507.303	1.111	1	repeat	Run3	repeat/STIM_004.jpg
2511.277	1.033	1	repeat	Run3	repeat/STIM_004.jpg
2516.135	1.15	1	repeat	Run3	repeat/STIM_004.jpg
2519.559	0.803	1	repeat	Run3	repeat/STIM_005.jpg
2523.637	0.843	1	repeat	Run3	repeat/STIM_005.jpg
2528.467	0.901	1	repeat	Run3	repeat/STIM_005.jpg
2533.189	0.696	1	repeat	Run3	repeat/STIM_005.jpg
2537.133	0.791	1	repeat	Run3	repeat/STIM_005.jpg
2541.718	1.105	1	repeat	Run3	repeat/STIM_006.jpg
2546.617	0.652	1	repeat	Run3	repeat/STIM_006.jpg
2550.212	0.921	1	repeat	Run3	repeat/STIM_006.jpg
2554.27	0.992	1	repeat	Run3	repeat/STIM_006.jpg
2557.458	0.785	1	repeat	Run3	repeat/STIM_006.jpg
2561.567	0.69	1	repeat	Run3	repeat/STIM_007.jpg
2565.285	1.001	1	repeat	Run3	repeat/STIM_007.jpg
2568.702	0.656	1	repeat	Run3	repeat/STIM_007.jpg
2571.387	0.917	1	repeat	Run3	repeat/STIM_007.jpg
2574.736	1.028	1	repeat	Run3	repeat/STIM_007.jpg
2579.61	0.923	1	repeat	Run3	repeat/STIM_008.jpg
2584.42	1.116	1	repeat	Run3	repeat/STIM_008.jpg
2588.397	1.053	1	repeat	Run3	repeat/STIM_008.jpg
2593.28	1.063	1	repeat	Run3	repeat/STIM_008.jpg
2596.676	1.084	1	repeat	Run3	repeat/STIM_008.jpg
2599.878	0.913	1	repeat	Run3	repeat/STIM_009.jpg
2604.188	1.14	1	repeat	Run3	repeat/STIM_009.jpg
2607.873	1.154	1	repeat	Run3	repeat/STIM_009.jpg
2611.967	0.716	1	repeat	Run3	repeat/STIM_009.jpg
2616.487	0.757	1	repeat	Run3	repeat/STIM_009.jpg
2619.778	0.836	1	repeat	Run3	repeat/STIM_010.jpg
2623.416	0.84	1	repeat	Run3	repeat/STIM_010.jpg
2628.0	0.983	1	repeat	Run3	repeat/STIM_010.jpg
2632.077	0.615	1	repeat	Run3	repeat/STIM_010.jpg
2635.91	0.663	1	repeat	Run3	repeat/STIM_010.jpg
2639.823	0.952	1	repeat	Run3	repeat/STIM_011.jpg
2642.782	0.974	1	repeat	Run3	repeat/STIM_011.jpg
2647.177	1.067	0	repeat	Run3	repeat/STIM_011.jpg
2651.046	1.086	1	repeat	Run3	repeat/STIM_011.jpg
2655.87	0.815	1	repeat	Run3	repeat/STIM_011.jpg
2658.956	0.804	1	repeat	Run3	repeat/STIM_012.jpg
2661.823	0.854	1	repeat	Run3	repeat/STIM_012.jpg
2666.045	0.944	1	repeat	Run3	repeat/STIM_012.jpg
2669.142	0.882	1	repeat	Run3	repeat/STIM_012.jpg
2672.306	0.896	0	repeat	Run3	repeat/STIM_012.jpg
2676.05	0.71	1	repeat	Run3	repeat/STIM_013.jpg
2679.608	0.609	0	repeat	Run3	repeat/STIM_013.jpg
2682.822	0.785	1	repeat	Run3	repeat/STIM_013.jpg
2686.474	0.596	1	repeat	Run3	repeat/STIM_013.jpg
2690.106	1.065	1	repeat	Run3	repeat/STIM_013.jpg
2694.551	0.757	1	repeat	Run3	repeat/STIM_014.jpg
2699.049	1.009	1	repeat	Run3	repeat/STIM_014.jpg
2702.629	0.69	1	repeat	Run3	repeat/STIM_014.jpg
2706.884	1.114	1	repeat	Run3	repeat/STIM_014.jpg
2711.117	0.58	1	repeat	Run3	repeat/STIM_014.jpg
2715.576	1.221	1	generate	Run4	generate/STIM_000.jpg
2719.639	1.86	1	generate	Run4	generate/STIM_000.jpg
2724.268	1.956	1	generate	Run4	generate/STIM_000.jpg
2728.562	1.511	1	generate	Run4	generate/STIM_000.jpg
2734.024	1.914	1	generate	Run4	generate/STIM_000.jpg
2739.355	2.116	1	generate	Run4	generate/STIM_001.jpg
2743.523	1.333	1	generate	Run4	generate/STIM_001.jpg
2748.419	1.797	1	generate	Run4	generate/STIM_001.jpg
2752.676	1.35	1	generate	Run4	generate/STIM_001.jpg
2756.531	2.083	1	generate	Run4	generate/STIM_001.jpg
2761.662	1.056	1	generate	Run4	generate/STIM_002.jpg
2766.418	2.339	1	generate	Run4	generate/STIM_002.jpg
2771.561	1.738	1	generate	Run4	generate/STIM_002.jpg
2776.56	2.222	1	generate	Run4	generate/STIM_002.jpg
2782.273	1.03	1	generate	Run4	generate/STIM_002.jpg
2786.407	1.09	1	generate	Run4	generate/STIM_003.jpg
2790.015	1.914	0	generate	Run4	generate/STIM_003.jpg
2794.597	2.368	1	generate	Run4	generate/STIM_003.jpg
2799.695	1.191	1	generate	Run4	generate/STIM_003.jpg
2803.194	1.015	1	generate	Run4	generate/STIM_003.jpg
2808.135	2.303	1	generate	Run4	generate/STIM_004.jpg
2814.263	1.24	1	generate	Run4	generate/STIM_004.jpg
2817.624	1.952	1	generate	Run4	generate/STIM_004.jpg
2822.342	2.09	1	generate	Run4	generate/STIM_004.jpg
2827.427	1.663	1	generate	Run4	generate/STIM_004.jpg
2832.993	1.822	1	generate	Run4	generate/STIM_005.jpg
2838.209	1.761	1	generate	Run4	generate/STIM_005.jpg
2842.566	1.888	1	generate	Run4	generate/STIM_005.jpg
2848.165	2.34	1	generate	Run4	generate/STIM_005.jpg
2853.358	1.97	1	generate	Run4	generate/STIM_005.jpg
2857.719	1.441	1	generate	Run4	generate/STIM_006.jpg
2862.894	2.146	1	generate	Run4	generate/STIM_006.jpg
2868.792	2.329	1	generate	Run4	generate/STIM_006.jpg
2873.699	1.901	1	generate	Run4	generate/STIM_006.jpg
2877.659	2.247	1	generate	Run4	generate/STIM_006.jpg
2883.557	1.557	1	generate	Run4	generate/STIM_007.jpg
2887.303	1.673	1	generate	Run4	generate/STIM_007.jpg
2891.339	2.352	1	generate	Run4	generate/STIM_007.jpg
2895.743	1.406	1	generate	Run4	generate/STIM_007.jpg
2900.406	1.459	1	generate	Run4	generate/STIM_007.jpg
2905.344	2.038	1	generate	Run4	generate/STIM_008.jpg
2910.424	1.85	1	generate	Run4	generate/STIM_008.jpg
2915.828	2.417	1	generate	Run4	generate/STIM_008.jpg
2921.433	2.228	1	generate	Run4	generate/STIM_008.jpg
2926.071	1.173	1	generate	Run4	generate/STIM_008.jpg
2930.957	1.953	1	generate	Run4	generate/STIM_009.jpg
2935.564	2.314	1	generate	Run4	generate/STIM_009.jpg
2940.043	2.337	1	generate	Run4	generate/STIM_009.jpg
2945.465	1.8	1	generate	Run4	generate/STIM_009.jpg
2949.582	2.05	1	generate	Run4	generate/STIM_009.jpg
2955.109	1.259	1	generate	Run4	generate/STIM_010.jpg
2958.458	1.058	1	generate	Run4	generate/STIM_010.jpg
2962.754	1.027	1	generate	Run4	generate/STIM_010.jpg
2966.183	2.04	1	generate	Run4	generate/STIM_010.jpg
2971.309	2.15	1	generate	Run4	generate/STIM_010.jpg
2977.044	1.192	1	generate	Run4	generate/STIM_011.jpg
2981.957	1.279	1	generate	Run4	generate/STIM_011.jpg
2986.837	1.344	1	generate	Run4	generate/STIM_011.jpg
2990.789	1.62	1	generate	Run4	generate/STIM_011.jpg
2994.499	1.819	1	generate	Run4	generate/STIM_011.jpg
3000.243	1.756	1	generate	Run4	generate/STIM_012.jpg
3004.118	2.186	1	generate	Run4	generate/STIM_012.jpg
3008.691	1.065	1	generate	Run4	generate/STIM_012.jpg
3012.555	1.309	1	generate	Run4	generate/STIM_012.jpg
3016.824	1.309	1	generate	Run4	generate/STIM_012.jpg
3021.173	2.044	1	generate	Run4	generate/STIM_013.jpg
3025.715	1.63	1	generate	Run4	generate/STIM_013.jpg
3029.868	2.019	1	generate	Run4	generate/STIM_013.jpg
3035.08	2.114	1	generate	Run4	generate/STIM_013.jpg
3039.814	1.839	1	generate	Run4	generate/STIM_013.jpg
3044.706	1.117	1	generate	Run4	generate/STIM_014.jpg
3048.625	2.145	1	generate	Run4	generate/STIM_014.jpg
3054.533	1.324	1	generate	Run4	generate/STIM_014.jpg
3059.18	2.121	1	generate	Run4	generate/STIM_014.jpg
3065.106	1.986	1	generate	Run4	generate/STIM_014.jpg
3070.922	1.12	1	generate	Run4	generate/STIM_015.jpg
3074.291	1.621	1	generate	Run4	generate/STIM_015.jpg
3078.468	2.133	1	generate	Run4	generate/STIM_015.jpg
3082.796	1.455	1	generate	Run4	generate/STIM_015.jpg
3086.543	1.434	1	generate	Run4	generate/STIM_015.jpg
3091.066	2.081	1	generate	Run4	generate/STIM_016.jpg
3095.951	1.775	1	generate	Run4	generate/STIM_016.jpg
3100.777	1.39	1	generate	Run4	generate/STIM_016.jpg
3104.828	1.86	1	generate	Run4	generate/STIM_016.jpg
3109.634	1.334	1	generate	Run4	generate/STIM_016.jpg
3114.498	1.212	1	generate	Run4	generate/STIM_017.jpg
3118.413	2.414	1	generate	Run4	generate/STIM_017.jpg
3124.498	1.53	1	generate	Run4	generate/STIM_017.jpg
3129.685	2.368	1	generate	Run4	generate/STIM_017.jpg
3135.014	1.794	1	generate	Run4	generate/STIM_017.jpg
3139.95	2.351	1	generate	Run4	generate/STIM_018.jpg
3144.632	1.988	1	generate	Run4	generate/STIM_018.jpg
3150.196	2.065	1	generate	Run4	generate/STIM_018.jpg
3154.861	1.927	1	generate	Run4	generate/STIM_018.jpg
3160.241	1.035	1	generate	Run4	generate/STIM_018.jpg
3164.254	2.028	1	generate	Run4	generate/STIM_019.jpg
3168.83	1.31	1	generate	Run4	generate/STIM_019.jpg
3173.336	2.08	1	generate	Run4	generate/STIM_019.jpg
3177.698	2.085	1	generate	Run4	generate/STIM_019.jpg
3182.46	2.223	1	generate	Run4	generate/STIM_019.jpg
3186.919	2.157	1	generate	Run4	generate/STIM_020.jpg
3192.446	1.493	1	generate	Run4	generate/STIM_020.jpg
3197.41	2.408	1	generate	Run4	generate/STIM_020.jpg
3203.649	1.787	1	generate	Run4	generate/STIM_020.jpg
3209.392	2.178	1	generate	Run4	generate/STIM_020.jpg
3214.812	1.196	1	generate	Run4	generate/STIM_021.jpg
3219.815	1.028	1	generate	Run4	generate/STIM_021.jpg
3223.185	1.43	1	generate	Run4	generate/STIM_021.jpg
3226.852	1.672	1	generate	Run4	generate/STIM_021.jpg
3231.219	2.33	1	generate	Run4	generate/STIM_021.jpg
3237.196	1.013	1	generate	Run4	generate/STIM_022.jpg
3240.82	1.505	1	generate	Run4	generate/STIM_022.jpg
3244.561	1.015	1	generate	Run4	generate/STIM_022.jpg
3248.991	1.242	1	generate	Run4	generate/STIM_022.jpg
3252.285	2.415	1	generate	Run4	generate/STIM_022.jpg
3257.789	2.166	1	generate	Run4	generate/STIM_023.jpg
3262.509	1.266	1	generate	Run4	generate/STIM_023.jpg
3265.902	1.943	1	generate	Run4	generate/STIM_023.jpg
3271.435	1.755	1	generate	Run4	generate/STIM_023.jpg
3275.754	1.611	1	generate	Run4	generate/STIM_023.jpg
3280.845	1.182	1	generate	Run4	generate/STIM_024.jpg
3285.084	2.153	1	generate	Run4	generate/STIM_024.jpg
3291.01	2.068	1	generate	Run4	generate/STIM_024.jpg
3296.774	2.229	1	generate	Run4	generate/STIM_024.jpg
3302.476	1.693	1	generate	Run4	generate/STIM_024.jpg
3307.0	0.623	1	repeat	Run4	repeat/STIM_000.jpg
3311.182	0.902	0	repeat	Run4	repeat/STIM_000.jpg
3315.484	0.79	1	repeat	Run4	repeat/STIM_000.jpg
3320.066	0.977	1	repeat	Run4	repeat/STIM_000.jpg
3324.052	1.04	1	repeat	Run4	repeat/STIM_000.jpg
3328.767	1.12	1	repeat	Run4	repeat/STIM_001.jpg
3333.75	0.599	0	repeat	Run4	repeat/STIM_001.jpg
3337.839	1.096	1	repeat	Run4	repeat/STIM_001.jpg
3342.258	0.762	1	repeat	Run4	repeat/STIM_001.jpg
3345.472	0.91	1	repeat	Run4	repeat/STIM_001.jpg
3348.924	0.679	1	repeat	Run4	repeat/STIM_002.jpg
3352.674	1.022	1	repeat	Run4	repeat/STIM_002.jpg
3356.052	0.993	1	repeat	Run4	repeat/STIM_002.jpg
3359.331	0.95	1	repeat	Run4	repeat/STIM_002.jpg
3363.669	0.74	1	repeat	Run4	repeat/STIM_002.jpg
3367.406	0.723	1	repeat	Run4	repeat/STIM_003.jpg
3371.243	0.816	1	repeat	Run4	repeat/STIM_003.jpg
3374.797	0.62	1	repeat	Run4	repeat/STIM_003.jpg
3377.963	0.686	1	repeat	Run4	repeat/STIM_003.jpg
3382.383	0.974	1	repeat	Run4	repeat/STIM_003.jpg
3386.549	0.957	1	repeat	Run4	repeat/STIM_004.jpg
3389.824	0.684	1	repeat	Run4	repeat/STIM_004.jpg
3393.981	0.794	0	repeat	Run4	repeat/STIM_004.jpg
3396.945	0.706	1	repeat	Run4	repeat/STIM_004.jpg
3400.455	0.662	1	repeat	Run4	repeat/STIM_004.jpg
3405.006	0.696	1	repeat	Run4	repeat/STIM_005.jpg
3408.137	1.102	1	repeat	Run4	repeat/STIM_005.jpg
3412.345	1.092	1	repeat	Run4	repeat/STIM_005.jpg
3416.002	0.868	1	repeat	Run4	repeat/STIM_005.jpg
3420.516	0.968	1	repeat	Run4	repeat/STIM_005.jpg
3424.847	1.103	1	repeat	Run4	repeat/STIM_006.jpg
3429.485	0.899	1	repeat	Run4	repeat/STIM_006.jpg
3432.757	0.766	1	repeat	Run4	repeat/STIM_006.jpg
3436.849	0.967	1	repeat	Run4	repeat/STIM_006.jpg
3441.335	0.869	1	repeat	Run4	repeat/STIM_006.jpg
3445.283	0.817	1	repeat	Run4	repeat/STIM_007.jpg
3449.547	0.914	1	repeat	Run4	repeat/STIM_007.jpg
3453.852	0.586	1	repeat	Run4	repeat/STIM_007.jpg
3458.412	0.856	1	repeat	Run4	repeat/STIM_007.jpg
3461.317	0.991	1	repeat	Run4	repeat/STIM_007.jpg
3464.42	1.103	1	repeat	Run4	repeat/STIM_008.jpg
3468.985	0.617	1	repeat	Run4	repeat/STIM_008.jpg
3471.963	0.628	1	repeat	Run4	repeat/STIM_008.jpg
3474.9	0.588	1	repeat	Run4	repeat/STIM_008.jpg
3477.966	0.661	1	repeat	Run4	repeat/STIM_008.jpg
3481.273	0.648	1	repeat	Run4	repeat/STIM_009.jpg
3485.405	1.055	1	repeat	Run4	repeat/STIM_009.jpg
3488.756	0.84	0	repeat	Run4	repeat/STIM_009.jpg
3493.177	1.016	1	repeat	Run4	repeat/STIM_009.jpg
3497.614	0.972	1	repeat	Run4	repeat/STIM_009.jpg
3500.627	0.671	1	repeat	Run4	repeat/STIM_010.jpg
3504.764	0.925	1	repeat	Run4	repeat/STIM_010.jpg
3507.786	0.626	1	repeat	Run4	repeat/STIM_010.jpg
3511.678	0.839	0	repeat	Run4	repeat/STIM_010.jpg
3515.672	0.949	1	repeat	Run4	repeat/STIM_010.jpg
3520.564	1.12	1	repeat	Run4	repeat/STIM_011.jpg
3525.295	1.109	1	repeat	Run4	repeat/STIM_011.jpg
3528.984	0.635	1	repeat	Run4	repeat/STIM_011.jpg
3533.611	0.693	1	repeat	Run4	repeat/STIM_011.jpg
3536.501	1.019	1	repeat	Run4	repeat/STIM_011.jpg
3541.518	1.095	1	repeat	Run4	repeat/STIM_012.jpg
3545.127	0.922	1	repeat	Run4	repeat/STIM_012.jpg
3549.929	0.598	1	repeat	Run4	repeat/STIM_012.jpg
3552.661	0.828	1	repeat	Run4	repeat/STIM_012.jpg
3557.234	0.945	1	repeat	Run4	repeat/STIM_012.jpg
3560.787	0.622	1	repeat	Run4	repeat/STIM_013.jpg
3565.264	0.632	0	repeat	Run4	repeat/STIM_013.jpg
3568.635	0.732	1	repeat	Run4	repeat/STIM_013.jpg
3573.312	0.65	1	repeat	Run4	repeat/STIM_013.jpg
3577.124	0.861	1	repeat	Run4	repeat/STIM_013.jpg
3581.984	0.68	1	repeat	Run4	repeat/STIM_014.jpg
3586.088	0.624	1	repeat	Run4	repeat/STIM_014.jpg
3590.399	1.108	1	repeat	Run4	repeat/STIM_014.jpg
3595.214	0.795	1	repeat	Run4	repeat/STIM_014.jpg
3599.289	0.645	1	repeat	Run4	repeat/STIM_014.jpg
