onset	duration	accuracy	trial_type	learning_stage	stimulus
0.0	3.334	correct	generate	Run1	generate/STIM_000.jpg
7.28	2.698	correct	generate	Run1	generate/STIM_000.jpg
13.298	2.771	correct	generate	Run1	generate/STIM_000.jpg
19.732	2.384	correct	generate	Run1	generate/STIM_000.jpg
25.363	1.673	correct	generate	Run1	generate/STIM_000.jpg
30.256	1.398	correct	generate	Run1	generate/STIM_001.jpg
34.552	2.31	correct	generate	Run1	generate/STIM_001.jpg
40.56	2.972	correct	generate	Run1	generate/STIM_001.jpg
47.259	1.215	correct	generate	Run1	generate/STIM_001.jpg
52.251	2.346	correct	generate	Run1	generate/STIM_001.jpg
57.426	1.887	correct	generate	Run1	generate/STIM_002.jpg
63.028	3.148	correct	generate	Run1	generate/STIM_002.jpg
68.543	2.303	correct	generate	Run1	generate/STIM_002.jpg
73.444	2.75	correct	generate	Run1	generate/STIM_002.jpg
78.526	1.716	correct	generate	Run1	generate/STIM_002.jpg
82.575	3.462	correct	generate	Run1	generate/STIM_003.jpg
88.649	2.727	incorrect	generate	Run1	generate/STIM_003.jpg
94.932	2.114	correct	generate	Run1	generate/STIM_003.jpg
99.538	1.656	correct	generate	Run1	generate/STIM_003.jpg
103.424	1.328	correct	generate	Run1	generate/STIM_003.jpg
106.987	1.435	correct	generate	Run1	generate/STIM_004.jpg
111.547	2.781	correct	generate	Run1	generate/STIM_004.jpg
116.805	2.216	correct	generate	Run1	generate/STIM_004.jpg
121.502	1.205	correct	generate	Run1	generate/STIM_004.jpg
125.326	2.012	correct	generate	Run1	generate/STIM_004.jpg
130.128	2.394	correct	generate	Run1	generate/STIM_005.jpg
135.866	1.889	correct	generate	Run1	generate/STIM_005.jpg
140.344	1.982	incorrect	generate	Run1	generate/STIM_005.jpg
146.083	2.081	correct	generate	Run1	generate/STIM_005.jpg
150.59	1.558	incorrect	generate	Run1	generate/STIM_005.jpg
155.944	2.051	correct	generate	Run1	generate/STIM_006.jpg
160.923	3.194	correct	generate	Run1	generate/STIM_006.jpg
167.592	1.828	correct	generate	Run1	generate/STIM_006.jpg
172.3	1.54	correct	generate	Run1	generate/STIM_006.jpg
177.656	1.227	correct	generate	Run1	generate/STIM_006.jpg
181.297	2.782	correct	generate	Run1	generate/STIM_007.jpg
187.651	2.431	correct	generate	Run1	generate/STIM_007.jpg
193.643	2.202	incorrect	generate	Run1	generate/STIM_007.jpg
198.096	1.831	correct	generate	Run1	generate/STIM_007.jpg
202.673	2.186	incorrect	generate	Run1	generate/STIM_007.jpg
208.477	2.305	correct	generate	Run1	generate/STIM_008.jpg
214.544	1.575	incorrect	generate	Run1	generate/STIM_008.jpg
219.946	2.128	incorrect	generate	Run1	generate/STIM_008.jpg
224.771	1.43	correct	generate	Run1	generate/STIM_008.jpg
230.068	1.235	correct	generate	Run1	generate/STIM_008.jpg
234.38	2.768	correct	generate	Run1	generate/STIM_009.jpg
239.424	1.848	correct	generate	Run1	generate/STIM_009.jpg
243.777	2.703	correct	generate	Run1	generate/STIM_009.jpg
249.529	1.856	correct	generate	Run1	generate/STIM_009.jpg
254.749	1.757	correct	generate	Run1	generate/STIM_009.jpg
258.687	2.991	incorrect	generate	Run1	generate/STIM_010.jpg
264.312	2.296	incorrect	generate	Run1	generate/STIM_010.jpg
269.536	2.766	correct	generate	Run1	generate/STIM_010.jpg
274.669	1.73	correct	generate	Run1	generate/STIM_010.jpg
278.725	2.668	correct	generate	Run1	generate/STIM_010.jpg
283.479	2.727	correct	generate	Run1	generate/STIM_011.jpg
288.222	2.454	correct	generate	Run1	generate/STIM_011.jpg
293.03	1.576	correct	generate	Run1	generate/STIM_011.jpg
297.533	1.504	correct	generate	Run1	generate/STIM_011.jpg
301.083	1.303	incorrect	generate	Run1	generate/STIM_011.jpg
306.203	2.953	correct	generate	Run1	generate/STIM_012.jpg
311.986	2.001	correct	generate	Run1	generate/STIM_012.jpg
317.791	2.963	correct	generate	Run1	generate/STIM_012.jpg
323.303	1.624	correct	generate	Run1	generate/STIM_012.jpg
328.742	2.535	correct	generate	Run1	generate/STIM_012.jpg
334.797	1.897	correct	generate	Run1	generate/STIM_013.jpg
340.179	2.129	correct	generate	Run1	generate/STIM_013.jpg
345.226	2.299	incorrect	generate	Run1	generate/STIM_013.jpg
351.214	2.697	correct	generate	Run1	generate/STIM_013.jpg
357.163	1.58	incorrect	generate	Run1	generate/STIM_013.jpg
360.925	3.398	correct	generate	Run1	generate/STIM_014.jpg
366.414	2.398	correct	generate	Run1	generate/STIM_014.jpg
372.376	1.6	correct	generate	Run1	generate/STIM_014.jpg
376.183	1.22	correct	generate	Run1	generate/STIM_014.jpg
380.859	1.745	correct	generate	Run1	generate/STIM_014.jpg
385.101	3.0	incorrect	generate	Run1	generate/STIM_015.jpg
391.391	1.654	correct	generate	Run1	generate/STIM_015.jpg
396.38	1.291	correct	generate	Run1	generate/STIM_015.jpg
400.006	1.769	correct	generate	Run1	generate/STIM_015.jpg
404.553	2.483	correct	generate	Run1	generate/STIM_015.jpg
410.243	2.294	correct	generate	Run1	generate/STIM_016.jpg
415.138	1.894	correct	generate	Run1	generate/STIM_016.jpg
420.914	2.92	correct	generate	Run1	generate/STIM_016.jpg
427.01	2.055	correct	generate	Run1	generate/STIM_016.jpg
431.297	2.366	correct	generate	Run1	generate/STIM_016.jpg
436.279	2.097	correct	generate	Run1	generate/STIM_017.jpg
441.089	2.62	correct	generate	Run1	generate/STIM_017.jpg
446.866	1.861	correct	generate	Run1	generate/STIM_017.jpg
451.862	2.6	incorrect	generate	Run1	generate/STIM_017.jpg
457.736	2.66	correct	generate	Run1	generate/STIM_017.jpg
463.581	1.532	correct	generate	Run1	generate/STIM_018.jpg
468.001	1.987	correct	generate	Run1	generate/STIM_018.jpg
472.161	2.106	correct	generate	Run1	generate/STIM_018.jpg
478.135	2.128	correct	generate	Run1	generate/STIM_018.jpg
482.423	2.442	correct	generate	Run1	generate/STIM_018.jpg
487.988	1.83	correct	generate	Run1	generate/STIM_019.jpg
493.421	2.436	incorrect	generate	Run1	generate/STIM_019.jpg
499.53	1.522	correct	generate	Run1	generate/STIM_019.jpg
503.127	1.623	correct	generate	Run1	generate/STIM_019.jpg
508.409	1.544	correct	generate	Run1	generate/STIM_019.jpg
513.26	1.494	correct	generate	Run1	generate/STIM_020.jpg
518.081	3.116	incorrect	generate	Run1	generate/STIM_020.jpg
524.785	2.235	incorrect	generate	Run1	generate/STIM_020.jpg
530.425	1.864	incorrect	generate	Run1	generate/STIM_020.jpg
535.839	1.844	correct	generate	Run1	generate/STIM_020.jpg
539.706	2.421	correct	generate	Run1	generate/STIM_021.jpg
545.363	2.507	correct	generate	Run1	generate/STIM_021.jpg
550.091	2.943	correct	generate	Run1	generate/STIM_021.jpg
555.959	2.551	correct	generate	Run1	generate/STIM_021.jpg
562.005	2.643	correct	generate	Run1	generate/STIM_021.jpg
566.782	2.789	correct	generate	Run1	generate/STIM_022.jpg
571.634	2.184	correct	generate	Run1	generate/STIM_022.jpg
576.243	1.993	correct	generate	Run1	generate/STIM_022.jpg
580.242	1.723	correct	generate	Run1	generate/STIM_022.jpg
585.081	1.655	incorrect	generate	Run1	generate/STIM_022.jpg
589.201	2.454	correct	generate	Run1	generate/STIM_023.jpg
594.663	1.392	correct	generate	Run1	generate/STIM_023.jpg
599.594	1.287	correct	generate	Run1	generate/STIM_023.jpg
603.419	2.588	correct	generate	Run1	generate/STIM_023.jpg
608.506	1.839	correct	generate	Run1	generate/STIM_023.jpg
612.377	1.922	correct	generate	Run1	generate/STIM_024.jpg
618.18	2.477	correct	generate	Run1	generate/STIM_024.jpg
624.509	2.309	correct	generate	Run1	generate/STIM_024.jpg
629.499	1.551	correct	generate	Run1	generate/STIM_024.jpg
633.109	2.468	correct	generate	Run1	generate/STIM_024.jpg
639.008	0.646	correct	repeat	Run1	repeat/STIM_000.jpg
643.643	0.928	correct	repeat	Run1	repeat/STIM_000.jpg
646.752	1.032	correct	repeat	Run1	repeat/STIM_000.jpg
650.152	0.636	correct	repeat	Run1	repeat/STIM_000.jpg
654.781	0.849	correct	repeat	Run1	repeat/STIM_000.jpg
659.505	0.624	correct	repeat	Run1	repeat/STIM_001.jpg
663.138	0.898	correct	repeat	Run1	repeat/STIM_001.jpg
666.571	1.139	correct	repeat	Run1	repeat/STIM_001.jpg
671.463	1.033	correct	repeat	Run1	repeat/STIM_001.jpg
676.451	1.129	correct	repeat	Run1	repeat/STIM_001.jpg
681.315	0.902	correct	repeat	Run1	repeat/STIM_002.jpg
685.625	1.087	correct	repeat	Run1	repeat/STIM_002.jpg
689.012	0.706	correct	repeat	Run1	repeat/STIM_002.jpg
692.05	1.01	correct	repeat	Run1	repeat/STIM_002.jpg
695.284	0.581	correct	repeat	Run1	repeat/STIM_002.jpg
699.516	1.098	correct	repeat	Run1	repeat/STIM_003.jpg
702.683	0.976	correct	repeat	Run1	repeat/STIM_003.jpg
705.795	1.099	correct	repeat	Run1	repeat/STIM_003.jpg
710.564	0.794	correct	repeat	Run1	repeat/STIM_003.jpg
715.009	0.958	correct	repeat	Run1	repeat/STIM_003.jpg
718.531	1.012	correct	repeat	Run1	repeat/STIM_004.jpg
722.407	0.857	correct	repeat	Run1	repeat/STIM_004.jpg
725.732	1.139	correct	repeat	Run1	repeat/STIM_004.jpg
730.087	0.797	correct	repeat	Run1	repeat/STIM_004.jpg
734.293	0.932	correct	repeat	Run1	repeat/STIM_004.jpg
738.426	0.588	correct	repeat	Run1	repeat/STIM_005.jpg
741.189	0.996	correct	repeat	Run1	repeat/STIM_005.jpg
745.301	0.641	correct	repeat	Run1	repeat/STIM_005.jpg
748.598	0.96	correct	repeat	Run1	repeat/STIM_005.jpg
752.016	0.723	correct	repeat	Run1	repeat/STIM_005.jpg
755.778	0.617	correct	repeat	Run1	repeat/STIM_006.jpg
760.237	0.834	correct	repeat	Run1	repeat/STIM_006.jpg
764.524	0.741	correct	repeat	Run1	repeat/STIM_006.jpg
767.614	0.75	correct	repeat	Run1	repeat/STIM_006.jpg
771.521	1.041	correct	repeat	Run1	repeat/STIM_006.jpg
775.321	0.769	correct	repeat	Run1	repeat/STIM_007.jpg
778.942	0.607	correct	repeat	Run1	repeat/STIM_007.jpg
781.648	1.012	correct	repeat	Run1	repeat/STIM_007.jpg
784.746	1.064	correct	repeat	Run1	repeat/STIM_007.jpg
789.69	1.088	correct	repeat	Run1	repeat/STIM_007.jpg
793.169	0.811	correct	repeat	Run1	repeat/STIM_008.jpg
797.182	0.77	correct	repeat	Run1	repeat/STIM_008.jpg
799.982	0.646	correct	repeat	Run1	repeat/STIM_008.jpg
803.917	1.109	correct	repeat	Run1	repeat/STIM_008.jpg
807.886	1.004	correct	repeat	Run1	repeat/STIM_008.jpg
811.873	0.656	incorrect	repeat	Run1	repeat/STIM_009.jpg
815.818	1.058	correct	repeat	Run1	repeat/STIM_009.jpg
820.271	1.007	correct	repeat	Run1	repeat/STIM_009.jpg
824.572	0.664	correct	repeat	Run1	repeat/STIM_009.jpg
827.467	0.935	correct	repeat	Run1	repeat/STIM_009.jpg
831.159	0.799	correct	repeat	Run1	repeat/STIM_010.jpg
835.229	0.908	correct	repeat	Run1	repeat/STIM_010.jpg
839.774	0.7	correct	repeat	Run1	repeat/STIM_010.jpg
844.386	1.147	incorrect	repeat	Run1	repeat/STIM_010.jpg
848.019	0.742	correct	repeat	Run1	repeat/STIM_010.jpg
852.08	0.639	correct	repeat	Run1	repeat/STIM_011.jpg
855.207	0.993	correct	repeat	Run1	repeat/STIM_011.jpg
859.759	0.784	correct	repeat	Run1	repeat/STIM_011.jpg
863.748	1.054	correct	repeat	Run1	repeat/STIM_011.jpg
868.238	0.646	correct	repeat	Run1	repeat/STIM_011.jpg
872.38	0.938	correct	repeat	Run1	repeat/STIM_012.jpg
877.067	0.96	correct	repeat	Run1	repeat/STIM_012.jpg
881.32	0.99	correct	repeat	Run1	repeat/STIM_012.jpg
884.389	0.713	correct	repeat	Run1	repeat/STIM_012.jpg
887.916	0.645	correct	repeat	Run1	repeat/STIM_012.jpg
891.52	1.055	correct	repeat	Run1	repeat/STIM_013.jpg
894.854	0.986	correct	repeat	Run1	repeat/STIM_013.jpg
899.459	0.987	correct	repeat	Run1	repeat/STIM_013.jpg
903.507	0.65	correct	repeat	Run1	repeat/STIM_013.jpg
906.973	0.798	correct	repeat	Run1	repeat/STIM_013.jpg
909.975	0.876	correct	repeat	Run1	repeat/STIM_014.jpg
914.365	0.794	correct	repeat	Run1	repeat/STIM_014.jpg
918.305	1.117	correct	repeat	Run1	repeat/STIM_014.jpg
923.294	0.808	incorrect	repeat	Run1	repeat/STIM_014.jpg
926.593	0.722	correct	repeat	Run1	repeat/STIM_014.jpg
929.77	2.464	incorrect	generate	Run2	generate/STIM_000.jpg
936.07	2.285	correct	generate	Run2	generate/STIM_000.jpg
941.58	1.572	correct	generate	Run2	generate/STIM_000.jpg
946.54	1.247	correct	generate	Run2	generate/STIM_000.jpg
949.999	1.69	correct	generate	Run2	generate/STIM_000.jpg
954.362	2.752	correct	generate	Run2	generate/STIM_001.jpg
960.928	1.66	incorrect	generate	Run2	generate/STIM_001.jpg
965.823	1.445	correct	generate	Run2	generate/STIM_001.jpg
969.774	1.653	correct	generate	Run2	generate/STIM_001.jpg
973.734	2.268	correct	generate	Run2	generate/STIM_001.jpg
978.602	2.88	correct	generate	Run2	generate/STIM_002.jpg
984.191	1.284	correct	generate	Run2	generate/STIM_002.jpg
989.12	1.976	incorrect	generate	Run2	generate/STIM_002.jpg
994.101	1.251	correct	generate	Run2	generate/STIM_002.jpg
998.85	2.389	correct	generate	Run2	generate/STIM_002.jpg
1003.7	1.251	correct	generate	Run2	generate/STIM_003.jpg
1008.412	2.098	correct	generate	Run2	generate/STIM_003.jpg
1012.907	1.258	correct	generate	Run2	generate/STIM_003.jpg
1017.708	1.374	correct	generate	Run2	generate/STIM_003.jpg
1021.182	1.598	correct	generate	Run2	generate/STIM_003.jpg
1025.98	2.304	correct	generate	Run2	generate/STIM_004.jpg
1030.81	2.332	correct	generate	Run2	generate/STIM_004.jpg
1037.105	2.108	correct	generate	Run2	generate/STIM_004.jpg
1042.731	1.029	correct	generate	Run2	generate/STIM_004.jpg
1045.793	1.384	correct	generate	Run2	generate/STIM_004.jpg
1051.172	2.613	correct	generate	Run2	generate/STIM_005.jpg
1057.617	1.658	correct	generate	Run2	generate/STIM_005.jpg
1062.732	1.131	correct	generate	Run2	generate/STIM_005.jpg
1066.968	1.825	correct	generate	Run2	generate/STIM_005.jpg
1072.542	1.413	correct	generate	Run2	generate/STIM_005.jpg
1077.192	2.462	correct	generate	Run2	generate/STIM_006.jpg
1083.485	2.711	correct	generate	Run2	generate/STIM_006.jpg
1090.103	1.746	correct	generate	Run2	generate/STIM_006.jpg
1094.426	1.966	correct	generate	Run2	generate/STIM_006.jpg
1099.811	1.0	correct	generate	Run2	generate/STIM_006.jpg
1104.442	2.119	correct	generate	Run2	generate/STIM_007.jpg
1110.0	2.627	correct	generate	Run2	generate/STIM_007.jpg
1116.196	1.108	correct	generate	Run2	generate/STIM_007.jpg
1119.963	1.613	correct	generate	Run2	generate/STIM_007.jpg
1125.469	2.109	correct	generate	Run2	generate/STIM_007.jpg
1131.235	1.188	incorrect	generate	Run2	generate/STIM_008.jpg
1134.97	1.566	correct	generate	Run2	generate/STIM_008.jpg
1140.114	2.263	correct	generate	Run2	generate/STIM_008.jpg
1145.133	1.413	correct	generate	Run2	generate/STIM_008.jpg
1149.009	2.238	incorrect	generate	Run2	generate/STIM_008.jpg
1153.432	2.242	correct	generate	Run2	generate/STIM_009.jpg
1158.423	2.756	incorrect	generate	Run2	generate/STIM_009.jpg
1163.23	1.386	correct	generate	Run2	generate/STIM_009.jpg
1166.794	2.2	correct	generate	Run2	generate/STIM_009.jpg
1171.142	1.607	correct	generate	Run2	generate/STIM_009.jpg
1175.01	2.577	correct	generate	Run2	generate/STIM_010.jpg
1179.808	1.454	incorrect	generate	Run2	generate/STIM_010.jpg
1185.071	1.855	correct	generate	Run2	generate/STIM_010.jpg
1190.347	1.586	incorrect	generate	Run2	generate/STIM_010.jpg
1194.316	1.951	correct	generate	Run2	generate/STIM_010.jpg
1198.637	1.327	incorrect	generate	Run2	generate/STIM_011.jpg
1203.172	1.194	correct	generate	Run2	generate/STIM_011.jpg
1206.384	2.25	correct	generate	Run2	generate/STIM_011.jpg
1211.143	2.189	correct	generate	Run2	generate/STIM_011.jpg
1216.771	2.046	correct	generate	Run2	generate/STIM_011.jpg
1222.585	1.911	correct	generate	Run2	generate/STIM_012.jpg
1227.307	1.29	correct	generate	Run2	generate/STIM_012.jpg
1230.77	1.413	incorrect	generate	Run2	generate/STIM_012.jpg
1235.14	0.995	correct	generate	Run2	generate/STIM_012.jpg
1238.858	1.008	correct	generate	Run2	generate/STIM_012.jpg
1243.32	2.872	incorrect	generate	Run2	generate/STIM_013.jpg
1249.619	2.484	incorrect	generate	Run2	generate/STIM_013.jpg
1255.658	2.381	correct	generate	Run2	generate/STIM_013.jpg
1261.138	2.212	correct	generate	Run2	generate/STIM_013.jpg
1267.009	2.023	correct	generate	Run2	generate/STIM_013.jpg
1272.197	1.826	correct	generate	Run2	generate/STIM_014.jpg
1277.708	2.558	correct	generate	Run2	generate/STIM_014.jpg
1282.766	2.518	correct	generate	Run2	generate/STIM_014.jpg
1288.763	1.115	correct	generate	Run2	generate/STIM_014.jpg
1293.292	1.788	incorrect	generate	Run2	generate/STIM_014.jpg
1298.96	2.382	correct	generate	Run2	generate/STIM_015.jpg
1303.62	1.396	correct	generate	Run2	generate/STIM_015.jpg
1307.252	1.264	correct	generate	Run2	generate/STIM_015.jpg
1311.641	1.334	correct	generate	Run2	generate/STIM_015.jpg
1315.591	2.2	correct	generate	Run2	generate/STIM_015.jpg
1320.693	2.304	correct	generate	Run2	generate/STIM_016.jpg
1325.343	1.14	correct	generate	Run2	generate/STIM_016.jpg
1330.245	1.963	incorrect	generate	Run2	generate/STIM_016.jpg
1335.057	1.456	correct	generate	Run2	generate/STIM_016.jpg
1340.271	1.346	correct	generate	Run2	generate/STIM_016.jpg
1343.999	2.623	correct	generate	Run2	generate/STIM_017.jpg
1348.838	2.659	correct	generate	Run2	generate/STIM_017.jpg
1353.988	1.553	correct	generate	Run2	generate/STIM_017.jpg
1358.34	1.885	correct	generate	Run2	generate/STIM_017.jpg
1364.185	2.008	correct	generate	Run2	generate/STIM_017.jpg
1368.253	1.895	correct	generate	Run2	generate/STIM_018.jpg
1373.159	1.391	incorrect	generate	Run2	generate/STIM_018.jpg
1378.412	1.311	correct	generate	Run2	generate/STIM_018.jpg
1381.998	1.832	correct	generate	Run2	generate/STIM_018.jpg
1387.622	1.058	correct	generate	Run2	generate/STIM_018.jpg
1392.243	2.442	correct	generate	Run2	generate/STIM_019.jpg
1397.234	2.113	correct	generate	Run2	generate/STIM_019.jpg
1402.983	1.062	correct	generate	Run2	generate/STIM_019.jpg
1406.355	1.938	correct	generate	Run2	generate/STIM_019.jpg
1410.947	1.553	correct	generate	Run2	generate/STIM_019.jpg
1415.071	2.412	correct	generate	Run2	generate/STIM_020.jpg
1420.004	2.368	correct	generate	Run2	generate/STIM_020.jpg
1425.586	1.416	correct	generate	Run2	generate/STIM_020.jpg
1429.332	2.24	correct	generate	Run2	generate/STIM_020.jpg
1434.345	2.37	correct	generate	Run2	generate/STIM_020.jpg
1440.217	2.363	incorrect	generate	Run2	generate/STIM_021.jpg
1444.921	1.811	incorrect	generate	Run2	generate/STIM_021.jpg
1450.1	2.29	correct	generate	Run2	generate/STIM_021.jpg
1455.76	2.36	correct	generate	Run2	generate/STIM_021.jpg
1461.635	1.838	correct	generate	Run2	generate/STIM_021.jpg
1466.879	2.018	correct	generate	Run2	generate/STIM_022.jpg
1472.747	1.202	correct	generate	Run2	generate/STIM_022.jpg
1476.531	2.277	correct	generate	Run2	generate/STIM_022.jpg
1482.185	1.052	correct	generate	Run2	generate/STIM_022.jpg
1486.597	2.286	correct	generate	Run2	generate/STIM_022.jpg
1491.634	1.688	correct	generate	Run2	generate/STIM_023.jpg
1496.549	2.075	correct	generate	Run2	generate/STIM_023.jpg
1502.234	2.067	correct	generate	Run2	generate/STIM_023.jpg
1506.367	1.001	correct	generate	Run2	generate/STIM_023.jpg
1510.401	2.031	correct	generate	Run2	generate/STIM_023.jpg
1514.797	1.98	correct	generate	Run2	generate/STIM_024.jpg
1519.136	2.146	correct	generate	Run2	generate/STIM_024.jpg
1525.171	1.637	incorrect	generate	Run2	generate/STIM_024.jpg
1530.048	1.518	correct	generate	Run2	generate/STIM_024.jpg
1535.51	1.682	correct	generate	Run2	generate/STIM_024.jpg
1541.09	0.972	correct	repeat	Run2	repeat/STIM_000.jpg
1544.287	0.701	incorrect	repeat	Run2	repeat/STIM_000.jpg
1547.28	0.981	correct	repeat	Run2	repeat/STIM_000.jpg
1552.069	0.905	correct	repeat	Run2	repeat/STIM_000.jpg
1555.721	1.023	correct	repeat	Run2	repeat/STIM_000.jpg
1560.016	1.052	correct	repeat	Run2	repeat/STIM_001.jpg
1563.158	1.1	correct	repeat	Run2	repeat/STIM_001.jpg
1566.365	0.834	correct	repeat	Run2	repeat/STIM_001.jpg
1571.16	0.922	correct	repeat	Run2	repeat/STIM_001.jpg
1574.583	0.987	correct	repeat	Run2	repeat/STIM_001.jpg
1578.713	0.656	correct	repeat	Run2	repeat/STIM_002.jpg
1581.845	1.071	correct	repeat	Run2	repeat/STIM_002.jpg
1586.011	0.622	correct	repeat	Run2	repeat/STIM_002.jpg
1589.495	0.92	correct	repeat	Run2	repeat/STIM_002.jpg
1593.404	0.608	correct	repeat	Run2	repeat/STIM_002.jpg
1597.433	0.634	correct	repeat	Run2	repeat/STIM_003.jpg
1600.072	0.922	incorrect	repeat	Run2	repeat/STIM_003.jpg
1604.722	0.833	correct	repeat	Run2	repeat/STIM_003.jpg
1609.141	0.658	correct	repeat	Run2	repeat/STIM_003.jpg
1612.668	0.643	correct	repeat	Run2	repeat/STIM_003.jpg
1616.715	1.11	correct	repeat	Run2	repeat/STIM_004.jpg
1620.654	0.972	correct	repeat	Run2	repeat/STIM_004.jpg
1625.484	0.599	correct	repeat	Run2	repeat/STIM_004.jpg
1628.635	0.904	correct	repeat	Run2	repeat/STIM_004.jpg
1631.867	1.138	correct	repeat	Run2	repeat/STIM_004.jpg
1636.255	0.956	correct	repeat	Run2	repeat/STIM_005.jpg
1641.14	0.839	correct	repeat	Run2	repeat/STIM_005.jpg
1645.072	0.931	correct	repeat	Run2	repeat/STIM_005.jpg
1648.078	0.629	correct	repeat	Run2	repeat/STIM_005.jpg
1651.632	0.84	correct	repeat	Run2	repeat/STIM_005.jpg
1656.448	1.12	correct	repeat	Run2	repeat/STIM_006.jpg
1660.572	1.015	incorrect	repeat	Run2	repeat/STIM_006.jpg
1665.22	0.817	correct	repeat	Run2	repeat/STIM_006.jpg
1668.048	0.73	correct	repeat	Run2	repeat/STIM_006.jpg
1672.493	0.979	correct	repeat	Run2	repeat/STIM_006.jpg
1676.26	0.863	correct	repeat	Run2	repeat/STIM_007.jpg
1680.356	0.708	correct	repeat	Run2	repeat/STIM_007.jpg
1683.896	0.759	correct	repeat	Run2	repeat/STIM_007.jpg
1686.818	0.705	correct	repeat	Run2	repeat/STIM_007.jpg
1690.876	0.985	correct	repeat	Run2	repeat/STIM_007.jpg
1694.525	0.96	correct	repeat	Run2	repeat/STIM_008.jpg
1698.969	0.992	correct	repeat	Run2	repeat/STIM_008.jpg
1702.371	0.956	correct	repeat	Run2	repeat/STIM_008.jpg
1705.362	0.733	correct	repeat	Run2	repeat/STIM_008.jpg
1708.63	0.889	correct	repeat	Run2	repeat/STIM_008.jpg
1713.502	0.857	correct	repeat	Run2	repeat/STIM_009.jpg
1717.341	0.623	correct	repeat	Run2	repeat/STIM_009.jpg
1720.345	1.059	correct	repeat	Run2	repeat/STIM_009.jpg
1723.588	0.796	correct	repeat	Run2	repeat/STIM_009.jpg
1728.29	1.076	correct	repeat	Run2	repeat/STIM_009.jpg
1731.756	0.82	incorrect	repeat	Run2	repeat/STIM_010.jpg
1736.003	0.868	correct	repeat	Run2	repeat/STIM_010.jpg
1740.044	0.824	correct	repeat	Run2	repeat/STIM_010.jpg
1744.254	0.732	correct	repeat	Run2	repeat/STIM_010.jpg
1747.568	0.691	incorrect	repeat	Run2	repeat/STIM_010.jpg
1751.77	0.873	correct	repeat	Run2	repeat/STIM_011.jpg
1756.611	0.673	correct	repeat	Run2	repeat/STIM_011.jpg
1760.048	0.653	correct	repeat	Run2	repeat/STIM_011.jpg
1763.773	1.06	correct	repeat	Run2	repeat/STIM_011.jpg
1768.026	0.95	correct	repeat	Run2	repeat/STIM_011.jpg
1771.103	1.035	correct	repeat	Run2	repeat/STIM_012.jpg
1774.519	0.586	correct	repeat	Run2	repeat/STIM_012.jpg
1778.656	1.098	correct	repeat	Run2	repeat/STIM_012.jpg
1781.786	0.773	correct	repeat	Run2	repeat/STIM_012.jpg
1784.655	1.081	correct	repeat	Run2	repeat/STIM_012.jpg
1788.303	0.951	correct	repeat	Run2	repeat/STIM_013.jpg
1791.474	0.895	correct	repeat	Run2	repeat/STIM_013.jpg
1795.811	0.828	correct	repeat	Run2	repeat/STIM_013.jpg
1799.724	1.082	correct	repeat	Run2	repeat/STIM_013.jpg
1803.72	0.806	correct	repeat	Run2	repeat/STIM_013.jpg
1808.513	0.761	correct	repeat	Run2	repeat/STIM_014.jpg
1812.825	0.971	correct	repeat	Run2	repeat/STIM_014.jpg
1816.078	0.951	correct	repeat	Run2	repeat/STIM_014.jpg
1819.116	0.619	correct	repeat	Run2	repeat/STIM_014.jpg
1821.835	0.594	correct	repeat	Run2	repeat/STIM_014.jpg
1825.778	1.126	correct	generate	Run3	generate/STIM_000.jpg
1830.824	2.339	correct	generate	Run3	generate/STIM_000.jpg
1835.222	2.005	incorrect	generate	Run3	generate/STIM_000.jpg
1840.066	2.094	correct	generate	Run3	generate/STIM_000.jpg
1844.964	1.106	correct	generate	Run3	generate/STIM_000.jpg
1849.903	1.33	correct	generate	Run3	generate/STIM_001.jpg
1854.157	2.265	correct	generate	Run3	generate/STIM_001.jpg
1858.591	1.052	correct	generate	Run3	generate/STIM_001.jpg
1863.246	1.477	correct	generate	Run3	generate/STIM_001.jpg
1868.144	1.886	correct	generate	Run3	generate/STIM_001.jpg
1873.102	1.942	correct	generate	Run3	generate/STIM_002.jpg
1877.483	2.173	correct	generate	Run3	generate/STIM_002.jpg
1883.507	1.086	correct	generate	Run3	generate/STIM_002.jpg
1887.839	1.684	correct	generate	Run3	generate/STIM_002.jpg
1893.302	1.369	correct	generate	Run3	generate/STIM_002.jpg
1898.102	1.02	correct	generate	Run3	generate/STIM_003.jpg
1902.826	1.373	correct	generate	Run3	generate/STIM_003.jpg
1906.963	2.04	correct	generate	Run3	generate/STIM_003.jpg
1911.858	1.823	correct	generate	Run3	generate/STIM_003.jpg
1915.874	1.264	correct	generate	Run3	generate/STIM_003.jpg
1920.511	1.729	correct	generate	Run3	generate/STIM_004.jpg
1924.748	1.225	correct	generate	Run3	generate/STIM_004.jpg
1929.79	1.822	correct	generate	Run3	generate/STIM_004.jpg
1934.542	1.202	correct	generate	Run3	generate/STIM_004.jpg
1938.426	2.046	correct	generate	Run3	generate/STIM_004.jpg
1944.24	2.14	incorrect	generate	Run3	generate/STIM_005.jpg
1950.039	1.575	correct	generate	Run3	generate/STIM_005.jpg
1955.289	1.619	correct	generate	Run3	generate/STIM_005.jpg
1960.452	1.653	correct	generate	Run3	generate/STIM_005.jpg
1964.192	1.096	correct	generate	Run3	generate/STIM_005.jpg
1967.613	1.414	incorrect	generate	Run3	generate/STIM_006.jpg
1972.308	1.842	correct	generate	Run3	generate/STIM_006.jpg
1978.005	1.965	correct	generate	Run3	generate/STIM_006.jpg
1982.747	2.096	correct	generate	Run3	generate/STIM_006.jpg
1987.826	1.013	correct	generate	Run3	generate/STIM_006.jpg
1991.215	2.101	correct	generate	Run3	generate/STIM_007.jpg
1996.417	1.272	correct	generate	Run3	generate/STIM_007.jpg
2000.558	1.536	correct	generate	Run3	generate/STIM_007.jpg
2004.708	1.799	correct	generate	Run3	generate/STIM_007.jpg
2010.379	1.156	correct	generate	Run3	generate/STIM_007.jpg
2014.484	1.808	correct	generate	Run3	generate/STIM_008.jpg
2019.405	1.065	correct	generate	Run3	generate/STIM_008.jpg
2023.703	1.911	correct	generate	Run3	generate/STIM_008.jpg
2028.588	1.075	correct	generate	Run3	generate/STIM_008.jpg
2032.52	1.421	incorrect	generate	Run3	generate/STIM_008.jpg
2037.381	2.285	incorrect	generate	Run3	generate/STIM_009.jpg
2043.66	1.2	correct	generate	Run3	generate/STIM_009.jpg
2048.328	1.499	correct	generate	Run3	generate/STIM_009.jpg
2052.558	1.125	correct	generate	Run3	generate/STIM_009.jpg
2055.889	1.592	correct	generate	Run3	generate/STIM_009.jpg
2061.077	2.297	correct	generate	Run3	generate/STIM_010.jpg
2065.658	1.648	correct	generate	Run3	generate/STIM_010.jpg
2070.353	2.003	correct	generate	Run3	generate/STIM_010.jpg
2075.645	1.644	correct	generate	Run3	generate/STIM_010.jpg
2079.398	1.415	correct	generate	Run3	generate/STIM_010.jpg
2082.899	1.92	correct	generate	Run3	generate/STIM_011.jpg
2088.495	1.096	incorrect	generate	Run3	generate/STIM_011.jpg
2092.957	2.125	correct	generate	Run3	generate/STIM_011.jpg
2098.718	1.486	correct	generate	Run3	generate/STIM_011.jpg
2103.567	1.919	correct	generate	Run3	generate/STIM_011.jpg
2107.488	1.599	correct	generate	Run3	generate/STIM_012.jpg
2111.4	1.429	correct	generate	Run3	generate/STIM_012.jpg
2115.572	1.608	correct	generate	Run3	generate/STIM_012.jpg
2121.116	1.95	correct	generate	Run3	generate/STIM_012.jpg
2126.926	2.394	correct	generate	Run3	generate/STIM_012.jpg
2132.016	2.039	correct	generate	Run3	generate/STIM_013.jpg
2136.955	1.147	incorrect	generate	Run3	generate/STIM_013.jpg
2141.999	2.177	incorrect	generate	Run3	generate/STIM_013.jpg
2148.165	1.438	incorrect	generate	Run3	generate/STIM_013.jpg
2152.715	2.011	correct	generate	Run3	generate/STIM_013.jpg
2158.141	2.316	incorrect	generate	Run3	generate/STIM_014.jpg
2163.285	1.688	correct	generate	Run3	generate/STIM_014.jpg
2168.054	2.304	correct	generate	Run3	generate/STIM_014.jpg
2173.097	1.535	correct	generate	Run3	generate/STIM_014.jpg
2178.485	1.398	correct	generate	Run3	generate/STIM_014.jpg
2183.675	2.094	correct	generate	Run3	generate/STIM_015.jpg
2189.019	1.507	correct	generate	Run3	generate/STIM_015.jpg
2193.897	2.238	correct	generate	Run3	generate/STIM_015.jpg
2198.214	0.977	correct	generate	Run3	generate/STIM_015.jpg
2201.3	1.8	correct	generate	Run3	generate/STIM_015.jpg
2206.993	1.553	correct	generate	Run3	generate/STIM_016.jpg
2211.88	1.57	correct	generate	Run3	generate/STIM_016.jpg
2217.24	2.112	correct	generate	Run3	generate/STIM_016.jpg
2222.853	2.38	correct	generate	Run3	generate/STIM_016.jpg
2227.543	1.233	correct	generate	Run3	generate/STIM_016.jpg
2231.595	1.708	incorrect	generate	Run3	generate/STIM_017.jpg
2235.831	2.323	correct	generate	Run3	generate/STIM_017.jpg
2241.767	2.376	correct	generate	Run3	generate/STIM_017.jpg
2247.179	1.947	correct	generate	Run3	generate/STIM_017.jpg
2251.475	1.711	incorrect	generate	Run3	generate/STIM_017.jpg
2256.074	1.016	correct	generate	Run3	generate/STIM_018.jpg
2260.858	1.4	correct	generate	Run3	generate/STIM_018.jpg
2264.955	2.138	correct	generate	Run3	generate/STIM_018.jpg
2270.467	2.397	correct	generate	Run3	generate/STIM_018.jpg
2276.608	1.745	correct	generate	Run3	generate/STIM_018.jpg
2282.174	1.474	correct	generate	Run3	generate/STIM_019.jpg
2286.17	1.095	correct	generate	Run3	generate/STIM_019.jpg
2289.938	1.223	correct	generate	Run3	generate/STIM_019.jpg
2294.192	1.593	correct	generate	Run3	generate/STIM_019.jpg
2297.901	1.485	correct	generate	Run3	generate/STIM_019.jpg
2301.414	1.964	correct	generate	Run3	generate/STIM_020.jpg
2306.617	1.57	correct	generate	Run3	generate/STIM_020.jpg
2312.077	1.968	correct	generate	Run3	generate/STIM_020.jpg
2316.245	1.001	correct	generate	Run3	generate/STIM_020.jpg
2320.483	0.977	correct	generate	Run3	generate/STIM_020.jpg
2323.487	2.149	correct	generate	Run3	generate/STIM_021.jpg
2327.922	1.817	correct	generate	Run3	generate/STIM_021.jpg
2333.503	2.189	correct	generate	Run3	generate/STIM_021.jpg
2339.271	2.277	correct	generate	Run3	generate/STIM_021.jpg
2343.611	1.063	incorrect	generate	Run3	generate/STIM_021.jpg
2347.559	1.319	correct	generate	Run3	generate/STIM_022.jpg
2352.407	1.197	correct	generate	Run3	generate/STIM_022.jpg
2357.017	1.163	correct	generate	Run3	generate/STIM_022.jpg
2361.355	0.972	correct	generate	Run3	generate/STIM_022.jpg
2365.906	2.418	correct	generate	Run3	generate/STIM_022.jpg
2370.508	1.544	correct	generate	Run3	generate/STIM_023.jpg
2375.642	2.168	correct	generate	Run3	generate/STIM_023.jpg
2379.921	1.648	correct	generate	Run3	generate/STIM_023.jpg
2384.6	2.356	correct	generate	Run3	generate/STIM_023.jpg
2390.644	1.6	correct	generate	Run3	generate/STIM_023.jpg
2395.514	1.827	correct	generate	Run3	generate/STIM_024.jpg
2400.968	2.126	correct	generate	Run3	generate/STIM_024.jpg
2407.015	2.026	correct	generate	Run3	generate/STIM_024.jpg
2412.859	1.719	correct	generate	Run3	generate/STIM_024.jpg
2417.608	1.027	correct	generate	Run3	generate/STIM_024.jpg
2421.381	0.666	correct	repeat	Run3	repeat/STIM_000.jpg
2425.166	1.066	correct	repeat	Run3	repeat/STIM_000.jpg
2428.788	0.857	correct	repeat	Run3	repeat/STIM_000.jpg
2433.509	1.14	correct	repeat	Run3	repeat/STIM_000.jpg
2437.337	0.888	correct	repeat	Run3	repeat/STIM_000.jpg
2441.703	0.828	correct	repeat	Run3	repeat/STIM_001.jpg
2445.687	0.903	correct	repeat	Run3	repeat/STIM_001.jpg
2450.349	0.977	correct	repeat	Run3	repeat/STIM_001.jpg
2453.404	1.123	correct	repeat	Run3	repeat/STIM_001.jpg
2458.283	0.756	correct	repeat	Run3	repeat/STIM_001.jpg
2462.385	0.748	correct	repeat	Run3	repeat/STIM_002.jpg
2465.562	0.78	correct	repeat	Run3	repeat/STIM_002.jpg
2469.41	0.875	correct	repeat	Run3	repeat/STIM_002.jpg
2474.237	0.623	correct	repeat	Run3	repeat/STIM_002.jpg
2477.024	0.961	correct	repeat	Run3	repeat/STIM_002.jpg
2480.335	0.759	correct	repeat	Run3	repeat/STIM_003.jpg
2483.603	1.034	correct	repeat	Run3	repeat/STIM_003.jpg
2486.67	0.748	correct	repeat	Run3	repeat/STIM_003.jpg
2490.191	0.766	correct	repeat	Run3	repeat/STIM_003.jpg
2494.524	0.932	correct	repeat	Run3	repeat/STIM_003.jpg
2498.469	1.044	correct	repeat	Run3	repeat/STIM_004.jpg
2502.463	1.123	correct	repeat	Run3	repeat/STIM_004.jpg
2507.303	1.111	correct	repeat	Run3	repeat/STIM_004.jpg
2511.277	1.033	correct	repeat	Run3	repeat/STIM_004.jpg
2516.135	1.15	correct	repeat	Run3	repeat/STIM_004.jpg
2519.559	0.803	correct	repeat	Run3	repeat/STIM_005.jpg
2523.637	0.843	correct	repeat	Run3	repeat/STIM_005.jpg
2528.467	0.901	correct	repeat	Run3	repeat/STIM_005.jpg
2533.189	0.696	correct	repeat	Run3	repeat/STIM_005.jpg
2537.133	0.791	correct	repeat	Run3	repeat/STIM_005.jpg
2541.718	1.105	correct	repeat	Run3	repeat/STIM_006.jpg
2546.617	0.652	correct	repeat	Run3	repeat/STIM_006.jpg
2550.212	0.921	correct	repeat	Run3	repeat/STIM_006.jpg
2554.27	0.992	correct	repeat	Run3	repeat/STIM_006.jpg
2557.458	0.785	correct	repeat	Run3	repeat/STIM_006.jpg
2561.567	0.69	correct	repeat	Run3	repeat/STIM_007.jpg
2565.285	1.001	correct	repeat	Run3	repeat/STIM_007.jpg
2568.702	0.656	correct	repeat	Run3	repeat/STIM_007.jpg
2571.387	0.917	correct	repeat	Run3	repeat/STIM_007.jpg
2574.736	1.028	correct	repeat	Run3	repeat/STIM_007.jpg
2579.61	0.923	correct	repeat	Run3	repeat/STIM_008.jpg
2584.42	1.116	correct	repeat	Run3	repeat/STIM_008.jpg
2588.397	1.053	correct	repeat	Run3	repeat/STIM_008.jpg
2593.28	1.063	correct	repeat	Run3	repeat/STIM_008.jpg
2596.676	1.084	correct	repeat	Run3	repeat/STIM_008.jpg
2599.878	0.913	correct	repeat	Run3	repeat/STIM_009.jpg
2604.188	1.14	correct	repeat	Run3	repeat/STIM_009.jpg
2607.873	1.154	correct	repeat	Run3	repeat/STIM_009.jpg
2611.967	0.716	correct	repeat	Run3	repeat/STIM_009.jpg
2616.487	0.757	correct	repeat	Run3	repeat/STIM_009.jpg
2619.778	0.836	correct	repeat	Run3	repeat/STIM_010.jpg
2623.416	0.84	correct	repeat	Run3	repeat/STIM_010.jpg
2628.0	0.983	correct	repeat	Run3	repeat/STIM_010.jpg
2632.077	0.615	correct	repeat	Run3	repeat/STIM_010.jpg
2635.91	0.663	correct	repeat	Run3	repeat/STIM_010.jpg
2639.823	0.952	correct	repeat	Run3	repeat/STIM_011.jpg
2642.782	0.974	correct	repeat	Run3	repeat/STIM_011.jpg
2647.177	1.067	incorrect	repeat	Run3	repeat/STIM_011.jpg
2651.046	1.086	correct	repeat	Run3	repeat/STIM_011.jpg
2655.87	0.815	correct	repeat	Run3	repeat/STIM_011.jpg
2658.956	0.804	correct	repeat	Run3	repeat/STIM_012.jpg
2661.823	0.854	correct	repeat	Run3	repeat/STIM_012.jpg
2666.045	0.944	correct	repeat	Run3	repeat/STIM_012.jpg
2669.142	0.882	correct	repeat	Run3	repeat/STIM_012.jpg
2672.306	0.896	incorrect	repeat	Run3	repeat/STIM_012.jpg
2676.05	0.71	correct	repeat	Run3	repeat/STIM_013.jpg
2679.608	0.609	incorrect	repeat	Run3	repeat/STIM_013.jpg
2682.822	0.785	correct	repeat	Run3	repeat/STIM_013.jpg
2686.474	0.596	correct	repeat	Run3	repeat/STIM_013.jpg
2690.106	1.065	correct	repeat	Run3	repeat/STIM_013.jpg
2694.551	0.757	correct	repeat	Run3	repeat/STIM_014.jpg
2699.049	1.009	correct	repeat	Run3	repeat/STIM_014.jpg
2702.629	0.69	correct	repeat	Run3	repeat/STIM_014.jpg
2706.884	1.114	correct	repeat	Run3	repeat/STIM_014.jpg
2711.117	0.58	correct	repeat	Run3	repeat/STIM_014.jpg
2715.576	1.221	correct	generate	Run4	generate/STIM_000.jpg
2719.639	1.86	correct	generate	Run4	generate/STIM_000.jpg
2724.268	1.956	correct	generate	Run4	generate/STIM_000.jpg
2728.562	1.511	correct	generate	Run4	generate/STIM_000.jpg
2734.024	1.914	correct	generate	Run4	generate/STIM_000.jpg
2739.355	2.116	correct	generate	Run4	generate/STIM_001.jpg
2743.523	1.333	correct	generate	Run4	generate/STIM_001.jpg
2748.419	1.797	correct	generate	Run4	generate/STIM_001.jpg
2752.676	1.35	correct	generate	Run4	generate/STIM_001.jpg
2756.531	2.083	correct	generate	Run4	generate/STIM_001.jpg
2761.662	1.056	correct	generate	Run4	generate/STIM_002.jpg
2766.418	2.339	correct	generate	Run4	generate/STIM_002.jpg
2771.561	1.738	correct	generate	Run4	generate/STIM_002.jpg
2776.56	2.222	correct	generate	Run4	generate/STIM_002.jpg
2782.273	1.03	correct	generate	Run4	generate/STIM_002.jpg
2786.407	1.09	correct	generate	Run4	generate/STIM_003.jpg
2790.015	1.914	incorrect	generate	Run4	generate/STIM_003.jpg
2794.597	2.368	correct	generate	Run4	generate/STIM_003.jpg
2799.695	1.191	correct	generate	Run4	generate/STIM_003.jpg
2803.194	1.015	correct	generate	Run4	generate/STIM_003.jpg
2808.135	2.303	correct	generate	Run4	generate/STIM_004.jpg
2814.263	1.24	correct	generate	Run4	generate/STIM_004.jpg
2817.624	1.952	correct	generate	Run4	generate/STIM_004.jpg
2822.342	2.09	correct	generate	Run4	generate/STIM_004.jpg
2827.427	1.663	correct	generate	Run4	generate/STIM_004.jpg
2832.993	1.822	correct	generate	Run4	generate/STIM_005.jpg
2838.209	1.761	correct	generate	Run4	generate/STIM_005.jpg
2842.566	1.888	correct	generate	Run4	generate/STIM_005.jpg
2848.165	2.34	correct	generate	Run4	generate/STIM_005.jpg
2853.358	1.97	correct	generate	Run4	generate/STIM_005.jpg
2857.719	1.441	correct	generate	Run4	generate/STIM_006.jpg
2862.894	2.146	correct	generate	Run4	generate/STIM_006.jpg
2868.792	2.329	correct	generate	Run4	generate/STIM_006.jpg
2873.699	1.901	correct	generate	Run4	generate/STIM_006.jpg
2877.659	2.247	correct	generate	Run4	generate/STIM_006.jpg
2883.557	1.557	correct	generate	Run4	generate/STIM_007.jpg
2887.303	1.673	correct	generate	Run4	generate/STIM_007.jpg
2891.339	2.352	correct	generate	Run4	generate/STIM_007.jpg
2895.743	1.406	correct	generate	Run4	generate/STIM_007.jpg
2900.406	1.459	correct	generate	Run4	generate/STIM_007.jpg
2905.344	2.038	correct	generate	Run4	generate/STIM_008.jpg
2910.424	1.85	correct	generate	Run4	generate/STIM_008.jpg
2915.828	2.417	correct	generate	Run4	generate/STIM_008.jpg
2921.433	2.228	correct	generate	Run4	generate/STIM_008.jpg
2926.071	1.173	correct	generate	Run4	generate/STIM_008.jpg
2930.957	1.953	correct	generate	Run4	generate/STIM_009.jpg
2935.564	2.314	correct	generate	Run4	generate/STIM_009.jpg
2940.043	2.337	correct	generate	Run4	generate/STIM_009.jpg
2945.465	1.8	correct	generate	Run4	generate/STIM_009.jpg
2949.582	2.05	correct	generate	Run4	generate/STIM_009.jpg
2955.109	1.259	correct	generate	Run4	generate/STIM_010.jpg
2958.458	1.058	correct	generate	Run4	generate/STIM_010.jpg
2962.754	1.027	correct	generate	Run4	generate/STIM_010.jpg
2966.183	2.04	correct	generate	Run4	generate/STIM_010.jpg
2971.309	2.15	correct	generate	Run4	generate/STIM_010.jpg
2977.044	1.192	correct	generate	Run4	generate/STIM_011.jpg
2981.957	1.279	correct	generate	Run4	generate/STIM_011.jpg
2986.837	1.344	correct	generate	Run4	generate/STIM_011.jpg
2990.789	1.62	correct	generate	Run4	generate/STIM_011.jpg
2994.499	1.819	correct	generate	Run4	generate/STIM_011.jpg
3000.243	1.756	correct	generate	Run4	generate/STIM_012.jpg
3004.118	2.186	correct	generate	Run4	generate/STIM_012.jpg
3008.691	1.065	correct	generate	Run4	generate/STIM_012.jpg
3012.555	1.309	correct	generate	Run4	generate/STIM_012.jpg
3016.824	1.309	correct	generate	Run4	generate/STIM_012.jpg
3021.173	2.044	correct	generate	Run4	generate/STIM_013.jpg
3025.715	1.63	correct	generate	Run4	generate/STIM_013.jpg
3029.868	2.019	correct	generate	Run4	generate/STIM_013.jpg
3035.08	2.114	correct	generate	Run4	generate/STIM_013.jpg
3039.814	1.839	correct	generate	Run4	generate/STIM_013.jpg
3044.706	1.117	correct	generate	Run4	generate/STIM_014.jpg
3048.625	2.145	correct	generate	Run4	generate/STIM_014.jpg
3054.533	1.324	correct	generate	Run4	generate/STIM_014.jpg
3059.18	2.121	correct	generate	Run4	generate/STIM_014.jpg
3065.106	1.986	correct	generate	Run4	generate/STIM_014.jpg
3070.922	1.12	correct	generate	Run4	generate/STIM_015.jpg
3074.291	1.621	correct	generate	Run4	generate/STIM_015.jpg
3078.468	2.133	correct	generate	Run4	generate/STIM_015.jpg
3082.796	1.455	correct	generate	Run4	generate/STIM_015.jpg
3086.543	1.434	correct	generate	Run4	generate/STIM_015.jpg
3091.066	2.081	correct	generate	Run4	generate/STIM_016.jpg
3095.951	1.775	correct	generate	Run4	generate/STIM_016.jpg
3100.777	1.39	correct	generate	Run4	generate/STIM_016.jpg
3104.828	1.86	correct	generate	Run4	generate/STIM_016.jpg
3109.634	1.334	correct	generate	Run4	generate/STIM_016.jpg
3114.498	1.212	correct	generate	Run4	generate/STIM_017.jpg
3118.413	2.414	correct	generate	Run4	generate/STIM_017.jpg
3124.498	1.53	correct	generate	Run4	generate/STIM_017.jpg
3129.685	2.368	correct	generate	Run4	generate/STIM_017.jpg
3135.014	1.794	correct	generate	Run4	generate/STIM_017.jpg
3139.95	2.351	correct	generate	Run4	generate/STIM_018.jpg
3144.632	1.988	correct	generate	Run4	generate/STIM_018.jpg
3150.196	2.065	correct	generate	Run4	generate/STIM_018.jpg
3154.861	1.927	correct	generate	Run4	generate/STIM_018.jpg
3160.241	1.035	correct	generate	Run4	generate/STIM_018.jpg
3164.254	2.028	correct	generate	Run4	generate/STIM_019.jpg
3168.83	1.31	correct	generate	Run4	generate/STIM_019.jpg
3173.336	2.08	correct	generate	Run4	generate/STIM_019.jpg
3177.698	2.085	correct	generate	Run4	generate/STIM_019.jpg
3182.46	2.223	correct	generate	Run4	generate/STIM_019.jpg
3186.919	2.157	correct	generate	Run4	generate/STIM_020.jpg
3192.446	1.493	correct	generate	Run4	generate/STIM_020.jpg
3197.41	2.408	correct	generate	Run4	generate/STIM_020.jpg
3203.649	1.787	correct	generate	Run4	generate/STIM_020.jpg
3209.392	2.178	correct	generate	Run4	generate/STIM_020.jpg
3214.812	1.196	correct	generate	Run4	generate/STIM_021.jpg
3219.815	1.028	correct	generate	Run4	generate/STIM_021.jpg
3223.185	1.43	correct	generate	Run4	generate/STIM_021.jpg
3226.852	1.672	correct	generate	Run4	generate/STIM_021.jpg
3231.219	2.33	correct	generate	Run4	generate/STIM_021.jpg
3237.196	1.013	correct	generate	Run4	generate/STIM_022.jpg
3240.82	1.505	correct	generate	Run4	generate/STIM_022.jpg
3244.561	1.015	correct	generate	Run4	generate/STIM_022.jpg
3248.991	1.242	correct	generate	Run4	generate/STIM_022.jpg
3252.285	2.415	correct	generate	Run4	generate/STIM_022.jpg
3257.789	2.166	correct	generate	Run4	generate/STIM_023.jpg
3262.509	1.266	correct	generate	Run4	generate/STIM_023.jpg
3265.902	1.943	correct	generate	Run4	generate/STIM_023.jpg
3271.435	1.755	correct	generate	Run4	generate/STIM_023.jpg
3275.754	1.611	correct	generate	Run4	generate/STIM_023.jpg
3280.845	1.182	correct	generate	Run4	generate/STIM_024.jpg
3285.084	2.153	correct	generate	Run4	generate/STIM_024.jpg
3291.01	2.068	correct	generate	Run4	generate/STIM_024.jpg
3296.774	2.229	correct	generate	Run4	generate/STIM_024.jpg
3302.476	1.693	correct	generate	Run4	generate/STIM_024.jpg
3307.0	0.623	correct	repeat	Run4	repeat/STIM_000.jpg
3311.182	0.902	incorrect	repeat	Run4	repeat/STIM_000.jpg
3315.484	0.79	correct	repeat	Run4	repeat/STIM_000.jpg
3320.066	0.977	correct	repeat	Run4	repeat/STIM_000.jpg
3324.052	1.04	correct	repeat	Run4	repeat/STIM_000.jpg
3328.767	1.12	correct	repeat	Run4	repeat/STIM_001.jpg
3333.75	0.599	incorrect	repeat	Run4	repeat/STIM_001.jpg
3337.839	1.096	correct	repeat	Run4	repeat/STIM_001.jpg
3342.258	0.762	correct	repeat	Run4	repeat/STIM_001.jpg
3345.472	0.91	correct	repeat	Run4	repeat/STIM_001.jpg
3348.924	0.679	correct	repeat	Run4	repeat/STIM_002.jpg
3352.674	1.022	correct	repeat	Run4	repeat/STIM_002.jpg
3356.052	0.993	correct	repeat	Run4	repeat/STIM_002.jpg
3359.331	0.95	correct	repeat	Run4	repeat/STIM_002.jpg
3363.669	0.74	correct	repeat	Run4	repeat/STIM_002.jpg
3367.406	0.723	correct	repeat	Run4	repeat/STIM_003.jpg
3371.243	0.816	correct	repeat	Run4	repeat/STIM_003.jpg
3374.797	0.62	correct	repeat	Run4	repeat/STIM_003.jpg
3377.963	0.686	correct	repeat	Run4	repeat/STIM_003.jpg
3382.383	0.974	correct	repeat	Run4	repeat/STIM_003.jpg
3386.549	0.957	correct	repeat	Run4	repeat/STIM_004.jpg
3389.824	0.684	correct	repeat	Run4	repeat/STIM_004.jpg
3393.981	0.794	incorrect	repeat	Run4	repeat/STIM_004.jpg
3396.945	0.706	correct	repeat	Run4	repeat/STIM_004.jpg
3400.455	0.662	correct	repeat	Run4	repeat/STIM_004.jpg
3405.006	0.696	correct	repeat	Run4	repeat/STIM_005.jpg
3408.137	1.102	correct	repeat	Run4	repeat/STIM_005.jpg
3412.345	1.092	correct	repeat	Run4	repeat/STIM_005.jpg
3416.002	0.868	correct	repeat	Run4	repeat/STIM_005.jpg
3420.516	0.968	correct	repeat	Run4	repeat/STIM_005.jpg
3424.847	1.103	correct	repeat	Run4	repeat/STIM_006.jpg
3429.485	0.899	correct	repeat	Run4	repeat/STIM_006.jpg
3432.757	0.766	correct	repeat	Run4	repeat/STIM_006.jpg
3436.849	0.967	correct	repeat	Run4	repeat/STIM_006.jpg
3441.335	0.869	correct	repeat	Run4	repeat/STIM_006.jpg
3445.283	0.817	correct	repeat	Run4	repeat/STIM_007.jpg
3449.547	0.914	correct	repeat	Run4	repeat/STIM_007.jpg
3453.852	0.586	correct	repeat	Run4	repeat/STIM_007.jpg
3458.412	0.856	correct	repeat	Run4	repeat/STIM_007.jpg
3461.317	0.991	correct	repeat	Run4	repeat/STIM_007.jpg
3464.42	1.103	correct	repeat	Run4	repeat/STIM_008.jpg
3468.985	0.617	correct	repeat	Run4	repeat/STIM_008.jpg
3471.963	0.628	correct	repeat	Run4	repeat/STIM_008.jpg
3474.9	0.588	correct	repeat	Run4	repeat/STIM_008.jpg
3477.966	0.661	correct	repeat	Run4	repeat/STIM_008.jpg
3481.273	0.648	correct	repeat	Run4	repeat/STIM_009.jpg
3485.405	1.055	correct	repeat	Run4	repeat/STIM_009.jpg
3488.756	0.84	incorrect	repeat	Run4	repeat/STIM_009.jpg
3493.177	1.016	correct	repeat	Run4	repeat/STIM_009.jpg
3497.614	0.972	correct	repeat	Run4	repeat/STIM_009.jpg
3500.627	0.671	correct	repeat	Run4	repeat/STIM_010.jpg
3504.764	0.925	correct	repeat	Run4	repeat/STIM_010.jpg
3507.786	0.626	correct	repeat	Run4	repeat/STIM_010.jpg
3511.678	0.839	incorrect	repeat	Run4	repeat/STIM_010.jpg
3515.672	0.949	correct	repeat	Run4	repeat/STIM_010.jpg
3520.564	1.12	correct	repeat	Run4	repeat/STIM_011.jpg
3525.295	1.109	correct	repeat	Run4	repeat/STIM_011.jpg
3528.984	0.635	correct	repeat	Run4	repeat/STIM_011.jpg
3533.611	0.693	correct	repeat	Run4	repeat/STIM_011.jpg
3536.501	1.019	correct	repeat	Run4	repeat/STIM_011.jpg
3541.518	1.095	correct	repeat	Run4	repeat/STIM_012.jpg
3545.127	0.922	correct	repeat	Run4	repeat/STIM_012.jpg
3549.929	0.598	correct	repeat	Run4	repeat/STIM_012.jpg
3552.661	0.828	correct	repeat	Run4	repeat/STIM_012.jpg
3557.234	0.945	correct	repeat	Run4	repeat/STIM_012.jpg
3560.787	0.622	correct	repeat	Run4	repeat/STIM_013.jpg
3565.264	0.632	incorrect	repeat	Run4	repeat/STIM_013.jpg
3568.635	0.732	correct	repeat	Run4	repeat/STIM_013.jpg
3573.312	0.65	correct	repeat	Run4	repeat/STIM_013.jpg
3577.124	0.861	correct	repeat	Run4	repeat/STIM_013.jpg
3581.984	0.68	correct	repeat	Run4	repeat/STIM_014.jpg
3586.088	0.624	correct	repeat	Run4	repeat/STIM_014.jpg
3590.399	1.108	correct	repeat	Run4	repeat/STIM_014.jpg
3595.214	0.795	correct	repeat	Run4	repeat/STIM_014.jpg
3599.289	0.645	correct	repeat	Run4	repeat/STIM_014.jpg
