onset	duration	accuracy_binary	trial_type	learning_stage	stimulus
0.0	1.606	0	generate	Run1	generate/STIM_000.jpg
4.004	2.745	1	generate	Run1	generate/STIM_000.jpg
9.241	1.442	1	generate	Run1	generate/STIM_000.jpg
14.623	1.614	1	generate	Run1	generate/STIM_000.jpg
19.557	1.813	1	generate	Run1	generate/STIM_000.jpg
25.138	2.634	1	generate	Run1	generate/STIM_001.jpg
31.062	2.893	1	generate	Run1	generate/STIM_001.jpg
36.793	2.728	1	generate	Run1	generate/STIM_001.jpg
42.643	1.144	0	generate	Run1	generate/STIM_001.jpg
46.822	1.89	1	generate	Run1	generate/STIM_001.jpg
52.335	1.552	1	generate	Run1	generate/STIM_002.jpg
56.348	2.167	1	generate	Run1	generate/STIM_002.jpg
62.311	1.195	1	generate	Run1	generate/STIM_002.jpg
66.111	2.54	1	generate	Run1	generate/STIM_002.jpg
72.417	1.822	1	generate	Run1	generate/STIM_002.jpg
77.578	2.558	1	generate	Run1	generate/STIM_003.jpg
82.181	2.871	0	generate	Run1	generate/STIM_003.jpg
87.534	2.539	1	generate	Run1	generate/STIM_003.jpg
92.467	2.444	1	generate	Run1	generate/STIM_003.jpg
98.682	1.237	1	generate	Run1	generate/STIM_003.jpg
102.59	1.588	1	generate	Run1	generate/STIM_004.jpg
107.63	1.446	1	generate	Run1	generate/STIM_004.jpg
112.38	1.315	0	generate	Run1	generate/STIM_004.jpg
115.782	1.693	1	generate	Run1	generate/STIM_004.jpg
120.763	2.02	1	generate	Run1	generate/STIM_004.jpg
126.356	2.954	1	generate	Run1	generate/STIM_005.jpg
132.978	2.91	1	generate	Run1	generate/STIM_005.jpg
138.298	1.406	0	generate	Run1	generate/STIM_005.jpg
143.469	1.421	1	generate	Run1	generate/STIM_005.jpg
148.731	2.268	0	generate	Run1	generate/STIM_005.jpg
154.137	2.862	1	generate	Run1	generate/STIM_006.jpg
160.298	1.957	1	generate	Run1	generate/STIM_006.jpg
166.113	2.173	1	generate	Run1	generate/STIM_006.jpg
170.866	1.753	1	generate	Run1	generate/STIM_006.jpg
175.273	2.403	0	generate	Run1	generate/STIM_006.jpg
180.287	1.626	1	generate	Run1	generate/STIM_007.jpg
185.543	2.916	1	generate	Run1	generate/STIM_007.jpg
192.063	1.77	0	generate	Run1	generate/STIM_007.jpg
197.096	1.969	1	generate	Run1	generate/STIM_007.jpg
202.117	1.587	0	generate	Run1	generate/STIM_007.jpg
207.546	2.292	1	generate	Run1	generate/STIM_008.jpg
212.538	1.603	0	generate	Run1	generate/STIM_008.jpg
216.334	1.36	0	generate	Run1	generate/STIM_008.jpg
220.924	2.163	1	generate	Run1	generate/STIM_008.jpg
225.518	1.264	1	generate	Run1	generate/STIM_008.jpg
230.651	2.386	0	generate	Run1	generate/STIM_009.jpg
235.749	2.354	1	generate	Run1	generate/STIM_009.jpg
241.913	1.166	1	generate	Run1	generate/STIM_009.jpg
245.659	1.241	1	generate	Run1	generate/STIM_009.jpg
250.191	1.698	1	generate	Run1	generate/STIM_009.jpg
255.067	2.466	0	generate	Run1	generate/STIM_010.jpg
259.714	1.981	0	generate	Run1	generate/STIM_010.jpg
264.648	1.302	1	generate	Run1	generate/STIM_010.jpg
269.452	2.336	1	generate	Run1	generate/STIM_010.jpg
274.765	1.882	1	generate	Run1	generate/STIM_010.jpg
279.401	2.62	0	generate	Run1	generate/STIM_011.jpg
284.141	1.54	1	generate	Run1	generate/STIM_011.jpg
288.512	2.602	1	generate	Run1	generate/STIM_011.jpg
294.709	2.631	1	generate	Run1	generate/STIM_011.jpg
301.035	2.25	0	generate	Run1	generate/STIM_011.jpg
306.824	1.438	1	generate	Run1	generate/STIM_012.jpg
310.881	2.221	1	generate	Run1	generate/STIM_012.jpg
316.82	2.182	1	generate	Run1	generate/STIM_012.jpg
322.3	1.291	1	generate	Run1	generate/STIM_012.jpg
326.474	2.05	0	generate	Run1	generate/STIM_012.jpg
332.43	1.849	1	generate	Run1	generate/STIM_013.jpg
336.782	2.629	1	generate	Run1	generate/STIM_013.jpg
341.333	2.79	0	generate	Run1	generate/STIM_013.jpg
347.096	1.378	1	generate	Run1	generate/STIM_013.jpg
351.195	2.217	0	generate	Run1	generate/STIM_013.jpg
356.95	2.286	1	generate	Run1	generate/STIM_014.jpg
361.233	2.437	1	generate	Run1	generate/STIM_014.jpg
366.833	1.326	1	generate	Run1	generate/STIM_014.jpg
371.416	1.65	1	generate	Run1	generate/STIM_014.jpg
375.678	1.501	1	generate	Run1	generate/STIM_014.jpg
379.814	3.115	0	generate	Run1	generate/STIM_015.jpg
386.102	2.912	1	generate	Run1	generate/STIM_015.jpg
392.738	1.307	1	generate	Run1	generate/STIM_015.jpg
396.719	1.922	1	generate	Run1	generate/STIM_015.jpg
401.453	1.333	1	generate	Run1	generate/STIM_015.jpg
405.53	2.275	1	generate	Run1	generate/STIM_016.jpg
409.881	2.157	1	generate	Run1	generate/STIM_016.jpg
415.501	2.11	1	generate	Run1	generate/STIM_016.jpg
421.473	2.273	1	generate	Run1	generate/STIM_016.jpg
426.728	1.391	1	generate	Run1	generate/STIM_016.jpg
430.974	2.904	1	generate	Run1	generate/STIM_017.jpg
437.725	1.641	1	generate	Run1	generate/STIM_017.jpg
441.698	2.433	0	generate	Run1	generate/STIM_017.jpg
447.135	1.175	0	generate	Run1	generate/STIM_017.jpg
451.987	2.155	1	generate	Run1	generate/STIM_017.jpg
457.044	2.892	1	generate	Run1	generate/STIM_018.jpg
462.506	1.373	1	generate	Run1	generate/STIM_018.jpg
466.437	1.482	1	generate	Run1	generate/STIM_018.jpg
470.544	1.896	1	generate	Run1	generate/STIM_018.jpg
474.682	1.16	1	generate	Run1	generate/STIM_018.jpg
479.432	2.242	0	generate	Run1	generate/STIM_019.jpg
485.127	1.228	0	generate	Run1	generate/STIM_019.jpg
489.171	2.716	1	generate	Run1	generate/STIM_019.jpg
494.029	1.448	1	generate	Run1	generate/STIM_019.jpg
499.068	2.474	1	generate	Run1	generate/STIM_019.jpg
503.621	1.298	1	generate	Run1	generate/STIM_020.jpg
507.106	2.604	0	generate	Run1	generate/STIM_020.jpg
513.003	1.438	0	generate	Run1	generate/STIM_020.jpg
517.553	1.991	0	generate	Run1	generate/STIM_020.jpg
523.261	2.176	1	generate	Run1	generate/STIM_020.jpg
528.461	2.699	1	generate	Run1	generate/STIM_021.jpg
534.124	1.313	1	generate	Run1	generate/STIM_021.jpg
538.561	2.296	0	generate	Run1	generate/STIM_021.jpg
543.457	1.578	1	generate	Run1	generate/STIM_021.jpg
548.465	1.282	1	generate	Run1	generate/STIM_021.jpg
552.389	2.148	1	generate	Run1	generate/STIM_022.jpg
558.324	1.86	1	generate	Run1	generate/STIM_022.jpg
564.032	1.945	1	generate	Run1	generate/STIM_022.jpg
569.145	2.539	1	generate	Run1	generate/STIM_022.jpg
574.196	1.884	0	generate	Run1	generate/STIM_022.jpg
579.638	1.835	1	generate	Run1	generate/STIM_023.jpg
584.97	1.929	1	generate	Run1	generate/STIM_023.jpg
589.538	2.321	1	generate	Run1	generate/STIM_023.jpg
595.592	2.028	1	generate	Run1	generate/STIM_023.jpg
600.685	2.208	1	generate	Run1	generate/STIM_023.jpg
606.662	2.172	1	generate	Run1	generate/STIM_024.jpg
611.53	2.006	1	generate	Run1	generate/STIM_024.jpg
617.233	1.262	1	generate	Run1	generate/STIM_024.jpg
620.947	2.108	1	generate	Run1	generate/STIM_024.jpg
626.585	1.371	1	generate	Run1	generate/STIM_024.jpg
630.738	0.66	1	repeat	Run1	repeat/STIM_000.jpg
634.829	0.524	1	repeat	Run1	repeat/STIM_000.jpg
638.355	0.789	1	repeat	Run1	repeat/STIM_000.jpg
642.393	0.875	1	repeat	Run1	repeat/STIM_000.jpg
645.399	0.905	1	repeat	Run1	repeat/STIM_000.jpg
649.178	1.013	1	repeat	Run1	repeat/STIM_001.jpg
653.013	0.95	1	repeat	Run1	repeat/STIM_001.jpg
655.936	0.98	1	repeat	Run1	repeat/STIM_001.jpg
660.446	0.589	1	repeat	Run1	repeat/STIM_001.jpg
663.099	0.749	1	repeat	Run1	repeat/STIM_001.jpg
666.183	0.702	1	repeat	Run1	repeat/STIM_002.jpg
669.249	0.695	1	repeat	Run1	repeat/STIM_002.jpg
672.472	0.592	1	repeat	Run1	repeat/STIM_002.jpg
675.837	0.776	1	repeat	Run1	repeat/STIM_002.jpg
680.173	0.663	1	repeat	Run1	repeat/STIM_002.jpg
684.513	0.922	1	repeat	Run1	repeat/STIM_003.jpg
687.997	0.907	1	repeat	Run1	repeat/STIM_003.jpg
692.468	0.96	1	repeat	Run1	repeat/STIM_003.jpg
696.464	0.767	1	repeat	Run1	repeat/STIM_003.jpg
699.21	0.819	1	repeat	Run1	repeat/STIM_003.jpg
702.732	0.721	1	repeat	Run1	repeat/STIM_004.jpg
705.875	0.648	1	repeat	Run1	repeat/STIM_004.jpg
709.192	0.543	1	repeat	Run1	repeat/STIM_004.jpg
712.835	0.521	1	repeat	Run1	repeat/STIM_004.jpg
715.687	0.916	1	repeat	Run1	repeat/STIM_004.jpg
718.973	0.73	1	repeat	Run1	repeat/STIM_005.jpg
723.517	0.799	1	repeat	Run1	repeat/STIM_005.jpg
727.448	0.726	1	repeat	Run1	repeat/STIM_005.jpg
731.677	0.572	1	repeat	Run1	repeat/STIM_005.jpg
735.257	0.652	0	repeat	Run1	repeat/STIM_005.jpg
738.327	0.764	1	repeat	Run1	repeat/STIM_006.jpg
742.959	0.609	1	repeat	Run1	repeat/STIM_006.jpg
745.875	0.532	1	repeat	Run1	repeat/STIM_006.jpg
749.648	0.546	1	repeat	Run1	repeat/STIM_006.jpg
753.472	0.651	1	repeat	Run1	repeat/STIM_006.jpg
756.802	0.769	1	repeat	Run1	repeat/STIM_007.jpg
760.24	0.865	1	repeat	Run1	repeat/STIM_007.jpg
763.532	0.747	1	repeat	Run1	repeat/STIM_007.jpg
767.55	0.786	1	repeat	Run1	repeat/STIM_007.jpg
771.683	0.567	1	repeat	Run1	repeat/STIM_007.jpg
775.218	0.665	1	repeat	Run1	repeat/STIM_008.jpg
779.113	0.522	1	repeat	Run1	repeat/STIM_008.jpg
782.644	0.651	1	repeat	Run1	repeat/STIM_008.jpg
786.484	0.947	1	repeat	Run1	repeat/STIM_008.jpg
790.574	0.684	1	repeat	Run1	repeat/STIM_008.jpg
793.58	0.652	0	repeat	Run1	repeat/STIM_009.jpg
796.235	0.844	1	repeat	Run1	repeat/STIM_009.jpg
800.553	0.819	1	repeat	Run1	repeat/STIM_009.jpg
803.985	0.874	1	repeat	Run1	repeat/STIM_009.jpg
806.909	0.945	1	repeat	Run1	repeat/STIM_009.jpg
810.206	0.816	1	repeat	Run1	repeat/STIM_010.jpg
813.056	0.721	1	repeat	Run1	repeat/STIM_010.jpg
817.718	0.532	1	repeat	Run1	repeat/STIM_010.jpg
822.026	0.993	0	repeat	Run1	repeat/STIM_010.jpg
826.401	0.897	1	repeat	Run1	repeat/STIM_010.jpg
829.78	0.606	1	repeat	Run1	repeat/STIM_011.jpg
834.122	0.981	1	repeat	Run1	repeat/STIM_011.jpg
838.967	1.023	1	repeat	Run1	repeat/STIM_011.jpg
842.705	0.703	1	repeat	Run1	repeat/STIM_011.jpg
846.621	0.738	1	repeat	Run1	repeat/STIM_011.jpg
850.925	0.774	1	repeat	Run1	repeat/STIM_012.jpg
853.733	0.876	1	repeat	Run1	repeat/STIM_012.jpg
857.999	0.79	1	repeat	Run1	repeat/STIM_012.jpg
861.715	0.653	1	repeat	Run1	repeat/STIM_012.jpg
864.965	0.867	1	repeat	Run1	repeat/STIM_012.jpg
868.943	0.841	1	repeat	Run1	repeat/STIM_013.jpg
872.327	0.909	1	repeat	Run1	repeat/STIM_013.jpg
876.284	1.0	1	repeat	Run1	repeat/STIM_013.jpg
881.078	0.911	1	repeat	Run1	repeat/STIM_013.jpg
885.738	0.784	1	repeat	Run1	repeat/STIM_013.jpg
889.32	0.777	1	repeat	Run1	repeat/STIM_014.jpg
892.566	0.808	1	repeat	Run1	repeat/STIM_014.jpg
896.362	0.664	1	repeat	Run1	repeat/STIM_014.jpg
899.997	0.546	0	repeat	Run1	repeat/STIM_014.jpg
903.268	0.535	1	repeat	Run1	repeat/STIM_014.jpg
907.11	2.158	0	generate	Run2	generate/STIM_000.jpg
911.918	1.726	1	generate	Run2	generate/STIM_000.jpg
916.5	1.047	1	generate	Run2	generate/STIM_000.jpg
921.378	1.306	1	generate	Run2	generate/STIM_000.jpg
925.391	1.484	1	generate	Run2	generate/STIM_000.jpg
929.69	1.793	1	generate	Run2	generate/STIM_001.jpg
934.963	1.255	0	generate	Run2	generate/STIM_001.jpg
938.422	1.702	1	generate	Run2	generate/STIM_001.jpg
943.043	1.573	1	generate	Run2	generate/STIM_001.jpg
946.571	0.963	1	generate	Run2	generate/STIM_001.jpg
949.92	1.121	1	generate	Run2	generate/STIM_002.jpg
954.822	2.474	1	generate	Run2	generate/STIM_002.jpg
961.182	2.243	0	generate	Run2	generate/STIM_002.jpg
966.474	1.038	1	generate	Run2	generate/STIM_002.jpg
970.0	1.8	1	generate	Run2	generate/STIM_002.jpg
974.247	1.46	1	generate	Run2	generate/STIM_003.jpg
977.692	2.303	1	generate	Run2	generate/STIM_003.jpg
982.034	1.71	1	generate	Run2	generate/STIM_003.jpg
986.939	0.984	1	generate	Run2	generate/STIM_003.jpg
990.533	0.9	1	generate	Run2	generate/STIM_003.jpg
994.899	2.323	1	generate	Run2	generate/STIM_004.jpg
1000.65	1.353	1	generate	Run2	generate/STIM_004.jpg
1004.504	1.436	1	generate	Run2	generate/STIM_004.jpg
1009.208	1.185	1	generate	Run2	generate/STIM_004.jpg
1013.21	1.268	1	generate	Run2	generate/STIM_004.jpg
1016.937	2.366	1	generate	Run2	generate/STIM_005.jpg
1021.81	2.06	1	generate	Run2	generate/STIM_005.jpg
1026.245	1.277	1	generate	Run2	generate/STIM_005.jpg
1031.083	0.926	1	generate	Run2	generate/STIM_005.jpg
1035.392	1.944	0	generate	Run2	generate/STIM_005.jpg
1041.207	1.158	1	generate	Run2	generate/STIM_006.jpg
1046.108	2.146	1	generate	Run2	generate/STIM_006.jpg
1051.802	1.078	1	generate	Run2	generate/STIM_006.jpg
1055.496	1.643	1	generate	Run2	generate/STIM_006.jpg
1060.597	1.558	1	generate	Run2	generate/STIM_006.jpg
1065.964	1.94	1	generate	Run2	generate/STIM_007.jpg
1071.385	2.11	1	generate	Run2	generate/STIM_007.jpg
1077.179	1.782	1	generate	Run2	generate/STIM_007.jpg
1082.581	1.306	1	generate	Run2	generate/STIM_007.jpg
1087.636	1.766	1	generate	Run2	generate/STIM_007.jpg
1092.127	1.737	1	generate	Run2	generate/STIM_008.jpg
1095.843	2.266	1	generate	Run2	generate/STIM_008.jpg
1101.712	2.292	1	generate	Run2	generate/STIM_008.jpg
1106.434	1.279	1	generate	Run2	generate/STIM_008.jpg
1110.384	1.434	0	generate	Run2	generate/STIM_008.jpg
1115.046	1.786	0	generate	Run2	generate/STIM_009.jpg
1119.336	1.272	0	generate	Run2	generate/STIM_009.jpg
1123.872	1.586	1	generate	Run2	generate/STIM_009.jpg
1128.803	1.348	1	generate	Run2	generate/STIM_009.jpg
1133.631	1.339	1	generate	Run2	generate/STIM_009.jpg
1138.766	1.525	1	generate	Run2	generate/STIM_010.jpg
1143.621	1.987	0	generate	Run2	generate/STIM_010.jpg
1147.55	1.386	1	generate	Run2	generate/STIM_010.jpg
1152.099	1.262	0	generate	Run2	generate/STIM_010.jpg
1155.834	1.537	1	generate	Run2	generate/STIM_010.jpg
1159.347	2.272	0	generate	Run2	generate/STIM_011.jpg
1165.371	1.359	1	generate	Run2	generate/STIM_011.jpg
1168.754	1.759	1	generate	Run2	generate/STIM_011.jpg
1173.075	1.139	1	generate	Run2	generate/STIM_011.jpg
1177.025	1.846	1	generate	Run2	generate/STIM_011.jpg
1181.422	2.072	1	generate	Run2	generate/STIM_012.jpg
1186.691	1.92	1	generate	Run2	generate/STIM_012.jpg
1192.172	1.504	1	generate	Run2	generate/STIM_012.jpg
1197.525	1.798	1	generate	Run2	generate/STIM_012.jpg
1202.009	1.798	1	generate	Run2	generate/STIM_012.jpg
1206.736	1.518	0	generate	Run2	generate/STIM_013.jpg
1211.781	2.275	0	generate	Run2	generate/STIM_013.jpg
1216.438	1.608	1	generate	Run2	generate/STIM_013.jpg
1221.862	1.371	1	generate	Run2	generate/STIM_013.jpg
1225.978	1.714	0	generate	Run2	generate/STIM_013.jpg
1230.444	1.831	1	generate	Run2	generate/STIM_014.jpg
1235.988	2.346	1	generate	Run2	generate/STIM_014.jpg
1241.255	2.063	1	generate	Run2	generate/STIM_014.jpg
1246.027	1.011	1	generate	Run2	generate/STIM_014.jpg
1250.853	1.495	0	generate	Run2	generate/STIM_014.jpg
1254.588	2.255	1	generate	Run2	generate/STIM_015.jpg
1259.001	1.255	1	generate	Run2	generate/STIM_015.jpg
1263.159	1.582	1	generate	Run2	generate/STIM_015.jpg
1268.458	0.948	1	generate	Run2	generate/STIM_015.jpg
1273.245	1.443	1	generate	Run2	generate/STIM_015.jpg
1277.413	2.644	1	generate	Run2	generate/STIM_016.jpg
1282.022	1.834	1	generate	Run2	generate/STIM_016.jpg
1286.949	1.097	1	generate	Run2	generate/STIM_016.jpg
1290.579	0.931	1	generate	Run2	generate/STIM_016.jpg
1294.823	1.241	1	generate	Run2	generate/STIM_016.jpg
1299.427	1.44	1	generate	Run2	generate/STIM_017.jpg
1303.886	1.95	0	generate	Run2	generate/STIM_017.jpg
1308.649	1.412	1	generate	Run2	generate/STIM_017.jpg
1312.923	1.923	1	generate	Run2	generate/STIM_017.jpg
1317.893	1.268	1	generate	Run2	generate/STIM_017.jpg
1322.696	1.498	1	generate	Run2	generate/STIM_018.jpg
1326.482	2.158	1	generate	Run2	generate/STIM_018.jpg
1331.193	1.236	1	generate	Run2	generate/STIM_018.jpg
1335.218	1.517	1	generate	Run2	generate/STIM_018.jpg
1339.548	2.035	1	generate	Run2	generate/STIM_018.jpg
1343.986	1.887	1	generate	Run2	generate/STIM_019.jpg
1349.126	2.128	1	generate	Run2	generate/STIM_019.jpg
1354.167	1.674	1	generate	Run2	generate/STIM_019.jpg
1358.908	1.469	1	generate	Run2	generate/STIM_019.jpg
1362.561	1.55	1	generate	Run2	generate/STIM_019.jpg
1367.129	2.504	1	generate	Run2	generate/STIM_020.jpg
1372.549	1.668	1	generate	Run2	generate/STIM_020.jpg
1376.51	1.505	1	generate	Run2	generate/STIM_020.jpg
1381.608	1.896	1	generate	Run2	generate/STIM_020.jpg
1385.897	1.065	1	generate	Run2	generate/STIM_020.jpg
1390.775	1.389	0	generate	Run2	generate/STIM_021.jpg
1394.652	1.694	1	generate	Run2	generate/STIM_021.jpg
1399.527	1.994	1	generate	Run2	generate/STIM_021.jpg
1403.961	1.837	1	generate	Run2	generate/STIM_021.jpg
1408.482	1.978	1	generate	Run2	generate/STIM_021.jpg
1413.727	1.269	1	generate	Run2	generate/STIM_022.jpg
1416.998	1.624	1	generate	Run2	generate/STIM_022.jpg
1422.182	1.638	1	generate	Run2	generate/STIM_022.jpg
1427.73	0.977	1	generate	Run2	generate/STIM_022.jpg
1432.649	1.975	1	generate	Run2	generate/STIM_022.jpg
1436.678	2.03	1	generate	Run2	generate/STIM_023.jpg
1442.606	1.476	1	generate	Run2	generate/STIM_023.jpg
1447.604	1.216	1	generate	Run2	generate/STIM_023.jpg
1452.083	1.896	1	generate	Run2	generate/STIM_023.jpg
1456.433	1.221	1	generate	Run2	generate/STIM_023.jpg
1461.119	1.412	1	generate	Run2	generate/STIM_024.jpg
1465.769	2.089	1	generate	Run2	generate/STIM_024.jpg
1470.879	2.273	0	generate	Run2	generate/STIM_024.jpg
1475.524	1.279	1	generate	Run2	generate/STIM_024.jpg
1480.357	1.485	1	generate	Run2	generate/STIM_024.jpg
1485.5	0.643	1	repeat	Run2	repeat/STIM_000.jpg
1488.761	0.798	0	repeat	Run2	repeat/STIM_000.jpg
1492.018	0.998	1	repeat	Run2	repeat/STIM_000.jpg
1496.468	0.601	1	repeat	Run2	repeat/STIM_000.jpg
1499.136	0.556	1	repeat	Run2	repeat/STIM_000.jpg
1503.297	0.733	1	repeat	Run2	repeat/STIM_001.jpg
1507.799	0.92	1	repeat	Run2	repeat/STIM_001.jpg
1511.123	0.656	0	repeat	Run2	repeat/STIM_001.jpg
1514.092	0.925	1	repeat	Run2	repeat/STIM_001.jpg
1518.545	0.992	1	repeat	Run2	repeat/STIM_001.jpg
1522.613	0.828	1	repeat	Run2	repeat/STIM_002.jpg
1527.249	0.926	1	repeat	Run2	repeat/STIM_002.jpg
1530.141	0.869	1	repeat	Run2	repeat/STIM_002.jpg
1534.501	0.99	1	repeat	Run2	repeat/STIM_002.jpg
1539.264	0.556	1	repeat	Run2	repeat/STIM_002.jpg
1543.732	0.685	1	repeat	Run2	repeat/STIM_003.jpg
1547.778	0.604	0	repeat	Run2	repeat/STIM_003.jpg
1551.494	0.817	1	repeat	Run2	repeat/STIM_003.jpg
1554.65	0.808	1	repeat	Run2	repeat/STIM_003.jpg
1557.62	0.864	1	repeat	Run2	repeat/STIM_003.jpg
1561.782	0.817	1	repeat	Run2	repeat/STIM_004.jpg
1566.256	0.716	1	repeat	Run2	repeat/STIM_004.jpg
1570.279	0.875	1	repeat	Run2	repeat/STIM_004.jpg
1574.192	0.673	1	repeat	Run2	repeat/STIM_004.jpg
1578.761	0.955	1	repeat	Run2	repeat/STIM_004.jpg
1583.518	0.688	1	repeat	Run2	repeat/STIM_005.jpg
1587.335	0.942	1	repeat	Run2	repeat/STIM_005.jpg
1591.692	0.814	1	repeat	Run2	repeat/STIM_005.jpg
1594.992	0.653	1	repeat	Run2	repeat/STIM_005.jpg
1597.673	0.537	1	repeat	Run2	repeat/STIM_005.jpg
1600.478	0.843	1	repeat	Run2	repeat/STIM_006.jpg
1603.792	0.715	1	repeat	Run2	repeat/STIM_006.jpg
1606.991	0.99	1	repeat	Run2	repeat/STIM_006.jpg
1610.31	0.639	1	repeat	Run2	repeat/STIM_006.jpg
1613.957	0.923	1	repeat	Run2	repeat/STIM_006.jpg
1618.172	0.94	1	repeat	Run2	repeat/STIM_007.jpg
1622.721	0.601	1	repeat	Run2	repeat/STIM_007.jpg
1626.629	0.843	1	repeat	Run2	repeat/STIM_007.jpg
1630.191	0.545	1	repeat	Run2	repeat/STIM_007.jpg
1634.364	0.753	1	repeat	Run2	repeat/STIM_007.jpg
1638.205	0.627	1	repeat	Run2	repeat/STIM_008.jpg
1642.017	0.63	1	repeat	Run2	repeat/STIM_008.jpg
1646.468	0.601	1	repeat	Run2	repeat/STIM_008.jpg
1649.787	0.864	1	repeat	Run2	repeat/STIM_008.jpg
1652.646	0.999	1	repeat	Run2	repeat/STIM_008.jpg
1655.753	0.574	1	repeat	Run2	repeat/STIM_009.jpg
1659.783	0.926	1	repeat	Run2	repeat/STIM_009.jpg
1662.91	0.546	1	repeat	Run2	repeat/STIM_009.jpg
1665.527	0.73	1	repeat	Run2	repeat/STIM_009.jpg
1670.11	0.789	1	repeat	Run2	repeat/STIM_009.jpg
1674.005	0.88	0	repeat	Run2	repeat/STIM_010.jpg
1677.915	1.028	1	repeat	Run2	repeat/STIM_010.jpg
1681.208	0.919	1	repeat	Run2	repeat/STIM_010.jpg
1684.809	1.019	1	repeat	Run2	repeat/STIM_010.jpg
1688.163	0.683	1	repeat	Run2	repeat/STIM_010.jpg
1692.62	0.769	1	repeat	Run2	repeat/STIM_011.jpg
1696.084	0.959	1	repeat	Run2	repeat/STIM_011.jpg
1700.292	0.688	1	repeat	Run2	repeat/STIM_011.jpg
1703.196	0.729	1	repeat	Run2	repeat/STIM_011.jpg
1706.336	0.698	1	repeat	Run2	repeat/STIM_011.jpg
1710.421	1.003	1	repeat	Run2	repeat/STIM_012.jpg
1714.347	0.542	1	repeat	Run2	repeat/STIM_012.jpg
1718.228	0.995	1	repeat	Run2	repeat/STIM_012.jpg
1723.166	0.522	1	repeat	Run2	repeat/STIM_012.jpg
1726.069	0.546	1	repeat	Run2	repeat/STIM_012.jpg
1729.928	1.038	1	repeat	Run2	repeat/STIM_013.jpg
1734.003	0.894	1	repeat	Run2	repeat/STIM_013.jpg
1738.028	0.788	1	repeat	Run2	repeat/STIM_013.jpg
1742.663	0.614	1	repeat	Run2	repeat/STIM_013.jpg
1745.922	0.638	1	repeat	Run2	repeat/STIM_013.jpg
1749.501	0.614	1	repeat	Run2	repeat/STIM_014.jpg
1753.42	0.763	1	repeat	Run2	repeat/STIM_014.jpg
1756.438	1.014	1	repeat	Run2	repeat/STIM_014.jpg
1761.324	0.584	1	repeat	Run2	repeat/STIM_014.jpg
1765.081	0.735	1	repeat	Run2	repeat/STIM_014.jpg
1768.352	1.652	1	generate	Run3	generate/STIM_000.jpg
1772.194	2.058	1	generate	Run3	generate/STIM_000.jpg
1776.253	0.994	0	generate	Run3	generate/STIM_000.jpg
1780.713	1.674	1	generate	Run3	generate/STIM_000.jpg
1785.115	1.743	1	generate	Run3	generate/STIM_000.jpg
1789.715	2.109	1	generate	Run3	generate/STIM_001.jpg
1794.922	2.028	1	generate	Run3	generate/STIM_001.jpg
1800.686	1.516	1	generate	Run3	generate/STIM_001.jpg
1805.805	1.573	0	generate	Run3	generate/STIM_001.jpg
1809.327	1.159	1	generate	Run3	generate/STIM_001.jpg
1813.468	1.596	1	generate	Run3	generate/STIM_002.jpg
1817.512	1.419	1	generate	Run3	generate/STIM_002.jpg
1822.455	1.947	1	generate	Run3	generate/STIM_002.jpg
1827.458	1.631	1	generate	Run3	generate/STIM_002.jpg
1831.489	0.958	1	generate	Run3	generate/STIM_002.jpg
1836.007	1.196	1	generate	Run3	generate/STIM_003.jpg
1840.898	1.936	1	generate	Run3	generate/STIM_003.jpg
1846.111	1.707	1	generate	Run3	generate/STIM_003.jpg
1851.342	1.742	1	generate	Run3	generate/STIM_003.jpg
1856.598	1.705	1	generate	Run3	generate/STIM_003.jpg
1860.618	1.411	1	generate	Run3	generate/STIM_004.jpg
1865.26	1.915	1	generate	Run3	generate/STIM_004.jpg
1870.314	1.133	1	generate	Run3	generate/STIM_004.jpg
1874.464	1.239	1	generate	Run3	generate/STIM_004.jpg
1878.607	1.743	1	generate	Run3	generate/STIM_004.jpg
1882.82	1.21	0	generate	Run3	generate/STIM_005.jpg
1886.807	1.791	1	generate	Run3	generate/STIM_005.jpg
1891.107	1.565	1	generate	Run3	generate/STIM_005.jpg
1895.373	1.796	1	generate	Run3	generate/STIM_005.jpg
1900.352	1.71	1	generate	Run3	generate/STIM_005.jpg
1904.816	1.568	0	generate	Run3	generate/STIM_006.jpg
1909.094	1.662	1	generate	Run3	generate/STIM_006.jpg
1914.231	2.064	1	generate	Run3	generate/STIM_006.jpg
1919.35	1.597	1	generate	Run3	generate/STIM_006.jpg
1924.782	1.291	1	generate	Run3	generate/STIM_006.jpg
1929.934	1.296	1	generate	Run3	generate/STIM_007.jpg
1934.554	1.163	1	generate	Run3	generate/STIM_007.jpg
1938.593	1.559	1	generate	Run3	generate/STIM_007.jpg
1943.801	2.18	1	generate	Run3	generate/STIM_007.jpg
1948.642	1.152	1	generate	Run3	generate/STIM_007.jpg
1952.652	1.57	1	generate	Run3	generate/STIM_008.jpg
1957.165	1.434	1	generate	Run3	generate/STIM_008.jpg
1961.67	2.164	1	generate	Run3	generate/STIM_008.jpg
1967.085	1.504	1	generate	Run3	generate/STIM_008.jpg
1971.698	1.539	0	generate	Run3	generate/STIM_008.jpg
1976.867	2.056	1	generate	Run3	generate/STIM_009.jpg
1981.969	1.559	1	generate	Run3	generate/STIM_009.jpg
1986.864	1.294	1	generate	Run3	generate/STIM_009.jpg
1990.484	2.126	1	generate	Run3	generate/STIM_009.jpg
1995.482	0.98	1	generate	Run3	generate/STIM_009.jpg
1999.185	1.268	1	generate	Run3	generate/STIM_010.jpg
2002.533	1.895	1	generate	Run3	generate/STIM_010.jpg
2008.272	1.069	1	generate	Run3	generate/STIM_010.jpg
2011.31	1.658	1	generate	Run3	generate/STIM_010.jpg
2015.89	1.804	1	generate	Run3	generate/STIM_010.jpg
2019.676	1.946	1	generate	Run3	generate/STIM_011.jpg
2024.764	1.527	0	generate	Run3	generate/STIM_011.jpg
2028.66	0.939	1	generate	Run3	generate/STIM_011.jpg
2031.947	1.01	1	generate	Run3	generate/STIM_011.jpg
2036.007	1.799	1	generate	Run3	generate/STIM_011.jpg
2041.604	1.782	1	generate	Run3	generate/STIM_012.jpg
2045.793	0.992	1	generate	Run3	generate/STIM_012.jpg
2049.108	1.621	1	generate	Run3	generate/STIM_012.jpg
2054.233	1.546	1	generate	Run3	generate/STIM_012.jpg
2057.823	1.639	1	generate	Run3	generate/STIM_012.jpg
2061.853	1.303	1	generate	Run3	generate/STIM_013.jpg
2066.433	1.167	0	generate	Run3	generate/STIM_013.jpg
2070.891	1.963	0	generate	Run3	generate/STIM_013.jpg
2074.827	1.124	0	generate	Run3	generate/STIM_013.jpg
2079.067	1.145	1	generate	Run3	generate/STIM_013.jpg
2083.934	1.48	1	generate	Run3	generate/STIM_014.jpg
2088.125	1.156	1	generate	Run3	generate/STIM_014.jpg
2092.697	2.069	1	generate	Run3	generate/STIM_014.jpg
2098.416	0.931	1	generate	Run3	generate/STIM_014.jpg
2103.199	2.096	0	generate	Run3	generate/STIM_014.jpg
2107.455	1.659	1	generate	Run3	generate/STIM_015.jpg
2111.461	1.258	1	generate	Run3	generate/STIM_015.jpg
2115.354	1.516	1	generate	Run3	generate/STIM_015.jpg
2119.65	1.604	1	generate	Run3	generate/STIM_015.jpg
2123.898	1.033	1	generate	Run3	generate/STIM_015.jpg
2127.919	1.104	1	generate	Run3	generate/STIM_016.jpg
2132.082	1.133	1	generate	Run3	generate/STIM_016.jpg
2136.241	1.774	1	generate	Run3	generate/STIM_016.jpg
2141.35	2.056	1	generate	Run3	generate/STIM_016.jpg
2146.471	1.752	1	generate	Run3	generate/STIM_016.jpg
2151.721	1.414	0	generate	Run3	generate/STIM_017.jpg
2156.15	1.638	1	generate	Run3	generate/STIM_017.jpg
2161.022	1.074	1	generate	Run3	generate/STIM_017.jpg
2164.139	0.89	1	generate	Run3	generate/STIM_017.jpg
2168.776	0.925	1	generate	Run3	generate/STIM_017.jpg
2171.805	1.038	0	generate	Run3	generate/STIM_018.jpg
2176.651	1.333	0	generate	Run3	generate/STIM_018.jpg
2180.958	2.118	1	generate	Run3	generate/STIM_018.jpg
2186.16	1.608	1	generate	Run3	generate/STIM_018.jpg
2191.082	1.166	1	generate	Run3	generate/STIM_018.jpg
2195.639	1.095	1	generate	Run3	generate/STIM_019.jpg
2199.805	1.472	1	generate	Run3	generate/STIM_019.jpg
2205.076	1.139	1	generate	Run3	generate/STIM_019.jpg
2209.699	1.47	1	generate	Run3	generate/STIM_019.jpg
2214.774	0.98	1	generate	Run3	generate/STIM_019.jpg
2217.884	1.836	1	generate	Run3	generate/STIM_020.jpg
2221.915	1.474	1	generate	Run3	generate/STIM_020.jpg
2225.827	1.949	0	generate	Run3	generate/STIM_020.jpg
2230.016	1.731	1	generate	Run3	generate/STIM_020.jpg
2234.48	0.933	1	generate	Run3	generate/STIM_020.jpg
2237.682	2.052	0	generate	Run3	generate/STIM_021.jpg
2242.762	2.173	1	generate	Run3	generate/STIM_021.jpg
2247.49	0.919	1	generate	Run3	generate/STIM_021.jpg
2251.356	1.642	1	generate	Run3	generate/STIM_021.jpg
2255.025	1.413	0	generate	Run3	generate/STIM_021.jpg
2258.951	2.075	1	generate	Run3	generate/STIM_022.jpg
2263.944	1.917	1	generate	Run3	generate/STIM_022.jpg
2268.26	1.141	1	generate	Run3	generate/STIM_022.jpg
2271.364	1.667	1	generate	Run3	generate/STIM_022.jpg
2276.392	1.245	1	generate	Run3	generate/STIM_022.jpg
2280.232	1.771	1	generate	Run3	generate/STIM_023.jpg
2284.261	1.641	1	generate	Run3	generate/STIM_023.jpg
2289.466	0.934	1	generate	Run3	generate/STIM_023.jpg
2293.416	1.61	1	generate	Run3	generate/STIM_023.jpg
2297.326	2.038	1	generate	Run3	generate/STIM_023.jpg
2302.582	0.999	0	generate	Run3	generate/STIM_024.jpg
2306.126	0.894	1	generate	Run3	generate/STIM_024.jpg
2310.927	2.042	1	generate	Run3	generate/STIM_024.jpg
2315.847	1.262	1	generate	Run3	generate/STIM_024.jpg
2319.705	1.946	1	generate	Run3	generate/STIM_024.jpg
2323.943	0.558	1	repeat	Run3	repeat/STIM_000.jpg
2327.798	0.96	1	repeat	Run3	repeat/STIM_000.jpg
2331.926	0.698	1	repeat	Run3	repeat/STIM_000.jpg
2336.497	1.032	1	repeat	Run3	repeat/STIM_000.jpg
2340.036	0.783	1	repeat	Run3	repeat/STIM_000.jpg
2342.881	0.641	1	repeat	Run3	repeat/STIM_001.jpg
2345.863	1.003	1	repeat	Run3	repeat/STIM_001.jpg
2349.784	0.966	1	repeat	Run3	repeat/STIM_001.jpg
2353.317	0.783	1	repeat	Run3	repeat/STIM_001.jpg
2356.997	0.758	1	repeat	Run3	repeat/STIM_001.jpg
2361.054	0.801	1	repeat	Run3	repeat/STIM_002.jpg
2364.526	0.859	1	repeat	Run3	repeat/STIM_002.jpg
2367.637	0.884	1	repeat	Run3	repeat/STIM_002.jpg
2372.474	0.906	1	repeat	Run3	repeat/STIM_002.jpg
2376.684	0.604	1	repeat	Run3	repeat/STIM_002.jpg
2381.174	0.989	1	repeat	Run3	repeat/STIM_003.jpg
2385.368	0.824	1	repeat	Run3	repeat/STIM_003.jpg
2389.598	0.9	1	repeat	Run3	repeat/STIM_003.jpg
2393.773	0.765	1	repeat	Run3	repeat/STIM_003.jpg
2396.923	0.83	1	repeat	Run3	repeat/STIM_003.jpg
2400.681	0.697	1	repeat	Run3	repeat/STIM_004.jpg
2404.164	0.549	1	repeat	Run3	repeat/STIM_004.jpg
2407.333	0.903	1	repeat	Run3	repeat/STIM_004.jpg
2411.19	0.981	1	repeat	Run3	repeat/STIM_004.jpg
2414.584	0.944	1	repeat	Run3	repeat/STIM_004.jpg
2418.416	0.778	1	repeat	Run3	repeat/STIM_005.jpg
2421.434	0.803	1	repeat	Run3	repeat/STIM_005.jpg
2426.193	0.69	1	repeat	Run3	repeat/STIM_005.jpg
2430.0	0.617	1	repeat	Run3	repeat/STIM_005.jpg
2434.45	1.036	1	repeat	Run3	repeat/STIM_005.jpg
2439.01	0.913	1	repeat	Run3	repeat/STIM_006.jpg
2442.314	0.997	1	repeat	Run3	repeat/STIM_006.jpg
2446.198	1.017	1	repeat	Run3	repeat/STIM_006.jpg
2449.911	0.826	1	repeat	Run3	repeat/STIM_006.jpg
2454.103	0.912	1	repeat	Run3	repeat/STIM_006.jpg
2457.858	1.018	1	repeat	Run3	repeat/STIM_007.jpg
2461.48	0.716	1	repeat	Run3	repeat/STIM_007.jpg
2464.193	0.694	1	repeat	Run3	repeat/STIM_007.jpg
2467.073	0.707	1	repeat	Run3	repeat/STIM_007.jpg
2469.798	0.716	1	repeat	Run3	repeat/STIM_007.jpg
2474.467	0.838	1	repeat	Run3	repeat/STIM_008.jpg
2479.033	0.78	1	repeat	Run3	repeat/STIM_008.jpg
2483.632	0.895	1	repeat	Run3	repeat/STIM_008.jpg
2487.664	0.883	1	repeat	Run3	repeat/STIM_008.jpg
2491.933	0.541	1	repeat	Run3	repeat/STIM_008.jpg
2494.935	0.799	1	repeat	Run3	repeat/STIM_009.jpg
2498.533	0.902	1	repeat	Run3	repeat/STIM_009.jpg
2502.072	0.593	1	repeat	Run3	repeat/STIM_009.jpg
2505.921	0.941	1	repeat	Run3	repeat/STIM_009.jpg
2510.144	0.815	1	repeat	Run3	repeat/STIM_009.jpg
2512.952	0.777	1	repeat	Run3	repeat/STIM_010.jpg
2515.706	0.713	1	repeat	Run3	repeat/STIM_010.jpg
2518.888	0.671	1	repeat	Run3	repeat/STIM_010.jpg
2523.064	0.552	1	repeat	Run3	repeat/STIM_010.jpg
2527.068	0.591	1	repeat	Run3	repeat/STIM_010.jpg
2531.211	0.693	1	repeat	Run3	repeat/STIM_011.jpg
2535.287	0.998	1	repeat	Run3	repeat/STIM_011.jpg
2539.84	0.816	0	repeat	Run3	repeat/STIM_011.jpg
2543.931	0.588	1	repeat	Run3	repeat/STIM_011.jpg
2547.459	0.697	1	repeat	Run3	repeat/STIM_011.jpg
2551.893	0.993	1	repeat	Run3	repeat/STIM_012.jpg
2556.254	0.855	1	repeat	Run3	repeat/STIM_012.jpg
2560.146	0.6	1	repeat	Run3	repeat/STIM_012.jpg
2564.689	0.728	1	repeat	Run3	repeat/STIM_012.jpg
2568.295	0.787	1	repeat	Run3	repeat/STIM_012.jpg
2571.643	0.736	1	repeat	Run3	repeat/STIM_013.jpg
2576.09	0.965	0	repeat	Run3	repeat/STIM_013.jpg
2580.953	0.541	1	repeat	Run3	repeat/STIM_013.jpg
2584.744	0.703	1	repeat	Run3	repeat/STIM_013.jpg
2588.475	0.65	1	repeat	Run3	repeat/STIM_013.jpg
2592.781	0.693	1	repeat	Run3	repeat/STIM_014.jpg
2596.133	0.689	0	repeat	Run3	repeat/STIM_014.jpg
2600.363	0.682	1	repeat	Run3	repeat/STIM_014.jpg
2604.776	0.962	1	repeat	Run3	repeat/STIM_014.jpg
2608.841	0.602	1	repeat	Run3	repeat/STIM_014.jpg
2611.608	0.995	1	generate	Run4	generate/STIM_000.jpg
2614.921	2.092	1	generate	Run4	generate/STIM_000.jpg
2620.88	0.895	1	generate	Run4	generate/STIM_000.jpg
2624.904	1.129	1	generate	Run4	generate/STIM_000.jpg
2629.704	1.438	1	generate	Run4	generate/STIM_000.jpg
2634.118	1.925	1	generate	Run4	generate/STIM_001.jpg
2638.495	1.951	1	generate	Run4	generate/STIM_001.jpg
2642.866	1.918	1	generate	Run4	generate/STIM_001.jpg
2647.477	1.649	1	generate	Run4	generate/STIM_001.jpg
2651.123	1.734	1	generate	Run4	generate/STIM_001.jpg
2655.763	1.382	1	generate	Run4	generate/STIM_002.jpg
2660.653	1.195	1	generate	Run4	generate/STIM_002.jpg
2664.225	2.021	1	generate	Run4	generate/STIM_002.jpg
2668.92	1.379	0	generate	Run4	generate/STIM_002.jpg
2673.344	1.789	1	generate	Run4	generate/STIM_002.jpg
2678.219	1.81	1	generate	Run4	generate/STIM_003.jpg
2682.408	2.042	0	generate	Run4	generate/STIM_003.jpg
2687.813	1.872	1	generate	Run4	generate/STIM_003.jpg
2693.195	2.09	1	generate	Run4	generate/STIM_003.jpg
2697.522	1.713	1	generate	Run4	generate/STIM_003.jpg
2702.404	1.034	0	generate	Run4	generate/STIM_004.jpg
2706.199	1.107	1	generate	Run4	generate/STIM_004.jpg
2710.633	1.476	1	generate	Run4	generate/STIM_004.jpg
2714.499	1.455	1	generate	Run4	generate/STIM_004.jpg
2718.516	1.921	1	generate	Run4	generate/STIM_004.jpg
2723.376	2.108	1	generate	Run4	generate/STIM_005.jpg
2728.329	1.665	1	generate	Run4	generate/STIM_005.jpg
2733.174	1.847	1	generate	Run4	generate/STIM_005.jpg
2737.971	1.434	1	generate	Run4	generate/STIM_005.jpg
2742.473	1.945	1	generate	Run4	generate/STIM_005.jpg
2747.652	1.317	1	generate	Run4	generate/STIM_006.jpg
2752.495	0.937	1	generate	Run4	generate/STIM_006.jpg
2756.87	1.864	1	generate	Run4	generate/STIM_006.jpg
2761.183	1.241	1	generate	Run4	generate/STIM_006.jpg
2766.264	2.027	1	generate	Run4	generate/STIM_006.jpg
2771.265	1.18	1	generate	Run4	generate/STIM_007.jpg
2775.273	0.974	1	generate	Run4	generate/STIM_007.jpg
2778.76	1.07	1	generate	Run4	generate/STIM_007.jpg
2783.199	1.231	1	generate	Run4	generate/STIM_007.jpg
2786.824	1.396	1	generate	Run4	generate/STIM_007.jpg
2791.592	1.932	1	generate	Run4	generate/STIM_008.jpg
2797.235	2.108	1	generate	Run4	generate/STIM_008.jpg
2802.574	2.025	1	generate	Run4	generate/STIM_008.jpg
2807.551	1.185	1	generate	Run4	generate/STIM_008.jpg
2811.979	1.606	1	generate	Run4	generate/STIM_008.jpg
2816.495	2.11	1	generate	Run4	generate/STIM_009.jpg
2821.933	2.018	1	generate	Run4	generate/STIM_009.jpg
2826.261	1.673	1	generate	Run4	generate/STIM_009.jpg
2830.305	1.779	1	generate	Run4	generate/STIM_009.jpg
2834.919	1.879	1	generate	Run4	generate/STIM_009.jpg
2838.907	1.218	1	generate	Run4	generate/STIM_010.jpg
2842.824	2.132	1	generate	Run4	generate/STIM_010.jpg
2848.113	1.45	1	generate	Run4	generate/STIM_010.jpg
2852.36	1.466	1	generate	Run4	generate/STIM_010.jpg
2857.265	1.794	1	generate	Run4	generate/STIM_010.jpg
2862.521	0.912	1	generate	Run4	generate/STIM_011.jpg
2867.062	1.258	1	generate	Run4	generate/STIM_011.jpg
2872.199	0.908	1	generate	Run4	generate/STIM_011.jpg
2875.811	1.729	1	generate	Run4	generate/STIM_011.jpg
2880.735	1.31	1	generate	Run4	generate/STIM_011.jpg
2885.676	1.279	1	generate	Run4	generate/STIM_012.jpg
2889.597	1.317	1	generate	Run4	generate/STIM_012.jpg
2894.592	1.423	1	generate	Run4	generate/STIM_012.jpg
2899.699	1.034	1	generate	Run4	generate/STIM_012.jpg
2903.398	1.048	1	generate	Run4	generate/STIM_012.jpg
2906.692	0.919	1	generate	Run4	generate/STIM_013.jpg
2911.045	2.144	1	generate	Run4	generate/STIM_013.jpg
2916.441	1.96	1	generate	Run4	generate/STIM_013.jpg
2921.537	1.86	1	generate	Run4	generate/STIM_013.jpg
2925.4	1.433	1	generate	Run4	generate/STIM_013.jpg
2929.714	1.7	1	generate	Run4	generate/STIM_014.jpg
2934.44	2.058	1	generate	Run4	generate/STIM_014.jpg
2938.757	1.786	1	generate	Run4	generate/STIM_014.jpg
2944.459	1.17	1	generate	Run4	generate/STIM_014.jpg
2949.511	1.647	1	generate	Run4	generate/STIM_014.jpg
2953.881	2.009	1	generate	Run4	generate/STIM_015.jpg
2958.308	1.557	1	generate	Run4	generate/STIM_015.jpg
2962.805	1.987	1	generate	Run4	generate/STIM_015.jpg
2968.6	1.303	1	generate	Run4	generate/STIM_015.jpg
2972.012	1.76	1	generate	Run4	generate/STIM_015.jpg
2975.723	2.145	1	generate	Run4	generate/STIM_016.jpg
2981.639	1.373	1	generate	Run4	generate/STIM_016.jpg
2985.978	1.704	1	generate	Run4	generate/STIM_016.jpg
2989.901	2.155	1	generate	Run4	generate/STIM_016.jpg
2995.931	1.906	1	generate	Run4	generate/STIM_016.jpg
3001.297	1.295	1	generate	Run4	generate/STIM_017.jpg
3005.14	1.801	1	generate	Run4	generate/STIM_017.jpg
3009.249	2.18	1	generate	Run4	generate/STIM_017.jpg
3013.767	1.783	1	generate	Run4	generate/STIM_017.jpg
3019.202	1.667	1	generate	Run4	generate/STIM_017.jpg
3024.601	1.722	1	generate	Run4	generate/STIM_018.jpg
3029.907	1.844	1	generate	Run4	generate/STIM_018.jpg
3034.47	2.104	1	generate	Run4	generate/STIM_018.jpg
3040.418	2.05	1	generate	Run4	generate/STIM_018.jpg
3044.966	1.15	1	generate	Run4	generate/STIM_018.jpg
3048.701	1.243	1	generate	Run4	generate/STIM_019.jpg
3052.756	1.572	1	generate	Run4	generate/STIM_019.jpg
3056.745	1.963	1	generate	Run4	generate/STIM_019.jpg
3061.451	0.951	1	generate	Run4	generate/STIM_019.jpg
3064.583	1.242	1	generate	Run4	generate/STIM_019.jpg
3069.666	1.492	1	generate	Run4	generate/STIM_020.jpg
3074.282	1.152	1	generate	Run4	generate/STIM_020.jpg
3077.846	2.021	1	generate	Run4	generate/STIM_020.jpg
3081.899	1.159	1	generate	Run4	generate/STIM_020.jpg
3086.468	1.959	1	generate	Run4	generate/STIM_020.jpg
3092.011	1.327	1	generate	Run4	generate/STIM_021.jpg
3096.847	1.386	1	generate	Run4	generate/STIM_021.jpg
3102.079	1.114	1	generate	Run4	generate/STIM_021.jpg
3105.196	1.978	1	generate	Run4	generate/STIM_021.jpg
3110.335	1.135	1	generate	Run4	generate/STIM_021.jpg
3114.181	1.674	1	generate	Run4	generate/STIM_022.jpg
3118.567	1.362	1	generate	Run4	generate/STIM_022.jpg
3122.127	1.17	1	generate	Run4	generate/STIM_022.jpg
3126.344	1.282	1	generate	Run4	generate/STIM_022.jpg
3130.31	1.898	1	generate	Run4	generate/STIM_022.jpg
3135.958	0.96	1	generate	Run4	generate/STIM_023.jpg
3139.997	1.884	1	generate	Run4	generate/STIM_023.jpg
3143.956	1.673	1	generate	Run4	generate/STIM_023.jpg
3147.728	2.076	1	generate	Run4	generate/STIM_023.jpg
3152.973	1.833	1	generate	Run4	generate/STIM_023.jpg
3157.038	1.882	1	generate	Run4	generate/STIM_024.jpg
3161.816	1.68	1	generate	Run4	generate/STIM_024.jpg
3167.266	1.39	1	generate	Run4	generate/STIM_024.jpg
3170.646	1.904	1	generate	Run4	generate/STIM_024.jpg
3175.534	2.073	1	generate	Run4	generate/STIM_024.jpg
3179.797	0.849	1	repeat	Run4	repeat/STIM_000.jpg
3183.525	0.931	0	repeat	Run4	repeat/STIM_000.jpg
3187.248	0.709	1	repeat	Run4	repeat/STIM_000.jpg
3190.765	0.998	1	repeat	Run4	repeat/STIM_000.jpg
3195.074	0.672	0	repeat	Run4	repeat/STIM_000.jpg
3197.884	0.831	1	repeat	Run4	repeat/STIM_001.jpg
3202.275	0.896	0	repeat	Run4	repeat/STIM_001.jpg
3207.012	0.577	1	repeat	Run4	repeat/STIM_001.jpg
3211.133	0.586	1	repeat	Run4	repeat/STIM_001.jpg
3214.35	0.574	1	repeat	Run4	repeat/STIM_001.jpg
3218.456	0.716	1	repeat	Run4	repeat/STIM_002.jpg
3222.199	0.875	1	repeat	Run4	repeat/STIM_002.jpg
3226.717	0.898	1	repeat	Run4	repeat/STIM_002.jpg
3231.059	0.705	1	repeat	Run4	repeat/STIM_002.jpg
3233.892	0.884	1	repeat	Run4	repeat/STIM_002.jpg
3236.825	0.635	1	repeat	Run4	repeat/STIM_003.jpg
3239.477	1.005	1	repeat	Run4	repeat/STIM_003.jpg
3243.216	0.697	1	repeat	Run4	repeat/STIM_003.jpg
3246.909	0.812	1	repeat	Run4	repeat/STIM_003.jpg
3250.312	0.528	1	repeat	Run4	repeat/STIM_003.jpg
3253.48	0.616	1	repeat	Run4	repeat/STIM_004.jpg
3256.897	0.994	1	repeat	Run4	repeat/STIM_004.jpg
3260.703	0.535	0	repeat	Run4	repeat/STIM_004.jpg
3264.716	0.891	1	repeat	Run4	repeat/STIM_004.jpg
3269.021	0.617	0	repeat	Run4	repeat/STIM_004.jpg
3273.177	0.854	1	repeat	Run4	repeat/STIM_005.jpg
3277.934	0.683	1	repeat	Run4	repeat/STIM_005.jpg
3282.28	0.684	1	repeat	Run4	repeat/STIM_005.jpg
3285.65	0.966	1	repeat	Run4	repeat/STIM_005.jpg
3290.06	0.521	1	repeat	Run4	repeat/STIM_005.jpg
3294.137	0.65	1	repeat	Run4	repeat/STIM_006.jpg
3298.035	0.907	1	repeat	Run4	repeat/STIM_006.jpg
3302.659	0.616	1	repeat	Run4	repeat/STIM_006.jpg
3306.51	0.701	1	repeat	Run4	repeat/STIM_006.jpg
3310.026	0.665	1	repeat	Run4	repeat/STIM_006.jpg
3313.536	0.9	1	repeat	Run4	repeat/STIM_007.jpg
3318.391	0.649	1	repeat	Run4	repeat/STIM_007.jpg
3322.374	0.797	1	repeat	Run4	repeat/STIM_007.jpg
3326.745	0.761	1	repeat	Run4	repeat/STIM_007.jpg
3330.112	0.844	1	repeat	Run4	repeat/STIM_007.jpg
3334.401	0.784	1	repeat	Run4	repeat/STIM_008.jpg
3337.512	0.779	1	repeat	Run4	repeat/STIM_008.jpg
3341.667	0.916	1	repeat	Run4	repeat/STIM_008.jpg
3344.615	0.893	1	repeat	Run4	repeat/STIM_008.jpg
3349.303	0.861	1	repeat	Run4	repeat/STIM_008.jpg
3353.419	0.995	1	repeat	Run4	repeat/STIM_009.jpg
3356.649	0.546	1	repeat	Run4	repeat/STIM_009.jpg
3359.772	0.88	1	repeat	Run4	repeat/STIM_009.jpg
3364.374	0.554	1	repeat	Run4	repeat/STIM_009.jpg
3367.972	0.809	1	repeat	Run4	repeat/STIM_009.jpg
3372.164	0.899	1	repeat	Run4	repeat/STIM_010.jpg
3375.32	0.968	1	repeat	Run4	repeat/STIM_010.jpg
3379.233	0.914	1	repeat	Run4	repeat/STIM_010.jpg
3383.23	0.859	0	repeat	Run4	repeat/STIM_010.jpg
3386.385	0.731	1	repeat	Run4	repeat/STIM_010.jpg
3389.828	0.666	1	repeat	Run4	repeat/STIM_011.jpg
3392.589	0.719	1	repeat	Run4	repeat/STIM_011.jpg
3396.772	0.634	1	repeat	Run4	repeat/STIM_011.jpg
3400.469	0.813	1	repeat	Run4	repeat/STIM_011.jpg
3403.918	0.702	1	repeat	Run4	repeat/STIM_011.jpg
3406.664	1.025	1	repeat	Run4	repeat/STIM_012.jpg
3410.863	0.627	1	repeat	Run4	repeat/STIM_012.jpg
3413.584	0.579	1	repeat	Run4	repeat/STIM_012.jpg
3417.333	1.032	1	repeat	Run4	repeat/STIM_012.jpg
3421.38	0.965	1	repeat	Run4	repeat/STIM_012.jpg
3425.751	0.956	1	repeat	Run4	repeat/STIM_013.jpg
3429.649	0.578	1	repeat	Run4	repeat/STIM_013.jpg
3433.21	0.74	1	repeat	Run4	repeat/STIM_013.jpg
3437.349	1.012	1	repeat	Run4	repeat/STIM_013.jpg
3442.292	0.816	1	repeat	Run4	repeat/STIM_013.jpg
3445.746	0.766	1	repeat	Run4	repeat/STIM_014.jpg
3448.724	0.598	1	repeat	Run4	repeat/STIM_014.jpg
3451.992	0.551	1	repeat	Run4	repeat/STIM_014.jpg
3456.002	0.738	1	repeat	Run4	repeat/STIM_014.jpg
3460.521	0.903	1	repeat	Run4	repeat/STIM_014.jpg
