onset	duration	accuracy_binary	trial_type	learning_stage	stimulus
0.0	0.574	1	incongruent	Block1	incongruent/STIM_000.jpg
3.219	0.938	1	incongruent	Block1	incongruent/STIM_000.jpg
7.91	0.611	1	incongruent	Block1	incongruent/STIM_000.jpg
10.623	0.469	1	incongruent	Block1	incongruent/STIM_000.jpg
13.751	0.532	1	incongruent	Block1	incongruent/STIM_000.jpg
17.843	0.986	1	incongruent	Block1	incongruent/STIM_001.jpg
22.782	0.482	1	incongruent	Block1	incongruent/STIM_001.jpg
26.683	0.853	1	incongruent	Block1	incongruent/STIM_001.jpg
31.185	0.759	1	incongruent	Block1	incongruent/STIM_001.jpg
34.316	0.458	1	incongruent	Block1	incongruent/STIM_001.jpg
38.56	0.85	1	incongruent	Block1	incongruent/STIM_002.jpg
42.716	0.908	1	incongruent	Block1	incongruent/STIM_002.jpg
45.627	0.742	1	incongruent	Block1	incongruent/STIM_002.jpg
49.745	0.482	1	incongruent	Block1	incongruent/STIM_002.jpg
53.939	0.706	1	incongruent	Block1	incongruent/STIM_002.jpg
57.929	0.848	1	incongruent	Block1	incongruent/STIM_003.jpg
62.682	0.485	1	incongruent	Block1	incongruent/STIM_003.jpg
65.719	0.868	1	incongruent	Block1	incongruent/STIM_003.jpg
69.686	0.442	1	incongruent	Block1	incongruent/STIM_003.jpg
73.916	0.595	1	incongruent	Block1	incongruent/STIM_003.jpg
76.78	0.828	1	incongruent	Block1	incongruent/STIM_004.jpg
80.719	0.638	1	incongruent	Block1	incongruent/STIM_004.jpg
85.074	0.7	1	incongruent	Block1	incongruent/STIM_004.jpg
88.208	0.517	1	incongruent	Block1	incongruent/STIM_004.jpg
91.973	0.708	1	incongruent	Block1	incongruent/STIM_004.jpg
96.037	0.641	1	incongruent	Block1	incongruent/STIM_005.jpg
99.052	0.936	1	incongruent	Block1	incongruent/STIM_005.jpg
102.564	0.921	1	incongruent	Block1	incongruent/STIM_005.jpg
106.181	0.639	1	incongruent	Block1	incongruent/STIM_005.jpg
110.281	0.419	1	incongruent	Block1	incongruent/STIM_005.jpg
114.072	0.682	1	incongruent	Block1	incongruent/STIM_006.jpg
116.804	0.503	1	incongruent	Block1	incongruent/STIM_006.jpg
120.063	0.835	1	incongruent	Block1	incongruent/STIM_006.jpg
123.399	0.57	1	incongruent	Block1	incongruent/STIM_006.jpg
126.115	0.454	1	incongruent	Block1	incongruent/STIM_006.jpg
128.837	0.522	1	incongruent	Block1	incongruent/STIM_007.jpg
131.995	0.787	1	incongruent	Block1	incongruent/STIM_007.jpg
136.457	0.882	1	incongruent	Block1	incongruent/STIM_007.jpg
141.212	0.845	1	incongruent	Block1	incongruent/STIM_007.jpg
145.211	0.778	1	incongruent	Block1	incongruent/STIM_007.jpg
148.53	0.805	1	incongruent	Block1	incongruent/STIM_008.jpg
152.59	0.845	1	incongruent	Block1	incongruent/STIM_008.jpg
155.597	0.852	1	incongruent	Block1	incongruent/STIM_008.jpg
158.881	0.427	1	incongruent	Block1	incongruent/STIM_008.jpg
163.204	0.69	1	incongruent	Block1	incongruent/STIM_008.jpg
165.931	0.624	1	incongruent	Block1	incongruent/STIM_009.jpg
169.252	0.894	1	incongruent	Block1	incongruent/STIM_009.jpg
172.414	0.589	1	incongruent	Block1	incongruent/STIM_009.jpg
176.326	0.703	1	incongruent	Block1	incongruent/STIM_009.jpg
180.126	0.806	1	incongruent	Block1	incongruent/STIM_009.jpg
183.248	0.808	0	incongruent	Block1	incongruent/STIM_010.jpg
186.255	0.742	1	incongruent	Block1	incongruent/STIM_010.jpg
190.811	0.509	1	incongruent	Block1	incongruent/STIM_010.jpg
194.762	0.887	1	incongruent	Block1	incongruent/STIM_010.jpg
198.709	0.687	1	incongruent	Block1	incongruent/STIM_010.jpg
203.183	0.881	1	incongruent	Block1	incongruent/STIM_011.jpg
206.398	0.753	1	incongruent	Block1	incongruent/STIM_011.jpg
210.284	0.694	1	incongruent	Block1	incongruent/STIM_011.jpg
213.546	0.661	1	incongruent	Block1	incongruent/STIM_011.jpg
216.682	0.776	1	incongruent	Block1	incongruent/STIM_011.jpg
220.052	0.914	1	incongruent	Block1	incongruent/STIM_012.jpg
224.469	0.884	1	incongruent	Block1	incongruent/STIM_012.jpg
228.253	0.485	1	incongruent	Block1	incongruent/STIM_012.jpg
231.351	0.502	1	incongruent	Block1	incongruent/STIM_012.jpg
235.081	0.725	1	incongruent	Block1	incongruent/STIM_012.jpg
238.742	0.909	1	incongruent	Block1	incongruent/STIM_013.jpg
242.323	0.504	1	incongruent	Block1	incongruent/STIM_013.jpg
246.316	0.527	1	incongruent	Block1	incongruent/STIM_013.jpg
250.424	0.627	1	incongruent	Block1	incongruent/STIM_013.jpg
254.472	0.422	1	incongruent	Block1	incongruent/STIM_013.jpg
257.65	0.827	1	incongruent	Block1	incongruent/STIM_014.jpg
261.689	0.525	1	incongruent	Block1	incongruent/STIM_014.jpg
265.454	0.682	1	incongruent	Block1	incongruent/STIM_014.jpg
270.028	0.656	1	incongruent	Block1	incongruent/STIM_014.jpg
273.787	0.634	1	incongruent	Block1	incongruent/STIM_014.jpg
278.261	0.921	0	incongruent	Block1	incongruent/STIM_015.jpg
282.795	0.783	1	incongruent	Block1	incongruent/STIM_015.jpg
285.735	0.902	1	incongruent	Block1	incongruent/STIM_015.jpg
290.28	0.814	1	incongruent	Block1	incongruent/STIM_015.jpg
294.039	0.575	1	incongruent	Block1	incongruent/STIM_015.jpg
297.854	0.94	1	incongruent	Block1	incongruent/STIM_016.jpg
302.199	0.894	1	incongruent	Block1	incongruent/STIM_016.jpg
305.993	0.464	1	incongruent	Block1	incongruent/STIM_016.jpg
309.945	0.76	1	incongruent	Block1	incongruent/STIM_016.jpg
312.964	0.504	1	incongruent	Block1	incongruent/STIM_016.jpg
316.898	0.756	1	incongruent	Block1	incongruent/STIM_017.jpg
321.587	0.532	1	incongruent	Block1	incongruent/STIM_017.jpg
325.996	0.527	1	incongruent	Block1	incongruent/STIM_017.jpg
328.846	0.604	1	incongruent	Block1	incongruent/STIM_017.jpg
332.922	0.814	1	incongruent	Block1	incongruent/STIM_017.jpg
336.267	0.906	1	incongruent	Block1	incongruent/STIM_018.jpg
340.694	0.497	1	incongruent	Block1	incongruent/STIM_018.jpg
344.404	0.44	1	incongruent	Block1	incongruent/STIM_018.jpg
348.283	0.486	1	incongruent	Block1	incongruent/STIM_018.jpg
351.332	0.644	1	incongruent	Block1	incongruent/STIM_018.jpg
354.741	0.69	1	incongruent	Block1	incongruent/STIM_019.jpg
358.947	0.645	1	incongruent	Block1	incongruent/STIM_019.jpg
361.998	0.552	1	incongruent	Block1	incongruent/STIM_019.jpg
366.149	0.592	1	incongruent	Block1	incongruent/STIM_019.jpg
370.085	0.742	1	incongruent	Block1	incongruent/STIM_019.jpg
374.808	0.829	1	incongruent	Block1	incongruent/STIM_020.jpg
378.611	0.57	1	incongruent	Block1	incongruent/STIM_020.jpg
381.425	0.814	1	incongruent	Block1	incongruent/STIM_020.jpg
386.219	0.438	1	incongruent	Block1	incongruent/STIM_020.jpg
388.682	0.668	1	incongruent	Block1	incongruent/STIM_020.jpg
392.789	0.533	1	incongruent	Block1	incongruent/STIM_021.jpg
395.617	0.812	1	incongruent	Block1	incongruent/STIM_021.jpg
400.151	0.937	1	incongruent	Block1	incongruent/STIM_021.jpg
404.799	0.757	1	incongruent	Block1	incongruent/STIM_021.jpg
408.926	0.56	1	incongruent	Block1	incongruent/STIM_021.jpg
412.601	0.568	1	incongruent	Block1	incongruent/STIM_022.jpg
416.162	0.983	1	incongruent	Block1	incongruent/STIM_022.jpg
419.388	0.882	1	incongruent	Block1	incongruent/STIM_022.jpg
423.266	0.602	1	incongruent	Block1	incongruent/STIM_022.jpg
426.331	0.582	1	incongruent	Block1	incongruent/STIM_022.jpg
430.083	0.512	1	incongruent	Block1	incongruent/STIM_023.jpg
433.244	0.91	1	incongruent	Block1	incongruent/STIM_023.jpg
436.309	0.544	1	incongruent	Block1	incongruent/STIM_023.jpg
439.627	0.71	1	incongruent	Block1	incongruent/STIM_023.jpg
444.036	0.502	1	incongruent	Block1	incongruent/STIM_023.jpg
447.908	0.718	1	incongruent	Block1	incongruent/STIM_024.jpg
452.397	0.85	1	incongruent	Block1	incongruent/STIM_024.jpg
455.314	0.567	1	incongruent	Block1	incongruent/STIM_024.jpg
458.77	0.459	1	incongruent	Block1	incongruent/STIM_024.jpg
462.505	0.661	1	incongruent	Block1	incongruent/STIM_024.jpg
466.297	0.623	1	incongruent	Block1	incongruent/STIM_025.jpg
470.525	0.88	1	incongruent	Block1	incongruent/STIM_025.jpg
475.126	0.555	1	incongruent	Block1	incongruent/STIM_025.jpg
478.984	0.752	1	incongruent	Block1	incongruent/STIM_025.jpg
483.007	0.745	1	incongruent	Block1	incongruent/STIM_025.jpg
486.006	0.664	1	incongruent	Block1	incongruent/STIM_026.jpg
489.512	0.474	1	incongruent	Block1	incongruent/STIM_026.jpg
492.992	0.531	1	incongruent	Block1	incongruent/STIM_026.jpg
497.45	0.809	1	incongruent	Block1	incongruent/STIM_026.jpg
502.035	0.648	1	incongruent	Block1	incongruent/STIM_026.jpg
505.429	0.519	1	incongruent	Block1	incongruent/STIM_027.jpg
508.273	0.548	1	incongruent	Block1	incongruent/STIM_027.jpg
511.489	0.836	1	incongruent	Block1	incongruent/STIM_027.jpg
515.962	0.555	1	incongruent	Block1	incongruent/STIM_027.jpg
519.464	0.408	1	incongruent	Block1	incongruent/STIM_027.jpg
522.233	0.67	1	incongruent	Block1	incongruent/STIM_028.jpg
526.019	0.519	1	incongruent	Block1	incongruent/STIM_028.jpg
529.767	0.942	1	incongruent	Block1	incongruent/STIM_028.jpg
534.369	0.502	1	incongruent	Block1	incongruent/STIM_028.jpg
537.378	0.44	1	incongruent	Block1	incongruent/STIM_028.jpg
540.195	0.602	1	incongruent	Block1	incongruent/STIM_029.jpg
544.659	0.649	1	incongruent	Block1	incongruent/STIM_029.jpg
548.089	0.653	1	incongruent	Block1	incongruent/STIM_029.jpg
552.137	0.734	1	incongruent	Block1	incongruent/STIM_029.jpg
556.619	0.631	1	incongruent	Block1	incongruent/STIM_029.jpg
559.906	0.511	1	congruent	Block1	congruent/STIM_000.jpg
564.214	0.555	1	congruent	Block1	congruent/STIM_000.jpg
567.795	0.514	1	congruent	Block1	congruent/STIM_000.jpg
570.952	0.565	1	congruent	Block1	congruent/STIM_000.jpg
573.908	0.532	1	congruent	Block1	congruent/STIM_000.jpg
578.155	0.522	1	congruent	Block1	congruent/STIM_001.jpg
582.431	0.589	1	congruent	Block1	congruent/STIM_001.jpg
586.939	0.567	1	congruent	Block1	congruent/STIM_001.jpg
590.352	0.452	1	congruent	Block1	congruent/STIM_001.jpg
594.509	0.36	1	congruent	Block1	congruent/STIM_001.jpg
597.91	0.379	1	congruent	Block1	congruent/STIM_002.jpg
601.234	0.58	1	congruent	Block1	congruent/STIM_002.jpg
605.65	0.452	1	congruent	Block1	congruent/STIM_002.jpg
608.109	0.472	1	congruent	Block1	congruent/STIM_002.jpg
612.557	0.486	1	congruent	Block1	congruent/STIM_002.jpg
616.454	0.369	1	congruent	Block1	congruent/STIM_003.jpg
619.37	0.37	1	congruent	Block1	congruent/STIM_003.jpg
622.044	0.539	1	congruent	Block1	congruent/STIM_003.jpg
625.228	0.426	1	congruent	Block1	congruent/STIM_003.jpg
629.404	0.402	1	congruent	Block1	congruent/STIM_003.jpg
632.422	0.586	1	congruent	Block1	congruent/STIM_004.jpg
635.134	0.575	1	congruent	Block1	congruent/STIM_004.jpg
639.414	0.579	1	congruent	Block1	congruent/STIM_004.jpg
643.554	0.593	1	congruent	Block1	congruent/STIM_004.jpg
646.756	0.39	1	congruent	Block1	congruent/STIM_004.jpg
651.047	0.412	1	congruent	Block1	congruent/STIM_005.jpg
654.461	0.611	1	congruent	Block1	congruent/STIM_005.jpg
658.695	0.626	1	congruent	Block1	congruent/STIM_005.jpg
662.223	0.46	1	congruent	Block1	congruent/STIM_005.jpg
665.249	0.359	1	congruent	Block1	congruent/STIM_005.jpg
668.992	0.606	1	congruent	Block1	congruent/STIM_006.jpg
672.575	0.488	1	congruent	Block1	congruent/STIM_006.jpg
675.796	0.528	1	congruent	Block1	congruent/STIM_006.jpg
678.442	0.469	1	congruent	Block1	congruent/STIM_006.jpg
682.364	0.43	1	congruent	Block1	congruent/STIM_006.jpg
685.051	0.576	1	congruent	Block1	congruent/STIM_007.jpg
688.628	0.613	1	congruent	Block1	congruent/STIM_007.jpg
691.775	0.626	1	congruent	Block1	congruent/STIM_007.jpg
696.288	0.61	0	congruent	Block1	congruent/STIM_007.jpg
699.556	0.492	1	congruent	Block1	congruent/STIM_007.jpg
703.584	0.62	1	congruent	Block1	congruent/STIM_008.jpg
707.445	0.577	1	congruent	Block1	congruent/STIM_008.jpg
711.169	0.476	1	congruent	Block1	congruent/STIM_008.jpg
713.672	0.431	1	congruent	Block1	congruent/STIM_008.jpg
717.086	0.491	1	congruent	Block1	congruent/STIM_008.jpg
721.441	0.435	1	congruent	Block1	congruent/STIM_009.jpg
725.786	0.548	1	congruent	Block1	congruent/STIM_009.jpg
728.631	0.418	1	congruent	Block1	congruent/STIM_009.jpg
732.858	0.62	1	congruent	Block1	congruent/STIM_009.jpg
735.519	0.395	1	congruent	Block1	congruent/STIM_009.jpg
739.021	0.613	1	congruent	Block1	congruent/STIM_010.jpg
742.029	0.44	1	congruent	Block1	congruent/STIM_010.jpg
745.415	0.455	1	congruent	Block1	congruent/STIM_010.jpg
749.439	0.551	1	congruent	Block1	congruent/STIM_010.jpg
752.266	0.386	1	congruent	Block1	congruent/STIM_010.jpg
754.882	0.426	1	congruent	Block1	congruent/STIM_011.jpg
758.324	0.469	1	congruent	Block1	congruent/STIM_011.jpg
761.312	0.478	1	congruent	Block1	congruent/STIM_011.jpg
764.815	0.627	1	congruent	Block1	congruent/STIM_011.jpg
768.512	0.394	1	congruent	Block1	congruent/STIM_011.jpg
771.524	0.39	1	congruent	Block1	congruent/STIM_012.jpg
774.331	0.422	1	congruent	Block1	congruent/STIM_012.jpg
778.114	0.595	1	congruent	Block1	congruent/STIM_012.jpg
781.292	0.416	1	congruent	Block1	congruent/STIM_012.jpg
784.465	0.366	1	congruent	Block1	congruent/STIM_012.jpg
788.298	0.387	1	congruent	Block1	congruent/STIM_013.jpg
791.961	0.548	1	congruent	Block1	congruent/STIM_013.jpg
795.301	0.53	1	congruent	Block1	congruent/STIM_013.jpg
798.31	0.453	1	congruent	Block1	congruent/STIM_013.jpg
801.174	0.595	1	congruent	Block1	congruent/STIM_013.jpg
805.703	0.432	1	congruent	Block1	congruent/STIM_014.jpg
808.452	0.499	1	congruent	Block1	congruent/STIM_014.jpg
812.933	0.421	1	congruent	Block1	congruent/STIM_014.jpg
817.278	0.434	1	congruent	Block1	congruent/STIM_014.jpg
821.592	0.529	1	congruent	Block1	congruent/STIM_014.jpg
824.792	0.443	1	congruent	Block1	congruent/STIM_015.jpg
828.617	0.411	1	congruent	Block1	congruent/STIM_015.jpg
831.265	0.41	1	congruent	Block1	congruent/STIM_015.jpg
834.857	0.623	1	congruent	Block1	congruent/STIM_015.jpg
839.112	0.369	1	congruent	Block1	congruent/STIM_015.jpg
842.448	0.46	1	congruent	Block1	congruent/STIM_016.jpg
845.438	0.546	1	congruent	Block1	congruent/STIM_016.jpg
849.883	0.424	1	congruent	Block1	congruent/STIM_016.jpg
853.394	0.479	1	congruent	Block1	congruent/STIM_016.jpg
856.581	0.47	1	congruent	Block1	congruent/STIM_016.jpg
860.076	0.579	1	congruent	Block1	congruent/STIM_017.jpg
864.25	0.592	1	congruent	Block1	congruent/STIM_017.jpg
868.441	0.363	1	congruent	Block1	congruent/STIM_017.jpg
871.479	0.602	1	congruent	Block1	congruent/STIM_017.jpg
876.018	0.485	1	congruent	Block1	congruent/STIM_017.jpg
880.496	0.406	1	congruent	Block1	congruent/STIM_018.jpg
883.918	0.514	1	congruent	Block1	congruent/STIM_018.jpg
887.513	0.594	1	congruent	Block1	congruent/STIM_018.jpg
892.06	0.486	1	congruent	Block1	congruent/STIM_018.jpg
896.0	0.498	1	congruent	Block1	congruent/STIM_018.jpg
900.331	0.398	0	congruent	Block1	congruent/STIM_019.jpg
904.653	0.524	1	congruent	Block1	congruent/STIM_019.jpg
907.178	0.594	1	congruent	Block1	congruent/STIM_019.jpg
910.675	0.541	1	congruent	Block1	congruent/STIM_019.jpg
913.851	0.52	1	congruent	Block1	congruent/STIM_019.jpg
918.027	0.513	1	congruent	Block1	congruent/STIM_020.jpg
921.018	0.427	1	congruent	Block1	congruent/STIM_020.jpg
923.685	0.59	1	congruent	Block1	congruent/STIM_020.jpg
928.036	0.538	1	congruent	Block1	congruent/STIM_020.jpg
931.546	0.53	1	congruent	Block1	congruent/STIM_020.jpg
935.658	0.376	1	congruent	Block1	congruent/STIM_021.jpg
938.553	0.44	1	congruent	Block1	congruent/STIM_021.jpg
942.955	0.404	1	congruent	Block1	congruent/STIM_021.jpg
946.977	0.62	1	congruent	Block1	congruent/STIM_021.jpg
950.914	0.526	1	congruent	Block1	congruent/STIM_021.jpg
955.05	0.602	1	congruent	Block1	congruent/STIM_022.jpg
959.204	0.382	1	congruent	Block1	congruent/STIM_022.jpg
961.892	0.444	1	congruent	Block1	congruent/STIM_022.jpg
965.853	0.517	1	congruent	Block1	congruent/STIM_022.jpg
969.663	0.46	1	congruent	Block1	congruent/STIM_022.jpg
972.512	0.582	1	congruent	Block1	congruent/STIM_023.jpg
975.777	0.396	1	congruent	Block1	congruent/STIM_023.jpg
978.761	0.381	1	congruent	Block1	congruent/STIM_023.jpg
982.244	0.41	1	congruent	Block1	congruent/STIM_023.jpg
985.637	0.388	1	congruent	Block1	congruent/STIM_023.jpg
989.294	0.528	1	congruent	Block1	congruent/STIM_024.jpg
992.83	0.464	1	congruent	Block1	congruent/STIM_024.jpg
996.981	0.474	1	congruent	Block1	congruent/STIM_024.jpg
1000.521	0.486	1	congruent	Block1	congruent/STIM_024.jpg
1004.217	0.626	1	congruent	Block1	congruent/STIM_024.jpg
1008.289	0.549	1	congruent	Block1	congruent/STIM_025.jpg
1012.009	0.586	1	congruent	Block1	congruent/STIM_025.jpg
1015.923	0.549	1	congruent	Block1	congruent/STIM_025.jpg
1018.942	0.461	1	congruent	Block1	congruent/STIM_025.jpg
1021.826	0.578	1	congruent	Block1	congruent/STIM_025.jpg
1024.587	0.478	1	congruent	Block1	congruent/STIM_026.jpg
1027.078	0.517	1	congruent	Block1	congruent/STIM_026.jpg
1030.289	0.448	1	congruent	Block1	congruent/STIM_026.jpg
1033.798	0.503	1	congruent	Block1	congruent/STIM_026.jpg
1037.493	0.608	1	congruent	Block1	congruent/STIM_026.jpg
1040.782	0.363	1	congruent	Block1	congruent/STIM_027.jpg
1043.871	0.414	1	congruent	Block1	congruent/STIM_027.jpg
1046.571	0.429	1	congruent	Block1	congruent/STIM_027.jpg
1049.16	0.58	1	congruent	Block1	congruent/STIM_027.jpg
1053.506	0.527	1	congruent	Block1	congruent/STIM_027.jpg
1057.831	0.553	1	congruent	Block1	congruent/STIM_028.jpg
1062.123	0.457	1	congruent	Block1	congruent/STIM_028.jpg
1065.244	0.373	1	congruent	Block1	congruent/STIM_028.jpg
1068.627	0.566	1	congruent	Block1	congruent/STIM_028.jpg
1071.418	0.499	1	congruent	Block1	congruent/STIM_028.jpg
1074.169	0.509	1	congruent	Block1	congruent/STIM_029.jpg
1077.983	0.595	1	congruent	Block1	congruent/STIM_029.jpg
1081.931	0.37	1	congruent	Block1	congruent/STIM_029.jpg
1085.95	0.586	1	congruent	Block1	congruent/STIM_029.jpg
1089.075	0.596	1	congruent	Block1	congruent/STIM_029.jpg
1092.654	0.485	1	incongruent	Block2	incongruent/STIM_000.jpg
1095.797	0.763	1	incongruent	Block2	incongruent/STIM_000.jpg
1100.332	0.547	1	incongruent	Block2	incongruent/STIM_000.jpg
1104.236	0.399	1	incongruent	Block2	incongruent/STIM_000.jpg
1107.586	0.571	1	incongruent	Block2	incongruent/STIM_000.jpg
1111.101	0.623	1	incongruent	Block2	incongruent/STIM_001.jpg
1114.652	0.559	1	incongruent	Block2	incongruent/STIM_001.jpg
1119.022	0.7	1	incongruent	Block2	incongruent/STIM_001.jpg
1122.389	0.421	0	incongruent	Block2	incongruent/STIM_001.jpg
1124.927	0.348	1	incongruent	Block2	incongruent/STIM_001.jpg
1127.966	0.525	1	incongruent	Block2	incongruent/STIM_002.jpg
1131.758	0.676	1	incongruent	Block2	incongruent/STIM_002.jpg
1136.405	0.774	1	incongruent	Block2	incongruent/STIM_002.jpg
1140.479	0.547	1	incongruent	Block2	incongruent/STIM_002.jpg
1143.994	0.674	1	incongruent	Block2	incongruent/STIM_002.jpg
1147.219	0.764	1	incongruent	Block2	incongruent/STIM_003.jpg
1151.314	0.822	1	incongruent	Block2	incongruent/STIM_003.jpg
1155.422	0.759	1	incongruent	Block2	incongruent/STIM_003.jpg
1159.466	0.503	1	incongruent	Block2	incongruent/STIM_003.jpg
1162.7	0.508	1	incongruent	Block2	incongruent/STIM_003.jpg
1165.711	0.72	1	incongruent	Block2	incongruent/STIM_004.jpg
1168.822	0.6	1	incongruent	Block2	incongruent/STIM_004.jpg
1172.6	0.509	1	incongruent	Block2	incongruent/STIM_004.jpg
1176.842	0.611	1	incongruent	Block2	incongruent/STIM_004.jpg
1180.412	0.533	1	incongruent	Block2	incongruent/STIM_004.jpg
1184.637	0.703	1	incongruent	Block2	incongruent/STIM_005.jpg
1187.603	0.57	1	incongruent	Block2	incongruent/STIM_005.jpg
1192.155	0.679	1	incongruent	Block2	incongruent/STIM_005.jpg
1195.501	0.526	1	incongruent	Block2	incongruent/STIM_005.jpg
1199.113	0.605	1	incongruent	Block2	incongruent/STIM_005.jpg
1202.436	0.649	1	incongruent	Block2	incongruent/STIM_006.jpg
1205.646	0.734	1	incongruent	Block2	incongruent/STIM_006.jpg
1209.158	0.507	1	incongruent	Block2	incongruent/STIM_006.jpg
1213.155	0.667	1	incongruent	Block2	incongruent/STIM_006.jpg
1216.655	0.532	1	incongruent	Block2	incongruent/STIM_006.jpg
1221.183	0.503	1	incongruent	Block2	incongruent/STIM_007.jpg
1224.722	0.417	1	incongruent	Block2	incongruent/STIM_007.jpg
1228.96	0.774	1	incongruent	Block2	incongruent/STIM_007.jpg
1233.073	0.661	1	incongruent	Block2	incongruent/STIM_007.jpg
1236.288	0.69	1	incongruent	Block2	incongruent/STIM_007.jpg
1239.906	0.735	1	incongruent	Block2	incongruent/STIM_008.jpg
1243.459	0.402	1	incongruent	Block2	incongruent/STIM_008.jpg
1247.365	0.43	1	incongruent	Block2	incongruent/STIM_008.jpg
1251.026	0.489	1	incongruent	Block2	incongruent/STIM_008.jpg
1255.108	0.47	1	incongruent	Block2	incongruent/STIM_008.jpg
1259.527	0.857	1	incongruent	Block2	incongruent/STIM_009.jpg
1262.713	0.785	1	incongruent	Block2	incongruent/STIM_009.jpg
1266.147	0.653	1	incongruent	Block2	incongruent/STIM_009.jpg
1268.883	0.524	1	incongruent	Block2	incongruent/STIM_009.jpg
1271.75	0.595	1	incongruent	Block2	incongruent/STIM_009.jpg
1275.649	0.702	1	incongruent	Block2	incongruent/STIM_010.jpg
1279.046	0.666	1	incongruent	Block2	incongruent/STIM_010.jpg
1281.92	0.598	1	incongruent	Block2	incongruent/STIM_010.jpg
1286.457	0.397	1	incongruent	Block2	incongruent/STIM_010.jpg
1289.444	0.667	1	incongruent	Block2	incongruent/STIM_010.jpg
1293.31	0.466	1	incongruent	Block2	incongruent/STIM_011.jpg
1297.601	0.713	1	incongruent	Block2	incongruent/STIM_011.jpg
1301.096	0.458	1	incongruent	Block2	incongruent/STIM_011.jpg
1304.402	0.591	1	incongruent	Block2	incongruent/STIM_011.jpg
1307.577	0.36	1	incongruent	Block2	incongruent/STIM_011.jpg
1311.211	0.611	1	incongruent	Block2	incongruent/STIM_012.jpg
1315.679	0.568	1	incongruent	Block2	incongruent/STIM_012.jpg
1318.744	0.463	1	incongruent	Block2	incongruent/STIM_012.jpg
1323.031	0.589	1	incongruent	Block2	incongruent/STIM_012.jpg
1326.555	0.632	1	incongruent	Block2	incongruent/STIM_012.jpg
1329.45	0.727	1	incongruent	Block2	incongruent/STIM_013.jpg
1332.979	0.719	1	incongruent	Block2	incongruent/STIM_013.jpg
1336.981	0.461	1	incongruent	Block2	incongruent/STIM_013.jpg
1340.049	0.447	1	incongruent	Block2	incongruent/STIM_013.jpg
1344.032	0.612	1	incongruent	Block2	incongruent/STIM_013.jpg
1347.884	0.821	1	incongruent	Block2	incongruent/STIM_014.jpg
1350.83	0.662	1	incongruent	Block2	incongruent/STIM_014.jpg
1354.48	0.656	1	incongruent	Block2	incongruent/STIM_014.jpg
1357.71	0.36	1	incongruent	Block2	incongruent/STIM_014.jpg
1360.59	0.376	1	incongruent	Block2	incongruent/STIM_014.jpg
1363.396	0.812	1	incongruent	Block2	incongruent/STIM_015.jpg
1367.69	0.767	1	incongruent	Block2	incongruent/STIM_015.jpg
1371.637	0.569	1	incongruent	Block2	incongruent/STIM_015.jpg
1375.968	0.583	1	incongruent	Block2	incongruent/STIM_015.jpg
1380.529	0.376	1	incongruent	Block2	incongruent/STIM_015.jpg
1384.839	0.743	1	incongruent	Block2	incongruent/STIM_016.jpg
1388.683	0.809	1	incongruent	Block2	incongruent/STIM_016.jpg
1391.643	0.369	1	incongruent	Block2	incongruent/STIM_016.jpg
1395.755	0.692	1	incongruent	Block2	incongruent/STIM_016.jpg
1400.324	0.345	1	incongruent	Block2	incongruent/STIM_016.jpg
1403.612	0.57	1	incongruent	Block2	incongruent/STIM_017.jpg
1406.979	0.667	1	incongruent	Block2	incongruent/STIM_017.jpg
1410.609	0.435	1	incongruent	Block2	incongruent/STIM_017.jpg
1413.344	0.369	1	incongruent	Block2	incongruent/STIM_017.jpg
1416.617	0.455	1	incongruent	Block2	incongruent/STIM_017.jpg
1419.782	0.832	1	incongruent	Block2	incongruent/STIM_018.jpg
1423.825	0.638	1	incongruent	Block2	incongruent/STIM_018.jpg
1426.484	0.372	1	incongruent	Block2	incongruent/STIM_018.jpg
1430.797	0.589	1	incongruent	Block2	incongruent/STIM_018.jpg
1433.966	0.486	1	incongruent	Block2	incongruent/STIM_018.jpg
1437.78	0.744	1	incongruent	Block2	incongruent/STIM_019.jpg
1440.896	0.689	1	incongruent	Block2	incongruent/STIM_019.jpg
1443.726	0.739	1	incongruent	Block2	incongruent/STIM_019.jpg
1447.663	0.548	1	incongruent	Block2	incongruent/STIM_019.jpg
1451.869	0.567	1	incongruent	Block2	incongruent/STIM_019.jpg
1455.33	0.581	1	incongruent	Block2	incongruent/STIM_020.jpg
1458.965	0.714	1	incongruent	Block2	incongruent/STIM_020.jpg
1461.721	0.562	1	incongruent	Block2	incongruent/STIM_020.jpg
1465.421	0.546	1	incongruent	Block2	incongruent/STIM_020.jpg
1468.736	0.657	1	incongruent	Block2	incongruent/STIM_020.jpg
1473.154	0.595	1	incongruent	Block2	incongruent/STIM_021.jpg
1476.323	0.57	1	incongruent	Block2	incongruent/STIM_021.jpg
1478.992	0.76	1	incongruent	Block2	incongruent/STIM_021.jpg
1482.938	0.489	1	incongruent	Block2	incongruent/STIM_021.jpg
1486.618	0.422	1	incongruent	Block2	incongruent/STIM_021.jpg
1489.873	0.783	1	incongruent	Block2	incongruent/STIM_022.jpg
1494.619	0.687	1	incongruent	Block2	incongruent/STIM_022.jpg
1497.808	0.418	1	incongruent	Block2	incongruent/STIM_022.jpg
1501.372	0.587	1	incongruent	Block2	incongruent/STIM_022.jpg
1504.896	0.37	1	incongruent	Block2	incongruent/STIM_022.jpg
1507.912	0.813	1	incongruent	Block2	incongruent/STIM_023.jpg
1510.763	0.581	1	incongruent	Block2	incongruent/STIM_023.jpg
1514.692	0.476	1	incongruent	Block2	incongruent/STIM_023.jpg
1518.709	0.553	1	incongruent	Block2	incongruent/STIM_023.jpg
1522.789	0.583	1	incongruent	Block2	incongruent/STIM_023.jpg
1525.685	0.837	1	incongruent	Block2	incongruent/STIM_024.jpg
1530.466	0.52	1	incongruent	Block2	incongruent/STIM_024.jpg
1534.954	0.546	1	incongruent	Block2	incongruent/STIM_024.jpg
1538.637	0.648	1	incongruent	Block2	incongruent/STIM_024.jpg
1542.455	0.61	1	incongruent	Block2	incongruent/STIM_024.jpg
1545.776	0.874	1	incongruent	Block2	incongruent/STIM_025.jpg
1548.901	0.493	1	incongruent	Block2	incongruent/STIM_025.jpg
1552.017	0.544	1	incongruent	Block2	incongruent/STIM_025.jpg
1555.051	0.35	1	incongruent	Block2	incongruent/STIM_025.jpg
1557.464	0.492	1	incongruent	Block2	incongruent/STIM_025.jpg
1561.667	0.541	1	incongruent	Block2	incongruent/STIM_026.jpg
1565.29	0.429	1	incongruent	Block2	incongruent/STIM_026.jpg
1569.649	0.405	1	incongruent	Block2	incongruent/STIM_026.jpg
1572.114	0.398	1	incongruent	Block2	incongruent/STIM_026.jpg
1575.702	0.588	1	incongruent	Block2	incongruent/STIM_026.jpg
1579.73	0.847	0	incongruent	Block2	incongruent/STIM_027.jpg
1582.927	0.439	1	incongruent	Block2	incongruent/STIM_027.jpg
1586.74	0.701	1	incongruent	Block2	incongruent/STIM_027.jpg
1591.427	0.548	1	incongruent	Block2	incongruent/STIM_027.jpg
1594.347	0.647	1	incongruent	Block2	incongruent/STIM_027.jpg
1597.548	0.493	1	incongruent	Block2	incongruent/STIM_028.jpg
1600.08	0.606	1	incongruent	Block2	incongruent/STIM_028.jpg
1603.634	0.469	1	incongruent	Block2	incongruent/STIM_028.jpg
1606.168	0.344	1	incongruent	Block2	incongruent/STIM_028.jpg
1609.528	0.531	1	incongruent	Block2	incongruent/STIM_028.jpg
1613.232	0.698	1	incongruent	Block2	incongruent/STIM_029.jpg
1616.003	0.449	1	incongruent	Block2	incongruent/STIM_029.jpg
1620.172	0.463	1	incongruent	Block2	incongruent/STIM_029.jpg
1624.356	0.66	1	incongruent	Block2	incongruent/STIM_029.jpg
1628.677	0.658	1	incongruent	Block2	incongruent/STIM_029.jpg
1633.318	0.571	1	congruent	Block2	congruent/STIM_000.jpg
1637.825	0.402	1	congruent	Block2	congruent/STIM_000.jpg
1641.546	0.57	1	congruent	Block2	congruent/STIM_000.jpg
1645.85	0.407	1	congruent	Block2	congruent/STIM_000.jpg
1648.498	0.393	1	congruent	Block2	congruent/STIM_000.jpg
1651.389	0.481	1	congruent	Block2	congruent/STIM_001.jpg
1654.944	0.618	1	congruent	Block2	congruent/STIM_001.jpg
1658.332	0.556	1	congruent	Block2	congruent/STIM_001.jpg
1662.078	0.406	1	congruent	Block2	congruent/STIM_001.jpg
1665.218	0.616	1	congruent	Block2	congruent/STIM_001.jpg
1669.42	0.494	1	congruent	Block2	congruent/STIM_002.jpg
1673.659	0.465	1	congruent	Block2	congruent/STIM_002.jpg
1677.404	0.376	1	congruent	Block2	congruent/STIM_002.jpg
1681.158	0.39	1	congruent	Block2	congruent/STIM_002.jpg
1684.941	0.402	1	congruent	Block2	congruent/STIM_002.jpg
1688.856	0.533	1	congruent	Block2	congruent/STIM_003.jpg
1692.653	0.403	1	congruent	Block2	congruent/STIM_003.jpg
1696.599	0.539	1	congruent	Block2	congruent/STIM_003.jpg
1700.651	0.376	1	congruent	Block2	congruent/STIM_003.jpg
1704.365	0.514	1	congruent	Block2	congruent/STIM_003.jpg
1708.785	0.406	1	congruent	Block2	congruent/STIM_004.jpg
1713.138	0.547	1	congruent	Block2	congruent/STIM_004.jpg
1715.972	0.55	1	congruent	Block2	congruent/STIM_004.jpg
1719.345	0.57	1	congruent	Block2	congruent/STIM_004.jpg
1722.7	0.544	1	congruent	Block2	congruent/STIM_004.jpg
1725.872	0.542	1	congruent	Block2	congruent/STIM_005.jpg
1730.314	0.376	1	congruent	Block2	congruent/STIM_005.jpg
1733.807	0.366	0	congruent	Block2	congruent/STIM_005.jpg
1736.819	0.57	1	congruent	Block2	congruent/STIM_005.jpg
1740.3	0.594	1	congruent	Block2	congruent/STIM_005.jpg
1744.087	0.367	1	congruent	Block2	congruent/STIM_006.jpg
1748.44	0.476	1	congruent	Block2	congruent/STIM_006.jpg
1751.946	0.55	1	congruent	Block2	congruent/STIM_006.jpg
1756.208	0.483	1	congruent	Block2	congruent/STIM_006.jpg
1759.28	0.446	1	congruent	Block2	congruent/STIM_006.jpg
1761.851	0.443	1	congruent	Block2	congruent/STIM_007.jpg
1764.375	0.488	1	congruent	Block2	congruent/STIM_007.jpg
1768.542	0.405	1	congruent	Block2	congruent/STIM_007.jpg
1771.587	0.398	1	congruent	Block2	congruent/STIM_007.jpg
1774.298	0.45	1	congruent	Block2	congruent/STIM_007.jpg
1778.559	0.465	1	congruent	Block2	congruent/STIM_008.jpg
1781.826	0.557	1	congruent	Block2	congruent/STIM_008.jpg
1785.681	0.504	1	congruent	Block2	congruent/STIM_008.jpg
1789.793	0.387	1	congruent	Block2	congruent/STIM_008.jpg
1793.167	0.352	1	congruent	Block2	congruent/STIM_008.jpg
1796.463	0.389	1	congruent	Block2	congruent/STIM_009.jpg
1799.346	0.602	1	congruent	Block2	congruent/STIM_009.jpg
1801.955	0.369	1	congruent	Block2	congruent/STIM_009.jpg
1806.253	0.513	1	congruent	Block2	congruent/STIM_009.jpg
1810.289	0.49	1	congruent	Block2	congruent/STIM_009.jpg
1814.56	0.559	1	congruent	Block2	congruent/STIM_010.jpg
1817.936	0.598	1	congruent	Block2	congruent/STIM_010.jpg
1820.699	0.444	1	congruent	Block2	congruent/STIM_010.jpg
1823.3	0.402	1	congruent	Block2	congruent/STIM_010.jpg
1826.512	0.389	1	congruent	Block2	congruent/STIM_010.jpg
1829.305	0.491	1	congruent	Block2	congruent/STIM_011.jpg
1833.067	0.474	1	congruent	Block2	congruent/STIM_011.jpg
1837.211	0.369	1	congruent	Block2	congruent/STIM_011.jpg
1840.0	0.355	1	congruent	Block2	congruent/STIM_011.jpg
1843.921	0.622	1	congruent	Block2	congruent/STIM_011.jpg
1847.916	0.352	1	congruent	Block2	congruent/STIM_012.jpg
1850.71	0.374	1	congruent	Block2	congruent/STIM_012.jpg
1853.528	0.43	1	congruent	Block2	congruent/STIM_012.jpg
1856.896	0.494	1	congruent	Block2	congruent/STIM_012.jpg
1859.796	0.504	1	congruent	Block2	congruent/STIM_012.jpg
1862.51	0.581	1	congruent	Block2	congruent/STIM_013.jpg
1865.275	0.442	1	congruent	Block2	congruent/STIM_013.jpg
1869.169	0.625	1	congruent	Block2	congruent/STIM_013.jpg
1871.891	0.42	1	congruent	Block2	congruent/STIM_013.jpg
1875.189	0.545	1	congruent	Block2	congruent/STIM_013.jpg
1879.393	0.565	1	congruent	Block2	congruent/STIM_014.jpg
1883.41	0.587	1	congruent	Block2	congruent/STIM_014.jpg
1886.681	0.57	1	congruent	Block2	congruent/STIM_014.jpg
1889.807	0.544	1	congruent	Block2	congruent/STIM_014.jpg
1892.91	0.525	1	congruent	Block2	congruent/STIM_014.jpg
1896.774	0.37	1	congruent	Block2	congruent/STIM_015.jpg
1900.768	0.568	1	congruent	Block2	congruent/STIM_015.jpg
1904.715	0.518	1	congruent	Block2	congruent/STIM_015.jpg
1908.446	0.469	1	congruent	Block2	congruent/STIM_015.jpg
1912.396	0.6	1	congruent	Block2	congruent/STIM_015.jpg
1915.568	0.552	1	congruent	Block2	congruent/STIM_016.jpg
1919.769	0.568	1	congruent	Block2	congruent/STIM_016.jpg
1924.158	0.41	1	congruent	Block2	congruent/STIM_016.jpg
1927.632	0.494	1	congruent	Block2	congruent/STIM_016.jpg
1931.612	0.449	1	congruent	Block2	congruent/STIM_016.jpg
1934.913	0.625	1	congruent	Block2	congruent/STIM_017.jpg
1937.606	0.5	1	congruent	Block2	congruent/STIM_017.jpg
1941.254	0.559	1	congruent	Block2	congruent/STIM_017.jpg
1945.641	0.61	1	congruent	Block2	congruent/STIM_017.jpg
1950.23	0.538	1	congruent	Block2	congruent/STIM_017.jpg
1953.066	0.531	1	congruent	Block2	congruent/STIM_018.jpg
1955.695	0.528	1	congruent	Block2	congruent/STIM_018.jpg
1958.533	0.393	1	congruent	Block2	congruent/STIM_018.jpg
1961.735	0.597	1	congruent	Block2	congruent/STIM_018.jpg
1965.246	0.351	1	congruent	Block2	congruent/STIM_018.jpg
1968.767	0.438	1	congruent	Block2	congruent/STIM_019.jpg
1972.575	0.364	1	congruent	Block2	congruent/STIM_019.jpg
1975.337	0.462	1	congruent	Block2	congruent/STIM_019.jpg
1978.827	0.404	1	congruent	Block2	congruent/STIM_019.jpg
1982.526	0.377	1	congruent	Block2	congruent/STIM_019.jpg
1985.261	0.586	1	congruent	Block2	congruent/STIM_020.jpg
1989.127	0.457	1	congruent	Block2	congruent/STIM_020.jpg
1992.381	0.518	1	congruent	Block2	congruent/STIM_020.jpg
1995.919	0.393	1	congruent	Block2	congruent/STIM_020.jpg
1999.335	0.396	1	congruent	Block2	congruent/STIM_020.jpg
2001.906	0.582	1	congruent	Block2	congruent/STIM_021.jpg
2005.282	0.613	1	congruent	Block2	congruent/STIM_021.jpg
2008.92	0.494	1	congruent	Block2	congruent/STIM_021.jpg
2011.692	0.565	1	congruent	Block2	congruent/STIM_021.jpg
2014.785	0.544	1	congruent	Block2	congruent/STIM_021.jpg
2018.923	0.529	1	congruent	Block2	congruent/STIM_022.jpg
2022.268	0.366	1	congruent	Block2	congruent/STIM_022.jpg
2025.32	0.529	1	congruent	Block2	congruent/STIM_022.jpg
2029.212	0.426	1	congruent	Block2	congruent/STIM_022.jpg
2032.014	0.372	1	congruent	Block2	congruent/STIM_022.jpg
2035.194	0.39	1	congruent	Block2	congruent/STIM_023.jpg
2038.169	0.45	1	congruent	Block2	congruent/STIM_023.jpg
2042.02	0.414	1	congruent	Block2	congruent/STIM_023.jpg
2045.744	0.618	1	congruent	Block2	congruent/STIM_023.jpg
2048.996	0.605	1	congruent	Block2	congruent/STIM_023.jpg
2053.053	0.601	1	congruent	Block2	congruent/STIM_024.jpg
2057.072	0.554	1	congruent	Block2	congruent/STIM_024.jpg
2060.411	0.542	1	congruent	Block2	congruent/STIM_024.jpg
2063.024	0.587	1	congruent	Block2	congruent/STIM_024.jpg
2066.413	0.607	1	congruent	Block2	congruent/STIM_024.jpg
2069.086	0.476	1	congruent	Block2	congruent/STIM_025.jpg
2071.692	0.443	1	congruent	Block2	congruent/STIM_025.jpg
2075.475	0.421	1	congruent	Block2	congruent/STIM_025.jpg
2078.146	0.607	1	congruent	Block2	congruent/STIM_025.jpg
2081.032	0.612	1	congruent	Block2	congruent/STIM_025.jpg
2085.274	0.402	1	congruent	Block2	congruent/STIM_026.jpg
2089.016	0.458	1	congruent	Block2	congruent/STIM_026.jpg
2091.516	0.583	1	congruent	Block2	congruent/STIM_026.jpg
2095.771	0.41	1	congruent	Block2	congruent/STIM_026.jpg
2098.948	0.392	1	congruent	Block2	congruent/STIM_026.jpg
2102.723	0.523	1	congruent	Block2	congruent/STIM_027.jpg
2106.733	0.392	1	congruent	Block2	congruent/STIM_027.jpg
2110.32	0.461	1	congruent	Block2	congruent/STIM_027.jpg
2114.311	0.487	1	congruent	Block2	congruent/STIM_027.jpg
2118.383	0.445	1	congruent	Block2	congruent/STIM_027.jpg
2122.267	0.506	1	congruent	Block2	congruent/STIM_028.jpg
2126.395	0.45	1	congruent	Block2	congruent/STIM_028.jpg
2129.104	0.35	1	congruent	Block2	congruent/STIM_028.jpg
2132.17	0.541	1	congruent	Block2	congruent/STIM_028.jpg
2136.217	0.549	1	congruent	Block2	congruent/STIM_028.jpg
2138.98	0.396	1	congruent	Block2	congruent/STIM_029.jpg
2142.388	0.422	1	congruent	Block2	congruent/STIM_029.jpg
2146.586	0.416	1	congruent	Block2	congruent/STIM_029.jpg
2149.525	0.454	1	congruent	Block2	congruent/STIM_029.jpg
2153.727	0.436	1	congruent	Block2	congruent/STIM_029.jpg
2157.86	0.638	1	incongruent	Block3	incongruent/STIM_000.jpg
2161.218	0.7	1	incongruent	Block3	incongruent/STIM_000.jpg
2164.849	0.578	1	incongruent	Block3	incongruent/STIM_000.jpg
2167.665	0.551	1	incongruent	Block3	incongruent/STIM_000.jpg
2171.488	0.346	1	incongruent	Block3	incongruent/STIM_000.jpg
2175.348	0.724	1	incongruent	Block3	incongruent/STIM_001.jpg
2179.725	0.426	1	incongruent	Block3	incongruent/STIM_001.jpg
2183.578	0.598	1	incongruent	Block3	incongruent/STIM_001.jpg
2187.258	0.716	1	incongruent	Block3	incongruent/STIM_001.jpg
2191.151	0.384	1	incongruent	Block3	incongruent/STIM_001.jpg
2194.214	0.633	1	incongruent	Block3	incongruent/STIM_002.jpg
2197.754	0.598	1	incongruent	Block3	incongruent/STIM_002.jpg
2200.762	0.634	1	incongruent	Block3	incongruent/STIM_002.jpg
2203.943	0.431	1	incongruent	Block3	incongruent/STIM_002.jpg
2207.401	0.676	1	incongruent	Block3	incongruent/STIM_002.jpg
2210.757	0.439	1	incongruent	Block3	incongruent/STIM_003.jpg
2214.761	0.417	1	incongruent	Block3	incongruent/STIM_003.jpg
2217.407	0.569	1	incongruent	Block3	incongruent/STIM_003.jpg
2221.093	0.622	1	incongruent	Block3	incongruent/STIM_003.jpg
2223.726	0.432	1	incongruent	Block3	incongruent/STIM_003.jpg
2226.391	0.594	1	incongruent	Block3	incongruent/STIM_004.jpg
2229.457	0.586	1	incongruent	Block3	incongruent/STIM_004.jpg
2233.746	0.658	1	incongruent	Block3	incongruent/STIM_004.jpg
2236.689	0.402	1	incongruent	Block3	incongruent/STIM_004.jpg
2239.725	0.411	1	incongruent	Block3	incongruent/STIM_004.jpg
2243.185	0.521	1	incongruent	Block3	incongruent/STIM_005.jpg
2247.27	0.678	1	incongruent	Block3	incongruent/STIM_005.jpg
2250.293	0.622	1	incongruent	Block3	incongruent/STIM_005.jpg
2253.187	0.594	1	incongruent	Block3	incongruent/STIM_005.jpg
2256.602	0.422	1	incongruent	Block3	incongruent/STIM_005.jpg
2260.741	0.679	1	incongruent	Block3	incongruent/STIM_006.jpg
2264.932	0.512	1	incongruent	Block3	incongruent/STIM_006.jpg
2268.268	0.432	1	incongruent	Block3	incongruent/STIM_006.jpg
2271.981	0.661	1	incongruent	Block3	incongruent/STIM_006.jpg
2276.456	0.691	1	incongruent	Block3	incongruent/STIM_006.jpg
2280.978	0.593	1	incongruent	Block3	incongruent/STIM_007.jpg
2284.711	0.671	1	incongruent	Block3	incongruent/STIM_007.jpg
2289.134	0.607	1	incongruent	Block3	incongruent/STIM_007.jpg
2293.403	0.546	1	incongruent	Block3	incongruent/STIM_007.jpg
2297.561	0.632	1	incongruent	Block3	incongruent/STIM_007.jpg
2300.835	0.371	1	incongruent	Block3	incongruent/STIM_008.jpg
2304.93	0.372	1	incongruent	Block3	incongruent/STIM_008.jpg
2307.475	0.389	1	incongruent	Block3	incongruent/STIM_008.jpg
2310.763	0.699	1	incongruent	Block3	incongruent/STIM_008.jpg
2314.873	0.628	1	incongruent	Block3	incongruent/STIM_008.jpg
2318.969	0.731	1	incongruent	Block3	incongruent/STIM_009.jpg
2322.641	0.414	1	incongruent	Block3	incongruent/STIM_009.jpg
2325.588	0.477	1	incongruent	Block3	incongruent/STIM_009.jpg
2328.282	0.477	1	incongruent	Block3	incongruent/STIM_009.jpg
2332.677	0.594	1	incongruent	Block3	incongruent/STIM_009.jpg
2335.992	0.472	1	incongruent	Block3	incongruent/STIM_010.jpg
2338.933	0.688	1	incongruent	Block3	incongruent/STIM_010.jpg
2343.111	0.717	1	incongruent	Block3	incongruent/STIM_010.jpg
2347.488	0.599	1	incongruent	Block3	incongruent/STIM_010.jpg
2351.78	0.401	1	incongruent	Block3	incongruent/STIM_010.jpg
2355.311	0.408	1	incongruent	Block3	incongruent/STIM_011.jpg
2357.97	0.523	1	incongruent	Block3	incongruent/STIM_011.jpg
2362.33	0.513	1	incongruent	Block3	incongruent/STIM_011.jpg
2366.717	0.518	1	incongruent	Block3	incongruent/STIM_011.jpg
2369.716	0.626	1	incongruent	Block3	incongruent/STIM_011.jpg
2372.765	0.638	1	incongruent	Block3	incongruent/STIM_012.jpg
2377.095	0.402	1	incongruent	Block3	incongruent/STIM_012.jpg
2381.316	0.62	1	incongruent	Block3	incongruent/STIM_012.jpg
2384.074	0.526	1	incongruent	Block3	incongruent/STIM_012.jpg
2388.473	0.618	1	incongruent	Block3	incongruent/STIM_012.jpg
2392.397	0.566	1	incongruent	Block3	incongruent/STIM_013.jpg
2396.501	0.651	1	incongruent	Block3	incongruent/STIM_013.jpg
2400.96	0.507	1	incongruent	Block3	incongruent/STIM_013.jpg
2404.331	0.577	1	incongruent	Block3	incongruent/STIM_013.jpg
2408.491	0.472	1	incongruent	Block3	incongruent/STIM_013.jpg
2411.195	0.404	1	incongruent	Block3	incongruent/STIM_014.jpg
2414.92	0.433	1	incongruent	Block3	incongruent/STIM_014.jpg
2419.001	0.55	1	incongruent	Block3	incongruent/STIM_014.jpg
2423.196	0.538	1	incongruent	Block3	incongruent/STIM_014.jpg
2426.326	0.379	1	incongruent	Block3	incongruent/STIM_014.jpg
2430.326	0.724	1	incongruent	Block3	incongruent/STIM_015.jpg
2433.504	0.375	1	incongruent	Block3	incongruent/STIM_015.jpg
2436.943	0.447	1	incongruent	Block3	incongruent/STIM_015.jpg
2440.558	0.377	1	incongruent	Block3	incongruent/STIM_015.jpg
2444.164	0.571	1	incongruent	Block3	incongruent/STIM_015.jpg
2447.417	0.633	1	incongruent	Block3	incongruent/STIM_016.jpg
2450.72	0.678	1	incongruent	Block3	incongruent/STIM_016.jpg
2455.067	0.602	1	incongruent	Block3	incongruent/STIM_016.jpg
2459.618	0.345	1	incongruent	Block3	incongruent/STIM_016.jpg
2462.791	0.357	1	incongruent	Block3	incongruent/STIM_016.jpg
2466.562	0.614	1	incongruent	Block3	incongruent/STIM_017.jpg
2471.093	0.545	1	incongruent	Block3	incongruent/STIM_017.jpg
2474.473	0.634	1	incongruent	Block3	incongruent/STIM_017.jpg
2478.74	0.66	1	incongruent	Block3	incongruent/STIM_017.jpg
2483.387	0.514	1	incongruent	Block3	incongruent/STIM_017.jpg
2487.668	0.39	1	incongruent	Block3	incongruent/STIM_018.jpg
2490.803	0.498	1	incongruent	Block3	incongruent/STIM_018.jpg
2494.761	0.389	1	incongruent	Block3	incongruent/STIM_018.jpg
2497.292	0.722	1	incongruent	Block3	incongruent/STIM_018.jpg
2501.334	0.642	1	incongruent	Block3	incongruent/STIM_018.jpg
2504.116	0.522	1	incongruent	Block3	incongruent/STIM_019.jpg
2507.031	0.606	1	incongruent	Block3	incongruent/STIM_019.jpg
2509.922	0.702	1	incongruent	Block3	incongruent/STIM_019.jpg
2512.829	0.345	1	incongruent	Block3	incongruent/STIM_019.jpg
2517.076	0.633	1	incongruent	Block3	incongruent/STIM_019.jpg
2520.206	0.673	1	incongruent	Block3	incongruent/STIM_020.jpg
2523.333	0.621	1	incongruent	Block3	incongruent/STIM_020.jpg
2527.617	0.545	1	incongruent	Block3	incongruent/STIM_020.jpg
2530.215	0.656	1	incongruent	Block3	incongruent/STIM_020.jpg
2533.75	0.417	1	incongruent	Block3	incongruent/STIM_020.jpg
2537.032	0.554	1	incongruent	Block3	incongruent/STIM_021.jpg
2540.222	0.503	1	incongruent	Block3	incongruent/STIM_021.jpg
2542.785	0.492	1	incongruent	Block3	incongruent/STIM_021.jpg
2545.397	0.48	1	incongruent	Block3	incongruent/STIM_021.jpg
2547.883	0.682	1	incongruent	Block3	incongruent/STIM_021.jpg
2551.474	0.438	1	incongruent	Block3	incongruent/STIM_022.jpg
2555.642	0.656	1	incongruent	Block3	incongruent/STIM_022.jpg
2559.834	0.697	1	incongruent	Block3	incongruent/STIM_022.jpg
2563.177	0.402	1	incongruent	Block3	incongruent/STIM_022.jpg
2566.168	0.6	1	incongruent	Block3	incongruent/STIM_022.jpg
2570.45	0.692	1	incongruent	Block3	incongruent/STIM_023.jpg
2573.256	0.419	1	incongruent	Block3	incongruent/STIM_023.jpg
2576.694	0.567	1	incongruent	Block3	incongruent/STIM_023.jpg
2580.453	0.497	1	incongruent	Block3	incongruent/STIM_023.jpg
2584.173	0.445	1	incongruent	Block3	incongruent/STIM_023.jpg
2587.433	0.729	1	incongruent	Block3	incongruent/STIM_024.jpg
2592.11	0.544	1	incongruent	Block3	incongruent/STIM_024.jpg
2595.755	0.647	1	incongruent	Block3	incongruent/STIM_024.jpg
2599.249	0.379	1	incongruent	Block3	incongruent/STIM_024.jpg
2603.19	0.567	1	incongruent	Block3	incongruent/STIM_024.jpg
2607.737	0.686	1	incongruent	Block3	incongruent/STIM_025.jpg
2611.706	0.478	1	incongruent	Block3	incongruent/STIM_025.jpg
2615.067	0.588	1	incongruent	Block3	incongruent/STIM_025.jpg
2618.145	0.381	1	incongruent	Block3	incongruent/STIM_025.jpg
2621.6	0.516	1	incongruent	Block3	incongruent/STIM_025.jpg
2625.138	0.56	1	incongruent	Block3	incongruent/STIM_026.jpg
2628.455	0.553	1	incongruent	Block3	incongruent/STIM_026.jpg
2632.417	0.711	1	incongruent	Block3	incongruent/STIM_026.jpg
2636.035	0.664	1	incongruent	Block3	incongruent/STIM_026.jpg
2640.156	0.604	1	incongruent	Block3	incongruent/STIM_026.jpg
2643.928	0.47	1	incongruent	Block3	incongruent/STIM_027.jpg
2646.563	0.376	1	incongruent	Block3	incongruent/STIM_027.jpg
2649.093	0.382	1	incongruent	Block3	incongruent/STIM_027.jpg
2651.772	0.66	1	incongruent	Block3	incongruent/STIM_027.jpg
2656.011	0.43	1	incongruent	Block3	incongruent/STIM_027.jpg
2658.96	0.353	1	incongruent	Block3	incongruent/STIM_028.jpg
2662.53	0.379	1	incongruent	Block3	incongruent/STIM_028.jpg
2666.641	0.638	1	incongruent	Block3	incongruent/STIM_028.jpg
2670.808	0.344	1	incongruent	Block3	incongruent/STIM_028.jpg
2674.218	0.487	1	incongruent	Block3	incongruent/STIM_028.jpg
2677.479	0.624	1	incongruent	Block3	incongruent/STIM_029.jpg
2681.162	0.425	1	incongruent	Block3	incongruent/STIM_029.jpg
2683.832	0.474	0	incongruent	Block3	incongruent/STIM_029.jpg
2687.871	0.612	1	incongruent	Block3	incongruent/STIM_029.jpg
2690.933	0.463	1	incongruent	Block3	incongruent/STIM_029.jpg
2695.065	0.482	1	congruent	Block3	congruent/STIM_000.jpg
2698.869	0.52	1	congruent	Block3	congruent/STIM_000.jpg
2702.269	0.539	1	congruent	Block3	congruent/STIM_000.jpg
2705.384	0.481	1	congruent	Block3	congruent/STIM_000.jpg
2709.811	0.432	1	congruent	Block3	congruent/STIM_000.jpg
2713.801	0.35	1	congruent	Block3	congruent/STIM_001.jpg
2718.009	0.599	1	congruent	Block3	congruent/STIM_001.jpg
2721.585	0.37	1	congruent	Block3	congruent/STIM_001.jpg
2725.235	0.424	1	congruent	Block3	congruent/STIM_001.jpg
2729.318	0.582	1	congruent	Block3	congruent/STIM_001.jpg
2732.819	0.513	1	congruent	Block3	congruent/STIM_002.jpg
2735.602	0.388	1	congruent	Block3	congruent/STIM_002.jpg
2739.727	0.449	1	congruent	Block3	congruent/STIM_002.jpg
2742.744	0.574	1	congruent	Block3	congruent/STIM_002.jpg
2747.076	0.588	1	congruent	Block3	congruent/STIM_002.jpg
2750.272	0.468	1	congruent	Block3	congruent/STIM_003.jpg
2753.709	0.386	1	congruent	Block3	congruent/STIM_003.jpg
2757.612	0.385	1	congruent	Block3	congruent/STIM_003.jpg
2761.993	0.49	1	congruent	Block3	congruent/STIM_003.jpg
2765.503	0.434	1	congruent	Block3	congruent/STIM_003.jpg
2768.064	0.397	1	congruent	Block3	congruent/STIM_004.jpg
2770.68	0.449	1	congruent	Block3	congruent/STIM_004.jpg
2774.564	0.431	1	congruent	Block3	congruent/STIM_004.jpg
2778.419	0.592	1	congruent	Block3	congruent/STIM_004.jpg
2781.133	0.47	1	congruent	Block3	congruent/STIM_004.jpg
2783.901	0.379	1	congruent	Block3	congruent/STIM_005.jpg
2786.694	0.418	1	congruent	Block3	congruent/STIM_005.jpg
2789.171	0.538	1	congruent	Block3	congruent/STIM_005.jpg
2792.614	0.411	1	congruent	Block3	congruent/STIM_005.jpg
2796.253	0.368	1	congruent	Block3	congruent/STIM_005.jpg
2798.698	0.552	1	congruent	Block3	congruent/STIM_006.jpg
2802.81	0.352	1	congruent	Block3	congruent/STIM_006.jpg
2807.112	0.586	1	congruent	Block3	congruent/STIM_006.jpg
2809.77	0.413	0	congruent	Block3	congruent/STIM_006.jpg
2812.663	0.538	1	congruent	Block3	congruent/STIM_006.jpg
2816.52	0.611	1	congruent	Block3	congruent/STIM_007.jpg
2820.136	0.519	1	congruent	Block3	congruent/STIM_007.jpg
2824.073	0.359	1	congruent	Block3	congruent/STIM_007.jpg
2827.456	0.604	0	congruent	Block3	congruent/STIM_007.jpg
2831.004	0.365	1	congruent	Block3	congruent/STIM_007.jpg
2833.935	0.537	1	congruent	Block3	congruent/STIM_008.jpg
2836.97	0.589	1	congruent	Block3	congruent/STIM_008.jpg
2840.022	0.453	1	congruent	Block3	congruent/STIM_008.jpg
2844.385	0.536	1	congruent	Block3	congruent/STIM_008.jpg
2847.345	0.527	1	congruent	Block3	congruent/STIM_008.jpg
2850.887	0.476	1	congruent	Block3	congruent/STIM_009.jpg
2853.426	0.602	1	congruent	Block3	congruent/STIM_009.jpg
2856.165	0.622	1	congruent	Block3	congruent/STIM_009.jpg
2859.004	0.619	1	congruent	Block3	congruent/STIM_009.jpg
2862.763	0.463	1	congruent	Block3	congruent/STIM_009.jpg
2865.503	0.424	1	congruent	Block3	congruent/STIM_010.jpg
2868.036	0.52	1	congruent	Block3	congruent/STIM_010.jpg
2871.567	0.376	1	congruent	Block3	congruent/STIM_010.jpg
2875.073	0.516	1	congruent	Block3	congruent/STIM_010.jpg
2878.225	0.441	1	congruent	Block3	congruent/STIM_010.jpg
2882.617	0.466	1	congruent	Block3	congruent/STIM_011.jpg
2885.739	0.461	1	congruent	Block3	congruent/STIM_011.jpg
2890.082	0.594	1	congruent	Block3	congruent/STIM_011.jpg
2893.692	0.372	1	congruent	Block3	congruent/STIM_011.jpg
2896.964	0.627	1	congruent	Block3	congruent/STIM_011.jpg
2900.069	0.536	1	congruent	Block3	congruent/STIM_012.jpg
2904.282	0.533	1	congruent	Block3	congruent/STIM_012.jpg
2908.435	0.518	1	congruent	Block3	congruent/STIM_012.jpg
2912.79	0.562	1	congruent	Block3	congruent/STIM_012.jpg
2916.125	0.604	1	congruent	Block3	congruent/STIM_012.jpg
2919.453	0.491	0	congruent	Block3	congruent/STIM_013.jpg
2922.517	0.61	1	congruent	Block3	congruent/STIM_013.jpg
2926.602	0.414	1	congruent	Block3	congruent/STIM_013.jpg
2930.702	0.401	1	congruent	Block3	congruent/STIM_013.jpg
2934.428	0.522	1	congruent	Block3	congruent/STIM_013.jpg
2938.798	0.441	1	congruent	Block3	congruent/STIM_014.jpg
2941.844	0.605	1	congruent	Block3	congruent/STIM_014.jpg
2945.986	0.36	1	congruent	Block3	congruent/STIM_014.jpg
2948.514	0.441	1	congruent	Block3	congruent/STIM_014.jpg
2952.259	0.41	1	congruent	Block3	congruent/STIM_014.jpg
2955.185	0.417	1	congruent	Block3	congruent/STIM_015.jpg
2957.963	0.458	1	congruent	Block3	congruent/STIM_015.jpg
2961.28	0.569	1	congruent	Block3	congruent/STIM_015.jpg
2964.118	0.451	1	congruent	Block3	congruent/STIM_015.jpg
2966.977	0.556	1	congruent	Block3	congruent/STIM_015.jpg
2971.042	0.405	1	congruent	Block3	congruent/STIM_016.jpg
2975.155	0.622	1	congruent	Block3	congruent/STIM_016.jpg
2979.576	0.478	1	congruent	Block3	congruent/STIM_016.jpg
2982.329	0.556	1	congruent	Block3	congruent/STIM_016.jpg
2986.869	0.626	1	congruent	Block3	congruent/STIM_016.jpg
2989.502	0.494	1	congruent	Block3	congruent/STIM_017.jpg
2992.51	0.351	1	congruent	Block3	congruent/STIM_017.jpg
2996.626	0.556	1	congruent	Block3	congruent/STIM_017.jpg
2999.514	0.482	1	congruent	Block3	congruent/STIM_017.jpg
3003.054	0.625	1	congruent	Block3	congruent/STIM_017.jpg
3007.469	0.614	1	congruent	Block3	congruent/STIM_018.jpg
3010.388	0.516	1	congruent	Block3	congruent/STIM_018.jpg
3014.856	0.352	1	congruent	Block3	congruent/STIM_018.jpg
3017.906	0.583	1	congruent	Block3	congruent/STIM_018.jpg
3021.086	0.526	1	congruent	Block3	congruent/STIM_018.jpg
3024.193	0.529	1	congruent	Block3	congruent/STIM_019.jpg
3027.461	0.366	1	congruent	Block3	congruent/STIM_019.jpg
3031.513	0.593	1	congruent	Block3	congruent/STIM_019.jpg
3035.051	0.623	1	congruent	Block3	congruent/STIM_019.jpg
3038.172	0.592	0	congruent	Block3	congruent/STIM_019.jpg
3042.496	0.52	1	congruent	Block3	congruent/STIM_020.jpg
3045.56	0.447	1	congruent	Block3	congruent/STIM_020.jpg
3048.08	0.593	1	congruent	Block3	congruent/STIM_020.jpg
3051.581	0.379	1	congruent	Block3	congruent/STIM_020.jpg
3054.838	0.475	1	congruent	Block3	congruent/STIM_020.jpg
3058.197	0.572	1	congruent	Block3	congruent/STIM_021.jpg
3060.807	0.468	1	congruent	Block3	congruent/STIM_021.jpg
3064.669	0.538	1	congruent	Block3	congruent/STIM_021.jpg
3068.22	0.479	1	congruent	Block3	congruent/STIM_021.jpg
3072.186	0.517	1	congruent	Block3	congruent/STIM_021.jpg
3076.236	0.576	1	congruent	Block3	congruent/STIM_022.jpg
3080.044	0.419	1	congruent	Block3	congruent/STIM_022.jpg
3084.115	0.582	1	congruent	Block3	congruent/STIM_022.jpg
3088.314	0.486	1	congruent	Block3	congruent/STIM_022.jpg
3092.772	0.408	1	congruent	Block3	congruent/STIM_022.jpg
3097.104	0.531	1	congruent	Block3	congruent/STIM_023.jpg
3100.527	0.509	1	congruent	Block3	congruent/STIM_023.jpg
3104.879	0.418	1	congruent	Block3	congruent/STIM_023.jpg
3109.247	0.371	1	congruent	Block3	congruent/STIM_023.jpg
3112.399	0.567	1	congruent	Block3	congruent/STIM_023.jpg
3115.073	0.352	1	congruent	Block3	congruent/STIM_024.jpg
3117.441	0.589	1	congruent	Block3	congruent/STIM_024.jpg
3120.509	0.548	1	congruent	Block3	congruent/STIM_024.jpg
3123.887	0.595	1	congruent	Block3	congruent/STIM_024.jpg
3127.106	0.578	1	congruent	Block3	congruent/STIM_024.jpg
3129.763	0.381	1	congruent	Block3	congruent/STIM_025.jpg
3133.813	0.434	1	congruent	Block3	congruent/STIM_025.jpg
3137.949	0.419	1	congruent	Block3	congruent/STIM_025.jpg
3141.984	0.482	1	congruent	Block3	congruent/STIM_025.jpg
3145.696	0.577	1	congruent	Block3	congruent/STIM_025.jpg
3148.395	0.448	1	congruent	Block3	congruent/STIM_026.jpg
3151.963	0.536	1	congruent	Block3	congruent/STIM_026.jpg
3154.796	0.509	1	congruent	Block3	congruent/STIM_026.jpg
3157.853	0.508	1	congruent	Block3	congruent/STIM_026.jpg
3161.362	0.383	1	congruent	Block3	congruent/STIM_026.jpg
3165.205	0.416	1	congruent	Block3	congruent/STIM_027.jpg
3169.619	0.536	1	congruent	Block3	congruent/STIM_027.jpg
3174.006	0.595	1	congruent	Block3	congruent/STIM_027.jpg
3176.79	0.467	1	congruent	Block3	congruent/STIM_027.jpg
3180.356	0.604	1	congruent	Block3	congruent/STIM_027.jpg
3184.526	0.513	1	congruent	Block3	congruent/STIM_028.jpg
3188.328	0.376	1	congruent	Block3	congruent/STIM_028.jpg
3191.387	0.424	1	congruent	Block3	congruent/STIM_028.jpg
3193.958	0.452	1	congruent	Block3	congruent/STIM_028.jpg
3196.665	0.53	1	congruent	Block3	congruent/STIM_028.jpg
3200.228	0.603	1	congruent	Block3	congruent/STIM_029.jpg
3203.096	0.505	1	congruent	Block3	congruent/STIM_029.jpg
3207.206	0.564	1	congruent	Block3	congruent/STIM_029.jpg
3210.946	0.586	1	congruent	Block3	congruent/STIM_029.jpg
3215.053	0.381	1	congruent	Block3	congruent/STIM_029.jpg
