onset	duration	response_time_ms	trial_type	learning_stage	stimulus	response_port
0.0	0.574	573.6	incongruent	Block1	incongruent/STIM_000.jpg	99
3.219	0.938	938.3	incongruent	Block1	incongruent/STIM_000.jpg	100
7.91	0.611	610.9	incongruent	Block1	incongruent/STIM_000.jpg	100
10.623	0.469	468.9	incongruent	Block1	incongruent/STIM_000.jpg	99
13.751	0.532	531.9	incongruent	Block1	incongruent/STIM_000.jpg	100
17.843	0.986	985.5	incongruent	Block1	incongruent/STIM_001.jpg	99
22.782	0.482	482.1	incongruent	Block1	incongruent/STIM_001.jpg	100
26.683	0.853	852.7	incongruent	Block1	incongruent/STIM_001.jpg	100
31.185	0.759	759.1	incongruent	Block1	incongruent/STIM_001.jpg	99
34.316	0.458	457.8	incongruent	Block1	incongruent/STIM_001.jpg	100
38.56	0.85	849.7	incongruent	Block1	incongruent/STIM_002.jpg	100
42.716	0.908	907.6	incongruent	Block1	incongruent/STIM_002.jpg	100
45.627	0.742	742.0	incongruent	Block1	incongruent/STIM_002.jpg	100
49.745	0.482	481.7	incongruent	Block1	incongruent/STIM_002.jpg	100
53.939	0.706	706.5	incongruent	Block1	incongruent/STIM_002.jpg	100
57.929	0.848	848.1	incongruent	Block1	incongruent/STIM_003.jpg	99
62.682	0.485	485.4	incongruent	Block1	incongruent/STIM_003.jpg	99
65.719	0.868	867.5	incongruent	Block1	incongruent/STIM_003.jpg	99
69.686	0.442	442.0	incongruent	Block1	incongruent/STIM_003.jpg	100
73.916	0.595	594.7	incongruent	Block1	incongruent/STIM_003.jpg	99
76.78	0.828	827.5	incongruent	Block1	incongruent/STIM_004.jpg	99
80.719	0.638	637.6	incongruent	Block1	incongruent/STIM_004.jpg	100
85.074	0.7	699.7	incongruent	Block1	incongruent/STIM_004.jpg	99
88.208	0.517	516.6	incongruent	Block1	incongruent/STIM_004.jpg	100
91.973	0.708	707.6	incongruent	Block1	incongruent/STIM_004.jpg	100
96.037	0.641	641.1	incongruent	Block1	incongruent/STIM_005.jpg	99
99.052	0.936	936.0	incongruent	Block1	incongruent/STIM_005.jpg	99
102.564	0.921	921.2	incongruent	Block1	incongruent/STIM_005.jpg	99
106.181	0.639	639.2	incongruent	Block1	incongruent/STIM_005.jpg	100
110.281	0.419	419.4	incongruent	Block1	incongruent/STIM_005.jpg	99
114.072	0.682	682.1	incongruent	Block1	incongruent/STIM_006.jpg	100
116.804	0.503	503.4	incongruent	Block1	incongruent/STIM_006.jpg	100
120.063	0.835	835.2	incongruent	Block1	incongruent/STIM_006.jpg	100
123.399	0.57	569.7	incongruent	Block1	incongruent/STIM_006.jpg	100
126.115	0.454	454.1	incongruent	Block1	incongruent/STIM_006.jpg	99
128.837	0.522	521.5	incongruent	Block1	incongruent/STIM_007.jpg	99
131.995	0.787	786.7	incongruent	Block1	incongruent/STIM_007.jpg	100
136.457	0.882	882.4	incongruent	Block1	incongruent/STIM_007.jpg	100
141.212	0.845	845.4	incongruent	Block1	incongruent/STIM_007.jpg	100
145.211	0.778	778.0	incongruent	Block1	incongruent/STIM_007.jpg	99
148.53	0.805	805.3	incongruent	Block1	incongruent/STIM_008.jpg	100
152.59	0.845	844.6	incongruent	Block1	incongruent/STIM_008.jpg	100
155.597	0.852	852.0	incongruent	Block1	incongruent/STIM_008.jpg	100
158.881	0.427	427.0	incongruent	Block1	incongruent/STIM_008.jpg	99
163.204	0.69	690.0	incongruent	Block1	incongruent/STIM_008.jpg	100
165.931	0.624	624.0	incongruent	Block1	incongruent/STIM_009.jpg	100
169.252	0.894	894.0	incongruent	Block1	incongruent/STIM_009.jpg	100
172.414	0.589	588.9	incongruent	Block1	incongruent/STIM_009.jpg	100
176.326	0.703	703.4	incongruent	Block1	incongruent/STIM_009.jpg	100
180.126	0.806	806.1	incongruent	Block1	incongruent/STIM_009.jpg	99
183.248	0.808	808.3	incongruent	Block1	incongruent/STIM_010.jpg	100
186.255	0.742	741.7	incongruent	Block1	incongruent/STIM_010.jpg	99
190.811	0.509	509.0	incongruent	Block1	incongruent/STIM_010.jpg	99
194.762	0.887	887.2	incongruent	Block1	incongruent/STIM_010.jpg	100
198.709	0.687	687.1	incongruent	Block1	incongruent/STIM_010.jpg	100
203.183	0.881	881.4	incongruent	Block1	incongruent/STIM_011.jpg	99
206.398	0.753	752.9	incongruent	Block1	incongruent/STIM_011.jpg	100
210.284	0.694	693.7	incongruent	Block1	incongruent/STIM_011.jpg	99
213.546	0.661	661.3	incongruent	Block1	incongruent/STIM_011.jpg	99
216.682	0.776	776.0	incongruent	Block1	incongruent/STIM_011.jpg	100
220.052	0.914	914.1	incongruent	Block1	incongruent/STIM_012.jpg	100
224.469	0.884	884.0	incongruent	Block1	incongruent/STIM_012.jpg	100
228.253	0.485	484.7	incongruent	Block1	incongruent/STIM_012.jpg	99
231.351	0.502	502.0	incongruent	Block1	incongruent/STIM_012.jpg	100
235.081	0.725	725.2	incongruent	Block1	incongruent/STIM_012.jpg	100
238.742	0.909	908.8	incongruent	Block1	incongruent/STIM_013.jpg	100
242.323	0.504	504.2	incongruent	Block1	incongruent/STIM_013.jpg	100
246.316	0.527	526.8	incongruent	Block1	incongruent/STIM_013.jpg	100
250.424	0.627	627.0	incongruent	Block1	incongruent/STIM_013.jpg	99
254.472	0.422	422.5	incongruent	Block1	incongruent/STIM_013.jpg	100
257.65	0.827	826.7	incongruent	Block1	incongruent/STIM_014.jpg	99
261.689	0.525	525.3	incongruent	Block1	incongruent/STIM_014.jpg	100
265.454	0.682	682.5	incongruent	Block1	incongruent/STIM_014.jpg	99
270.028	0.656	656.2	incongruent	Block1	incongruent/STIM_014.jpg	99
273.787	0.634	634.3	incongruent	Block1	incongruent/STIM_014.jpg	100
278.261	0.921	920.8	incongruent	Block1	incongruent/STIM_015.jpg	100
282.795	0.783	782.6	incongruent	Block1	incongruent/STIM_015.jpg	99
285.735	0.902	902.4	incongruent	Block1	incongruent/STIM_015.jpg	100
290.28	0.814	813.6	incongruent	Block1	incongruent/STIM_015.jpg	99
294.039	0.575	575.4	incongruent	Block1	incongruent/STIM_015.jpg	99
297.854	0.94	940.5	incongruent	Block1	incongruent/STIM_016.jpg	100
302.199	0.894	893.7	incongruent	Block1	incongruent/STIM_016.jpg	100
305.993	0.464	463.7	incongruent	Block1	incongruent/STIM_016.jpg	99
309.945	0.76	759.5	incongruent	Block1	incongruent/STIM_016.jpg	100
312.964	0.504	504.1	incongruent	Block1	incongruent/STIM_016.jpg	99
316.898	0.756	755.7	incongruent	Block1	incongruent/STIM_017.jpg	99
321.587	0.532	532.5	incongruent	Block1	incongruent/STIM_017.jpg	99
325.996	0.527	527.2	incongruent	Block1	incongruent/STIM_017.jpg	99
328.846	0.604	604.0	incongruent	Block1	incongruent/STIM_017.jpg	100
332.922	0.814	813.7	incongruent	Block1	incongruent/STIM_017.jpg	100
336.267	0.906	906.5	incongruent	Block1	incongruent/STIM_018.jpg	99
340.694	0.497	497.4	incongruent	Block1	incongruent/STIM_018.jpg	100
344.404	0.44	439.7	incongruent	Block1	incongruent/STIM_018.jpg	100
348.283	0.486	485.9	incongruent	Block1	incongruent/STIM_018.jpg	100
351.332	0.644	644.2	incongruent	Block1	incongruent/STIM_018.jpg	99
354.741	0.69	690.2	incongruent	Block1	incongruent/STIM_019.jpg	100
358.947	0.645	644.7	incongruent	Block1	incongruent/STIM_019.jpg	99
361.998	0.552	551.7	incongruent	Block1	incongruent/STIM_019.jpg	99
366.149	0.592	591.7	incongruent	Block1	incongruent/STIM_019.jpg	99
370.085	0.742	742.0	incongruent	Block1	incongruent/STIM_019.jpg	99
374.808	0.829	828.7	incongruent	Block1	incongruent/STIM_020.jpg	100
378.611	0.57	569.6	incongruent	Block1	incongruent/STIM_020.jpg	99
381.425	0.814	813.8	incongruent	Block1	incongruent/STIM_020.jpg	100
386.219	0.438	437.7	incongruent	Block1	incongruent/STIM_020.jpg	100
388.682	0.668	668.3	incongruent	Block1	incongruent/STIM_020.jpg	99
392.789	0.533	532.7	incongruent	Block1	incongruent/STIM_021.jpg	100
395.617	0.812	811.7	incongruent	Block1	incongruent/STIM_021.jpg	99
400.151	0.937	936.8	incongruent	Block1	incongruent/STIM_021.jpg	99
404.799	0.757	756.7	incongruent	Block1	incongruent/STIM_021.jpg	100
408.926	0.56	560.3	incongruent	Block1	incongruent/STIM_021.jpg	99
412.601	0.568	567.9	incongruent	Block1	incongruent/STIM_022.jpg	99
416.162	0.983	983.1	incongruent	Block1	incongruent/STIM_022.jpg	100
419.388	0.882	881.6	incongruent	Block1	incongruent/STIM_022.jpg	100
423.266	0.602	601.5	incongruent	Block1	incongruent/STIM_022.jpg	99
426.331	0.582	582.2	incongruent	Block1	incongruent/STIM_022.jpg	100
430.083	0.512	512.5	incongruent	Block1	incongruent/STIM_023.jpg	100
433.244	0.91	909.9	incongruent	Block1	incongruent/STIM_023.jpg	100
436.309	0.544	543.7	incongruent	Block1	incongruent/STIM_023.jpg	99
439.627	0.71	710.3	incongruent	Block1	incongruent/STIM_023.jpg	100
444.036	0.502	502.1	incongruent	Block1	incongruent/STIM_023.jpg	100
447.908	0.718	718.1	incongruent	Block1	incongruent/STIM_024.jpg	99
452.397	0.85	849.6	incongruent	Block1	incongruent/STIM_024.jpg	99
455.314	0.567	566.6	incongruent	Block1	incongruent/STIM_024.jpg	99
458.77	0.459	459.2	incongruent	Block1	incongruent/STIM_024.jpg	99
462.505	0.661	661.0	incongruent	Block1	incongruent/STIM_024.jpg	99
466.297	0.623	623.4	incongruent	Block1	incongruent/STIM_025.jpg	99
470.525	0.88	880.0	incongruent	Block1	incongruent/STIM_025.jpg	99
475.126	0.555	555.1	incongruent	Block1	incongruent/STIM_025.jpg	99
478.984	0.752	752.0	incongruent	Block1	incongruent/STIM_025.jpg	99
483.007	0.745	745.4	incongruent	Block1	incongruent/STIM_025.jpg	99
486.006	0.664	663.7	incongruent	Block1	incongruent/STIM_026.jpg	99
489.512	0.474	474.2	incongruent	Block1	incongruent/STIM_026.jpg	100
492.992	0.531	531.4	incongruent	Block1	incongruent/STIM_026.jpg	99
497.45	0.809	808.9	incongruent	Block1	incongruent/STIM_026.jpg	99
502.035	0.648	648.4	incongruent	Block1	incongruent/STIM_026.jpg	100
505.429	0.519	518.9	incongruent	Block1	incongruent/STIM_027.jpg	100
508.273	0.548	548.3	incongruent	Block1	incongruent/STIM_027.jpg	99
511.489	0.836	835.5	incongruent	Block1	incongruent/STIM_027.jpg	100
515.962	0.555	555.2	incongruent	Block1	incongruent/STIM_027.jpg	99
519.464	0.408	407.9	incongruent	Block1	incongruent/STIM_027.jpg	100
522.233	0.67	669.8	incongruent	Block1	incongruent/STIM_028.jpg	99
526.019	0.519	519.2	incongruent	Block1	incongruent/STIM_028.jpg	99
529.767	0.942	941.5	incongruent	Block1	incongruent/STIM_028.jpg	99
534.369	0.502	502.4	incongruent	Block1	incongruent/STIM_028.jpg	100
537.378	0.44	439.5	incongruent	Block1	incongruent/STIM_028.jpg	100
540.195	0.602	601.7	incongruent	Block1	incongruent/STIM_029.jpg	99
544.659	0.649	649.3	incongruent	Block1	incongruent/STIM_029.jpg	100
548.089	0.653	653.4	incongruent	Block1	incongruent/STIM_029.jpg	100
552.137	0.734	734.0	incongruent	Block1	incongruent/STIM_029.jpg	99
556.619	0.631	631.2	incongruent	Block1	incongruent/STIM_029.jpg	99
559.906	0.511	511.0	congruent	Block1	congruent/STIM_000.jpg	99
564.214	0.555	555.4	congruent	Block1	congruent/STIM_000.jpg	100
567.795	0.514	514.2	congruent	Block1	congruent/STIM_000.jpg	99
570.952	0.565	565.3	congruent	Block1	congruent/STIM_000.jpg	100
573.908	0.532	532.1	congruent	Block1	congruent/STIM_000.jpg	99
578.155	0.522	521.6	congruent	Block1	congruent/STIM_001.jpg	99
582.431	0.589	588.8	congruent	Block1	congruent/STIM_001.jpg	99
586.939	0.567	567.0	congruent	Block1	congruent/STIM_001.jpg	100
590.352	0.452	451.7	congruent	Block1	congruent/STIM_001.jpg	99
594.509	0.36	360.2	congruent	Block1	congruent/STIM_001.jpg	100
597.91	0.379	378.6	congruent	Block1	congruent/STIM_002.jpg	99
601.234	0.58	579.6	congruent	Block1	congruent/STIM_002.jpg	100
605.65	0.452	452.0	congruent	Block1	congruent/STIM_002.jpg	100
608.109	0.472	471.7	congruent	Block1	congruent/STIM_002.jpg	99
612.557	0.486	486.1	congruent	Block1	congruent/STIM_002.jpg	100
616.454	0.369	369.0	congruent	Block1	congruent/STIM_003.jpg	100
619.37	0.37	369.7	congruent	Block1	congruent/STIM_003.jpg	99
622.044	0.539	538.9	congruent	Block1	congruent/STIM_003.jpg	100
625.228	0.426	426.3	congruent	Block1	congruent/STIM_003.jpg	100
629.404	0.402	402.5	congruent	Block1	congruent/STIM_003.jpg	99
632.422	0.586	585.7	congruent	Block1	congruent/STIM_004.jpg	100
635.134	0.575	574.6	congruent	Block1	congruent/STIM_004.jpg	100
639.414	0.579	579.4	congruent	Block1	congruent/STIM_004.jpg	99
643.554	0.593	592.8	congruent	Block1	congruent/STIM_004.jpg	99
646.756	0.39	389.5	congruent	Block1	congruent/STIM_004.jpg	100
651.047	0.412	412.2	congruent	Block1	congruent/STIM_005.jpg	99
654.461	0.611	611.3	congruent	Block1	congruent/STIM_005.jpg	100
658.695	0.626	626.3	congruent	Block1	congruent/STIM_005.jpg	99
662.223	0.46	460.5	congruent	Block1	congruent/STIM_005.jpg	99
665.249	0.359	358.7	congruent	Block1	congruent/STIM_005.jpg	99
668.992	0.606	606.1	congruent	Block1	congruent/STIM_006.jpg	99
672.575	0.488	488.1	congruent	Block1	congruent/STIM_006.jpg	100
675.796	0.528	528.5	congruent	Block1	congruent/STIM_006.jpg	100
678.442	0.469	468.8	congruent	Block1	congruent/STIM_006.jpg	99
682.364	0.43	430.3	congruent	Block1	congruent/STIM_006.jpg	99
685.051	0.576	575.9	congruent	Block1	congruent/STIM_007.jpg	100
688.628	0.613	613.3	congruent	Block1	congruent/STIM_007.jpg	100
691.775	0.626	626.0	congruent	Block1	congruent/STIM_007.jpg	99
696.288	0.61	610.4	congruent	Block1	congruent/STIM_007.jpg	99
699.556	0.492	491.5	congruent	Block1	congruent/STIM_007.jpg	99
703.584	0.62	619.8	congruent	Block1	congruent/STIM_008.jpg	99
707.445	0.577	576.7	congruent	Block1	congruent/STIM_008.jpg	99
711.169	0.476	476.4	congruent	Block1	congruent/STIM_008.jpg	99
713.672	0.431	431.4	congruent	Block1	congruent/STIM_008.jpg	100
717.086	0.491	491.3	congruent	Block1	congruent/STIM_008.jpg	99
721.441	0.435	434.9	congruent	Block1	congruent/STIM_009.jpg	100
725.786	0.548	548.1	congruent	Block1	congruent/STIM_009.jpg	100
728.631	0.418	417.6	congruent	Block1	congruent/STIM_009.jpg	99
732.858	0.62	620.1	congruent	Block1	congruent/STIM_009.jpg	99
735.519	0.395	395.3	congruent	Block1	congruent/STIM_009.jpg	100
739.021	0.613	613.2	congruent	Block1	congruent/STIM_010.jpg	100
742.029	0.44	440.5	congruent	Block1	congruent/STIM_010.jpg	100
745.415	0.455	455.0	congruent	Block1	congruent/STIM_010.jpg	99
749.439	0.551	550.7	congruent	Block1	congruent/STIM_010.jpg	100
752.266	0.386	385.7	congruent	Block1	congruent/STIM_010.jpg	99
754.882	0.426	426.0	congruent	Block1	congruent/STIM_011.jpg	100
758.324	0.469	469.0	congruent	Block1	congruent/STIM_011.jpg	100
761.312	0.478	477.9	congruent	Block1	congruent/STIM_011.jpg	99
764.815	0.627	627.4	congruent	Block1	congruent/STIM_011.jpg	99
768.512	0.394	394.0	congruent	Block1	congruent/STIM_011.jpg	100
771.524	0.39	389.6	congruent	Block1	congruent/STIM_012.jpg	99
774.331	0.422	421.8	congruent	Block1	congruent/STIM_012.jpg	100
778.114	0.595	594.6	congruent	Block1	congruent/STIM_012.jpg	100
781.292	0.416	416.4	congruent	Block1	congruent/STIM_012.jpg	100
784.465	0.366	365.5	congruent	Block1	congruent/STIM_012.jpg	100
788.298	0.387	387.3	congruent	Block1	congruent/STIM_013.jpg	99
791.961	0.548	547.6	congruent	Block1	congruent/STIM_013.jpg	100
795.301	0.53	529.8	congruent	Block1	congruent/STIM_013.jpg	99
798.31	0.453	453.0	congruent	Block1	congruent/STIM_013.jpg	100
801.174	0.595	594.9	congruent	Block1	congruent/STIM_013.jpg	100
805.703	0.432	431.5	congruent	Block1	congruent/STIM_014.jpg	100
808.452	0.499	498.8	congruent	Block1	congruent/STIM_014.jpg	99
812.933	0.421	420.8	congruent	Block1	congruent/STIM_014.jpg	99
817.278	0.434	433.8	congruent	Block1	congruent/STIM_014.jpg	99
821.592	0.529	528.9	congruent	Block1	congruent/STIM_014.jpg	100
824.792	0.443	442.6	congruent	Block1	congruent/STIM_015.jpg	99
828.617	0.411	410.9	congruent	Block1	congruent/STIM_015.jpg	100
831.265	0.41	410.2	congruent	Block1	congruent/STIM_015.jpg	99
834.857	0.623	622.7	congruent	Block1	congruent/STIM_015.jpg	100
839.112	0.369	368.9	congruent	Block1	congruent/STIM_015.jpg	99
842.448	0.46	459.5	congruent	Block1	congruent/STIM_016.jpg	100
845.438	0.546	546.3	congruent	Block1	congruent/STIM_016.jpg	100
849.883	0.424	424.1	congruent	Block1	congruent/STIM_016.jpg	99
853.394	0.479	479.4	congruent	Block1	congruent/STIM_016.jpg	100
856.581	0.47	469.7	congruent	Block1	congruent/STIM_016.jpg	99
860.076	0.579	579.2	congruent	Block1	congruent/STIM_017.jpg	99
864.25	0.592	592.3	congruent	Block1	congruent/STIM_017.jpg	100
868.441	0.363	363.4	congruent	Block1	congruent/STIM_017.jpg	99
871.479	0.602	601.7	congruent	Block1	congruent/STIM_017.jpg	99
876.018	0.485	485.3	congruent	Block1	congruent/STIM_017.jpg	99
880.496	0.406	405.8	congruent	Block1	congruent/STIM_018.jpg	100
883.918	0.514	514.2	congruent	Block1	congruent/STIM_018.jpg	100
887.513	0.594	593.6	congruent	Block1	congruent/STIM_018.jpg	100
892.06	0.486	485.6	congruent	Block1	congruent/STIM_018.jpg	99
896.0	0.498	498.4	congruent	Block1	congruent/STIM_018.jpg	99
900.331	0.398	397.9	congruent	Block1	congruent/STIM_019.jpg	100
904.653	0.524	524.1	congruent	Block1	congruent/STIM_019.jpg	99
907.178	0.594	594.1	congruent	Block1	congruent/STIM_019.jpg	100
910.675	0.541	541.4	congruent	Block1	congruent/STIM_019.jpg	100
913.851	0.52	520.5	congruent	Block1	congruent/STIM_019.jpg	99
918.027	0.513	512.7	congruent	Block1	congruent/STIM_020.jpg	100
921.018	0.427	427.3	congruent	Block1	congruent/STIM_020.jpg	100
923.685	0.59	589.5	congruent	Block1	congruent/STIM_020.jpg	100
928.036	0.538	538.5	congruent	Block1	congruent/STIM_020.jpg	99
931.546	0.53	530.4	congruent	Block1	congruent/STIM_020.jpg	100
935.658	0.376	376.4	congruent	Block1	congruent/STIM_021.jpg	99
938.553	0.44	440.2	congruent	Block1	congruent/STIM_021.jpg	100
942.955	0.404	403.8	congruent	Block1	congruent/STIM_021.jpg	100
946.977	0.62	619.9	congruent	Block1	congruent/STIM_021.jpg	99
950.914	0.526	525.7	congruent	Block1	congruent/STIM_021.jpg	99
955.05	0.602	601.5	congruent	Block1	congruent/STIM_022.jpg	100
959.204	0.382	382.0	congruent	Block1	congruent/STIM_022.jpg	100
961.892	0.444	443.8	congruent	Block1	congruent/STIM_022.jpg	100
965.853	0.517	516.9	congruent	Block1	congruent/STIM_022.jpg	99
969.663	0.46	460.2	congruent	Block1	congruent/STIM_022.jpg	100
972.512	0.582	581.7	congruent	Block1	congruent/STIM_023.jpg	99
975.777	0.396	396.0	congruent	Block1	congruent/STIM_023.jpg	99
978.761	0.381	380.7	congruent	Block1	congruent/STIM_023.jpg	100
982.244	0.41	410.1	congruent	Block1	congruent/STIM_023.jpg	100
985.637	0.388	388.4	congruent	Block1	congruent/STIM_023.jpg	100
989.294	0.528	527.8	congruent	Block1	congruent/STIM_024.jpg	99
992.83	0.464	463.7	congruent	Block1	congruent/STIM_024.jpg	100
996.981	0.474	474.3	congruent	Block1	congruent/STIM_024.jpg	100
1000.521	0.486	485.5	congruent	Block1	congruent/STIM_024.jpg	100
1004.217	0.626	626.3	congruent	Block1	congruent/STIM_024.jpg	99
1008.289	0.549	548.6	congruent	Block1	congruent/STIM_025.jpg	100
1012.009	0.586	585.5	congruent	Block1	congruent/STIM_025.jpg	99
1015.923	0.549	548.7	congruent	Block1	congruent/STIM_025.jpg	99
1018.942	0.461	460.6	congruent	Block1	congruent/STIM_025.jpg	99
1021.826	0.578	578.0	congruent	Block1	congruent/STIM_025.jpg	100
1024.587	0.478	477.7	congruent	Block1	congruent/STIM_026.jpg	99
1027.078	0.517	517.4	congruent	Block1	congruent/STIM_026.jpg	100
1030.289	0.448	447.6	congruent	Block1	congruent/STIM_026.jpg	99
1033.798	0.503	503.2	congruent	Block1	congruent/STIM_026.jpg	100
1037.493	0.608	607.8	congruent	Block1	congruent/STIM_026.jpg	100
1040.782	0.363	363.2	congruent	Block1	congruent/STIM_027.jpg	100
1043.871	0.414	414.4	congruent	Block1	congruent/STIM_027.jpg	100
1046.571	0.429	429.3	congruent	Block1	congruent/STIM_027.jpg	99
1049.16	0.58	579.5	congruent	Block1	congruent/STIM_027.jpg	100
1053.506	0.527	526.8	congruent	Block1	congruent/STIM_027.jpg	100
1057.831	0.553	552.7	congruent	Block1	congruent/STIM_028.jpg	100
1062.123	0.457	457.0	congruent	Block1	congruent/STIM_028.jpg	100
1065.244	0.373	372.6	congruent	Block1	congruent/STIM_028.jpg	99
1068.627	0.566	565.7	congruent	Block1	congruent/STIM_028.jpg	99
1071.418	0.499	498.6	congruent	Block1	congruent/STIM_028.jpg	99
1074.169	0.509	509.3	congruent	Block1	congruent/STIM_029.jpg	99
1077.983	0.595	595.0	congruent	Block1	congruent/STIM_029.jpg	100
1081.931	0.37	370.5	congruent	Block1	congruent/STIM_029.jpg	100
1085.95	0.586	586.3	congruent	Block1	congruent/STIM_029.jpg	99
1089.075	0.596	595.8	congruent	Block1	congruent/STIM_029.jpg	100
1092.654	0.485	484.6	incongruent	Block2	incongruent/STIM_000.jpg	100
1095.797	0.763	762.6	incongruent	Block2	incongruent/STIM_000.jpg	99
1100.332	0.547	547.2	incongruent	Block2	incongruent/STIM_000.jpg	99
1104.236	0.399	399.3	incongruent	Block2	incongruent/STIM_000.jpg	99
1107.586	0.571	570.6	incongruent	Block2	incongruent/STIM_000.jpg	99
1111.101	0.623	622.9	incongruent	Block2	incongruent/STIM_001.jpg	99
1114.652	0.559	559.4	incongruent	Block2	incongruent/STIM_001.jpg	99
1119.022	0.7	700.3	incongruent	Block2	incongruent/STIM_001.jpg	100
1122.389	0.421	421.2	incongruent	Block2	incongruent/STIM_001.jpg	99
1124.927	0.348	347.8	incongruent	Block2	incongruent/STIM_001.jpg	99
1127.966	0.525	524.9	incongruent	Block2	incongruent/STIM_002.jpg	99
1131.758	0.676	675.8	incongruent	Block2	incongruent/STIM_002.jpg	99
1136.405	0.774	773.9	incongruent	Block2	incongruent/STIM_002.jpg	100
1140.479	0.547	547.4	incongruent	Block2	incongruent/STIM_002.jpg	99
1143.994	0.674	673.8	incongruent	Block2	incongruent/STIM_002.jpg	100
1147.219	0.764	764.1	incongruent	Block2	incongruent/STIM_003.jpg	100
1151.314	0.822	822.0	incongruent	Block2	incongruent/STIM_003.jpg	99
1155.422	0.759	758.6	incongruent	Block2	incongruent/STIM_003.jpg	99
1159.466	0.503	503.0	incongruent	Block2	incongruent/STIM_003.jpg	99
1162.7	0.508	508.2	incongruent	Block2	incongruent/STIM_003.jpg	99
1165.711	0.72	720.1	incongruent	Block2	incongruent/STIM_004.jpg	100
1168.822	0.6	599.7	incongruent	Block2	incongruent/STIM_004.jpg	100
1172.6	0.509	509.2	incongruent	Block2	incongruent/STIM_004.jpg	99
1176.842	0.611	610.7	incongruent	Block2	incongruent/STIM_004.jpg	99
1180.412	0.533	533.4	incongruent	Block2	incongruent/STIM_004.jpg	99
1184.637	0.703	703.1	incongruent	Block2	incongruent/STIM_005.jpg	99
1187.603	0.57	570.0	incongruent	Block2	incongruent/STIM_005.jpg	99
1192.155	0.679	678.6	incongruent	Block2	incongruent/STIM_005.jpg	99
1195.501	0.526	525.8	incongruent	Block2	incongruent/STIM_005.jpg	99
1199.113	0.605	604.7	incongruent	Block2	incongruent/STIM_005.jpg	99
1202.436	0.649	648.9	incongruent	Block2	incongruent/STIM_006.jpg	100
1205.646	0.734	734.1	incongruent	Block2	incongruent/STIM_006.jpg	100
1209.158	0.507	506.7	incongruent	Block2	incongruent/STIM_006.jpg	99
1213.155	0.667	667.1	incongruent	Block2	incongruent/STIM_006.jpg	100
1216.655	0.532	531.5	incongruent	Block2	incongruent/STIM_006.jpg	100
1221.183	0.503	502.9	incongruent	Block2	incongruent/STIM_007.jpg	100
1224.722	0.417	417.3	incongruent	Block2	incongruent/STIM_007.jpg	99
1228.96	0.774	774.4	incongruent	Block2	incongruent/STIM_007.jpg	99
1233.073	0.661	660.6	incongruent	Block2	incongruent/STIM_007.jpg	100
1236.288	0.69	689.7	incongruent	Block2	incongruent/STIM_007.jpg	99
1239.906	0.735	734.7	incongruent	Block2	incongruent/STIM_008.jpg	100
1243.459	0.402	402.0	incongruent	Block2	incongruent/STIM_008.jpg	100
1247.365	0.43	430.1	incongruent	Block2	incongruent/STIM_008.jpg	99
1251.026	0.489	488.7	incongruent	Block2	incongruent/STIM_008.jpg	100
1255.108	0.47	469.5	incongruent	Block2	incongruent/STIM_008.jpg	99
1259.527	0.857	856.6	incongruent	Block2	incongruent/STIM_009.jpg	99
1262.713	0.785	784.7	incongruent	Block2	incongruent/STIM_009.jpg	99
1266.147	0.653	652.6	incongruent	Block2	incongruent/STIM_009.jpg	99
1268.883	0.524	523.9	incongruent	Block2	incongruent/STIM_009.jpg	99
1271.75	0.595	595.4	incongruent	Block2	incongruent/STIM_009.jpg	99
1275.649	0.702	702.1	incongruent	Block2	incongruent/STIM_010.jpg	99
1279.046	0.666	666.3	incongruent	Block2	incongruent/STIM_010.jpg	99
1281.92	0.598	597.6	incongruent	Block2	incongruent/STIM_010.jpg	100
1286.457	0.397	396.9	incongruent	Block2	incongruent/STIM_010.jpg	99
1289.444	0.667	666.8	incongruent	Block2	incongruent/STIM_010.jpg	100
1293.31	0.466	465.6	incongruent	Block2	incongruent/STIM_011.jpg	100
1297.601	0.713	713.3	incongruent	Block2	incongruent/STIM_011.jpg	99
1301.096	0.458	458.1	incongruent	Block2	incongruent/STIM_011.jpg	99
1304.402	0.591	591.1	incongruent	Block2	incongruent/STIM_011.jpg	99
1307.577	0.36	359.8	incongruent	Block2	incongruent/STIM_011.jpg	100
1311.211	0.611	610.7	incongruent	Block2	incongruent/STIM_012.jpg	99
1315.679	0.568	568.2	incongruent	Block2	incongruent/STIM_012.jpg	99
1318.744	0.463	462.8	incongruent	Block2	incongruent/STIM_012.jpg	100
1323.031	0.589	589.4	incongruent	Block2	incongruent/STIM_012.jpg	99
1326.555	0.632	631.5	incongruent	Block2	incongruent/STIM_012.jpg	99
1329.45	0.727	727.2	incongruent	Block2	incongruent/STIM_013.jpg	99
1332.979	0.719	718.8	incongruent	Block2	incongruent/STIM_013.jpg	99
1336.981	0.461	460.6	incongruent	Block2	incongruent/STIM_013.jpg	100
1340.049	0.447	446.6	incongruent	Block2	incongruent/STIM_013.jpg	100
1344.032	0.612	612.0	incongruent	Block2	incongruent/STIM_013.jpg	100
1347.884	0.821	821.4	incongruent	Block2	incongruent/STIM_014.jpg	100
1350.83	0.662	661.7	incongruent	Block2	incongruent/STIM_014.jpg	100
1354.48	0.656	655.6	incongruent	Block2	incongruent/STIM_014.jpg	99
1357.71	0.36	360.0	incongruent	Block2	incongruent/STIM_014.jpg	99
1360.59	0.376	375.8	incongruent	Block2	incongruent/STIM_014.jpg	100
1363.396	0.812	812.3	incongruent	Block2	incongruent/STIM_015.jpg	99
1367.69	0.767	767.2	incongruent	Block2	incongruent/STIM_015.jpg	100
1371.637	0.569	568.7	incongruent	Block2	incongruent/STIM_015.jpg	100
1375.968	0.583	582.6	incongruent	Block2	incongruent/STIM_015.jpg	100
1380.529	0.376	376.3	incongruent	Block2	incongruent/STIM_015.jpg	100
1384.839	0.743	742.9	incongruent	Block2	incongruent/STIM_016.jpg	100
1388.683	0.809	809.1	incongruent	Block2	incongruent/STIM_016.jpg	99
1391.643	0.369	368.8	incongruent	Block2	incongruent/STIM_016.jpg	100
1395.755	0.692	692.5	incongruent	Block2	incongruent/STIM_016.jpg	99
1400.324	0.345	345.3	incongruent	Block2	incongruent/STIM_016.jpg	100
1403.612	0.57	569.9	incongruent	Block2	incongruent/STIM_017.jpg	99
1406.979	0.667	666.9	incongruent	Block2	incongruent/STIM_017.jpg	100
1410.609	0.435	434.7	incongruent	Block2	incongruent/STIM_017.jpg	100
1413.344	0.369	368.8	incongruent	Block2	incongruent/STIM_017.jpg	99
1416.617	0.455	455.3	incongruent	Block2	incongruent/STIM_017.jpg	99
1419.782	0.832	831.9	incongruent	Block2	incongruent/STIM_018.jpg	100
1423.825	0.638	638.4	incongruent	Block2	incongruent/STIM_018.jpg	99
1426.484	0.372	371.8	incongruent	Block2	incongruent/STIM_018.jpg	100
1430.797	0.589	588.6	incongruent	Block2	incongruent/STIM_018.jpg	100
1433.966	0.486	486.2	incongruent	Block2	incongruent/STIM_018.jpg	100
1437.78	0.744	744.5	incongruent	Block2	incongruent/STIM_019.jpg	99
1440.896	0.689	688.7	incongruent	Block2	incongruent/STIM_019.jpg	100
1443.726	0.739	739.4	incongruent	Block2	incongruent/STIM_019.jpg	99
1447.663	0.548	547.6	incongruent	Block2	incongruent/STIM_019.jpg	100
1451.869	0.567	567.1	incongruent	Block2	incongruent/STIM_019.jpg	100
1455.33	0.581	581.3	incongruent	Block2	incongruent/STIM_020.jpg	100
1458.965	0.714	713.8	incongruent	Block2	incongruent/STIM_020.jpg	99
1461.721	0.562	562.4	incongruent	Block2	incongruent/STIM_020.jpg	100
1465.421	0.546	545.8	incongruent	Block2	incongruent/STIM_020.jpg	100
1468.736	0.657	657.3	incongruent	Block2	incongruent/STIM_020.jpg	100
1473.154	0.595	594.6	incongruent	Block2	incongruent/STIM_021.jpg	100
1476.323	0.57	569.6	incongruent	Block2	incongruent/STIM_021.jpg	100
1478.992	0.76	760.4	incongruent	Block2	incongruent/STIM_021.jpg	99
1482.938	0.489	489.2	incongruent	Block2	incongruent/STIM_021.jpg	100
1486.618	0.422	422.0	incongruent	Block2	incongruent/STIM_021.jpg	100
1489.873	0.783	783.1	incongruent	Block2	incongruent/STIM_022.jpg	100
1494.619	0.687	686.7	incongruent	Block2	incongruent/STIM_022.jpg	100
1497.808	0.418	417.6	incongruent	Block2	incongruent/STIM_022.jpg	100
1501.372	0.587	586.7	incongruent	Block2	incongruent/STIM_022.jpg	100
1504.896	0.37	369.7	incongruent	Block2	incongruent/STIM_022.jpg	99
1507.912	0.813	813.2	incongruent	Block2	incongruent/STIM_023.jpg	100
1510.763	0.581	580.7	incongruent	Block2	incongruent/STIM_023.jpg	99
1514.692	0.476	476.4	incongruent	Block2	incongruent/STIM_023.jpg	100
1518.709	0.553	552.8	incongruent	Block2	incongruent/STIM_023.jpg	99
1522.789	0.583	582.8	incongruent	Block2	incongruent/STIM_023.jpg	99
1525.685	0.837	836.8	incongruent	Block2	incongruent/STIM_024.jpg	99
1530.466	0.52	520.4	incongruent	Block2	incongruent/STIM_024.jpg	99
1534.954	0.546	546.5	incongruent	Block2	incongruent/STIM_024.jpg	99
1538.637	0.648	647.5	incongruent	Block2	incongruent/STIM_024.jpg	100
1542.455	0.61	610.0	incongruent	Block2	incongruent/STIM_024.jpg	99
1545.776	0.874	874.5	incongruent	Block2	incongruent/STIM_025.jpg	100
1548.901	0.493	493.1	incongruent	Block2	incongruent/STIM_025.jpg	100
1552.017	0.544	544.5	incongruent	Block2	incongruent/STIM_025.jpg	99
1555.051	0.35	350.5	incongruent	Block2	incongruent/STIM_025.jpg	100
1557.464	0.492	491.6	incongruent	Block2	incongruent/STIM_025.jpg	99
1561.667	0.541	541.0	incongruent	Block2	incongruent/STIM_026.jpg	99
1565.29	0.429	428.9	incongruent	Block2	incongruent/STIM_026.jpg	99
1569.649	0.405	405.1	incongruent	Block2	incongruent/STIM_026.jpg	100
1572.114	0.398	398.4	incongruent	Block2	incongruent/STIM_026.jpg	100
1575.702	0.588	588.3	incongruent	Block2	incongruent/STIM_026.jpg	99
1579.73	0.847	846.7	incongruent	Block2	incongruent/STIM_027.jpg	100
1582.927	0.439	438.9	incongruent	Block2	incongruent/STIM_027.jpg	100
1586.74	0.701	701.4	incongruent	Block2	incongruent/STIM_027.jpg	99
1591.427	0.548	548.3	incongruent	Block2	incongruent/STIM_027.jpg	100
1594.347	0.647	647.4	incongruent	Block2	incongruent/STIM_027.jpg	99
1597.548	0.493	493.3	incongruent	Block2	incongruent/STIM_028.jpg	99
1600.08	0.606	606.3	incongruent	Block2	incongruent/STIM_028.jpg	99
1603.634	0.469	469.3	incongruent	Block2	incongruent/STIM_028.jpg	100
1606.168	0.344	344.5	incongruent	Block2	incongruent/STIM_028.jpg	100
1609.528	0.531	530.8	incongruent	Block2	incongruent/STIM_028.jpg	100
1613.232	0.698	698.3	incongruent	Block2	incongruent/STIM_029.jpg	100
1616.003	0.449	448.7	incongruent	Block2	incongruent/STIM_029.jpg	99
1620.172	0.463	463.2	incongruent	Block2	incongruent/STIM_029.jpg	99
1624.356	0.66	659.7	incongruent	Block2	incongruent/STIM_029.jpg	99
1628.677	0.658	658.2	incongruent	Block2	incongruent/STIM_029.jpg	100
1633.318	0.571	571.1	congruent	Block2	congruent/STIM_000.jpg	100
1637.825	0.402	402.0	congruent	Block2	congruent/STIM_000.jpg	99
1641.546	0.57	570.0	congruent	Block2	congruent/STIM_000.jpg	100
1645.85	0.407	407.0	congruent	Block2	congruent/STIM_000.jpg	100
1648.498	0.393	392.8	congruent	Block2	congruent/STIM_000.jpg	99
1651.389	0.481	480.7	congruent	Block2	congruent/STIM_001.jpg	99
1654.944	0.618	618.5	congruent	Block2	congruent/STIM_001.jpg	100
1658.332	0.556	556.1	congruent	Block2	congruent/STIM_001.jpg	100
1662.078	0.406	406.0	congruent	Block2	congruent/STIM_001.jpg	100
1665.218	0.616	616.5	congruent	Block2	congruent/STIM_001.jpg	100
1669.42	0.494	493.5	congruent	Block2	congruent/STIM_002.jpg	99
1673.659	0.465	464.8	congruent	Block2	congruent/STIM_002.jpg	100
1677.404	0.376	376.1	congruent	Block2	congruent/STIM_002.jpg	100
1681.158	0.39	390.0	congruent	Block2	congruent/STIM_002.jpg	99
1684.941	0.402	401.5	congruent	Block2	congruent/STIM_002.jpg	99
1688.856	0.533	532.6	congruent	Block2	congruent/STIM_003.jpg	100
1692.653	0.403	402.6	congruent	Block2	congruent/STIM_003.jpg	100
1696.599	0.539	538.8	congruent	Block2	congruent/STIM_003.jpg	99
1700.651	0.376	376.3	congruent	Block2	congruent/STIM_003.jpg	99
1704.365	0.514	513.5	congruent	Block2	congruent/STIM_003.jpg	100
1708.785	0.406	405.9	congruent	Block2	congruent/STIM_004.jpg	99
1713.138	0.547	546.8	congruent	Block2	congruent/STIM_004.jpg	99
1715.972	0.55	549.6	congruent	Block2	congruent/STIM_004.jpg	99
1719.345	0.57	569.5	congruent	Block2	congruent/STIM_004.jpg	100
1722.7	0.544	544.0	congruent	Block2	congruent/STIM_004.jpg	99
1725.872	0.542	542.3	congruent	Block2	congruent/STIM_005.jpg	99
1730.314	0.376	376.1	congruent	Block2	congruent/STIM_005.jpg	100
1733.807	0.366	366.2	congruent	Block2	congruent/STIM_005.jpg	99
1736.819	0.57	570.4	congruent	Block2	congruent/STIM_005.jpg	99
1740.3	0.594	593.7	congruent	Block2	congruent/STIM_005.jpg	99
1744.087	0.367	366.6	congruent	Block2	congruent/STIM_006.jpg	100
1748.44	0.476	475.6	congruent	Block2	congruent/STIM_006.jpg	99
1751.946	0.55	549.7	congruent	Block2	congruent/STIM_006.jpg	100
1756.208	0.483	482.8	congruent	Block2	congruent/STIM_006.jpg	100
1759.28	0.446	446.3	congruent	Block2	congruent/STIM_006.jpg	99
1761.851	0.443	442.6	congruent	Block2	congruent/STIM_007.jpg	100
1764.375	0.488	488.1	congruent	Block2	congruent/STIM_007.jpg	99
1768.542	0.405	405.0	congruent	Block2	congruent/STIM_007.jpg	99
1771.587	0.398	397.9	congruent	Block2	congruent/STIM_007.jpg	99
1774.298	0.45	449.7	congruent	Block2	congruent/STIM_007.jpg	100
1778.559	0.465	465.1	congruent	Block2	congruent/STIM_008.jpg	100
1781.826	0.557	556.6	congruent	Block2	congruent/STIM_008.jpg	100
1785.681	0.504	504.3	congruent	Block2	congruent/STIM_008.jpg	100
1789.793	0.387	387.0	congruent	Block2	congruent/STIM_008.jpg	99
1793.167	0.352	352.3	congruent	Block2	congruent/STIM_008.jpg	99
1796.463	0.389	389.3	congruent	Block2	congruent/STIM_009.jpg	100
1799.346	0.602	601.8	congruent	Block2	congruent/STIM_009.jpg	100
1801.955	0.369	368.8	congruent	Block2	congruent/STIM_009.jpg	100
1806.253	0.513	512.6	congruent	Block2	congruent/STIM_009.jpg	100
1810.289	0.49	489.8	congruent	Block2	congruent/STIM_009.jpg	99
1814.56	0.559	559.4	congruent	Block2	congruent/STIM_010.jpg	99
1817.936	0.598	597.6	congruent	Block2	congruent/STIM_010.jpg	99
1820.699	0.444	443.6	congruent	Block2	congruent/STIM_010.jpg	99
1823.3	0.402	402.3	congruent	Block2	congruent/STIM_010.jpg	100
1826.512	0.389	388.8	congruent	Block2	congruent/STIM_010.jpg	100
1829.305	0.491	491.4	congruent	Block2	congruent/STIM_011.jpg	99
1833.067	0.474	474.0	congruent	Block2	congruent/STIM_011.jpg	99
1837.211	0.369	368.9	congruent	Block2	congruent/STIM_011.jpg	99
1840.0	0.355	355.1	congruent	Block2	congruent/STIM_011.jpg	100
1843.921	0.622	621.6	congruent	Block2	congruent/STIM_011.jpg	99
1847.916	0.352	351.8	congruent	Block2	congruent/STIM_012.jpg	100
1850.71	0.374	373.8	congruent	Block2	congruent/STIM_012.jpg	100
1853.528	0.43	429.8	congruent	Block2	congruent/STIM_012.jpg	99
1856.896	0.494	494.2	congruent	Block2	congruent/STIM_012.jpg	99
1859.796	0.504	503.6	congruent	Block2	congruent/STIM_012.jpg	100
1862.51	0.581	581.1	congruent	Block2	congruent/STIM_013.jpg	100
1865.275	0.442	441.8	congruent	Block2	congruent/STIM_013.jpg	99
1869.169	0.625	625.0	congruent	Block2	congruent/STIM_013.jpg	100
1871.891	0.42	419.7	congruent	Block2	congruent/STIM_013.jpg	99
1875.189	0.545	545.1	congruent	Block2	congruent/STIM_013.jpg	100
1879.393	0.565	564.7	congruent	Block2	congruent/STIM_014.jpg	99
1883.41	0.587	587.4	congruent	Block2	congruent/STIM_014.jpg	100
1886.681	0.57	569.5	congruent	Block2	congruent/STIM_014.jpg	99
1889.807	0.544	544.1	congruent	Block2	congruent/STIM_014.jpg	99
1892.91	0.525	525.4	congruent	Block2	congruent/STIM_014.jpg	99
1896.774	0.37	370.2	congruent	Block2	congruent/STIM_015.jpg	99
1900.768	0.568	568.1	congruent	Block2	congruent/STIM_015.jpg	99
1904.715	0.518	518.0	congruent	Block2	congruent/STIM_015.jpg	99
1908.446	0.469	469.4	congruent	Block2	congruent/STIM_015.jpg	100
1912.396	0.6	599.5	congruent	Block2	congruent/STIM_015.jpg	99
1915.568	0.552	552.0	congruent	Block2	congruent/STIM_016.jpg	100
1919.769	0.568	567.6	congruent	Block2	congruent/STIM_016.jpg	99
1924.158	0.41	409.5	congruent	Block2	congruent/STIM_016.jpg	99
1927.632	0.494	494.4	congruent	Block2	congruent/STIM_016.jpg	100
1931.612	0.449	449.4	congruent	Block2	congruent/STIM_016.jpg	99
1934.913	0.625	625.0	congruent	Block2	congruent/STIM_017.jpg	99
1937.606	0.5	500.0	congruent	Block2	congruent/STIM_017.jpg	100
1941.254	0.559	559.4	congruent	Block2	congruent/STIM_017.jpg	99
1945.641	0.61	610.1	congruent	Block2	congruent/STIM_017.jpg	99
1950.23	0.538	538.4	congruent	Block2	congruent/STIM_017.jpg	100
1953.066	0.531	530.9	congruent	Block2	congruent/STIM_018.jpg	99
1955.695	0.528	528.1	congruent	Block2	congruent/STIM_018.jpg	99
1958.533	0.393	393.4	congruent	Block2	congruent/STIM_018.jpg	99
1961.735	0.597	597.2	congruent	Block2	congruent/STIM_018.jpg	99
1965.246	0.351	351.4	congruent	Block2	congruent/STIM_018.jpg	99
1968.767	0.438	438.4	congruent	Block2	congruent/STIM_019.jpg	100
1972.575	0.364	364.0	congruent	Block2	congruent/STIM_019.jpg	100
1975.337	0.462	462.3	congruent	Block2	congruent/STIM_019.jpg	99
1978.827	0.404	404.0	congruent	Block2	congruent/STIM_019.jpg	100
1982.526	0.377	377.2	congruent	Block2	congruent/STIM_019.jpg	99
1985.261	0.586	586.1	congruent	Block2	congruent/STIM_020.jpg	100
1989.127	0.457	457.2	congruent	Block2	congruent/STIM_020.jpg	100
1992.381	0.518	518.0	congruent	Block2	congruent/STIM_020.jpg	100
1995.919	0.393	393.3	congruent	Block2	congruent/STIM_020.jpg	99
1999.335	0.396	395.7	congruent	Block2	congruent/STIM_020.jpg	100
2001.906	0.582	581.5	congruent	Block2	congruent/STIM_021.jpg	99
2005.282	0.613	613.4	congruent	Block2	congruent/STIM_021.jpg	100
2008.92	0.494	493.9	congruent	Block2	congruent/STIM_021.jpg	99
2011.692	0.565	564.9	congruent	Block2	congruent/STIM_021.jpg	100
2014.785	0.544	543.6	congruent	Block2	congruent/STIM_021.jpg	99
2018.923	0.529	529.2	congruent	Block2	congruent/STIM_022.jpg	100
2022.268	0.366	366.3	congruent	Block2	congruent/STIM_022.jpg	99
2025.32	0.529	529.0	congruent	Block2	congruent/STIM_022.jpg	99
2029.212	0.426	426.5	congruent	Block2	congruent/STIM_022.jpg	100
2032.014	0.372	371.8	congruent	Block2	congruent/STIM_022.jpg	100
2035.194	0.39	389.6	congruent	Block2	congruent/STIM_023.jpg	99
2038.169	0.45	449.5	congruent	Block2	congruent/STIM_023.jpg	99
2042.02	0.414	414.1	congruent	Block2	congruent/STIM_023.jpg	100
2045.744	0.618	618.4	congruent	Block2	congruent/STIM_023.jpg	99
2048.996	0.605	605.1	congruent	Block2	congruent/STIM_023.jpg	100
2053.053	0.601	600.7	congruent	Block2	congruent/STIM_024.jpg	100
2057.072	0.554	554.5	congruent	Block2	congruent/STIM_024.jpg	100
2060.411	0.542	541.5	congruent	Block2	congruent/STIM_024.jpg	100
2063.024	0.587	587.3	congruent	Block2	congruent/STIM_024.jpg	100
2066.413	0.607	607.0	congruent	Block2	congruent/STIM_024.jpg	100
2069.086	0.476	475.8	congruent	Block2	congruent/STIM_025.jpg	99
2071.692	0.443	443.4	congruent	Block2	congruent/STIM_025.jpg	99
2075.475	0.421	421.1	congruent	Block2	congruent/STIM_025.jpg	100
2078.146	0.607	607.1	congruent	Block2	congruent/STIM_025.jpg	100
2081.032	0.612	611.7	congruent	Block2	congruent/STIM_025.jpg	100
2085.274	0.402	402.2	congruent	Block2	congruent/STIM_026.jpg	99
2089.016	0.458	458.3	congruent	Block2	congruent/STIM_026.jpg	100
2091.516	0.583	583.4	congruent	Block2	congruent/STIM_026.jpg	99
2095.771	0.41	410.4	congruent	Block2	congruent/STIM_026.jpg	100
2098.948	0.392	392.2	congruent	Block2	congruent/STIM_026.jpg	99
2102.723	0.523	522.7	congruent	Block2	congruent/STIM_027.jpg	99
2106.733	0.392	392.2	congruent	Block2	congruent/STIM_027.jpg	99
2110.32	0.461	461.1	congruent	Block2	congruent/STIM_027.jpg	100
2114.311	0.487	487.0	congruent	Block2	congruent/STIM_027.jpg	99
2118.383	0.445	445.3	congruent	Block2	congruent/STIM_027.jpg	99
2122.267	0.506	506.5	congruent	Block2	congruent/STIM_028.jpg	100
2126.395	0.45	450.3	congruent	Block2	congruent/STIM_028.jpg	100
2129.104	0.35	350.3	congruent	Block2	congruent/STIM_028.jpg	99
2132.17	0.541	540.7	congruent	Block2	congruent/STIM_028.jpg	100
2136.217	0.549	549.1	congruent	Block2	congruent/STIM_028.jpg	100
2138.98	0.396	395.7	congruent	Block2	congruent/STIM_029.jpg	100
2142.388	0.422	421.8	congruent	Block2	congruent/STIM_029.jpg	100
2146.586	0.416	416.0	congruent	Block2	congruent/STIM_029.jpg	99
2149.525	0.454	454.5	congruent	Block2	congruent/STIM_029.jpg	100
2153.727	0.436	435.8	congruent	Block2	congruent/STIM_029.jpg	99
2157.86	0.638	638.2	incongruent	Block3	incongruent/STIM_000.jpg	99
2161.218	0.7	699.6	incongruent	Block3	incongruent/STIM_000.jpg	99
2164.849	0.578	578.1	incongruent	Block3	incongruent/STIM_000.jpg	100
2167.665	0.551	551.1	incongruent	Block3	incongruent/STIM_000.jpg	99
2171.488	0.346	346.4	incongruent	Block3	incongruent/STIM_000.jpg	99
2175.348	0.724	723.5	incongruent	Block3	incongruent/STIM_001.jpg	99
2179.725	0.426	425.5	incongruent	Block3	incongruent/STIM_001.jpg	100
2183.578	0.598	598.1	incongruent	Block3	incongruent/STIM_001.jpg	100
2187.258	0.716	715.7	incongruent	Block3	incongruent/STIM_001.jpg	99
2191.151	0.384	384.3	incongruent	Block3	incongruent/STIM_001.jpg	100
2194.214	0.633	633.3	incongruent	Block3	incongruent/STIM_002.jpg	100
2197.754	0.598	598.0	incongruent	Block3	incongruent/STIM_002.jpg	100
2200.762	0.634	633.7	incongruent	Block3	incongruent/STIM_002.jpg	100
2203.943	0.431	430.9	incongruent	Block3	incongruent/STIM_002.jpg	99
2207.401	0.676	675.7	incongruent	Block3	incongruent/STIM_002.jpg	100
2210.757	0.439	439.2	incongruent	Block3	incongruent/STIM_003.jpg	99
2214.761	0.417	416.8	incongruent	Block3	incongruent/STIM_003.jpg	99
2217.407	0.569	569.3	incongruent	Block3	incongruent/STIM_003.jpg	100
2221.093	0.622	622.0	incongruent	Block3	incongruent/STIM_003.jpg	100
2223.726	0.432	431.9	incongruent	Block3	incongruent/STIM_003.jpg	100
2226.391	0.594	593.5	incongruent	Block3	incongruent/STIM_004.jpg	100
2229.457	0.586	585.6	incongruent	Block3	incongruent/STIM_004.jpg	100
2233.746	0.658	658.4	incongruent	Block3	incongruent/STIM_004.jpg	100
2236.689	0.402	402.5	incongruent	Block3	incongruent/STIM_004.jpg	100
2239.725	0.411	410.9	incongruent	Block3	incongruent/STIM_004.jpg	100
2243.185	0.521	520.9	incongruent	Block3	incongruent/STIM_005.jpg	100
2247.27	0.678	678.3	incongruent	Block3	incongruent/STIM_005.jpg	100
2250.293	0.622	622.1	incongruent	Block3	incongruent/STIM_005.jpg	100
2253.187	0.594	594.0	incongruent	Block3	incongruent/STIM_005.jpg	100
2256.602	0.422	421.5	incongruent	Block3	incongruent/STIM_005.jpg	99
2260.741	0.679	679.0	incongruent	Block3	incongruent/STIM_006.jpg	99
2264.932	0.512	512.1	incongruent	Block3	incongruent/STIM_006.jpg	99
2268.268	0.432	432.4	incongruent	Block3	incongruent/STIM_006.jpg	100
2271.981	0.661	661.1	incongruent	Block3	incongruent/STIM_006.jpg	100
2276.456	0.691	691.1	incongruent	Block3	incongruent/STIM_006.jpg	99
2280.978	0.593	592.6	incongruent	Block3	incongruent/STIM_007.jpg	99
2284.711	0.671	671.4	incongruent	Block3	incongruent/STIM_007.jpg	99
2289.134	0.607	606.6	incongruent	Block3	incongruent/STIM_007.jpg	99
2293.403	0.546	545.5	incongruent	Block3	incongruent/STIM_007.jpg	100
2297.561	0.632	631.7	incongruent	Block3	incongruent/STIM_007.jpg	100
2300.835	0.371	370.8	incongruent	Block3	incongruent/STIM_008.jpg	100
2304.93	0.372	372.2	incongruent	Block3	incongruent/STIM_008.jpg	99
2307.475	0.389	388.9	incongruent	Block3	incongruent/STIM_008.jpg	99
2310.763	0.699	698.8	incongruent	Block3	incongruent/STIM_008.jpg	100
2314.873	0.628	627.6	incongruent	Block3	incongruent/STIM_008.jpg	100
2318.969	0.731	731.1	incongruent	Block3	incongruent/STIM_009.jpg	100
2322.641	0.414	413.9	incongruent	Block3	incongruent/STIM_009.jpg	99
2325.588	0.477	477.3	incongruent	Block3	incongruent/STIM_009.jpg	99
2328.282	0.477	477.1	incongruent	Block3	incongruent/STIM_009.jpg	99
2332.677	0.594	593.6	incongruent	Block3	incongruent/STIM_009.jpg	100
2335.992	0.472	471.7	incongruent	Block3	incongruent/STIM_010.jpg	100
2338.933	0.688	687.7	incongruent	Block3	incongruent/STIM_010.jpg	100
2343.111	0.717	717.3	incongruent	Block3	incongruent/STIM_010.jpg	99
2347.488	0.599	599.1	incongruent	Block3	incongruent/STIM_010.jpg	99
2351.78	0.401	401.2	incongruent	Block3	incongruent/STIM_010.jpg	100
2355.311	0.408	407.7	incongruent	Block3	incongruent/STIM_011.jpg	100
2357.97	0.523	523.1	incongruent	Block3	incongruent/STIM_011.jpg	99
2362.33	0.513	513.0	incongruent	Block3	incongruent/STIM_011.jpg	99
2366.717	0.518	517.6	incongruent	Block3	incongruent/STIM_011.jpg	99
2369.716	0.626	625.5	incongruent	Block3	incongruent/STIM_011.jpg	99
2372.765	0.638	637.7	incongruent	Block3	incongruent/STIM_012.jpg	99
2377.095	0.402	402.1	incongruent	Block3	incongruent/STIM_012.jpg	99
2381.316	0.62	620.0	incongruent	Block3	incongruent/STIM_012.jpg	100
2384.074	0.526	525.6	incongruent	Block3	incongruent/STIM_012.jpg	99
2388.473	0.618	617.5	incongruent	Block3	incongruent/STIM_012.jpg	100
2392.397	0.566	566.2	incongruent	Block3	incongruent/STIM_013.jpg	100
2396.501	0.651	650.9	incongruent	Block3	incongruent/STIM_013.jpg	100
2400.96	0.507	507.5	incongruent	Block3	incongruent/STIM_013.jpg	99
2404.331	0.577	577.0	incongruent	Block3	incongruent/STIM_013.jpg	99
2408.491	0.472	471.6	incongruent	Block3	incongruent/STIM_013.jpg	100
2411.195	0.404	404.2	incongruent	Block3	incongruent/STIM_014.jpg	100
2414.92	0.433	432.8	incongruent	Block3	incongruent/STIM_014.jpg	99
2419.001	0.55	549.5	incongruent	Block3	incongruent/STIM_014.jpg	100
2423.196	0.538	538.2	incongruent	Block3	incongruent/STIM_014.jpg	99
2426.326	0.379	379.0	incongruent	Block3	incongruent/STIM_014.jpg	99
2430.326	0.724	723.6	incongruent	Block3	incongruent/STIM_015.jpg	100
2433.504	0.375	374.9	incongruent	Block3	incongruent/STIM_015.jpg	99
2436.943	0.447	446.9	incongruent	Block3	incongruent/STIM_015.jpg	99
2440.558	0.377	377.2	incongruent	Block3	incongruent/STIM_015.jpg	99
2444.164	0.571	571.2	incongruent	Block3	incongruent/STIM_015.jpg	99
2447.417	0.633	632.7	incongruent	Block3	incongruent/STIM_016.jpg	100
2450.72	0.678	678.2	incongruent	Block3	incongruent/STIM_016.jpg	100
2455.067	0.602	602.5	incongruent	Block3	incongruent/STIM_016.jpg	100
2459.618	0.345	345.1	incongruent	Block3	incongruent/STIM_016.jpg	100
2462.791	0.357	356.8	incongruent	Block3	incongruent/STIM_016.jpg	99
2466.562	0.614	614.3	incongruent	Block3	incongruent/STIM_017.jpg	100
2471.093	0.545	545.3	incongruent	Block3	incongruent/STIM_017.jpg	100
2474.473	0.634	633.8	incongruent	Block3	incongruent/STIM_017.jpg	99
2478.74	0.66	660.4	incongruent	Block3	incongruent/STIM_017.jpg	100
2483.387	0.514	514.2	incongruent	Block3	incongruent/STIM_017.jpg	100
2487.668	0.39	390.5	incongruent	Block3	incongruent/STIM_018.jpg	99
2490.803	0.498	498.5	incongruent	Block3	incongruent/STIM_018.jpg	99
2494.761	0.389	389.4	incongruent	Block3	incongruent/STIM_018.jpg	99
2497.292	0.722	721.9	incongruent	Block3	incongruent/STIM_018.jpg	100
2501.334	0.642	641.7	incongruent	Block3	incongruent/STIM_018.jpg	100
2504.116	0.522	522.2	incongruent	Block3	incongruent/STIM_019.jpg	100
2507.031	0.606	605.9	incongruent	Block3	incongruent/STIM_019.jpg	99
2509.922	0.702	702.5	incongruent	Block3	incongruent/STIM_019.jpg	99
2512.829	0.345	344.9	incongruent	Block3	incongruent/STIM_019.jpg	99
2517.076	0.633	633.0	incongruent	Block3	incongruent/STIM_019.jpg	99
2520.206	0.673	672.6	incongruent	Block3	incongruent/STIM_020.jpg	100
2523.333	0.621	621.3	incongruent	Block3	incongruent/STIM_020.jpg	100
2527.617	0.545	545.2	incongruent	Block3	incongruent/STIM_020.jpg	99
2530.215	0.656	656.0	incongruent	Block3	incongruent/STIM_020.jpg	100
2533.75	0.417	416.8	incongruent	Block3	incongruent/STIM_020.jpg	99
2537.032	0.554	553.9	incongruent	Block3	incongruent/STIM_021.jpg	99
2540.222	0.503	502.9	incongruent	Block3	incongruent/STIM_021.jpg	100
2542.785	0.492	491.6	incongruent	Block3	incongruent/STIM_021.jpg	100
2545.397	0.48	480.2	incongruent	Block3	incongruent/STIM_021.jpg	100
2547.883	0.682	681.8	incongruent	Block3	incongruent/STIM_021.jpg	99
2551.474	0.438	438.4	incongruent	Block3	incongruent/STIM_022.jpg	100
2555.642	0.656	656.1	incongruent	Block3	incongruent/STIM_022.jpg	99
2559.834	0.697	697.3	incongruent	Block3	incongruent/STIM_022.jpg	100
2563.177	0.402	401.7	incongruent	Block3	incongruent/STIM_022.jpg	99
2566.168	0.6	599.9	incongruent	Block3	incongruent/STIM_022.jpg	99
2570.45	0.692	692.3	incongruent	Block3	incongruent/STIM_023.jpg	99
2573.256	0.419	419.0	incongruent	Block3	incongruent/STIM_023.jpg	100
2576.694	0.567	566.9	incongruent	Block3	incongruent/STIM_023.jpg	100
2580.453	0.497	496.7	incongruent	Block3	incongruent/STIM_023.jpg	100
2584.173	0.445	444.6	incongruent	Block3	incongruent/STIM_023.jpg	99
2587.433	0.729	728.8	incongruent	Block3	incongruent/STIM_024.jpg	99
2592.11	0.544	543.9	incongruent	Block3	incongruent/STIM_024.jpg	99
2595.755	0.647	646.7	incongruent	Block3	incongruent/STIM_024.jpg	100
2599.249	0.379	378.9	incongruent	Block3	incongruent/STIM_024.jpg	100
2603.19	0.567	567.4	incongruent	Block3	incongruent/STIM_024.jpg	99
2607.737	0.686	686.2	incongruent	Block3	incongruent/STIM_025.jpg	100
2611.706	0.478	477.6	incongruent	Block3	incongruent/STIM_025.jpg	100
2615.067	0.588	588.4	incongruent	Block3	incongruent/STIM_025.jpg	100
2618.145	0.381	381.3	incongruent	Block3	incongruent/STIM_025.jpg	100
2621.6	0.516	515.8	incongruent	Block3	incongruent/STIM_025.jpg	99
2625.138	0.56	560.1	incongruent	Block3	incongruent/STIM_026.jpg	100
2628.455	0.553	552.6	incongruent	Block3	incongruent/STIM_026.jpg	99
2632.417	0.711	710.8	incongruent	Block3	incongruent/STIM_026.jpg	99
2636.035	0.664	664.2	incongruent	Block3	incongruent/STIM_026.jpg	100
2640.156	0.604	603.7	incongruent	Block3	incongruent/STIM_026.jpg	99
2643.928	0.47	469.7	incongruent	Block3	incongruent/STIM_027.jpg	99
2646.563	0.376	375.8	incongruent	Block3	incongruent/STIM_027.jpg	99
2649.093	0.382	381.6	incongruent	Block3	incongruent/STIM_027.jpg	99
2651.772	0.66	659.9	incongruent	Block3	incongruent/STIM_027.jpg	100
2656.011	0.43	429.8	incongruent	Block3	incongruent/STIM_027.jpg	99
2658.96	0.353	353.3	incongruent	Block3	incongruent/STIM_028.jpg	100
2662.53	0.379	379.4	incongruent	Block3	incongruent/STIM_028.jpg	99
2666.641	0.638	638.5	incongruent	Block3	incongruent/STIM_028.jpg	100
2670.808	0.344	344.0	incongruent	Block3	incongruent/STIM_028.jpg	100
2674.218	0.487	487.2	incongruent	Block3	incongruent/STIM_028.jpg	100
2677.479	0.624	623.7	incongruent	Block3	incongruent/STIM_029.jpg	100
2681.162	0.425	424.8	incongruent	Block3	incongruent/STIM_029.jpg	100
2683.832	0.474	473.5	incongruent	Block3	incongruent/STIM_029.jpg	99
2687.871	0.612	612.5	incongruent	Block3	incongruent/STIM_029.jpg	100
2690.933	0.463	463.4	incongruent	Block3	incongruent/STIM_029.jpg	100
2695.065	0.482	481.8	congruent	Block3	congruent/STIM_000.jpg	100
2698.869	0.52	520.4	congruent	Block3	congruent/STIM_000.jpg	99
2702.269	0.539	539.3	congruent	Block3	congruent/STIM_000.jpg	100
2705.384	0.481	480.9	congruent	Block3	congruent/STIM_000.jpg	99
2709.811	0.432	431.5	congruent	Block3	congruent/STIM_000.jpg	100
2713.801	0.35	349.8	congruent	Block3	congruent/STIM_001.jpg	100
2718.009	0.599	598.6	congruent	Block3	congruent/STIM_001.jpg	99
2721.585	0.37	369.8	congruent	Block3	congruent/STIM_001.jpg	100
2725.235	0.424	423.9	congruent	Block3	congruent/STIM_001.jpg	99
2729.318	0.582	581.8	congruent	Block3	congruent/STIM_001.jpg	99
2732.819	0.513	512.6	congruent	Block3	congruent/STIM_002.jpg	100
2735.602	0.388	387.5	congruent	Block3	congruent/STIM_002.jpg	100
2739.727	0.449	449.1	congruent	Block3	congruent/STIM_002.jpg	99
2742.744	0.574	574.0	congruent	Block3	congruent/STIM_002.jpg	100
2747.076	0.588	587.6	congruent	Block3	congruent/STIM_002.jpg	100
2750.272	0.468	467.8	congruent	Block3	congruent/STIM_003.jpg	99
2753.709	0.386	386.1	congruent	Block3	congruent/STIM_003.jpg	99
2757.612	0.385	385.4	congruent	Block3	congruent/STIM_003.jpg	99
2761.993	0.49	489.6	congruent	Block3	congruent/STIM_003.jpg	99
2765.503	0.434	433.8	congruent	Block3	congruent/STIM_003.jpg	100
2768.064	0.397	396.8	congruent	Block3	congruent/STIM_004.jpg	99
2770.68	0.449	449.2	congruent	Block3	congruent/STIM_004.jpg	100
2774.564	0.431	431.4	congruent	Block3	congruent/STIM_004.jpg	99
2778.419	0.592	591.9	congruent	Block3	congruent/STIM_004.jpg	99
2781.133	0.47	470.5	congruent	Block3	congruent/STIM_004.jpg	100
2783.901	0.379	378.6	congruent	Block3	congruent/STIM_005.jpg	99
2786.694	0.418	417.5	congruent	Block3	congruent/STIM_005.jpg	99
2789.171	0.538	538.2	congruent	Block3	congruent/STIM_005.jpg	99
2792.614	0.411	411.2	congruent	Block3	congruent/STIM_005.jpg	100
2796.253	0.368	368.4	congruent	Block3	congruent/STIM_005.jpg	100
2798.698	0.552	551.9	congruent	Block3	congruent/STIM_006.jpg	99
2802.81	0.352	351.8	congruent	Block3	congruent/STIM_006.jpg	99
2807.112	0.586	585.5	congruent	Block3	congruent/STIM_006.jpg	100
2809.77	0.413	413.4	congruent	Block3	congruent/STIM_006.jpg	99
2812.663	0.538	537.7	congruent	Block3	congruent/STIM_006.jpg	100
2816.52	0.611	610.9	congruent	Block3	congruent/STIM_007.jpg	99
2820.136	0.519	518.7	congruent	Block3	congruent/STIM_007.jpg	99
2824.073	0.359	358.7	congruent	Block3	congruent/STIM_007.jpg	99
2827.456	0.604	603.5	congruent	Block3	congruent/STIM_007.jpg	100
2831.004	0.365	365.2	congruent	Block3	congruent/STIM_007.jpg	99
2833.935	0.537	537.0	congruent	Block3	congruent/STIM_008.jpg	99
2836.97	0.589	589.3	congruent	Block3	congruent/STIM_008.jpg	100
2840.022	0.453	453.1	congruent	Block3	congruent/STIM_008.jpg	99
2844.385	0.536	535.6	congruent	Block3	congruent/STIM_008.jpg	99
2847.345	0.527	526.8	congruent	Block3	congruent/STIM_008.jpg	99
2850.887	0.476	476.2	congruent	Block3	congruent/STIM_009.jpg	100
2853.426	0.602	602.4	congruent	Block3	congruent/STIM_009.jpg	99
2856.165	0.622	621.7	congruent	Block3	congruent/STIM_009.jpg	99
2859.004	0.619	619.2	congruent	Block3	congruent/STIM_009.jpg	99
2862.763	0.463	462.9	congruent	Block3	congruent/STIM_009.jpg	99
2865.503	0.424	423.5	congruent	Block3	congruent/STIM_010.jpg	100
2868.036	0.52	519.8	congruent	Block3	congruent/STIM_010.jpg	99
2871.567	0.376	376.0	congruent	Block3	congruent/STIM_010.jpg	99
2875.073	0.516	516.0	congruent	Block3	congruent/STIM_010.jpg	100
2878.225	0.441	440.6	congruent	Block3	congruent/STIM_010.jpg	99
2882.617	0.466	465.9	congruent	Block3	congruent/STIM_011.jpg	100
2885.739	0.461	461.3	congruent	Block3	congruent/STIM_011.jpg	100
2890.082	0.594	593.9	congruent	Block3	congruent/STIM_011.jpg	99
2893.692	0.372	372.5	congruent	Block3	congruent/STIM_011.jpg	99
2896.964	0.627	626.6	congruent	Block3	congruent/STIM_011.jpg	100
2900.069	0.536	535.5	congruent	Block3	congruent/STIM_012.jpg	99
2904.282	0.533	532.9	congruent	Block3	congruent/STIM_012.jpg	100
2908.435	0.518	518.3	congruent	Block3	congruent/STIM_012.jpg	100
2912.79	0.562	561.5	congruent	Block3	congruent/STIM_012.jpg	99
2916.125	0.604	603.5	congruent	Block3	congruent/STIM_012.jpg	99
2919.453	0.491	490.8	congruent	Block3	congruent/STIM_013.jpg	100
2922.517	0.61	609.6	congruent	Block3	congruent/STIM_013.jpg	100
2926.602	0.414	414.0	congruent	Block3	congruent/STIM_013.jpg	100
2930.702	0.401	401.4	congruent	Block3	congruent/STIM_013.jpg	99
2934.428	0.522	521.8	congruent	Block3	congruent/STIM_013.jpg	99
2938.798	0.441	441.3	congruent	Block3	congruent/STIM_014.jpg	100
2941.844	0.605	604.8	congruent	Block3	congruent/STIM_014.jpg	100
2945.986	0.36	359.5	congruent	Block3	congruent/STIM_014.jpg	99
2948.514	0.441	440.7	congruent	Block3	congruent/STIM_014.jpg	99
2952.259	0.41	410.3	congruent	Block3	congruent/STIM_014.jpg	99
2955.185	0.417	417.2	congruent	Block3	congruent/STIM_015.jpg	99
2957.963	0.458	458.1	congruent	Block3	congruent/STIM_015.jpg	100
2961.28	0.569	569.4	congruent	Block3	congruent/STIM_015.jpg	100
2964.118	0.451	451.1	congruent	Block3	congruent/STIM_015.jpg	99
2966.977	0.556	556.5	congruent	Block3	congruent/STIM_015.jpg	99
2971.042	0.405	405.0	congruent	Block3	congruent/STIM_016.jpg	99
2975.155	0.622	622.0	congruent	Block3	congruent/STIM_016.jpg	99
2979.576	0.478	477.7	congruent	Block3	congruent/STIM_016.jpg	99
2982.329	0.556	556.1	congruent	Block3	congruent/STIM_016.jpg	99
2986.869	0.626	625.7	congruent	Block3	congruent/STIM_016.jpg	99
2989.502	0.494	494.2	congruent	Block3	congruent/STIM_017.jpg	100
2992.51	0.351	350.9	congruent	Block3	congruent/STIM_017.jpg	100
2996.626	0.556	555.7	congruent	Block3	congruent/STIM_017.jpg	99
2999.514	0.482	482.0	congruent	Block3	congruent/STIM_017.jpg	99
3003.054	0.625	624.9	congruent	Block3	congruent/STIM_017.jpg	99
3007.469	0.614	613.8	congruent	Block3	congruent/STIM_018.jpg	99
3010.388	0.516	515.5	congruent	Block3	congruent/STIM_018.jpg	99
3014.856	0.352	352.0	congruent	Block3	congruent/STIM_018.jpg	99
3017.906	0.583	583.4	congruent	Block3	congruent/STIM_018.jpg	100
3021.086	0.526	525.7	congruent	Block3	congruent/STIM_018.jpg	100
3024.193	0.529	529.1	congruent	Block3	congruent/STIM_019.jpg	99
3027.461	0.366	365.8	congruent	Block3	congruent/STIM_019.jpg	99
3031.513	0.593	592.8	congruent	Block3	congruent/STIM_019.jpg	100
3035.051	0.623	622.7	congruent	Block3	congruent/STIM_019.jpg	99
3038.172	0.592	591.9	congruent	Block3	congruent/STIM_019.jpg	100
3042.496	0.52	520.2	congruent	Block3	congruent/STIM_020.jpg	100
3045.56	0.447	446.8	congruent	Block3	congruent/STIM_020.jpg	99
3048.08	0.593	593.3	congruent	Block3	congruent/STIM_020.jpg	99
3051.581	0.379	378.7	congruent	Block3	congruent/STIM_020.jpg	100
3054.838	0.475	475.3	congruent	Block3	congruent/STIM_020.jpg	99
3058.197	0.572	571.5	congruent	Block3	congruent/STIM_021.jpg	100
3060.807	0.468	468.3	congruent	Block3	congruent/STIM_021.jpg	99
3064.669	0.538	537.5	congruent	Block3	congruent/STIM_021.jpg	100
3068.22	0.479	479.1	congruent	Block3	congruent/STIM_021.jpg	100
3072.186	0.517	517.4	congruent	Block3	congruent/STIM_021.jpg	99
3076.236	0.576	575.5	congruent	Block3	congruent/STIM_022.jpg	100
3080.044	0.419	419.1	congruent	Block3	congruent/STIM_022.jpg	100
3084.115	0.582	582.1	congruent	Block3	congruent/STIM_022.jpg	100
3088.314	0.486	485.7	congruent	Block3	congruent/STIM_022.jpg	100
3092.772	0.408	407.7	congruent	Block3	congruent/STIM_022.jpg	100
3097.104	0.531	531.2	congruent	Block3	congruent/STIM_023.jpg	100
3100.527	0.509	509.4	congruent	Block3	congruent/STIM_023.jpg	99
3104.879	0.418	418.3	congruent	Block3	congruent/STIM_023.jpg	99
3109.247	0.371	370.9	congruent	Block3	congruent/STIM_023.jpg	99
3112.399	0.567	567.1	congruent	Block3	congruent/STIM_023.jpg	99
3115.073	0.352	351.7	congruent	Block3	congruent/STIM_024.jpg	100
3117.441	0.589	588.7	congruent	Block3	congruent/STIM_024.jpg	99
3120.509	0.548	547.9	congruent	Block3	congruent/STIM_024.jpg	99
3123.887	0.595	595.2	congruent	Block3	congruent/STIM_024.jpg	99
3127.106	0.578	578.3	congruent	Block3	congruent/STIM_024.jpg	99
3129.763	0.381	381.0	congruent	Block3	congruent/STIM_025.jpg	100
3133.813	0.434	434.1	congruent	Block3	congruent/STIM_025.jpg	100
3137.949	0.419	418.9	congruent	Block3	congruent/STIM_025.jpg	99
3141.984	0.482	481.8	congruent	Block3	congruent/STIM_025.jpg	100
3145.696	0.577	577.2	congruent	Block3	congruent/STIM_025.jpg	100
3148.395	0.448	447.9	congruent	Block3	congruent/STIM_026.jpg	99
3151.963	0.536	536.4	congruent	Block3	congruent/STIM_026.jpg	100
3154.796	0.509	508.8	congruent	Block3	congruent/STIM_026.jpg	99
3157.853	0.508	507.9	congruent	Block3	congruent/STIM_026.jpg	99
3161.362	0.383	382.9	congruent	Block3	congruent/STIM_026.jpg	100
3165.205	0.416	416.4	congruent	Block3	congruent/STIM_027.jpg	99
3169.619	0.536	536.4	congruent	Block3	congruent/STIM_027.jpg	100
3174.006	0.595	595.1	congruent	Block3	congruent/STIM_027.jpg	99
3176.79	0.467	467.4	congruent	Block3	congruent/STIM_027.jpg	99
3180.356	0.604	603.9	congruent	Block3	congruent/STIM_027.jpg	100
3184.526	0.513	513.3	congruent	Block3	congruent/STIM_028.jpg	99
3188.328	0.376	376.5	congruent	Block3	congruent/STIM_028.jpg	99
3191.387	0.424	423.7	congruent	Block3	congruent/STIM_028.jpg	99
3193.958	0.452	451.7	congruent	Block3	congruent/STIM_028.jpg	100
3196.665	0.53	530.5	congruent	Block3	congruent/STIM_028.jpg	99
3200.228	0.603	602.7	congruent	Block3	congruent/STIM_029.jpg	100
3203.096	0.505	505.4	congruent	Block3	congruent/STIM_029.jpg	100
3207.206	0.564	564.4	congruent	Block3	congruent/STIM_029.jpg	99
3210.946	0.586	585.8	congruent	Block3	congruent/STIM_029.jpg	99
3215.053	0.381	381.4	congruent	Block3	congruent/STIM_029.jpg	100
