onset	duration	accuracy_binary	trial_type	learning_stage	stimulus
0.0	0.916	1	incongruent	Block1	incongruent/STIM_000.jpg
4.482	0.94	0	incongruent	Block1	incongruent/STIM_000.jpg
8.211	0.991	1	incongruent	Block1	incongruent/STIM_000.jpg
12.013	0.88	1	incongruent	Block1	incongruent/STIM_000.jpg
16.16	0.825	1	incongruent	Block1	incongruent/STIM_000.jpg
19.856	1.244	1	incongruent	Block1	incongruent/STIM_001.jpg
23.984	0.798	0	incongruent	Block1	incongruent/STIM_001.jpg
28.49	0.984	1	incongruent	Block1	incongruent/STIM_001.jpg
32.343	0.541	1	incongruent	Block1	incongruent/STIM_001.jpg
35.286	0.605	1	incongruent	Block1	incongruent/STIM_001.jpg
38.769	1.259	1	incongruent	Block1	incongruent/STIM_002.jpg
43.932	1.164	0	incongruent	Block1	incongruent/STIM_002.jpg
47.391	1.09	1	incongruent	Block1	incongruent/STIM_002.jpg
51.256	0.649	1	incongruent	Block1	incongruent/STIM_002.jpg
54.601	0.659	1	incongruent	Block1	incongruent/STIM_002.jpg
57.77	0.664	1	incongruent	Block1	incongruent/STIM_003.jpg
60.741	1.067	1	incongruent	Block1	incongruent/STIM_003.jpg
65.747	0.871	0	incongruent	Block1	incongruent/STIM_003.jpg
70.053	1.128	1	incongruent	Block1	incongruent/STIM_003.jpg
74.314	0.53	1	incongruent	Block1	incongruent/STIM_003.jpg
78.285	1.325	0	incongruent	Block1	incongruent/STIM_004.jpg
83.027	0.942	1	incongruent	Block1	incongruent/STIM_004.jpg
87.819	0.738	1	incongruent	Block1	incongruent/STIM_004.jpg
92.493	0.889	1	incongruent	Block1	incongruent/STIM_004.jpg
97.099	0.527	1	incongruent	Block1	incongruent/STIM_004.jpg
100.926	1.203	1	incongruent	Block1	incongruent/STIM_005.jpg
105.084	1.145	1	incongruent	Block1	incongruent/STIM_005.jpg
109.51	1.125	0	incongruent	Block1	incongruent/STIM_005.jpg
112.855	0.898	0	incongruent	Block1	incongruent/STIM_005.jpg
115.911	0.924	1	incongruent	Block1	incongruent/STIM_005.jpg
119.977	1.01	1	incongruent	Block1	incongruent/STIM_006.jpg
124.085	1.139	1	incongruent	Block1	incongruent/STIM_006.jpg
129.358	0.662	1	incongruent	Block1	incongruent/STIM_006.jpg
133.077	0.824	1	incongruent	Block1	incongruent/STIM_006.jpg
136.437	0.665	1	incongruent	Block1	incongruent/STIM_006.jpg
139.25	1.06	1	incongruent	Block1	incongruent/STIM_007.jpg
142.467	0.695	1	incongruent	Block1	incongruent/STIM_007.jpg
147.203	0.622	1	incongruent	Block1	incongruent/STIM_007.jpg
151.232	0.983	1	incongruent	Block1	incongruent/STIM_007.jpg
154.712	0.722	1	incongruent	Block1	incongruent/STIM_007.jpg
159.477	1.124	1	incongruent	Block1	incongruent/STIM_008.jpg
162.762	0.844	1	incongruent	Block1	incongruent/STIM_008.jpg
167.086	0.82	1	incongruent	Block1	incongruent/STIM_008.jpg
170.479	0.884	1	incongruent	Block1	incongruent/STIM_008.jpg
175.179	1.009	1	incongruent	Block1	incongruent/STIM_008.jpg
179.317	1.065	1	incongruent	Block1	incongruent/STIM_009.jpg
183.14	1.041	1	incongruent	Block1	incongruent/STIM_009.jpg
187.311	1.015	1	incongruent	Block1	incongruent/STIM_009.jpg
191.916	0.766	1	incongruent	Block1	incongruent/STIM_009.jpg
195.549	0.514	1	incongruent	Block1	incongruent/STIM_009.jpg
199.801	1.141	0	incongruent	Block1	incongruent/STIM_010.jpg
204.539	1.127	1	incongruent	Block1	incongruent/STIM_010.jpg
208.8	1.138	1	incongruent	Block1	incongruent/STIM_010.jpg
213.848	0.669	1	incongruent	Block1	incongruent/STIM_010.jpg
217.578	0.683	1	incongruent	Block1	incongruent/STIM_010.jpg
221.727	1.268	1	incongruent	Block1	incongruent/STIM_011.jpg
226.213	1.2	1	incongruent	Block1	incongruent/STIM_011.jpg
229.941	0.96	1	incongruent	Block1	incongruent/STIM_011.jpg
234.856	0.582	0	incongruent	Block1	incongruent/STIM_011.jpg
238.743	0.698	1	incongruent	Block1	incongruent/STIM_011.jpg
243.407	1.009	1	incongruent	Block1	incongruent/STIM_012.jpg
246.929	1.079	1	incongruent	Block1	incongruent/STIM_012.jpg
251.614	1.033	1	incongruent	Block1	incongruent/STIM_012.jpg
256.248	0.858	1	incongruent	Block1	incongruent/STIM_012.jpg
260.618	0.824	1	incongruent	Block1	incongruent/STIM_012.jpg
264.444	0.735	1	incongruent	Block1	incongruent/STIM_013.jpg
268.049	0.778	1	incongruent	Block1	incongruent/STIM_013.jpg
272.361	0.574	1	incongruent	Block1	incongruent/STIM_013.jpg
276.391	0.86	1	incongruent	Block1	incongruent/STIM_013.jpg
280.458	0.918	1	incongruent	Block1	incongruent/STIM_013.jpg
285.023	0.932	1	incongruent	Block1	incongruent/STIM_014.jpg
288.103	1.088	1	incongruent	Block1	incongruent/STIM_014.jpg
291.725	0.587	0	incongruent	Block1	incongruent/STIM_014.jpg
296.205	0.932	1	incongruent	Block1	incongruent/STIM_014.jpg
299.579	0.648	1	incongruent	Block1	incongruent/STIM_014.jpg
303.558	0.808	0	incongruent	Block1	incongruent/STIM_015.jpg
307.732	0.724	1	incongruent	Block1	incongruent/STIM_015.jpg
311.513	0.89	1	incongruent	Block1	incongruent/STIM_015.jpg
315.6	1.051	1	incongruent	Block1	incongruent/STIM_015.jpg
320.732	0.635	1	incongruent	Block1	incongruent/STIM_015.jpg
323.502	1.136	1	incongruent	Block1	incongruent/STIM_016.jpg
328.231	0.797	1	incongruent	Block1	incongruent/STIM_016.jpg
332.341	0.567	1	incongruent	Block1	incongruent/STIM_016.jpg
335.617	0.556	1	incongruent	Block1	incongruent/STIM_016.jpg
340.04	0.5	1	incongruent	Block1	incongruent/STIM_016.jpg
342.993	0.904	0	incongruent	Block1	incongruent/STIM_017.jpg
347.051	0.953	1	incongruent	Block1	incongruent/STIM_017.jpg
351.686	1.145	1	incongruent	Block1	incongruent/STIM_017.jpg
356.843	1.13	1	incongruent	Block1	incongruent/STIM_017.jpg
361.967	0.629	1	incongruent	Block1	incongruent/STIM_017.jpg
365.344	0.708	0	incongruent	Block1	incongruent/STIM_018.jpg
369.142	0.8	0	incongruent	Block1	incongruent/STIM_018.jpg
373.63	0.986	1	incongruent	Block1	incongruent/STIM_018.jpg
378.379	0.984	1	incongruent	Block1	incongruent/STIM_018.jpg
382.735	0.769	0	incongruent	Block1	incongruent/STIM_018.jpg
385.642	0.797	1	incongruent	Block1	incongruent/STIM_019.jpg
388.859	0.92	1	incongruent	Block1	incongruent/STIM_019.jpg
392.439	0.636	1	incongruent	Block1	incongruent/STIM_019.jpg
396.758	0.555	1	incongruent	Block1	incongruent/STIM_019.jpg
400.75	0.559	1	incongruent	Block1	incongruent/STIM_019.jpg
404.624	0.981	1	incongruent	Block1	incongruent/STIM_020.jpg
408.012	0.708	1	incongruent	Block1	incongruent/STIM_020.jpg
411.199	0.754	1	incongruent	Block1	incongruent/STIM_020.jpg
415.745	1.126	1	incongruent	Block1	incongruent/STIM_020.jpg
420.005	1.012	1	incongruent	Block1	incongruent/STIM_020.jpg
424.002	0.697	1	incongruent	Block1	incongruent/STIM_021.jpg
427.912	0.712	1	incongruent	Block1	incongruent/STIM_021.jpg
431.194	0.712	1	incongruent	Block1	incongruent/STIM_021.jpg
434.657	1.055	1	incongruent	Block1	incongruent/STIM_021.jpg
438.959	0.544	1	incongruent	Block1	incongruent/STIM_021.jpg
441.741	1.131	1	incongruent	Block1	incongruent/STIM_022.jpg
446.49	0.858	1	incongruent	Block1	incongruent/STIM_022.jpg
450.493	0.616	1	incongruent	Block1	incongruent/STIM_022.jpg
453.207	0.703	1	incongruent	Block1	incongruent/STIM_022.jpg
456.698	0.786	1	incongruent	Block1	incongruent/STIM_022.jpg
460.597	0.819	1	incongruent	Block1	incongruent/STIM_023.jpg
463.779	0.757	1	incongruent	Block1	incongruent/STIM_023.jpg
466.839	0.816	1	incongruent	Block1	incongruent/STIM_023.jpg
471.459	0.911	1	incongruent	Block1	incongruent/STIM_023.jpg
476.442	0.886	1	incongruent	Block1	incongruent/STIM_023.jpg
481.037	0.743	1	incongruent	Block1	incongruent/STIM_024.jpg
485.362	0.633	1	incongruent	Block1	incongruent/STIM_024.jpg
489.362	0.666	1	incongruent	Block1	incongruent/STIM_024.jpg
492.926	0.788	1	incongruent	Block1	incongruent/STIM_024.jpg
495.998	0.69	1	incongruent	Block1	incongruent/STIM_024.jpg
498.881	1.32	1	incongruent	Block1	incongruent/STIM_025.jpg
502.754	1.203	1	incongruent	Block1	incongruent/STIM_025.jpg
506.471	1.007	1	incongruent	Block1	incongruent/STIM_025.jpg
510.804	1.059	1	incongruent	Block1	incongruent/STIM_025.jpg
515.547	0.96	1	incongruent	Block1	incongruent/STIM_025.jpg
519.084	1.234	1	incongruent	Block1	incongruent/STIM_026.jpg
523.701	0.799	1	incongruent	Block1	incongruent/STIM_026.jpg
527.634	1.158	1	incongruent	Block1	incongruent/STIM_026.jpg
532.3	0.686	1	incongruent	Block1	incongruent/STIM_026.jpg
536.486	0.691	0	incongruent	Block1	incongruent/STIM_026.jpg
540.837	1.326	1	incongruent	Block1	incongruent/STIM_027.jpg
544.764	0.628	1	incongruent	Block1	incongruent/STIM_027.jpg
548.379	0.638	1	incongruent	Block1	incongruent/STIM_027.jpg
552.063	0.819	1	incongruent	Block1	incongruent/STIM_027.jpg
555.953	0.505	1	incongruent	Block1	incongruent/STIM_027.jpg
558.528	0.921	0	incongruent	Block1	incongruent/STIM_028.jpg
562.529	1.06	1	incongruent	Block1	incongruent/STIM_028.jpg
567.009	0.716	1	incongruent	Block1	incongruent/STIM_028.jpg
570.904	0.822	1	incongruent	Block1	incongruent/STIM_028.jpg
575.033	0.802	1	incongruent	Block1	incongruent/STIM_028.jpg
578.823	1.283	1	incongruent	Block1	incongruent/STIM_029.jpg
582.976	1.251	1	incongruent	Block1	incongruent/STIM_029.jpg
587.635	1.022	1	incongruent	Block1	incongruent/STIM_029.jpg
592.484	0.699	0	incongruent	Block1	incongruent/STIM_029.jpg
596.293	0.969	1	incongruent	Block1	incongruent/STIM_029.jpg
600.352	0.777	1	congruent	Block1	congruent/STIM_000.jpg
604.001	0.646	1	congruent	Block1	congruent/STIM_000.jpg
608.03	0.604	1	congruent	Block1	congruent/STIM_000.jpg
611.525	0.576	1	congruent	Block1	congruent/STIM_000.jpg
615.65	0.586	1	congruent	Block1	congruent/STIM_000.jpg
619.153	0.573	1	congruent	Block1	congruent/STIM_001.jpg
623.75	0.682	1	congruent	Block1	congruent/STIM_001.jpg
626.83	0.544	1	congruent	Block1	congruent/STIM_001.jpg
629.823	0.465	1	congruent	Block1	congruent/STIM_001.jpg
633.754	0.587	1	congruent	Block1	congruent/STIM_001.jpg
637.916	0.476	1	congruent	Block1	congruent/STIM_002.jpg
642.06	0.574	1	congruent	Block1	congruent/STIM_002.jpg
646.053	0.6	1	congruent	Block1	congruent/STIM_002.jpg
649.132	0.778	1	congruent	Block1	congruent/STIM_002.jpg
652.491	0.474	1	congruent	Block1	congruent/STIM_002.jpg
656.144	0.6	1	congruent	Block1	congruent/STIM_003.jpg
660.565	0.78	1	congruent	Block1	congruent/STIM_003.jpg
663.673	0.504	1	congruent	Block1	congruent/STIM_003.jpg
667.098	0.561	1	congruent	Block1	congruent/STIM_003.jpg
670.405	0.616	1	congruent	Block1	congruent/STIM_003.jpg
674.801	0.665	1	congruent	Block1	congruent/STIM_004.jpg
679.43	0.666	1	congruent	Block1	congruent/STIM_004.jpg
682.93	0.462	1	congruent	Block1	congruent/STIM_004.jpg
686.644	0.674	1	congruent	Block1	congruent/STIM_004.jpg
690.865	0.772	1	congruent	Block1	congruent/STIM_004.jpg
694.848	0.693	1	congruent	Block1	congruent/STIM_005.jpg
699.012	0.548	1	congruent	Block1	congruent/STIM_005.jpg
701.729	0.635	1	congruent	Block1	congruent/STIM_005.jpg
705.473	0.635	1	congruent	Block1	congruent/STIM_005.jpg
708.468	0.494	1	congruent	Block1	congruent/STIM_005.jpg
711.397	0.585	1	congruent	Block1	congruent/STIM_006.jpg
714.295	0.527	1	congruent	Block1	congruent/STIM_006.jpg
718.374	0.621	1	congruent	Block1	congruent/STIM_006.jpg
721.085	0.561	1	congruent	Block1	congruent/STIM_006.jpg
725.247	0.541	1	congruent	Block1	congruent/STIM_006.jpg
728.709	0.604	1	congruent	Block1	congruent/STIM_007.jpg
733.367	0.579	1	congruent	Block1	congruent/STIM_007.jpg
736.597	0.776	1	congruent	Block1	congruent/STIM_007.jpg
740.23	0.618	0	congruent	Block1	congruent/STIM_007.jpg
743.316	0.59	1	congruent	Block1	congruent/STIM_007.jpg
746.82	0.651	1	congruent	Block1	congruent/STIM_008.jpg
750.151	0.595	1	congruent	Block1	congruent/STIM_008.jpg
754.763	0.493	1	congruent	Block1	congruent/STIM_008.jpg
757.848	0.758	1	congruent	Block1	congruent/STIM_008.jpg
762.102	0.621	1	congruent	Block1	congruent/STIM_008.jpg
766.366	0.611	1	congruent	Block1	congruent/STIM_009.jpg
770.491	0.706	1	congruent	Block1	congruent/STIM_009.jpg
773.682	0.515	1	congruent	Block1	congruent/STIM_009.jpg
777.234	0.519	1	congruent	Block1	congruent/STIM_009.jpg
781.802	0.553	1	congruent	Block1	congruent/STIM_009.jpg
786.077	0.453	1	congruent	Block1	congruent/STIM_010.jpg
789.614	0.783	1	congruent	Block1	congruent/STIM_010.jpg
792.557	0.71	1	congruent	Block1	congruent/STIM_010.jpg
796.404	0.714	1	congruent	Block1	congruent/STIM_010.jpg
799.941	0.62	0	congruent	Block1	congruent/STIM_010.jpg
803.698	0.613	1	congruent	Block1	congruent/STIM_011.jpg
808.032	0.544	1	congruent	Block1	congruent/STIM_011.jpg
811.925	0.503	1	congruent	Block1	congruent/STIM_011.jpg
816.484	0.647	1	congruent	Block1	congruent/STIM_011.jpg
821.08	0.746	1	congruent	Block1	congruent/STIM_011.jpg
825.103	0.564	1	congruent	Block1	congruent/STIM_012.jpg
829.656	0.797	1	congruent	Block1	congruent/STIM_012.jpg
834.473	0.739	1	congruent	Block1	congruent/STIM_012.jpg
838.033	0.771	1	congruent	Block1	congruent/STIM_012.jpg
841.875	0.543	1	congruent	Block1	congruent/STIM_012.jpg
845.173	0.559	1	congruent	Block1	congruent/STIM_013.jpg
848.329	0.587	1	congruent	Block1	congruent/STIM_013.jpg
851.593	0.518	1	congruent	Block1	congruent/STIM_013.jpg
855.164	0.57	1	congruent	Block1	congruent/STIM_013.jpg
859.283	0.764	1	congruent	Block1	congruent/STIM_013.jpg
862.785	0.665	1	congruent	Block1	congruent/STIM_014.jpg
866.133	0.655	1	congruent	Block1	congruent/STIM_014.jpg
870.388	0.662	1	congruent	Block1	congruent/STIM_014.jpg
873.531	0.708	1	congruent	Block1	congruent/STIM_014.jpg
876.933	0.79	1	congruent	Block1	congruent/STIM_014.jpg
881.81	0.595	1	congruent	Block1	congruent/STIM_015.jpg
885.041	0.514	1	congruent	Block1	congruent/STIM_015.jpg
889.098	0.68	1	congruent	Block1	congruent/STIM_015.jpg
893.546	0.634	1	congruent	Block1	congruent/STIM_015.jpg
896.563	0.647	1	congruent	Block1	congruent/STIM_015.jpg
899.56	0.731	1	congruent	Block1	congruent/STIM_016.jpg
902.65	0.779	1	congruent	Block1	congruent/STIM_016.jpg
905.667	0.556	1	congruent	Block1	congruent/STIM_016.jpg
908.441	0.614	1	congruent	Block1	congruent/STIM_016.jpg
911.845	0.62	1	congruent	Block1	congruent/STIM_016.jpg
915.255	0.47	1	congruent	Block1	congruent/STIM_017.jpg
918.141	0.688	1	congruent	Block1	congruent/STIM_017.jpg
922.339	0.74	1	congruent	Block1	congruent/STIM_017.jpg
925.303	0.778	1	congruent	Block1	congruent/STIM_017.jpg
930.095	0.587	1	congruent	Block1	congruent/STIM_017.jpg
933.196	0.612	1	congruent	Block1	congruent/STIM_018.jpg
937.141	0.735	1	congruent	Block1	congruent/STIM_018.jpg
940.37	0.661	1	congruent	Block1	congruent/STIM_018.jpg
943.376	0.78	1	congruent	Block1	congruent/STIM_018.jpg
946.376	0.611	1	congruent	Block1	congruent/STIM_018.jpg
949.886	0.73	0	congruent	Block1	congruent/STIM_019.jpg
952.968	0.557	1	congruent	Block1	congruent/STIM_019.jpg
957.486	0.574	1	congruent	Block1	congruent/STIM_019.jpg
960.597	0.604	1	congruent	Block1	congruent/STIM_019.jpg
963.286	0.534	1	congruent	Block1	congruent/STIM_019.jpg
966.652	0.637	1	congruent	Block1	congruent/STIM_020.jpg
969.485	0.668	1	congruent	Block1	congruent/STIM_020.jpg
974.022	0.764	1	congruent	Block1	congruent/STIM_020.jpg
977.674	0.547	1	congruent	Block1	congruent/STIM_020.jpg
981.493	0.692	1	congruent	Block1	congruent/STIM_020.jpg
985.176	0.516	1	congruent	Block1	congruent/STIM_021.jpg
988.026	0.565	1	congruent	Block1	congruent/STIM_021.jpg
991.098	0.68	1	congruent	Block1	congruent/STIM_021.jpg
994.741	0.5	1	congruent	Block1	congruent/STIM_021.jpg
998.914	0.545	1	congruent	Block1	congruent/STIM_021.jpg
1003.238	0.725	1	congruent	Block1	congruent/STIM_022.jpg
1006.919	0.53	1	congruent	Block1	congruent/STIM_022.jpg
1011.145	0.539	1	congruent	Block1	congruent/STIM_022.jpg
1014.251	0.496	1	congruent	Block1	congruent/STIM_022.jpg
1017.147	0.602	1	congruent	Block1	congruent/STIM_022.jpg
1021.299	0.786	1	congruent	Block1	congruent/STIM_023.jpg
1025.793	0.546	1	congruent	Block1	congruent/STIM_023.jpg
1029.154	0.633	1	congruent	Block1	congruent/STIM_023.jpg
1032.057	0.715	1	congruent	Block1	congruent/STIM_023.jpg
1034.972	0.545	1	congruent	Block1	congruent/STIM_023.jpg
1038.325	0.498	1	congruent	Block1	congruent/STIM_024.jpg
1042.351	0.49	1	congruent	Block1	congruent/STIM_024.jpg
1045.163	0.695	1	congruent	Block1	congruent/STIM_024.jpg
1049.908	0.612	1	congruent	Block1	congruent/STIM_024.jpg
1054.08	0.545	1	congruent	Block1	congruent/STIM_024.jpg
1057.217	0.541	1	congruent	Block1	congruent/STIM_025.jpg
1061.651	0.562	1	congruent	Block1	congruent/STIM_025.jpg
1064.422	0.518	1	congruent	Block1	congruent/STIM_025.jpg
1068.261	0.641	1	congruent	Block1	congruent/STIM_025.jpg
1072.196	0.523	1	congruent	Block1	congruent/STIM_025.jpg
1075.9	0.609	1	congruent	Block1	congruent/STIM_026.jpg
1079.105	0.687	1	congruent	Block1	congruent/STIM_026.jpg
1083.831	0.675	1	congruent	Block1	congruent/STIM_026.jpg
1087.737	0.464	1	congruent	Block1	congruent/STIM_026.jpg
1090.597	0.45	1	congruent	Block1	congruent/STIM_026.jpg
1093.772	0.606	1	congruent	Block1	congruent/STIM_027.jpg
1098.038	0.616	1	congruent	Block1	congruent/STIM_027.jpg
1101.161	0.762	1	congruent	Block1	congruent/STIM_027.jpg
1104.388	0.56	1	congruent	Block1	congruent/STIM_027.jpg
1107.386	0.75	1	congruent	Block1	congruent/STIM_027.jpg
1110.819	0.544	1	congruent	Block1	congruent/STIM_028.jpg
1114.188	0.652	1	congruent	Block1	congruent/STIM_028.jpg
1118.897	0.53	1	congruent	Block1	congruent/STIM_028.jpg
1123.156	0.792	1	congruent	Block1	congruent/STIM_028.jpg
1127.764	0.694	1	congruent	Block1	congruent/STIM_028.jpg
1132.018	0.516	1	congruent	Block1	congruent/STIM_029.jpg
1135.291	0.703	1	congruent	Block1	congruent/STIM_029.jpg
1139.933	0.61	1	congruent	Block1	congruent/STIM_029.jpg
1143.388	0.673	1	congruent	Block1	congruent/STIM_029.jpg
1146.799	0.497	1	congruent	Block1	congruent/STIM_029.jpg
1150.599	1.042	0	incongruent	Block2	incongruent/STIM_000.jpg
1154.276	0.502	1	incongruent	Block2	incongruent/STIM_000.jpg
1158.407	0.868	1	incongruent	Block2	incongruent/STIM_000.jpg
1162.705	0.716	1	incongruent	Block2	incongruent/STIM_000.jpg
1166.877	0.547	1	incongruent	Block2	incongruent/STIM_000.jpg
1171.141	0.946	1	incongruent	Block2	incongruent/STIM_001.jpg
1174.377	0.679	1	incongruent	Block2	incongruent/STIM_001.jpg
1177.672	0.926	1	incongruent	Block2	incongruent/STIM_001.jpg
1182.268	0.506	0	incongruent	Block2	incongruent/STIM_001.jpg
1185.389	0.455	1	incongruent	Block2	incongruent/STIM_001.jpg
1189.458	0.555	1	incongruent	Block2	incongruent/STIM_002.jpg
1192.381	0.582	1	incongruent	Block2	incongruent/STIM_002.jpg
1196.317	0.572	1	incongruent	Block2	incongruent/STIM_002.jpg
1199.7	0.896	1	incongruent	Block2	incongruent/STIM_002.jpg
1204.333	0.674	1	incongruent	Block2	incongruent/STIM_002.jpg
1208.218	0.797	1	incongruent	Block2	incongruent/STIM_003.jpg
1211.571	1.025	1	incongruent	Block2	incongruent/STIM_003.jpg
1215.214	0.657	1	incongruent	Block2	incongruent/STIM_003.jpg
1218.293	0.63	1	incongruent	Block2	incongruent/STIM_003.jpg
1221.723	0.629	1	incongruent	Block2	incongruent/STIM_003.jpg
1225.898	1.026	1	incongruent	Block2	incongruent/STIM_004.jpg
1229.147	0.842	1	incongruent	Block2	incongruent/STIM_004.jpg
1233.358	0.762	1	incongruent	Block2	incongruent/STIM_004.jpg
1237.476	0.744	1	incongruent	Block2	incongruent/STIM_004.jpg
1240.77	0.54	1	incongruent	Block2	incongruent/STIM_004.jpg
1244.413	0.662	1	incongruent	Block2	incongruent/STIM_005.jpg
1248.339	0.533	1	incongruent	Block2	incongruent/STIM_005.jpg
1252.798	0.74	1	incongruent	Block2	incongruent/STIM_005.jpg
1257.2	0.572	1	incongruent	Block2	incongruent/STIM_005.jpg
1260.349	0.824	1	incongruent	Block2	incongruent/STIM_005.jpg
1263.319	0.734	1	incongruent	Block2	incongruent/STIM_006.jpg
1266.774	0.682	1	incongruent	Block2	incongruent/STIM_006.jpg
1270.144	0.825	1	incongruent	Block2	incongruent/STIM_006.jpg
1273.479	0.665	1	incongruent	Block2	incongruent/STIM_006.jpg
1276.985	0.835	0	incongruent	Block2	incongruent/STIM_006.jpg
1280.225	1.033	1	incongruent	Block2	incongruent/STIM_007.jpg
1283.521	0.836	1	incongruent	Block2	incongruent/STIM_007.jpg
1287.845	0.712	1	incongruent	Block2	incongruent/STIM_007.jpg
1291.027	0.832	1	incongruent	Block2	incongruent/STIM_007.jpg
1295.6	0.805	1	incongruent	Block2	incongruent/STIM_007.jpg
1299.881	0.985	1	incongruent	Block2	incongruent/STIM_008.jpg
1303.019	0.88	1	incongruent	Block2	incongruent/STIM_008.jpg
1307.464	0.646	1	incongruent	Block2	incongruent/STIM_008.jpg
1311.372	0.581	1	incongruent	Block2	incongruent/STIM_008.jpg
1314.268	0.557	1	incongruent	Block2	incongruent/STIM_008.jpg
1318.23	1.108	1	incongruent	Block2	incongruent/STIM_009.jpg
1323.017	0.81	1	incongruent	Block2	incongruent/STIM_009.jpg
1326.984	0.534	1	incongruent	Block2	incongruent/STIM_009.jpg
1331.058	0.562	1	incongruent	Block2	incongruent/STIM_009.jpg
1333.977	0.722	1	incongruent	Block2	incongruent/STIM_009.jpg
1337.92	0.744	1	incongruent	Block2	incongruent/STIM_010.jpg
1342.715	0.697	1	incongruent	Block2	incongruent/STIM_010.jpg
1347.001	0.745	0	incongruent	Block2	incongruent/STIM_010.jpg
1350.179	0.68	0	incongruent	Block2	incongruent/STIM_010.jpg
1354.395	0.554	1	incongruent	Block2	incongruent/STIM_010.jpg
1358.082	0.928	1	incongruent	Block2	incongruent/STIM_011.jpg
1363.107	0.751	1	incongruent	Block2	incongruent/STIM_011.jpg
1367.263	0.583	1	incongruent	Block2	incongruent/STIM_011.jpg
1371.402	0.701	1	incongruent	Block2	incongruent/STIM_011.jpg
1374.65	0.805	1	incongruent	Block2	incongruent/STIM_011.jpg
1377.798	0.763	1	incongruent	Block2	incongruent/STIM_012.jpg
1381.628	0.656	1	incongruent	Block2	incongruent/STIM_012.jpg
1384.388	0.638	1	incongruent	Block2	incongruent/STIM_012.jpg
1387.28	0.457	1	incongruent	Block2	incongruent/STIM_012.jpg
1390.074	0.918	1	incongruent	Block2	incongruent/STIM_012.jpg
1394.023	0.925	1	incongruent	Block2	incongruent/STIM_013.jpg
1398.953	0.509	1	incongruent	Block2	incongruent/STIM_013.jpg
1402.27	0.799	1	incongruent	Block2	incongruent/STIM_013.jpg
1406.616	0.747	1	incongruent	Block2	incongruent/STIM_013.jpg
1409.796	0.887	1	incongruent	Block2	incongruent/STIM_013.jpg
1412.846	0.628	1	incongruent	Block2	incongruent/STIM_014.jpg
1416.625	0.648	1	incongruent	Block2	incongruent/STIM_014.jpg
1419.854	0.63	1	incongruent	Block2	incongruent/STIM_014.jpg
1423.837	0.538	1	incongruent	Block2	incongruent/STIM_014.jpg
1427.921	0.53	1	incongruent	Block2	incongruent/STIM_014.jpg
1432.29	1.1	1	incongruent	Block2	incongruent/STIM_015.jpg
1436.087	0.622	1	incongruent	Block2	incongruent/STIM_015.jpg
1439.639	0.539	0	incongruent	Block2	incongruent/STIM_015.jpg
1442.783	0.657	1	incongruent	Block2	incongruent/STIM_015.jpg
1446.722	0.926	1	incongruent	Block2	incongruent/STIM_015.jpg
1451.339	0.586	1	incongruent	Block2	incongruent/STIM_016.jpg
1454.35	0.846	1	incongruent	Block2	incongruent/STIM_016.jpg
1458.387	0.861	1	incongruent	Block2	incongruent/STIM_016.jpg
1461.731	0.464	1	incongruent	Block2	incongruent/STIM_016.jpg
1465.135	0.621	1	incongruent	Block2	incongruent/STIM_016.jpg
1468.025	1.028	1	incongruent	Block2	incongruent/STIM_017.jpg
1471.498	1.029	1	incongruent	Block2	incongruent/STIM_017.jpg
1475.983	0.823	1	incongruent	Block2	incongruent/STIM_017.jpg
1480.488	0.804	1	incongruent	Block2	incongruent/STIM_017.jpg
1484.921	0.669	1	incongruent	Block2	incongruent/STIM_017.jpg
1488.861	0.643	1	incongruent	Block2	incongruent/STIM_018.jpg
1491.649	1.019	1	incongruent	Block2	incongruent/STIM_018.jpg
1495.298	0.846	1	incongruent	Block2	incongruent/STIM_018.jpg
1498.745	0.52	1	incongruent	Block2	incongruent/STIM_018.jpg
1501.452	0.668	1	incongruent	Block2	incongruent/STIM_018.jpg
1505.646	0.912	1	incongruent	Block2	incongruent/STIM_019.jpg
1508.804	0.827	1	incongruent	Block2	incongruent/STIM_019.jpg
1513.023	0.811	1	incongruent	Block2	incongruent/STIM_019.jpg
1516.475	0.699	1	incongruent	Block2	incongruent/STIM_019.jpg
1520.153	0.49	1	incongruent	Block2	incongruent/STIM_019.jpg
1523.384	0.55	1	incongruent	Block2	incongruent/STIM_020.jpg
1526.841	1.044	1	incongruent	Block2	incongruent/STIM_020.jpg
1531.213	0.768	1	incongruent	Block2	incongruent/STIM_020.jpg
1535.948	0.637	1	incongruent	Block2	incongruent/STIM_020.jpg
1539.832	0.651	1	incongruent	Block2	incongruent/STIM_020.jpg
1542.976	0.548	1	incongruent	Block2	incongruent/STIM_021.jpg
1546.571	0.502	1	incongruent	Block2	incongruent/STIM_021.jpg
1550.528	0.915	1	incongruent	Block2	incongruent/STIM_021.jpg
1554.148	0.598	1	incongruent	Block2	incongruent/STIM_021.jpg
1557.866	0.563	1	incongruent	Block2	incongruent/STIM_021.jpg
1561.924	0.904	1	incongruent	Block2	incongruent/STIM_022.jpg
1565.808	0.87	1	incongruent	Block2	incongruent/STIM_022.jpg
1569.16	0.922	1	incongruent	Block2	incongruent/STIM_022.jpg
1573.463	0.466	1	incongruent	Block2	incongruent/STIM_022.jpg
1577.385	0.908	1	incongruent	Block2	incongruent/STIM_022.jpg
1581.898	0.794	1	incongruent	Block2	incongruent/STIM_023.jpg
1585.732	0.629	1	incongruent	Block2	incongruent/STIM_023.jpg
1590.006	0.608	1	incongruent	Block2	incongruent/STIM_023.jpg
1592.902	0.876	1	incongruent	Block2	incongruent/STIM_023.jpg
1597.34	0.806	1	incongruent	Block2	incongruent/STIM_023.jpg
1600.295	0.642	1	incongruent	Block2	incongruent/STIM_024.jpg
1603.773	0.53	1	incongruent	Block2	incongruent/STIM_024.jpg
1608.248	0.841	1	incongruent	Block2	incongruent/STIM_024.jpg
1612.166	0.463	1	incongruent	Block2	incongruent/STIM_024.jpg
1615.53	0.788	1	incongruent	Block2	incongruent/STIM_024.jpg
1619.753	0.886	1	incongruent	Block2	incongruent/STIM_025.jpg
1623.049	0.672	1	incongruent	Block2	incongruent/STIM_025.jpg
1626.771	0.468	1	incongruent	Block2	incongruent/STIM_025.jpg
1630.248	0.732	1	incongruent	Block2	incongruent/STIM_025.jpg
1633.973	0.454	1	incongruent	Block2	incongruent/STIM_025.jpg
1638.029	0.57	1	incongruent	Block2	incongruent/STIM_026.jpg
1642.454	0.952	1	incongruent	Block2	incongruent/STIM_026.jpg
1645.586	0.904	1	incongruent	Block2	incongruent/STIM_026.jpg
1649.659	0.522	1	incongruent	Block2	incongruent/STIM_026.jpg
1652.311	0.875	1	incongruent	Block2	incongruent/STIM_026.jpg
1655.724	1.131	0	incongruent	Block2	incongruent/STIM_027.jpg
1659.379	0.972	1	incongruent	Block2	incongruent/STIM_027.jpg
1663.292	0.515	1	incongruent	Block2	incongruent/STIM_027.jpg
1667.566	0.543	1	incongruent	Block2	incongruent/STIM_027.jpg
1671.265	0.502	1	incongruent	Block2	incongruent/STIM_027.jpg
1674.522	0.654	1	incongruent	Block2	incongruent/STIM_028.jpg
1679.103	0.824	1	incongruent	Block2	incongruent/STIM_028.jpg
1683.93	0.879	1	incongruent	Block2	incongruent/STIM_028.jpg
1686.95	0.74	1	incongruent	Block2	incongruent/STIM_028.jpg
1691.029	0.621	1	incongruent	Block2	incongruent/STIM_028.jpg
1695.449	0.565	1	incongruent	Block2	incongruent/STIM_029.jpg
1698.986	0.788	1	incongruent	Block2	incongruent/STIM_029.jpg
1703.344	0.562	1	incongruent	Block2	incongruent/STIM_029.jpg
1706.058	0.902	1	incongruent	Block2	incongruent/STIM_029.jpg
1709.781	0.49	1	incongruent	Block2	incongruent/STIM_029.jpg
1712.382	0.559	1	congruent	Block2	congruent/STIM_000.jpg
1715.826	0.494	1	congruent	Block2	congruent/STIM_000.jpg
1719.501	0.595	1	congruent	Block2	congruent/STIM_000.jpg
1723.546	0.457	1	congruent	Block2	congruent/STIM_000.jpg
1727.128	0.677	1	congruent	Block2	congruent/STIM_000.jpg
1731.181	0.551	1	congruent	Block2	congruent/STIM_001.jpg
1734.068	0.704	1	congruent	Block2	congruent/STIM_001.jpg
1738.352	0.768	1	congruent	Block2	congruent/STIM_001.jpg
1743.031	0.594	1	congruent	Block2	congruent/STIM_001.jpg
1747.327	0.526	1	congruent	Block2	congruent/STIM_001.jpg
1750.358	0.519	1	congruent	Block2	congruent/STIM_002.jpg
1753.686	0.496	1	congruent	Block2	congruent/STIM_002.jpg
1758.027	0.495	1	congruent	Block2	congruent/STIM_002.jpg
1761.446	0.56	1	congruent	Block2	congruent/STIM_002.jpg
1764.795	0.726	1	congruent	Block2	congruent/STIM_002.jpg
1769.406	0.461	1	congruent	Block2	congruent/STIM_003.jpg
1773.563	0.782	1	congruent	Block2	congruent/STIM_003.jpg
1778.081	0.571	1	congruent	Block2	congruent/STIM_003.jpg
1781.85	0.731	1	congruent	Block2	congruent/STIM_003.jpg
1785.912	0.615	1	congruent	Block2	congruent/STIM_003.jpg
1788.831	0.446	1	congruent	Block2	congruent/STIM_004.jpg
1791.828	0.66	1	congruent	Block2	congruent/STIM_004.jpg
1794.616	0.602	1	congruent	Block2	congruent/STIM_004.jpg
1797.753	0.478	1	congruent	Block2	congruent/STIM_004.jpg
1801.51	0.455	1	congruent	Block2	congruent/STIM_004.jpg
1805.992	0.636	1	congruent	Block2	congruent/STIM_005.jpg
1810.042	0.624	1	congruent	Block2	congruent/STIM_005.jpg
1813.333	0.531	0	congruent	Block2	congruent/STIM_005.jpg
1816.592	0.664	1	congruent	Block2	congruent/STIM_005.jpg
1820.939	0.789	1	congruent	Block2	congruent/STIM_005.jpg
1824.297	0.447	1	congruent	Block2	congruent/STIM_006.jpg
1827.21	0.69	1	congruent	Block2	congruent/STIM_006.jpg
1831.483	0.696	1	congruent	Block2	congruent/STIM_006.jpg
1835.036	0.529	1	congruent	Block2	congruent/STIM_006.jpg
1839.156	0.739	1	congruent	Block2	congruent/STIM_006.jpg
1842.948	0.48	1	congruent	Block2	congruent/STIM_007.jpg
1846.543	0.658	1	congruent	Block2	congruent/STIM_007.jpg
1849.928	0.484	1	congruent	Block2	congruent/STIM_007.jpg
1853.582	0.735	1	congruent	Block2	congruent/STIM_007.jpg
1856.473	0.753	1	congruent	Block2	congruent/STIM_007.jpg
1860.409	0.509	1	congruent	Block2	congruent/STIM_008.jpg
1863.074	0.493	1	congruent	Block2	congruent/STIM_008.jpg
1866.282	0.796	1	congruent	Block2	congruent/STIM_008.jpg
1870.421	0.569	1	congruent	Block2	congruent/STIM_008.jpg
1873.075	0.47	1	congruent	Block2	congruent/STIM_008.jpg
1877.514	0.534	1	congruent	Block2	congruent/STIM_009.jpg
1881.133	0.6	1	congruent	Block2	congruent/STIM_009.jpg
1885.184	0.511	1	congruent	Block2	congruent/STIM_009.jpg
1889.609	0.663	1	congruent	Block2	congruent/STIM_009.jpg
1894.334	0.7	1	congruent	Block2	congruent/STIM_009.jpg
1897.909	0.498	1	congruent	Block2	congruent/STIM_010.jpg
1901.578	0.485	1	congruent	Block2	congruent/STIM_010.jpg
1904.245	0.507	1	congruent	Block2	congruent/STIM_010.jpg
1907.842	0.541	1	congruent	Block2	congruent/STIM_010.jpg
1912.301	0.505	1	congruent	Block2	congruent/STIM_010.jpg
1915.152	0.477	1	congruent	Block2	congruent/STIM_011.jpg
1919.096	0.586	1	congruent	Block2	congruent/STIM_011.jpg
1923.616	0.537	1	congruent	Block2	congruent/STIM_011.jpg
1927.328	0.775	1	congruent	Block2	congruent/STIM_011.jpg
1932.189	0.717	1	congruent	Block2	congruent/STIM_011.jpg
1935.321	0.453	1	congruent	Block2	congruent/STIM_012.jpg
1939.046	0.688	1	congruent	Block2	congruent/STIM_012.jpg
1942.635	0.617	1	congruent	Block2	congruent/STIM_012.jpg
1945.637	0.646	1	congruent	Block2	congruent/STIM_012.jpg
1950.116	0.587	1	congruent	Block2	congruent/STIM_012.jpg
1953.527	0.732	1	congruent	Block2	congruent/STIM_013.jpg
1958.17	0.762	1	congruent	Block2	congruent/STIM_013.jpg
1962.613	0.541	1	congruent	Block2	congruent/STIM_013.jpg
1965.595	0.518	1	congruent	Block2	congruent/STIM_013.jpg
1968.7	0.487	1	congruent	Block2	congruent/STIM_013.jpg
1971.34	0.493	0	congruent	Block2	congruent/STIM_014.jpg
1974.617	0.795	1	congruent	Block2	congruent/STIM_014.jpg
1977.789	0.563	1	congruent	Block2	congruent/STIM_014.jpg
1982.393	0.481	1	congruent	Block2	congruent/STIM_014.jpg
1986.152	0.74	1	congruent	Block2	congruent/STIM_014.jpg
1989.37	0.481	1	congruent	Block2	congruent/STIM_015.jpg
1992.471	0.512	1	congruent	Block2	congruent/STIM_015.jpg
1996.096	0.674	1	congruent	Block2	congruent/STIM_015.jpg
1998.917	0.725	1	congruent	Block2	congruent/STIM_015.jpg
2003.095	0.52	1	congruent	Block2	congruent/STIM_015.jpg
2007.31	0.492	1	congruent	Block2	congruent/STIM_016.jpg
2011.345	0.734	1	congruent	Block2	congruent/STIM_016.jpg
2014.775	0.548	1	congruent	Block2	congruent/STIM_016.jpg
2017.742	0.482	1	congruent	Block2	congruent/STIM_016.jpg
2021.424	0.606	1	congruent	Block2	congruent/STIM_016.jpg
2024.171	0.486	1	congruent	Block2	congruent/STIM_017.jpg
2027.727	0.599	1	congruent	Block2	congruent/STIM_017.jpg
2032.294	0.677	1	congruent	Block2	congruent/STIM_017.jpg
2036.112	0.591	1	congruent	Block2	congruent/STIM_017.jpg
2040.774	0.772	1	congruent	Block2	congruent/STIM_017.jpg
2043.737	0.688	1	congruent	Block2	congruent/STIM_018.jpg
2047.426	0.63	1	congruent	Block2	congruent/STIM_018.jpg
2051.533	0.796	1	congruent	Block2	congruent/STIM_018.jpg
2054.93	0.551	1	congruent	Block2	congruent/STIM_018.jpg
2059.308	0.619	1	congruent	Block2	congruent/STIM_018.jpg
2063.738	0.5	1	congruent	Block2	congruent/STIM_019.jpg
2067.026	0.784	1	congruent	Block2	congruent/STIM_019.jpg
2071.371	0.554	1	congruent	Block2	congruent/STIM_019.jpg
2075.46	0.505	1	congruent	Block2	congruent/STIM_019.jpg
2078.448	0.495	1	congruent	Block2	congruent/STIM_019.jpg
2082.289	0.558	1	congruent	Block2	congruent/STIM_020.jpg
2085.628	0.783	1	congruent	Block2	congruent/STIM_020.jpg
2089.693	0.55	0	congruent	Block2	congruent/STIM_020.jpg
2094.046	0.57	1	congruent	Block2	congruent/STIM_020.jpg
2098.128	0.76	1	congruent	Block2	congruent/STIM_020.jpg
2102.417	0.543	1	congruent	Block2	congruent/STIM_021.jpg
2106.644	0.494	1	congruent	Block2	congruent/STIM_021.jpg
2110.491	0.786	1	congruent	Block2	congruent/STIM_021.jpg
2114.686	0.545	1	congruent	Block2	congruent/STIM_021.jpg
2119.083	0.471	0	congruent	Block2	congruent/STIM_021.jpg
2123.188	0.486	1	congruent	Block2	congruent/STIM_022.jpg
2126.219	0.688	1	congruent	Block2	congruent/STIM_022.jpg
2129.868	0.633	1	congruent	Block2	congruent/STIM_022.jpg
2134.316	0.553	1	congruent	Block2	congruent/STIM_022.jpg
2137.383	0.589	1	congruent	Block2	congruent/STIM_022.jpg
2141.976	0.715	1	congruent	Block2	congruent/STIM_023.jpg
2145.851	0.748	1	congruent	Block2	congruent/STIM_023.jpg
2149.199	0.549	1	congruent	Block2	congruent/STIM_023.jpg
2153.527	0.506	1	congruent	Block2	congruent/STIM_023.jpg
2156.522	0.509	1	congruent	Block2	congruent/STIM_023.jpg
2159.488	0.69	1	congruent	Block2	congruent/STIM_024.jpg
2163.861	0.486	1	congruent	Block2	congruent/STIM_024.jpg
2166.966	0.682	1	congruent	Block2	congruent/STIM_024.jpg
2171.318	0.562	1	congruent	Block2	congruent/STIM_024.jpg
2174.562	0.707	1	congruent	Block2	congruent/STIM_024.jpg
2177.887	0.462	1	congruent	Block2	congruent/STIM_025.jpg
2181.572	0.6	1	congruent	Block2	congruent/STIM_025.jpg
2185.742	0.46	1	congruent	Block2	congruent/STIM_025.jpg
2190.092	0.53	1	congruent	Block2	congruent/STIM_025.jpg
2193.204	0.753	1	congruent	Block2	congruent/STIM_025.jpg
2196.597	0.725	1	congruent	Block2	congruent/STIM_026.jpg
2200.356	0.614	1	congruent	Block2	congruent/STIM_026.jpg
2203.928	0.736	1	congruent	Block2	congruent/STIM_026.jpg
2207.02	0.593	1	congruent	Block2	congruent/STIM_026.jpg
2209.903	0.578	1	congruent	Block2	congruent/STIM_026.jpg
2212.814	0.656	0	congruent	Block2	congruent/STIM_027.jpg
2216.621	0.657	1	congruent	Block2	congruent/STIM_027.jpg
2221.02	0.604	1	congruent	Block2	congruent/STIM_027.jpg
2223.925	0.492	1	congruent	Block2	congruent/STIM_027.jpg
2227.787	0.59	1	congruent	Block2	congruent/STIM_027.jpg
2230.911	0.613	1	congruent	Block2	congruent/STIM_028.jpg
2235.349	0.479	1	congruent	Block2	congruent/STIM_028.jpg
2239.237	0.657	1	congruent	Block2	congruent/STIM_028.jpg
2243.117	0.553	1	congruent	Block2	congruent/STIM_028.jpg
2246.168	0.475	1	congruent	Block2	congruent/STIM_028.jpg
2250.167	0.774	1	congruent	Block2	congruent/STIM_029.jpg
2254.596	0.776	1	congruent	Block2	congruent/STIM_029.jpg
2258.726	0.747	1	congruent	Block2	congruent/STIM_029.jpg
2262.888	0.547	1	congruent	Block2	congruent/STIM_029.jpg
2267.483	0.679	1	congruent	Block2	congruent/STIM_029.jpg
2271.175	0.884	1	incongruent	Block3	incongruent/STIM_000.jpg
2275.569	0.817	1	incongruent	Block3	incongruent/STIM_000.jpg
2279.102	0.837	1	incongruent	Block3	incongruent/STIM_000.jpg
2283.736	0.879	1	incongruent	Block3	incongruent/STIM_000.jpg
2287.485	0.435	1	incongruent	Block3	incongruent/STIM_000.jpg
2290.87	0.498	1	incongruent	Block3	incongruent/STIM_001.jpg
2294.475	0.672	1	incongruent	Block3	incongruent/STIM_001.jpg
2297.578	0.912	1	incongruent	Block3	incongruent/STIM_001.jpg
2302.251	0.753	1	incongruent	Block3	incongruent/STIM_001.jpg
2306.274	0.795	1	incongruent	Block3	incongruent/STIM_001.jpg
2310.638	0.807	1	incongruent	Block3	incongruent/STIM_002.jpg
2315.263	0.588	1	incongruent	Block3	incongruent/STIM_002.jpg
2318.802	0.486	1	incongruent	Block3	incongruent/STIM_002.jpg
2322.845	0.577	1	incongruent	Block3	incongruent/STIM_002.jpg
2326.872	0.76	1	incongruent	Block3	incongruent/STIM_002.jpg
2330.091	0.562	1	incongruent	Block3	incongruent/STIM_003.jpg
2333.653	0.507	1	incongruent	Block3	incongruent/STIM_003.jpg
2337.039	0.578	1	incongruent	Block3	incongruent/STIM_003.jpg
2341.383	0.584	1	incongruent	Block3	incongruent/STIM_003.jpg
2344.883	0.913	1	incongruent	Block3	incongruent/STIM_003.jpg
2349.004	0.54	1	incongruent	Block3	incongruent/STIM_004.jpg
2351.652	0.528	1	incongruent	Block3	incongruent/STIM_004.jpg
2356.194	0.48	1	incongruent	Block3	incongruent/STIM_004.jpg
2359.125	0.647	1	incongruent	Block3	incongruent/STIM_004.jpg
2362.677	0.529	1	incongruent	Block3	incongruent/STIM_004.jpg
2366.929	0.915	1	incongruent	Block3	incongruent/STIM_005.jpg
2369.966	0.557	0	incongruent	Block3	incongruent/STIM_005.jpg
2374.446	0.812	1	incongruent	Block3	incongruent/STIM_005.jpg
2378.185	0.913	1	incongruent	Block3	incongruent/STIM_005.jpg
2381.643	0.752	1	incongruent	Block3	incongruent/STIM_005.jpg
2385.36	0.519	1	incongruent	Block3	incongruent/STIM_006.jpg
2389.051	0.575	1	incongruent	Block3	incongruent/STIM_006.jpg
2393.599	0.929	1	incongruent	Block3	incongruent/STIM_006.jpg
2397.071	0.561	1	incongruent	Block3	incongruent/STIM_006.jpg
2400.546	0.481	1	incongruent	Block3	incongruent/STIM_006.jpg
2404.184	0.715	1	incongruent	Block3	incongruent/STIM_007.jpg
2407.841	0.491	1	incongruent	Block3	incongruent/STIM_007.jpg
2411.671	0.659	1	incongruent	Block3	incongruent/STIM_007.jpg
2414.541	0.713	1	incongruent	Block3	incongruent/STIM_007.jpg
2418.843	0.495	1	incongruent	Block3	incongruent/STIM_007.jpg
2421.737	0.62	1	incongruent	Block3	incongruent/STIM_008.jpg
2425.894	0.456	1	incongruent	Block3	incongruent/STIM_008.jpg
2429.071	0.851	1	incongruent	Block3	incongruent/STIM_008.jpg
2432.701	0.919	1	incongruent	Block3	incongruent/STIM_008.jpg
2436.712	0.771	1	incongruent	Block3	incongruent/STIM_008.jpg
2439.83	0.695	1	incongruent	Block3	incongruent/STIM_009.jpg
2443.491	0.8	1	incongruent	Block3	incongruent/STIM_009.jpg
2447.559	0.906	1	incongruent	Block3	incongruent/STIM_009.jpg
2451.519	0.904	1	incongruent	Block3	incongruent/STIM_009.jpg
2454.938	0.44	1	incongruent	Block3	incongruent/STIM_009.jpg
2458.608	0.607	1	incongruent	Block3	incongruent/STIM_010.jpg
2462.999	0.825	1	incongruent	Block3	incongruent/STIM_010.jpg
2467.642	0.9	1	incongruent	Block3	incongruent/STIM_010.jpg
2472.347	0.544	1	incongruent	Block3	incongruent/STIM_010.jpg
2475.527	0.49	1	incongruent	Block3	incongruent/STIM_010.jpg
2479.76	0.894	1	incongruent	Block3	incongruent/STIM_011.jpg
2484.716	0.467	1	incongruent	Block3	incongruent/STIM_011.jpg
2488.02	0.526	1	incongruent	Block3	incongruent/STIM_011.jpg
2492.495	0.84	1	incongruent	Block3	incongruent/STIM_011.jpg
2496.182	0.856	1	incongruent	Block3	incongruent/STIM_011.jpg
2499.587	0.658	1	incongruent	Block3	incongruent/STIM_012.jpg
2503.223	0.805	1	incongruent	Block3	incongruent/STIM_012.jpg
2507.07	0.811	1	incongruent	Block3	incongruent/STIM_012.jpg
2511.209	0.811	1	incongruent	Block3	incongruent/STIM_012.jpg
2514.158	0.67	1	incongruent	Block3	incongruent/STIM_012.jpg
2517.489	0.606	1	incongruent	Block3	incongruent/STIM_013.jpg
2520.339	0.895	1	incongruent	Block3	incongruent/STIM_013.jpg
2524.984	0.907	1	incongruent	Block3	incongruent/STIM_013.jpg
2529.93	0.572	1	incongruent	Block3	incongruent/STIM_013.jpg
2532.828	0.898	1	incongruent	Block3	incongruent/STIM_013.jpg
2536.679	0.862	1	incongruent	Block3	incongruent/STIM_014.jpg
2540.534	0.495	1	incongruent	Block3	incongruent/STIM_014.jpg
2544.898	0.758	1	incongruent	Block3	incongruent/STIM_014.jpg
2548.624	0.626	1	incongruent	Block3	incongruent/STIM_014.jpg
2553.23	0.461	1	incongruent	Block3	incongruent/STIM_014.jpg
2556.75	0.906	1	incongruent	Block3	incongruent/STIM_015.jpg
2561.244	0.835	1	incongruent	Block3	incongruent/STIM_015.jpg
2564.445	0.437	1	incongruent	Block3	incongruent/STIM_015.jpg
2567.869	0.768	1	incongruent	Block3	incongruent/STIM_015.jpg
2572.411	0.698	1	incongruent	Block3	incongruent/STIM_015.jpg
2575.753	0.558	1	incongruent	Block3	incongruent/STIM_016.jpg
2580.1	0.742	1	incongruent	Block3	incongruent/STIM_016.jpg
2584.711	0.772	1	incongruent	Block3	incongruent/STIM_016.jpg
2588.725	0.691	1	incongruent	Block3	incongruent/STIM_016.jpg
2593.004	0.742	1	incongruent	Block3	incongruent/STIM_016.jpg
2597.809	0.531	1	incongruent	Block3	incongruent/STIM_017.jpg
2601.276	0.544	1	incongruent	Block3	incongruent/STIM_017.jpg
2605.192	0.515	1	incongruent	Block3	incongruent/STIM_017.jpg
2609.351	0.885	1	incongruent	Block3	incongruent/STIM_017.jpg
2612.496	0.536	1	incongruent	Block3	incongruent/STIM_017.jpg
2617.044	0.62	1	incongruent	Block3	incongruent/STIM_018.jpg
2621.184	0.88	1	incongruent	Block3	incongruent/STIM_018.jpg
2625.871	0.586	1	incongruent	Block3	incongruent/STIM_018.jpg
2628.845	0.81	1	incongruent	Block3	incongruent/STIM_018.jpg
2632.662	0.806	1	incongruent	Block3	incongruent/STIM_018.jpg
2637.216	0.678	1	incongruent	Block3	incongruent/STIM_019.jpg
2640.025	0.555	1	incongruent	Block3	incongruent/STIM_019.jpg
2643.235	0.546	1	incongruent	Block3	incongruent/STIM_019.jpg
2647.789	0.9	1	incongruent	Block3	incongruent/STIM_019.jpg
2651.338	0.633	1	incongruent	Block3	incongruent/STIM_019.jpg
2656.041	0.739	1	incongruent	Block3	incongruent/STIM_020.jpg
2658.922	0.833	1	incongruent	Block3	incongruent/STIM_020.jpg
2663.847	0.876	1	incongruent	Block3	incongruent/STIM_020.jpg
2667.625	0.812	1	incongruent	Block3	incongruent/STIM_020.jpg
2671.484	0.629	1	incongruent	Block3	incongruent/STIM_020.jpg
2675.328	0.689	1	incongruent	Block3	incongruent/STIM_021.jpg
2678.287	0.782	1	incongruent	Block3	incongruent/STIM_021.jpg
2681.91	0.818	1	incongruent	Block3	incongruent/STIM_021.jpg
2686.047	0.872	1	incongruent	Block3	incongruent/STIM_021.jpg
2689.928	0.869	1	incongruent	Block3	incongruent/STIM_021.jpg
2694.365	0.44	1	incongruent	Block3	incongruent/STIM_022.jpg
2697.468	0.817	1	incongruent	Block3	incongruent/STIM_022.jpg
2700.525	0.457	1	incongruent	Block3	incongruent/STIM_022.jpg
2704.349	0.604	1	incongruent	Block3	incongruent/STIM_022.jpg
2708.603	0.651	1	incongruent	Block3	incongruent/STIM_022.jpg
2713.327	0.571	1	incongruent	Block3	incongruent/STIM_023.jpg
2716.62	0.901	1	incongruent	Block3	incongruent/STIM_023.jpg
2719.907	0.604	1	incongruent	Block3	incongruent/STIM_023.jpg
2724.293	0.898	1	incongruent	Block3	incongruent/STIM_023.jpg
2728.261	0.635	1	incongruent	Block3	incongruent/STIM_023.jpg
2731.27	0.438	1	incongruent	Block3	incongruent/STIM_024.jpg
2734.662	0.496	1	incongruent	Block3	incongruent/STIM_024.jpg
2738.094	0.458	1	incongruent	Block3	incongruent/STIM_024.jpg
2740.87	0.671	1	incongruent	Block3	incongruent/STIM_024.jpg
2745.052	0.451	1	incongruent	Block3	incongruent/STIM_024.jpg
2748.178	0.486	1	incongruent	Block3	incongruent/STIM_025.jpg
2751.569	0.733	1	incongruent	Block3	incongruent/STIM_025.jpg
2755.549	0.456	1	incongruent	Block3	incongruent/STIM_025.jpg
2760.045	0.822	1	incongruent	Block3	incongruent/STIM_025.jpg
2763.033	0.792	1	incongruent	Block3	incongruent/STIM_025.jpg
2766.718	0.744	1	incongruent	Block3	incongruent/STIM_026.jpg
2769.974	0.503	1	incongruent	Block3	incongruent/STIM_026.jpg
2772.878	0.73	1	incongruent	Block3	incongruent/STIM_026.jpg
2777.386	0.526	1	incongruent	Block3	incongruent/STIM_026.jpg
2780.565	0.675	1	incongruent	Block3	incongruent/STIM_026.jpg
2783.399	0.459	1	incongruent	Block3	incongruent/STIM_027.jpg
2786.438	0.445	1	incongruent	Block3	incongruent/STIM_027.jpg
2790.67	0.446	1	incongruent	Block3	incongruent/STIM_027.jpg
2794.822	0.7	1	incongruent	Block3	incongruent/STIM_027.jpg
2797.928	0.783	1	incongruent	Block3	incongruent/STIM_027.jpg
2801.609	0.494	1	incongruent	Block3	incongruent/STIM_028.jpg
2804.496	0.895	1	incongruent	Block3	incongruent/STIM_028.jpg
2808.021	0.63	1	incongruent	Block3	incongruent/STIM_028.jpg
2812.422	0.471	1	incongruent	Block3	incongruent/STIM_028.jpg
2815.499	0.501	1	incongruent	Block3	incongruent/STIM_028.jpg
2818.449	0.725	1	incongruent	Block3	incongruent/STIM_029.jpg
2822.625	0.565	1	incongruent	Block3	incongruent/STIM_029.jpg
2825.573	0.709	0	incongruent	Block3	incongruent/STIM_029.jpg
2829.457	0.84	1	incongruent	Block3	incongruent/STIM_029.jpg
2832.494	0.577	1	incongruent	Block3	incongruent/STIM_029.jpg
2836.457	0.56	1	congruent	Block3	congruent/STIM_000.jpg
2840.268	0.719	1	congruent	Block3	congruent/STIM_000.jpg
2843.884	0.53	1	congruent	Block3	congruent/STIM_000.jpg
2848.213	0.577	1	congruent	Block3	congruent/STIM_000.jpg
2851.999	0.461	1	congruent	Block3	congruent/STIM_000.jpg
2855.062	0.479	1	congruent	Block3	congruent/STIM_001.jpg
2859.383	0.511	1	congruent	Block3	congruent/STIM_001.jpg
2862.727	0.716	1	congruent	Block3	congruent/STIM_001.jpg
2865.797	0.466	1	congruent	Block3	congruent/STIM_001.jpg
2869.209	0.54	1	congruent	Block3	congruent/STIM_001.jpg
2873.655	0.46	1	congruent	Block3	congruent/STIM_002.jpg
2876.328	0.721	1	congruent	Block3	congruent/STIM_002.jpg
2880.716	0.64	1	congruent	Block3	congruent/STIM_002.jpg
2885.058	0.69	1	congruent	Block3	congruent/STIM_002.jpg
2888.369	0.486	1	congruent	Block3	congruent/STIM_002.jpg
2891.709	0.685	1	congruent	Block3	congruent/STIM_003.jpg
2896.316	0.526	1	congruent	Block3	congruent/STIM_003.jpg
2899.114	0.708	1	congruent	Block3	congruent/STIM_003.jpg
2902.784	0.66	1	congruent	Block3	congruent/STIM_003.jpg
2907.11	0.787	1	congruent	Block3	congruent/STIM_003.jpg
2911.444	0.646	1	congruent	Block3	congruent/STIM_004.jpg
2914.236	0.475	1	congruent	Block3	congruent/STIM_004.jpg
2917.942	0.485	1	congruent	Block3	congruent/STIM_004.jpg
2922.399	0.698	1	congruent	Block3	congruent/STIM_004.jpg
2926.902	0.478	1	congruent	Block3	congruent/STIM_004.jpg
2930.543	0.736	1	congruent	Block3	congruent/STIM_005.jpg
2935.257	0.727	1	congruent	Block3	congruent/STIM_005.jpg
2938.162	0.598	1	congruent	Block3	congruent/STIM_005.jpg
2942.19	0.461	1	congruent	Block3	congruent/STIM_005.jpg
2945.085	0.539	1	congruent	Block3	congruent/STIM_005.jpg
2948.429	0.649	1	congruent	Block3	congruent/STIM_006.jpg
2952.879	0.548	1	congruent	Block3	congruent/STIM_006.jpg
2956.877	0.537	1	congruent	Block3	congruent/STIM_006.jpg
2960.24	0.505	1	congruent	Block3	congruent/STIM_006.jpg
2963.727	0.643	1	congruent	Block3	congruent/STIM_006.jpg
2967.71	0.715	1	congruent	Block3	congruent/STIM_007.jpg
2972.017	0.685	1	congruent	Block3	congruent/STIM_007.jpg
2975.333	0.692	0	congruent	Block3	congruent/STIM_007.jpg
2978.312	0.527	0	congruent	Block3	congruent/STIM_007.jpg
2981.268	0.734	1	congruent	Block3	congruent/STIM_007.jpg
2985.301	0.564	1	congruent	Block3	congruent/STIM_008.jpg
2989.624	0.766	1	congruent	Block3	congruent/STIM_008.jpg
2993.147	0.504	1	congruent	Block3	congruent/STIM_008.jpg
2996.042	0.584	1	congruent	Block3	congruent/STIM_008.jpg
2999.388	0.713	1	congruent	Block3	congruent/STIM_008.jpg
3003.961	0.705	1	congruent	Block3	congruent/STIM_009.jpg
3008.513	0.701	1	congruent	Block3	congruent/STIM_009.jpg
3013.303	0.654	1	congruent	Block3	congruent/STIM_009.jpg
3017.8	0.662	1	congruent	Block3	congruent/STIM_009.jpg
3020.972	0.527	1	congruent	Block3	congruent/STIM_009.jpg
3024.982	0.747	1	congruent	Block3	congruent/STIM_010.jpg
3028.852	0.444	1	congruent	Block3	congruent/STIM_010.jpg
3032.495	0.598	1	congruent	Block3	congruent/STIM_010.jpg
3036.477	0.501	1	congruent	Block3	congruent/STIM_010.jpg
3039.858	0.761	1	congruent	Block3	congruent/STIM_010.jpg
3044.608	0.711	1	congruent	Block3	congruent/STIM_011.jpg
3048.317	0.768	1	congruent	Block3	congruent/STIM_011.jpg
3051.264	0.738	1	congruent	Block3	congruent/STIM_011.jpg
3054.579	0.542	1	congruent	Block3	congruent/STIM_011.jpg
3058.216	0.447	1	congruent	Block3	congruent/STIM_011.jpg
3062.474	0.569	1	congruent	Block3	congruent/STIM_012.jpg
3066.713	0.457	1	congruent	Block3	congruent/STIM_012.jpg
3070.685	0.727	1	congruent	Block3	congruent/STIM_012.jpg
3074.805	0.57	1	congruent	Block3	congruent/STIM_012.jpg
3078.001	0.495	1	congruent	Block3	congruent/STIM_012.jpg
3081.521	0.481	0	congruent	Block3	congruent/STIM_013.jpg
3085.454	0.702	1	congruent	Block3	congruent/STIM_013.jpg
3089.292	0.73	1	congruent	Block3	congruent/STIM_013.jpg
3093.17	0.592	1	congruent	Block3	congruent/STIM_013.jpg
3096.277	0.607	1	congruent	Block3	congruent/STIM_013.jpg
3100.626	0.483	1	congruent	Block3	congruent/STIM_014.jpg
3105.155	0.728	1	congruent	Block3	congruent/STIM_014.jpg
3108.486	0.555	1	congruent	Block3	congruent/STIM_014.jpg
3111.613	0.67	1	congruent	Block3	congruent/STIM_014.jpg
3114.586	0.499	1	congruent	Block3	congruent/STIM_014.jpg
3118.296	0.503	1	congruent	Block3	congruent/STIM_015.jpg
3121.282	0.788	1	congruent	Block3	congruent/STIM_015.jpg
3124.916	0.714	1	congruent	Block3	congruent/STIM_015.jpg
3129.365	0.533	0	congruent	Block3	congruent/STIM_015.jpg
3132.436	0.69	1	congruent	Block3	congruent/STIM_015.jpg
3136.765	0.527	1	congruent	Block3	congruent/STIM_016.jpg
3140.563	0.664	1	congruent	Block3	congruent/STIM_016.jpg
3143.673	0.575	1	congruent	Block3	congruent/STIM_016.jpg
3147.708	0.75	1	congruent	Block3	congruent/STIM_016.jpg
3151.964	0.754	1	congruent	Block3	congruent/STIM_016.jpg
3155.647	0.681	1	congruent	Block3	congruent/STIM_017.jpg
3160.078	0.543	1	congruent	Block3	congruent/STIM_017.jpg
3164.561	0.71	1	congruent	Block3	congruent/STIM_017.jpg
3167.579	0.514	1	congruent	Block3	congruent/STIM_017.jpg
3171.667	0.461	1	congruent	Block3	congruent/STIM_017.jpg
3174.487	0.697	0	congruent	Block3	congruent/STIM_018.jpg
3177.623	0.796	1	congruent	Block3	congruent/STIM_018.jpg
3182.37	0.46	1	congruent	Block3	congruent/STIM_018.jpg
3185.414	0.63	1	congruent	Block3	congruent/STIM_018.jpg
3188.293	0.736	1	congruent	Block3	congruent/STIM_018.jpg
3191.241	0.513	1	congruent	Block3	congruent/STIM_019.jpg
3195.334	0.573	1	congruent	Block3	congruent/STIM_019.jpg
3198.954	0.582	1	congruent	Block3	congruent/STIM_019.jpg
3202.393	0.735	1	congruent	Block3	congruent/STIM_019.jpg
3206.034	0.46	0	congruent	Block3	congruent/STIM_019.jpg
3210.085	0.58	1	congruent	Block3	congruent/STIM_020.jpg
3213.002	0.749	1	congruent	Block3	congruent/STIM_020.jpg
3216.419	0.649	1	congruent	Block3	congruent/STIM_020.jpg
3219.675	0.618	1	congruent	Block3	congruent/STIM_020.jpg
3222.48	0.52	1	congruent	Block3	congruent/STIM_020.jpg
3226.669	0.785	1	congruent	Block3	congruent/STIM_021.jpg
3230.216	0.6	1	congruent	Block3	congruent/STIM_021.jpg
3233.666	0.695	1	congruent	Block3	congruent/STIM_021.jpg
3237.91	0.45	1	congruent	Block3	congruent/STIM_021.jpg
3242.038	0.491	1	congruent	Block3	congruent/STIM_021.jpg
3246.387	0.751	0	congruent	Block3	congruent/STIM_022.jpg
3250.697	0.482	1	congruent	Block3	congruent/STIM_022.jpg
3254.113	0.511	1	congruent	Block3	congruent/STIM_022.jpg
3258.353	0.728	1	congruent	Block3	congruent/STIM_022.jpg
3261.241	0.649	1	congruent	Block3	congruent/STIM_022.jpg
3265.203	0.591	1	congruent	Block3	congruent/STIM_023.jpg
3269.37	0.583	1	congruent	Block3	congruent/STIM_023.jpg
3272.509	0.459	1	congruent	Block3	congruent/STIM_023.jpg
3276.196	0.599	1	congruent	Block3	congruent/STIM_023.jpg
3279.485	0.587	1	congruent	Block3	congruent/STIM_023.jpg
3283.842	0.721	1	congruent	Block3	congruent/STIM_024.jpg
3288.126	0.505	1	congruent	Block3	congruent/STIM_024.jpg
3291.236	0.593	1	congruent	Block3	congruent/STIM_024.jpg
3293.985	0.626	0	congruent	Block3	congruent/STIM_024.jpg
3297.218	0.464	1	congruent	Block3	congruent/STIM_024.jpg
3300.481	0.769	1	congruent	Block3	congruent/STIM_025.jpg
3304.935	0.577	1	congruent	Block3	congruent/STIM_025.jpg
3308.174	0.709	1	congruent	Block3	congruent/STIM_025.jpg
3312.112	0.618	1	congruent	Block3	congruent/STIM_025.jpg
3315.17	0.502	1	congruent	Block3	congruent/STIM_025.jpg
3319.482	0.549	1	congruent	Block3	congruent/STIM_026.jpg
3323.086	0.735	1	congruent	Block3	congruent/STIM_026.jpg
3327.784	0.535	1	congruent	Block3	congruent/STIM_026.jpg
3330.728	0.66	1	congruent	Block3	congruent/STIM_026.jpg
3333.93	0.508	1	congruent	Block3	congruent/STIM_026.jpg
3337.392	0.601	1	congruent	Block3	congruent/STIM_027.jpg
3342.059	0.476	1	congruent	Block3	congruent/STIM_027.jpg
3345.824	0.496	1	congruent	Block3	congruent/STIM_027.jpg
3349.48	0.516	1	congruent	Block3	congruent/STIM_027.jpg
3353.927	0.731	1	congruent	Block3	congruent/STIM_027.jpg
3357.759	0.448	1	congruent	Block3	congruent/STIM_028.jpg
3361.989	0.724	1	congruent	Block3	congruent/STIM_028.jpg
3365.64	0.695	1	congruent	Block3	congruent/STIM_028.jpg
3368.814	0.465	1	congruent	Block3	congruent/STIM_028.jpg
3373.065	0.693	1	congruent	Block3	congruent/STIM_028.jpg
3377.584	0.52	1	congruent	Block3	congruent/STIM_029.jpg
3381.586	0.778	1	congruent	Block3	congruent/STIM_029.jpg
3385.959	0.597	1	congruent	Block3	congruent/STIM_029.jpg
3389.726	0.782	1	congruent	Block3	congruent/STIM_029.jpg
3392.94	0.597	1	congruent	Block3	congruent/STIM_029.jpg
