onset	duration	response_time_ms	trial_type	learning_stage	stimulus	response_port
0.0	0.916	915.5	incongruent	Block1	incongruent/STIM_000.jpg	99
4.482	0.94	939.7	incongruent	Block1	incongruent/STIM_000.jpg	100
8.211	0.991	990.6	incongruent	Block1	incongruent/STIM_000.jpg	100
12.013	0.88	879.7	incongruent	Block1	incongruent/STIM_000.jpg	99
16.16	0.825	824.6	incongruent	Block1	incongruent/STIM_000.jpg	100
19.856	1.244	1244.2	incongruent	Block1	incongruent/STIM_001.jpg	99
23.984	0.798	798.3	incongruent	Block1	incongruent/STIM_001.jpg	100
28.49	0.984	984.3	incongruent	Block1	incongruent/STIM_001.jpg	100
32.343	0.541	541.2	incongruent	Block1	incongruent/STIM_001.jpg	99
35.286	0.605	604.7	incongruent	Block1	incongruent/STIM_001.jpg	100
38.769	1.259	1259.2	incongruent	Block1	incongruent/STIM_002.jpg	100
43.932	1.164	1163.6	incongruent	Block1	incongruent/STIM_002.jpg	100
47.391	1.09	1089.8	incongruent	Block1	incongruent/STIM_002.jpg	100
51.256	0.649	649.4	incongruent	Block1	incongruent/STIM_002.jpg	100
54.601	0.659	659.2	incongruent	Block1	incongruent/STIM_002.jpg	100
57.77	0.664	664.1	incongruent	Block1	incongruent/STIM_003.jpg	99
60.741	1.067	1067.3	incongruent	Block1	incongruent/STIM_003.jpg	99
65.747	0.871	871.0	incongruent	Block1	incongruent/STIM_003.jpg	99
70.053	1.128	1128.2	incongruent	Block1	incongruent/STIM_003.jpg	100
74.314	0.53	529.5	incongruent	Block1	incongruent/STIM_003.jpg	99
78.285	1.325	1325.3	incongruent	Block1	incongruent/STIM_004.jpg	99
83.027	0.942	941.6	incongruent	Block1	incongruent/STIM_004.jpg	100
87.819	0.738	737.7	incongruent	Block1	incongruent/STIM_004.jpg	99
92.493	0.889	889.2	incongruent	Block1	incongruent/STIM_004.jpg	100
97.099	0.527	527.0	incongruent	Block1	incongruent/STIM_004.jpg	100
100.926	1.203	1202.7	incongruent	Block1	incongruent/STIM_005.jpg	99
105.084	1.145	1144.9	incongruent	Block1	incongruent/STIM_005.jpg	99
109.51	1.125	1125.3	incongruent	Block1	incongruent/STIM_005.jpg	99
112.855	0.898	898.0	incongruent	Block1	incongruent/STIM_005.jpg	100
115.911	0.924	923.6	incongruent	Block1	incongruent/STIM_005.jpg	99
119.977	1.01	1009.9	incongruent	Block1	incongruent/STIM_006.jpg	100
124.085	1.139	1139.2	incongruent	Block1	incongruent/STIM_006.jpg	100
129.358	0.662	661.6	incongruent	Block1	incongruent/STIM_006.jpg	100
133.077	0.824	824.4	incongruent	Block1	incongruent/STIM_006.jpg	100
136.437	0.665	664.8	incongruent	Block1	incongruent/STIM_006.jpg	99
139.25	1.06	1059.7	incongruent	Block1	incongruent/STIM_007.jpg	99
142.467	0.695	695.0	incongruent	Block1	incongruent/STIM_007.jpg	100
147.203	0.622	622.5	incongruent	Block1	incongruent/STIM_007.jpg	100
151.232	0.983	983.4	incongruent	Block1	incongruent/STIM_007.jpg	100
154.712	0.722	722.5	incongruent	Block1	incongruent/STIM_007.jpg	99
159.477	1.124	1124.5	incongruent	Block1	incongruent/STIM_008.jpg	100
162.762	0.844	844.0	incongruent	Block1	incongruent/STIM_008.jpg	100
167.086	0.82	820.1	incongruent	Block1	incongruent/STIM_008.jpg	100
170.479	0.884	884.0	incongruent	Block1	incongruent/STIM_008.jpg	99
175.179	1.009	1008.9	incongruent	Block1	incongruent/STIM_008.jpg	100
179.317	1.065	1064.6	incongruent	Block1	incongruent/STIM_009.jpg	100
183.14	1.041	1040.7	incongruent	Block1	incongruent/STIM_009.jpg	100
187.311	1.015	1015.1	incongruent	Block1	incongruent/STIM_009.jpg	100
191.916	0.766	765.7	incongruent	Block1	incongruent/STIM_009.jpg	100
195.549	0.514	514.4	incongruent	Block1	incongruent/STIM_009.jpg	99
199.801	1.141	1141.0	incongruent	Block1	incongruent/STIM_010.jpg	100
204.539	1.127	1127.3	incongruent	Block1	incongruent/STIM_010.jpg	99
208.8	1.138	1137.5	incongruent	Block1	incongruent/STIM_010.jpg	99
213.848	0.669	668.9	incongruent	Block1	incongruent/STIM_010.jpg	100
217.578	0.683	683.2	incongruent	Block1	incongruent/STIM_010.jpg	100
221.727	1.268	1268.5	incongruent	Block1	incongruent/STIM_011.jpg	99
226.213	1.2	1200.5	incongruent	Block1	incongruent/STIM_011.jpg	100
229.941	0.96	959.5	incongruent	Block1	incongruent/STIM_011.jpg	99
234.856	0.582	582.4	incongruent	Block1	incongruent/STIM_011.jpg	99
238.743	0.698	697.8	incongruent	Block1	incongruent/STIM_011.jpg	100
243.407	1.009	1009.3	incongruent	Block1	incongruent/STIM_012.jpg	100
246.929	1.079	1079.2	incongruent	Block1	incongruent/STIM_012.jpg	100
251.614	1.033	1033.4	incongruent	Block1	incongruent/STIM_012.jpg	99
256.248	0.858	857.8	incongruent	Block1	incongruent/STIM_012.jpg	100
260.618	0.824	824.0	incongruent	Block1	incongruent/STIM_012.jpg	100
264.444	0.735	735.0	incongruent	Block1	incongruent/STIM_013.jpg	100
268.049	0.778	778.3	incongruent	Block1	incongruent/STIM_013.jpg	100
272.361	0.574	574.0	incongruent	Block1	incongruent/STIM_013.jpg	100
276.391	0.86	860.5	incongruent	Block1	incongruent/STIM_013.jpg	99
280.458	0.918	918.4	incongruent	Block1	incongruent/STIM_013.jpg	100
285.023	0.932	931.9	incongruent	Block1	incongruent/STIM_014.jpg	99
288.103	1.088	1087.5	incongruent	Block1	incongruent/STIM_014.jpg	100
291.725	0.587	587.1	incongruent	Block1	incongruent/STIM_014.jpg	99
296.205	0.932	931.9	incongruent	Block1	incongruent/STIM_014.jpg	99
299.579	0.648	647.6	incongruent	Block1	incongruent/STIM_014.jpg	100
303.558	0.808	807.6	incongruent	Block1	incongruent/STIM_015.jpg	100
307.732	0.724	724.1	incongruent	Block1	incongruent/STIM_015.jpg	99
311.513	0.89	890.4	incongruent	Block1	incongruent/STIM_015.jpg	100
315.6	1.051	1051.3	incongruent	Block1	incongruent/STIM_015.jpg	99
320.732	0.635	634.8	incongruent	Block1	incongruent/STIM_015.jpg	99
323.502	1.136	1135.9	incongruent	Block1	incongruent/STIM_016.jpg	100
328.231	0.797	797.1	incongruent	Block1	incongruent/STIM_016.jpg	100
332.341	0.567	567.2	incongruent	Block1	incongruent/STIM_016.jpg	99
335.617	0.556	555.6	incongruent	Block1	incongruent/STIM_016.jpg	100
340.04	0.5	500.5	incongruent	Block1	incongruent/STIM_016.jpg	99
342.993	0.904	904.2	incongruent	Block1	incongruent/STIM_017.jpg	99
347.051	0.953	952.7	incongruent	Block1	incongruent/STIM_017.jpg	99
351.686	1.145	1144.9	incongruent	Block1	incongruent/STIM_017.jpg	99
356.843	1.13	1129.6	incongruent	Block1	incongruent/STIM_017.jpg	100
361.967	0.629	629.1	incongruent	Block1	incongruent/STIM_017.jpg	100
365.344	0.708	707.8	incongruent	Block1	incongruent/STIM_018.jpg	99
369.142	0.8	800.1	incongruent	Block1	incongruent/STIM_018.jpg	100
373.63	0.986	986.4	incongruent	Block1	incongruent/STIM_018.jpg	100
378.379	0.984	984.2	incongruent	Block1	incongruent/STIM_018.jpg	100
382.735	0.769	768.9	incongruent	Block1	incongruent/STIM_018.jpg	99
385.642	0.797	797.4	incongruent	Block1	incongruent/STIM_019.jpg	100
388.859	0.92	920.0	incongruent	Block1	incongruent/STIM_019.jpg	99
392.439	0.636	635.5	incongruent	Block1	incongruent/STIM_019.jpg	99
396.758	0.555	555.2	incongruent	Block1	incongruent/STIM_019.jpg	99
400.75	0.559	559.2	incongruent	Block1	incongruent/STIM_019.jpg	99
404.624	0.981	981.2	incongruent	Block1	incongruent/STIM_020.jpg	100
408.012	0.708	707.9	incongruent	Block1	incongruent/STIM_020.jpg	99
411.199	0.754	753.6	incongruent	Block1	incongruent/STIM_020.jpg	100
415.745	1.126	1125.9	incongruent	Block1	incongruent/STIM_020.jpg	100
420.005	1.012	1011.7	incongruent	Block1	incongruent/STIM_020.jpg	99
424.002	0.697	697.3	incongruent	Block1	incongruent/STIM_021.jpg	100
427.912	0.712	712.5	incongruent	Block1	incongruent/STIM_021.jpg	99
431.194	0.712	712.3	incongruent	Block1	incongruent/STIM_021.jpg	99
434.657	1.055	1055.0	incongruent	Block1	incongruent/STIM_021.jpg	100
438.959	0.544	543.7	incongruent	Block1	incongruent/STIM_021.jpg	99
441.741	1.131	1131.3	incongruent	Block1	incongruent/STIM_022.jpg	99
446.49	0.858	857.8	incongruent	Block1	incongruent/STIM_022.jpg	100
450.493	0.616	615.7	incongruent	Block1	incongruent/STIM_022.jpg	100
453.207	0.703	702.9	incongruent	Block1	incongruent/STIM_022.jpg	99
456.698	0.786	785.5	incongruent	Block1	incongruent/STIM_022.jpg	100
460.597	0.819	818.8	incongruent	Block1	incongruent/STIM_023.jpg	100
463.779	0.757	757.0	incongruent	Block1	incongruent/STIM_023.jpg	100
466.839	0.816	816.5	incongruent	Block1	incongruent/STIM_023.jpg	99
471.459	0.911	911.4	incongruent	Block1	incongruent/STIM_023.jpg	100
476.442	0.886	885.5	incongruent	Block1	incongruent/STIM_023.jpg	100
481.037	0.743	743.0	incongruent	Block1	incongruent/STIM_024.jpg	99
485.362	0.633	633.3	incongruent	Block1	incongruent/STIM_024.jpg	99
489.362	0.666	666.5	incongruent	Block1	incongruent/STIM_024.jpg	99
492.926	0.788	788.4	incongruent	Block1	incongruent/STIM_024.jpg	99
495.998	0.69	689.5	incongruent	Block1	incongruent/STIM_024.jpg	99
498.881	1.32	1320.0	incongruent	Block1	incongruent/STIM_025.jpg	99
502.754	1.203	1203.1	incongruent	Block1	incongruent/STIM_025.jpg	99
506.471	1.007	1006.9	incongruent	Block1	incongruent/STIM_025.jpg	99
510.804	1.059	1058.7	incongruent	Block1	incongruent/STIM_025.jpg	99
515.547	0.96	959.8	incongruent	Block1	incongruent/STIM_025.jpg	99
519.084	1.234	1234.0	incongruent	Block1	incongruent/STIM_026.jpg	99
523.701	0.799	798.8	incongruent	Block1	incongruent/STIM_026.jpg	100
527.634	1.158	1157.8	incongruent	Block1	incongruent/STIM_026.jpg	99
532.3	0.686	686.3	incongruent	Block1	incongruent/STIM_026.jpg	99
536.486	0.691	690.9	incongruent	Block1	incongruent/STIM_026.jpg	100
540.837	1.326	1326.3	incongruent	Block1	incongruent/STIM_027.jpg	100
544.764	0.628	628.1	incongruent	Block1	incongruent/STIM_027.jpg	99
548.379	0.638	638.0	incongruent	Block1	incongruent/STIM_027.jpg	100
552.063	0.819	819.4	incongruent	Block1	incongruent/STIM_027.jpg	99
555.953	0.505	504.9	incongruent	Block1	incongruent/STIM_027.jpg	100
558.528	0.921	920.6	incongruent	Block1	incongruent/STIM_028.jpg	99
562.529	1.06	1059.5	incongruent	Block1	incongruent/STIM_028.jpg	99
567.009	0.716	716.0	incongruent	Block1	incongruent/STIM_028.jpg	99
570.904	0.822	821.9	incongruent	Block1	incongruent/STIM_028.jpg	100
575.033	0.802	801.6	incongruent	Block1	incongruent/STIM_028.jpg	100
578.823	1.283	1283.3	incongruent	Block1	incongruent/STIM_029.jpg	99
582.976	1.251	1250.7	incongruent	Block1	incongruent/STIM_029.jpg	100
587.635	1.022	1021.7	incongruent	Block1	incongruent/STIM_029.jpg	100
592.484	0.699	699.3	incongruent	Block1	incongruent/STIM_029.jpg	99
596.293	0.969	969.1	incongruent	Block1	incongruent/STIM_029.jpg	99
600.352	0.777	776.6	congruent	Block1	congruent/STIM_000.jpg	99
604.001	0.646	645.6	congruent	Block1	congruent/STIM_000.jpg	100
608.03	0.604	603.7	congruent	Block1	congruent/STIM_000.jpg	99
611.525	0.576	576.2	congruent	Block1	congruent/STIM_000.jpg	100
615.65	0.586	585.7	congruent	Block1	congruent/STIM_000.jpg	99
619.153	0.573	573.1	congruent	Block1	congruent/STIM_001.jpg	99
623.75	0.682	682.2	congruent	Block1	congruent/STIM_001.jpg	99
626.83	0.544	543.7	congruent	Block1	congruent/STIM_001.jpg	100
629.823	0.465	464.7	congruent	Block1	congruent/STIM_001.jpg	99
633.754	0.587	586.9	congruent	Block1	congruent/STIM_001.jpg	100
637.916	0.476	475.7	congruent	Block1	congruent/STIM_002.jpg	99
642.06	0.574	573.8	congruent	Block1	congruent/STIM_002.jpg	100
646.053	0.6	600.2	congruent	Block1	congruent/STIM_002.jpg	100
649.132	0.778	778.1	congruent	Block1	congruent/STIM_002.jpg	99
652.491	0.474	473.6	congruent	Block1	congruent/STIM_002.jpg	100
656.144	0.6	600.4	congruent	Block1	congruent/STIM_003.jpg	100
660.565	0.78	779.6	congruent	Block1	congruent/STIM_003.jpg	99
663.673	0.504	503.6	congruent	Block1	congruent/STIM_003.jpg	100
667.098	0.561	560.9	congruent	Block1	congruent/STIM_003.jpg	100
670.405	0.616	616.0	congruent	Block1	congruent/STIM_003.jpg	99
674.801	0.665	665.3	congruent	Block1	congruent/STIM_004.jpg	100
679.43	0.666	665.7	congruent	Block1	congruent/STIM_004.jpg	100
682.93	0.462	462.3	congruent	Block1	congruent/STIM_004.jpg	99
686.644	0.674	674.3	congruent	Block1	congruent/STIM_004.jpg	99
690.865	0.772	772.0	congruent	Block1	congruent/STIM_004.jpg	100
694.848	0.693	693.3	congruent	Block1	congruent/STIM_005.jpg	99
699.012	0.548	548.3	congruent	Block1	congruent/STIM_005.jpg	100
701.729	0.635	634.8	congruent	Block1	congruent/STIM_005.jpg	99
705.473	0.635	634.7	congruent	Block1	congruent/STIM_005.jpg	99
708.468	0.494	494.2	congruent	Block1	congruent/STIM_005.jpg	99
711.397	0.585	584.7	congruent	Block1	congruent/STIM_006.jpg	99
714.295	0.527	526.8	congruent	Block1	congruent/STIM_006.jpg	100
718.374	0.621	621.0	congruent	Block1	congruent/STIM_006.jpg	100
721.085	0.561	560.8	congruent	Block1	congruent/STIM_006.jpg	99
725.247	0.541	541.0	congruent	Block1	congruent/STIM_006.jpg	99
728.709	0.604	603.8	congruent	Block1	congruent/STIM_007.jpg	100
733.367	0.579	579.0	congruent	Block1	congruent/STIM_007.jpg	100
736.597	0.776	776.4	congruent	Block1	congruent/STIM_007.jpg	99
740.23	0.618	618.4	congruent	Block1	congruent/STIM_007.jpg	99
743.316	0.59	589.6	congruent	Block1	congruent/STIM_007.jpg	99
746.82	0.651	651.4	congruent	Block1	congruent/STIM_008.jpg	99
750.151	0.595	594.8	congruent	Block1	congruent/STIM_008.jpg	99
754.763	0.493	493.1	congruent	Block1	congruent/STIM_008.jpg	99
757.848	0.758	757.8	congruent	Block1	congruent/STIM_008.jpg	100
762.102	0.621	621.4	congruent	Block1	congruent/STIM_008.jpg	99
766.366	0.611	610.6	congruent	Block1	congruent/STIM_009.jpg	100
770.491	0.706	706.0	congruent	Block1	congruent/STIM_009.jpg	100
773.682	0.515	515.2	congruent	Block1	congruent/STIM_009.jpg	99
777.234	0.519	518.9	congruent	Block1	congruent/STIM_009.jpg	99
781.802	0.553	552.7	congruent	Block1	congruent/STIM_009.jpg	100
786.077	0.453	452.8	congruent	Block1	congruent/STIM_010.jpg	100
789.614	0.783	783.0	congruent	Block1	congruent/STIM_010.jpg	100
792.557	0.71	710.0	congruent	Block1	congruent/STIM_010.jpg	99
796.404	0.714	713.7	congruent	Block1	congruent/STIM_010.jpg	100
799.941	0.62	619.6	congruent	Block1	congruent/STIM_010.jpg	99
803.698	0.613	612.7	congruent	Block1	congruent/STIM_011.jpg	100
808.032	0.544	543.7	congruent	Block1	congruent/STIM_011.jpg	100
811.925	0.503	502.7	congruent	Block1	congruent/STIM_011.jpg	99
816.484	0.647	647.3	congruent	Block1	congruent/STIM_011.jpg	99
821.08	0.746	746.3	congruent	Block1	congruent/STIM_011.jpg	100
825.103	0.564	563.9	congruent	Block1	congruent/STIM_012.jpg	99
829.656	0.797	796.7	congruent	Block1	congruent/STIM_012.jpg	100
834.473	0.739	738.9	congruent	Block1	congruent/STIM_012.jpg	100
838.033	0.771	771.2	congruent	Block1	congruent/STIM_012.jpg	100
841.875	0.543	543.0	congruent	Block1	congruent/STIM_012.jpg	100
845.173	0.559	559.1	congruent	Block1	congruent/STIM_013.jpg	99
848.329	0.587	586.7	congruent	Block1	congruent/STIM_013.jpg	100
851.593	0.518	517.9	congruent	Block1	congruent/STIM_013.jpg	99
855.164	0.57	569.7	congruent	Block1	congruent/STIM_013.jpg	100
859.283	0.764	763.7	congruent	Block1	congruent/STIM_013.jpg	100
862.785	0.665	664.8	congruent	Block1	congruent/STIM_014.jpg	100
866.133	0.655	654.7	congruent	Block1	congruent/STIM_014.jpg	99
870.388	0.662	661.8	congruent	Block1	congruent/STIM_014.jpg	99
873.531	0.708	707.7	congruent	Block1	congruent/STIM_014.jpg	99
876.933	0.79	790.5	congruent	Block1	congruent/STIM_014.jpg	100
881.81	0.595	595.4	congruent	Block1	congruent/STIM_015.jpg	99
885.041	0.514	513.5	congruent	Block1	congruent/STIM_015.jpg	100
889.098	0.68	680.1	congruent	Block1	congruent/STIM_015.jpg	99
893.546	0.634	634.2	congruent	Block1	congruent/STIM_015.jpg	100
896.563	0.647	647.4	congruent	Block1	congruent/STIM_015.jpg	99
899.56	0.731	730.7	congruent	Block1	congruent/STIM_016.jpg	100
902.65	0.779	779.2	congruent	Block1	congruent/STIM_016.jpg	100
905.667	0.556	555.6	congruent	Block1	congruent/STIM_016.jpg	99
908.441	0.614	613.5	congruent	Block1	congruent/STIM_016.jpg	100
911.845	0.62	619.8	congruent	Block1	congruent/STIM_016.jpg	99
915.255	0.47	469.7	congruent	Block1	congruent/STIM_017.jpg	99
918.141	0.688	688.1	congruent	Block1	congruent/STIM_017.jpg	100
922.339	0.74	740.2	congruent	Block1	congruent/STIM_017.jpg	99
925.303	0.778	778.2	congruent	Block1	congruent/STIM_017.jpg	99
930.095	0.587	587.3	congruent	Block1	congruent/STIM_017.jpg	99
933.196	0.612	611.7	congruent	Block1	congruent/STIM_018.jpg	100
937.141	0.735	734.6	congruent	Block1	congruent/STIM_018.jpg	100
940.37	0.661	661.1	congruent	Block1	congruent/STIM_018.jpg	100
943.376	0.78	780.3	congruent	Block1	congruent/STIM_018.jpg	99
946.376	0.611	610.6	congruent	Block1	congruent/STIM_018.jpg	99
949.886	0.73	729.9	congruent	Block1	congruent/STIM_019.jpg	100
952.968	0.557	557.4	congruent	Block1	congruent/STIM_019.jpg	99
957.486	0.574	573.9	congruent	Block1	congruent/STIM_019.jpg	100
960.597	0.604	603.6	congruent	Block1	congruent/STIM_019.jpg	100
963.286	0.534	533.8	congruent	Block1	congruent/STIM_019.jpg	99
966.652	0.637	636.9	congruent	Block1	congruent/STIM_020.jpg	100
969.485	0.668	667.9	congruent	Block1	congruent/STIM_020.jpg	100
974.022	0.764	763.6	congruent	Block1	congruent/STIM_020.jpg	100
977.674	0.547	546.8	congruent	Block1	congruent/STIM_020.jpg	99
981.493	0.692	691.6	congruent	Block1	congruent/STIM_020.jpg	100
985.176	0.516	515.8	congruent	Block1	congruent/STIM_021.jpg	99
988.026	0.565	565.1	congruent	Block1	congruent/STIM_021.jpg	100
991.098	0.68	679.7	congruent	Block1	congruent/STIM_021.jpg	100
994.741	0.5	500.0	congruent	Block1	congruent/STIM_021.jpg	99
998.914	0.545	545.4	congruent	Block1	congruent/STIM_021.jpg	99
1003.238	0.725	724.9	congruent	Block1	congruent/STIM_022.jpg	100
1006.919	0.53	530.4	congruent	Block1	congruent/STIM_022.jpg	100
1011.145	0.539	539.2	congruent	Block1	congruent/STIM_022.jpg	100
1014.251	0.496	496.2	congruent	Block1	congruent/STIM_022.jpg	99
1017.147	0.602	602.5	congruent	Block1	congruent/STIM_022.jpg	100
1021.299	0.786	785.8	congruent	Block1	congruent/STIM_023.jpg	99
1025.793	0.546	546.1	congruent	Block1	congruent/STIM_023.jpg	99
1029.154	0.633	632.9	congruent	Block1	congruent/STIM_023.jpg	100
1032.057	0.715	714.6	congruent	Block1	congruent/STIM_023.jpg	100
1034.972	0.545	544.8	congruent	Block1	congruent/STIM_023.jpg	100
1038.325	0.498	497.6	congruent	Block1	congruent/STIM_024.jpg	99
1042.351	0.49	489.7	congruent	Block1	congruent/STIM_024.jpg	100
1045.163	0.695	694.7	congruent	Block1	congruent/STIM_024.jpg	100
1049.908	0.612	612.0	congruent	Block1	congruent/STIM_024.jpg	100
1054.08	0.545	545.3	congruent	Block1	congruent/STIM_024.jpg	99
1057.217	0.541	540.6	congruent	Block1	congruent/STIM_025.jpg	100
1061.651	0.562	562.2	congruent	Block1	congruent/STIM_025.jpg	99
1064.422	0.518	518.4	congruent	Block1	congruent/STIM_025.jpg	99
1068.261	0.641	640.6	congruent	Block1	congruent/STIM_025.jpg	99
1072.196	0.523	523.2	congruent	Block1	congruent/STIM_025.jpg	100
1075.9	0.609	608.7	congruent	Block1	congruent/STIM_026.jpg	99
1079.105	0.687	686.6	congruent	Block1	congruent/STIM_026.jpg	100
1083.831	0.675	674.9	congruent	Block1	congruent/STIM_026.jpg	99
1087.737	0.464	464.5	congruent	Block1	congruent/STIM_026.jpg	100
1090.597	0.45	450.4	congruent	Block1	congruent/STIM_026.jpg	100
1093.772	0.606	605.6	congruent	Block1	congruent/STIM_027.jpg	100
1098.038	0.616	615.5	congruent	Block1	congruent/STIM_027.jpg	100
1101.161	0.762	762.1	congruent	Block1	congruent/STIM_027.jpg	99
1104.388	0.56	559.7	congruent	Block1	congruent/STIM_027.jpg	100
1107.386	0.75	750.3	congruent	Block1	congruent/STIM_027.jpg	100
1110.819	0.544	544.4	congruent	Block1	congruent/STIM_028.jpg	100
1114.188	0.652	651.5	congruent	Block1	congruent/STIM_028.jpg	100
1118.897	0.53	530.5	congruent	Block1	congruent/STIM_028.jpg	99
1123.156	0.792	792.1	congruent	Block1	congruent/STIM_028.jpg	99
1127.764	0.694	693.5	congruent	Block1	congruent/STIM_028.jpg	99
1132.018	0.516	516.0	congruent	Block1	congruent/STIM_029.jpg	99
1135.291	0.703	702.6	congruent	Block1	congruent/STIM_029.jpg	100
1139.933	0.61	609.8	congruent	Block1	congruent/STIM_029.jpg	100
1143.388	0.673	672.9	congruent	Block1	congruent/STIM_029.jpg	99
1146.799	0.497	496.6	congruent	Block1	congruent/STIM_029.jpg	100
1150.599	1.042	1041.7	incongruent	Block2	incongruent/STIM_000.jpg	100
1154.276	0.502	502.5	incongruent	Block2	incongruent/STIM_000.jpg	99
1158.407	0.868	868.5	incongruent	Block2	incongruent/STIM_000.jpg	99
1162.705	0.716	716.0	incongruent	Block2	incongruent/STIM_000.jpg	99
1166.877	0.547	547.1	incongruent	Block2	incongruent/STIM_000.jpg	99
1171.141	0.946	945.8	incongruent	Block2	incongruent/STIM_001.jpg	99
1174.377	0.679	678.7	incongruent	Block2	incongruent/STIM_001.jpg	99
1177.672	0.926	925.8	incongruent	Block2	incongruent/STIM_001.jpg	100
1182.268	0.506	506.2	incongruent	Block2	incongruent/STIM_001.jpg	99
1185.389	0.455	455.4	incongruent	Block2	incongruent/STIM_001.jpg	99
1189.458	0.555	554.8	incongruent	Block2	incongruent/STIM_002.jpg	99
1192.381	0.582	582.4	incongruent	Block2	incongruent/STIM_002.jpg	99
1196.317	0.572	572.3	incongruent	Block2	incongruent/STIM_002.jpg	100
1199.7	0.896	896.5	incongruent	Block2	incongruent/STIM_002.jpg	99
1204.333	0.674	673.7	incongruent	Block2	incongruent/STIM_002.jpg	100
1208.218	0.797	796.7	incongruent	Block2	incongruent/STIM_003.jpg	100
1211.571	1.025	1025.1	incongruent	Block2	incongruent/STIM_003.jpg	99
1215.214	0.657	657.1	incongruent	Block2	incongruent/STIM_003.jpg	99
1218.293	0.63	629.5	incongruent	Block2	incongruent/STIM_003.jpg	99
1221.723	0.629	629.1	incongruent	Block2	incongruent/STIM_003.jpg	99
1225.898	1.026	1025.5	incongruent	Block2	incongruent/STIM_004.jpg	100
1229.147	0.842	841.9	incongruent	Block2	incongruent/STIM_004.jpg	100
1233.358	0.762	762.2	incongruent	Block2	incongruent/STIM_004.jpg	99
1237.476	0.744	744.2	incongruent	Block2	incongruent/STIM_004.jpg	99
1240.77	0.54	540.1	incongruent	Block2	incongruent/STIM_004.jpg	99
1244.413	0.662	662.2	incongruent	Block2	incongruent/STIM_005.jpg	99
1248.339	0.533	533.2	incongruent	Block2	incongruent/STIM_005.jpg	99
1252.798	0.74	740.0	incongruent	Block2	incongruent/STIM_005.jpg	99
1257.2	0.572	572.2	incongruent	Block2	incongruent/STIM_005.jpg	99
1260.349	0.824	823.7	incongruent	Block2	incongruent/STIM_005.jpg	99
1263.319	0.734	734.3	incongruent	Block2	incongruent/STIM_006.jpg	100
1266.774	0.682	682.4	incongruent	Block2	incongruent/STIM_006.jpg	100
1270.144	0.825	825.2	incongruent	Block2	incongruent/STIM_006.jpg	99
1273.479	0.665	665.2	incongruent	Block2	incongruent/STIM_006.jpg	100
1276.985	0.835	835.1	incongruent	Block2	incongruent/STIM_006.jpg	100
1280.225	1.033	1032.8	incongruent	Block2	incongruent/STIM_007.jpg	100
1283.521	0.836	836.1	incongruent	Block2	incongruent/STIM_007.jpg	99
1287.845	0.712	712.0	incongruent	Block2	incongruent/STIM_007.jpg	99
1291.027	0.832	832.2	incongruent	Block2	incongruent/STIM_007.jpg	100
1295.6	0.805	805.3	incongruent	Block2	incongruent/STIM_007.jpg	99
1299.881	0.985	984.9	incongruent	Block2	incongruent/STIM_008.jpg	100
1303.019	0.88	879.5	incongruent	Block2	incongruent/STIM_008.jpg	100
1307.464	0.646	645.5	incongruent	Block2	incongruent/STIM_008.jpg	99
1311.372	0.581	581.0	incongruent	Block2	incongruent/STIM_008.jpg	100
1314.268	0.557	556.8	incongruent	Block2	incongruent/STIM_008.jpg	99
1318.23	1.108	1107.9	incongruent	Block2	incongruent/STIM_009.jpg	99
1323.017	0.81	810.0	incongruent	Block2	incongruent/STIM_009.jpg	99
1326.984	0.534	534.3	incongruent	Block2	incongruent/STIM_009.jpg	99
1331.058	0.562	562.4	incongruent	Block2	incongruent/STIM_009.jpg	99
1333.977	0.722	721.5	incongruent	Block2	incongruent/STIM_009.jpg	99
1337.92	0.744	744.0	incongruent	Block2	incongruent/STIM_010.jpg	99
1342.715	0.697	697.4	incongruent	Block2	incongruent/STIM_010.jpg	99
1347.001	0.745	745.0	incongruent	Block2	incongruent/STIM_010.jpg	100
1350.179	0.68	679.6	incongruent	Block2	incongruent/STIM_010.jpg	99
1354.395	0.554	553.7	incongruent	Block2	incongruent/STIM_010.jpg	100
1358.082	0.928	928.4	incongruent	Block2	incongruent/STIM_011.jpg	100
1363.107	0.751	751.0	incongruent	Block2	incongruent/STIM_011.jpg	99
1367.263	0.583	583.4	incongruent	Block2	incongruent/STIM_011.jpg	99
1371.402	0.701	701.2	incongruent	Block2	incongruent/STIM_011.jpg	99
1374.65	0.805	805.1	incongruent	Block2	incongruent/STIM_011.jpg	100
1377.798	0.763	763.2	incongruent	Block2	incongruent/STIM_012.jpg	99
1381.628	0.656	655.6	incongruent	Block2	incongruent/STIM_012.jpg	99
1384.388	0.638	638.0	incongruent	Block2	incongruent/STIM_012.jpg	100
1387.28	0.457	456.6	incongruent	Block2	incongruent/STIM_012.jpg	99
1390.074	0.918	918.5	incongruent	Block2	incongruent/STIM_012.jpg	99
1394.023	0.925	925.1	incongruent	Block2	incongruent/STIM_013.jpg	99
1398.953	0.509	509.3	incongruent	Block2	incongruent/STIM_013.jpg	99
1402.27	0.799	799.2	incongruent	Block2	incongruent/STIM_013.jpg	100
1406.616	0.747	747.3	incongruent	Block2	incongruent/STIM_013.jpg	100
1409.796	0.887	886.6	incongruent	Block2	incongruent/STIM_013.jpg	100
1412.846	0.628	627.9	incongruent	Block2	incongruent/STIM_014.jpg	100
1416.625	0.648	647.5	incongruent	Block2	incongruent/STIM_014.jpg	100
1419.854	0.63	629.9	incongruent	Block2	incongruent/STIM_014.jpg	99
1423.837	0.538	538.2	incongruent	Block2	incongruent/STIM_014.jpg	99
1427.921	0.53	529.5	incongruent	Block2	incongruent/STIM_014.jpg	100
1432.29	1.1	1099.5	incongruent	Block2	incongruent/STIM_015.jpg	99
1436.087	0.622	622.2	incongruent	Block2	incongruent/STIM_015.jpg	100
1439.639	0.539	539.1	incongruent	Block2	incongruent/STIM_015.jpg	100
1442.783	0.657	657.4	incongruent	Block2	incongruent/STIM_015.jpg	100
1446.722	0.926	926.5	incongruent	Block2	incongruent/STIM_015.jpg	100
1451.339	0.586	586.2	incongruent	Block2	incongruent/STIM_016.jpg	100
1454.35	0.846	846.5	incongruent	Block2	incongruent/STIM_016.jpg	99
1458.387	0.861	860.6	incongruent	Block2	incongruent/STIM_016.jpg	100
1461.731	0.464	463.7	incongruent	Block2	incongruent/STIM_016.jpg	99
1465.135	0.621	621.0	incongruent	Block2	incongruent/STIM_016.jpg	100
1468.025	1.028	1027.7	incongruent	Block2	incongruent/STIM_017.jpg	99
1471.498	1.029	1029.2	incongruent	Block2	incongruent/STIM_017.jpg	100
1475.983	0.823	823.4	incongruent	Block2	incongruent/STIM_017.jpg	100
1480.488	0.804	804.2	incongruent	Block2	incongruent/STIM_017.jpg	99
1484.921	0.669	668.7	incongruent	Block2	incongruent/STIM_017.jpg	99
1488.861	0.643	643.3	incongruent	Block2	incongruent/STIM_018.jpg	100
1491.649	1.019	1018.8	incongruent	Block2	incongruent/STIM_018.jpg	99
1495.298	0.846	845.6	incongruent	Block2	incongruent/STIM_018.jpg	100
1498.745	0.52	519.8	incongruent	Block2	incongruent/STIM_018.jpg	100
1501.452	0.668	667.7	incongruent	Block2	incongruent/STIM_018.jpg	100
1505.646	0.912	911.7	incongruent	Block2	incongruent/STIM_019.jpg	99
1508.804	0.827	827.3	incongruent	Block2	incongruent/STIM_019.jpg	100
1513.023	0.811	811.2	incongruent	Block2	incongruent/STIM_019.jpg	99
1516.475	0.699	698.6	incongruent	Block2	incongruent/STIM_019.jpg	100
1520.153	0.49	489.6	incongruent	Block2	incongruent/STIM_019.jpg	100
1523.384	0.55	550.2	incongruent	Block2	incongruent/STIM_020.jpg	100
1526.841	1.044	1044.2	incongruent	Block2	incongruent/STIM_020.jpg	99
1531.213	0.768	768.2	incongruent	Block2	incongruent/STIM_020.jpg	100
1535.948	0.637	637.1	incongruent	Block2	incongruent/STIM_020.jpg	100
1539.832	0.651	651.0	incongruent	Block2	incongruent/STIM_020.jpg	100
1542.976	0.548	547.7	incongruent	Block2	incongruent/STIM_021.jpg	100
1546.571	0.502	501.9	incongruent	Block2	incongruent/STIM_021.jpg	100
1550.528	0.915	915.2	incongruent	Block2	incongruent/STIM_021.jpg	99
1554.148	0.598	598.2	incongruent	Block2	incongruent/STIM_021.jpg	100
1557.866	0.563	563.4	incongruent	Block2	incongruent/STIM_021.jpg	100
1561.924	0.904	903.9	incongruent	Block2	incongruent/STIM_022.jpg	100
1565.808	0.87	870.2	incongruent	Block2	incongruent/STIM_022.jpg	100
1569.16	0.922	921.7	incongruent	Block2	incongruent/STIM_022.jpg	100
1573.463	0.466	465.8	incongruent	Block2	incongruent/STIM_022.jpg	100
1577.385	0.908	907.5	incongruent	Block2	incongruent/STIM_022.jpg	99
1581.898	0.794	793.8	incongruent	Block2	incongruent/STIM_023.jpg	100
1585.732	0.629	629.2	incongruent	Block2	incongruent/STIM_023.jpg	99
1590.006	0.608	608.5	incongruent	Block2	incongruent/STIM_023.jpg	100
1592.902	0.876	876.2	incongruent	Block2	incongruent/STIM_023.jpg	99
1597.34	0.806	805.7	incongruent	Block2	incongruent/STIM_023.jpg	99
1600.295	0.642	642.1	incongruent	Block2	incongruent/STIM_024.jpg	99
1603.773	0.53	530.1	incongruent	Block2	incongruent/STIM_024.jpg	99
1608.248	0.841	841.0	incongruent	Block2	incongruent/STIM_024.jpg	99
1612.166	0.463	463.0	incongruent	Block2	incongruent/STIM_024.jpg	100
1615.53	0.788	788.1	incongruent	Block2	incongruent/STIM_024.jpg	99
1619.753	0.886	886.4	incongruent	Block2	incongruent/STIM_025.jpg	100
1623.049	0.672	671.7	incongruent	Block2	incongruent/STIM_025.jpg	100
1626.771	0.468	468.5	incongruent	Block2	incongruent/STIM_025.jpg	99
1630.248	0.732	732.4	incongruent	Block2	incongruent/STIM_025.jpg	100
1633.973	0.454	454.4	incongruent	Block2	incongruent/STIM_025.jpg	99
1638.029	0.57	569.9	incongruent	Block2	incongruent/STIM_026.jpg	99
1642.454	0.952	951.6	incongruent	Block2	incongruent/STIM_026.jpg	99
1645.586	0.904	904.2	incongruent	Block2	incongruent/STIM_026.jpg	100
1649.659	0.522	522.2	incongruent	Block2	incongruent/STIM_026.jpg	100
1652.311	0.875	875.4	incongruent	Block2	incongruent/STIM_026.jpg	99
1655.724	1.131	1130.6	incongruent	Block2	incongruent/STIM_027.jpg	100
1659.379	0.972	972.4	incongruent	Block2	incongruent/STIM_027.jpg	100
1663.292	0.515	515.2	incongruent	Block2	incongruent/STIM_027.jpg	99
1667.566	0.543	543.2	incongruent	Block2	incongruent/STIM_027.jpg	100
1671.265	0.502	502.1	incongruent	Block2	incongruent/STIM_027.jpg	99
1674.522	0.654	653.6	incongruent	Block2	incongruent/STIM_028.jpg	99
1679.103	0.824	824.1	incongruent	Block2	incongruent/STIM_028.jpg	99
1683.93	0.879	879.2	incongruent	Block2	incongruent/STIM_028.jpg	100
1686.95	0.74	739.8	incongruent	Block2	incongruent/STIM_028.jpg	100
1691.029	0.621	621.4	incongruent	Block2	incongruent/STIM_028.jpg	100
1695.449	0.565	565.3	incongruent	Block2	incongruent/STIM_029.jpg	100
1698.986	0.788	788.3	incongruent	Block2	incongruent/STIM_029.jpg	99
1703.344	0.562	561.6	incongruent	Block2	incongruent/STIM_029.jpg	99
1706.058	0.902	902.0	incongruent	Block2	incongruent/STIM_029.jpg	99
1709.781	0.49	489.9	incongruent	Block2	incongruent/STIM_029.jpg	100
1712.382	0.559	558.9	congruent	Block2	congruent/STIM_000.jpg	100
1715.826	0.494	493.5	congruent	Block2	congruent/STIM_000.jpg	99
1719.501	0.595	594.9	congruent	Block2	congruent/STIM_000.jpg	100
1723.546	0.457	457.1	congruent	Block2	congruent/STIM_000.jpg	100
1727.128	0.677	676.9	congruent	Block2	congruent/STIM_000.jpg	99
1731.181	0.551	551.1	congruent	Block2	congruent/STIM_001.jpg	99
1734.068	0.704	703.8	congruent	Block2	congruent/STIM_001.jpg	100
1738.352	0.768	768.2	congruent	Block2	congruent/STIM_001.jpg	100
1743.031	0.594	593.7	congruent	Block2	congruent/STIM_001.jpg	100
1747.327	0.526	525.7	congruent	Block2	congruent/STIM_001.jpg	100
1750.358	0.519	519.0	congruent	Block2	congruent/STIM_002.jpg	99
1753.686	0.496	496.1	congruent	Block2	congruent/STIM_002.jpg	100
1758.027	0.495	495.1	congruent	Block2	congruent/STIM_002.jpg	100
1761.446	0.56	559.7	congruent	Block2	congruent/STIM_002.jpg	99
1764.795	0.726	725.7	congruent	Block2	congruent/STIM_002.jpg	99
1769.406	0.461	461.2	congruent	Block2	congruent/STIM_003.jpg	100
1773.563	0.782	782.4	congruent	Block2	congruent/STIM_003.jpg	100
1778.081	0.571	571.3	congruent	Block2	congruent/STIM_003.jpg	99
1781.85	0.731	731.3	congruent	Block2	congruent/STIM_003.jpg	99
1785.912	0.615	615.0	congruent	Block2	congruent/STIM_003.jpg	100
1788.831	0.446	446.4	congruent	Block2	congruent/STIM_004.jpg	99
1791.828	0.66	659.5	congruent	Block2	congruent/STIM_004.jpg	99
1794.616	0.602	602.1	congruent	Block2	congruent/STIM_004.jpg	99
1797.753	0.478	478.1	congruent	Block2	congruent/STIM_004.jpg	100
1801.51	0.455	454.6	congruent	Block2	congruent/STIM_004.jpg	99
1805.992	0.636	635.7	congruent	Block2	congruent/STIM_005.jpg	99
1810.042	0.624	624.1	congruent	Block2	congruent/STIM_005.jpg	100
1813.333	0.531	530.6	congruent	Block2	congruent/STIM_005.jpg	99
1816.592	0.664	664.0	congruent	Block2	congruent/STIM_005.jpg	99
1820.939	0.789	789.2	congruent	Block2	congruent/STIM_005.jpg	99
1824.297	0.447	446.7	congruent	Block2	congruent/STIM_006.jpg	100
1827.21	0.69	690.3	congruent	Block2	congruent/STIM_006.jpg	99
1831.483	0.696	695.8	congruent	Block2	congruent/STIM_006.jpg	100
1835.036	0.529	529.3	congruent	Block2	congruent/STIM_006.jpg	100
1839.156	0.739	739.0	congruent	Block2	congruent/STIM_006.jpg	99
1842.948	0.48	479.6	congruent	Block2	congruent/STIM_007.jpg	100
1846.543	0.658	658.2	congruent	Block2	congruent/STIM_007.jpg	99
1849.928	0.484	484.4	congruent	Block2	congruent/STIM_007.jpg	99
1853.582	0.735	734.6	congruent	Block2	congruent/STIM_007.jpg	99
1856.473	0.753	752.9	congruent	Block2	congruent/STIM_007.jpg	100
1860.409	0.509	509.2	congruent	Block2	congruent/STIM_008.jpg	100
1863.074	0.493	492.7	congruent	Block2	congruent/STIM_008.jpg	100
1866.282	0.796	796.2	congruent	Block2	congruent/STIM_008.jpg	100
1870.421	0.569	569.0	congruent	Block2	congruent/STIM_008.jpg	99
1873.075	0.47	470.1	congruent	Block2	congruent/STIM_008.jpg	99
1877.514	0.534	533.5	congruent	Block2	congruent/STIM_009.jpg	100
1881.133	0.6	599.6	congruent	Block2	congruent/STIM_009.jpg	100
1885.184	0.511	510.7	congruent	Block2	congruent/STIM_009.jpg	100
1889.609	0.663	662.9	congruent	Block2	congruent/STIM_009.jpg	100
1894.334	0.7	700.3	congruent	Block2	congruent/STIM_009.jpg	99
1897.909	0.498	498.2	congruent	Block2	congruent/STIM_010.jpg	99
1901.578	0.485	484.7	congruent	Block2	congruent/STIM_010.jpg	99
1904.245	0.507	507.3	congruent	Block2	congruent/STIM_010.jpg	99
1907.842	0.541	541.4	congruent	Block2	congruent/STIM_010.jpg	100
1912.301	0.505	504.7	congruent	Block2	congruent/STIM_010.jpg	100
1915.152	0.477	476.7	congruent	Block2	congruent/STIM_011.jpg	99
1919.096	0.586	586.0	congruent	Block2	congruent/STIM_011.jpg	99
1923.616	0.537	536.7	congruent	Block2	congruent/STIM_011.jpg	99
1927.328	0.775	774.6	congruent	Block2	congruent/STIM_011.jpg	100
1932.189	0.717	717.0	congruent	Block2	congruent/STIM_011.jpg	99
1935.321	0.453	452.6	congruent	Block2	congruent/STIM_012.jpg	100
1939.046	0.688	687.6	congruent	Block2	congruent/STIM_012.jpg	100
1942.635	0.617	617.4	congruent	Block2	congruent/STIM_012.jpg	99
1945.637	0.646	645.7	congruent	Block2	congruent/STIM_012.jpg	99
1950.116	0.587	587.4	congruent	Block2	congruent/STIM_012.jpg	100
1953.527	0.732	731.6	congruent	Block2	congruent/STIM_013.jpg	100
1958.17	0.762	761.8	congruent	Block2	congruent/STIM_013.jpg	99
1962.613	0.541	540.6	congruent	Block2	congruent/STIM_013.jpg	100
1965.595	0.518	518.0	congruent	Block2	congruent/STIM_013.jpg	99
1968.7	0.487	487.2	congruent	Block2	congruent/STIM_013.jpg	100
1971.34	0.493	493.2	congruent	Block2	congruent/STIM_014.jpg	99
1974.617	0.795	794.8	congruent	Block2	congruent/STIM_014.jpg	100
1977.789	0.563	563.4	congruent	Block2	congruent/STIM_014.jpg	99
1982.393	0.481	481.2	congruent	Block2	congruent/STIM_014.jpg	99
1986.152	0.74	739.7	congruent	Block2	congruent/STIM_014.jpg	99
1989.37	0.481	480.9	congruent	Block2	congruent/STIM_015.jpg	99
1992.471	0.512	512.3	congruent	Block2	congruent/STIM_015.jpg	99
1996.096	0.674	674.0	congruent	Block2	congruent/STIM_015.jpg	99
1998.917	0.725	725.3	congruent	Block2	congruent/STIM_015.jpg	100
2003.095	0.52	520.1	congruent	Block2	congruent/STIM_015.jpg	99
2007.31	0.492	492.3	congruent	Block2	congruent/STIM_016.jpg	100
2011.345	0.734	734.4	congruent	Block2	congruent/STIM_016.jpg	99
2014.775	0.548	548.5	congruent	Block2	congruent/STIM_016.jpg	99
2017.742	0.482	482.0	congruent	Block2	congruent/STIM_016.jpg	100
2021.424	0.606	606.4	congruent	Block2	congruent/STIM_016.jpg	99
2024.171	0.486	485.7	congruent	Block2	congruent/STIM_017.jpg	99
2027.727	0.599	598.9	congruent	Block2	congruent/STIM_017.jpg	100
2032.294	0.677	676.9	congruent	Block2	congruent/STIM_017.jpg	99
2036.112	0.591	590.8	congruent	Block2	congruent/STIM_017.jpg	99
2040.774	0.772	771.8	congruent	Block2	congruent/STIM_017.jpg	100
2043.737	0.688	688.2	congruent	Block2	congruent/STIM_018.jpg	99
2047.426	0.63	629.6	congruent	Block2	congruent/STIM_018.jpg	99
2051.533	0.796	796.2	congruent	Block2	congruent/STIM_018.jpg	99
2054.93	0.551	551.2	congruent	Block2	congruent/STIM_018.jpg	99
2059.308	0.619	619.1	congruent	Block2	congruent/STIM_018.jpg	99
2063.738	0.5	499.8	congruent	Block2	congruent/STIM_019.jpg	100
2067.026	0.784	784.1	congruent	Block2	congruent/STIM_019.jpg	100
2071.371	0.554	553.7	congruent	Block2	congruent/STIM_019.jpg	99
2075.46	0.505	504.9	congruent	Block2	congruent/STIM_019.jpg	100
2078.448	0.495	494.6	congruent	Block2	congruent/STIM_019.jpg	99
2082.289	0.558	557.8	congruent	Block2	congruent/STIM_020.jpg	100
2085.628	0.783	783.3	congruent	Block2	congruent/STIM_020.jpg	100
2089.693	0.55	550.1	congruent	Block2	congruent/STIM_020.jpg	100
2094.046	0.57	570.2	congruent	Block2	congruent/STIM_020.jpg	99
2098.128	0.76	760.4	congruent	Block2	congruent/STIM_020.jpg	100
2102.417	0.543	543.3	congruent	Block2	congruent/STIM_021.jpg	99
2106.644	0.494	493.9	congruent	Block2	congruent/STIM_021.jpg	100
2110.491	0.786	786.3	congruent	Block2	congruent/STIM_021.jpg	99
2114.686	0.545	545.0	congruent	Block2	congruent/STIM_021.jpg	100
2119.083	0.471	471.4	congruent	Block2	congruent/STIM_021.jpg	99
2123.188	0.486	486.1	congruent	Block2	congruent/STIM_022.jpg	100
2126.219	0.688	688.5	congruent	Block2	congruent/STIM_022.jpg	99
2129.868	0.633	632.6	congruent	Block2	congruent/STIM_022.jpg	99
2134.316	0.553	552.7	congruent	Block2	congruent/STIM_022.jpg	100
2137.383	0.589	588.6	congruent	Block2	congruent/STIM_022.jpg	100
2141.976	0.715	714.6	congruent	Block2	congruent/STIM_023.jpg	99
2145.851	0.748	747.5	congruent	Block2	congruent/STIM_023.jpg	99
2149.199	0.549	549.3	congruent	Block2	congruent/STIM_023.jpg	100
2153.527	0.506	505.8	congruent	Block2	congruent/STIM_023.jpg	99
2156.522	0.509	508.9	congruent	Block2	congruent/STIM_023.jpg	100
2159.488	0.69	690.0	congruent	Block2	congruent/STIM_024.jpg	100
2163.861	0.486	486.3	congruent	Block2	congruent/STIM_024.jpg	100
2166.966	0.682	682.5	congruent	Block2	congruent/STIM_024.jpg	100
2171.318	0.562	562.4	congruent	Block2	congruent/STIM_024.jpg	100
2174.562	0.707	706.9	congruent	Block2	congruent/STIM_024.jpg	100
2177.887	0.462	462.3	congruent	Block2	congruent/STIM_025.jpg	99
2181.572	0.6	599.6	congruent	Block2	congruent/STIM_025.jpg	99
2185.742	0.46	459.8	congruent	Block2	congruent/STIM_025.jpg	100
2190.092	0.53	530.3	congruent	Block2	congruent/STIM_025.jpg	100
2193.204	0.753	752.6	congruent	Block2	congruent/STIM_025.jpg	100
2196.597	0.725	725.0	congruent	Block2	congruent/STIM_026.jpg	99
2200.356	0.614	614.3	congruent	Block2	congruent/STIM_026.jpg	100
2203.928	0.736	736.0	congruent	Block2	congruent/STIM_026.jpg	99
2207.02	0.593	593.4	congruent	Block2	congruent/STIM_026.jpg	100
2209.903	0.578	577.9	congruent	Block2	congruent/STIM_026.jpg	99
2212.814	0.656	656.2	congruent	Block2	congruent/STIM_027.jpg	99
2216.621	0.657	657.2	congruent	Block2	congruent/STIM_027.jpg	99
2221.02	0.604	604.5	congruent	Block2	congruent/STIM_027.jpg	100
2223.925	0.492	491.9	congruent	Block2	congruent/STIM_027.jpg	99
2227.787	0.59	589.7	congruent	Block2	congruent/STIM_027.jpg	99
2230.911	0.613	613.4	congruent	Block2	congruent/STIM_028.jpg	100
2235.349	0.479	479.0	congruent	Block2	congruent/STIM_028.jpg	100
2239.237	0.657	657.4	congruent	Block2	congruent/STIM_028.jpg	99
2243.117	0.553	553.1	congruent	Block2	congruent/STIM_028.jpg	100
2246.168	0.475	475.1	congruent	Block2	congruent/STIM_028.jpg	100
2250.167	0.774	774.1	congruent	Block2	congruent/STIM_029.jpg	100
2254.596	0.776	775.7	congruent	Block2	congruent/STIM_029.jpg	100
2258.726	0.747	747.1	congruent	Block2	congruent/STIM_029.jpg	99
2262.888	0.547	546.8	congruent	Block2	congruent/STIM_029.jpg	100
2267.483	0.679	678.8	congruent	Block2	congruent/STIM_029.jpg	99
2271.175	0.884	883.6	incongruent	Block3	incongruent/STIM_000.jpg	99
2275.569	0.817	817.0	incongruent	Block3	incongruent/STIM_000.jpg	99
2279.102	0.837	837.4	incongruent	Block3	incongruent/STIM_000.jpg	100
2283.736	0.879	878.8	incongruent	Block3	incongruent/STIM_000.jpg	99
2287.485	0.435	435.2	incongruent	Block3	incongruent/STIM_000.jpg	99
2290.87	0.498	498.3	incongruent	Block3	incongruent/STIM_001.jpg	99
2294.475	0.672	671.6	incongruent	Block3	incongruent/STIM_001.jpg	100
2297.578	0.912	912.1	incongruent	Block3	incongruent/STIM_001.jpg	100
2302.251	0.753	753.4	incongruent	Block3	incongruent/STIM_001.jpg	99
2306.274	0.795	795.3	incongruent	Block3	incongruent/STIM_001.jpg	100
2310.638	0.807	806.7	incongruent	Block3	incongruent/STIM_002.jpg	100
2315.263	0.588	587.7	incongruent	Block3	incongruent/STIM_002.jpg	100
2318.802	0.486	486.4	incongruent	Block3	incongruent/STIM_002.jpg	100
2322.845	0.577	577.4	incongruent	Block3	incongruent/STIM_002.jpg	99
2326.872	0.76	759.9	incongruent	Block3	incongruent/STIM_002.jpg	100
2330.091	0.562	561.5	incongruent	Block3	incongruent/STIM_003.jpg	99
2333.653	0.507	506.6	incongruent	Block3	incongruent/STIM_003.jpg	99
2337.039	0.578	577.8	incongruent	Block3	incongruent/STIM_003.jpg	100
2341.383	0.584	583.5	incongruent	Block3	incongruent/STIM_003.jpg	100
2344.883	0.913	912.8	incongruent	Block3	incongruent/STIM_003.jpg	100
2349.004	0.54	540.2	incongruent	Block3	incongruent/STIM_004.jpg	100
2351.652	0.528	528.3	incongruent	Block3	incongruent/STIM_004.jpg	100
2356.194	0.48	480.3	incongruent	Block3	incongruent/STIM_004.jpg	100
2359.125	0.647	646.9	incongruent	Block3	incongruent/STIM_004.jpg	100
2362.677	0.529	528.7	incongruent	Block3	incongruent/STIM_004.jpg	100
2366.929	0.915	914.9	incongruent	Block3	incongruent/STIM_005.jpg	100
2369.966	0.557	556.8	incongruent	Block3	incongruent/STIM_005.jpg	100
2374.446	0.812	812.0	incongruent	Block3	incongruent/STIM_005.jpg	100
2378.185	0.913	913.2	incongruent	Block3	incongruent/STIM_005.jpg	100
2381.643	0.752	751.8	incongruent	Block3	incongruent/STIM_005.jpg	99
2385.36	0.519	518.6	incongruent	Block3	incongruent/STIM_006.jpg	99
2389.051	0.575	575.1	incongruent	Block3	incongruent/STIM_006.jpg	99
2393.599	0.929	928.7	incongruent	Block3	incongruent/STIM_006.jpg	100
2397.071	0.561	560.6	incongruent	Block3	incongruent/STIM_006.jpg	100
2400.546	0.481	481.1	incongruent	Block3	incongruent/STIM_006.jpg	99
2404.184	0.715	715.2	incongruent	Block3	incongruent/STIM_007.jpg	99
2407.841	0.491	491.4	incongruent	Block3	incongruent/STIM_007.jpg	99
2411.671	0.659	659.2	incongruent	Block3	incongruent/STIM_007.jpg	99
2414.541	0.713	713.0	incongruent	Block3	incongruent/STIM_007.jpg	100
2418.843	0.495	494.9	incongruent	Block3	incongruent/STIM_007.jpg	100
2421.737	0.62	619.8	incongruent	Block3	incongruent/STIM_008.jpg	100
2425.894	0.456	455.8	incongruent	Block3	incongruent/STIM_008.jpg	99
2429.071	0.851	850.8	incongruent	Block3	incongruent/STIM_008.jpg	99
2432.701	0.919	919.4	incongruent	Block3	incongruent/STIM_008.jpg	100
2436.712	0.771	770.7	incongruent	Block3	incongruent/STIM_008.jpg	100
2439.83	0.695	694.7	incongruent	Block3	incongruent/STIM_009.jpg	100
2443.491	0.8	799.5	incongruent	Block3	incongruent/STIM_009.jpg	99
2447.559	0.906	905.7	incongruent	Block3	incongruent/STIM_009.jpg	99
2451.519	0.904	904.2	incongruent	Block3	incongruent/STIM_009.jpg	99
2454.938	0.44	440.0	incongruent	Block3	incongruent/STIM_009.jpg	100
2458.608	0.607	606.6	incongruent	Block3	incongruent/STIM_010.jpg	100
2462.999	0.825	824.6	incongruent	Block3	incongruent/STIM_010.jpg	100
2467.642	0.9	899.8	incongruent	Block3	incongruent/STIM_010.jpg	99
2472.347	0.544	543.5	incongruent	Block3	incongruent/STIM_010.jpg	99
2475.527	0.49	489.6	incongruent	Block3	incongruent/STIM_010.jpg	100
2479.76	0.894	893.7	incongruent	Block3	incongruent/STIM_011.jpg	100
2484.716	0.467	467.0	incongruent	Block3	incongruent/STIM_011.jpg	99
2488.02	0.526	525.8	incongruent	Block3	incongruent/STIM_011.jpg	99
2492.495	0.84	840.0	incongruent	Block3	incongruent/STIM_011.jpg	99
2496.182	0.856	855.6	incongruent	Block3	incongruent/STIM_011.jpg	99
2499.587	0.658	657.8	incongruent	Block3	incongruent/STIM_012.jpg	99
2503.223	0.805	805.3	incongruent	Block3	incongruent/STIM_012.jpg	99
2507.07	0.811	811.2	incongruent	Block3	incongruent/STIM_012.jpg	100
2511.209	0.811	811.0	incongruent	Block3	incongruent/STIM_012.jpg	99
2514.158	0.67	669.9	incongruent	Block3	incongruent/STIM_012.jpg	100
2517.489	0.606	606.4	incongruent	Block3	incongruent/STIM_013.jpg	100
2520.339	0.895	894.8	incongruent	Block3	incongruent/STIM_013.jpg	100
2524.984	0.907	907.3	incongruent	Block3	incongruent/STIM_013.jpg	99
2529.93	0.572	572.3	incongruent	Block3	incongruent/STIM_013.jpg	99
2532.828	0.898	897.9	incongruent	Block3	incongruent/STIM_013.jpg	100
2536.679	0.862	861.6	incongruent	Block3	incongruent/STIM_014.jpg	100
2540.534	0.495	495.3	incongruent	Block3	incongruent/STIM_014.jpg	99
2544.898	0.758	758.4	incongruent	Block3	incongruent/STIM_014.jpg	100
2548.624	0.626	626.3	incongruent	Block3	incongruent/STIM_014.jpg	99
2553.23	0.461	461.4	incongruent	Block3	incongruent/STIM_014.jpg	99
2556.75	0.906	906.5	incongruent	Block3	incongruent/STIM_015.jpg	100
2561.244	0.835	834.6	incongruent	Block3	incongruent/STIM_015.jpg	99
2564.445	0.437	436.8	incongruent	Block3	incongruent/STIM_015.jpg	99
2567.869	0.768	768.2	incongruent	Block3	incongruent/STIM_015.jpg	99
2572.411	0.698	697.9	incongruent	Block3	incongruent/STIM_015.jpg	99
2575.753	0.558	558.2	incongruent	Block3	incongruent/STIM_016.jpg	100
2580.1	0.742	742.5	incongruent	Block3	incongruent/STIM_016.jpg	100
2584.711	0.772	772.0	incongruent	Block3	incongruent/STIM_016.jpg	100
2588.725	0.691	690.9	incongruent	Block3	incongruent/STIM_016.jpg	100
2593.004	0.742	741.6	incongruent	Block3	incongruent/STIM_016.jpg	99
2597.809	0.531	531.1	incongruent	Block3	incongruent/STIM_017.jpg	100
2601.276	0.544	543.6	incongruent	Block3	incongruent/STIM_017.jpg	100
2605.192	0.515	514.6	incongruent	Block3	incongruent/STIM_017.jpg	99
2609.351	0.885	884.8	incongruent	Block3	incongruent/STIM_017.jpg	100
2612.496	0.536	536.3	incongruent	Block3	incongruent/STIM_017.jpg	100
2617.044	0.62	620.3	incongruent	Block3	incongruent/STIM_018.jpg	99
2621.184	0.88	879.5	incongruent	Block3	incongruent/STIM_018.jpg	99
2625.871	0.586	586.0	incongruent	Block3	incongruent/STIM_018.jpg	99
2628.845	0.81	810.0	incongruent	Block3	incongruent/STIM_018.jpg	100
2632.662	0.806	805.7	incongruent	Block3	incongruent/STIM_018.jpg	100
2637.216	0.678	678.2	incongruent	Block3	incongruent/STIM_019.jpg	100
2640.025	0.555	555.1	incongruent	Block3	incongruent/STIM_019.jpg	99
2643.235	0.546	546.5	incongruent	Block3	incongruent/STIM_019.jpg	99
2647.789	0.9	899.5	incongruent	Block3	incongruent/STIM_019.jpg	99
2651.338	0.633	632.8	incongruent	Block3	incongruent/STIM_019.jpg	99
2656.041	0.739	739.4	incongruent	Block3	incongruent/STIM_020.jpg	100
2658.922	0.833	833.3	incongruent	Block3	incongruent/STIM_020.jpg	100
2663.847	0.876	876.4	incongruent	Block3	incongruent/STIM_020.jpg	99
2667.625	0.812	812.2	incongruent	Block3	incongruent/STIM_020.jpg	100
2671.484	0.629	628.8	incongruent	Block3	incongruent/STIM_020.jpg	99
2675.328	0.689	688.7	incongruent	Block3	incongruent/STIM_021.jpg	99
2678.287	0.782	781.5	incongruent	Block3	incongruent/STIM_021.jpg	100
2681.91	0.818	817.6	incongruent	Block3	incongruent/STIM_021.jpg	100
2686.047	0.872	872.5	incongruent	Block3	incongruent/STIM_021.jpg	100
2689.928	0.869	868.7	incongruent	Block3	incongruent/STIM_021.jpg	99
2694.365	0.44	440.5	incongruent	Block3	incongruent/STIM_022.jpg	100
2697.468	0.817	817.2	incongruent	Block3	incongruent/STIM_022.jpg	99
2700.525	0.457	457.3	incongruent	Block3	incongruent/STIM_022.jpg	100
2704.349	0.604	604.0	incongruent	Block3	incongruent/STIM_022.jpg	99
2708.603	0.651	650.7	incongruent	Block3	incongruent/STIM_022.jpg	99
2713.327	0.571	571.2	incongruent	Block3	incongruent/STIM_023.jpg	99
2716.62	0.901	901.1	incongruent	Block3	incongruent/STIM_023.jpg	100
2719.907	0.604	603.8	incongruent	Block3	incongruent/STIM_023.jpg	100
2724.293	0.898	898.0	incongruent	Block3	incongruent/STIM_023.jpg	100
2728.261	0.635	635.0	incongruent	Block3	incongruent/STIM_023.jpg	99
2731.27	0.438	437.5	incongruent	Block3	incongruent/STIM_024.jpg	99
2734.662	0.496	495.6	incongruent	Block3	incongruent/STIM_024.jpg	99
2738.094	0.458	457.9	incongruent	Block3	incongruent/STIM_024.jpg	100
2740.87	0.671	671.3	incongruent	Block3	incongruent/STIM_024.jpg	100
2745.052	0.451	451.3	incongruent	Block3	incongruent/STIM_024.jpg	99
2748.178	0.486	486.2	incongruent	Block3	incongruent/STIM_025.jpg	100
2751.569	0.733	733.0	incongruent	Block3	incongruent/STIM_025.jpg	100
2755.549	0.456	456.1	incongruent	Block3	incongruent/STIM_025.jpg	100
2760.045	0.822	822.5	incongruent	Block3	incongruent/STIM_025.jpg	100
2763.033	0.792	792.5	incongruent	Block3	incongruent/STIM_025.jpg	99
2766.718	0.744	743.6	incongruent	Block3	incongruent/STIM_026.jpg	100
2769.974	0.503	502.6	incongruent	Block3	incongruent/STIM_026.jpg	99
2772.878	0.73	730.0	incongruent	Block3	incongruent/STIM_026.jpg	99
2777.386	0.526	526.3	incongruent	Block3	incongruent/STIM_026.jpg	100
2780.565	0.675	674.9	incongruent	Block3	incongruent/STIM_026.jpg	99
2783.399	0.459	459.0	incongruent	Block3	incongruent/STIM_027.jpg	99
2786.438	0.445	444.7	incongruent	Block3	incongruent/STIM_027.jpg	99
2790.67	0.446	445.5	incongruent	Block3	incongruent/STIM_027.jpg	99
2794.822	0.7	699.7	incongruent	Block3	incongruent/STIM_027.jpg	100
2797.928	0.783	783.0	incongruent	Block3	incongruent/STIM_027.jpg	99
2801.609	0.494	493.7	incongruent	Block3	incongruent/STIM_028.jpg	100
2804.496	0.895	894.6	incongruent	Block3	incongruent/STIM_028.jpg	99
2808.021	0.63	629.9	incongruent	Block3	incongruent/STIM_028.jpg	100
2812.422	0.471	471.2	incongruent	Block3	incongruent/STIM_028.jpg	100
2815.499	0.501	500.8	incongruent	Block3	incongruent/STIM_028.jpg	100
2818.449	0.725	725.0	incongruent	Block3	incongruent/STIM_029.jpg	100
2822.625	0.565	564.9	incongruent	Block3	incongruent/STIM_029.jpg	100
2825.573	0.709	709.0	incongruent	Block3	incongruent/STIM_029.jpg	99
2829.457	0.84	839.8	incongruent	Block3	incongruent/STIM_029.jpg	100
2832.494	0.577	576.8	incongruent	Block3	incongruent/STIM_029.jpg	100
2836.457	0.56	560.5	congruent	Block3	congruent/STIM_000.jpg	100
2840.268	0.719	719.1	congruent	Block3	congruent/STIM_000.jpg	99
2843.884	0.53	530.2	congruent	Block3	congruent/STIM_000.jpg	100
2848.213	0.577	576.9	congruent	Block3	congruent/STIM_000.jpg	99
2851.999	0.461	461.2	congruent	Block3	congruent/STIM_000.jpg	100
2855.062	0.479	479.3	congruent	Block3	congruent/STIM_001.jpg	100
2859.383	0.511	511.4	congruent	Block3	congruent/STIM_001.jpg	99
2862.727	0.716	715.6	congruent	Block3	congruent/STIM_001.jpg	100
2865.797	0.466	466.5	congruent	Block3	congruent/STIM_001.jpg	99
2869.209	0.54	540.2	congruent	Block3	congruent/STIM_001.jpg	99
2873.655	0.46	460.0	congruent	Block3	congruent/STIM_002.jpg	100
2876.328	0.721	721.2	congruent	Block3	congruent/STIM_002.jpg	100
2880.716	0.64	640.0	congruent	Block3	congruent/STIM_002.jpg	99
2885.058	0.69	689.9	congruent	Block3	congruent/STIM_002.jpg	100
2888.369	0.486	485.9	congruent	Block3	congruent/STIM_002.jpg	100
2891.709	0.685	684.8	congruent	Block3	congruent/STIM_003.jpg	99
2896.316	0.526	526.1	congruent	Block3	congruent/STIM_003.jpg	99
2899.114	0.708	708.4	congruent	Block3	congruent/STIM_003.jpg	99
2902.784	0.66	660.0	congruent	Block3	congruent/STIM_003.jpg	99
2907.11	0.787	787.1	congruent	Block3	congruent/STIM_003.jpg	100
2911.444	0.646	646.2	congruent	Block3	congruent/STIM_004.jpg	99
2914.236	0.475	475.1	congruent	Block3	congruent/STIM_004.jpg	100
2917.942	0.485	485.1	congruent	Block3	congruent/STIM_004.jpg	99
2922.399	0.698	698.2	congruent	Block3	congruent/STIM_004.jpg	99
2926.902	0.478	478.0	congruent	Block3	congruent/STIM_004.jpg	100
2930.543	0.736	735.8	congruent	Block3	congruent/STIM_005.jpg	99
2935.257	0.727	727.3	congruent	Block3	congruent/STIM_005.jpg	99
2938.162	0.598	597.5	congruent	Block3	congruent/STIM_005.jpg	99
2942.19	0.461	461.3	congruent	Block3	congruent/STIM_005.jpg	100
2945.085	0.539	539.0	congruent	Block3	congruent/STIM_005.jpg	100
2948.429	0.649	648.9	congruent	Block3	congruent/STIM_006.jpg	99
2952.879	0.548	548.3	congruent	Block3	congruent/STIM_006.jpg	99
2956.877	0.537	537.2	congruent	Block3	congruent/STIM_006.jpg	100
2960.24	0.505	504.8	congruent	Block3	congruent/STIM_006.jpg	99
2963.727	0.643	643.0	congruent	Block3	congruent/STIM_006.jpg	100
2967.71	0.715	715.1	congruent	Block3	congruent/STIM_007.jpg	99
2972.017	0.685	685.4	congruent	Block3	congruent/STIM_007.jpg	99
2975.333	0.692	691.6	congruent	Block3	congruent/STIM_007.jpg	99
2978.312	0.527	526.8	congruent	Block3	congruent/STIM_007.jpg	100
2981.268	0.734	734.4	congruent	Block3	congruent/STIM_007.jpg	99
2985.301	0.564	563.5	congruent	Block3	congruent/STIM_008.jpg	99
2989.624	0.766	765.5	congruent	Block3	congruent/STIM_008.jpg	100
2993.147	0.504	503.7	congruent	Block3	congruent/STIM_008.jpg	99
2996.042	0.584	584.5	congruent	Block3	congruent/STIM_008.jpg	99
2999.388	0.713	712.7	congruent	Block3	congruent/STIM_008.jpg	99
3003.961	0.705	704.8	congruent	Block3	congruent/STIM_009.jpg	100
3008.513	0.701	701.2	congruent	Block3	congruent/STIM_009.jpg	99
3013.303	0.654	653.6	congruent	Block3	congruent/STIM_009.jpg	99
3017.8	0.662	662.0	congruent	Block3	congruent/STIM_009.jpg	99
3020.972	0.527	526.7	congruent	Block3	congruent/STIM_009.jpg	99
3024.982	0.747	747.3	congruent	Block3	congruent/STIM_010.jpg	100
3028.852	0.444	444.0	congruent	Block3	congruent/STIM_010.jpg	99
3032.495	0.598	597.7	congruent	Block3	congruent/STIM_010.jpg	99
3036.477	0.501	501.5	congruent	Block3	congruent/STIM_010.jpg	100
3039.858	0.761	761.0	congruent	Block3	congruent/STIM_010.jpg	99
3044.608	0.711	710.9	congruent	Block3	congruent/STIM_011.jpg	100
3048.317	0.768	767.9	congruent	Block3	congruent/STIM_011.jpg	100
3051.264	0.738	737.8	congruent	Block3	congruent/STIM_011.jpg	99
3054.579	0.542	542.5	congruent	Block3	congruent/STIM_011.jpg	99
3058.216	0.447	447.3	congruent	Block3	congruent/STIM_011.jpg	100
3062.474	0.569	569.1	congruent	Block3	congruent/STIM_012.jpg	99
3066.713	0.457	456.7	congruent	Block3	congruent/STIM_012.jpg	100
3070.685	0.727	727.2	congruent	Block3	congruent/STIM_012.jpg	100
3074.805	0.57	570.3	congruent	Block3	congruent/STIM_012.jpg	99
3078.001	0.495	494.7	congruent	Block3	congruent/STIM_012.jpg	99
3081.521	0.481	481.4	congruent	Block3	congruent/STIM_013.jpg	100
3085.454	0.702	702.2	congruent	Block3	congruent/STIM_013.jpg	100
3089.292	0.73	730.5	congruent	Block3	congruent/STIM_013.jpg	100
3093.17	0.592	592.1	congruent	Block3	congruent/STIM_013.jpg	99
3096.277	0.607	607.4	congruent	Block3	congruent/STIM_013.jpg	99
3100.626	0.483	483.1	congruent	Block3	congruent/STIM_014.jpg	100
3105.155	0.728	727.8	congruent	Block3	congruent/STIM_014.jpg	100
3108.486	0.555	554.6	congruent	Block3	congruent/STIM_014.jpg	99
3111.613	0.67	669.7	congruent	Block3	congruent/STIM_014.jpg	99
3114.586	0.499	498.6	congruent	Block3	congruent/STIM_014.jpg	99
3118.296	0.503	502.9	congruent	Block3	congruent/STIM_015.jpg	99
3121.282	0.788	788.1	congruent	Block3	congruent/STIM_015.jpg	100
3124.916	0.714	713.8	congruent	Block3	congruent/STIM_015.jpg	100
3129.365	0.533	532.8	congruent	Block3	congruent/STIM_015.jpg	99
3132.436	0.69	690.3	congruent	Block3	congruent/STIM_015.jpg	99
3136.765	0.527	527.1	congruent	Block3	congruent/STIM_016.jpg	99
3140.563	0.664	664.5	congruent	Block3	congruent/STIM_016.jpg	99
3143.673	0.575	575.1	congruent	Block3	congruent/STIM_016.jpg	99
3147.708	0.75	750.4	congruent	Block3	congruent/STIM_016.jpg	99
3151.964	0.754	754.4	congruent	Block3	congruent/STIM_016.jpg	99
3155.647	0.681	680.6	congruent	Block3	congruent/STIM_017.jpg	100
3160.078	0.543	543.2	congruent	Block3	congruent/STIM_017.jpg	100
3164.561	0.71	710.1	congruent	Block3	congruent/STIM_017.jpg	99
3167.579	0.514	514.1	congruent	Block3	congruent/STIM_017.jpg	99
3171.667	0.461	460.9	congruent	Block3	congruent/STIM_017.jpg	99
3174.487	0.697	696.6	congruent	Block3	congruent/STIM_018.jpg	99
3177.623	0.796	796.4	congruent	Block3	congruent/STIM_018.jpg	99
3182.37	0.46	460.3	congruent	Block3	congruent/STIM_018.jpg	99
3185.414	0.63	629.6	congruent	Block3	congruent/STIM_018.jpg	100
3188.293	0.736	735.5	congruent	Block3	congruent/STIM_018.jpg	100
3191.241	0.513	513.2	congruent	Block3	congruent/STIM_019.jpg	99
3195.334	0.573	572.9	congruent	Block3	congruent/STIM_019.jpg	99
3198.954	0.582	581.9	congruent	Block3	congruent/STIM_019.jpg	100
3202.393	0.735	734.9	congruent	Block3	congruent/STIM_019.jpg	99
3206.034	0.46	460.2	congruent	Block3	congruent/STIM_019.jpg	100
3210.085	0.58	579.5	congruent	Block3	congruent/STIM_020.jpg	100
3213.002	0.749	749.2	congruent	Block3	congruent/STIM_020.jpg	99
3216.419	0.649	648.6	congruent	Block3	congruent/STIM_020.jpg	99
3219.675	0.618	618.4	congruent	Block3	congruent/STIM_020.jpg	100
3222.48	0.52	520.5	congruent	Block3	congruent/STIM_020.jpg	99
3226.669	0.785	785.3	congruent	Block3	congruent/STIM_021.jpg	100
3230.216	0.6	599.5	congruent	Block3	congruent/STIM_021.jpg	99
3233.666	0.695	695.4	congruent	Block3	congruent/STIM_021.jpg	100
3237.91	0.45	449.9	congruent	Block3	congruent/STIM_021.jpg	100
3242.038	0.491	491.4	congruent	Block3	congruent/STIM_021.jpg	99
3246.387	0.751	751.1	congruent	Block3	congruent/STIM_022.jpg	100
3250.697	0.482	482.3	congruent	Block3	congruent/STIM_022.jpg	100
3254.113	0.511	511.4	congruent	Block3	congruent/STIM_022.jpg	100
3258.353	0.728	727.6	congruent	Block3	congruent/STIM_022.jpg	100
3261.241	0.649	648.6	congruent	Block3	congruent/STIM_022.jpg	100
3265.203	0.591	590.6	congruent	Block3	congruent/STIM_023.jpg	100
3269.37	0.583	583.4	congruent	Block3	congruent/STIM_023.jpg	99
3272.509	0.459	458.7	congruent	Block3	congruent/STIM_023.jpg	99
3276.196	0.599	599.2	congruent	Block3	congruent/STIM_023.jpg	99
3279.485	0.587	587.4	congruent	Block3	congruent/STIM_023.jpg	99
3283.842	0.721	721.3	congruent	Block3	congruent/STIM_024.jpg	100
3288.126	0.505	505.1	congruent	Block3	congruent/STIM_024.jpg	99
3291.236	0.593	593.2	congruent	Block3	congruent/STIM_024.jpg	99
3293.985	0.626	625.8	congruent	Block3	congruent/STIM_024.jpg	99
3297.218	0.464	464.4	congruent	Block3	congruent/STIM_024.jpg	99
3300.481	0.769	768.7	congruent	Block3	congruent/STIM_025.jpg	100
3304.935	0.577	577.4	congruent	Block3	congruent/STIM_025.jpg	100
3308.174	0.709	708.7	congruent	Block3	congruent/STIM_025.jpg	99
3312.112	0.618	617.5	congruent	Block3	congruent/STIM_025.jpg	100
3315.17	0.502	502.5	congruent	Block3	congruent/STIM_025.jpg	100
3319.482	0.549	549.4	congruent	Block3	congruent/STIM_026.jpg	99
3323.086	0.735	735.1	congruent	Block3	congruent/STIM_026.jpg	100
3327.784	0.535	535.2	congruent	Block3	congruent/STIM_026.jpg	99
3330.728	0.66	660.4	congruent	Block3	congruent/STIM_026.jpg	99
3333.93	0.508	507.6	congruent	Block3	congruent/STIM_026.jpg	100
3337.392	0.601	601.0	congruent	Block3	congruent/STIM_027.jpg	99
3342.059	0.476	475.5	congruent	Block3	congruent/STIM_027.jpg	100
3345.824	0.496	495.6	congruent	Block3	congruent/STIM_027.jpg	99
3349.48	0.516	516.3	congruent	Block3	congruent/STIM_027.jpg	99
3353.927	0.731	731.1	congruent	Block3	congruent/STIM_027.jpg	100
3357.759	0.448	448.3	congruent	Block3	congruent/STIM_028.jpg	99
3361.989	0.724	723.8	congruent	Block3	congruent/STIM_028.jpg	99
3365.64	0.695	695.4	congruent	Block3	congruent/STIM_028.jpg	99
3368.814	0.465	465.1	congruent	Block3	congruent/STIM_028.jpg	100
3373.065	0.693	693.0	congruent	Block3	congruent/STIM_028.jpg	99
3377.584	0.52	519.8	congruent	Block3	congruent/STIM_029.jpg	100
3381.586	0.778	778.3	congruent	Block3	congruent/STIM_029.jpg	100
3385.959	0.597	596.8	congruent	Block3	congruent/STIM_029.jpg	99
3389.726	0.782	782.5	congruent	Block3	congruent/STIM_029.jpg	99
3392.94	0.597	597.2	congruent	Block3	congruent/STIM_029.jpg	100
