onset	duration	accuracy_binary	trial_type	learning_stage	stimulus
0.0	4.734	1	navigation	Trial1	navigation/STIM_000.jpg
7.262	4.23	1	navigation	Trial1	navigation/STIM_000.jpg
14.48	1.763	0	navigation	Trial1	navigation/STIM_000.jpg
18.985	2.628	1	navigation	Trial1	navigation/STIM_000.jpg
24.899	3.669	1	navigation	Trial1	navigation/STIM_000.jpg
31.704	2.273	1	navigation	Trial1	navigation/STIM_000.jpg
36.284	3.384	1	navigation	Trial1	navigation/STIM_001.jpg
41.977	3.387	1	navigation	Trial1	navigation/STIM_001.jpg
48.489	3.06	0	navigation	Trial1	navigation/STIM_001.jpg
54.02	3.582	1	navigation	Trial1	navigation/STIM_001.jpg
60.651	2.577	1	navigation	Trial1	navigation/STIM_001.jpg
65.349	3.313	1	navigation	Trial1	navigation/STIM_001.jpg
71.884	4.103	1	navigation	Trial1	navigation/STIM_002.jpg
79.024	2.114	1	navigation	Trial1	navigation/STIM_002.jpg
83.995	1.841	1	navigation	Trial1	navigation/STIM_002.jpg
88.947	2.226	1	navigation	Trial1	navigation/STIM_002.jpg
95.007	2.915	1	navigation	Trial1	navigation/STIM_002.jpg
100.917	2.86	1	navigation	Trial1	navigation/STIM_002.jpg
107.633	3.262	1	navigation	Trial1	navigation/STIM_003.jpg
113.548	2.301	1	navigation	Trial1	navigation/STIM_003.jpg
119.085	2.478	0	navigation	Trial1	navigation/STIM_003.jpg
123.875	3.538	1	navigation	Trial1	navigation/STIM_003.jpg
131.232	3.549	1	navigation	Trial1	navigation/STIM_003.jpg
138.511	2.382	1	navigation	Trial1	navigation/STIM_003.jpg
143.763	4.436	0	navigation	Trial1	navigation/STIM_004.jpg
150.811	4.119	1	navigation	Trial1	navigation/STIM_004.jpg
158.15	3.524	1	navigation	Trial1	navigation/STIM_004.jpg
164.818	1.902	1	navigation	Trial1	navigation/STIM_004.jpg
169.092	1.602	1	navigation	Trial1	navigation/STIM_004.jpg
173.106	2.443	0	navigation	Trial1	navigation/STIM_004.jpg
178.865	2.668	0	navigation	Trial1	navigation/STIM_005.jpg
184.875	2.568	1	navigation	Trial1	navigation/STIM_005.jpg
190.327	4.046	0	navigation	Trial1	navigation/STIM_005.jpg
198.315	2.099	1	navigation	Trial1	navigation/STIM_005.jpg
204.027	2.946	1	navigation	Trial1	navigation/STIM_005.jpg
209.217	2.222	1	navigation	Trial1	navigation/STIM_005.jpg
213.616	4.539	1	navigation	Trial1	navigation/STIM_006.jpg
220.401	3.85	0	navigation	Trial1	navigation/STIM_006.jpg
226.275	3.41	1	navigation	Trial1	navigation/STIM_006.jpg
232.642	3.976	0	navigation	Trial1	navigation/STIM_006.jpg
238.69	3.176	0	navigation	Trial1	navigation/STIM_006.jpg
244.424	3.504	0	navigation	Trial1	navigation/STIM_006.jpg
250.162	3.023	0	navigation	Trial1	navigation/STIM_007.jpg
255.938	2.365	1	navigation	Trial1	navigation/STIM_007.jpg
262.122	3.776	0	navigation	Trial1	navigation/STIM_007.jpg
269.491	3.34	1	navigation	Trial1	navigation/STIM_007.jpg
276.024	3.562	1	navigation	Trial1	navigation/STIM_007.jpg
283.356	3.48	1	navigation	Trial1	navigation/STIM_007.jpg
290.742	4.71	0	navigation	Trial1	navigation/STIM_008.jpg
297.624	1.848	1	navigation	Trial1	navigation/STIM_008.jpg
302.818	3.527	1	navigation	Trial1	navigation/STIM_008.jpg
309.906	3.808	1	navigation	Trial1	navigation/STIM_008.jpg
317.378	3.155	0	navigation	Trial1	navigation/STIM_008.jpg
323.32	2.594	1	navigation	Trial1	navigation/STIM_008.jpg
328.002	4.688	0	navigation	Trial1	navigation/STIM_009.jpg
334.869	3.466	1	navigation	Trial1	navigation/STIM_009.jpg
342.194	3.356	1	navigation	Trial1	navigation/STIM_009.jpg
348.319	3.272	1	navigation	Trial1	navigation/STIM_009.jpg
354.219	1.664	0	navigation	Trial1	navigation/STIM_009.jpg
358.41	1.525	1	navigation	Trial1	navigation/STIM_009.jpg
362.962	3.028	0	navigation	Trial1	navigation/STIM_010.jpg
368.824	3.692	0	navigation	Trial1	navigation/STIM_010.jpg
375.028	3.074	0	navigation	Trial1	navigation/STIM_010.jpg
380.73	3.023	1	navigation	Trial1	navigation/STIM_010.jpg
387.443	3.06	0	navigation	Trial1	navigation/STIM_010.jpg
393.164	1.493	0	navigation	Trial1	navigation/STIM_010.jpg
398.498	3.095	0	navigation	Trial1	navigation/STIM_011.jpg
405.334	2.943	1	navigation	Trial1	navigation/STIM_011.jpg
410.992	2.438	1	navigation	Trial1	navigation/STIM_011.jpg
416.815	3.324	1	navigation	Trial1	navigation/STIM_011.jpg
423.438	1.965	1	navigation	Trial1	navigation/STIM_011.jpg
428.105	1.955	1	navigation	Trial1	navigation/STIM_011.jpg
433.761	1.138	1	pointing	Trial1	pointing/STIM_000.jpg
438.104	1.284	1	pointing	Trial1	pointing/STIM_000.jpg
441.848	0.812	1	pointing	Trial1	pointing/STIM_000.jpg
446.114	0.778	1	pointing	Trial1	pointing/STIM_000.jpg
449.969	0.76	1	pointing	Trial1	pointing/STIM_000.jpg
452.996	0.779	1	pointing	Trial1	pointing/STIM_000.jpg
456.405	1.192	1	pointing	Trial1	pointing/STIM_001.jpg
461.039	1.112	1	pointing	Trial1	pointing/STIM_001.jpg
465.729	1.421	1	pointing	Trial1	pointing/STIM_001.jpg
470.577	1.277	1	pointing	Trial1	pointing/STIM_001.jpg
475.077	0.965	1	pointing	Trial1	pointing/STIM_001.jpg
478.431	1.351	1	pointing	Trial1	pointing/STIM_001.jpg
483.604	1.197	1	pointing	Trial1	pointing/STIM_002.jpg
488.116	1.067	1	pointing	Trial1	pointing/STIM_002.jpg
492.355	1.006	1	pointing	Trial1	pointing/STIM_002.jpg
496.816	1.332	1	pointing	Trial1	pointing/STIM_002.jpg
500.275	1.381	1	pointing	Trial1	pointing/STIM_002.jpg
504.249	0.987	1	pointing	Trial1	pointing/STIM_002.jpg
508.766	1.343	1	pointing	Trial1	pointing/STIM_003.jpg
513.906	0.88	1	pointing	Trial1	pointing/STIM_003.jpg
518.04	0.82	1	pointing	Trial1	pointing/STIM_003.jpg
521.501	1.245	1	pointing	Trial1	pointing/STIM_003.jpg
526.311	1.395	1	pointing	Trial1	pointing/STIM_003.jpg
530.004	1.406	1	pointing	Trial1	pointing/STIM_003.jpg
534.525	1.114	1	pointing	Trial1	pointing/STIM_004.jpg
539.567	1.031	1	pointing	Trial1	pointing/STIM_004.jpg
543.543	0.851	1	pointing	Trial1	pointing/STIM_004.jpg
547.032	1.005	1	pointing	Trial1	pointing/STIM_004.jpg
551.076	1.162	1	pointing	Trial1	pointing/STIM_004.jpg
554.587	0.872	1	pointing	Trial1	pointing/STIM_004.jpg
558.189	1.307	1	pointing	Trial1	pointing/STIM_005.jpg
562.991	0.909	1	pointing	Trial1	pointing/STIM_005.jpg
567.57	1.39	1	pointing	Trial1	pointing/STIM_005.jpg
572.659	0.987	1	pointing	Trial1	pointing/STIM_005.jpg
577.51	1.398	1	pointing	Trial1	pointing/STIM_005.jpg
580.995	1.309	1	pointing	Trial1	pointing/STIM_005.jpg
586.087	0.945	1	pointing	Trial1	pointing/STIM_006.jpg
589.302	1.281	1	pointing	Trial1	pointing/STIM_006.jpg
594.531	1.208	1	pointing	Trial1	pointing/STIM_006.jpg
599.562	0.935	1	pointing	Trial1	pointing/STIM_006.jpg
603.538	0.796	1	pointing	Trial1	pointing/STIM_006.jpg
606.962	1.245	1	pointing	Trial1	pointing/STIM_006.jpg
612.037	1.257	1	pointing	Trial1	pointing/STIM_007.jpg
615.914	1.045	0	pointing	Trial1	pointing/STIM_007.jpg
619.255	1.304	1	pointing	Trial1	pointing/STIM_007.jpg
623.076	1.285	1	pointing	Trial1	pointing/STIM_007.jpg
627.779	0.922	1	pointing	Trial1	pointing/STIM_007.jpg
632.526	0.903	1	pointing	Trial1	pointing/STIM_007.jpg
636.411	1.132	1	pointing	Trial1	pointing/STIM_008.jpg
639.775	1.07	1	pointing	Trial1	pointing/STIM_008.jpg
643.937	1.41	1	pointing	Trial1	pointing/STIM_008.jpg
649.137	1.206	1	pointing	Trial1	pointing/STIM_008.jpg
653.238	1.396	1	pointing	Trial1	pointing/STIM_008.jpg
657.813	0.96	1	pointing	Trial1	pointing/STIM_008.jpg
662.365	1.406	1	pointing	Trial1	pointing/STIM_009.jpg
665.796	1.162	1	pointing	Trial1	pointing/STIM_009.jpg
669.734	1.058	0	pointing	Trial1	pointing/STIM_009.jpg
674.236	0.899	1	pointing	Trial1	pointing/STIM_009.jpg
677.303	1.128	1	pointing	Trial1	pointing/STIM_009.jpg
681.114	0.772	1	pointing	Trial1	pointing/STIM_009.jpg
685.761	1.37	1	pointing	Trial1	pointing/STIM_010.jpg
689.437	1.059	1	pointing	Trial1	pointing/STIM_010.jpg
693.385	1.389	1	pointing	Trial1	pointing/STIM_010.jpg
697.257	0.944	0	pointing	Trial1	pointing/STIM_010.jpg
700.781	1.193	1	pointing	Trial1	pointing/STIM_010.jpg
704.588	1.091	1	pointing	Trial1	pointing/STIM_010.jpg
707.993	1.033	1	pointing	Trial1	pointing/STIM_011.jpg
711.955	0.889	1	pointing	Trial1	pointing/STIM_011.jpg
716.79	0.786	1	pointing	Trial1	pointing/STIM_011.jpg
719.79	1.356	1	pointing	Trial1	pointing/STIM_011.jpg
723.982	0.92	0	pointing	Trial1	pointing/STIM_011.jpg
728.877	0.828	1	pointing	Trial1	pointing/STIM_011.jpg
732.403	2.432	0	navigation	Trial2	navigation/STIM_000.jpg
737.672	1.778	1	navigation	Trial2	navigation/STIM_000.jpg
741.585	1.97	1	navigation	Trial2	navigation/STIM_000.jpg
746.827	2.505	1	navigation	Trial2	navigation/STIM_000.jpg
751.48	1.342	0	navigation	Trial2	navigation/STIM_000.jpg
756.096	3.261	1	navigation	Trial2	navigation/STIM_000.jpg
762.735	3.46	1	navigation	Trial2	navigation/STIM_001.jpg
769.038	2.491	1	navigation	Trial2	navigation/STIM_001.jpg
774.075	2.941	1	navigation	Trial2	navigation/STIM_001.jpg
780.018	1.695	1	navigation	Trial2	navigation/STIM_001.jpg
783.859	1.418	0	navigation	Trial2	navigation/STIM_001.jpg
789.159	2.566	1	navigation	Trial2	navigation/STIM_001.jpg
793.878	3.92	0	navigation	Trial2	navigation/STIM_002.jpg
799.798	2.938	1	navigation	Trial2	navigation/STIM_002.jpg
805.817	2.318	1	navigation	Trial2	navigation/STIM_002.jpg
811.776	2.189	1	navigation	Trial2	navigation/STIM_002.jpg
817.82	2.191	1	navigation	Trial2	navigation/STIM_002.jpg
822.656	2.349	1	navigation	Trial2	navigation/STIM_002.jpg
828.405	2.636	0	navigation	Trial2	navigation/STIM_003.jpg
833.416	2.421	0	navigation	Trial2	navigation/STIM_003.jpg
839.744	3.07	1	navigation	Trial2	navigation/STIM_003.jpg
845.49	2.704	1	navigation	Trial2	navigation/STIM_003.jpg
851.248	1.492	0	navigation	Trial2	navigation/STIM_003.jpg
856.654	2.84	1	navigation	Trial2	navigation/STIM_003.jpg
862.113	3.414	1	navigation	Trial2	navigation/STIM_004.jpg
868.631	2.126	1	navigation	Trial2	navigation/STIM_004.jpg
873.63	2.058	1	navigation	Trial2	navigation/STIM_004.jpg
878.44	1.684	1	navigation	Trial2	navigation/STIM_004.jpg
883.056	2.008	1	navigation	Trial2	navigation/STIM_004.jpg
888.135	1.723	1	navigation	Trial2	navigation/STIM_004.jpg
892.972	1.802	1	navigation	Trial2	navigation/STIM_005.jpg
898.361	2.704	1	navigation	Trial2	navigation/STIM_005.jpg
903.957	3.135	1	navigation	Trial2	navigation/STIM_005.jpg
910.416	2.961	0	navigation	Trial2	navigation/STIM_005.jpg
916.756	2.967	1	navigation	Trial2	navigation/STIM_005.jpg
922.16	2.801	1	navigation	Trial2	navigation/STIM_005.jpg
927.909	3.138	1	navigation	Trial2	navigation/STIM_006.jpg
934.986	2.986	1	navigation	Trial2	navigation/STIM_006.jpg
940.713	1.521	1	navigation	Trial2	navigation/STIM_006.jpg
945.889	1.488	1	navigation	Trial2	navigation/STIM_006.jpg
950.059	2.629	1	navigation	Trial2	navigation/STIM_006.jpg
956.512	2.69	0	navigation	Trial2	navigation/STIM_006.jpg
962.222	2.795	1	navigation	Trial2	navigation/STIM_007.jpg
967.248	3.024	1	navigation	Trial2	navigation/STIM_007.jpg
973.967	2.124	1	navigation	Trial2	navigation/STIM_007.jpg
979.81	2.934	1	navigation	Trial2	navigation/STIM_007.jpg
986.564	1.411	1	navigation	Trial2	navigation/STIM_007.jpg
991.131	2.079	1	navigation	Trial2	navigation/STIM_007.jpg
997.035	2.604	1	navigation	Trial2	navigation/STIM_008.jpg
1003.172	3.295	1	navigation	Trial2	navigation/STIM_008.jpg
1009.53	1.728	1	navigation	Trial2	navigation/STIM_008.jpg
1014.649	1.749	1	navigation	Trial2	navigation/STIM_008.jpg
1019.412	3.197	1	navigation	Trial2	navigation/STIM_008.jpg
1025.648	2.21	1	navigation	Trial2	navigation/STIM_008.jpg
1030.291	3.72	1	navigation	Trial2	navigation/STIM_009.jpg
1037.146	2.377	1	navigation	Trial2	navigation/STIM_009.jpg
1041.982	3.509	1	navigation	Trial2	navigation/STIM_009.jpg
1047.997	3.248	1	navigation	Trial2	navigation/STIM_009.jpg
1055.226	2.54	1	navigation	Trial2	navigation/STIM_009.jpg
1061.682	2.637	1	navigation	Trial2	navigation/STIM_009.jpg
1067.768	2.243	0	navigation	Trial2	navigation/STIM_010.jpg
1072.394	2.849	1	navigation	Trial2	navigation/STIM_010.jpg
1079.058	2.829	1	navigation	Trial2	navigation/STIM_010.jpg
1084.701	2.42	1	navigation	Trial2	navigation/STIM_010.jpg
1091.075	1.54	1	navigation	Trial2	navigation/STIM_010.jpg
1096.122	2.266	1	navigation	Trial2	navigation/STIM_010.jpg
1100.798	2.536	1	navigation	Trial2	navigation/STIM_011.jpg
1106.139	2.659	1	navigation	Trial2	navigation/STIM_011.jpg
1111.76	2.652	1	navigation	Trial2	navigation/STIM_011.jpg
1116.832	2.608	1	navigation	Trial2	navigation/STIM_011.jpg
1122.737	2.036	1	navigation	Trial2	navigation/STIM_011.jpg
1127.776	2.141	0	navigation	Trial2	navigation/STIM_011.jpg
1133.238	1.257	1	pointing	Trial2	pointing/STIM_000.jpg
1137.504	1.151	1	pointing	Trial2	pointing/STIM_000.jpg
1140.982	1.381	0	pointing	Trial2	pointing/STIM_000.jpg
1144.896	1.115	1	pointing	Trial2	pointing/STIM_000.jpg
1148.752	1.312	1	pointing	Trial2	pointing/STIM_000.jpg
1152.423	0.962	1	pointing	Trial2	pointing/STIM_000.jpg
1156.178	1.252	1	pointing	Trial2	pointing/STIM_001.jpg
1160.813	1.032	1	pointing	Trial2	pointing/STIM_001.jpg
1163.848	1.224	1	pointing	Trial2	pointing/STIM_001.jpg
1168.637	0.772	1	pointing	Trial2	pointing/STIM_001.jpg
1171.728	0.941	1	pointing	Trial2	pointing/STIM_001.jpg
1175.836	1.215	1	pointing	Trial2	pointing/STIM_001.jpg
1179.771	0.97	1	pointing	Trial2	pointing/STIM_002.jpg
1183.753	1.398	1	pointing	Trial2	pointing/STIM_002.jpg
1188.811	1.192	1	pointing	Trial2	pointing/STIM_002.jpg
1192.09	1.094	1	pointing	Trial2	pointing/STIM_002.jpg
1196.682	0.892	1	pointing	Trial2	pointing/STIM_002.jpg
1201.424	1.12	1	pointing	Trial2	pointing/STIM_002.jpg
1205.982	1.113	0	pointing	Trial2	pointing/STIM_003.jpg
1210.672	1.118	1	pointing	Trial2	pointing/STIM_003.jpg
1214.787	1.277	1	pointing	Trial2	pointing/STIM_003.jpg
1219.257	1.262	1	pointing	Trial2	pointing/STIM_003.jpg
1224.015	0.837	1	pointing	Trial2	pointing/STIM_003.jpg
1227.454	0.819	1	pointing	Trial2	pointing/STIM_003.jpg
1231.076	1.246	1	pointing	Trial2	pointing/STIM_004.jpg
1236.076	1.132	1	pointing	Trial2	pointing/STIM_004.jpg
1239.233	1.372	1	pointing	Trial2	pointing/STIM_004.jpg
1243.862	1.177	1	pointing	Trial2	pointing/STIM_004.jpg
1248.239	0.885	1	pointing	Trial2	pointing/STIM_004.jpg
1251.388	1.149	1	pointing	Trial2	pointing/STIM_004.jpg
1256.475	1.014	1	pointing	Trial2	pointing/STIM_005.jpg
1259.85	0.997	1	pointing	Trial2	pointing/STIM_005.jpg
1263.282	1.213	1	pointing	Trial2	pointing/STIM_005.jpg
1267.237	1.121	1	pointing	Trial2	pointing/STIM_005.jpg
1271.959	1.381	1	pointing	Trial2	pointing/STIM_005.jpg
1275.889	1.272	1	pointing	Trial2	pointing/STIM_005.jpg
1280.244	0.798	1	pointing	Trial2	pointing/STIM_006.jpg
1284.215	1.001	1	pointing	Trial2	pointing/STIM_006.jpg
1288.264	0.883	1	pointing	Trial2	pointing/STIM_006.jpg
1292.925	0.83	1	pointing	Trial2	pointing/STIM_006.jpg
1296.548	0.855	1	pointing	Trial2	pointing/STIM_006.jpg
1300.399	1.32	1	pointing	Trial2	pointing/STIM_006.jpg
1304.977	1.137	1	pointing	Trial2	pointing/STIM_007.jpg
1308.737	1.418	1	pointing	Trial2	pointing/STIM_007.jpg
1313.946	1.072	1	pointing	Trial2	pointing/STIM_007.jpg
1317.475	0.952	1	pointing	Trial2	pointing/STIM_007.jpg
1320.563	1.096	1	pointing	Trial2	pointing/STIM_007.jpg
1324.897	0.977	1	pointing	Trial2	pointing/STIM_007.jpg
1328.828	1.264	1	pointing	Trial2	pointing/STIM_008.jpg
1333.799	1.127	1	pointing	Trial2	pointing/STIM_008.jpg
1338.726	1.257	1	pointing	Trial2	pointing/STIM_008.jpg
1342.181	1.073	1	pointing	Trial2	pointing/STIM_008.jpg
1346.909	1.171	1	pointing	Trial2	pointing/STIM_008.jpg
1350.818	1.238	1	pointing	Trial2	pointing/STIM_008.jpg
1354.762	0.861	1	pointing	Trial2	pointing/STIM_009.jpg
1358.711	1.087	1	pointing	Trial2	pointing/STIM_009.jpg
1363.38	0.825	1	pointing	Trial2	pointing/STIM_009.jpg
1367.438	0.97	1	pointing	Trial2	pointing/STIM_009.jpg
1371.325	1.198	1	pointing	Trial2	pointing/STIM_009.jpg
1375.372	0.894	1	pointing	Trial2	pointing/STIM_009.jpg
1378.728	0.808	1	pointing	Trial2	pointing/STIM_010.jpg
1381.698	0.939	1	pointing	Trial2	pointing/STIM_010.jpg
1386.294	1.144	1	pointing	Trial2	pointing/STIM_010.jpg
1391.135	0.78	1	pointing	Trial2	pointing/STIM_010.jpg
1395.402	0.968	1	pointing	Trial2	pointing/STIM_010.jpg
1399.791	1.412	1	pointing	Trial2	pointing/STIM_010.jpg
1404.662	0.96	1	pointing	Trial2	pointing/STIM_011.jpg
1408.138	1.142	1	pointing	Trial2	pointing/STIM_011.jpg
1411.535	0.874	1	pointing	Trial2	pointing/STIM_011.jpg
1414.78	1.358	1	pointing	Trial2	pointing/STIM_011.jpg
1419.004	1.404	1	pointing	Trial2	pointing/STIM_011.jpg
1422.522	1.324	1	pointing	Trial2	pointing/STIM_011.jpg
1426.397	2.069	1	navigation	Trial3	navigation/STIM_000.jpg
1431.45	1.8	1	navigation	Trial3	navigation/STIM_000.jpg
1436.047	1.464	1	navigation	Trial3	navigation/STIM_000.jpg
1440.696	3.08	1	navigation	Trial3	navigation/STIM_000.jpg
1446.938	2.864	1	navigation	Trial3	navigation/STIM_000.jpg
1453.056	2.712	1	navigation	Trial3	navigation/STIM_000.jpg
1458.168	2.56	1	navigation	Trial3	navigation/STIM_001.jpg
1462.963	2.461	1	navigation	Trial3	navigation/STIM_001.jpg
1468.677	2.994	1	navigation	Trial3	navigation/STIM_001.jpg
1474.568	1.374	1	navigation	Trial3	navigation/STIM_001.jpg
1479.35	1.756	1	navigation	Trial3	navigation/STIM_001.jpg
1484.075	2.09	1	navigation	Trial3	navigation/STIM_001.jpg
1489.076	3.124	1	navigation	Trial3	navigation/STIM_002.jpg
1494.379	2.496	1	navigation	Trial3	navigation/STIM_002.jpg
1498.891	2.814	1	navigation	Trial3	navigation/STIM_002.jpg
1504.802	2.842	1	navigation	Trial3	navigation/STIM_002.jpg
1511.104	3.261	1	navigation	Trial3	navigation/STIM_002.jpg
1517.376	3.261	1	navigation	Trial3	navigation/STIM_002.jpg
1524.61	3.32	1	navigation	Trial3	navigation/STIM_003.jpg
1531.851	3.268	1	navigation	Trial3	navigation/STIM_003.jpg
1538.021	1.928	0	navigation	Trial3	navigation/STIM_003.jpg
1543.659	1.372	1	navigation	Trial3	navigation/STIM_003.jpg
1548.268	3.186	1	navigation	Trial3	navigation/STIM_003.jpg
1554.601	2.713	1	navigation	Trial3	navigation/STIM_003.jpg
1559.883	2.164	1	navigation	Trial3	navigation/STIM_004.jpg
1564.289	1.542	1	navigation	Trial3	navigation/STIM_004.jpg
1568.086	3.119	1	navigation	Trial3	navigation/STIM_004.jpg
1574.727	2.462	1	navigation	Trial3	navigation/STIM_004.jpg
1580.082	3.078	1	navigation	Trial3	navigation/STIM_004.jpg
1585.503	2.24	1	navigation	Trial3	navigation/STIM_004.jpg
1590.257	1.343	1	navigation	Trial3	navigation/STIM_005.jpg
1594.744	1.611	1	navigation	Trial3	navigation/STIM_005.jpg
1599.424	1.343	0	navigation	Trial3	navigation/STIM_005.jpg
1604.35	2.245	1	navigation	Trial3	navigation/STIM_005.jpg
1609.528	1.613	1	navigation	Trial3	navigation/STIM_005.jpg
1614.672	3.287	1	navigation	Trial3	navigation/STIM_005.jpg
1619.993	3.266	1	navigation	Trial3	navigation/STIM_006.jpg
1625.843	2.612	0	navigation	Trial3	navigation/STIM_006.jpg
1631.716	1.424	1	navigation	Trial3	navigation/STIM_006.jpg
1635.528	1.977	0	navigation	Trial3	navigation/STIM_006.jpg
1640.465	2.649	1	navigation	Trial3	navigation/STIM_006.jpg
1646.077	2.926	1	navigation	Trial3	navigation/STIM_006.jpg
1652.74	2.678	1	navigation	Trial3	navigation/STIM_007.jpg
1658.179	2.145	1	navigation	Trial3	navigation/STIM_007.jpg
1662.844	1.574	0	navigation	Trial3	navigation/STIM_007.jpg
1668.004	2.709	0	navigation	Trial3	navigation/STIM_007.jpg
1673.833	3.32	1	navigation	Trial3	navigation/STIM_007.jpg
1680.349	2.595	1	navigation	Trial3	navigation/STIM_007.jpg
1685.568	1.411	1	navigation	Trial3	navigation/STIM_008.jpg
1689.033	2.278	1	navigation	Trial3	navigation/STIM_008.jpg
1694.493	3.086	1	navigation	Trial3	navigation/STIM_008.jpg
1700.315	2.748	1	navigation	Trial3	navigation/STIM_008.jpg
1706.273	2.139	1	navigation	Trial3	navigation/STIM_008.jpg
1711.657	2.676	1	navigation	Trial3	navigation/STIM_008.jpg
1717.277	1.559	1	navigation	Trial3	navigation/STIM_009.jpg
1722.711	2.321	0	navigation	Trial3	navigation/STIM_009.jpg
1728.162	3.265	1	navigation	Trial3	navigation/STIM_009.jpg
1734.332	1.702	1	navigation	Trial3	navigation/STIM_009.jpg
1739.381	3.178	1	navigation	Trial3	navigation/STIM_009.jpg
1745.309	2.381	0	navigation	Trial3	navigation/STIM_009.jpg
1751.021	1.606	1	navigation	Trial3	navigation/STIM_010.jpg
1754.85	2.183	1	navigation	Trial3	navigation/STIM_010.jpg
1760.993	2.514	1	navigation	Trial3	navigation/STIM_010.jpg
1766.19	1.386	1	navigation	Trial3	navigation/STIM_010.jpg
1770.723	3.139	1	navigation	Trial3	navigation/STIM_010.jpg
1777.157	1.995	1	navigation	Trial3	navigation/STIM_010.jpg
1781.686	2.171	1	navigation	Trial3	navigation/STIM_011.jpg
1786.638	1.818	1	navigation	Trial3	navigation/STIM_011.jpg
1790.552	2.42	0	navigation	Trial3	navigation/STIM_011.jpg
1795.304	2.142	1	navigation	Trial3	navigation/STIM_011.jpg
1801.093	1.817	1	navigation	Trial3	navigation/STIM_011.jpg
1805.321	1.367	1	navigation	Trial3	navigation/STIM_011.jpg
1809.532	1.39	1	pointing	Trial3	pointing/STIM_000.jpg
1813.67	1.079	1	pointing	Trial3	pointing/STIM_000.jpg
1817.186	1.214	1	pointing	Trial3	pointing/STIM_000.jpg
1821.041	1.403	0	pointing	Trial3	pointing/STIM_000.jpg
1825.981	1.338	1	pointing	Trial3	pointing/STIM_000.jpg
1831.318	0.766	1	pointing	Trial3	pointing/STIM_000.jpg
1835.406	0.895	1	pointing	Trial3	pointing/STIM_001.jpg
1839.659	1.291	1	pointing	Trial3	pointing/STIM_001.jpg
1843.157	0.853	1	pointing	Trial3	pointing/STIM_001.jpg
1847.692	1.358	1	pointing	Trial3	pointing/STIM_001.jpg
1852.828	1.213	1	pointing	Trial3	pointing/STIM_001.jpg
1856.591	1.0	1	pointing	Trial3	pointing/STIM_001.jpg
1860.151	1.109	1	pointing	Trial3	pointing/STIM_002.jpg
1863.543	0.894	1	pointing	Trial3	pointing/STIM_002.jpg
1867.082	0.985	1	pointing	Trial3	pointing/STIM_002.jpg
1870.389	1.135	1	pointing	Trial3	pointing/STIM_002.jpg
1874.274	1.058	1	pointing	Trial3	pointing/STIM_002.jpg
1878.631	1.224	1	pointing	Trial3	pointing/STIM_002.jpg
1882.217	1.394	1	pointing	Trial3	pointing/STIM_003.jpg
1887.103	1.229	1	pointing	Trial3	pointing/STIM_003.jpg
1892.103	1.348	1	pointing	Trial3	pointing/STIM_003.jpg
1896.009	1.176	1	pointing	Trial3	pointing/STIM_003.jpg
1899.312	1.276	1	pointing	Trial3	pointing/STIM_003.jpg
1903.811	1.3	1	pointing	Trial3	pointing/STIM_003.jpg
1908.514	0.801	0	pointing	Trial3	pointing/STIM_004.jpg
1912.384	0.964	1	pointing	Trial3	pointing/STIM_004.jpg
1915.709	0.913	1	pointing	Trial3	pointing/STIM_004.jpg
1920.467	1.367	1	pointing	Trial3	pointing/STIM_004.jpg
1924.317	0.995	1	pointing	Trial3	pointing/STIM_004.jpg
1927.816	1.349	1	pointing	Trial3	pointing/STIM_004.jpg
1931.431	1.157	0	pointing	Trial3	pointing/STIM_005.jpg
1935.733	1.173	1	pointing	Trial3	pointing/STIM_005.jpg
1939.648	1.317	1	pointing	Trial3	pointing/STIM_005.jpg
1944.203	1.166	1	pointing	Trial3	pointing/STIM_005.jpg
1947.454	1.283	1	pointing	Trial3	pointing/STIM_005.jpg
1951.617	1.352	1	pointing	Trial3	pointing/STIM_005.jpg
1956.65	1.366	1	pointing	Trial3	pointing/STIM_006.jpg
1961.813	1.22	1	pointing	Trial3	pointing/STIM_006.jpg
1965.237	0.95	1	pointing	Trial3	pointing/STIM_006.jpg
1968.304	1.362	1	pointing	Trial3	pointing/STIM_006.jpg
1971.791	0.932	1	pointing	Trial3	pointing/STIM_006.jpg
1975.832	1.354	1	pointing	Trial3	pointing/STIM_006.jpg
1980.544	0.968	1	pointing	Trial3	pointing/STIM_007.jpg
1983.972	0.785	1	pointing	Trial3	pointing/STIM_007.jpg
1986.98	0.938	1	pointing	Trial3	pointing/STIM_007.jpg
1991.575	0.777	1	pointing	Trial3	pointing/STIM_007.jpg
1994.643	1.075	1	pointing	Trial3	pointing/STIM_007.jpg
1999.412	0.806	1	pointing	Trial3	pointing/STIM_007.jpg
2002.982	1.308	1	pointing	Trial3	pointing/STIM_008.jpg
2007.502	1.198	1	pointing	Trial3	pointing/STIM_008.jpg
2012.03	0.881	1	pointing	Trial3	pointing/STIM_008.jpg
2016.423	1.08	1	pointing	Trial3	pointing/STIM_008.jpg
2019.618	1.103	1	pointing	Trial3	pointing/STIM_008.jpg
2024.277	1.042	1	pointing	Trial3	pointing/STIM_008.jpg
2027.426	1.024	1	pointing	Trial3	pointing/STIM_009.jpg
2031.866	1.399	1	pointing	Trial3	pointing/STIM_009.jpg
2035.871	0.782	1	pointing	Trial3	pointing/STIM_009.jpg
2038.854	0.877	1	pointing	Trial3	pointing/STIM_009.jpg
2043.454	1.138	1	pointing	Trial3	pointing/STIM_009.jpg
2046.824	0.775	1	pointing	Trial3	pointing/STIM_009.jpg
2050.1	0.913	1	pointing	Trial3	pointing/STIM_010.jpg
2053.338	0.936	1	pointing	Trial3	pointing/STIM_010.jpg
2056.88	1.392	1	pointing	Trial3	pointing/STIM_010.jpg
2060.465	1.251	1	pointing	Trial3	pointing/STIM_010.jpg
2064.167	1.258	1	pointing	Trial3	pointing/STIM_010.jpg
2067.493	1.328	1	pointing	Trial3	pointing/STIM_010.jpg
2071.241	0.907	1	pointing	Trial3	pointing/STIM_011.jpg
2075.198	0.904	1	pointing	Trial3	pointing/STIM_011.jpg
2078.705	1.148	1	pointing	Trial3	pointing/STIM_011.jpg
2082.372	1.117	1	pointing	Trial3	pointing/STIM_011.jpg
2085.645	1.062	1	pointing	Trial3	pointing/STIM_011.jpg
2089.637	1.216	1	pointing	Trial3	pointing/STIM_011.jpg
