onset	duration	response_time_ms	trial_type	learning_stage	stimulus	response_port
0.0	4.734	4734.1	navigation	Trial1	navigation/STIM_000.jpg	100
7.262	4.23	4230.4	navigation	Trial1	navigation/STIM_000.jpg	100
14.48	1.763	1763.4	navigation	Trial1	navigation/STIM_000.jpg	100
18.985	2.628	2627.7	navigation	Trial1	navigation/STIM_000.jpg	100
24.899	3.669	3669.2	navigation	Trial1	navigation/STIM_000.jpg	100
31.704	2.273	2272.6	navigation	Trial1	navigation/STIM_000.jpg	100
36.284	3.384	3383.7	navigation	Trial1	navigation/STIM_001.jpg	99
41.977	3.387	3387.3	navigation	Trial1	navigation/STIM_001.jpg	100
48.489	3.06	3059.8	navigation	Trial1	navigation/STIM_001.jpg	99
54.02	3.582	3581.7	navigation	Trial1	navigation/STIM_001.jpg	99
60.651	2.577	2576.8	navigation	Trial1	navigation/STIM_001.jpg	99
65.349	3.313	3313.0	navigation	Trial1	navigation/STIM_001.jpg	99
71.884	4.103	4102.7	navigation	Trial1	navigation/STIM_002.jpg	100
79.024	2.114	2114.3	navigation	Trial1	navigation/STIM_002.jpg	99
83.995	1.841	1841.0	navigation	Trial1	navigation/STIM_002.jpg	99
88.947	2.226	2226.4	navigation	Trial1	navigation/STIM_002.jpg	99
95.007	2.915	2914.6	navigation	Trial1	navigation/STIM_002.jpg	100
100.917	2.86	2859.9	navigation	Trial1	navigation/STIM_002.jpg	100
107.633	3.262	3261.7	navigation	Trial1	navigation/STIM_003.jpg	100
113.548	2.301	2300.9	navigation	Trial1	navigation/STIM_003.jpg	99
119.085	2.478	2477.8	navigation	Trial1	navigation/STIM_003.jpg	99
123.875	3.538	3538.1	navigation	Trial1	navigation/STIM_003.jpg	100
131.232	3.549	3548.6	navigation	Trial1	navigation/STIM_003.jpg	100
138.511	2.382	2382.3	navigation	Trial1	navigation/STIM_003.jpg	99
143.763	4.436	4436.3	navigation	Trial1	navigation/STIM_004.jpg	100
150.811	4.119	4118.6	navigation	Trial1	navigation/STIM_004.jpg	99
158.15	3.524	3524.5	navigation	Trial1	navigation/STIM_004.jpg	100
164.818	1.902	1901.6	navigation	Trial1	navigation/STIM_004.jpg	100
169.092	1.602	1602.0	navigation	Trial1	navigation/STIM_004.jpg	99
173.106	2.443	2442.9	navigation	Trial1	navigation/STIM_004.jpg	99
178.865	2.668	2668.3	navigation	Trial1	navigation/STIM_005.jpg	99
184.875	2.568	2568.2	navigation	Trial1	navigation/STIM_005.jpg	99
190.327	4.046	4046.2	navigation	Trial1	navigation/STIM_005.jpg	99
198.315	2.099	2099.3	navigation	Trial1	navigation/STIM_005.jpg	99
204.027	2.946	2945.9	navigation	Trial1	navigation/STIM_005.jpg	99
209.217	2.222	2222.5	navigation	Trial1	navigation/STIM_005.jpg	99
213.616	4.539	4539.4	navigation	Trial1	navigation/STIM_006.jpg	100
220.401	3.85	3850.5	navigation	Trial1	navigation/STIM_006.jpg	100
226.275	3.41	3409.5	navigation	Trial1	navigation/STIM_006.jpg	100
232.642	3.976	3976.1	navigation	Trial1	navigation/STIM_006.jpg	99
238.69	3.176	3175.8	navigation	Trial1	navigation/STIM_006.jpg	100
244.424	3.504	3504.5	navigation	Trial1	navigation/STIM_006.jpg	99
250.162	3.023	3023.4	navigation	Trial1	navigation/STIM_007.jpg	99
255.938	2.365	2364.9	navigation	Trial1	navigation/STIM_007.jpg	100
262.122	3.776	3775.8	navigation	Trial1	navigation/STIM_007.jpg	100
269.491	3.34	3340.5	navigation	Trial1	navigation/STIM_007.jpg	100
276.024	3.562	3562.5	navigation	Trial1	navigation/STIM_007.jpg	100
283.356	3.48	3480.3	navigation	Trial1	navigation/STIM_007.jpg	100
290.742	4.71	4709.8	navigation	Trial1	navigation/STIM_008.jpg	100
297.624	1.848	1847.5	navigation	Trial1	navigation/STIM_008.jpg	99
302.818	3.527	3527.1	navigation	Trial1	navigation/STIM_008.jpg	100
309.906	3.808	3808.1	navigation	Trial1	navigation/STIM_008.jpg	100
317.378	3.155	3154.9	navigation	Trial1	navigation/STIM_008.jpg	99
323.32	2.594	2594.2	navigation	Trial1	navigation/STIM_008.jpg	99
328.002	4.688	4688.3	navigation	Trial1	navigation/STIM_009.jpg	100
334.869	3.466	3466.2	navigation	Trial1	navigation/STIM_009.jpg	99
342.194	3.356	3355.9	navigation	Trial1	navigation/STIM_009.jpg	100
348.319	3.272	3272.3	navigation	Trial1	navigation/STIM_009.jpg	100
354.219	1.664	1663.5	navigation	Trial1	navigation/STIM_009.jpg	99
358.41	1.525	1524.8	navigation	Trial1	navigation/STIM_009.jpg	99
362.962	3.028	3028.2	navigation	Trial1	navigation/STIM_010.jpg	100
368.824	3.692	3691.5	navigation	Trial1	navigation/STIM_010.jpg	99
375.028	3.074	3074.2	navigation	Trial1	navigation/STIM_010.jpg	99
380.73	3.023	3022.7	navigation	Trial1	navigation/STIM_010.jpg	100
387.443	3.06	3059.5	navigation	Trial1	navigation/STIM_010.jpg	100
393.164	1.493	1492.6	navigation	Trial1	navigation/STIM_010.jpg	99
398.498	3.095	3095.4	navigation	Trial1	navigation/STIM_011.jpg	100
405.334	2.943	2942.9	navigation	Trial1	navigation/STIM_011.jpg	100
410.992	2.438	2438.3	navigation	Trial1	navigation/STIM_011.jpg	99
416.815	3.324	3323.6	navigation	Trial1	navigation/STIM_011.jpg	100
423.438	1.965	1965.2	navigation	Trial1	navigation/STIM_011.jpg	100
428.105	1.955	1955.2	navigation	Trial1	navigation/STIM_011.jpg	99
433.761	1.138	1138.0	pointing	Trial1	pointing/STIM_000.jpg	100
438.104	1.284	1283.9	pointing	Trial1	pointing/STIM_000.jpg	99
441.848	0.812	812.5	pointing	Trial1	pointing/STIM_000.jpg	100
446.114	0.778	778.5	pointing	Trial1	pointing/STIM_000.jpg	100
449.969	0.76	759.5	pointing	Trial1	pointing/STIM_000.jpg	100
452.996	0.779	778.8	pointing	Trial1	pointing/STIM_000.jpg	100
456.405	1.192	1192.4	pointing	Trial1	pointing/STIM_001.jpg	99
461.039	1.112	1112.5	pointing	Trial1	pointing/STIM_001.jpg	99
465.729	1.421	1420.9	pointing	Trial1	pointing/STIM_001.jpg	100
470.577	1.277	1277.0	pointing	Trial1	pointing/STIM_001.jpg	99
475.077	0.965	964.7	pointing	Trial1	pointing/STIM_001.jpg	99
478.431	1.351	1350.9	pointing	Trial1	pointing/STIM_001.jpg	99
483.604	1.197	1196.8	pointing	Trial1	pointing/STIM_002.jpg	100
488.116	1.067	1066.9	pointing	Trial1	pointing/STIM_002.jpg	100
492.355	1.006	1006.1	pointing	Trial1	pointing/STIM_002.jpg	99
496.816	1.332	1332.4	pointing	Trial1	pointing/STIM_002.jpg	99
500.275	1.381	1381.2	pointing	Trial1	pointing/STIM_002.jpg	100
504.249	0.987	987.1	pointing	Trial1	pointing/STIM_002.jpg	99
508.766	1.343	1342.6	pointing	Trial1	pointing/STIM_003.jpg	99
513.906	0.88	879.8	pointing	Trial1	pointing/STIM_003.jpg	100
518.04	0.82	820.2	pointing	Trial1	pointing/STIM_003.jpg	99
521.501	1.245	1245.3	pointing	Trial1	pointing/STIM_003.jpg	99
526.311	1.395	1395.1	pointing	Trial1	pointing/STIM_003.jpg	99
530.004	1.406	1406.3	pointing	Trial1	pointing/STIM_003.jpg	99
534.525	1.114	1114.3	pointing	Trial1	pointing/STIM_004.jpg	100
539.567	1.031	1031.2	pointing	Trial1	pointing/STIM_004.jpg	100
543.543	0.851	850.6	pointing	Trial1	pointing/STIM_004.jpg	100
547.032	1.005	1005.4	pointing	Trial1	pointing/STIM_004.jpg	99
551.076	1.162	1161.5	pointing	Trial1	pointing/STIM_004.jpg	99
554.587	0.872	872.2	pointing	Trial1	pointing/STIM_004.jpg	99
558.189	1.307	1307.4	pointing	Trial1	pointing/STIM_005.jpg	100
562.991	0.909	908.7	pointing	Trial1	pointing/STIM_005.jpg	99
567.57	1.39	1390.0	pointing	Trial1	pointing/STIM_005.jpg	100
572.659	0.987	987.1	pointing	Trial1	pointing/STIM_005.jpg	99
577.51	1.398	1398.1	pointing	Trial1	pointing/STIM_005.jpg	99
580.995	1.309	1309.2	pointing	Trial1	pointing/STIM_005.jpg	100
586.087	0.945	944.6	pointing	Trial1	pointing/STIM_006.jpg	100
589.302	1.281	1281.0	pointing	Trial1	pointing/STIM_006.jpg	99
594.531	1.208	1207.6	pointing	Trial1	pointing/STIM_006.jpg	100
599.562	0.935	935.4	pointing	Trial1	pointing/STIM_006.jpg	100
603.538	0.796	795.6	pointing	Trial1	pointing/STIM_006.jpg	100
606.962	1.245	1244.7	pointing	Trial1	pointing/STIM_006.jpg	100
612.037	1.257	1257.0	pointing	Trial1	pointing/STIM_007.jpg	99
615.914	1.045	1045.4	pointing	Trial1	pointing/STIM_007.jpg	100
619.255	1.304	1304.4	pointing	Trial1	pointing/STIM_007.jpg	99
623.076	1.285	1285.4	pointing	Trial1	pointing/STIM_007.jpg	100
627.779	0.922	922.5	pointing	Trial1	pointing/STIM_007.jpg	100
632.526	0.903	903.1	pointing	Trial1	pointing/STIM_007.jpg	100
636.411	1.132	1132.1	pointing	Trial1	pointing/STIM_008.jpg	100
639.775	1.07	1070.0	pointing	Trial1	pointing/STIM_008.jpg	100
643.937	1.41	1410.2	pointing	Trial1	pointing/STIM_008.jpg	100
649.137	1.206	1206.4	pointing	Trial1	pointing/STIM_008.jpg	100
653.238	1.396	1396.5	pointing	Trial1	pointing/STIM_008.jpg	99
657.813	0.96	960.0	pointing	Trial1	pointing/STIM_008.jpg	99
662.365	1.406	1405.6	pointing	Trial1	pointing/STIM_009.jpg	99
665.796	1.162	1162.3	pointing	Trial1	pointing/STIM_009.jpg	100
669.734	1.058	1058.1	pointing	Trial1	pointing/STIM_009.jpg	100
674.236	0.899	899.3	pointing	Trial1	pointing/STIM_009.jpg	100
677.303	1.128	1128.2	pointing	Trial1	pointing/STIM_009.jpg	99
681.114	0.772	771.9	pointing	Trial1	pointing/STIM_009.jpg	99
685.761	1.37	1369.9	pointing	Trial1	pointing/STIM_010.jpg	99
689.437	1.059	1058.9	pointing	Trial1	pointing/STIM_010.jpg	99
693.385	1.389	1389.1	pointing	Trial1	pointing/STIM_010.jpg	99
697.257	0.944	943.7	pointing	Trial1	pointing/STIM_010.jpg	99
700.781	1.193	1192.6	pointing	Trial1	pointing/STIM_010.jpg	99
704.588	1.091	1091.4	pointing	Trial1	pointing/STIM_010.jpg	100
707.993	1.033	1032.6	pointing	Trial1	pointing/STIM_011.jpg	99
711.955	0.889	888.7	pointing	Trial1	pointing/STIM_011.jpg	100
716.79	0.786	785.7	pointing	Trial1	pointing/STIM_011.jpg	100
719.79	1.356	1356.3	pointing	Trial1	pointing/STIM_011.jpg	100
723.982	0.92	920.5	pointing	Trial1	pointing/STIM_011.jpg	99
728.877	0.828	827.6	pointing	Trial1	pointing/STIM_011.jpg	100
732.403	2.432	2432.5	navigation	Trial2	navigation/STIM_000.jpg	100
737.672	1.778	1777.7	navigation	Trial2	navigation/STIM_000.jpg	100
741.585	1.97	1970.5	navigation	Trial2	navigation/STIM_000.jpg	99
746.827	2.505	2505.2	navigation	Trial2	navigation/STIM_000.jpg	99
751.48	1.342	1342.0	navigation	Trial2	navigation/STIM_000.jpg	99
756.096	3.261	3261.4	navigation	Trial2	navigation/STIM_000.jpg	100
762.735	3.46	3460.1	navigation	Trial2	navigation/STIM_001.jpg	99
769.038	2.491	2491.3	navigation	Trial2	navigation/STIM_001.jpg	99
774.075	2.941	2940.8	navigation	Trial2	navigation/STIM_001.jpg	100
780.018	1.695	1695.4	navigation	Trial2	navigation/STIM_001.jpg	100
783.859	1.418	1417.8	navigation	Trial2	navigation/STIM_001.jpg	100
789.159	2.566	2566.1	navigation	Trial2	navigation/STIM_001.jpg	99
793.878	3.92	3919.8	navigation	Trial2	navigation/STIM_002.jpg	100
799.798	2.938	2937.6	navigation	Trial2	navigation/STIM_002.jpg	99
805.817	2.318	2317.5	navigation	Trial2	navigation/STIM_002.jpg	100
811.776	2.189	2189.4	navigation	Trial2	navigation/STIM_002.jpg	99
817.82	2.191	2190.6	navigation	Trial2	navigation/STIM_002.jpg	100
822.656	2.349	2349.4	navigation	Trial2	navigation/STIM_002.jpg	100
828.405	2.636	2636.1	navigation	Trial2	navigation/STIM_003.jpg	100
833.416	2.421	2420.7	navigation	Trial2	navigation/STIM_003.jpg	100
839.744	3.07	3070.2	navigation	Trial2	navigation/STIM_003.jpg	99
845.49	2.704	2703.5	navigation	Trial2	navigation/STIM_003.jpg	99
851.248	1.492	1491.5	navigation	Trial2	navigation/STIM_003.jpg	100
856.654	2.84	2839.5	navigation	Trial2	navigation/STIM_003.jpg	99
862.113	3.414	3413.8	navigation	Trial2	navigation/STIM_004.jpg	100
868.631	2.126	2126.3	navigation	Trial2	navigation/STIM_004.jpg	100
873.63	2.058	2058.3	navigation	Trial2	navigation/STIM_004.jpg	100
878.44	1.684	1684.4	navigation	Trial2	navigation/STIM_004.jpg	99
883.056	2.008	2008.2	navigation	Trial2	navigation/STIM_004.jpg	100
888.135	1.723	1722.8	navigation	Trial2	navigation/STIM_004.jpg	100
892.972	1.802	1802.3	navigation	Trial2	navigation/STIM_005.jpg	99
898.361	2.704	2703.9	navigation	Trial2	navigation/STIM_005.jpg	99
903.957	3.135	3135.4	navigation	Trial2	navigation/STIM_005.jpg	100
910.416	2.961	2961.2	navigation	Trial2	navigation/STIM_005.jpg	99
916.756	2.967	2966.6	navigation	Trial2	navigation/STIM_005.jpg	100
922.16	2.801	2801.3	navigation	Trial2	navigation/STIM_005.jpg	100
927.909	3.138	3137.7	navigation	Trial2	navigation/STIM_006.jpg	100
934.986	2.986	2986.0	navigation	Trial2	navigation/STIM_006.jpg	100
940.713	1.521	1521.0	navigation	Trial2	navigation/STIM_006.jpg	100
945.889	1.488	1488.5	navigation	Trial2	navigation/STIM_006.jpg	100
950.059	2.629	2629.0	navigation	Trial2	navigation/STIM_006.jpg	100
956.512	2.69	2689.5	navigation	Trial2	navigation/STIM_006.jpg	99
962.222	2.795	2794.6	navigation	Trial2	navigation/STIM_007.jpg	99
967.248	3.024	3024.4	navigation	Trial2	navigation/STIM_007.jpg	99
973.967	2.124	2124.2	navigation	Trial2	navigation/STIM_007.jpg	99
979.81	2.934	2933.9	navigation	Trial2	navigation/STIM_007.jpg	100
986.564	1.411	1410.8	navigation	Trial2	navigation/STIM_007.jpg	100
991.131	2.079	2079.3	navigation	Trial2	navigation/STIM_007.jpg	100
997.035	2.604	2604.1	navigation	Trial2	navigation/STIM_008.jpg	100
1003.172	3.295	3295.4	navigation	Trial2	navigation/STIM_008.jpg	100
1009.53	1.728	1728.5	navigation	Trial2	navigation/STIM_008.jpg	100
1014.649	1.749	1748.9	navigation	Trial2	navigation/STIM_008.jpg	100
1019.412	3.197	3196.7	navigation	Trial2	navigation/STIM_008.jpg	100
1025.648	2.21	2209.7	navigation	Trial2	navigation/STIM_008.jpg	99
1030.291	3.72	3720.0	navigation	Trial2	navigation/STIM_009.jpg	100
1037.146	2.377	2377.0	navigation	Trial2	navigation/STIM_009.jpg	100
1041.982	3.509	3508.8	navigation	Trial2	navigation/STIM_009.jpg	100
1047.997	3.248	3247.7	navigation	Trial2	navigation/STIM_009.jpg	99
1055.226	2.54	2540.5	navigation	Trial2	navigation/STIM_009.jpg	100
1061.682	2.637	2636.6	navigation	Trial2	navigation/STIM_009.jpg	100
1067.768	2.243	2242.9	navigation	Trial2	navigation/STIM_010.jpg	99
1072.394	2.849	2849.0	navigation	Trial2	navigation/STIM_010.jpg	99
1079.058	2.829	2828.7	navigation	Trial2	navigation/STIM_010.jpg	99
1084.701	2.42	2419.9	navigation	Trial2	navigation/STIM_010.jpg	100
1091.075	1.54	1540.3	navigation	Trial2	navigation/STIM_010.jpg	100
1096.122	2.266	2266.1	navigation	Trial2	navigation/STIM_010.jpg	99
1100.798	2.536	2535.6	navigation	Trial2	navigation/STIM_011.jpg	99
1106.139	2.659	2658.8	navigation	Trial2	navigation/STIM_011.jpg	99
1111.76	2.652	2652.2	navigation	Trial2	navigation/STIM_011.jpg	99
1116.832	2.608	2608.2	navigation	Trial2	navigation/STIM_011.jpg	99
1122.737	2.036	2036.1	navigation	Trial2	navigation/STIM_011.jpg	100
1127.776	2.141	2141.2	navigation	Trial2	navigation/STIM_011.jpg	100
1133.238	1.257	1256.9	pointing	Trial2	pointing/STIM_000.jpg	99
1137.504	1.151	1151.0	pointing	Trial2	pointing/STIM_000.jpg	100
1140.982	1.381	1380.7	pointing	Trial2	pointing/STIM_000.jpg	100
1144.896	1.115	1114.6	pointing	Trial2	pointing/STIM_000.jpg	100
1148.752	1.312	1311.8	pointing	Trial2	pointing/STIM_000.jpg	99
1152.423	0.962	961.6	pointing	Trial2	pointing/STIM_000.jpg	100
1156.178	1.252	1252.1	pointing	Trial2	pointing/STIM_001.jpg	100
1160.813	1.032	1032.0	pointing	Trial2	pointing/STIM_001.jpg	99
1163.848	1.224	1224.3	pointing	Trial2	pointing/STIM_001.jpg	100
1168.637	0.772	771.9	pointing	Trial2	pointing/STIM_001.jpg	99
1171.728	0.941	940.8	pointing	Trial2	pointing/STIM_001.jpg	100
1175.836	1.215	1215.0	pointing	Trial2	pointing/STIM_001.jpg	99
1179.771	0.97	970.0	pointing	Trial2	pointing/STIM_002.jpg	99
1183.753	1.398	1397.6	pointing	Trial2	pointing/STIM_002.jpg	100
1188.811	1.192	1192.2	pointing	Trial2	pointing/STIM_002.jpg	100
1192.09	1.094	1094.4	pointing	Trial2	pointing/STIM_002.jpg	99
1196.682	0.892	892.3	pointing	Trial2	pointing/STIM_002.jpg	99
1201.424	1.12	1119.7	pointing	Trial2	pointing/STIM_002.jpg	99
1205.982	1.113	1112.9	pointing	Trial2	pointing/STIM_003.jpg	99
1210.672	1.118	1117.6	pointing	Trial2	pointing/STIM_003.jpg	100
1214.787	1.277	1276.6	pointing	Trial2	pointing/STIM_003.jpg	100
1219.257	1.262	1262.4	pointing	Trial2	pointing/STIM_003.jpg	99
1224.015	0.837	837.2	pointing	Trial2	pointing/STIM_003.jpg	100
1227.454	0.819	819.4	pointing	Trial2	pointing/STIM_003.jpg	100
1231.076	1.246	1246.3	pointing	Trial2	pointing/STIM_004.jpg	99
1236.076	1.132	1132.5	pointing	Trial2	pointing/STIM_004.jpg	100
1239.233	1.372	1372.4	pointing	Trial2	pointing/STIM_004.jpg	100
1243.862	1.177	1176.6	pointing	Trial2	pointing/STIM_004.jpg	100
1248.239	0.885	885.2	pointing	Trial2	pointing/STIM_004.jpg	100
1251.388	1.149	1149.4	pointing	Trial2	pointing/STIM_004.jpg	100
1256.475	1.014	1014.4	pointing	Trial2	pointing/STIM_005.jpg	99
1259.85	0.997	997.0	pointing	Trial2	pointing/STIM_005.jpg	99
1263.282	1.213	1212.6	pointing	Trial2	pointing/STIM_005.jpg	100
1267.237	1.121	1120.8	pointing	Trial2	pointing/STIM_005.jpg	100
1271.959	1.381	1380.9	pointing	Trial2	pointing/STIM_005.jpg	99
1275.889	1.272	1271.5	pointing	Trial2	pointing/STIM_005.jpg	99
1280.244	0.798	798.3	pointing	Trial2	pointing/STIM_006.jpg	100
1284.215	1.001	1001.3	pointing	Trial2	pointing/STIM_006.jpg	100
1288.264	0.883	883.0	pointing	Trial2	pointing/STIM_006.jpg	99
1292.925	0.83	829.8	pointing	Trial2	pointing/STIM_006.jpg	99
1296.548	0.855	855.2	pointing	Trial2	pointing/STIM_006.jpg	99
1300.399	1.32	1319.8	pointing	Trial2	pointing/STIM_006.jpg	100
1304.977	1.137	1136.9	pointing	Trial2	pointing/STIM_007.jpg	99
1308.737	1.418	1418.3	pointing	Trial2	pointing/STIM_007.jpg	99
1313.946	1.072	1071.5	pointing	Trial2	pointing/STIM_007.jpg	100
1317.475	0.952	952.1	pointing	Trial2	pointing/STIM_007.jpg	100
1320.563	1.096	1095.9	pointing	Trial2	pointing/STIM_007.jpg	100
1324.897	0.977	977.1	pointing	Trial2	pointing/STIM_007.jpg	99
1328.828	1.264	1264.2	pointing	Trial2	pointing/STIM_008.jpg	99
1333.799	1.127	1127.4	pointing	Trial2	pointing/STIM_008.jpg	100
1338.726	1.257	1256.7	pointing	Trial2	pointing/STIM_008.jpg	99
1342.181	1.073	1073.3	pointing	Trial2	pointing/STIM_008.jpg	100
1346.909	1.171	1170.8	pointing	Trial2	pointing/STIM_008.jpg	99
1350.818	1.238	1237.9	pointing	Trial2	pointing/STIM_008.jpg	100
1354.762	0.861	861.1	pointing	Trial2	pointing/STIM_009.jpg	99
1358.711	1.087	1086.6	pointing	Trial2	pointing/STIM_009.jpg	99
1363.38	0.825	825.0	pointing	Trial2	pointing/STIM_009.jpg	99
1367.438	0.97	970.3	pointing	Trial2	pointing/STIM_009.jpg	100
1371.325	1.198	1197.5	pointing	Trial2	pointing/STIM_009.jpg	99
1375.372	0.894	893.7	pointing	Trial2	pointing/STIM_009.jpg	100
1378.728	0.808	808.1	pointing	Trial2	pointing/STIM_010.jpg	100
1381.698	0.939	939.2	pointing	Trial2	pointing/STIM_010.jpg	100
1386.294	1.144	1144.3	pointing	Trial2	pointing/STIM_010.jpg	100
1391.135	0.78	779.7	pointing	Trial2	pointing/STIM_010.jpg	99
1395.402	0.968	968.5	pointing	Trial2	pointing/STIM_010.jpg	100
1399.791	1.412	1411.6	pointing	Trial2	pointing/STIM_010.jpg	99
1404.662	0.96	959.9	pointing	Trial2	pointing/STIM_011.jpg	99
1408.138	1.142	1141.9	pointing	Trial2	pointing/STIM_011.jpg	99
1411.535	0.874	873.6	pointing	Trial2	pointing/STIM_011.jpg	99
1414.78	1.358	1358.5	pointing	Trial2	pointing/STIM_011.jpg	100
1419.004	1.404	1404.1	pointing	Trial2	pointing/STIM_011.jpg	100
1422.522	1.324	1323.8	pointing	Trial2	pointing/STIM_011.jpg	100
1426.397	2.069	2069.2	navigation	Trial3	navigation/STIM_000.jpg	99
1431.45	1.8	1799.5	navigation	Trial3	navigation/STIM_000.jpg	99
1436.047	1.464	1463.7	navigation	Trial3	navigation/STIM_000.jpg	100
1440.696	3.08	3079.6	navigation	Trial3	navigation/STIM_000.jpg	99
1446.938	2.864	2863.7	navigation	Trial3	navigation/STIM_000.jpg	100
1453.056	2.712	2712.3	navigation	Trial3	navigation/STIM_000.jpg	99
1458.168	2.56	2560.5	navigation	Trial3	navigation/STIM_001.jpg	99
1462.963	2.461	2460.6	navigation	Trial3	navigation/STIM_001.jpg	99
1468.677	2.994	2993.6	navigation	Trial3	navigation/STIM_001.jpg	100
1474.568	1.374	1373.9	navigation	Trial3	navigation/STIM_001.jpg	99
1479.35	1.756	1756.0	navigation	Trial3	navigation/STIM_001.jpg	99
1484.075	2.09	2090.4	navigation	Trial3	navigation/STIM_001.jpg	100
1489.076	3.124	3124.2	navigation	Trial3	navigation/STIM_002.jpg	100
1494.379	2.496	2495.5	navigation	Trial3	navigation/STIM_002.jpg	99
1498.891	2.814	2814.1	navigation	Trial3	navigation/STIM_002.jpg	99
1504.802	2.842	2842.2	navigation	Trial3	navigation/STIM_002.jpg	99
1511.104	3.261	3260.8	navigation	Trial3	navigation/STIM_002.jpg	99
1517.376	3.261	3260.8	navigation	Trial3	navigation/STIM_002.jpg	100
1524.61	3.32	3319.6	navigation	Trial3	navigation/STIM_003.jpg	99
1531.851	3.268	3267.6	navigation	Trial3	navigation/STIM_003.jpg	99
1538.021	1.928	1927.5	navigation	Trial3	navigation/STIM_003.jpg	100
1543.659	1.372	1372.4	navigation	Trial3	navigation/STIM_003.jpg	99
1548.268	3.186	3185.6	navigation	Trial3	navigation/STIM_003.jpg	100
1554.601	2.713	2712.6	navigation	Trial3	navigation/STIM_003.jpg	100
1559.883	2.164	2164.1	navigation	Trial3	navigation/STIM_004.jpg	100
1564.289	1.542	1542.1	navigation	Trial3	navigation/STIM_004.jpg	100
1568.086	3.119	3118.8	navigation	Trial3	navigation/STIM_004.jpg	99
1574.727	2.462	2461.5	navigation	Trial3	navigation/STIM_004.jpg	99
1580.082	3.078	3078.0	navigation	Trial3	navigation/STIM_004.jpg	99
1585.503	2.24	2239.6	navigation	Trial3	navigation/STIM_004.jpg	100
1590.257	1.343	1343.1	navigation	Trial3	navigation/STIM_005.jpg	100
1594.744	1.611	1611.1	navigation	Trial3	navigation/STIM_005.jpg	99
1599.424	1.343	1343.4	navigation	Trial3	navigation/STIM_005.jpg	99
1604.35	2.245	2244.7	navigation	Trial3	navigation/STIM_005.jpg	100
1609.528	1.613	1613.4	navigation	Trial3	navigation/STIM_005.jpg	100
1614.672	3.287	3287.2	navigation	Trial3	navigation/STIM_005.jpg	99
1619.993	3.266	3265.7	navigation	Trial3	navigation/STIM_006.jpg	99
1625.843	2.612	2611.8	navigation	Trial3	navigation/STIM_006.jpg	99
1631.716	1.424	1423.8	navigation	Trial3	navigation/STIM_006.jpg	100
1635.528	1.977	1976.6	navigation	Trial3	navigation/STIM_006.jpg	100
1640.465	2.649	2649.3	navigation	Trial3	navigation/STIM_006.jpg	99
1646.077	2.926	2926.3	navigation	Trial3	navigation/STIM_006.jpg	99
1652.74	2.678	2678.2	navigation	Trial3	navigation/STIM_007.jpg	100
1658.179	2.145	2144.8	navigation	Trial3	navigation/STIM_007.jpg	100
1662.844	1.574	1574.5	navigation	Trial3	navigation/STIM_007.jpg	100
1668.004	2.709	2709.4	navigation	Trial3	navigation/STIM_007.jpg	99
1673.833	3.32	3319.9	navigation	Trial3	navigation/STIM_007.jpg	100
1680.349	2.595	2595.1	navigation	Trial3	navigation/STIM_007.jpg	99
1685.568	1.411	1411.1	navigation	Trial3	navigation/STIM_008.jpg	99
1689.033	2.278	2278.2	navigation	Trial3	navigation/STIM_008.jpg	100
1694.493	3.086	3085.7	navigation	Trial3	navigation/STIM_008.jpg	99
1700.315	2.748	2748.3	navigation	Trial3	navigation/STIM_008.jpg	99
1706.273	2.139	2139.3	navigation	Trial3	navigation/STIM_008.jpg	100
1711.657	2.676	2675.9	navigation	Trial3	navigation/STIM_008.jpg	99
1717.277	1.559	1559.2	navigation	Trial3	navigation/STIM_009.jpg	99
1722.711	2.321	2321.4	navigation	Trial3	navigation/STIM_009.jpg	100
1728.162	3.265	3264.9	navigation	Trial3	navigation/STIM_009.jpg	100
1734.332	1.702	1701.5	navigation	Trial3	navigation/STIM_009.jpg	100
1739.381	3.178	3178.1	navigation	Trial3	navigation/STIM_009.jpg	100
1745.309	2.381	2381.4	navigation	Trial3	navigation/STIM_009.jpg	100
1751.021	1.606	1606.0	navigation	Trial3	navigation/STIM_010.jpg	99
1754.85	2.183	2182.6	navigation	Trial3	navigation/STIM_010.jpg	99
1760.993	2.514	2514.2	navigation	Trial3	navigation/STIM_010.jpg	99
1766.19	1.386	1385.7	navigation	Trial3	navigation/STIM_010.jpg	99
1770.723	3.139	3138.7	navigation	Trial3	navigation/STIM_010.jpg	99
1777.157	1.995	1995.4	navigation	Trial3	navigation/STIM_010.jpg	100
1781.686	2.171	2170.8	navigation	Trial3	navigation/STIM_011.jpg	99
1786.638	1.818	1818.3	navigation	Trial3	navigation/STIM_011.jpg	99
1790.552	2.42	2419.5	navigation	Trial3	navigation/STIM_011.jpg	99
1795.304	2.142	2141.8	navigation	Trial3	navigation/STIM_011.jpg	100
1801.093	1.817	1817.0	navigation	Trial3	navigation/STIM_011.jpg	99
1805.321	1.367	1366.9	navigation	Trial3	navigation/STIM_011.jpg	100
1809.532	1.39	1389.9	pointing	Trial3	pointing/STIM_000.jpg	99
1813.67	1.079	1078.9	pointing	Trial3	pointing/STIM_000.jpg	99
1817.186	1.214	1213.9	pointing	Trial3	pointing/STIM_000.jpg	99
1821.041	1.403	1403.3	pointing	Trial3	pointing/STIM_000.jpg	100
1825.981	1.338	1337.8	pointing	Trial3	pointing/STIM_000.jpg	100
1831.318	0.766	765.9	pointing	Trial3	pointing/STIM_000.jpg	99
1835.406	0.895	894.9	pointing	Trial3	pointing/STIM_001.jpg	99
1839.659	1.291	1290.9	pointing	Trial3	pointing/STIM_001.jpg	99
1843.157	0.853	853.0	pointing	Trial3	pointing/STIM_001.jpg	99
1847.692	1.358	1357.8	pointing	Trial3	pointing/STIM_001.jpg	100
1852.828	1.213	1212.9	pointing	Trial3	pointing/STIM_001.jpg	100
1856.591	1.0	999.9	pointing	Trial3	pointing/STIM_001.jpg	99
1860.151	1.109	1108.7	pointing	Trial3	pointing/STIM_002.jpg	100
1863.543	0.894	893.5	pointing	Trial3	pointing/STIM_002.jpg	99
1867.082	0.985	984.9	pointing	Trial3	pointing/STIM_002.jpg	99
1870.389	1.135	1135.1	pointing	Trial3	pointing/STIM_002.jpg	100
1874.274	1.058	1057.6	pointing	Trial3	pointing/STIM_002.jpg	100
1878.631	1.224	1224.2	pointing	Trial3	pointing/STIM_002.jpg	99
1882.217	1.394	1393.9	pointing	Trial3	pointing/STIM_003.jpg	99
1887.103	1.229	1229.2	pointing	Trial3	pointing/STIM_003.jpg	99
1892.103	1.348	1347.6	pointing	Trial3	pointing/STIM_003.jpg	99
1896.009	1.176	1176.2	pointing	Trial3	pointing/STIM_003.jpg	100
1899.312	1.276	1276.5	pointing	Trial3	pointing/STIM_003.jpg	100
1903.811	1.3	1300.5	pointing	Trial3	pointing/STIM_003.jpg	99
1908.514	0.801	800.8	pointing	Trial3	pointing/STIM_004.jpg	100
1912.384	0.964	963.7	pointing	Trial3	pointing/STIM_004.jpg	99
1915.709	0.913	912.6	pointing	Trial3	pointing/STIM_004.jpg	100
1920.467	1.367	1367.4	pointing	Trial3	pointing/STIM_004.jpg	100
1924.317	0.995	994.9	pointing	Trial3	pointing/STIM_004.jpg	99
1927.816	1.349	1349.4	pointing	Trial3	pointing/STIM_004.jpg	100
1931.431	1.157	1157.4	pointing	Trial3	pointing/STIM_005.jpg	99
1935.733	1.173	1172.6	pointing	Trial3	pointing/STIM_005.jpg	100
1939.648	1.317	1316.6	pointing	Trial3	pointing/STIM_005.jpg	100
1944.203	1.166	1166.2	pointing	Trial3	pointing/STIM_005.jpg	99
1947.454	1.283	1283.1	pointing	Trial3	pointing/STIM_005.jpg	100
1951.617	1.352	1351.8	pointing	Trial3	pointing/STIM_005.jpg	99
1956.65	1.366	1366.4	pointing	Trial3	pointing/STIM_006.jpg	100
1961.813	1.22	1220.4	pointing	Trial3	pointing/STIM_006.jpg	99
1965.237	0.95	950.4	pointing	Trial3	pointing/STIM_006.jpg	100
1968.304	1.362	1362.2	pointing	Trial3	pointing/STIM_006.jpg	100
1971.791	0.932	931.8	pointing	Trial3	pointing/STIM_006.jpg	99
1975.832	1.354	1354.5	pointing	Trial3	pointing/STIM_006.jpg	99
1980.544	0.968	968.4	pointing	Trial3	pointing/STIM_007.jpg	99
1983.972	0.785	784.9	pointing	Trial3	pointing/STIM_007.jpg	99
1986.98	0.938	937.5	pointing	Trial3	pointing/STIM_007.jpg	99
1991.575	0.777	777.0	pointing	Trial3	pointing/STIM_007.jpg	99
1994.643	1.075	1075.2	pointing	Trial3	pointing/STIM_007.jpg	99
1999.412	0.806	806.5	pointing	Trial3	pointing/STIM_007.jpg	99
2002.982	1.308	1307.6	pointing	Trial3	pointing/STIM_008.jpg	99
2007.502	1.198	1197.6	pointing	Trial3	pointing/STIM_008.jpg	99
2012.03	0.881	881.2	pointing	Trial3	pointing/STIM_008.jpg	99
2016.423	1.08	1079.5	pointing	Trial3	pointing/STIM_008.jpg	100
2019.618	1.103	1103.4	pointing	Trial3	pointing/STIM_008.jpg	99
2024.277	1.042	1042.4	pointing	Trial3	pointing/STIM_008.jpg	100
2027.426	1.024	1023.8	pointing	Trial3	pointing/STIM_009.jpg	99
2031.866	1.399	1398.7	pointing	Trial3	pointing/STIM_009.jpg	99
2035.871	0.782	782.5	pointing	Trial3	pointing/STIM_009.jpg	99
2038.854	0.877	877.2	pointing	Trial3	pointing/STIM_009.jpg	100
2043.454	1.138	1137.7	pointing	Trial3	pointing/STIM_009.jpg	99
2046.824	0.775	774.8	pointing	Trial3	pointing/STIM_009.jpg	99
2050.1	0.913	912.9	pointing	Trial3	pointing/STIM_010.jpg	100
2053.338	0.936	935.8	pointing	Trial3	pointing/STIM_010.jpg	99
2056.88	1.392	1392.1	pointing	Trial3	pointing/STIM_010.jpg	100
2060.465	1.251	1250.9	pointing	Trial3	pointing/STIM_010.jpg	100
2064.167	1.258	1258.0	pointing	Trial3	pointing/STIM_010.jpg	99
2067.493	1.328	1327.5	pointing	Trial3	pointing/STIM_010.jpg	100
2071.241	0.907	907.1	pointing	Trial3	pointing/STIM_011.jpg	100
2075.198	0.904	904.2	pointing	Trial3	pointing/STIM_011.jpg	100
2078.705	1.148	1147.9	pointing	Trial3	pointing/STIM_011.jpg	100
2082.372	1.117	1116.6	pointing	Trial3	pointing/STIM_011.jpg	99
2085.645	1.062	1062.1	pointing	Trial3	pointing/STIM_011.jpg	99
2089.637	1.216	1215.6	pointing	Trial3	pointing/STIM_011.jpg	99
