onset	duration	accuracy_binary	trial_type	learning_stage	stimulus
0.0	2.322	1	generate	Run1	generate/STIM_000.jpg
4.722	1.28	1	generate	Run1	generate/STIM_000.jpg
8.816	2.238	1	generate	Run1	generate/STIM_000.jpg
13.636	1.165	0	generate	Run1	generate/STIM_000.jpg
17.538	2.127	1	generate	Run1	generate/STIM_000.jpg
23.434	2.896	0	generate	Run1	generate/STIM_001.jpg
28.478	3.216	1	generate	Run1	generate/STIM_001.jpg
33.929	2.293	1	generate	Run1	generate/STIM_001.jpg
39.889	2.598	1	generate	Run1	generate/STIM_001.jpg
45.745	2.061	1	generate	Run1	generate/STIM_001.jpg
49.522	2.192	0	generate	Run1	generate/STIM_002.jpg
53.804	2.316	1	generate	Run1	generate/STIM_002.jpg
58.331	3.01	1	generate	Run1	generate/STIM_002.jpg
64.426	1.272	1	generate	Run1	generate/STIM_002.jpg
69.449	2.702	0	generate	Run1	generate/STIM_002.jpg
75.313	2.318	1	generate	Run1	generate/STIM_003.jpg
79.454	2.384	0	generate	Run1	generate/STIM_003.jpg
84.651	2.147	1	generate	Run1	generate/STIM_003.jpg
88.814	1.681	1	generate	Run1	generate/STIM_003.jpg
92.604	1.44	1	generate	Run1	generate/STIM_003.jpg
97.105	1.834	0	generate	Run1	generate/STIM_004.jpg
101.237	2.672	0	generate	Run1	generate/STIM_004.jpg
105.917	1.328	1	generate	Run1	generate/STIM_004.jpg
110.154	2.68	1	generate	Run1	generate/STIM_004.jpg
114.706	2.618	1	generate	Run1	generate/STIM_004.jpg
119.628	2.808	0	generate	Run1	generate/STIM_005.jpg
125.272	1.37	1	generate	Run1	generate/STIM_005.jpg
130.196	1.252	0	generate	Run1	generate/STIM_005.jpg
134.062	2.163	1	generate	Run1	generate/STIM_005.jpg
139.602	1.846	0	generate	Run1	generate/STIM_005.jpg
145.036	1.685	1	generate	Run1	generate/STIM_006.jpg
149.118	2.153	1	generate	Run1	generate/STIM_006.jpg
153.056	2.963	1	generate	Run1	generate/STIM_006.jpg
158.099	1.295	0	generate	Run1	generate/STIM_006.jpg
161.844	2.077	0	generate	Run1	generate/STIM_006.jpg
167.517	1.673	1	generate	Run1	generate/STIM_007.jpg
172.089	2.732	1	generate	Run1	generate/STIM_007.jpg
178.212	2.043	1	generate	Run1	generate/STIM_007.jpg
183.155	1.491	1	generate	Run1	generate/STIM_007.jpg
187.356	1.656	1	generate	Run1	generate/STIM_007.jpg
191.254	3.277	1	generate	Run1	generate/STIM_008.jpg
197.568	3.08	0	generate	Run1	generate/STIM_008.jpg
202.261	2.607	0	generate	Run1	generate/STIM_008.jpg
207.22	2.287	1	generate	Run1	generate/STIM_008.jpg
212.581	1.962	1	generate	Run1	generate/STIM_008.jpg
217.838	2.777	1	generate	Run1	generate/STIM_009.jpg
222.362	1.691	1	generate	Run1	generate/STIM_009.jpg
227.435	2.67	1	generate	Run1	generate/STIM_009.jpg
233.524	1.386	1	generate	Run1	generate/STIM_009.jpg
238.379	1.404	1	generate	Run1	generate/STIM_009.jpg
243.041	2.874	1	generate	Run1	generate/STIM_010.jpg
248.417	2.552	0	generate	Run1	generate/STIM_010.jpg
252.772	2.255	1	generate	Run1	generate/STIM_010.jpg
258.3	2.549	1	generate	Run1	generate/STIM_010.jpg
264.216	2.438	1	generate	Run1	generate/STIM_010.jpg
269.94	3.083	1	generate	Run1	generate/STIM_011.jpg
275.857	2.139	1	generate	Run1	generate/STIM_011.jpg
280.239	2.623	1	generate	Run1	generate/STIM_011.jpg
286.401	1.866	1	generate	Run1	generate/STIM_011.jpg
290.721	2.292	1	generate	Run1	generate/STIM_011.jpg
294.849	3.082	1	generate	Run1	generate/STIM_012.jpg
300.555	1.417	0	generate	Run1	generate/STIM_012.jpg
304.409	2.152	1	generate	Run1	generate/STIM_012.jpg
308.884	1.833	1	generate	Run1	generate/STIM_012.jpg
314.378	1.497	1	generate	Run1	generate/STIM_012.jpg
318.253	2.685	1	generate	Run1	generate/STIM_013.jpg
323.038	1.527	1	generate	Run1	generate/STIM_013.jpg
327.601	2.74	1	generate	Run1	generate/STIM_013.jpg
333.438	2.801	1	generate	Run1	generate/STIM_013.jpg
338.251	1.86	1	generate	Run1	generate/STIM_013.jpg
343.643	1.425	1	generate	Run1	generate/STIM_014.jpg
348.55	1.398	1	generate	Run1	generate/STIM_014.jpg
352.117	1.871	0	generate	Run1	generate/STIM_014.jpg
356.391	1.668	1	generate	Run1	generate/STIM_014.jpg
360.645	1.43	1	generate	Run1	generate/STIM_014.jpg
363.938	1.908	1	generate	Run1	generate/STIM_015.jpg
368.139	2.776	1	generate	Run1	generate/STIM_015.jpg
374.051	1.929	1	generate	Run1	generate/STIM_015.jpg
378.169	2.059	0	generate	Run1	generate/STIM_015.jpg
381.988	1.487	1	generate	Run1	generate/STIM_015.jpg
387.334	1.683	1	generate	Run1	generate/STIM_016.jpg
390.831	2.566	1	generate	Run1	generate/STIM_016.jpg
395.921	1.499	0	generate	Run1	generate/STIM_016.jpg
400.374	2.445	0	generate	Run1	generate/STIM_016.jpg
405.085	1.848	0	generate	Run1	generate/STIM_016.jpg
409.681	2.267	1	generate	Run1	generate/STIM_017.jpg
415.451	2.247	1	generate	Run1	generate/STIM_017.jpg
419.549	2.594	1	generate	Run1	generate/STIM_017.jpg
424.34	1.975	0	generate	Run1	generate/STIM_017.jpg
429.632	1.465	0	generate	Run1	generate/STIM_017.jpg
434.678	2.777	1	generate	Run1	generate/STIM_018.jpg
440.679	2.784	1	generate	Run1	generate/STIM_018.jpg
446.7	1.542	1	generate	Run1	generate/STIM_018.jpg
450.297	1.218	1	generate	Run1	generate/STIM_018.jpg
454.49	1.583	1	generate	Run1	generate/STIM_018.jpg
458.059	3.149	1	generate	Run1	generate/STIM_019.jpg
464.559	1.655	1	generate	Run1	generate/STIM_019.jpg
468.417	1.972	1	generate	Run1	generate/STIM_019.jpg
473.518	1.885	1	generate	Run1	generate/STIM_019.jpg
477.612	2.632	1	generate	Run1	generate/STIM_019.jpg
482.324	2.858	1	generate	Run1	generate/STIM_020.jpg
487.502	1.496	1	generate	Run1	generate/STIM_020.jpg
491.55	2.866	0	generate	Run1	generate/STIM_020.jpg
497.24	2.51	0	generate	Run1	generate/STIM_020.jpg
502.734	2.759	1	generate	Run1	generate/STIM_020.jpg
508.236	2.858	1	generate	Run1	generate/STIM_021.jpg
514.093	3.202	1	generate	Run1	generate/STIM_021.jpg
519.828	2.17	1	generate	Run1	generate/STIM_021.jpg
524.618	1.807	1	generate	Run1	generate/STIM_021.jpg
528.665	2.608	1	generate	Run1	generate/STIM_021.jpg
534.369	2.31	1	generate	Run1	generate/STIM_022.jpg
539.409	1.668	1	generate	Run1	generate/STIM_022.jpg
544.273	2.195	1	generate	Run1	generate/STIM_022.jpg
549.025	1.332	0	generate	Run1	generate/STIM_022.jpg
553.073	2.414	0	generate	Run1	generate/STIM_022.jpg
557.83	2.305	1	generate	Run1	generate/STIM_023.jpg
563.201	2.457	1	generate	Run1	generate/STIM_023.jpg
569.228	1.67	0	generate	Run1	generate/STIM_023.jpg
574.1	1.512	1	generate	Run1	generate/STIM_023.jpg
579.058	2.254	0	generate	Run1	generate/STIM_023.jpg
583.622	2.281	1	generate	Run1	generate/STIM_024.jpg
588.04	1.848	0	generate	Run1	generate/STIM_024.jpg
592.779	2.023	1	generate	Run1	generate/STIM_024.jpg
597.696	1.948	1	generate	Run1	generate/STIM_024.jpg
601.886	1.891	1	generate	Run1	generate/STIM_024.jpg
606.731	0.774	1	repeat	Run1	repeat/STIM_000.jpg
610.267	0.96	1	repeat	Run1	repeat/STIM_000.jpg
614.217	0.661	0	repeat	Run1	repeat/STIM_000.jpg
617.374	0.709	1	repeat	Run1	repeat/STIM_000.jpg
621.831	1.036	1	repeat	Run1	repeat/STIM_000.jpg
625.555	1.088	1	repeat	Run1	repeat/STIM_001.jpg
630.21	0.798	1	repeat	Run1	repeat/STIM_001.jpg
634.607	0.901	1	repeat	Run1	repeat/STIM_001.jpg
638.114	1.057	1	repeat	Run1	repeat/STIM_001.jpg
642.616	0.706	1	repeat	Run1	repeat/STIM_001.jpg
646.864	0.922	0	repeat	Run1	repeat/STIM_002.jpg
650.994	0.599	1	repeat	Run1	repeat/STIM_002.jpg
655.367	0.702	1	repeat	Run1	repeat/STIM_002.jpg
659.605	0.996	1	repeat	Run1	repeat/STIM_002.jpg
662.787	0.838	1	repeat	Run1	repeat/STIM_002.jpg
667.319	0.806	1	repeat	Run1	repeat/STIM_003.jpg
671.599	0.729	1	repeat	Run1	repeat/STIM_003.jpg
675.643	0.801	1	repeat	Run1	repeat/STIM_003.jpg
679.441	0.924	1	repeat	Run1	repeat/STIM_003.jpg
682.433	1.03	1	repeat	Run1	repeat/STIM_003.jpg
686.054	0.694	1	repeat	Run1	repeat/STIM_004.jpg
689.515	0.712	1	repeat	Run1	repeat/STIM_004.jpg
693.003	0.862	1	repeat	Run1	repeat/STIM_004.jpg
696.937	0.804	1	repeat	Run1	repeat/STIM_004.jpg
700.802	0.749	1	repeat	Run1	repeat/STIM_004.jpg
705.397	0.834	1	repeat	Run1	repeat/STIM_005.jpg
709.88	0.568	1	repeat	Run1	repeat/STIM_005.jpg
714.405	0.95	1	repeat	Run1	repeat/STIM_005.jpg
717.831	0.853	1	repeat	Run1	repeat/STIM_005.jpg
720.644	0.603	1	repeat	Run1	repeat/STIM_005.jpg
724.685	0.877	1	repeat	Run1	repeat/STIM_006.jpg
727.918	0.975	1	repeat	Run1	repeat/STIM_006.jpg
731.167	0.821	1	repeat	Run1	repeat/STIM_006.jpg
735.854	0.775	1	repeat	Run1	repeat/STIM_006.jpg
740.552	1.084	1	repeat	Run1	repeat/STIM_006.jpg
744.182	0.555	1	repeat	Run1	repeat/STIM_007.jpg
747.738	1.094	1	repeat	Run1	repeat/STIM_007.jpg
751.067	0.609	1	repeat	Run1	repeat/STIM_007.jpg
755.112	1.032	1	repeat	Run1	repeat/STIM_007.jpg
758.67	0.909	0	repeat	Run1	repeat/STIM_007.jpg
763.29	0.761	1	repeat	Run1	repeat/STIM_008.jpg
767.465	0.79	1	repeat	Run1	repeat/STIM_008.jpg
771.1	1.102	1	repeat	Run1	repeat/STIM_008.jpg
774.726	0.621	1	repeat	Run1	repeat/STIM_008.jpg
778.78	0.812	1	repeat	Run1	repeat/STIM_008.jpg
782.465	1.074	1	repeat	Run1	repeat/STIM_009.jpg
786.886	1.088	1	repeat	Run1	repeat/STIM_009.jpg
791.479	0.676	1	repeat	Run1	repeat/STIM_009.jpg
794.243	0.703	1	repeat	Run1	repeat/STIM_009.jpg
797.319	1.13	0	repeat	Run1	repeat/STIM_009.jpg
801.256	0.834	1	repeat	Run1	repeat/STIM_010.jpg
805.137	0.826	1	repeat	Run1	repeat/STIM_010.jpg
808.69	0.695	1	repeat	Run1	repeat/STIM_010.jpg
812.924	1.097	1	repeat	Run1	repeat/STIM_010.jpg
816.018	0.798	1	repeat	Run1	repeat/STIM_010.jpg
818.842	0.513	1	repeat	Run1	repeat/STIM_011.jpg
821.596	0.794	1	repeat	Run1	repeat/STIM_011.jpg
825.562	0.928	1	repeat	Run1	repeat/STIM_011.jpg
829.209	1.078	1	repeat	Run1	repeat/STIM_011.jpg
833.693	0.855	1	repeat	Run1	repeat/STIM_011.jpg
837.428	0.696	1	repeat	Run1	repeat/STIM_012.jpg
841.528	1.046	1	repeat	Run1	repeat/STIM_012.jpg
845.994	0.578	1	repeat	Run1	repeat/STIM_012.jpg
850.179	0.592	1	repeat	Run1	repeat/STIM_012.jpg
853.311	1.168	1	repeat	Run1	repeat/STIM_012.jpg
858.028	0.554	1	repeat	Run1	repeat/STIM_013.jpg
861.736	0.961	1	repeat	Run1	repeat/STIM_013.jpg
865.962	1.063	1	repeat	Run1	repeat/STIM_013.jpg
869.278	0.916	1	repeat	Run1	repeat/STIM_013.jpg
873.218	0.592	1	repeat	Run1	repeat/STIM_013.jpg
876.23	0.766	1	repeat	Run1	repeat/STIM_014.jpg
880.517	0.497	1	repeat	Run1	repeat/STIM_014.jpg
883.978	0.873	1	repeat	Run1	repeat/STIM_014.jpg
888.28	0.855	1	repeat	Run1	repeat/STIM_014.jpg
891.542	1.063	1	repeat	Run1	repeat/STIM_014.jpg
894.903	1.971	1	generate	Run2	generate/STIM_000.jpg
898.929	2.636	1	generate	Run2	generate/STIM_000.jpg
903.348	2.32	0	generate	Run2	generate/STIM_000.jpg
908.516	1.17	1	generate	Run2	generate/STIM_000.jpg
912.038	2.237	1	generate	Run2	generate/STIM_000.jpg
916.652	2.797	1	generate	Run2	generate/STIM_001.jpg
923.123	2.466	1	generate	Run2	generate/STIM_001.jpg
927.349	2.275	1	generate	Run2	generate/STIM_001.jpg
932.044	1.592	1	generate	Run2	generate/STIM_001.jpg
936.707	1.89	1	generate	Run2	generate/STIM_001.jpg
940.767	2.929	1	generate	Run2	generate/STIM_002.jpg
946.304	1.906	1	generate	Run2	generate/STIM_002.jpg
951.036	2.539	1	generate	Run2	generate/STIM_002.jpg
956.694	1.728	1	generate	Run2	generate/STIM_002.jpg
960.242	1.265	1	generate	Run2	generate/STIM_002.jpg
964.869	1.312	1	generate	Run2	generate/STIM_003.jpg
968.663	2.67	1	generate	Run2	generate/STIM_003.jpg
973.175	1.844	0	generate	Run2	generate/STIM_003.jpg
977.771	1.075	1	generate	Run2	generate/STIM_003.jpg
981.654	2.185	1	generate	Run2	generate/STIM_003.jpg
986.441	1.379	1	generate	Run2	generate/STIM_004.jpg
990.185	2.666	1	generate	Run2	generate/STIM_004.jpg
995.061	1.32	1	generate	Run2	generate/STIM_004.jpg
999.572	0.965	1	generate	Run2	generate/STIM_004.jpg
1004.018	1.049	1	generate	Run2	generate/STIM_004.jpg
1008.307	2.222	1	generate	Run2	generate/STIM_005.jpg
1012.52	2.613	0	generate	Run2	generate/STIM_005.jpg
1018.556	2.024	1	generate	Run2	generate/STIM_005.jpg
1022.613	1.463	1	generate	Run2	generate/STIM_005.jpg
1026.008	1.513	1	generate	Run2	generate/STIM_005.jpg
1031.258	1.893	1	generate	Run2	generate/STIM_006.jpg
1035.995	1.31	1	generate	Run2	generate/STIM_006.jpg
1039.409	1.537	1	generate	Run2	generate/STIM_006.jpg
1042.84	2.07	1	generate	Run2	generate/STIM_006.jpg
1046.876	1.751	1	generate	Run2	generate/STIM_006.jpg
1050.652	1.808	0	generate	Run2	generate/STIM_007.jpg
1056.246	1.854	1	generate	Run2	generate/STIM_007.jpg
1060.382	2.539	0	generate	Run2	generate/STIM_007.jpg
1065.848	1.117	1	generate	Run2	generate/STIM_007.jpg
1068.849	1.313	1	generate	Run2	generate/STIM_007.jpg
1072.997	2.141	1	generate	Run2	generate/STIM_008.jpg
1078.724	2.495	1	generate	Run2	generate/STIM_008.jpg
1083.629	1.472	1	generate	Run2	generate/STIM_008.jpg
1088.568	1.026	1	generate	Run2	generate/STIM_008.jpg
1091.974	2.077	0	generate	Run2	generate/STIM_008.jpg
1097.344	1.344	1	generate	Run2	generate/STIM_009.jpg
1101.463	2.12	1	generate	Run2	generate/STIM_009.jpg
1106.849	1.679	0	generate	Run2	generate/STIM_009.jpg
1110.927	2.398	1	generate	Run2	generate/STIM_009.jpg
1115.455	1.866	1	generate	Run2	generate/STIM_009.jpg
1119.208	2.752	1	generate	Run2	generate/STIM_010.jpg
1123.772	1.505	0	generate	Run2	generate/STIM_010.jpg
1128.267	2.49	1	generate	Run2	generate/STIM_010.jpg
1133.647	2.329	1	generate	Run2	generate/STIM_010.jpg
1138.758	1.554	1	generate	Run2	generate/STIM_010.jpg
1143.453	1.821	1	generate	Run2	generate/STIM_011.jpg
1147.182	2.1	1	generate	Run2	generate/STIM_011.jpg
1151.84	1.714	1	generate	Run2	generate/STIM_011.jpg
1156.768	2.068	0	generate	Run2	generate/STIM_011.jpg
1161.53	1.499	1	generate	Run2	generate/STIM_011.jpg
1166.591	1.209	1	generate	Run2	generate/STIM_012.jpg
1170.289	1.539	1	generate	Run2	generate/STIM_012.jpg
1175.016	1.241	1	generate	Run2	generate/STIM_012.jpg
1179.639	2.049	0	generate	Run2	generate/STIM_012.jpg
1184.331	1.172	1	generate	Run2	generate/STIM_012.jpg
1189.105	2.207	1	generate	Run2	generate/STIM_013.jpg
1194.13	1.198	1	generate	Run2	generate/STIM_013.jpg
1197.449	1.065	1	generate	Run2	generate/STIM_013.jpg
1202.068	1.757	1	generate	Run2	generate/STIM_013.jpg
1206.031	1.04	1	generate	Run2	generate/STIM_013.jpg
1210.141	1.202	1	generate	Run2	generate/STIM_014.jpg
1214.121	1.969	1	generate	Run2	generate/STIM_014.jpg
1218.734	1.199	1	generate	Run2	generate/STIM_014.jpg
1221.944	1.085	0	generate	Run2	generate/STIM_014.jpg
1225.982	0.986	0	generate	Run2	generate/STIM_014.jpg
1230.591	2.718	1	generate	Run2	generate/STIM_015.jpg
1236.74	1.624	1	generate	Run2	generate/STIM_015.jpg
1242.014	1.462	0	generate	Run2	generate/STIM_015.jpg
1245.682	2.221	1	generate	Run2	generate/STIM_015.jpg
1249.671	1.857	1	generate	Run2	generate/STIM_015.jpg
1253.719	1.146	1	generate	Run2	generate/STIM_016.jpg
1256.975	2.391	1	generate	Run2	generate/STIM_016.jpg
1262.147	1.942	1	generate	Run2	generate/STIM_016.jpg
1266.714	1.709	1	generate	Run2	generate/STIM_016.jpg
1270.753	1.136	1	generate	Run2	generate/STIM_016.jpg
1275.479	2.368	1	generate	Run2	generate/STIM_017.jpg
1279.846	2.742	1	generate	Run2	generate/STIM_017.jpg
1285.167	2.094	1	generate	Run2	generate/STIM_017.jpg
1290.492	1.994	1	generate	Run2	generate/STIM_017.jpg
1294.587	1.134	1	generate	Run2	generate/STIM_017.jpg
1297.936	2.663	1	generate	Run2	generate/STIM_018.jpg
1303.491	2.158	1	generate	Run2	generate/STIM_018.jpg
1308.694	1.931	1	generate	Run2	generate/STIM_018.jpg
1312.774	1.438	1	generate	Run2	generate/STIM_018.jpg
1317.984	1.608	1	generate	Run2	generate/STIM_018.jpg
1322.457	1.99	1	generate	Run2	generate/STIM_019.jpg
1326.401	2.486	0	generate	Run2	generate/STIM_019.jpg
1330.808	2.095	0	generate	Run2	generate/STIM_019.jpg
1335.184	2.269	1	generate	Run2	generate/STIM_019.jpg
1340.545	2.25	1	generate	Run2	generate/STIM_019.jpg
1346.43	1.394	0	generate	Run2	generate/STIM_020.jpg
1350.924	2.211	1	generate	Run2	generate/STIM_020.jpg
1354.953	1.132	1	generate	Run2	generate/STIM_020.jpg
1359.036	1.228	1	generate	Run2	generate/STIM_020.jpg
1362.364	1.174	1	generate	Run2	generate/STIM_020.jpg
1366.982	1.493	1	generate	Run2	generate/STIM_021.jpg
1370.379	1.592	1	generate	Run2	generate/STIM_021.jpg
1375.058	1.599	1	generate	Run2	generate/STIM_021.jpg
1379.598	1.467	1	generate	Run2	generate/STIM_021.jpg
1384.765	1.538	1	generate	Run2	generate/STIM_021.jpg
1388.532	1.656	0	generate	Run2	generate/STIM_022.jpg
1392.857	2.391	1	generate	Run2	generate/STIM_022.jpg
1398.329	1.655	0	generate	Run2	generate/STIM_022.jpg
1402.011	1.58	1	generate	Run2	generate/STIM_022.jpg
1406.903	1.208	1	generate	Run2	generate/STIM_022.jpg
1410.312	1.767	1	generate	Run2	generate/STIM_023.jpg
1414.537	1.455	0	generate	Run2	generate/STIM_023.jpg
1419.282	1.03	1	generate	Run2	generate/STIM_023.jpg
1422.611	1.772	1	generate	Run2	generate/STIM_023.jpg
1426.814	2.073	1	generate	Run2	generate/STIM_023.jpg
1430.876	2.703	1	generate	Run2	generate/STIM_024.jpg
1437.119	1.94	1	generate	Run2	generate/STIM_024.jpg
1440.871	1.12	0	generate	Run2	generate/STIM_024.jpg
1445.27	1.199	1	generate	Run2	generate/STIM_024.jpg
1449.304	0.997	1	generate	Run2	generate/STIM_024.jpg
1453.869	0.836	1	repeat	Run2	repeat/STIM_000.jpg
1456.962	0.824	1	repeat	Run2	repeat/STIM_000.jpg
1459.955	0.757	1	repeat	Run2	repeat/STIM_000.jpg
1462.973	0.776	1	repeat	Run2	repeat/STIM_000.jpg
1466.601	0.704	1	repeat	Run2	repeat/STIM_000.jpg
1469.903	0.914	0	repeat	Run2	repeat/STIM_001.jpg
1472.829	0.96	1	repeat	Run2	repeat/STIM_001.jpg
1476.282	1.123	1	repeat	Run2	repeat/STIM_001.jpg
1479.353	0.9	1	repeat	Run2	repeat/STIM_001.jpg
1483.729	0.626	1	repeat	Run2	repeat/STIM_001.jpg
1487.006	0.511	1	repeat	Run2	repeat/STIM_002.jpg
1489.812	0.5	1	repeat	Run2	repeat/STIM_002.jpg
1492.956	0.84	1	repeat	Run2	repeat/STIM_002.jpg
1497.534	0.929	1	repeat	Run2	repeat/STIM_002.jpg
1500.916	1.083	1	repeat	Run2	repeat/STIM_002.jpg
1505.72	0.651	1	repeat	Run2	repeat/STIM_003.jpg
1508.409	1.047	1	repeat	Run2	repeat/STIM_003.jpg
1512.487	0.659	1	repeat	Run2	repeat/STIM_003.jpg
1515.301	0.888	1	repeat	Run2	repeat/STIM_003.jpg
1518.371	1.156	1	repeat	Run2	repeat/STIM_003.jpg
1522.121	0.897	1	repeat	Run2	repeat/STIM_004.jpg
1526.415	1.166	1	repeat	Run2	repeat/STIM_004.jpg
1530.73	0.889	1	repeat	Run2	repeat/STIM_004.jpg
1535.054	0.967	1	repeat	Run2	repeat/STIM_004.jpg
1539.275	1.045	1	repeat	Run2	repeat/STIM_004.jpg
1542.487	0.777	1	repeat	Run2	repeat/STIM_005.jpg
1546.779	0.535	1	repeat	Run2	repeat/STIM_005.jpg
1550.416	0.77	0	repeat	Run2	repeat/STIM_005.jpg
1554.834	0.657	1	repeat	Run2	repeat/STIM_005.jpg
1559.095	0.914	1	repeat	Run2	repeat/STIM_005.jpg
1562.797	0.973	1	repeat	Run2	repeat/STIM_006.jpg
1567.111	1.038	1	repeat	Run2	repeat/STIM_006.jpg
1570.746	0.537	1	repeat	Run2	repeat/STIM_006.jpg
1574.235	1.082	1	repeat	Run2	repeat/STIM_006.jpg
1577.774	0.766	1	repeat	Run2	repeat/STIM_006.jpg
1581.639	0.713	1	repeat	Run2	repeat/STIM_007.jpg
1586.199	0.939	1	repeat	Run2	repeat/STIM_007.jpg
1590.437	0.873	1	repeat	Run2	repeat/STIM_007.jpg
1595.107	0.655	1	repeat	Run2	repeat/STIM_007.jpg
1599.27	0.884	1	repeat	Run2	repeat/STIM_007.jpg
1603.446	0.98	1	repeat	Run2	repeat/STIM_008.jpg
1607.135	1.124	0	repeat	Run2	repeat/STIM_008.jpg
1611.086	0.622	1	repeat	Run2	repeat/STIM_008.jpg
1614.129	0.728	1	repeat	Run2	repeat/STIM_008.jpg
1618.558	0.769	1	repeat	Run2	repeat/STIM_008.jpg
1621.407	0.677	1	repeat	Run2	repeat/STIM_009.jpg
1624.909	1.073	1	repeat	Run2	repeat/STIM_009.jpg
1628.595	1.072	1	repeat	Run2	repeat/STIM_009.jpg
1633.315	0.666	1	repeat	Run2	repeat/STIM_009.jpg
1635.892	1.033	1	repeat	Run2	repeat/STIM_009.jpg
1639.987	0.738	1	repeat	Run2	repeat/STIM_010.jpg
1643.544	0.657	1	repeat	Run2	repeat/STIM_010.jpg
1647.45	0.968	1	repeat	Run2	repeat/STIM_010.jpg
1651.029	0.947	1	repeat	Run2	repeat/STIM_010.jpg
1654.687	0.664	1	repeat	Run2	repeat/STIM_010.jpg
1659.041	0.977	0	repeat	Run2	repeat/STIM_011.jpg
1663.267	0.902	1	repeat	Run2	repeat/STIM_011.jpg
1667.471	0.936	1	repeat	Run2	repeat/STIM_011.jpg
1670.945	1.044	1	repeat	Run2	repeat/STIM_011.jpg
1675.825	1.097	0	repeat	Run2	repeat/STIM_011.jpg
1680.079	1.026	1	repeat	Run2	repeat/STIM_012.jpg
1684.173	0.675	1	repeat	Run2	repeat/STIM_012.jpg
1688.253	0.918	1	repeat	Run2	repeat/STIM_012.jpg
1691.844	0.653	1	repeat	Run2	repeat/STIM_012.jpg
1694.987	0.881	1	repeat	Run2	repeat/STIM_012.jpg
1697.834	0.791	1	repeat	Run2	repeat/STIM_013.jpg
1701.294	0.833	1	repeat	Run2	repeat/STIM_013.jpg
1704.24	0.66	1	repeat	Run2	repeat/STIM_013.jpg
1708.267	0.702	1	repeat	Run2	repeat/STIM_013.jpg
1711.794	1.092	1	repeat	Run2	repeat/STIM_013.jpg
1716.714	1.064	1	repeat	Run2	repeat/STIM_014.jpg
1719.948	0.932	1	repeat	Run2	repeat/STIM_014.jpg
1723.77	0.99	1	repeat	Run2	repeat/STIM_014.jpg
1728.553	0.875	1	repeat	Run2	repeat/STIM_014.jpg
1732.768	1.038	1	repeat	Run2	repeat/STIM_014.jpg
1736.162	1.343	1	generate	Run3	generate/STIM_000.jpg
1740.461	1.727	1	generate	Run3	generate/STIM_000.jpg
1744.849	1.378	1	generate	Run3	generate/STIM_000.jpg
1748.634	1.915	1	generate	Run3	generate/STIM_000.jpg
1752.682	1.049	1	generate	Run3	generate/STIM_000.jpg
1755.794	1.53	1	generate	Run3	generate/STIM_001.jpg
1760.693	2.351	0	generate	Run3	generate/STIM_001.jpg
1766.159	1.305	1	generate	Run3	generate/STIM_001.jpg
1769.49	1.115	1	generate	Run3	generate/STIM_001.jpg
1773.518	2.17	1	generate	Run3	generate/STIM_001.jpg
1777.63	1.694	1	generate	Run3	generate/STIM_002.jpg
1781.821	2.097	1	generate	Run3	generate/STIM_002.jpg
1786.821	2.011	1	generate	Run3	generate/STIM_002.jpg
1791.612	1.146	1	generate	Run3	generate/STIM_002.jpg
1794.75	1.664	1	generate	Run3	generate/STIM_002.jpg
1798.678	1.404	1	generate	Run3	generate/STIM_003.jpg
1802.429	1.119	0	generate	Run3	generate/STIM_003.jpg
1807.339	2.3	1	generate	Run3	generate/STIM_003.jpg
1812.713	2.288	1	generate	Run3	generate/STIM_003.jpg
1817.962	1.398	1	generate	Run3	generate/STIM_003.jpg
1822.784	1.868	1	generate	Run3	generate/STIM_004.jpg
1826.746	1.051	1	generate	Run3	generate/STIM_004.jpg
1830.886	1.724	0	generate	Run3	generate/STIM_004.jpg
1835.107	0.992	0	generate	Run3	generate/STIM_004.jpg
1838.991	2.334	1	generate	Run3	generate/STIM_004.jpg
1843.908	1.264	1	generate	Run3	generate/STIM_005.jpg
1848.273	1.32	1	generate	Run3	generate/STIM_005.jpg
1852.052	1.526	1	generate	Run3	generate/STIM_005.jpg
1856.287	1.454	1	generate	Run3	generate/STIM_005.jpg
1859.72	1.363	1	generate	Run3	generate/STIM_005.jpg
1863.286	2.286	1	generate	Run3	generate/STIM_006.jpg
1867.603	0.956	1	generate	Run3	generate/STIM_006.jpg
1871.148	1.871	1	generate	Run3	generate/STIM_006.jpg
1876.5	2.216	1	generate	Run3	generate/STIM_006.jpg
1882.035	1.927	1	generate	Run3	generate/STIM_006.jpg
1886.811	1.772	1	generate	Run3	generate/STIM_007.jpg
1890.583	1.12	1	generate	Run3	generate/STIM_007.jpg
1894.676	1.754	1	generate	Run3	generate/STIM_007.jpg
1899.775	1.426	1	generate	Run3	generate/STIM_007.jpg
1903.666	1.556	1	generate	Run3	generate/STIM_007.jpg
1907.922	1.443	1	generate	Run3	generate/STIM_008.jpg
1912.58	2.252	1	generate	Run3	generate/STIM_008.jpg
1917.649	1.966	0	generate	Run3	generate/STIM_008.jpg
1922.92	1.716	1	generate	Run3	generate/STIM_008.jpg
1926.596	2.284	1	generate	Run3	generate/STIM_008.jpg
1930.654	1.217	1	generate	Run3	generate/STIM_009.jpg
1935.177	1.238	1	generate	Run3	generate/STIM_009.jpg
1939.559	1.897	1	generate	Run3	generate/STIM_009.jpg
1943.656	1.916	1	generate	Run3	generate/STIM_009.jpg
1948.967	1.996	1	generate	Run3	generate/STIM_009.jpg
1953.869	2.299	1	generate	Run3	generate/STIM_010.jpg
1958.979	2.03	1	generate	Run3	generate/STIM_010.jpg
1964.564	1.059	1	generate	Run3	generate/STIM_010.jpg
1967.861	1.861	1	generate	Run3	generate/STIM_010.jpg
1973.267	1.858	1	generate	Run3	generate/STIM_010.jpg
1977.598	1.075	1	generate	Run3	generate/STIM_011.jpg
1980.746	1.224	1	generate	Run3	generate/STIM_011.jpg
1984.023	2.194	1	generate	Run3	generate/STIM_011.jpg
1988.51	1.014	1	generate	Run3	generate/STIM_011.jpg
1991.463	2.384	1	generate	Run3	generate/STIM_011.jpg
1996.705	1.167	0	generate	Run3	generate/STIM_012.jpg
2000.141	1.885	0	generate	Run3	generate/STIM_012.jpg
2004.134	1.415	1	generate	Run3	generate/STIM_012.jpg
2008.751	1.241	1	generate	Run3	generate/STIM_012.jpg
2013.155	1.167	1	generate	Run3	generate/STIM_012.jpg
2016.278	1.931	1	generate	Run3	generate/STIM_013.jpg
2020.202	1.353	1	generate	Run3	generate/STIM_013.jpg
2023.825	2.042	1	generate	Run3	generate/STIM_013.jpg
2028.921	2.056	1	generate	Run3	generate/STIM_013.jpg
2032.945	2.287	1	generate	Run3	generate/STIM_013.jpg
2038.516	1.015	1	generate	Run3	generate/STIM_014.jpg
2043.382	1.035	1	generate	Run3	generate/STIM_014.jpg
2046.883	1.184	1	generate	Run3	generate/STIM_014.jpg
2050.364	1.902	1	generate	Run3	generate/STIM_014.jpg
2054.369	2.104	1	generate	Run3	generate/STIM_014.jpg
2060.115	1.858	1	generate	Run3	generate/STIM_015.jpg
2063.98	1.66	1	generate	Run3	generate/STIM_015.jpg
2069.076	2.382	1	generate	Run3	generate/STIM_015.jpg
2074.876	2.324	1	generate	Run3	generate/STIM_015.jpg
2080.179	2.322	1	generate	Run3	generate/STIM_015.jpg
2084.63	1.67	1	generate	Run3	generate/STIM_016.jpg
2088.564	1.804	1	generate	Run3	generate/STIM_016.jpg
2094.021	2.182	1	generate	Run3	generate/STIM_016.jpg
2099.433	2.257	1	generate	Run3	generate/STIM_016.jpg
2105.123	1.797	1	generate	Run3	generate/STIM_016.jpg
2110.296	1.692	1	generate	Run3	generate/STIM_017.jpg
2115.336	1.412	1	generate	Run3	generate/STIM_017.jpg
2119.184	2.123	1	generate	Run3	generate/STIM_017.jpg
2123.952	2.017	1	generate	Run3	generate/STIM_017.jpg
2128.408	1.958	1	generate	Run3	generate/STIM_017.jpg
2133.652	1.156	1	generate	Run3	generate/STIM_018.jpg
2136.923	0.976	1	generate	Run3	generate/STIM_018.jpg
2141.02	2.284	1	generate	Run3	generate/STIM_018.jpg
2145.178	1.637	1	generate	Run3	generate/STIM_018.jpg
2149.309	1.911	1	generate	Run3	generate/STIM_018.jpg
2153.474	2.304	0	generate	Run3	generate/STIM_019.jpg
2158.22	1.601	1	generate	Run3	generate/STIM_019.jpg
2163.62	1.926	1	generate	Run3	generate/STIM_019.jpg
2168.258	2.295	1	generate	Run3	generate/STIM_019.jpg
2172.498	1.456	1	generate	Run3	generate/STIM_019.jpg
2177.123	2.186	1	generate	Run3	generate/STIM_020.jpg
2181.724	1.472	1	generate	Run3	generate/STIM_020.jpg
2186.921	1.198	1	generate	Run3	generate/STIM_020.jpg
2191.841	2.07	1	generate	Run3	generate/STIM_020.jpg
2196.248	1.169	1	generate	Run3	generate/STIM_020.jpg
2200.831	1.184	1	generate	Run3	generate/STIM_021.jpg
2204.798	1.992	0	generate	Run3	generate/STIM_021.jpg
2210.301	1.539	1	generate	Run3	generate/STIM_021.jpg
2213.911	2.36	1	generate	Run3	generate/STIM_021.jpg
2219.095	2.469	1	generate	Run3	generate/STIM_021.jpg
2223.866	1.375	1	generate	Run3	generate/STIM_022.jpg
2228.246	1.468	1	generate	Run3	generate/STIM_022.jpg
2232.273	0.974	1	generate	Run3	generate/STIM_022.jpg
2236.27	1.472	1	generate	Run3	generate/STIM_022.jpg
2240.961	1.402	1	generate	Run3	generate/STIM_022.jpg
2245.129	1.199	1	generate	Run3	generate/STIM_023.jpg
2249.467	2.044	1	generate	Run3	generate/STIM_023.jpg
2253.465	1.844	1	generate	Run3	generate/STIM_023.jpg
2258.18	2.141	1	generate	Run3	generate/STIM_023.jpg
2263.677	2.266	1	generate	Run3	generate/STIM_023.jpg
2269.117	1.696	1	generate	Run3	generate/STIM_024.jpg
2274.311	1.914	1	generate	Run3	generate/STIM_024.jpg
2278.345	1.272	1	generate	Run3	generate/STIM_024.jpg
2282.537	1.03	1	generate	Run3	generate/STIM_024.jpg
2287.338	1.491	1	generate	Run3	generate/STIM_024.jpg
2291.469	0.894	1	repeat	Run3	repeat/STIM_000.jpg
2295.995	0.921	0	repeat	Run3	repeat/STIM_000.jpg
2299.862	0.739	1	repeat	Run3	repeat/STIM_000.jpg
2303.678	0.823	1	repeat	Run3	repeat/STIM_000.jpg
2306.648	0.979	1	repeat	Run3	repeat/STIM_000.jpg
2309.563	1.105	1	repeat	Run3	repeat/STIM_001.jpg
2314.454	1.101	1	repeat	Run3	repeat/STIM_001.jpg
2318.981	0.566	1	repeat	Run3	repeat/STIM_001.jpg
2321.564	0.726	1	repeat	Run3	repeat/STIM_001.jpg
2325.151	0.626	1	repeat	Run3	repeat/STIM_001.jpg
2328.033	0.709	1	repeat	Run3	repeat/STIM_002.jpg
2331.61	0.774	1	repeat	Run3	repeat/STIM_002.jpg
2334.854	0.984	1	repeat	Run3	repeat/STIM_002.jpg
2339.407	1.081	1	repeat	Run3	repeat/STIM_002.jpg
2343.658	0.938	1	repeat	Run3	repeat/STIM_002.jpg
2347.674	0.877	1	repeat	Run3	repeat/STIM_003.jpg
2351.623	0.8	1	repeat	Run3	repeat/STIM_003.jpg
2354.648	1.055	1	repeat	Run3	repeat/STIM_003.jpg
2357.992	1.082	1	repeat	Run3	repeat/STIM_003.jpg
2361.322	0.827	0	repeat	Run3	repeat/STIM_003.jpg
2364.852	0.988	1	repeat	Run3	repeat/STIM_004.jpg
2368.508	0.68	1	repeat	Run3	repeat/STIM_004.jpg
2372.886	0.551	1	repeat	Run3	repeat/STIM_004.jpg
2377.216	0.914	1	repeat	Run3	repeat/STIM_004.jpg
2380.373	0.802	1	repeat	Run3	repeat/STIM_004.jpg
2384.526	0.785	1	repeat	Run3	repeat/STIM_005.jpg
2387.394	1.016	1	repeat	Run3	repeat/STIM_005.jpg
2390.419	0.629	1	repeat	Run3	repeat/STIM_005.jpg
2394.458	0.701	1	repeat	Run3	repeat/STIM_005.jpg
2398.068	0.904	1	repeat	Run3	repeat/STIM_005.jpg
2402.319	0.88	1	repeat	Run3	repeat/STIM_006.jpg
2405.11	0.616	1	repeat	Run3	repeat/STIM_006.jpg
2407.838	0.804	1	repeat	Run3	repeat/STIM_006.jpg
2411.062	1.146	1	repeat	Run3	repeat/STIM_006.jpg
2414.536	1.103	1	repeat	Run3	repeat/STIM_006.jpg
2418.467	0.966	1	repeat	Run3	repeat/STIM_007.jpg
2421.948	0.946	1	repeat	Run3	repeat/STIM_007.jpg
2425.57	0.973	1	repeat	Run3	repeat/STIM_007.jpg
2428.642	0.899	1	repeat	Run3	repeat/STIM_007.jpg
2431.663	0.89	1	repeat	Run3	repeat/STIM_007.jpg
2435.219	1.006	1	repeat	Run3	repeat/STIM_008.jpg
2439.028	0.938	1	repeat	Run3	repeat/STIM_008.jpg
2443.151	0.725	1	repeat	Run3	repeat/STIM_008.jpg
2446.887	0.929	1	repeat	Run3	repeat/STIM_008.jpg
2450.552	0.624	1	repeat	Run3	repeat/STIM_008.jpg
2453.755	1.005	1	repeat	Run3	repeat/STIM_009.jpg
2458.344	1.16	1	repeat	Run3	repeat/STIM_009.jpg
2463.041	0.912	1	repeat	Run3	repeat/STIM_009.jpg
2465.969	0.685	1	repeat	Run3	repeat/STIM_009.jpg
2469.126	0.909	0	repeat	Run3	repeat/STIM_009.jpg
2473.224	0.832	1	repeat	Run3	repeat/STIM_010.jpg
2477.839	1.033	1	repeat	Run3	repeat/STIM_010.jpg
2480.767	1.059	1	repeat	Run3	repeat/STIM_010.jpg
2485.017	0.995	1	repeat	Run3	repeat/STIM_010.jpg
2488.341	0.78	1	repeat	Run3	repeat/STIM_010.jpg
2492.063	0.839	1	repeat	Run3	repeat/STIM_011.jpg
2496.048	0.876	1	repeat	Run3	repeat/STIM_011.jpg
2499.847	0.893	1	repeat	Run3	repeat/STIM_011.jpg
2503.669	1.091	1	repeat	Run3	repeat/STIM_011.jpg
2507.224	0.669	1	repeat	Run3	repeat/STIM_011.jpg
2510.758	0.793	1	repeat	Run3	repeat/STIM_012.jpg
2515.132	1.013	1	repeat	Run3	repeat/STIM_012.jpg
2519.718	0.968	1	repeat	Run3	repeat/STIM_012.jpg
2522.874	0.928	1	repeat	Run3	repeat/STIM_012.jpg
2526.545	0.981	1	repeat	Run3	repeat/STIM_012.jpg
2530.116	0.877	1	repeat	Run3	repeat/STIM_013.jpg
2533.605	0.54	1	repeat	Run3	repeat/STIM_013.jpg
2537.933	1.118	1	repeat	Run3	repeat/STIM_013.jpg
2542.178	1.042	1	repeat	Run3	repeat/STIM_013.jpg
2545.921	0.966	1	repeat	Run3	repeat/STIM_013.jpg
2550.304	0.787	1	repeat	Run3	repeat/STIM_014.jpg
2554.65	0.94	0	repeat	Run3	repeat/STIM_014.jpg
2558.247	0.931	1	repeat	Run3	repeat/STIM_014.jpg
2561.626	0.82	1	repeat	Run3	repeat/STIM_014.jpg
2565.811	1.047	1	repeat	Run3	repeat/STIM_014.jpg
2569.572	2.081	1	generate	Run4	generate/STIM_000.jpg
2573.778	1.309	1	generate	Run4	generate/STIM_000.jpg
2578.723	1.507	1	generate	Run4	generate/STIM_000.jpg
2583.104	1.576	1	generate	Run4	generate/STIM_000.jpg
2588.171	2.216	1	generate	Run4	generate/STIM_000.jpg
2593.312	1.532	1	generate	Run4	generate/STIM_001.jpg
2596.853	1.0	1	generate	Run4	generate/STIM_001.jpg
2600.387	1.364	1	generate	Run4	generate/STIM_001.jpg
2605.368	1.42	1	generate	Run4	generate/STIM_001.jpg
2608.908	1.843	1	generate	Run4	generate/STIM_001.jpg
2613.025	1.782	1	generate	Run4	generate/STIM_002.jpg
2618.328	2.311	1	generate	Run4	generate/STIM_002.jpg
2623.025	1.446	1	generate	Run4	generate/STIM_002.jpg
2627.829	2.156	1	generate	Run4	generate/STIM_002.jpg
2633.08	1.543	1	generate	Run4	generate/STIM_002.jpg
2636.611	1.755	1	generate	Run4	generate/STIM_003.jpg
2641.309	0.994	1	generate	Run4	generate/STIM_003.jpg
2645.911	1.225	1	generate	Run4	generate/STIM_003.jpg
2650.18	2.015	1	generate	Run4	generate/STIM_003.jpg
2655.608	1.583	1	generate	Run4	generate/STIM_003.jpg
2660.63	2.022	1	generate	Run4	generate/STIM_004.jpg
2665.304	1.932	1	generate	Run4	generate/STIM_004.jpg
2670.762	1.558	1	generate	Run4	generate/STIM_004.jpg
2674.497	1.839	1	generate	Run4	generate/STIM_004.jpg
2679.617	1.493	1	generate	Run4	generate/STIM_004.jpg
2683.873	1.995	1	generate	Run4	generate/STIM_005.jpg
2689.596	1.183	1	generate	Run4	generate/STIM_005.jpg
2694.335	1.144	1	generate	Run4	generate/STIM_005.jpg
2697.814	1.47	1	generate	Run4	generate/STIM_005.jpg
2702.651	1.029	1	generate	Run4	generate/STIM_005.jpg
2705.996	1.602	1	generate	Run4	generate/STIM_006.jpg
2711.156	1.335	1	generate	Run4	generate/STIM_006.jpg
2714.393	0.971	1	generate	Run4	generate/STIM_006.jpg
2718.25	1.53	1	generate	Run4	generate/STIM_006.jpg
2721.754	1.737	1	generate	Run4	generate/STIM_006.jpg
2726.524	1.515	1	generate	Run4	generate/STIM_007.jpg
2731.654	2.12	1	generate	Run4	generate/STIM_007.jpg
2736.656	1.006	1	generate	Run4	generate/STIM_007.jpg
2741.028	2.131	1	generate	Run4	generate/STIM_007.jpg
2746.549	1.031	1	generate	Run4	generate/STIM_007.jpg
2749.709	1.391	1	generate	Run4	generate/STIM_008.jpg
2753.85	2.107	1	generate	Run4	generate/STIM_008.jpg
2759.309	1.297	1	generate	Run4	generate/STIM_008.jpg
2763.589	1.058	1	generate	Run4	generate/STIM_008.jpg
2766.745	1.411	1	generate	Run4	generate/STIM_008.jpg
2771.011	1.396	1	generate	Run4	generate/STIM_009.jpg
2775.197	2.428	1	generate	Run4	generate/STIM_009.jpg
2780.289	1.523	1	generate	Run4	generate/STIM_009.jpg
2784.264	2.133	1	generate	Run4	generate/STIM_009.jpg
2789.693	1.784	0	generate	Run4	generate/STIM_009.jpg
2793.394	1.738	1	generate	Run4	generate/STIM_010.jpg
2798.06	1.677	1	generate	Run4	generate/STIM_010.jpg
2802.182	1.704	0	generate	Run4	generate/STIM_010.jpg
2806.685	2.213	1	generate	Run4	generate/STIM_010.jpg
2812.128	1.887	1	generate	Run4	generate/STIM_010.jpg
2817.357	1.82	1	generate	Run4	generate/STIM_011.jpg
2822.49	1.103	1	generate	Run4	generate/STIM_011.jpg
2827.048	2.335	1	generate	Run4	generate/STIM_011.jpg
2832.677	2.222	1	generate	Run4	generate/STIM_011.jpg
2838.023	1.72	1	generate	Run4	generate/STIM_011.jpg
2842.979	1.882	1	generate	Run4	generate/STIM_012.jpg
2847.373	1.598	1	generate	Run4	generate/STIM_012.jpg
2851.797	1.256	0	generate	Run4	generate/STIM_012.jpg
2856.127	1.442	1	generate	Run4	generate/STIM_012.jpg
2859.618	2.312	1	generate	Run4	generate/STIM_012.jpg
2863.707	1.968	1	generate	Run4	generate/STIM_013.jpg
2868.925	1.831	1	generate	Run4	generate/STIM_013.jpg
2874.358	0.956	1	generate	Run4	generate/STIM_013.jpg
2877.252	1.002	1	generate	Run4	generate/STIM_013.jpg
2880.153	1.602	1	generate	Run4	generate/STIM_013.jpg
2883.945	2.109	1	generate	Run4	generate/STIM_014.jpg
2888.848	1.699	1	generate	Run4	generate/STIM_014.jpg
2892.372	1.219	1	generate	Run4	generate/STIM_014.jpg
2895.762	0.913	0	generate	Run4	generate/STIM_014.jpg
2898.775	2.284	1	generate	Run4	generate/STIM_014.jpg
2903.246	2.027	1	generate	Run4	generate/STIM_015.jpg
2908.694	1.402	1	generate	Run4	generate/STIM_015.jpg
2912.251	2.206	0	generate	Run4	generate/STIM_015.jpg
2917.822	2.293	1	generate	Run4	generate/STIM_015.jpg
2922.587	0.966	1	generate	Run4	generate/STIM_015.jpg
2926.255	1.384	1	generate	Run4	generate/STIM_016.jpg
2931.268	2.172	1	generate	Run4	generate/STIM_016.jpg
2935.231	1.98	1	generate	Run4	generate/STIM_016.jpg
2939.62	1.217	1	generate	Run4	generate/STIM_016.jpg
2942.89	1.155	1	generate	Run4	generate/STIM_016.jpg
2946.376	1.037	1	generate	Run4	generate/STIM_017.jpg
2951.146	1.762	1	generate	Run4	generate/STIM_017.jpg
2956.382	1.196	1	generate	Run4	generate/STIM_017.jpg
2960.615	1.469	1	generate	Run4	generate/STIM_017.jpg
2965.805	1.526	1	generate	Run4	generate/STIM_017.jpg
2969.757	1.142	1	generate	Run4	generate/STIM_018.jpg
2972.974	1.236	0	generate	Run4	generate/STIM_018.jpg
2976.336	1.431	1	generate	Run4	generate/STIM_018.jpg
2979.717	2.245	1	generate	Run4	generate/STIM_018.jpg
2984.5	2.056	1	generate	Run4	generate/STIM_018.jpg
2989.987	1.802	1	generate	Run4	generate/STIM_019.jpg
2994.712	1.811	1	generate	Run4	generate/STIM_019.jpg
2998.409	1.262	1	generate	Run4	generate/STIM_019.jpg
3002.0	1.67	1	generate	Run4	generate/STIM_019.jpg
3006.968	2.028	1	generate	Run4	generate/STIM_019.jpg
3012.021	1.231	0	generate	Run4	generate/STIM_020.jpg
3015.885	2.026	1	generate	Run4	generate/STIM_020.jpg
3020.797	1.059	1	generate	Run4	generate/STIM_020.jpg
3024.459	2.273	1	generate	Run4	generate/STIM_020.jpg
3029.352	2.309	1	generate	Run4	generate/STIM_020.jpg
3035.383	2.221	1	generate	Run4	generate/STIM_021.jpg
3039.953	1.498	1	generate	Run4	generate/STIM_021.jpg
3043.379	1.364	1	generate	Run4	generate/STIM_021.jpg
3047.384	2.393	1	generate	Run4	generate/STIM_021.jpg
3053.245	1.136	1	generate	Run4	generate/STIM_021.jpg
3057.271	2.14	1	generate	Run4	generate/STIM_022.jpg
3062.612	2.021	1	generate	Run4	generate/STIM_022.jpg
3068.083	1.667	1	generate	Run4	generate/STIM_022.jpg
3072.105	1.034	1	generate	Run4	generate/STIM_022.jpg
3075.398	2.01	1	generate	Run4	generate/STIM_022.jpg
3080.306	1.127	1	generate	Run4	generate/STIM_023.jpg
3084.443	1.894	0	generate	Run4	generate/STIM_023.jpg
3089.887	2.205	1	generate	Run4	generate/STIM_023.jpg
3094.699	1.026	1	generate	Run4	generate/STIM_023.jpg
3097.74	1.357	1	generate	Run4	generate/STIM_023.jpg
3101.809	1.318	1	generate	Run4	generate/STIM_024.jpg
3106.449	2.007	1	generate	Run4	generate/STIM_024.jpg
3110.449	1.217	1	generate	Run4	generate/STIM_024.jpg
3114.954	1.511	1	generate	Run4	generate/STIM_024.jpg
3120.236	1.177	1	generate	Run4	generate/STIM_024.jpg
3125.09	1.166	1	repeat	Run4	repeat/STIM_000.jpg
3128.912	1.117	1	repeat	Run4	repeat/STIM_000.jpg
3133.901	0.909	1	repeat	Run4	repeat/STIM_000.jpg
3136.885	0.82	1	repeat	Run4	repeat/STIM_000.jpg
3141.319	0.634	1	repeat	Run4	repeat/STIM_000.jpg
3144.147	0.978	1	repeat	Run4	repeat/STIM_001.jpg
3147.351	1.096	0	repeat	Run4	repeat/STIM_001.jpg
3152.182	0.988	1	repeat	Run4	repeat/STIM_001.jpg
3157.041	0.62	1	repeat	Run4	repeat/STIM_001.jpg
3161.151	1.017	1	repeat	Run4	repeat/STIM_001.jpg
3165.804	0.576	1	repeat	Run4	repeat/STIM_002.jpg
3169.441	0.688	1	repeat	Run4	repeat/STIM_002.jpg
3173.274	1.072	1	repeat	Run4	repeat/STIM_002.jpg
3178.032	0.578	1	repeat	Run4	repeat/STIM_002.jpg
3181.798	0.876	1	repeat	Run4	repeat/STIM_002.jpg
3186.204	1.026	1	repeat	Run4	repeat/STIM_003.jpg
3190.488	0.641	1	repeat	Run4	repeat/STIM_003.jpg
3193.926	0.743	1	repeat	Run4	repeat/STIM_003.jpg
3198.112	0.864	0	repeat	Run4	repeat/STIM_003.jpg
3201.345	0.727	1	repeat	Run4	repeat/STIM_003.jpg
3205.734	1.174	1	repeat	Run4	repeat/STIM_004.jpg
3210.437	0.892	1	repeat	Run4	repeat/STIM_004.jpg
3214.315	0.608	0	repeat	Run4	repeat/STIM_004.jpg
3217.929	0.937	1	repeat	Run4	repeat/STIM_004.jpg
3222.156	0.564	0	repeat	Run4	repeat/STIM_004.jpg
3226.065	0.668	1	repeat	Run4	repeat/STIM_005.jpg
3229.474	0.63	0	repeat	Run4	repeat/STIM_005.jpg
3233.963	0.835	1	repeat	Run4	repeat/STIM_005.jpg
3236.943	0.789	1	repeat	Run4	repeat/STIM_005.jpg
3239.848	1.048	1	repeat	Run4	repeat/STIM_005.jpg
3244.456	0.842	1	repeat	Run4	repeat/STIM_006.jpg
3248.562	0.832	1	repeat	Run4	repeat/STIM_006.jpg
3252.357	0.952	1	repeat	Run4	repeat/STIM_006.jpg
3256.81	0.801	1	repeat	Run4	repeat/STIM_006.jpg
3259.67	0.746	1	repeat	Run4	repeat/STIM_006.jpg
3262.381	0.912	1	repeat	Run4	repeat/STIM_007.jpg
3266.261	0.87	1	repeat	Run4	repeat/STIM_007.jpg
3269.033	0.88	1	repeat	Run4	repeat/STIM_007.jpg
3272.208	1.062	1	repeat	Run4	repeat/STIM_007.jpg
3276.698	0.522	1	repeat	Run4	repeat/STIM_007.jpg
3280.715	0.756	1	repeat	Run4	repeat/STIM_008.jpg
3283.632	0.818	0	repeat	Run4	repeat/STIM_008.jpg
3286.83	1.058	0	repeat	Run4	repeat/STIM_008.jpg
3289.852	1.027	1	repeat	Run4	repeat/STIM_008.jpg
3293.255	1.056	1	repeat	Run4	repeat/STIM_008.jpg
3297.565	1.124	1	repeat	Run4	repeat/STIM_009.jpg
3301.468	0.904	1	repeat	Run4	repeat/STIM_009.jpg
3305.263	1.017	1	repeat	Run4	repeat/STIM_009.jpg
3309.217	0.649	1	repeat	Run4	repeat/STIM_009.jpg
3313.675	0.973	1	repeat	Run4	repeat/STIM_009.jpg
3316.905	0.65	1	repeat	Run4	repeat/STIM_010.jpg
3319.624	1.145	1	repeat	Run4	repeat/STIM_010.jpg
3323.318	0.625	1	repeat	Run4	repeat/STIM_010.jpg
3325.917	0.978	1	repeat	Run4	repeat/STIM_010.jpg
3330.193	0.771	1	repeat	Run4	repeat/STIM_010.jpg
3333.567	0.876	1	repeat	Run4	repeat/STIM_011.jpg
3336.832	0.673	1	repeat	Run4	repeat/STIM_011.jpg
3339.802	0.985	1	repeat	Run4	repeat/STIM_011.jpg
3343.736	0.915	1	repeat	Run4	repeat/STIM_011.jpg
3347.229	0.984	1	repeat	Run4	repeat/STIM_011.jpg
3350.383	0.703	1	repeat	Run4	repeat/STIM_012.jpg
3354.698	0.746	1	repeat	Run4	repeat/STIM_012.jpg
3358.287	0.678	1	repeat	Run4	repeat/STIM_012.jpg
3361.635	0.644	1	repeat	Run4	repeat/STIM_012.jpg
3364.53	0.589	1	repeat	Run4	repeat/STIM_012.jpg
3368.026	1.14	1	repeat	Run4	repeat/STIM_013.jpg
3372.823	1.019	1	repeat	Run4	repeat/STIM_013.jpg
3376.184	0.917	0	repeat	Run4	repeat/STIM_013.jpg
3379.199	0.865	1	repeat	Run4	repeat/STIM_013.jpg
3382.444	1.154	1	repeat	Run4	repeat/STIM_013.jpg
3385.877	1.116	1	repeat	Run4	repeat/STIM_014.jpg
3390.169	1.064	1	repeat	Run4	repeat/STIM_014.jpg
3393.794	0.835	1	repeat	Run4	repeat/STIM_014.jpg
3397.032	0.986	1	repeat	Run4	repeat/STIM_014.jpg
3399.955	0.564	1	repeat	Run4	repeat/STIM_014.jpg
