onset	duration	response_time_ms	trial_type	learning_stage	stimulus	response_port
0.0	2.723	2723.1	generate	Run1	generate/STIM_000.jpg	99
5.451	3.132	3131.5	generate	Run1	generate/STIM_000.jpg	99
10.736	2.277	2277.1	generate	Run1	generate/STIM_000.jpg	99
16.017	2.317	2317.2	generate	Run1	generate/STIM_000.jpg	100
20.64	1.946	1945.5	generate	Run1	generate/STIM_000.jpg	100
25.504	3.522	3521.6	generate	Run1	generate/STIM_001.jpg	99
32.427	2.117	2117.3	generate	Run1	generate/STIM_001.jpg	100
37.745	2.913	2913.3	generate	Run1	generate/STIM_001.jpg	100
44.395	2.759	2759.3	generate	Run1	generate/STIM_001.jpg	99
49.617	2.849	2848.6	generate	Run1	generate/STIM_001.jpg	99
55.16	3.471	3470.8	generate	Run1	generate/STIM_002.jpg	100
62.044	2.87	2870.2	generate	Run1	generate/STIM_002.jpg	100
67.657	2.73	2729.9	generate	Run1	generate/STIM_002.jpg	99
72.512	1.434	1433.9	generate	Run1	generate/STIM_002.jpg	99
77.625	2.854	2853.5	generate	Run1	generate/STIM_002.jpg	100
82.867	2.739	2738.6	generate	Run1	generate/STIM_003.jpg	100
87.881	2.0	2000.3	generate	Run1	generate/STIM_003.jpg	100
93.193	2.138	2137.5	generate	Run1	generate/STIM_003.jpg	100
98.926	2.13	2130.2	generate	Run1	generate/STIM_003.jpg	99
103.142	1.93	1930.2	generate	Run1	generate/STIM_003.jpg	99
108.278	2.115	2114.9	generate	Run1	generate/STIM_004.jpg	99
113.051	2.666	2666.1	generate	Run1	generate/STIM_004.jpg	99
119.489	1.94	1939.5	generate	Run1	generate/STIM_004.jpg	100
123.658	1.4	1400.2	generate	Run1	generate/STIM_004.jpg	100
128.86	1.591	1591.4	generate	Run1	generate/STIM_004.jpg	100
133.403	1.431	1431.1	generate	Run1	generate/STIM_005.jpg	100
137.78	2.191	2191.2	generate	Run1	generate/STIM_005.jpg	99
143.409	2.027	2026.8	generate	Run1	generate/STIM_005.jpg	100
149.057	1.434	1433.9	generate	Run1	generate/STIM_005.jpg	99
152.606	1.779	1778.9	generate	Run1	generate/STIM_005.jpg	100
156.975	2.504	2503.5	generate	Run1	generate/STIM_006.jpg	99
162.403	2.594	2594.1	generate	Run1	generate/STIM_006.jpg	99
167.511	2.748	2748.3	generate	Run1	generate/STIM_006.jpg	100
172.977	2.658	2658.4	generate	Run1	generate/STIM_006.jpg	99
178.688	1.775	1775.4	generate	Run1	generate/STIM_006.jpg	99
183.631	2.323	2322.7	generate	Run1	generate/STIM_007.jpg	99
188.463	2.374	2373.9	generate	Run1	generate/STIM_007.jpg	99
193.981	1.412	1412.2	generate	Run1	generate/STIM_007.jpg	100
197.704	2.545	2545.4	generate	Run1	generate/STIM_007.jpg	99
203.565	1.574	1574.1	generate	Run1	generate/STIM_007.jpg	99
207.261	3.2	3200.4	generate	Run1	generate/STIM_008.jpg	100
214.303	2.271	2270.6	generate	Run1	generate/STIM_008.jpg	100
220.234	3.099	3099.1	generate	Run1	generate/STIM_008.jpg	99
225.373	2.298	2298.4	generate	Run1	generate/STIM_008.jpg	99
230.153	2.297	2296.7	generate	Run1	generate/STIM_008.jpg	99
235.282	3.122	3121.9	generate	Run1	generate/STIM_009.jpg	100
242.1	1.403	1402.8	generate	Run1	generate/STIM_009.jpg	99
245.796	2.62	2619.7	generate	Run1	generate/STIM_009.jpg	100
250.89	1.881	1880.9	generate	Run1	generate/STIM_009.jpg	100
254.824	2.846	2845.9	generate	Run1	generate/STIM_009.jpg	99
260.02	1.729	1728.7	generate	Run1	generate/STIM_010.jpg	99
264.185	1.395	1395.0	generate	Run1	generate/STIM_010.jpg	99
267.93	2.064	2064.3	generate	Run1	generate/STIM_010.jpg	100
272.602	2.337	2336.7	generate	Run1	generate/STIM_010.jpg	100
277.832	1.898	1897.8	generate	Run1	generate/STIM_010.jpg	100
282.492	3.019	3018.6	generate	Run1	generate/STIM_011.jpg	100
288.68	1.686	1686.3	generate	Run1	generate/STIM_011.jpg	100
293.692	1.628	1628.1	generate	Run1	generate/STIM_011.jpg	99
297.453	3.0	2999.5	generate	Run1	generate/STIM_011.jpg	100
302.507	1.581	1581.1	generate	Run1	generate/STIM_011.jpg	100
307.264	1.966	1966.3	generate	Run1	generate/STIM_012.jpg	99
311.345	1.713	1713.4	generate	Run1	generate/STIM_012.jpg	99
315.944	1.707	1706.9	generate	Run1	generate/STIM_012.jpg	100
321.358	2.503	2503.1	generate	Run1	generate/STIM_012.jpg	99
327.645	2.74	2739.9	generate	Run1	generate/STIM_012.jpg	99
333.313	3.024	3024.3	generate	Run1	generate/STIM_013.jpg	100
339.254	2.501	2501.4	generate	Run1	generate/STIM_013.jpg	100
344.867	1.832	1832.2	generate	Run1	generate/STIM_013.jpg	100
348.768	2.021	2021.4	generate	Run1	generate/STIM_013.jpg	99
353.66	2.723	2722.8	generate	Run1	generate/STIM_013.jpg	100
360.33	3.496	3495.9	generate	Run1	generate/STIM_014.jpg	100
366.032	2.185	2185.0	generate	Run1	generate/STIM_014.jpg	99
370.707	2.893	2892.8	generate	Run1	generate/STIM_014.jpg	100
376.762	1.568	1567.6	generate	Run1	generate/STIM_014.jpg	100
380.996	2.113	2113.1	generate	Run1	generate/STIM_014.jpg	100
386.94	1.684	1684.1	generate	Run1	generate/STIM_015.jpg	99
391.821	2.551	2551.0	generate	Run1	generate/STIM_015.jpg	99
397.461	1.997	1997.0	generate	Run1	generate/STIM_015.jpg	100
401.598	1.312	1312.4	generate	Run1	generate/STIM_015.jpg	100
405.928	2.407	2406.7	generate	Run1	generate/STIM_015.jpg	99
411.851	2.568	2568.5	generate	Run1	generate/STIM_016.jpg	100
417.908	2.837	2836.9	generate	Run1	generate/STIM_016.jpg	100
423.71	2.311	2310.7	generate	Run1	generate/STIM_016.jpg	100
428.927	2.868	2867.6	generate	Run1	generate/STIM_016.jpg	99
434.623	2.674	2674.5	generate	Run1	generate/STIM_016.jpg	100
440.953	3.036	3036.1	generate	Run1	generate/STIM_017.jpg	99
447.287	2.668	2667.7	generate	Run1	generate/STIM_017.jpg	99
452.414	1.392	1391.7	generate	Run1	generate/STIM_017.jpg	99
456.781	2.856	2856.5	generate	Run1	generate/STIM_017.jpg	99
462.384	1.792	1792.5	generate	Run1	generate/STIM_017.jpg	99
466.564	1.682	1682.4	generate	Run1	generate/STIM_018.jpg	100
470.571	2.378	2377.5	generate	Run1	generate/STIM_018.jpg	100
475.021	2.415	2415.0	generate	Run1	generate/STIM_018.jpg	100
479.836	2.486	2485.5	generate	Run1	generate/STIM_018.jpg	100
484.366	2.214	2213.6	generate	Run1	generate/STIM_018.jpg	99
489.086	2.705	2704.8	generate	Run1	generate/STIM_019.jpg	99
494.091	3.077	3076.9	generate	Run1	generate/STIM_019.jpg	100
500.935	2.513	2512.6	generate	Run1	generate/STIM_019.jpg	100
505.783	2.44	2439.7	generate	Run1	generate/STIM_019.jpg	100
511.99	1.591	1591.1	generate	Run1	generate/STIM_019.jpg	99
517.578	2.013	2013.2	generate	Run1	generate/STIM_020.jpg	99
522.746	1.59	1589.6	generate	Run1	generate/STIM_020.jpg	99
527.306	2.512	2512.5	generate	Run1	generate/STIM_020.jpg	99
532.744	2.848	2847.7	generate	Run1	generate/STIM_020.jpg	100
538.809	2.828	2827.6	generate	Run1	generate/STIM_020.jpg	99
545.547	3.387	3386.7	generate	Run1	generate/STIM_021.jpg	100
551.905	2.261	2261.4	generate	Run1	generate/STIM_021.jpg	100
556.253	3.184	3184.4	generate	Run1	generate/STIM_021.jpg	100
563.007	2.978	2977.8	generate	Run1	generate/STIM_021.jpg	99
568.459	2.832	2832.1	generate	Run1	generate/STIM_021.jpg	99
575.206	1.624	1624.0	generate	Run1	generate/STIM_022.jpg	99
580.369	3.122	3122.0	generate	Run1	generate/STIM_022.jpg	99
586.021	2.304	2304.5	generate	Run1	generate/STIM_022.jpg	99
590.957	2.186	2186.3	generate	Run1	generate/STIM_022.jpg	99
596.889	1.992	1992.5	generate	Run1	generate/STIM_022.jpg	99
602.877	3.023	3023.3	generate	Run1	generate/STIM_023.jpg	100
609.4	3.007	3007.3	generate	Run1	generate/STIM_023.jpg	99
616.244	2.612	2612.2	generate	Run1	generate/STIM_023.jpg	100
621.729	2.25	2250.4	generate	Run1	generate/STIM_023.jpg	99
627.978	2.675	2675.1	generate	Run1	generate/STIM_023.jpg	99
633.864	1.571	1570.7	generate	Run1	generate/STIM_024.jpg	100
638.623	1.6	1599.8	generate	Run1	generate/STIM_024.jpg	99
643.6	1.424	1423.8	generate	Run1	generate/STIM_024.jpg	99
648.735	1.749	1748.6	generate	Run1	generate/STIM_024.jpg	100
653.431	2.344	2343.6	generate	Run1	generate/STIM_024.jpg	99
657.796	0.732	731.5	repeat	Run1	repeat/STIM_000.jpg	99
661.028	0.91	909.6	repeat	Run1	repeat/STIM_000.jpg	100
664.134	1.099	1098.8	repeat	Run1	repeat/STIM_000.jpg	99
668.582	0.863	863.4	repeat	Run1	repeat/STIM_000.jpg	99
671.842	0.826	826.4	repeat	Run1	repeat/STIM_000.jpg	100
675.867	1.183	1183.0	repeat	Run1	repeat/STIM_001.jpg	100
679.971	0.917	917.0	repeat	Run1	repeat/STIM_001.jpg	100
684.827	0.634	634.1	repeat	Run1	repeat/STIM_001.jpg	100
687.765	0.717	717.0	repeat	Run1	repeat/STIM_001.jpg	100
691.524	1.006	1006.1	repeat	Run1	repeat/STIM_001.jpg	100
695.279	1.031	1030.9	repeat	Run1	repeat/STIM_002.jpg	100
700.305	0.772	772.1	repeat	Run1	repeat/STIM_002.jpg	100
705.017	0.678	678.0	repeat	Run1	repeat/STIM_002.jpg	99
708.803	0.974	974.2	repeat	Run1	repeat/STIM_002.jpg	99
713.751	0.718	718.3	repeat	Run1	repeat/STIM_002.jpg	100
717.904	0.694	694.5	repeat	Run1	repeat/STIM_003.jpg	99
721.675	0.853	852.9	repeat	Run1	repeat/STIM_003.jpg	100
725.297	0.938	938.2	repeat	Run1	repeat/STIM_003.jpg	100
729.331	0.782	782.1	repeat	Run1	repeat/STIM_003.jpg	99
733.209	1.162	1161.5	repeat	Run1	repeat/STIM_003.jpg	100
738.201	0.761	760.9	repeat	Run1	repeat/STIM_004.jpg	100
742.174	0.77	769.7	repeat	Run1	repeat/STIM_004.jpg	99
745.201	1.014	1014.0	repeat	Run1	repeat/STIM_004.jpg	99
748.378	0.923	923.0	repeat	Run1	repeat/STIM_004.jpg	100
751.702	0.827	827.1	repeat	Run1	repeat/STIM_004.jpg	100
755.198	1.179	1179.0	repeat	Run1	repeat/STIM_005.jpg	99
759.739	0.987	987.2	repeat	Run1	repeat/STIM_005.jpg	99
763.111	0.718	717.6	repeat	Run1	repeat/STIM_005.jpg	100
765.974	0.982	982.0	repeat	Run1	repeat/STIM_005.jpg	99
770.932	0.785	785.3	repeat	Run1	repeat/STIM_005.jpg	99
774.661	0.975	975.4	repeat	Run1	repeat/STIM_006.jpg	100
778.099	0.603	602.8	repeat	Run1	repeat/STIM_006.jpg	99
780.843	0.599	599.4	repeat	Run1	repeat/STIM_006.jpg	99
784.045	0.783	782.7	repeat	Run1	repeat/STIM_006.jpg	99
786.977	0.839	839.1	repeat	Run1	repeat/STIM_006.jpg	100
791.693	1.029	1028.9	repeat	Run1	repeat/STIM_007.jpg	99
795.957	0.604	603.6	repeat	Run1	repeat/STIM_007.jpg	100
799.538	0.7	700.3	repeat	Run1	repeat/STIM_007.jpg	99
803.377	1.099	1098.6	repeat	Run1	repeat/STIM_007.jpg	100
807.529	1.054	1054.4	repeat	Run1	repeat/STIM_007.jpg	99
812.493	0.922	922.3	repeat	Run1	repeat/STIM_008.jpg	99
816.7	1.042	1042.4	repeat	Run1	repeat/STIM_008.jpg	100
820.929	0.71	710.2	repeat	Run1	repeat/STIM_008.jpg	99
825.353	0.961	961.2	repeat	Run1	repeat/STIM_008.jpg	99
829.311	1.164	1164.5	repeat	Run1	repeat/STIM_008.jpg	99
832.647	1.052	1052.2	repeat	Run1	repeat/STIM_009.jpg	100
837.485	0.66	660.2	repeat	Run1	repeat/STIM_009.jpg	99
841.352	0.877	876.7	repeat	Run1	repeat/STIM_009.jpg	100
845.381	0.97	970.0	repeat	Run1	repeat/STIM_009.jpg	100
849.913	0.768	768.3	repeat	Run1	repeat/STIM_009.jpg	100
854.547	0.652	651.7	repeat	Run1	repeat/STIM_010.jpg	100
857.378	1.126	1126.2	repeat	Run1	repeat/STIM_010.jpg	100
861.198	0.829	829.4	repeat	Run1	repeat/STIM_010.jpg	99
865.2	0.918	918.0	repeat	Run1	repeat/STIM_010.jpg	99
868.968	0.846	846.5	repeat	Run1	repeat/STIM_010.jpg	100
872.476	0.779	778.6	repeat	Run1	repeat/STIM_011.jpg	100
875.76	0.996	995.8	repeat	Run1	repeat/STIM_011.jpg	99
879.792	0.722	722.4	repeat	Run1	repeat/STIM_011.jpg	100
883.623	0.615	614.8	repeat	Run1	repeat/STIM_011.jpg	99
887.55	0.783	782.6	repeat	Run1	repeat/STIM_011.jpg	100
891.31	0.69	690.3	repeat	Run1	repeat/STIM_012.jpg	99
894.191	1.051	1051.3	repeat	Run1	repeat/STIM_012.jpg	99
897.932	0.942	942.2	repeat	Run1	repeat/STIM_012.jpg	100
901.872	0.822	821.6	repeat	Run1	repeat/STIM_012.jpg	99
906.294	1.174	1173.5	repeat	Run1	repeat/STIM_012.jpg	100
911.004	1.124	1124.0	repeat	Run1	repeat/STIM_013.jpg	99
914.997	0.697	697.0	repeat	Run1	repeat/STIM_013.jpg	100
917.816	0.603	603.3	repeat	Run1	repeat/STIM_013.jpg	100
920.838	0.934	934.0	repeat	Run1	repeat/STIM_013.jpg	99
924.259	0.673	673.2	repeat	Run1	repeat/STIM_013.jpg	99
927.171	1.129	1129.0	repeat	Run1	repeat/STIM_014.jpg	99
931.882	0.931	930.9	repeat	Run1	repeat/STIM_014.jpg	99
936.172	1.033	1033.1	repeat	Run1	repeat/STIM_014.jpg	99
940.498	0.665	664.8	repeat	Run1	repeat/STIM_014.jpg	100
943.9	0.732	732.0	repeat	Run1	repeat/STIM_014.jpg	99
947.982	1.88	1879.7	generate	Run2	generate/STIM_000.jpg	99
952.679	2.094	2093.8	generate	Run2	generate/STIM_000.jpg	100
957.856	2.126	2126.4	generate	Run2	generate/STIM_000.jpg	99
962.12	2.179	2178.6	generate	Run2	generate/STIM_000.jpg	100
967.012	1.95	1950.3	generate	Run2	generate/STIM_000.jpg	99
972.121	1.24	1240.3	generate	Run2	generate/STIM_001.jpg	100
975.457	1.407	1406.9	generate	Run2	generate/STIM_001.jpg	100
978.869	2.272	2272.5	generate	Run2	generate/STIM_001.jpg	100
983.635	1.901	1901.2	generate	Run2	generate/STIM_001.jpg	100
987.56	1.777	1776.6	generate	Run2	generate/STIM_001.jpg	100
992.41	1.624	1624.2	generate	Run2	generate/STIM_002.jpg	100
997.168	2.64	2639.6	generate	Run2	generate/STIM_002.jpg	100
1002.255	1.894	1893.7	generate	Run2	generate/STIM_002.jpg	99
1007.692	2.168	2167.8	generate	Run2	generate/STIM_002.jpg	99
1013.021	1.146	1146.0	generate	Run2	generate/STIM_002.jpg	100
1018.108	2.534	2534.1	generate	Run2	generate/STIM_003.jpg	100
1024.394	2.431	2431.2	generate	Run2	generate/STIM_003.jpg	100
1029.413	1.483	1483.1	generate	Run2	generate/STIM_003.jpg	100
1033.166	1.241	1241.3	generate	Run2	generate/STIM_003.jpg	99
1036.82	1.237	1237.1	generate	Run2	generate/STIM_003.jpg	100
1040.085	2.155	2155.4	generate	Run2	generate/STIM_004.jpg	100
1045.368	1.595	1594.7	generate	Run2	generate/STIM_004.jpg	99
1050.242	2.32	2319.9	generate	Run2	generate/STIM_004.jpg	100
1054.863	2.451	2451.0	generate	Run2	generate/STIM_004.jpg	100
1061.073	1.278	1278.5	generate	Run2	generate/STIM_004.jpg	100
1065.805	2.93	2930.2	generate	Run2	generate/STIM_005.jpg	100
1071.835	2.796	2796.5	generate	Run2	generate/STIM_005.jpg	99
1076.969	1.707	1707.0	generate	Run2	generate/STIM_005.jpg	99
1081.893	2.48	2480.4	generate	Run2	generate/STIM_005.jpg	99
1087.792	2.09	2090.3	generate	Run2	generate/STIM_005.jpg	99
1092.058	3.004	3004.4	generate	Run2	generate/STIM_006.jpg	100
1097.374	1.364	1364.1	generate	Run2	generate/STIM_006.jpg	99
1101.415	1.746	1746.2	generate	Run2	generate/STIM_006.jpg	100
1105.792	1.3	1300.1	generate	Run2	generate/STIM_006.jpg	99
1109.284	1.726	1726.0	generate	Run2	generate/STIM_006.jpg	100
1114.741	2.988	2987.9	generate	Run2	generate/STIM_007.jpg	100
1121.013	2.468	2468.5	generate	Run2	generate/STIM_007.jpg	100
1126.086	1.848	1847.6	generate	Run2	generate/STIM_007.jpg	99
1130.279	2.036	2035.9	generate	Run2	generate/STIM_007.jpg	100
1134.861	1.566	1566.2	generate	Run2	generate/STIM_007.jpg	99
1138.948	2.062	2062.0	generate	Run2	generate/STIM_008.jpg	99
1143.932	2.316	2316.1	generate	Run2	generate/STIM_008.jpg	99
1149.16	1.811	1811.0	generate	Run2	generate/STIM_008.jpg	99
1154.203	1.325	1325.3	generate	Run2	generate/STIM_008.jpg	100
1157.941	1.855	1854.8	generate	Run2	generate/STIM_008.jpg	100
1162.285	2.563	2562.7	generate	Run2	generate/STIM_009.jpg	99
1168.586	2.094	2094.0	generate	Run2	generate/STIM_009.jpg	100
1174.529	2.559	2559.3	generate	Run2	generate/STIM_009.jpg	100
1179.756	1.857	1857.4	generate	Run2	generate/STIM_009.jpg	100
1184.297	2.318	2318.3	generate	Run2	generate/STIM_009.jpg	99
1189.134	2.003	2002.9	generate	Run2	generate/STIM_010.jpg	99
1193.229	1.326	1326.2	generate	Run2	generate/STIM_010.jpg	99
1197.063	2.132	2132.0	generate	Run2	generate/STIM_010.jpg	100
1202.394	2.194	2194.4	generate	Run2	generate/STIM_010.jpg	100
1207.398	1.851	1851.1	generate	Run2	generate/STIM_010.jpg	100
1212.155	2.842	2842.3	generate	Run2	generate/STIM_011.jpg	99
1218.234	1.722	1722.3	generate	Run2	generate/STIM_011.jpg	99
1223.132	2.251	2251.1	generate	Run2	generate/STIM_011.jpg	100
1228.128	1.799	1798.9	generate	Run2	generate/STIM_011.jpg	99
1232.114	1.666	1666.2	generate	Run2	generate/STIM_011.jpg	99
1237.772	2.189	2189.3	generate	Run2	generate/STIM_012.jpg	100
1243.16	2.516	2515.5	generate	Run2	generate/STIM_012.jpg	100
1249.45	2.029	2029.0	generate	Run2	generate/STIM_012.jpg	99
1254.022	1.134	1134.2	generate	Run2	generate/STIM_012.jpg	99
1257.924	1.396	1395.7	generate	Run2	generate/STIM_012.jpg	100
1262.561	1.921	1920.7	generate	Run2	generate/STIM_013.jpg	99
1268.459	2.714	2714.0	generate	Run2	generate/STIM_013.jpg	99
1274.749	1.848	1847.5	generate	Run2	generate/STIM_013.jpg	99
1279.188	1.506	1505.5	generate	Run2	generate/STIM_013.jpg	99
1282.874	1.019	1019.0	generate	Run2	generate/STIM_013.jpg	100
1287.625	1.359	1359.0	generate	Run2	generate/STIM_014.jpg	100
1292.909	2.809	2809.4	generate	Run2	generate/STIM_014.jpg	100
1299.294	2.15	2149.6	generate	Run2	generate/STIM_014.jpg	100
1303.61	1.008	1007.8	generate	Run2	generate/STIM_014.jpg	100
1308.017	1.811	1810.8	generate	Run2	generate/STIM_014.jpg	99
1313.129	1.79	1789.7	generate	Run2	generate/STIM_015.jpg	99
1317.534	1.908	1907.5	generate	Run2	generate/STIM_015.jpg	99
1323.221	1.106	1105.8	generate	Run2	generate/STIM_015.jpg	99
1327.434	1.304	1304.4	generate	Run2	generate/STIM_015.jpg	100
1331.903	1.228	1228.4	generate	Run2	generate/STIM_015.jpg	100
1335.347	2.324	2324.0	generate	Run2	generate/STIM_016.jpg	100
1340.613	2.238	2238.5	generate	Run2	generate/STIM_016.jpg	100
1345.286	1.394	1393.6	generate	Run2	generate/STIM_016.jpg	100
1349.742	1.123	1123.0	generate	Run2	generate/STIM_016.jpg	99
1354.246	2.198	2198.2	generate	Run2	generate/STIM_016.jpg	99
1358.638	2.959	2959.4	generate	Run2	generate/STIM_017.jpg	99
1365.153	1.735	1734.8	generate	Run2	generate/STIM_017.jpg	99
1369.25	1.123	1123.2	generate	Run2	generate/STIM_017.jpg	99
1372.619	2.222	2221.8	generate	Run2	generate/STIM_017.jpg	99
1378.692	1.837	1836.9	generate	Run2	generate/STIM_017.jpg	100
1383.349	2.757	2756.8	generate	Run2	generate/STIM_018.jpg	99
1389.487	2.11	2109.9	generate	Run2	generate/STIM_018.jpg	99
1394.874	1.434	1434.5	generate	Run2	generate/STIM_018.jpg	100
1398.933	1.532	1531.5	generate	Run2	generate/STIM_018.jpg	100
1404.375	1.018	1018.3	generate	Run2	generate/STIM_018.jpg	100
1408.803	1.427	1427.1	generate	Run2	generate/STIM_019.jpg	100
1413.996	1.415	1415.4	generate	Run2	generate/STIM_019.jpg	100
1418.059	1.074	1074.1	generate	Run2	generate/STIM_019.jpg	99
1421.579	1.175	1174.8	generate	Run2	generate/STIM_019.jpg	99
1426.086	2.437	2437.1	generate	Run2	generate/STIM_019.jpg	100
1432.308	2.817	2816.8	generate	Run2	generate/STIM_020.jpg	100
1438.001	1.847	1846.6	generate	Run2	generate/STIM_020.jpg	100
1443.607	2.141	2141.1	generate	Run2	generate/STIM_020.jpg	99
1448.86	2.356	2356.5	generate	Run2	generate/STIM_020.jpg	99
1453.678	2.45	2450.1	generate	Run2	generate/STIM_020.jpg	100
1458.183	1.281	1280.9	generate	Run2	generate/STIM_021.jpg	100
1463.449	1.686	1686.5	generate	Run2	generate/STIM_021.jpg	100
1467.286	2.377	2377.1	generate	Run2	generate/STIM_021.jpg	100
1472.275	1.449	1448.7	generate	Run2	generate/STIM_021.jpg	100
1476.425	1.459	1458.8	generate	Run2	generate/STIM_021.jpg	100
1481.351	1.672	1672.1	generate	Run2	generate/STIM_022.jpg	100
1485.931	2.705	2705.2	generate	Run2	generate/STIM_022.jpg	99
1491.508	1.964	1964.4	generate	Run2	generate/STIM_022.jpg	99
1497.354	1.012	1011.5	generate	Run2	generate/STIM_022.jpg	99
1501.836	2.437	2437.3	generate	Run2	generate/STIM_022.jpg	99
1506.441	2.11	2110.2	generate	Run2	generate/STIM_023.jpg	100
1511.895	1.377	1376.6	generate	Run2	generate/STIM_023.jpg	100
1516.11	1.297	1296.6	generate	Run2	generate/STIM_023.jpg	100
1520.686	1.99	1990.0	generate	Run2	generate/STIM_023.jpg	99
1525.85	1.714	1714.3	generate	Run2	generate/STIM_023.jpg	99
1530.537	2.97	2970.5	generate	Run2	generate/STIM_024.jpg	100
1537.425	1.861	1861.0	generate	Run2	generate/STIM_024.jpg	99
1541.554	1.94	1939.9	generate	Run2	generate/STIM_024.jpg	99
1545.933	1.634	1634.5	generate	Run2	generate/STIM_024.jpg	100
1550.265	1.458	1458.1	generate	Run2	generate/STIM_024.jpg	100
1555.362	0.687	686.8	repeat	Run2	repeat/STIM_000.jpg	100
1558.217	1.147	1147.0	repeat	Run2	repeat/STIM_000.jpg	99
1561.46	0.902	901.9	repeat	Run2	repeat/STIM_000.jpg	100
1566.255	0.665	665.2	repeat	Run2	repeat/STIM_000.jpg	100
1569.267	0.983	982.8	repeat	Run2	repeat/STIM_000.jpg	100
1573.751	0.672	671.7	repeat	Run2	repeat/STIM_001.jpg	99
1577.306	1.016	1015.9	repeat	Run2	repeat/STIM_001.jpg	99
1582.097	0.937	937.3	repeat	Run2	repeat/STIM_001.jpg	100
1585.729	1.108	1107.5	repeat	Run2	repeat/STIM_001.jpg	99
1589.917	0.733	732.7	repeat	Run2	repeat/STIM_001.jpg	99
1593.205	0.756	756.5	repeat	Run2	repeat/STIM_002.jpg	100
1596.88	0.843	842.9	repeat	Run2	repeat/STIM_002.jpg	100
1600.599	1.07	1069.5	repeat	Run2	repeat/STIM_002.jpg	100
1604.356	0.751	751.1	repeat	Run2	repeat/STIM_002.jpg	100
1608.87	0.703	703.0	repeat	Run2	repeat/STIM_002.jpg	99
1613.336	0.664	664.2	repeat	Run2	repeat/STIM_003.jpg	99
1617.255	0.808	808.4	repeat	Run2	repeat/STIM_003.jpg	99
1621.289	1.167	1166.9	repeat	Run2	repeat/STIM_003.jpg	99
1626.206	0.813	813.2	repeat	Run2	repeat/STIM_003.jpg	99
1629.443	0.709	708.6	repeat	Run2	repeat/STIM_003.jpg	100
1633.0	1.066	1065.7	repeat	Run2	repeat/STIM_004.jpg	100
1637.697	0.822	822.2	repeat	Run2	repeat/STIM_004.jpg	100
1642.183	0.786	786.5	repeat	Run2	repeat/STIM_004.jpg	99
1645.542	0.972	971.9	repeat	Run2	repeat/STIM_004.jpg	99
1650.348	1.031	1030.8	repeat	Run2	repeat/STIM_004.jpg	99
1654.295	0.61	609.6	repeat	Run2	repeat/STIM_005.jpg	99
1657.067	0.863	862.6	repeat	Run2	repeat/STIM_005.jpg	100
1660.876	0.672	671.7	repeat	Run2	repeat/STIM_005.jpg	99
1664.549	1.168	1167.5	repeat	Run2	repeat/STIM_005.jpg	99
1669.09	0.646	645.8	repeat	Run2	repeat/STIM_005.jpg	99
1673.571	1.15	1150.5	repeat	Run2	repeat/STIM_006.jpg	100
1676.795	1.031	1030.8	repeat	Run2	repeat/STIM_006.jpg	100
1681.052	1.145	1144.6	repeat	Run2	repeat/STIM_006.jpg	100
1684.588	1.132	1132.2	repeat	Run2	repeat/STIM_006.jpg	100
1688.79	0.9	899.5	repeat	Run2	repeat/STIM_006.jpg	100
1693.334	0.849	848.6	repeat	Run2	repeat/STIM_007.jpg	100
1698.091	1.069	1068.6	repeat	Run2	repeat/STIM_007.jpg	100
1702.556	0.957	957.4	repeat	Run2	repeat/STIM_007.jpg	100
1707.469	1.085	1085.2	repeat	Run2	repeat/STIM_007.jpg	99
1710.921	0.778	778.5	repeat	Run2	repeat/STIM_007.jpg	100
1714.674	0.954	954.0	repeat	Run2	repeat/STIM_008.jpg	99
1717.956	0.765	764.6	repeat	Run2	repeat/STIM_008.jpg	100
1721.815	0.597	597.2	repeat	Run2	repeat/STIM_008.jpg	99
1726.191	0.792	792.4	repeat	Run2	repeat/STIM_008.jpg	100
1729.985	1.149	1148.8	repeat	Run2	repeat/STIM_008.jpg	99
1734.583	0.752	752.2	repeat	Run2	repeat/STIM_009.jpg	100
1739.226	1.173	1172.8	repeat	Run2	repeat/STIM_009.jpg	100
1742.791	1.036	1036.1	repeat	Run2	repeat/STIM_009.jpg	100
1746.885	1.015	1014.6	repeat	Run2	repeat/STIM_009.jpg	99
1751.028	0.778	778.2	repeat	Run2	repeat/STIM_009.jpg	99
1754.002	0.756	756.2	repeat	Run2	repeat/STIM_010.jpg	100
1758.361	0.849	849.3	repeat	Run2	repeat/STIM_010.jpg	100
1762.175	0.633	632.8	repeat	Run2	repeat/STIM_010.jpg	99
1766.528	1.144	1144.0	repeat	Run2	repeat/STIM_010.jpg	99
1770.897	0.682	682.1	repeat	Run2	repeat/STIM_010.jpg	100
1774.857	0.722	721.6	repeat	Run2	repeat/STIM_011.jpg	99
1778.012	1.062	1062.2	repeat	Run2	repeat/STIM_011.jpg	100
1781.886	0.824	824.0	repeat	Run2	repeat/STIM_011.jpg	99
1785.329	0.684	684.3	repeat	Run2	repeat/STIM_011.jpg	99
1788.961	0.638	637.7	repeat	Run2	repeat/STIM_011.jpg	100
1791.678	1.093	1092.9	repeat	Run2	repeat/STIM_012.jpg	100
1794.816	1.051	1051.0	repeat	Run2	repeat/STIM_012.jpg	99
1798.441	1.132	1132.5	repeat	Run2	repeat/STIM_012.jpg	100
1801.911	1.162	1162.4	repeat	Run2	repeat/STIM_012.jpg	99
1806.353	0.702	701.7	repeat	Run2	repeat/STIM_012.jpg	100
1809.924	1.093	1093.3	repeat	Run2	repeat/STIM_013.jpg	100
1813.399	1.0	999.7	repeat	Run2	repeat/STIM_013.jpg	100
1816.672	0.669	669.4	repeat	Run2	repeat/STIM_013.jpg	100
1820.0	1.136	1135.9	repeat	Run2	repeat/STIM_013.jpg	99
1824.945	0.976	975.5	repeat	Run2	repeat/STIM_013.jpg	99
1829.112	1.128	1127.9	repeat	Run2	repeat/STIM_014.jpg	100
1834.1	0.993	992.8	repeat	Run2	repeat/STIM_014.jpg	100
1837.986	1.153	1153.1	repeat	Run2	repeat/STIM_014.jpg	100
1841.414	0.618	618.3	repeat	Run2	repeat/STIM_014.jpg	99
1845.986	0.952	951.9	repeat	Run2	repeat/STIM_014.jpg	100
1849.271	1.697	1697.3	generate	Run3	generate/STIM_000.jpg	100
1854.807	1.859	1859.0	generate	Run3	generate/STIM_000.jpg	99
1858.908	1.977	1977.0	generate	Run3	generate/STIM_000.jpg	99
1862.992	2.164	2163.8	generate	Run3	generate/STIM_000.jpg	100
1867.716	2.413	2413.1	generate	Run3	generate/STIM_000.jpg	99
1872.67	1.038	1038.3	generate	Run3	generate/STIM_001.jpg	99
1877.534	1.447	1446.6	generate	Run3	generate/STIM_001.jpg	99
1881.121	2.244	2243.8	generate	Run3	generate/STIM_001.jpg	99
1886.887	1.459	1458.8	generate	Run3	generate/STIM_001.jpg	99
1891.878	2.228	2228.4	generate	Run3	generate/STIM_001.jpg	99
1898.04	1.016	1015.6	generate	Run3	generate/STIM_002.jpg	100
1902.952	2.496	2495.7	generate	Run3	generate/STIM_002.jpg	99
1907.639	1.448	1448.4	generate	Run3	generate/STIM_002.jpg	100
1911.77	1.668	1668.4	generate	Run3	generate/STIM_002.jpg	100
1917.099	1.491	1490.9	generate	Run3	generate/STIM_002.jpg	100
1920.76	1.019	1019.4	generate	Run3	generate/STIM_003.jpg	100
1924.43	1.951	1950.8	generate	Run3	generate/STIM_003.jpg	100
1928.444	2.39	2390.4	generate	Run3	generate/STIM_003.jpg	100
1933.726	2.271	2271.4	generate	Run3	generate/STIM_003.jpg	99
1939.862	1.358	1358.3	generate	Run3	generate/STIM_003.jpg	99
1944.617	1.13	1130.5	generate	Run3	generate/STIM_004.jpg	100
1949.616	2.096	2096.2	generate	Run3	generate/STIM_004.jpg	99
1955.303	2.435	2435.0	generate	Run3	generate/STIM_004.jpg	100
1960.015	1.6	1599.9	generate	Run3	generate/STIM_004.jpg	100
1965.097	2.106	2106.1	generate	Run3	generate/STIM_004.jpg	99
1970.673	1.999	1998.6	generate	Run3	generate/STIM_005.jpg	99
1976.389	2.22	2220.1	generate	Run3	generate/STIM_005.jpg	99
1981.442	1.184	1184.3	generate	Run3	generate/STIM_005.jpg	99
1984.715	2.216	2216.0	generate	Run3	generate/STIM_005.jpg	99
1990.543	2.395	2394.9	generate	Run3	generate/STIM_005.jpg	100
1995.781	2.027	2026.8	generate	Run3	generate/STIM_006.jpg	100
2000.0	2.182	2182.5	generate	Run3	generate/STIM_006.jpg	99
2005.675	1.507	1507.2	generate	Run3	generate/STIM_006.jpg	99
2011.105	2.248	2247.7	generate	Run3	generate/STIM_006.jpg	100
2017.262	2.382	2382.3	generate	Run3	generate/STIM_006.jpg	100
2023.075	1.622	1621.8	generate	Run3	generate/STIM_007.jpg	99
2028.594	1.003	1003.0	generate	Run3	generate/STIM_007.jpg	99
2031.718	1.061	1061.4	generate	Run3	generate/STIM_007.jpg	99
2035.025	1.047	1047.1	generate	Run3	generate/STIM_007.jpg	100
2039.229	1.424	1424.1	generate	Run3	generate/STIM_007.jpg	99
2043.304	1.152	1151.6	generate	Run3	generate/STIM_008.jpg	100
2046.573	1.838	1838.2	generate	Run3	generate/STIM_008.jpg	100
2051.402	1.438	1438.0	generate	Run3	generate/STIM_008.jpg	100
2055.937	2.354	2353.5	generate	Run3	generate/STIM_008.jpg	99
2061.916	1.204	1204.1	generate	Run3	generate/STIM_008.jpg	99
2067.051	1.647	1647.3	generate	Run3	generate/STIM_009.jpg	100
2071.617	2.325	2324.7	generate	Run3	generate/STIM_009.jpg	99
2077.211	1.142	1142.0	generate	Run3	generate/STIM_009.jpg	99
2080.462	2.323	2323.1	generate	Run3	generate/STIM_009.jpg	100
2085.592	1.054	1054.5	generate	Run3	generate/STIM_009.jpg	99
2089.398	1.989	1989.1	generate	Run3	generate/STIM_010.jpg	99
2095.278	2.266	2265.9	generate	Run3	generate/STIM_010.jpg	100
2100.202	2.386	2386.3	generate	Run3	generate/STIM_010.jpg	100
2104.996	1.08	1079.8	generate	Run3	generate/STIM_010.jpg	100
2109.483	1.98	1979.9	generate	Run3	generate/STIM_010.jpg	99
2115.067	1.948	1947.7	generate	Run3	generate/STIM_011.jpg	100
2119.499	1.33	1329.7	generate	Run3	generate/STIM_011.jpg	99
2124.145	1.573	1572.8	generate	Run3	generate/STIM_011.jpg	100
2128.161	1.595	1595.2	generate	Run3	generate/STIM_011.jpg	99
2132.724	1.881	1881.3	generate	Run3	generate/STIM_011.jpg	100
2138.302	2.043	2043.2	generate	Run3	generate/STIM_012.jpg	99
2143.845	1.141	1141.1	generate	Run3	generate/STIM_012.jpg	100
2147.176	1.684	1684.2	generate	Run3	generate/STIM_012.jpg	99
2151.409	1.305	1304.6	generate	Run3	generate/STIM_012.jpg	99
2155.915	1.433	1432.6	generate	Run3	generate/STIM_012.jpg	99
2161.064	1.03	1029.6	generate	Run3	generate/STIM_013.jpg	99
2165.131	2.439	2439.0	generate	Run3	generate/STIM_013.jpg	99
2169.603	2.189	2189.4	generate	Run3	generate/STIM_013.jpg	100
2173.817	2.278	2277.6	generate	Run3	generate/STIM_013.jpg	100
2179.764	2.369	2369.3	generate	Run3	generate/STIM_013.jpg	99
2185.789	1.958	1958.4	generate	Run3	generate/STIM_014.jpg	100
2191.035	2.337	2336.9	generate	Run3	generate/STIM_014.jpg	99
2195.614	1.359	1358.7	generate	Run3	generate/STIM_014.jpg	99
2200.29	1.954	1953.5	generate	Run3	generate/STIM_014.jpg	99
2205.363	1.803	1803.0	generate	Run3	generate/STIM_014.jpg	99
2210.622	1.958	1958.1	generate	Run3	generate/STIM_015.jpg	99
2216.463	1.623	1622.6	generate	Run3	generate/STIM_015.jpg	99
2221.457	1.509	1509.0	generate	Run3	generate/STIM_015.jpg	99
2226.273	1.872	1871.9	generate	Run3	generate/STIM_015.jpg	100
2231.218	1.994	1993.6	generate	Run3	generate/STIM_015.jpg	99
2236.256	2.419	2419.2	generate	Run3	generate/STIM_016.jpg	100
2240.959	1.357	1357.0	generate	Run3	generate/STIM_016.jpg	99
2245.076	1.614	1613.7	generate	Run3	generate/STIM_016.jpg	99
2248.728	2.125	2125.4	generate	Run3	generate/STIM_016.jpg	100
2254.841	2.24	2240.0	generate	Run3	generate/STIM_016.jpg	99
2260.628	1.822	1822.3	generate	Run3	generate/STIM_017.jpg	99
2265.943	1.944	1943.8	generate	Run3	generate/STIM_017.jpg	100
2271.727	2.317	2316.6	generate	Run3	generate/STIM_017.jpg	100
2276.676	1.792	1791.9	generate	Run3	generate/STIM_017.jpg	100
2280.92	1.354	1353.5	generate	Run3	generate/STIM_017.jpg	100
2286.048	1.768	1768.5	generate	Run3	generate/STIM_018.jpg	99
2291.019	1.028	1028.3	generate	Run3	generate/STIM_018.jpg	100
2294.648	1.669	1669.1	generate	Run3	generate/STIM_018.jpg	99
2299.715	2.066	2066.1	generate	Run3	generate/STIM_018.jpg	99
2305.39	1.914	1914.1	generate	Run3	generate/STIM_018.jpg	99
2309.819	1.547	1547.2	generate	Run3	generate/STIM_019.jpg	99
2313.795	1.476	1476.1	generate	Run3	generate/STIM_019.jpg	100
2318.323	1.27	1269.8	generate	Run3	generate/STIM_019.jpg	99
2323.575	2.258	2257.8	generate	Run3	generate/STIM_019.jpg	100
2329.064	2.475	2475.3	generate	Run3	generate/STIM_019.jpg	99
2335.277	1.32	1319.9	generate	Run3	generate/STIM_020.jpg	100
2339.498	2.05	2049.9	generate	Run3	generate/STIM_020.jpg	100
2343.905	1.936	1936.5	generate	Run3	generate/STIM_020.jpg	99
2349.253	1.13	1129.9	generate	Run3	generate/STIM_020.jpg	99
2353.643	1.85	1849.5	generate	Run3	generate/STIM_020.jpg	99
2358.489	1.046	1046.4	generate	Run3	generate/STIM_021.jpg	100
2363.033	1.84	1839.9	generate	Run3	generate/STIM_021.jpg	100
2368.768	1.037	1036.9	generate	Run3	generate/STIM_021.jpg	100
2372.145	1.366	1365.9	generate	Run3	generate/STIM_021.jpg	99
2377.115	1.378	1377.5	generate	Run3	generate/STIM_021.jpg	100
2382.29	1.534	1533.6	generate	Run3	generate/STIM_022.jpg	99
2386.499	2.165	2165.4	generate	Run3	generate/STIM_022.jpg	100
2391.607	1.423	1423.4	generate	Run3	generate/STIM_022.jpg	99
2395.126	2.072	2071.6	generate	Run3	generate/STIM_022.jpg	100
2400.164	1.122	1122.2	generate	Run3	generate/STIM_022.jpg	99
2403.404	2.402	2402.0	generate	Run3	generate/STIM_023.jpg	100
2409.607	2.356	2356.0	generate	Run3	generate/STIM_023.jpg	100
2414.63	2.129	2128.9	generate	Run3	generate/STIM_023.jpg	100
2419.582	1.784	1784.3	generate	Run3	generate/STIM_023.jpg	100
2424.928	1.674	1674.2	generate	Run3	generate/STIM_023.jpg	99
2429.213	1.517	1517.3	generate	Run3	generate/STIM_024.jpg	100
2434.151	1.886	1886.4	generate	Run3	generate/STIM_024.jpg	99
2438.215	2.245	2245.1	generate	Run3	generate/STIM_024.jpg	100
2442.986	2.002	2001.5	generate	Run3	generate/STIM_024.jpg	100
2448.808	2.409	2409.2	generate	Run3	generate/STIM_024.jpg	99
2453.714	0.639	639.3	repeat	Run3	repeat/STIM_000.jpg	99
2456.643	0.823	822.7	repeat	Run3	repeat/STIM_000.jpg	100
2459.625	0.676	675.7	repeat	Run3	repeat/STIM_000.jpg	100
2462.967	0.733	732.6	repeat	Run3	repeat/STIM_000.jpg	99
2466.829	1.125	1124.8	repeat	Run3	repeat/STIM_000.jpg	99
2471.609	0.61	609.7	repeat	Run3	repeat/STIM_001.jpg	99
2475.517	0.628	627.5	repeat	Run3	repeat/STIM_001.jpg	100
2478.793	0.835	835.1	repeat	Run3	repeat/STIM_001.jpg	99
2482.115	0.763	763.1	repeat	Run3	repeat/STIM_001.jpg	100
2486.464	0.793	793.1	repeat	Run3	repeat/STIM_001.jpg	99
2489.743	0.826	826.5	repeat	Run3	repeat/STIM_002.jpg	99
2492.674	0.872	872.3	repeat	Run3	repeat/STIM_002.jpg	99
2497.403	1.126	1125.8	repeat	Run3	repeat/STIM_002.jpg	99
2501.943	0.897	897.3	repeat	Run3	repeat/STIM_002.jpg	99
2506.741	1.026	1026.3	repeat	Run3	repeat/STIM_002.jpg	100
2511.743	0.747	746.7	repeat	Run3	repeat/STIM_003.jpg	100
2514.968	1.176	1176.5	repeat	Run3	repeat/STIM_003.jpg	100
2519.513	0.654	654.4	repeat	Run3	repeat/STIM_003.jpg	99
2523.221	0.695	695.1	repeat	Run3	repeat/STIM_003.jpg	100
2526.312	0.652	652.5	repeat	Run3	repeat/STIM_003.jpg	100
2530.565	1.027	1027.0	repeat	Run3	repeat/STIM_004.jpg	100
2535.011	0.94	940.4	repeat	Run3	repeat/STIM_004.jpg	100
2539.038	1.148	1148.1	repeat	Run3	repeat/STIM_004.jpg	99
2543.664	0.799	798.7	repeat	Run3	repeat/STIM_004.jpg	99
2546.605	1.027	1027.0	repeat	Run3	repeat/STIM_004.jpg	100
2550.915	1.098	1098.2	repeat	Run3	repeat/STIM_005.jpg	100
2555.569	0.665	664.8	repeat	Run3	repeat/STIM_005.jpg	99
2558.686	1.073	1073.1	repeat	Run3	repeat/STIM_005.jpg	99
2563.672	0.999	999.3	repeat	Run3	repeat/STIM_005.jpg	100
2568.65	0.704	703.5	repeat	Run3	repeat/STIM_005.jpg	100
2572.958	1.041	1041.4	repeat	Run3	repeat/STIM_006.jpg	99
2577.269	1.137	1137.4	repeat	Run3	repeat/STIM_006.jpg	100
2582.121	0.786	786.0	repeat	Run3	repeat/STIM_006.jpg	100
2584.912	0.931	930.7	repeat	Run3	repeat/STIM_006.jpg	99
2587.93	1.124	1123.5	repeat	Run3	repeat/STIM_006.jpg	100
2591.948	0.63	630.5	repeat	Run3	repeat/STIM_007.jpg	100
2594.661	0.721	720.8	repeat	Run3	repeat/STIM_007.jpg	100
2599.339	1.015	1015.0	repeat	Run3	repeat/STIM_007.jpg	100
2603.757	1.185	1184.6	repeat	Run3	repeat/STIM_007.jpg	100
2607.094	0.681	680.8	repeat	Run3	repeat/STIM_007.jpg	100
2611.246	0.89	889.8	repeat	Run3	repeat/STIM_008.jpg	100
2615.266	1.017	1017.3	repeat	Run3	repeat/STIM_008.jpg	99
2620.269	0.634	634.1	repeat	Run3	repeat/STIM_008.jpg	99
2623.03	1.118	1118.0	repeat	Run3	repeat/STIM_008.jpg	100
2626.324	0.603	603.1	repeat	Run3	repeat/STIM_008.jpg	99
2630.508	1.166	1166.1	repeat	Run3	repeat/STIM_009.jpg	100
2634.835	0.8	800.5	repeat	Run3	repeat/STIM_009.jpg	100
2638.792	0.993	993.4	repeat	Run3	repeat/STIM_009.jpg	99
2642.551	0.878	878.3	repeat	Run3	repeat/STIM_009.jpg	100
2645.828	0.938	937.8	repeat	Run3	repeat/STIM_009.jpg	99
2650.697	1.11	1109.8	repeat	Run3	repeat/STIM_010.jpg	99
2655.59	0.859	859.4	repeat	Run3	repeat/STIM_010.jpg	100
2658.827	0.8	800.3	repeat	Run3	repeat/STIM_010.jpg	99
2662.563	0.789	788.8	repeat	Run3	repeat/STIM_010.jpg	100
2665.537	0.703	703.3	repeat	Run3	repeat/STIM_010.jpg	100
2669.158	1.063	1063.1	repeat	Run3	repeat/STIM_011.jpg	100
2673.831	0.596	596.0	repeat	Run3	repeat/STIM_011.jpg	99
2677.684	0.641	641.2	repeat	Run3	repeat/STIM_011.jpg	99
2680.905	0.628	628.5	repeat	Run3	repeat/STIM_011.jpg	100
2685.154	1.128	1127.8	repeat	Run3	repeat/STIM_011.jpg	100
2689.085	0.913	913.3	repeat	Run3	repeat/STIM_012.jpg	99
2693.44	1.031	1031.1	repeat	Run3	repeat/STIM_012.jpg	100
2697.912	1.144	1143.9	repeat	Run3	repeat/STIM_012.jpg	100
2701.441	0.86	860.2	repeat	Run3	repeat/STIM_012.jpg	99
2705.401	0.809	809.3	repeat	Run3	repeat/STIM_012.jpg	100
2709.793	0.907	907.3	repeat	Run3	repeat/STIM_013.jpg	100
2713.076	1.089	1088.9	repeat	Run3	repeat/STIM_013.jpg	100
2717.677	0.609	608.9	repeat	Run3	repeat/STIM_013.jpg	100
2721.729	0.824	824.1	repeat	Run3	repeat/STIM_013.jpg	99
2726.053	0.649	648.7	repeat	Run3	repeat/STIM_013.jpg	100
2729.339	0.685	684.8	repeat	Run3	repeat/STIM_014.jpg	99
2732.078	1.085	1084.6	repeat	Run3	repeat/STIM_014.jpg	100
2735.991	0.792	792.2	repeat	Run3	repeat/STIM_014.jpg	100
2740.516	1.144	1143.6	repeat	Run3	repeat/STIM_014.jpg	100
2744.326	0.69	689.8	repeat	Run3	repeat/STIM_014.jpg	99
2748.52	2.181	2181.4	generate	Run4	generate/STIM_000.jpg	99
2753.734	2.423	2423.3	generate	Run4	generate/STIM_000.jpg	99
2758.679	1.565	1565.0	generate	Run4	generate/STIM_000.jpg	100
2764.212	1.375	1375.2	generate	Run4	generate/STIM_000.jpg	100
2768.517	2.416	2416.4	generate	Run4	generate/STIM_000.jpg	99
2774.452	1.805	1804.7	generate	Run4	generate/STIM_001.jpg	100
2778.505	1.386	1385.9	generate	Run4	generate/STIM_001.jpg	99
2782.44	2.209	2208.7	generate	Run4	generate/STIM_001.jpg	99
2788.035	1.988	1987.9	generate	Run4	generate/STIM_001.jpg	100
2792.309	1.681	1680.7	generate	Run4	generate/STIM_001.jpg	100
2796.742	1.278	1277.6	generate	Run4	generate/STIM_002.jpg	100
2800.635	1.42	1420.2	generate	Run4	generate/STIM_002.jpg	100
2804.563	1.121	1120.8	generate	Run4	generate/STIM_002.jpg	99
2807.685	1.251	1250.8	generate	Run4	generate/STIM_002.jpg	100
2812.892	1.874	1873.8	generate	Run4	generate/STIM_002.jpg	99
2817.585	1.886	1886.1	generate	Run4	generate/STIM_003.jpg	99
2822.305	2.028	2028.0	generate	Run4	generate/STIM_003.jpg	99
2827.471	1.635	1634.7	generate	Run4	generate/STIM_003.jpg	100
2832.827	1.475	1475.4	generate	Run4	generate/STIM_003.jpg	99
2836.442	1.345	1345.1	generate	Run4	generate/STIM_003.jpg	99
2840.794	1.169	1169.1	generate	Run4	generate/STIM_004.jpg	99
2845.089	1.221	1221.3	generate	Run4	generate/STIM_004.jpg	100
2849.065	1.858	1857.8	generate	Run4	generate/STIM_004.jpg	100
2854.791	1.516	1516.5	generate	Run4	generate/STIM_004.jpg	99
2859.083	2.383	2383.1	generate	Run4	generate/STIM_004.jpg	99
2864.573	2.364	2364.0	generate	Run4	generate/STIM_005.jpg	99
2870.537	1.666	1665.8	generate	Run4	generate/STIM_005.jpg	100
2874.938	2.267	2266.9	generate	Run4	generate/STIM_005.jpg	99
2880.356	1.662	1661.8	generate	Run4	generate/STIM_005.jpg	99
2884.756	2.214	2213.9	generate	Run4	generate/STIM_005.jpg	99
2890.848	1.732	1731.6	generate	Run4	generate/STIM_006.jpg	100
2895.856	2.324	2323.9	generate	Run4	generate/STIM_006.jpg	99
2900.627	1.863	1863.1	generate	Run4	generate/STIM_006.jpg	99
2904.764	2.206	2206.5	generate	Run4	generate/STIM_006.jpg	99
2909.781	1.746	1746.3	generate	Run4	generate/STIM_006.jpg	99
2915.143	1.864	1864.2	generate	Run4	generate/STIM_007.jpg	99
2920.813	1.399	1399.3	generate	Run4	generate/STIM_007.jpg	100
2924.816	2.282	2282.3	generate	Run4	generate/STIM_007.jpg	99
2930.503	1.814	1814.1	generate	Run4	generate/STIM_007.jpg	100
2935.54	2.345	2344.9	generate	Run4	generate/STIM_007.jpg	99
2940.309	1.452	1452.4	generate	Run4	generate/STIM_008.jpg	99
2945.173	2.194	2194.3	generate	Run4	generate/STIM_008.jpg	100
2950.241	1.533	1533.4	generate	Run4	generate/STIM_008.jpg	100
2953.948	1.768	1767.6	generate	Run4	generate/STIM_008.jpg	100
2958.668	2.112	2111.9	generate	Run4	generate/STIM_008.jpg	100
2964.315	1.846	1846.3	generate	Run4	generate/STIM_009.jpg	100
2968.994	1.103	1102.7	generate	Run4	generate/STIM_009.jpg	99
2973.959	1.152	1151.5	generate	Run4	generate/STIM_009.jpg	100
2977.631	1.252	1252.4	generate	Run4	generate/STIM_009.jpg	100
2981.944	2.235	2235.3	generate	Run4	generate/STIM_009.jpg	99
2986.898	2.322	2321.8	generate	Run4	generate/STIM_010.jpg	100
2991.28	2.441	2441.4	generate	Run4	generate/STIM_010.jpg	99
2996.993	1.395	1395.4	generate	Run4	generate/STIM_010.jpg	100
3001.492	1.402	1402.1	generate	Run4	generate/STIM_010.jpg	100
3005.873	1.063	1063.4	generate	Run4	generate/STIM_010.jpg	99
3009.894	1.813	1812.9	generate	Run4	generate/STIM_011.jpg	100
3015.365	2.291	2290.8	generate	Run4	generate/STIM_011.jpg	99
3020.563	2.365	2365.2	generate	Run4	generate/STIM_011.jpg	99
3025.016	1.462	1462.4	generate	Run4	generate/STIM_011.jpg	100
3028.753	1.49	1490.1	generate	Run4	generate/STIM_011.jpg	99
3033.428	2.253	2253.1	generate	Run4	generate/STIM_012.jpg	100
3038.682	1.788	1788.3	generate	Run4	generate/STIM_012.jpg	99
3043.393	1.899	1898.9	generate	Run4	generate/STIM_012.jpg	100
3048.204	1.702	1701.8	generate	Run4	generate/STIM_012.jpg	99
3052.666	1.729	1729.2	generate	Run4	generate/STIM_012.jpg	100
3057.414	2.236	2236.0	generate	Run4	generate/STIM_013.jpg	99
3061.784	1.763	1762.9	generate	Run4	generate/STIM_013.jpg	99
3066.272	1.49	1490.5	generate	Run4	generate/STIM_013.jpg	100
3071.426	2.236	2236.3	generate	Run4	generate/STIM_013.jpg	100
3076.772	1.085	1085.0	generate	Run4	generate/STIM_013.jpg	100
3080.727	1.391	1391.1	generate	Run4	generate/STIM_014.jpg	100
3085.203	1.212	1211.9	generate	Run4	generate/STIM_014.jpg	99
3089.276	1.107	1107.4	generate	Run4	generate/STIM_014.jpg	99
3092.46	1.984	1984.4	generate	Run4	generate/STIM_014.jpg	99
3098.394	1.666	1666.4	generate	Run4	generate/STIM_014.jpg	99
3102.939	1.996	1996.0	generate	Run4	generate/STIM_015.jpg	100
3107.047	1.476	1476.3	generate	Run4	generate/STIM_015.jpg	99
3110.581	2.446	2445.8	generate	Run4	generate/STIM_015.jpg	100
3115.356	1.463	1463.4	generate	Run4	generate/STIM_015.jpg	99
3120.021	1.24	1239.6	generate	Run4	generate/STIM_015.jpg	100
3125.114	1.249	1249.1	generate	Run4	generate/STIM_016.jpg	100
3129.274	2.072	2072.3	generate	Run4	generate/STIM_016.jpg	99
3133.62	2.341	2341.0	generate	Run4	generate/STIM_016.jpg	100
3139.432	1.27	1269.8	generate	Run4	generate/STIM_016.jpg	100
3144.076	1.948	1947.7	generate	Run4	generate/STIM_016.jpg	99
3148.034	1.399	1398.6	generate	Run4	generate/STIM_017.jpg	100
3152.804	1.4	1400.5	generate	Run4	generate/STIM_017.jpg	99
3156.751	1.257	1256.9	generate	Run4	generate/STIM_017.jpg	100
3160.848	1.372	1372.2	generate	Run4	generate/STIM_017.jpg	99
3165.501	2.338	2338.5	generate	Run4	generate/STIM_017.jpg	99
3171.061	2.415	2414.6	generate	Run4	generate/STIM_018.jpg	99
3177.285	1.176	1175.7	generate	Run4	generate/STIM_018.jpg	100
3181.062	1.311	1310.7	generate	Run4	generate/STIM_018.jpg	99
3186.286	1.292	1291.6	generate	Run4	generate/STIM_018.jpg	99
3191.391	1.828	1827.6	generate	Run4	generate/STIM_018.jpg	99
3195.62	1.971	1971.3	generate	Run4	generate/STIM_019.jpg	100
3200.722	1.548	1547.5	generate	Run4	generate/STIM_019.jpg	99
3204.362	1.538	1538.3	generate	Run4	generate/STIM_019.jpg	99
3209.52	1.744	1743.5	generate	Run4	generate/STIM_019.jpg	100
3214.206	1.58	1579.8	generate	Run4	generate/STIM_019.jpg	99
3218.272	1.302	1302.1	generate	Run4	generate/STIM_020.jpg	100
3221.806	1.408	1408.4	generate	Run4	generate/STIM_020.jpg	100
3226.371	1.769	1769.4	generate	Run4	generate/STIM_020.jpg	100
3231.321	2.204	2203.7	generate	Run4	generate/STIM_020.jpg	100
3237.261	2.024	2024.1	generate	Run4	generate/STIM_020.jpg	99
3243.278	1.099	1099.4	generate	Run4	generate/STIM_021.jpg	99
3247.427	1.233	1233.2	generate	Run4	generate/STIM_021.jpg	100
3252.147	1.454	1454.3	generate	Run4	generate/STIM_021.jpg	100
3257.456	1.09	1090.1	generate	Run4	generate/STIM_021.jpg	99
3262.1	1.88	1879.8	generate	Run4	generate/STIM_021.jpg	100
3267.392	1.558	1557.6	generate	Run4	generate/STIM_022.jpg	99
3271.889	2.277	2276.7	generate	Run4	generate/STIM_022.jpg	100
3277.463	2.092	2092.2	generate	Run4	generate/STIM_022.jpg	99
3283.04	1.662	1662.3	generate	Run4	generate/STIM_022.jpg	99
3288.262	2.233	2233.1	generate	Run4	generate/STIM_022.jpg	100
3294.165	2.486	2486.2	generate	Run4	generate/STIM_023.jpg	100
3298.967	2.282	2281.6	generate	Run4	generate/STIM_023.jpg	100
3304.295	2.406	2405.6	generate	Run4	generate/STIM_023.jpg	100
3308.866	2.437	2437.3	generate	Run4	generate/STIM_023.jpg	100
3314.2	2.451	2450.9	generate	Run4	generate/STIM_023.jpg	100
3319.446	1.595	1594.8	generate	Run4	generate/STIM_024.jpg	99
3324.746	1.543	1543.4	generate	Run4	generate/STIM_024.jpg	100
3328.927	1.276	1275.9	generate	Run4	generate/STIM_024.jpg	99
3332.788	2.461	2460.9	generate	Run4	generate/STIM_024.jpg	99
3339.053	2.427	2426.7	generate	Run4	generate/STIM_024.jpg	100
3345.353	1.186	1186.4	repeat	Run4	repeat/STIM_000.jpg	100
3348.627	1.097	1096.6	repeat	Run4	repeat/STIM_000.jpg	99
3351.795	1.076	1075.9	repeat	Run4	repeat/STIM_000.jpg	99
3355.584	0.949	949.2	repeat	Run4	repeat/STIM_000.jpg	99
3359.583	0.704	704.4	repeat	Run4	repeat/STIM_000.jpg	99
3362.417	0.898	898.0	repeat	Run4	repeat/STIM_001.jpg	100
3365.972	0.977	976.7	repeat	Run4	repeat/STIM_001.jpg	100
3369.892	0.757	756.9	repeat	Run4	repeat/STIM_001.jpg	99
3374.149	0.834	833.6	repeat	Run4	repeat/STIM_001.jpg	100
3377.768	1.017	1016.7	repeat	Run4	repeat/STIM_001.jpg	99
3381.324	0.745	745.4	repeat	Run4	repeat/STIM_002.jpg	99
3385.034	0.945	945.2	repeat	Run4	repeat/STIM_002.jpg	100
3388.843	0.665	665.2	repeat	Run4	repeat/STIM_002.jpg	100
3391.546	1.073	1073.4	repeat	Run4	repeat/STIM_002.jpg	100
3396.255	0.898	897.8	repeat	Run4	repeat/STIM_002.jpg	100
3400.993	0.888	888.3	repeat	Run4	repeat/STIM_003.jpg	99
3405.33	0.686	685.7	repeat	Run4	repeat/STIM_003.jpg	99
3408.183	0.946	946.2	repeat	Run4	repeat/STIM_003.jpg	99
3411.676	1.122	1122.4	repeat	Run4	repeat/STIM_003.jpg	99
3416.154	0.62	619.5	repeat	Run4	repeat/STIM_003.jpg	99
3419.363	1.046	1045.6	repeat	Run4	repeat/STIM_004.jpg	99
3423.24	0.99	989.5	repeat	Run4	repeat/STIM_004.jpg	99
3426.551	0.746	745.7	repeat	Run4	repeat/STIM_004.jpg	100
3430.646	1.153	1153.3	repeat	Run4	repeat/STIM_004.jpg	99
3434.294	1.125	1125.1	repeat	Run4	repeat/STIM_004.jpg	100
3439.394	0.723	722.9	repeat	Run4	repeat/STIM_005.jpg	99
3443.825	1.002	1002.1	repeat	Run4	repeat/STIM_005.jpg	99
3448.307	0.639	638.8	repeat	Run4	repeat/STIM_005.jpg	100
3452.278	0.682	682.4	repeat	Run4	repeat/STIM_005.jpg	99
3455.384	0.997	996.7	repeat	Run4	repeat/STIM_005.jpg	99
3459.399	0.806	805.5	repeat	Run4	repeat/STIM_006.jpg	100
3462.715	0.644	644.3	repeat	Run4	repeat/STIM_006.jpg	99
3465.437	0.774	773.6	repeat	Run4	repeat/STIM_006.jpg	99
3468.225	0.604	604.2	repeat	Run4	repeat/STIM_006.jpg	99
3472.792	0.707	706.9	repeat	Run4	repeat/STIM_006.jpg	99
3477.333	1.069	1068.9	repeat	Run4	repeat/STIM_007.jpg	99
3481.027	0.792	792.2	repeat	Run4	repeat/STIM_007.jpg	100
3484.751	1.021	1020.9	repeat	Run4	repeat/STIM_007.jpg	99
3488.36	0.87	869.7	repeat	Run4	repeat/STIM_007.jpg	99
3491.569	1.167	1167.4	repeat	Run4	repeat/STIM_007.jpg	99
3494.922	0.68	679.7	repeat	Run4	repeat/STIM_008.jpg	99
3499.25	1.116	1116.0	repeat	Run4	repeat/STIM_008.jpg	100
3503.005	0.983	983.0	repeat	Run4	repeat/STIM_008.jpg	100
3507.57	0.75	749.5	repeat	Run4	repeat/STIM_008.jpg	100
3510.762	0.778	777.6	repeat	Run4	repeat/STIM_008.jpg	99
3513.675	0.985	984.7	repeat	Run4	repeat/STIM_009.jpg	99
3517.575	0.732	732.4	repeat	Run4	repeat/STIM_009.jpg	100
3520.878	0.974	974.5	repeat	Run4	repeat/STIM_009.jpg	99
3523.984	0.746	746.4	repeat	Run4	repeat/STIM_009.jpg	100
3528.004	0.999	998.9	repeat	Run4	repeat/STIM_009.jpg	100
3531.358	1.052	1052.5	repeat	Run4	repeat/STIM_010.jpg	100
3536.353	0.69	690.3	repeat	Run4	repeat/STIM_010.jpg	100
3539.253	0.888	888.5	repeat	Run4	repeat/STIM_010.jpg	99
3542.572	0.82	820.3	repeat	Run4	repeat/STIM_010.jpg	99
3546.184	0.737	737.2	repeat	Run4	repeat/STIM_010.jpg	100
3550.481	0.802	801.7	repeat	Run4	repeat/STIM_011.jpg	99
3554.174	1.136	1135.9	repeat	Run4	repeat/STIM_011.jpg	100
3557.689	1.07	1070.3	repeat	Run4	repeat/STIM_011.jpg	99
3561.353	0.652	652.1	repeat	Run4	repeat/STIM_011.jpg	100
3565.511	0.598	597.7	repeat	Run4	repeat/STIM_011.jpg	100
3569.384	1.027	1026.8	repeat	Run4	repeat/STIM_012.jpg	100
3573.275	0.817	816.8	repeat	Run4	repeat/STIM_012.jpg	100
3577.549	0.978	978.2	repeat	Run4	repeat/STIM_012.jpg	100
3581.227	1.073	1073.2	repeat	Run4	repeat/STIM_012.jpg	99
3585.341	0.975	975.4	repeat	Run4	repeat/STIM_012.jpg	100
3589.907	0.671	670.7	repeat	Run4	repeat/STIM_013.jpg	100
3593.879	1.025	1024.6	repeat	Run4	repeat/STIM_013.jpg	100
3597.112	0.8	800.0	repeat	Run4	repeat/STIM_013.jpg	99
3599.936	1.098	1098.1	repeat	Run4	repeat/STIM_013.jpg	100
3603.599	0.731	731.1	repeat	Run4	repeat/STIM_013.jpg	99
3607.535	0.97	970.4	repeat	Run4	repeat/STIM_014.jpg	99
3611.956	0.942	942.5	repeat	Run4	repeat/STIM_014.jpg	100
3616.686	0.948	948.0	repeat	Run4	repeat/STIM_014.jpg	100
3619.763	1.034	1034.1	repeat	Run4	repeat/STIM_014.jpg	99
3623.877	0.644	643.6	repeat	Run4	repeat/STIM_014.jpg	99
