onset	duration	accuracy_binary	trial_type	learning_stage	stimulus
0.0	2.723	1	generate	Run1	generate/STIM_000.jpg
5.451	3.132	1	generate	Run1	generate/STIM_000.jpg
10.736	2.277	1	generate	Run1	generate/STIM_000.jpg
16.017	2.317	0	generate	Run1	generate/STIM_000.jpg
20.64	1.946	0	generate	Run1	generate/STIM_000.jpg
25.504	3.522	0	generate	Run1	generate/STIM_001.jpg
32.427	2.117	1	generate	Run1	generate/STIM_001.jpg
37.745	2.913	1	generate	Run1	generate/STIM_001.jpg
44.395	2.759	1	generate	Run1	generate/STIM_001.jpg
49.617	2.849	1	generate	Run1	generate/STIM_001.jpg
55.16	3.471	0	generate	Run1	generate/STIM_002.jpg
62.044	2.87	1	generate	Run1	generate/STIM_002.jpg
67.657	2.73	0	generate	Run1	generate/STIM_002.jpg
72.512	1.434	1	generate	Run1	generate/STIM_002.jpg
77.625	2.854	1	generate	Run1	generate/STIM_002.jpg
82.867	2.739	1	generate	Run1	generate/STIM_003.jpg
87.881	2.0	0	generate	Run1	generate/STIM_003.jpg
93.193	2.138	1	generate	Run1	generate/STIM_003.jpg
98.926	2.13	1	generate	Run1	generate/STIM_003.jpg
103.142	1.93	1	generate	Run1	generate/STIM_003.jpg
108.278	2.115	0	generate	Run1	generate/STIM_004.jpg
113.051	2.666	0	generate	Run1	generate/STIM_004.jpg
119.489	1.94	1	generate	Run1	generate/STIM_004.jpg
123.658	1.4	1	generate	Run1	generate/STIM_004.jpg
128.86	1.591	1	generate	Run1	generate/STIM_004.jpg
133.403	1.431	0	generate	Run1	generate/STIM_005.jpg
137.78	2.191	1	generate	Run1	generate/STIM_005.jpg
143.409	2.027	0	generate	Run1	generate/STIM_005.jpg
149.057	1.434	1	generate	Run1	generate/STIM_005.jpg
152.606	1.779	0	generate	Run1	generate/STIM_005.jpg
156.975	2.504	1	generate	Run1	generate/STIM_006.jpg
162.403	2.594	1	generate	Run1	generate/STIM_006.jpg
167.511	2.748	1	generate	Run1	generate/STIM_006.jpg
172.977	2.658	0	generate	Run1	generate/STIM_006.jpg
178.688	1.775	0	generate	Run1	generate/STIM_006.jpg
183.631	2.323	1	generate	Run1	generate/STIM_007.jpg
188.463	2.374	0	generate	Run1	generate/STIM_007.jpg
193.981	1.412	1	generate	Run1	generate/STIM_007.jpg
197.704	2.545	0	generate	Run1	generate/STIM_007.jpg
203.565	1.574	1	generate	Run1	generate/STIM_007.jpg
207.261	3.2	1	generate	Run1	generate/STIM_008.jpg
214.303	2.271	0	generate	Run1	generate/STIM_008.jpg
220.234	3.099	0	generate	Run1	generate/STIM_008.jpg
225.373	2.298	1	generate	Run1	generate/STIM_008.jpg
230.153	2.297	1	generate	Run1	generate/STIM_008.jpg
235.282	3.122	0	generate	Run1	generate/STIM_009.jpg
242.1	1.403	0	generate	Run1	generate/STIM_009.jpg
245.796	2.62	1	generate	Run1	generate/STIM_009.jpg
250.89	1.881	1	generate	Run1	generate/STIM_009.jpg
254.824	2.846	1	generate	Run1	generate/STIM_009.jpg
260.02	1.729	1	generate	Run1	generate/STIM_010.jpg
264.185	1.395	0	generate	Run1	generate/STIM_010.jpg
267.93	2.064	1	generate	Run1	generate/STIM_010.jpg
272.602	2.337	1	generate	Run1	generate/STIM_010.jpg
277.832	1.898	0	generate	Run1	generate/STIM_010.jpg
282.492	3.019	1	generate	Run1	generate/STIM_011.jpg
288.68	1.686	1	generate	Run1	generate/STIM_011.jpg
293.692	1.628	1	generate	Run1	generate/STIM_011.jpg
297.453	3.0	1	generate	Run1	generate/STIM_011.jpg
302.507	1.581	1	generate	Run1	generate/STIM_011.jpg
307.264	1.966	1	generate	Run1	generate/STIM_012.jpg
311.345	1.713	0	generate	Run1	generate/STIM_012.jpg
315.944	1.707	1	generate	Run1	generate/STIM_012.jpg
321.358	2.503	1	generate	Run1	generate/STIM_012.jpg
327.645	2.74	0	generate	Run1	generate/STIM_012.jpg
333.313	3.024	1	generate	Run1	generate/STIM_013.jpg
339.254	2.501	1	generate	Run1	generate/STIM_013.jpg
344.867	1.832	1	generate	Run1	generate/STIM_013.jpg
348.768	2.021	1	generate	Run1	generate/STIM_013.jpg
353.66	2.723	1	generate	Run1	generate/STIM_013.jpg
360.33	3.496	1	generate	Run1	generate/STIM_014.jpg
366.032	2.185	1	generate	Run1	generate/STIM_014.jpg
370.707	2.893	0	generate	Run1	generate/STIM_014.jpg
376.762	1.568	1	generate	Run1	generate/STIM_014.jpg
380.996	2.113	1	generate	Run1	generate/STIM_014.jpg
386.94	1.684	1	generate	Run1	generate/STIM_015.jpg
391.821	2.551	1	generate	Run1	generate/STIM_015.jpg
397.461	1.997	1	generate	Run1	generate/STIM_015.jpg
401.598	1.312	0	generate	Run1	generate/STIM_015.jpg
405.928	2.407	1	generate	Run1	generate/STIM_015.jpg
411.851	2.568	1	generate	Run1	generate/STIM_016.jpg
417.908	2.837	1	generate	Run1	generate/STIM_016.jpg
423.71	2.311	0	generate	Run1	generate/STIM_016.jpg
428.927	2.868	0	generate	Run1	generate/STIM_016.jpg
434.623	2.674	0	generate	Run1	generate/STIM_016.jpg
440.953	3.036	1	generate	Run1	generate/STIM_017.jpg
447.287	2.668	1	generate	Run1	generate/STIM_017.jpg
452.414	1.392	1	generate	Run1	generate/STIM_017.jpg
456.781	2.856	0	generate	Run1	generate/STIM_017.jpg
462.384	1.792	0	generate	Run1	generate/STIM_017.jpg
466.564	1.682	1	generate	Run1	generate/STIM_018.jpg
470.571	2.378	1	generate	Run1	generate/STIM_018.jpg
475.021	2.415	0	generate	Run1	generate/STIM_018.jpg
479.836	2.486	1	generate	Run1	generate/STIM_018.jpg
484.366	2.214	1	generate	Run1	generate/STIM_018.jpg
489.086	2.705	0	generate	Run1	generate/STIM_019.jpg
494.091	3.077	0	generate	Run1	generate/STIM_019.jpg
500.935	2.513	1	generate	Run1	generate/STIM_019.jpg
505.783	2.44	0	generate	Run1	generate/STIM_019.jpg
511.99	1.591	1	generate	Run1	generate/STIM_019.jpg
517.578	2.013	0	generate	Run1	generate/STIM_020.jpg
522.746	1.59	1	generate	Run1	generate/STIM_020.jpg
527.306	2.512	0	generate	Run1	generate/STIM_020.jpg
532.744	2.848	0	generate	Run1	generate/STIM_020.jpg
538.809	2.828	1	generate	Run1	generate/STIM_020.jpg
545.547	3.387	0	generate	Run1	generate/STIM_021.jpg
551.905	2.261	1	generate	Run1	generate/STIM_021.jpg
556.253	3.184	1	generate	Run1	generate/STIM_021.jpg
563.007	2.978	0	generate	Run1	generate/STIM_021.jpg
568.459	2.832	1	generate	Run1	generate/STIM_021.jpg
575.206	1.624	1	generate	Run1	generate/STIM_022.jpg
580.369	3.122	1	generate	Run1	generate/STIM_022.jpg
586.021	2.304	0	generate	Run1	generate/STIM_022.jpg
590.957	2.186	1	generate	Run1	generate/STIM_022.jpg
596.889	1.992	0	generate	Run1	generate/STIM_022.jpg
602.877	3.023	1	generate	Run1	generate/STIM_023.jpg
609.4	3.007	1	generate	Run1	generate/STIM_023.jpg
616.244	2.612	0	generate	Run1	generate/STIM_023.jpg
621.729	2.25	1	generate	Run1	generate/STIM_023.jpg
627.978	2.675	0	generate	Run1	generate/STIM_023.jpg
633.864	1.571	1	generate	Run1	generate/STIM_024.jpg
638.623	1.6	0	generate	Run1	generate/STIM_024.jpg
643.6	1.424	0	generate	Run1	generate/STIM_024.jpg
648.735	1.749	0	generate	Run1	generate/STIM_024.jpg
653.431	2.344	1	generate	Run1	generate/STIM_024.jpg
657.796	0.732	1	repeat	Run1	repeat/STIM_000.jpg
661.028	0.91	1	repeat	Run1	repeat/STIM_000.jpg
664.134	1.099	0	repeat	Run1	repeat/STIM_000.jpg
668.582	0.863	1	repeat	Run1	repeat/STIM_000.jpg
671.842	0.826	1	repeat	Run1	repeat/STIM_000.jpg
675.867	1.183	1	repeat	Run1	repeat/STIM_001.jpg
679.971	0.917	1	repeat	Run1	repeat/STIM_001.jpg
684.827	0.634	1	repeat	Run1	repeat/STIM_001.jpg
687.765	0.717	1	repeat	Run1	repeat/STIM_001.jpg
691.524	1.006	1	repeat	Run1	repeat/STIM_001.jpg
695.279	1.031	0	repeat	Run1	repeat/STIM_002.jpg
700.305	0.772	1	repeat	Run1	repeat/STIM_002.jpg
705.017	0.678	1	repeat	Run1	repeat/STIM_002.jpg
708.803	0.974	1	repeat	Run1	repeat/STIM_002.jpg
713.751	0.718	1	repeat	Run1	repeat/STIM_002.jpg
717.904	0.694	1	repeat	Run1	repeat/STIM_003.jpg
721.675	0.853	1	repeat	Run1	repeat/STIM_003.jpg
725.297	0.938	1	repeat	Run1	repeat/STIM_003.jpg
729.331	0.782	0	repeat	Run1	repeat/STIM_003.jpg
733.209	1.162	1	repeat	Run1	repeat/STIM_003.jpg
738.201	0.761	1	repeat	Run1	repeat/STIM_004.jpg
742.174	0.77	1	repeat	Run1	repeat/STIM_004.jpg
745.201	1.014	1	repeat	Run1	repeat/STIM_004.jpg
748.378	0.923	1	repeat	Run1	repeat/STIM_004.jpg
751.702	0.827	1	repeat	Run1	repeat/STIM_004.jpg
755.198	1.179	1	repeat	Run1	repeat/STIM_005.jpg
759.739	0.987	1	repeat	Run1	repeat/STIM_005.jpg
763.111	0.718	1	repeat	Run1	repeat/STIM_005.jpg
765.974	0.982	1	repeat	Run1	repeat/STIM_005.jpg
770.932	0.785	1	repeat	Run1	repeat/STIM_005.jpg
774.661	0.975	1	repeat	Run1	repeat/STIM_006.jpg
778.099	0.603	1	repeat	Run1	repeat/STIM_006.jpg
780.843	0.599	1	repeat	Run1	repeat/STIM_006.jpg
784.045	0.783	1	repeat	Run1	repeat/STIM_006.jpg
786.977	0.839	1	repeat	Run1	repeat/STIM_006.jpg
791.693	1.029	1	repeat	Run1	repeat/STIM_007.jpg
795.957	0.604	1	repeat	Run1	repeat/STIM_007.jpg
799.538	0.7	1	repeat	Run1	repeat/STIM_007.jpg
803.377	1.099	0	repeat	Run1	repeat/STIM_007.jpg
807.529	1.054	0	repeat	Run1	repeat/STIM_007.jpg
812.493	0.922	1	repeat	Run1	repeat/STIM_008.jpg
816.7	1.042	1	repeat	Run1	repeat/STIM_008.jpg
820.929	0.71	1	repeat	Run1	repeat/STIM_008.jpg
825.353	0.961	1	repeat	Run1	repeat/STIM_008.jpg
829.311	1.164	1	repeat	Run1	repeat/STIM_008.jpg
832.647	1.052	0	repeat	Run1	repeat/STIM_009.jpg
837.485	0.66	0	repeat	Run1	repeat/STIM_009.jpg
841.352	0.877	1	repeat	Run1	repeat/STIM_009.jpg
845.381	0.97	1	repeat	Run1	repeat/STIM_009.jpg
849.913	0.768	0	repeat	Run1	repeat/STIM_009.jpg
854.547	0.652	1	repeat	Run1	repeat/STIM_010.jpg
857.378	1.126	1	repeat	Run1	repeat/STIM_010.jpg
861.198	0.829	1	repeat	Run1	repeat/STIM_010.jpg
865.2	0.918	1	repeat	Run1	repeat/STIM_010.jpg
868.968	0.846	1	repeat	Run1	repeat/STIM_010.jpg
872.476	0.779	1	repeat	Run1	repeat/STIM_011.jpg
875.76	0.996	1	repeat	Run1	repeat/STIM_011.jpg
879.792	0.722	1	repeat	Run1	repeat/STIM_011.jpg
883.623	0.615	0	repeat	Run1	repeat/STIM_011.jpg
887.55	0.783	1	repeat	Run1	repeat/STIM_011.jpg
891.31	0.69	1	repeat	Run1	repeat/STIM_012.jpg
894.191	1.051	1	repeat	Run1	repeat/STIM_012.jpg
897.932	0.942	1	repeat	Run1	repeat/STIM_012.jpg
901.872	0.822	1	repeat	Run1	repeat/STIM_012.jpg
906.294	1.174	1	repeat	Run1	repeat/STIM_012.jpg
911.004	1.124	1	repeat	Run1	repeat/STIM_013.jpg
914.997	0.697	1	repeat	Run1	repeat/STIM_013.jpg
917.816	0.603	1	repeat	Run1	repeat/STIM_013.jpg
920.838	0.934	1	repeat	Run1	repeat/STIM_013.jpg
924.259	0.673	1	repeat	Run1	repeat/STIM_013.jpg
927.171	1.129	1	repeat	Run1	repeat/STIM_014.jpg
931.882	0.931	1	repeat	Run1	repeat/STIM_014.jpg
936.172	1.033	1	repeat	Run1	repeat/STIM_014.jpg
940.498	0.665	1	repeat	Run1	repeat/STIM_014.jpg
943.9	0.732	1	repeat	Run1	repeat/STIM_014.jpg
947.982	1.88	1	generate	Run2	generate/STIM_000.jpg
952.679	2.094	1	generate	Run2	generate/STIM_000.jpg
957.856	2.126	1	generate	Run2	generate/STIM_000.jpg
962.12	2.179	1	generate	Run2	generate/STIM_000.jpg
967.012	1.95	0	generate	Run2	generate/STIM_000.jpg
972.121	1.24	0	generate	Run2	generate/STIM_001.jpg
975.457	1.407	1	generate	Run2	generate/STIM_001.jpg
978.869	2.272	1	generate	Run2	generate/STIM_001.jpg
983.635	1.901	1	generate	Run2	generate/STIM_001.jpg
987.56	1.777	1	generate	Run2	generate/STIM_001.jpg
992.41	1.624	1	generate	Run2	generate/STIM_002.jpg
997.168	2.64	1	generate	Run2	generate/STIM_002.jpg
1002.255	1.894	1	generate	Run2	generate/STIM_002.jpg
1007.692	2.168	1	generate	Run2	generate/STIM_002.jpg
1013.021	1.146	1	generate	Run2	generate/STIM_002.jpg
1018.108	2.534	1	generate	Run2	generate/STIM_003.jpg
1024.394	2.431	1	generate	Run2	generate/STIM_003.jpg
1029.413	1.483	0	generate	Run2	generate/STIM_003.jpg
1033.166	1.241	1	generate	Run2	generate/STIM_003.jpg
1036.82	1.237	1	generate	Run2	generate/STIM_003.jpg
1040.085	2.155	1	generate	Run2	generate/STIM_004.jpg
1045.368	1.595	0	generate	Run2	generate/STIM_004.jpg
1050.242	2.32	1	generate	Run2	generate/STIM_004.jpg
1054.863	2.451	1	generate	Run2	generate/STIM_004.jpg
1061.073	1.278	1	generate	Run2	generate/STIM_004.jpg
1065.805	2.93	1	generate	Run2	generate/STIM_005.jpg
1071.835	2.796	0	generate	Run2	generate/STIM_005.jpg
1076.969	1.707	1	generate	Run2	generate/STIM_005.jpg
1081.893	2.48	1	generate	Run2	generate/STIM_005.jpg
1087.792	2.09	1	generate	Run2	generate/STIM_005.jpg
1092.058	3.004	0	generate	Run2	generate/STIM_006.jpg
1097.374	1.364	1	generate	Run2	generate/STIM_006.jpg
1101.415	1.746	1	generate	Run2	generate/STIM_006.jpg
1105.792	1.3	1	generate	Run2	generate/STIM_006.jpg
1109.284	1.726	1	generate	Run2	generate/STIM_006.jpg
1114.741	2.988	0	generate	Run2	generate/STIM_007.jpg
1121.013	2.468	1	generate	Run2	generate/STIM_007.jpg
1126.086	1.848	0	generate	Run2	generate/STIM_007.jpg
1130.279	2.036	1	generate	Run2	generate/STIM_007.jpg
1134.861	1.566	1	generate	Run2	generate/STIM_007.jpg
1138.948	2.062	1	generate	Run2	generate/STIM_008.jpg
1143.932	2.316	0	generate	Run2	generate/STIM_008.jpg
1149.16	1.811	1	generate	Run2	generate/STIM_008.jpg
1154.203	1.325	0	generate	Run2	generate/STIM_008.jpg
1157.941	1.855	0	generate	Run2	generate/STIM_008.jpg
1162.285	2.563	1	generate	Run2	generate/STIM_009.jpg
1168.586	2.094	0	generate	Run2	generate/STIM_009.jpg
1174.529	2.559	0	generate	Run2	generate/STIM_009.jpg
1179.756	1.857	1	generate	Run2	generate/STIM_009.jpg
1184.297	2.318	0	generate	Run2	generate/STIM_009.jpg
1189.134	2.003	1	generate	Run2	generate/STIM_010.jpg
1193.229	1.326	0	generate	Run2	generate/STIM_010.jpg
1197.063	2.132	0	generate	Run2	generate/STIM_010.jpg
1202.394	2.194	1	generate	Run2	generate/STIM_010.jpg
1207.398	1.851	1	generate	Run2	generate/STIM_010.jpg
1212.155	2.842	1	generate	Run2	generate/STIM_011.jpg
1218.234	1.722	1	generate	Run2	generate/STIM_011.jpg
1223.132	2.251	0	generate	Run2	generate/STIM_011.jpg
1228.128	1.799	0	generate	Run2	generate/STIM_011.jpg
1232.114	1.666	1	generate	Run2	generate/STIM_011.jpg
1237.772	2.189	1	generate	Run2	generate/STIM_012.jpg
1243.16	2.516	1	generate	Run2	generate/STIM_012.jpg
1249.45	2.029	1	generate	Run2	generate/STIM_012.jpg
1254.022	1.134	0	generate	Run2	generate/STIM_012.jpg
1257.924	1.396	1	generate	Run2	generate/STIM_012.jpg
1262.561	1.921	0	generate	Run2	generate/STIM_013.jpg
1268.459	2.714	1	generate	Run2	generate/STIM_013.jpg
1274.749	1.848	1	generate	Run2	generate/STIM_013.jpg
1279.188	1.506	1	generate	Run2	generate/STIM_013.jpg
1282.874	1.019	1	generate	Run2	generate/STIM_013.jpg
1287.625	1.359	1	generate	Run2	generate/STIM_014.jpg
1292.909	2.809	1	generate	Run2	generate/STIM_014.jpg
1299.294	2.15	1	generate	Run2	generate/STIM_014.jpg
1303.61	1.008	1	generate	Run2	generate/STIM_014.jpg
1308.017	1.811	0	generate	Run2	generate/STIM_014.jpg
1313.129	1.79	1	generate	Run2	generate/STIM_015.jpg
1317.534	1.908	1	generate	Run2	generate/STIM_015.jpg
1323.221	1.106	1	generate	Run2	generate/STIM_015.jpg
1327.434	1.304	1	generate	Run2	generate/STIM_015.jpg
1331.903	1.228	1	generate	Run2	generate/STIM_015.jpg
1335.347	2.324	1	generate	Run2	generate/STIM_016.jpg
1340.613	2.238	1	generate	Run2	generate/STIM_016.jpg
1345.286	1.394	1	generate	Run2	generate/STIM_016.jpg
1349.742	1.123	1	generate	Run2	generate/STIM_016.jpg
1354.246	2.198	0	generate	Run2	generate/STIM_016.jpg
1358.638	2.959	1	generate	Run2	generate/STIM_017.jpg
1365.153	1.735	1	generate	Run2	generate/STIM_017.jpg
1369.25	1.123	1	generate	Run2	generate/STIM_017.jpg
1372.619	2.222	1	generate	Run2	generate/STIM_017.jpg
1378.692	1.837	1	generate	Run2	generate/STIM_017.jpg
1383.349	2.757	1	generate	Run2	generate/STIM_018.jpg
1389.487	2.11	1	generate	Run2	generate/STIM_018.jpg
1394.874	1.434	1	generate	Run2	generate/STIM_018.jpg
1398.933	1.532	1	generate	Run2	generate/STIM_018.jpg
1404.375	1.018	0	generate	Run2	generate/STIM_018.jpg
1408.803	1.427	0	generate	Run2	generate/STIM_019.jpg
1413.996	1.415	0	generate	Run2	generate/STIM_019.jpg
1418.059	1.074	0	generate	Run2	generate/STIM_019.jpg
1421.579	1.175	1	generate	Run2	generate/STIM_019.jpg
1426.086	2.437	1	generate	Run2	generate/STIM_019.jpg
1432.308	2.817	0	generate	Run2	generate/STIM_020.jpg
1438.001	1.847	1	generate	Run2	generate/STIM_020.jpg
1443.607	2.141	1	generate	Run2	generate/STIM_020.jpg
1448.86	2.356	1	generate	Run2	generate/STIM_020.jpg
1453.678	2.45	1	generate	Run2	generate/STIM_020.jpg
1458.183	1.281	1	generate	Run2	generate/STIM_021.jpg
1463.449	1.686	1	generate	Run2	generate/STIM_021.jpg
1467.286	2.377	1	generate	Run2	generate/STIM_021.jpg
1472.275	1.449	1	generate	Run2	generate/STIM_021.jpg
1476.425	1.459	1	generate	Run2	generate/STIM_021.jpg
1481.351	1.672	0	generate	Run2	generate/STIM_022.jpg
1485.931	2.705	1	generate	Run2	generate/STIM_022.jpg
1491.508	1.964	0	generate	Run2	generate/STIM_022.jpg
1497.354	1.012	1	generate	Run2	generate/STIM_022.jpg
1501.836	2.437	1	generate	Run2	generate/STIM_022.jpg
1506.441	2.11	1	generate	Run2	generate/STIM_023.jpg
1511.895	1.377	0	generate	Run2	generate/STIM_023.jpg
1516.11	1.297	1	generate	Run2	generate/STIM_023.jpg
1520.686	1.99	1	generate	Run2	generate/STIM_023.jpg
1525.85	1.714	1	generate	Run2	generate/STIM_023.jpg
1530.537	2.97	1	generate	Run2	generate/STIM_024.jpg
1537.425	1.861	1	generate	Run2	generate/STIM_024.jpg
1541.554	1.94	0	generate	Run2	generate/STIM_024.jpg
1545.933	1.634	0	generate	Run2	generate/STIM_024.jpg
1550.265	1.458	1	generate	Run2	generate/STIM_024.jpg
1555.362	0.687	1	repeat	Run2	repeat/STIM_000.jpg
1558.217	1.147	1	repeat	Run2	repeat/STIM_000.jpg
1561.46	0.902	0	repeat	Run2	repeat/STIM_000.jpg
1566.255	0.665	1	repeat	Run2	repeat/STIM_000.jpg
1569.267	0.983	1	repeat	Run2	repeat/STIM_000.jpg
1573.751	0.672	0	repeat	Run2	repeat/STIM_001.jpg
1577.306	1.016	1	repeat	Run2	repeat/STIM_001.jpg
1582.097	0.937	1	repeat	Run2	repeat/STIM_001.jpg
1585.729	1.108	1	repeat	Run2	repeat/STIM_001.jpg
1589.917	0.733	1	repeat	Run2	repeat/STIM_001.jpg
1593.205	0.756	1	repeat	Run2	repeat/STIM_002.jpg
1596.88	0.843	1	repeat	Run2	repeat/STIM_002.jpg
1600.599	1.07	0	repeat	Run2	repeat/STIM_002.jpg
1604.356	0.751	1	repeat	Run2	repeat/STIM_002.jpg
1608.87	0.703	1	repeat	Run2	repeat/STIM_002.jpg
1613.336	0.664	1	repeat	Run2	repeat/STIM_003.jpg
1617.255	0.808	1	repeat	Run2	repeat/STIM_003.jpg
1621.289	1.167	1	repeat	Run2	repeat/STIM_003.jpg
1626.206	0.813	1	repeat	Run2	repeat/STIM_003.jpg
1629.443	0.709	1	repeat	Run2	repeat/STIM_003.jpg
1633.0	1.066	1	repeat	Run2	repeat/STIM_004.jpg
1637.697	0.822	1	repeat	Run2	repeat/STIM_004.jpg
1642.183	0.786	0	repeat	Run2	repeat/STIM_004.jpg
1645.542	0.972	1	repeat	Run2	repeat/STIM_004.jpg
1650.348	1.031	1	repeat	Run2	repeat/STIM_004.jpg
1654.295	0.61	1	repeat	Run2	repeat/STIM_005.jpg
1657.067	0.863	1	repeat	Run2	repeat/STIM_005.jpg
1660.876	0.672	0	repeat	Run2	repeat/STIM_005.jpg
1664.549	1.168	1	repeat	Run2	repeat/STIM_005.jpg
1669.09	0.646	1	repeat	Run2	repeat/STIM_005.jpg
1673.571	1.15	1	repeat	Run2	repeat/STIM_006.jpg
1676.795	1.031	1	repeat	Run2	repeat/STIM_006.jpg
1681.052	1.145	1	repeat	Run2	repeat/STIM_006.jpg
1684.588	1.132	1	repeat	Run2	repeat/STIM_006.jpg
1688.79	0.9	1	repeat	Run2	repeat/STIM_006.jpg
1693.334	0.849	1	repeat	Run2	repeat/STIM_007.jpg
1698.091	1.069	1	repeat	Run2	repeat/STIM_007.jpg
1702.556	0.957	1	repeat	Run2	repeat/STIM_007.jpg
1707.469	1.085	1	repeat	Run2	repeat/STIM_007.jpg
1710.921	0.778	1	repeat	Run2	repeat/STIM_007.jpg
1714.674	0.954	1	repeat	Run2	repeat/STIM_008.jpg
1717.956	0.765	0	repeat	Run2	repeat/STIM_008.jpg
1721.815	0.597	1	repeat	Run2	repeat/STIM_008.jpg
1726.191	0.792	1	repeat	Run2	repeat/STIM_008.jpg
1729.985	1.149	1	repeat	Run2	repeat/STIM_008.jpg
1734.583	0.752	1	repeat	Run2	repeat/STIM_009.jpg
1739.226	1.173	1	repeat	Run2	repeat/STIM_009.jpg
1742.791	1.036	1	repeat	Run2	repeat/STIM_009.jpg
1746.885	1.015	1	repeat	Run2	repeat/STIM_009.jpg
1751.028	0.778	1	repeat	Run2	repeat/STIM_009.jpg
1754.002	0.756	1	repeat	Run2	repeat/STIM_010.jpg
1758.361	0.849	1	repeat	Run2	repeat/STIM_010.jpg
1762.175	0.633	1	repeat	Run2	repeat/STIM_010.jpg
1766.528	1.144	1	repeat	Run2	repeat/STIM_010.jpg
1770.897	0.682	1	repeat	Run2	repeat/STIM_010.jpg
1774.857	0.722	0	repeat	Run2	repeat/STIM_011.jpg
1778.012	1.062	1	repeat	Run2	repeat/STIM_011.jpg
1781.886	0.824	1	repeat	Run2	repeat/STIM_011.jpg
1785.329	0.684	1	repeat	Run2	repeat/STIM_011.jpg
1788.961	0.638	0	repeat	Run2	repeat/STIM_011.jpg
1791.678	1.093	1	repeat	Run2	repeat/STIM_012.jpg
1794.816	1.051	1	repeat	Run2	repeat/STIM_012.jpg
1798.441	1.132	1	repeat	Run2	repeat/STIM_012.jpg
1801.911	1.162	1	repeat	Run2	repeat/STIM_012.jpg
1806.353	0.702	1	repeat	Run2	repeat/STIM_012.jpg
1809.924	1.093	0	repeat	Run2	repeat/STIM_013.jpg
1813.399	1.0	1	repeat	Run2	repeat/STIM_013.jpg
1816.672	0.669	1	repeat	Run2	repeat/STIM_013.jpg
1820.0	1.136	1	repeat	Run2	repeat/STIM_013.jpg
1824.945	0.976	1	repeat	Run2	repeat/STIM_013.jpg
1829.112	1.128	1	repeat	Run2	repeat/STIM_014.jpg
1834.1	0.993	1	repeat	Run2	repeat/STIM_014.jpg
1837.986	1.153	1	repeat	Run2	repeat/STIM_014.jpg
1841.414	0.618	1	repeat	Run2	repeat/STIM_014.jpg
1845.986	0.952	1	repeat	Run2	repeat/STIM_014.jpg
1849.271	1.697	1	generate	Run3	generate/STIM_000.jpg
1854.807	1.859	1	generate	Run3	generate/STIM_000.jpg
1858.908	1.977	1	generate	Run3	generate/STIM_000.jpg
1862.992	2.164	1	generate	Run3	generate/STIM_000.jpg
1867.716	2.413	1	generate	Run3	generate/STIM_000.jpg
1872.67	1.038	1	generate	Run3	generate/STIM_001.jpg
1877.534	1.447	1	generate	Run3	generate/STIM_001.jpg
1881.121	2.244	1	generate	Run3	generate/STIM_001.jpg
1886.887	1.459	1	generate	Run3	generate/STIM_001.jpg
1891.878	2.228	0	generate	Run3	generate/STIM_001.jpg
1898.04	1.016	0	generate	Run3	generate/STIM_002.jpg
1902.952	2.496	1	generate	Run3	generate/STIM_002.jpg
1907.639	1.448	1	generate	Run3	generate/STIM_002.jpg
1911.77	1.668	0	generate	Run3	generate/STIM_002.jpg
1917.099	1.491	1	generate	Run3	generate/STIM_002.jpg
1920.76	1.019	1	generate	Run3	generate/STIM_003.jpg
1924.43	1.951	0	generate	Run3	generate/STIM_003.jpg
1928.444	2.39	1	generate	Run3	generate/STIM_003.jpg
1933.726	2.271	1	generate	Run3	generate/STIM_003.jpg
1939.862	1.358	1	generate	Run3	generate/STIM_003.jpg
1944.617	1.13	1	generate	Run3	generate/STIM_004.jpg
1949.616	2.096	1	generate	Run3	generate/STIM_004.jpg
1955.303	2.435	0	generate	Run3	generate/STIM_004.jpg
1960.015	1.6	1	generate	Run3	generate/STIM_004.jpg
1965.097	2.106	1	generate	Run3	generate/STIM_004.jpg
1970.673	1.999	1	generate	Run3	generate/STIM_005.jpg
1976.389	2.22	1	generate	Run3	generate/STIM_005.jpg
1981.442	1.184	1	generate	Run3	generate/STIM_005.jpg
1984.715	2.216	1	generate	Run3	generate/STIM_005.jpg
1990.543	2.395	1	generate	Run3	generate/STIM_005.jpg
1995.781	2.027	1	generate	Run3	generate/STIM_006.jpg
2000.0	2.182	1	generate	Run3	generate/STIM_006.jpg
2005.675	1.507	1	generate	Run3	generate/STIM_006.jpg
2011.105	2.248	1	generate	Run3	generate/STIM_006.jpg
2017.262	2.382	0	generate	Run3	generate/STIM_006.jpg
2023.075	1.622	0	generate	Run3	generate/STIM_007.jpg
2028.594	1.003	1	generate	Run3	generate/STIM_007.jpg
2031.718	1.061	1	generate	Run3	generate/STIM_007.jpg
2035.025	1.047	1	generate	Run3	generate/STIM_007.jpg
2039.229	1.424	1	generate	Run3	generate/STIM_007.jpg
2043.304	1.152	1	generate	Run3	generate/STIM_008.jpg
2046.573	1.838	1	generate	Run3	generate/STIM_008.jpg
2051.402	1.438	0	generate	Run3	generate/STIM_008.jpg
2055.937	2.354	1	generate	Run3	generate/STIM_008.jpg
2061.916	1.204	1	generate	Run3	generate/STIM_008.jpg
2067.051	1.647	1	generate	Run3	generate/STIM_009.jpg
2071.617	2.325	1	generate	Run3	generate/STIM_009.jpg
2077.211	1.142	1	generate	Run3	generate/STIM_009.jpg
2080.462	2.323	1	generate	Run3	generate/STIM_009.jpg
2085.592	1.054	1	generate	Run3	generate/STIM_009.jpg
2089.398	1.989	1	generate	Run3	generate/STIM_010.jpg
2095.278	2.266	1	generate	Run3	generate/STIM_010.jpg
2100.202	2.386	1	generate	Run3	generate/STIM_010.jpg
2104.996	1.08	1	generate	Run3	generate/STIM_010.jpg
2109.483	1.98	1	generate	Run3	generate/STIM_010.jpg
2115.067	1.948	1	generate	Run3	generate/STIM_011.jpg
2119.499	1.33	1	generate	Run3	generate/STIM_011.jpg
2124.145	1.573	1	generate	Run3	generate/STIM_011.jpg
2128.161	1.595	1	generate	Run3	generate/STIM_011.jpg
2132.724	1.881	1	generate	Run3	generate/STIM_011.jpg
2138.302	2.043	0	generate	Run3	generate/STIM_012.jpg
2143.845	1.141	0	generate	Run3	generate/STIM_012.jpg
2147.176	1.684	1	generate	Run3	generate/STIM_012.jpg
2151.409	1.305	1	generate	Run3	generate/STIM_012.jpg
2155.915	1.433	1	generate	Run3	generate/STIM_012.jpg
2161.064	1.03	1	generate	Run3	generate/STIM_013.jpg
2165.131	2.439	1	generate	Run3	generate/STIM_013.jpg
2169.603	2.189	1	generate	Run3	generate/STIM_013.jpg
2173.817	2.278	1	generate	Run3	generate/STIM_013.jpg
2179.764	2.369	1	generate	Run3	generate/STIM_013.jpg
2185.789	1.958	1	generate	Run3	generate/STIM_014.jpg
2191.035	2.337	1	generate	Run3	generate/STIM_014.jpg
2195.614	1.359	1	generate	Run3	generate/STIM_014.jpg
2200.29	1.954	1	generate	Run3	generate/STIM_014.jpg
2205.363	1.803	1	generate	Run3	generate/STIM_014.jpg
2210.622	1.958	1	generate	Run3	generate/STIM_015.jpg
2216.463	1.623	1	generate	Run3	generate/STIM_015.jpg
2221.457	1.509	1	generate	Run3	generate/STIM_015.jpg
2226.273	1.872	1	generate	Run3	generate/STIM_015.jpg
2231.218	1.994	1	generate	Run3	generate/STIM_015.jpg
2236.256	2.419	0	generate	Run3	generate/STIM_016.jpg
2240.959	1.357	1	generate	Run3	generate/STIM_016.jpg
2245.076	1.614	1	generate	Run3	generate/STIM_016.jpg
2248.728	2.125	1	generate	Run3	generate/STIM_016.jpg
2254.841	2.24	1	generate	Run3	generate/STIM_016.jpg
2260.628	1.822	1	generate	Run3	generate/STIM_017.jpg
2265.943	1.944	1	generate	Run3	generate/STIM_017.jpg
2271.727	2.317	1	generate	Run3	generate/STIM_017.jpg
2276.676	1.792	1	generate	Run3	generate/STIM_017.jpg
2280.92	1.354	0	generate	Run3	generate/STIM_017.jpg
2286.048	1.768	0	generate	Run3	generate/STIM_018.jpg
2291.019	1.028	1	generate	Run3	generate/STIM_018.jpg
2294.648	1.669	1	generate	Run3	generate/STIM_018.jpg
2299.715	2.066	1	generate	Run3	generate/STIM_018.jpg
2305.39	1.914	1	generate	Run3	generate/STIM_018.jpg
2309.819	1.547	0	generate	Run3	generate/STIM_019.jpg
2313.795	1.476	1	generate	Run3	generate/STIM_019.jpg
2318.323	1.27	1	generate	Run3	generate/STIM_019.jpg
2323.575	2.258	1	generate	Run3	generate/STIM_019.jpg
2329.064	2.475	1	generate	Run3	generate/STIM_019.jpg
2335.277	1.32	1	generate	Run3	generate/STIM_020.jpg
2339.498	2.05	1	generate	Run3	generate/STIM_020.jpg
2343.905	1.936	1	generate	Run3	generate/STIM_020.jpg
2349.253	1.13	1	generate	Run3	generate/STIM_020.jpg
2353.643	1.85	1	generate	Run3	generate/STIM_020.jpg
2358.489	1.046	1	generate	Run3	generate/STIM_021.jpg
2363.033	1.84	0	generate	Run3	generate/STIM_021.jpg
2368.768	1.037	1	generate	Run3	generate/STIM_021.jpg
2372.145	1.366	1	generate	Run3	generate/STIM_021.jpg
2377.115	1.378	0	generate	Run3	generate/STIM_021.jpg
2382.29	1.534	1	generate	Run3	generate/STIM_022.jpg
2386.499	2.165	1	generate	Run3	generate/STIM_022.jpg
2391.607	1.423	1	generate	Run3	generate/STIM_022.jpg
2395.126	2.072	1	generate	Run3	generate/STIM_022.jpg
2400.164	1.122	1	generate	Run3	generate/STIM_022.jpg
2403.404	2.402	1	generate	Run3	generate/STIM_023.jpg
2409.607	2.356	1	generate	Run3	generate/STIM_023.jpg
2414.63	2.129	1	generate	Run3	generate/STIM_023.jpg
2419.582	1.784	1	generate	Run3	generate/STIM_023.jpg
2424.928	1.674	1	generate	Run3	generate/STIM_023.jpg
2429.213	1.517	1	generate	Run3	generate/STIM_024.jpg
2434.151	1.886	0	generate	Run3	generate/STIM_024.jpg
2438.215	2.245	1	generate	Run3	generate/STIM_024.jpg
2442.986	2.002	1	generate	Run3	generate/STIM_024.jpg
2448.808	2.409	1	generate	Run3	generate/STIM_024.jpg
2453.714	0.639	1	repeat	Run3	repeat/STIM_000.jpg
2456.643	0.823	0	repeat	Run3	repeat/STIM_000.jpg
2459.625	0.676	1	repeat	Run3	repeat/STIM_000.jpg
2462.967	0.733	1	repeat	Run3	repeat/STIM_000.jpg
2466.829	1.125	1	repeat	Run3	repeat/STIM_000.jpg
2471.609	0.61	1	repeat	Run3	repeat/STIM_001.jpg
2475.517	0.628	1	repeat	Run3	repeat/STIM_001.jpg
2478.793	0.835	0	repeat	Run3	repeat/STIM_001.jpg
2482.115	0.763	1	repeat	Run3	repeat/STIM_001.jpg
2486.464	0.793	1	repeat	Run3	repeat/STIM_001.jpg
2489.743	0.826	0	repeat	Run3	repeat/STIM_002.jpg
2492.674	0.872	1	repeat	Run3	repeat/STIM_002.jpg
2497.403	1.126	1	repeat	Run3	repeat/STIM_002.jpg
2501.943	0.897	1	repeat	Run3	repeat/STIM_002.jpg
2506.741	1.026	1	repeat	Run3	repeat/STIM_002.jpg
2511.743	0.747	1	repeat	Run3	repeat/STIM_003.jpg
2514.968	1.176	1	repeat	Run3	repeat/STIM_003.jpg
2519.513	0.654	1	repeat	Run3	repeat/STIM_003.jpg
2523.221	0.695	1	repeat	Run3	repeat/STIM_003.jpg
2526.312	0.652	0	repeat	Run3	repeat/STIM_003.jpg
2530.565	1.027	1	repeat	Run3	repeat/STIM_004.jpg
2535.011	0.94	1	repeat	Run3	repeat/STIM_004.jpg
2539.038	1.148	1	repeat	Run3	repeat/STIM_004.jpg
2543.664	0.799	1	repeat	Run3	repeat/STIM_004.jpg
2546.605	1.027	0	repeat	Run3	repeat/STIM_004.jpg
2550.915	1.098	1	repeat	Run3	repeat/STIM_005.jpg
2555.569	0.665	1	repeat	Run3	repeat/STIM_005.jpg
2558.686	1.073	1	repeat	Run3	repeat/STIM_005.jpg
2563.672	0.999	1	repeat	Run3	repeat/STIM_005.jpg
2568.65	0.704	0	repeat	Run3	repeat/STIM_005.jpg
2572.958	1.041	1	repeat	Run3	repeat/STIM_006.jpg
2577.269	1.137	1	repeat	Run3	repeat/STIM_006.jpg
2582.121	0.786	1	repeat	Run3	repeat/STIM_006.jpg
2584.912	0.931	0	repeat	Run3	repeat/STIM_006.jpg
2587.93	1.124	1	repeat	Run3	repeat/STIM_006.jpg
2591.948	0.63	1	repeat	Run3	repeat/STIM_007.jpg
2594.661	0.721	0	repeat	Run3	repeat/STIM_007.jpg
2599.339	1.015	1	repeat	Run3	repeat/STIM_007.jpg
2603.757	1.185	1	repeat	Run3	repeat/STIM_007.jpg
2607.094	0.681	1	repeat	Run3	repeat/STIM_007.jpg
2611.246	0.89	1	repeat	Run3	repeat/STIM_008.jpg
2615.266	1.017	1	repeat	Run3	repeat/STIM_008.jpg
2620.269	0.634	1	repeat	Run3	repeat/STIM_008.jpg
2623.03	1.118	1	repeat	Run3	repeat/STIM_008.jpg
2626.324	0.603	1	repeat	Run3	repeat/STIM_008.jpg
2630.508	1.166	1	repeat	Run3	repeat/STIM_009.jpg
2634.835	0.8	0	repeat	Run3	repeat/STIM_009.jpg
2638.792	0.993	1	repeat	Run3	repeat/STIM_009.jpg
2642.551	0.878	1	repeat	Run3	repeat/STIM_009.jpg
2645.828	0.938	0	repeat	Run3	repeat/STIM_009.jpg
2650.697	1.11	1	repeat	Run3	repeat/STIM_010.jpg
2655.59	0.859	1	repeat	Run3	repeat/STIM_010.jpg
2658.827	0.8	1	repeat	Run3	repeat/STIM_010.jpg
2662.563	0.789	1	repeat	Run3	repeat/STIM_010.jpg
2665.537	0.703	0	repeat	Run3	repeat/STIM_010.jpg
2669.158	1.063	1	repeat	Run3	repeat/STIM_011.jpg
2673.831	0.596	1	repeat	Run3	repeat/STIM_011.jpg
2677.684	0.641	1	repeat	Run3	repeat/STIM_011.jpg
2680.905	0.628	1	repeat	Run3	repeat/STIM_011.jpg
2685.154	1.128	1	repeat	Run3	repeat/STIM_011.jpg
2689.085	0.913	1	repeat	Run3	repeat/STIM_012.jpg
2693.44	1.031	1	repeat	Run3	repeat/STIM_012.jpg
2697.912	1.144	1	repeat	Run3	repeat/STIM_012.jpg
2701.441	0.86	1	repeat	Run3	repeat/STIM_012.jpg
2705.401	0.809	1	repeat	Run3	repeat/STIM_012.jpg
2709.793	0.907	0	repeat	Run3	repeat/STIM_013.jpg
2713.076	1.089	1	repeat	Run3	repeat/STIM_013.jpg
2717.677	0.609	1	repeat	Run3	repeat/STIM_013.jpg
2721.729	0.824	1	repeat	Run3	repeat/STIM_013.jpg
2726.053	0.649	1	repeat	Run3	repeat/STIM_013.jpg
2729.339	0.685	1	repeat	Run3	repeat/STIM_014.jpg
2732.078	1.085	0	repeat	Run3	repeat/STIM_014.jpg
2735.991	0.792	1	repeat	Run3	repeat/STIM_014.jpg
2740.516	1.144	1	repeat	Run3	repeat/STIM_014.jpg
2744.326	0.69	1	repeat	Run3	repeat/STIM_014.jpg
2748.52	2.181	1	generate	Run4	generate/STIM_000.jpg
2753.734	2.423	1	generate	Run4	generate/STIM_000.jpg
2758.679	1.565	0	generate	Run4	generate/STIM_000.jpg
2764.212	1.375	1	generate	Run4	generate/STIM_000.jpg
2768.517	2.416	1	generate	Run4	generate/STIM_000.jpg
2774.452	1.805	1	generate	Run4	generate/STIM_001.jpg
2778.505	1.386	1	generate	Run4	generate/STIM_001.jpg
2782.44	2.209	1	generate	Run4	generate/STIM_001.jpg
2788.035	1.988	1	generate	Run4	generate/STIM_001.jpg
2792.309	1.681	1	generate	Run4	generate/STIM_001.jpg
2796.742	1.278	1	generate	Run4	generate/STIM_002.jpg
2800.635	1.42	1	generate	Run4	generate/STIM_002.jpg
2804.563	1.121	0	generate	Run4	generate/STIM_002.jpg
2807.685	1.251	1	generate	Run4	generate/STIM_002.jpg
2812.892	1.874	1	generate	Run4	generate/STIM_002.jpg
2817.585	1.886	1	generate	Run4	generate/STIM_003.jpg
2822.305	2.028	1	generate	Run4	generate/STIM_003.jpg
2827.471	1.635	1	generate	Run4	generate/STIM_003.jpg
2832.827	1.475	1	generate	Run4	generate/STIM_003.jpg
2836.442	1.345	1	generate	Run4	generate/STIM_003.jpg
2840.794	1.169	1	generate	Run4	generate/STIM_004.jpg
2845.089	1.221	1	generate	Run4	generate/STIM_004.jpg
2849.065	1.858	1	generate	Run4	generate/STIM_004.jpg
2854.791	1.516	0	generate	Run4	generate/STIM_004.jpg
2859.083	2.383	1	generate	Run4	generate/STIM_004.jpg
2864.573	2.364	1	generate	Run4	generate/STIM_005.jpg
2870.537	1.666	1	generate	Run4	generate/STIM_005.jpg
2874.938	2.267	1	generate	Run4	generate/STIM_005.jpg
2880.356	1.662	1	generate	Run4	generate/STIM_005.jpg
2884.756	2.214	1	generate	Run4	generate/STIM_005.jpg
2890.848	1.732	1	generate	Run4	generate/STIM_006.jpg
2895.856	2.324	0	generate	Run4	generate/STIM_006.jpg
2900.627	1.863	1	generate	Run4	generate/STIM_006.jpg
2904.764	2.206	1	generate	Run4	generate/STIM_006.jpg
2909.781	1.746	1	generate	Run4	generate/STIM_006.jpg
2915.143	1.864	1	generate	Run4	generate/STIM_007.jpg
2920.813	1.399	1	generate	Run4	generate/STIM_007.jpg
2924.816	2.282	1	generate	Run4	generate/STIM_007.jpg
2930.503	1.814	1	generate	Run4	generate/STIM_007.jpg
2935.54	2.345	1	generate	Run4	generate/STIM_007.jpg
2940.309	1.452	1	generate	Run4	generate/STIM_008.jpg
2945.173	2.194	1	generate	Run4	generate/STIM_008.jpg
2950.241	1.533	1	generate	Run4	generate/STIM_008.jpg
2953.948	1.768	1	generate	Run4	generate/STIM_008.jpg
2958.668	2.112	1	generate	Run4	generate/STIM_008.jpg
2964.315	1.846	1	generate	Run4	generate/STIM_009.jpg
2968.994	1.103	1	generate	Run4	generate/STIM_009.jpg
2973.959	1.152	1	generate	Run4	generate/STIM_009.jpg
2977.631	1.252	1	generate	Run4	generate/STIM_009.jpg
2981.944	2.235	0	generate	Run4	generate/STIM_009.jpg
2986.898	2.322	1	generate	Run4	generate/STIM_010.jpg
2991.28	2.441	1	generate	Run4	generate/STIM_010.jpg
2996.993	1.395	1	generate	Run4	generate/STIM_010.jpg
3001.492	1.402	1	generate	Run4	generate/STIM_010.jpg
3005.873	1.063	1	generate	Run4	generate/STIM_010.jpg
3009.894	1.813	1	generate	Run4	generate/STIM_011.jpg
3015.365	2.291	1	generate	Run4	generate/STIM_011.jpg
3020.563	2.365	0	generate	Run4	generate/STIM_011.jpg
3025.016	1.462	1	generate	Run4	generate/STIM_011.jpg
3028.753	1.49	1	generate	Run4	generate/STIM_011.jpg
3033.428	2.253	1	generate	Run4	generate/STIM_012.jpg
3038.682	1.788	1	generate	Run4	generate/STIM_012.jpg
3043.393	1.899	0	generate	Run4	generate/STIM_012.jpg
3048.204	1.702	0	generate	Run4	generate/STIM_012.jpg
3052.666	1.729	1	generate	Run4	generate/STIM_012.jpg
3057.414	2.236	1	generate	Run4	generate/STIM_013.jpg
3061.784	1.763	1	generate	Run4	generate/STIM_013.jpg
3066.272	1.49	1	generate	Run4	generate/STIM_013.jpg
3071.426	2.236	1	generate	Run4	generate/STIM_013.jpg
3076.772	1.085	1	generate	Run4	generate/STIM_013.jpg
3080.727	1.391	1	generate	Run4	generate/STIM_014.jpg
3085.203	1.212	1	generate	Run4	generate/STIM_014.jpg
3089.276	1.107	1	generate	Run4	generate/STIM_014.jpg
3092.46	1.984	0	generate	Run4	generate/STIM_014.jpg
3098.394	1.666	0	generate	Run4	generate/STIM_014.jpg
3102.939	1.996	1	generate	Run4	generate/STIM_015.jpg
3107.047	1.476	1	generate	Run4	generate/STIM_015.jpg
3110.581	2.446	0	generate	Run4	generate/STIM_015.jpg
3115.356	1.463	1	generate	Run4	generate/STIM_015.jpg
3120.021	1.24	1	generate	Run4	generate/STIM_015.jpg
3125.114	1.249	1	generate	Run4	generate/STIM_016.jpg
3129.274	2.072	1	generate	Run4	generate/STIM_016.jpg
3133.62	2.341	1	generate	Run4	generate/STIM_016.jpg
3139.432	1.27	0	generate	Run4	generate/STIM_016.jpg
3144.076	1.948	1	generate	Run4	generate/STIM_016.jpg
3148.034	1.399	0	generate	Run4	generate/STIM_017.jpg
3152.804	1.4	1	generate	Run4	generate/STIM_017.jpg
3156.751	1.257	1	generate	Run4	generate/STIM_017.jpg
3160.848	1.372	1	generate	Run4	generate/STIM_017.jpg
3165.501	2.338	1	generate	Run4	generate/STIM_017.jpg
3171.061	2.415	1	generate	Run4	generate/STIM_018.jpg
3177.285	1.176	0	generate	Run4	generate/STIM_018.jpg
3181.062	1.311	0	generate	Run4	generate/STIM_018.jpg
3186.286	1.292	1	generate	Run4	generate/STIM_018.jpg
3191.391	1.828	1	generate	Run4	generate/STIM_018.jpg
3195.62	1.971	0	generate	Run4	generate/STIM_019.jpg
3200.722	1.548	1	generate	Run4	generate/STIM_019.jpg
3204.362	1.538	1	generate	Run4	generate/STIM_019.jpg
3209.52	1.744	1	generate	Run4	generate/STIM_019.jpg
3214.206	1.58	1	generate	Run4	generate/STIM_019.jpg
3218.272	1.302	0	generate	Run4	generate/STIM_020.jpg
3221.806	1.408	1	generate	Run4	generate/STIM_020.jpg
3226.371	1.769	1	generate	Run4	generate/STIM_020.jpg
3231.321	2.204	1	generate	Run4	generate/STIM_020.jpg
3237.261	2.024	1	generate	Run4	generate/STIM_020.jpg
3243.278	1.099	1	generate	Run4	generate/STIM_021.jpg
3247.427	1.233	1	generate	Run4	generate/STIM_021.jpg
3252.147	1.454	1	generate	Run4	generate/STIM_021.jpg
3257.456	1.09	1	generate	Run4	generate/STIM_021.jpg
3262.1	1.88	1	generate	Run4	generate/STIM_021.jpg
3267.392	1.558	0	generate	Run4	generate/STIM_022.jpg
3271.889	2.277	1	generate	Run4	generate/STIM_022.jpg
3277.463	2.092	1	generate	Run4	generate/STIM_022.jpg
3283.04	1.662	1	generate	Run4	generate/STIM_022.jpg
3288.262	2.233	1	generate	Run4	generate/STIM_022.jpg
3294.165	2.486	1	generate	Run4	generate/STIM_023.jpg
3298.967	2.282	0	generate	Run4	generate/STIM_023.jpg
3304.295	2.406	1	generate	Run4	generate/STIM_023.jpg
3308.866	2.437	1	generate	Run4	generate/STIM_023.jpg
3314.2	2.451	1	generate	Run4	generate/STIM_023.jpg
3319.446	1.595	1	generate	Run4	generate/STIM_024.jpg
3324.746	1.543	1	generate	Run4	generate/STIM_024.jpg
3328.927	1.276	0	generate	Run4	generate/STIM_024.jpg
3332.788	2.461	1	generate	Run4	generate/STIM_024.jpg
3339.053	2.427	1	generate	Run4	generate/STIM_024.jpg
3345.353	1.186	0	repeat	Run4	repeat/STIM_000.jpg
3348.627	1.097	1	repeat	Run4	repeat/STIM_000.jpg
3351.795	1.076	1	repeat	Run4	repeat/STIM_000.jpg
3355.584	0.949	1	repeat	Run4	repeat/STIM_000.jpg
3359.583	0.704	1	repeat	Run4	repeat/STIM_000.jpg
3362.417	0.898	1	repeat	Run4	repeat/STIM_001.jpg
3365.972	0.977	0	repeat	Run4	repeat/STIM_001.jpg
3369.892	0.757	1	repeat	Run4	repeat/STIM_001.jpg
3374.149	0.834	1	repeat	Run4	repeat/STIM_001.jpg
3377.768	1.017	0	repeat	Run4	repeat/STIM_001.jpg
3381.324	0.745	1	repeat	Run4	repeat/STIM_002.jpg
3385.034	0.945	1	repeat	Run4	repeat/STIM_002.jpg
3388.843	0.665	1	repeat	Run4	repeat/STIM_002.jpg
3391.546	1.073	1	repeat	Run4	repeat/STIM_002.jpg
3396.255	0.898	1	repeat	Run4	repeat/STIM_002.jpg
3400.993	0.888	1	repeat	Run4	repeat/STIM_003.jpg
3405.33	0.686	1	repeat	Run4	repeat/STIM_003.jpg
3408.183	0.946	1	repeat	Run4	repeat/STIM_003.jpg
3411.676	1.122	0	repeat	Run4	repeat/STIM_003.jpg
3416.154	0.62	1	repeat	Run4	repeat/STIM_003.jpg
3419.363	1.046	1	repeat	Run4	repeat/STIM_004.jpg
3423.24	0.99	0	repeat	Run4	repeat/STIM_004.jpg
3426.551	0.746	0	repeat	Run4	repeat/STIM_004.jpg
3430.646	1.153	1	repeat	Run4	repeat/STIM_004.jpg
3434.294	1.125	0	repeat	Run4	repeat/STIM_004.jpg
3439.394	0.723	1	repeat	Run4	repeat/STIM_005.jpg
3443.825	1.002	0	repeat	Run4	repeat/STIM_005.jpg
3448.307	0.639	1	repeat	Run4	repeat/STIM_005.jpg
3452.278	0.682	1	repeat	Run4	repeat/STIM_005.jpg
3455.384	0.997	0	repeat	Run4	repeat/STIM_005.jpg
3459.399	0.806	1	repeat	Run4	repeat/STIM_006.jpg
3462.715	0.644	1	repeat	Run4	repeat/STIM_006.jpg
3465.437	0.774	1	repeat	Run4	repeat/STIM_006.jpg
3468.225	0.604	1	repeat	Run4	repeat/STIM_006.jpg
3472.792	0.707	1	repeat	Run4	repeat/STIM_006.jpg
3477.333	1.069	1	repeat	Run4	repeat/STIM_007.jpg
3481.027	0.792	1	repeat	Run4	repeat/STIM_007.jpg
3484.751	1.021	1	repeat	Run4	repeat/STIM_007.jpg
3488.36	0.87	1	repeat	Run4	repeat/STIM_007.jpg
3491.569	1.167	1	repeat	Run4	repeat/STIM_007.jpg
3494.922	0.68	1	repeat	Run4	repeat/STIM_008.jpg
3499.25	1.116	0	repeat	Run4	repeat/STIM_008.jpg
3503.005	0.983	0	repeat	Run4	repeat/STIM_008.jpg
3507.57	0.75	1	repeat	Run4	repeat/STIM_008.jpg
3510.762	0.778	1	repeat	Run4	repeat/STIM_008.jpg
3513.675	0.985	1	repeat	Run4	repeat/STIM_009.jpg
3517.575	0.732	1	repeat	Run4	repeat/STIM_009.jpg
3520.878	0.974	1	repeat	Run4	repeat/STIM_009.jpg
3523.984	0.746	1	repeat	Run4	repeat/STIM_009.jpg
3528.004	0.999	1	repeat	Run4	repeat/STIM_009.jpg
3531.358	1.052	1	repeat	Run4	repeat/STIM_010.jpg
3536.353	0.69	1	repeat	Run4	repeat/STIM_010.jpg
3539.253	0.888	1	repeat	Run4	repeat/STIM_010.jpg
3542.572	0.82	1	repeat	Run4	repeat/STIM_010.jpg
3546.184	0.737	1	repeat	Run4	repeat/STIM_010.jpg
3550.481	0.802	1	repeat	Run4	repeat/STIM_011.jpg
3554.174	1.136	1	repeat	Run4	repeat/STIM_011.jpg
3557.689	1.07	1	repeat	Run4	repeat/STIM_011.jpg
3561.353	0.652	1	repeat	Run4	repeat/STIM_011.jpg
3565.511	0.598	1	repeat	Run4	repeat/STIM_011.jpg
3569.384	1.027	1	repeat	Run4	repeat/STIM_012.jpg
3573.275	0.817	1	repeat	Run4	repeat/STIM_012.jpg
3577.549	0.978	1	repeat	Run4	repeat/STIM_012.jpg
3581.227	1.073	1	repeat	Run4	repeat/STIM_012.jpg
3585.341	0.975	0	repeat	Run4	repeat/STIM_012.jpg
3589.907	0.671	1	repeat	Run4	repeat/STIM_013.jpg
3593.879	1.025	1	repeat	Run4	repeat/STIM_013.jpg
3597.112	0.8	0	repeat	Run4	repeat/STIM_013.jpg
3599.936	1.098	1	repeat	Run4	repeat/STIM_013.jpg
3603.599	0.731	1	repeat	Run4	repeat/STIM_013.jpg
3607.535	0.97	0	repeat	Run4	repeat/STIM_014.jpg
3611.956	0.942	1	repeat	Run4	repeat/STIM_014.jpg
3616.686	0.948	1	repeat	Run4	repeat/STIM_014.jpg
3619.763	1.034	1	repeat	Run4	repeat/STIM_014.jpg
3623.877	0.644	1	repeat	Run4	repeat/STIM_014.jpg
