onset	duration	response_time_ms	trial_type	learning_stage	stimulus	response_port
0.0	2.322	2321.6	generate	Run1	generate/STIM_000.jpg	99
4.722	1.28	1280.4	generate	Run1	generate/STIM_000.jpg	99
8.816	2.238	2238.0	generate	Run1	generate/STIM_000.jpg	99
13.636	1.165	1164.6	generate	Run1	generate/STIM_000.jpg	100
17.538	2.127	2126.7	generate	Run1	generate/STIM_000.jpg	100
23.434	2.896	2895.7	generate	Run1	generate/STIM_001.jpg	99
28.478	3.216	3215.8	generate	Run1	generate/STIM_001.jpg	100
33.929	2.293	2293.3	generate	Run1	generate/STIM_001.jpg	100
39.889	2.598	2598.5	generate	Run1	generate/STIM_001.jpg	99
45.745	2.061	2061.3	generate	Run1	generate/STIM_001.jpg	99
49.522	2.192	2192.5	generate	Run1	generate/STIM_002.jpg	100
53.804	2.316	2316.1	generate	Run1	generate/STIM_002.jpg	100
58.331	3.01	3010.5	generate	Run1	generate/STIM_002.jpg	99
64.426	1.272	1271.5	generate	Run1	generate/STIM_002.jpg	99
69.449	2.702	2701.6	generate	Run1	generate/STIM_002.jpg	100
75.313	2.318	2317.5	generate	Run1	generate/STIM_003.jpg	100
79.454	2.384	2384.2	generate	Run1	generate/STIM_003.jpg	100
84.651	2.147	2147.3	generate	Run1	generate/STIM_003.jpg	100
88.814	1.681	1681.0	generate	Run1	generate/STIM_003.jpg	99
92.604	1.44	1439.5	generate	Run1	generate/STIM_003.jpg	99
97.105	1.834	1834.2	generate	Run1	generate/STIM_004.jpg	99
101.237	2.672	2672.3	generate	Run1	generate/STIM_004.jpg	99
105.917	1.328	1328.3	generate	Run1	generate/STIM_004.jpg	100
110.154	2.68	2680.4	generate	Run1	generate/STIM_004.jpg	100
114.706	2.618	2618.5	generate	Run1	generate/STIM_004.jpg	100
119.628	2.808	2807.7	generate	Run1	generate/STIM_005.jpg	100
125.272	1.37	1369.9	generate	Run1	generate/STIM_005.jpg	99
130.196	1.252	1252.1	generate	Run1	generate/STIM_005.jpg	100
134.062	2.163	2162.7	generate	Run1	generate/STIM_005.jpg	99
139.602	1.846	1846.0	generate	Run1	generate/STIM_005.jpg	100
145.036	1.685	1684.8	generate	Run1	generate/STIM_006.jpg	99
149.118	2.153	2153.3	generate	Run1	generate/STIM_006.jpg	99
153.056	2.963	2962.9	generate	Run1	generate/STIM_006.jpg	100
158.099	1.295	1295.4	generate	Run1	generate/STIM_006.jpg	99
161.844	2.077	2077.4	generate	Run1	generate/STIM_006.jpg	99
167.517	1.673	1673.4	generate	Run1	generate/STIM_007.jpg	99
172.089	2.732	2732.5	generate	Run1	generate/STIM_007.jpg	99
178.212	2.043	2043.3	generate	Run1	generate/STIM_007.jpg	100
183.155	1.491	1491.1	generate	Run1	generate/STIM_007.jpg	99
187.356	1.656	1655.8	generate	Run1	generate/STIM_007.jpg	99
191.254	3.277	3277.4	generate	Run1	generate/STIM_008.jpg	100
197.568	3.08	3080.0	generate	Run1	generate/STIM_008.jpg	100
202.261	2.607	2606.6	generate	Run1	generate/STIM_008.jpg	99
207.22	2.287	2287.0	generate	Run1	generate/STIM_008.jpg	99
212.581	1.962	1961.6	generate	Run1	generate/STIM_008.jpg	99
217.838	2.777	2777.4	generate	Run1	generate/STIM_009.jpg	100
222.362	1.691	1691.4	generate	Run1	generate/STIM_009.jpg	99
227.435	2.67	2669.6	generate	Run1	generate/STIM_009.jpg	100
233.524	1.386	1385.5	generate	Run1	generate/STIM_009.jpg	100
238.379	1.404	1404.4	generate	Run1	generate/STIM_009.jpg	99
243.041	2.874	2873.7	generate	Run1	generate/STIM_010.jpg	99
248.417	2.552	2551.9	generate	Run1	generate/STIM_010.jpg	99
252.772	2.255	2254.8	generate	Run1	generate/STIM_010.jpg	100
258.3	2.549	2549.4	generate	Run1	generate/STIM_010.jpg	100
264.216	2.438	2438.3	generate	Run1	generate/STIM_010.jpg	100
269.94	3.083	3083.2	generate	Run1	generate/STIM_011.jpg	100
275.857	2.139	2138.6	generate	Run1	generate/STIM_011.jpg	100
280.239	2.623	2623.2	generate	Run1	generate/STIM_011.jpg	99
286.401	1.866	1865.6	generate	Run1	generate/STIM_011.jpg	100
290.721	2.292	2292.1	generate	Run1	generate/STIM_011.jpg	100
294.849	3.082	3081.5	generate	Run1	generate/STIM_012.jpg	99
300.555	1.417	1416.7	generate	Run1	generate/STIM_012.jpg	99
304.409	2.152	2151.9	generate	Run1	generate/STIM_012.jpg	100
308.884	1.833	1832.7	generate	Run1	generate/STIM_012.jpg	99
314.378	1.497	1497.1	generate	Run1	generate/STIM_012.jpg	99
318.253	2.685	2685.0	generate	Run1	generate/STIM_013.jpg	100
323.038	1.527	1527.2	generate	Run1	generate/STIM_013.jpg	100
327.601	2.74	2739.6	generate	Run1	generate/STIM_013.jpg	100
333.438	2.801	2800.6	generate	Run1	generate/STIM_013.jpg	99
338.251	1.86	1860.1	generate	Run1	generate/STIM_013.jpg	100
343.643	1.425	1425.0	generate	Run1	generate/STIM_014.jpg	100
348.55	1.398	1397.9	generate	Run1	generate/STIM_014.jpg	99
352.117	1.871	1870.8	generate	Run1	generate/STIM_014.jpg	100
356.391	1.668	1668.0	generate	Run1	generate/STIM_014.jpg	100
360.645	1.43	1430.0	generate	Run1	generate/STIM_014.jpg	100
363.938	1.908	1908.5	generate	Run1	generate/STIM_015.jpg	99
368.139	2.776	2775.8	generate	Run1	generate/STIM_015.jpg	99
374.051	1.929	1929.3	generate	Run1	generate/STIM_015.jpg	100
378.169	2.059	2059.2	generate	Run1	generate/STIM_015.jpg	100
381.988	1.487	1486.6	generate	Run1	generate/STIM_015.jpg	99
387.334	1.683	1683.2	generate	Run1	generate/STIM_016.jpg	100
390.831	2.566	2566.4	generate	Run1	generate/STIM_016.jpg	100
395.921	1.499	1499.3	generate	Run1	generate/STIM_016.jpg	100
400.374	2.445	2444.8	generate	Run1	generate/STIM_016.jpg	99
405.085	1.848	1847.9	generate	Run1	generate/STIM_016.jpg	100
409.681	2.267	2267.4	generate	Run1	generate/STIM_017.jpg	99
415.451	2.247	2246.9	generate	Run1	generate/STIM_017.jpg	99
419.549	2.594	2594.2	generate	Run1	generate/STIM_017.jpg	99
424.34	1.975	1975.1	generate	Run1	generate/STIM_017.jpg	99
429.632	1.465	1465.0	generate	Run1	generate/STIM_017.jpg	99
434.678	2.777	2776.8	generate	Run1	generate/STIM_018.jpg	100
440.679	2.784	2784.0	generate	Run1	generate/STIM_018.jpg	100
446.7	1.542	1541.8	generate	Run1	generate/STIM_018.jpg	100
450.297	1.218	1218.5	generate	Run1	generate/STIM_018.jpg	100
454.49	1.583	1583.3	generate	Run1	generate/STIM_018.jpg	99
458.059	3.149	3149.0	generate	Run1	generate/STIM_019.jpg	99
464.559	1.655	1655.4	generate	Run1	generate/STIM_019.jpg	100
468.417	1.972	1972.5	generate	Run1	generate/STIM_019.jpg	100
473.518	1.885	1885.0	generate	Run1	generate/STIM_019.jpg	100
477.612	2.632	2632.2	generate	Run1	generate/STIM_019.jpg	99
482.324	2.858	2858.0	generate	Run1	generate/STIM_020.jpg	99
487.502	1.496	1496.1	generate	Run1	generate/STIM_020.jpg	99
491.55	2.866	2866.2	generate	Run1	generate/STIM_020.jpg	99
497.24	2.51	2510.0	generate	Run1	generate/STIM_020.jpg	100
502.734	2.759	2758.7	generate	Run1	generate/STIM_020.jpg	99
508.236	2.858	2858.2	generate	Run1	generate/STIM_021.jpg	100
514.093	3.202	3202.4	generate	Run1	generate/STIM_021.jpg	100
519.828	2.17	2170.0	generate	Run1	generate/STIM_021.jpg	100
524.618	1.807	1807.0	generate	Run1	generate/STIM_021.jpg	99
528.665	2.608	2608.4	generate	Run1	generate/STIM_021.jpg	99
534.369	2.31	2309.8	generate	Run1	generate/STIM_022.jpg	99
539.409	1.668	1668.5	generate	Run1	generate/STIM_022.jpg	99
544.273	2.195	2194.7	generate	Run1	generate/STIM_022.jpg	99
549.025	1.332	1331.7	generate	Run1	generate/STIM_022.jpg	99
553.073	2.414	2414.0	generate	Run1	generate/STIM_022.jpg	99
557.83	2.305	2304.7	generate	Run1	generate/STIM_023.jpg	100
563.201	2.457	2456.7	generate	Run1	generate/STIM_023.jpg	99
569.228	1.67	1670.2	generate	Run1	generate/STIM_023.jpg	100
574.1	1.512	1511.6	generate	Run1	generate/STIM_023.jpg	99
579.058	2.254	2253.9	generate	Run1	generate/STIM_023.jpg	99
583.622	2.281	2281.2	generate	Run1	generate/STIM_024.jpg	100
588.04	1.848	1847.5	generate	Run1	generate/STIM_024.jpg	99
592.779	2.023	2023.0	generate	Run1	generate/STIM_024.jpg	99
597.696	1.948	1948.5	generate	Run1	generate/STIM_024.jpg	100
601.886	1.891	1891.0	generate	Run1	generate/STIM_024.jpg	99
606.731	0.774	773.8	repeat	Run1	repeat/STIM_000.jpg	99
610.267	0.96	960.3	repeat	Run1	repeat/STIM_000.jpg	100
614.217	0.661	661.4	repeat	Run1	repeat/STIM_000.jpg	99
617.374	0.709	708.9	repeat	Run1	repeat/STIM_000.jpg	99
621.831	1.036	1036.1	repeat	Run1	repeat/STIM_000.jpg	100
625.555	1.088	1088.2	repeat	Run1	repeat/STIM_001.jpg	100
630.21	0.798	797.6	repeat	Run1	repeat/STIM_001.jpg	100
634.607	0.901	900.8	repeat	Run1	repeat/STIM_001.jpg	100
638.114	1.057	1056.7	repeat	Run1	repeat/STIM_001.jpg	100
642.616	0.706	706.1	repeat	Run1	repeat/STIM_001.jpg	100
646.864	0.922	921.5	repeat	Run1	repeat/STIM_002.jpg	100
650.994	0.599	599.1	repeat	Run1	repeat/STIM_002.jpg	100
655.367	0.702	701.5	repeat	Run1	repeat/STIM_002.jpg	99
659.605	0.996	996.5	repeat	Run1	repeat/STIM_002.jpg	99
662.787	0.838	837.7	repeat	Run1	repeat/STIM_002.jpg	100
667.319	0.806	805.7	repeat	Run1	repeat/STIM_003.jpg	99
671.599	0.729	729.0	repeat	Run1	repeat/STIM_003.jpg	100
675.643	0.801	800.8	repeat	Run1	repeat/STIM_003.jpg	100
679.441	0.924	924.3	repeat	Run1	repeat/STIM_003.jpg	99
682.433	1.03	1029.6	repeat	Run1	repeat/STIM_003.jpg	100
686.054	0.694	694.2	repeat	Run1	repeat/STIM_004.jpg	100
689.515	0.712	711.9	repeat	Run1	repeat/STIM_004.jpg	99
693.003	0.862	862.3	repeat	Run1	repeat/STIM_004.jpg	99
696.937	0.804	803.7	repeat	Run1	repeat/STIM_004.jpg	100
700.802	0.749	749.1	repeat	Run1	repeat/STIM_004.jpg	100
705.397	0.834	834.2	repeat	Run1	repeat/STIM_005.jpg	99
709.88	0.568	568.3	repeat	Run1	repeat/STIM_005.jpg	99
714.405	0.95	949.5	repeat	Run1	repeat/STIM_005.jpg	100
717.831	0.853	852.8	repeat	Run1	repeat/STIM_005.jpg	99
720.644	0.603	603.2	repeat	Run1	repeat/STIM_005.jpg	99
724.685	0.877	877.4	repeat	Run1	repeat/STIM_006.jpg	100
727.918	0.975	974.7	repeat	Run1	repeat/STIM_006.jpg	99
731.167	0.821	820.9	repeat	Run1	repeat/STIM_006.jpg	99
735.854	0.775	774.7	repeat	Run1	repeat/STIM_006.jpg	99
740.552	1.084	1084.0	repeat	Run1	repeat/STIM_006.jpg	100
744.182	0.555	555.2	repeat	Run1	repeat/STIM_007.jpg	99
747.738	1.094	1093.5	repeat	Run1	repeat/STIM_007.jpg	100
751.067	0.609	608.9	repeat	Run1	repeat/STIM_007.jpg	99
755.112	1.032	1032.4	repeat	Run1	repeat/STIM_007.jpg	100
758.67	0.909	909.0	repeat	Run1	repeat/STIM_007.jpg	99
763.29	0.761	761.4	repeat	Run1	repeat/STIM_008.jpg	99
767.465	0.79	790.0	repeat	Run1	repeat/STIM_008.jpg	100
771.1	1.102	1102.2	repeat	Run1	repeat/STIM_008.jpg	99
774.726	0.621	620.9	repeat	Run1	repeat/STIM_008.jpg	99
778.78	0.812	812.1	repeat	Run1	repeat/STIM_008.jpg	99
782.465	1.074	1073.9	repeat	Run1	repeat/STIM_009.jpg	100
786.886	1.088	1088.4	repeat	Run1	repeat/STIM_009.jpg	99
791.479	0.676	676.0	repeat	Run1	repeat/STIM_009.jpg	100
794.243	0.703	703.0	repeat	Run1	repeat/STIM_009.jpg	100
797.319	1.13	1129.6	repeat	Run1	repeat/STIM_009.jpg	100
801.256	0.834	834.0	repeat	Run1	repeat/STIM_010.jpg	100
805.137	0.826	826.4	repeat	Run1	repeat/STIM_010.jpg	100
808.69	0.695	695.1	repeat	Run1	repeat/STIM_010.jpg	99
812.924	1.097	1097.4	repeat	Run1	repeat/STIM_010.jpg	99
816.018	0.798	797.6	repeat	Run1	repeat/STIM_010.jpg	100
818.842	0.513	512.7	repeat	Run1	repeat/STIM_011.jpg	100
821.596	0.794	794.3	repeat	Run1	repeat/STIM_011.jpg	99
825.562	0.928	928.4	repeat	Run1	repeat/STIM_011.jpg	100
829.209	1.078	1078.3	repeat	Run1	repeat/STIM_011.jpg	99
833.693	0.855	855.0	repeat	Run1	repeat/STIM_011.jpg	100
837.428	0.696	696.0	repeat	Run1	repeat/STIM_012.jpg	99
841.528	1.046	1045.5	repeat	Run1	repeat/STIM_012.jpg	99
845.994	0.578	578.1	repeat	Run1	repeat/STIM_012.jpg	100
850.179	0.592	591.7	repeat	Run1	repeat/STIM_012.jpg	99
853.311	1.168	1167.8	repeat	Run1	repeat/STIM_012.jpg	100
858.028	0.554	554.4	repeat	Run1	repeat/STIM_013.jpg	99
861.736	0.961	961.1	repeat	Run1	repeat/STIM_013.jpg	100
865.962	1.063	1062.7	repeat	Run1	repeat/STIM_013.jpg	100
869.278	0.916	916.3	repeat	Run1	repeat/STIM_013.jpg	99
873.218	0.592	592.1	repeat	Run1	repeat/STIM_013.jpg	99
876.23	0.766	766.1	repeat	Run1	repeat/STIM_014.jpg	99
880.517	0.497	497.4	repeat	Run1	repeat/STIM_014.jpg	99
883.978	0.873	873.1	repeat	Run1	repeat/STIM_014.jpg	99
888.28	0.855	855.1	repeat	Run1	repeat/STIM_014.jpg	100
891.542	1.063	1063.0	repeat	Run1	repeat/STIM_014.jpg	99
894.903	1.971	1971.3	generate	Run2	generate/STIM_000.jpg	99
898.929	2.636	2636.5	generate	Run2	generate/STIM_000.jpg	100
903.348	2.32	2319.9	generate	Run2	generate/STIM_000.jpg	99
908.516	1.17	1169.5	generate	Run2	generate/STIM_000.jpg	100
912.038	2.237	2236.9	generate	Run2	generate/STIM_000.jpg	99
916.652	2.797	2797.1	generate	Run2	generate/STIM_001.jpg	100
923.123	2.466	2466.2	generate	Run2	generate/STIM_001.jpg	100
927.349	2.275	2275.3	generate	Run2	generate/STIM_001.jpg	100
932.044	1.592	1591.5	generate	Run2	generate/STIM_001.jpg	100
936.707	1.89	1889.9	generate	Run2	generate/STIM_001.jpg	100
940.767	2.929	2928.9	generate	Run2	generate/STIM_002.jpg	100
946.304	1.906	1905.7	generate	Run2	generate/STIM_002.jpg	100
951.036	2.539	2539.4	generate	Run2	generate/STIM_002.jpg	99
956.694	1.728	1728.2	generate	Run2	generate/STIM_002.jpg	99
960.242	1.265	1265.1	generate	Run2	generate/STIM_002.jpg	100
964.869	1.312	1312.0	generate	Run2	generate/STIM_003.jpg	100
968.663	2.67	2669.8	generate	Run2	generate/STIM_003.jpg	100
973.175	1.844	1844.1	generate	Run2	generate/STIM_003.jpg	100
977.771	1.075	1074.6	generate	Run2	generate/STIM_003.jpg	99
981.654	2.185	2185.4	generate	Run2	generate/STIM_003.jpg	100
986.441	1.379	1379.2	generate	Run2	generate/STIM_004.jpg	100
990.185	2.666	2666.4	generate	Run2	generate/STIM_004.jpg	99
995.061	1.32	1319.8	generate	Run2	generate/STIM_004.jpg	100
999.572	0.965	965.1	generate	Run2	generate/STIM_004.jpg	100
1004.018	1.049	1049.2	generate	Run2	generate/STIM_004.jpg	100
1008.307	2.222	2222.1	generate	Run2	generate/STIM_005.jpg	100
1012.52	2.613	2613.1	generate	Run2	generate/STIM_005.jpg	99
1018.556	2.024	2024.3	generate	Run2	generate/STIM_005.jpg	99
1022.613	1.463	1463.1	generate	Run2	generate/STIM_005.jpg	99
1026.008	1.513	1513.0	generate	Run2	generate/STIM_005.jpg	99
1031.258	1.893	1893.4	generate	Run2	generate/STIM_006.jpg	100
1035.995	1.31	1309.9	generate	Run2	generate/STIM_006.jpg	99
1039.409	1.537	1537.1	generate	Run2	generate/STIM_006.jpg	100
1042.84	2.07	2070.4	generate	Run2	generate/STIM_006.jpg	99
1046.876	1.751	1751.4	generate	Run2	generate/STIM_006.jpg	100
1050.652	1.808	1807.6	generate	Run2	generate/STIM_007.jpg	100
1056.246	1.854	1853.9	generate	Run2	generate/STIM_007.jpg	100
1060.382	2.539	2539.2	generate	Run2	generate/STIM_007.jpg	99
1065.848	1.117	1117.0	generate	Run2	generate/STIM_007.jpg	100
1068.849	1.313	1312.9	generate	Run2	generate/STIM_007.jpg	99
1072.997	2.141	2140.6	generate	Run2	generate/STIM_008.jpg	99
1078.724	2.495	2495.1	generate	Run2	generate/STIM_008.jpg	99
1083.629	1.472	1471.5	generate	Run2	generate/STIM_008.jpg	99
1088.568	1.026	1026.0	generate	Run2	generate/STIM_008.jpg	100
1091.974	2.077	2077.2	generate	Run2	generate/STIM_008.jpg	100
1097.344	1.344	1343.5	generate	Run2	generate/STIM_009.jpg	99
1101.463	2.12	2120.4	generate	Run2	generate/STIM_009.jpg	100
1106.849	1.679	1678.9	generate	Run2	generate/STIM_009.jpg	100
1110.927	2.398	2398.2	generate	Run2	generate/STIM_009.jpg	100
1115.455	1.866	1865.6	generate	Run2	generate/STIM_009.jpg	99
1119.208	2.752	2752.1	generate	Run2	generate/STIM_010.jpg	99
1123.772	1.505	1504.9	generate	Run2	generate/STIM_010.jpg	99
1128.267	2.49	2490.1	generate	Run2	generate/STIM_010.jpg	100
1133.647	2.329	2328.9	generate	Run2	generate/STIM_010.jpg	100
1138.758	1.554	1554.4	generate	Run2	generate/STIM_010.jpg	100
1143.453	1.821	1821.4	generate	Run2	generate/STIM_011.jpg	99
1147.182	2.1	2100.0	generate	Run2	generate/STIM_011.jpg	99
1151.84	1.714	1713.6	generate	Run2	generate/STIM_011.jpg	100
1156.768	2.068	2068.1	generate	Run2	generate/STIM_011.jpg	99
1161.53	1.499	1499.3	generate	Run2	generate/STIM_011.jpg	99
1166.591	1.209	1208.9	generate	Run2	generate/STIM_012.jpg	100
1170.289	1.539	1539.2	generate	Run2	generate/STIM_012.jpg	100
1175.016	1.241	1241.1	generate	Run2	generate/STIM_012.jpg	99
1179.639	2.049	2049.3	generate	Run2	generate/STIM_012.jpg	99
1184.331	1.172	1171.9	generate	Run2	generate/STIM_012.jpg	100
1189.105	2.207	2206.6	generate	Run2	generate/STIM_013.jpg	99
1194.13	1.198	1198.3	generate	Run2	generate/STIM_013.jpg	99
1197.449	1.065	1065.3	generate	Run2	generate/STIM_013.jpg	99
1202.068	1.757	1756.7	generate	Run2	generate/STIM_013.jpg	99
1206.031	1.04	1039.7	generate	Run2	generate/STIM_013.jpg	100
1210.141	1.202	1202.3	generate	Run2	generate/STIM_014.jpg	100
1214.121	1.969	1968.8	generate	Run2	generate/STIM_014.jpg	100
1218.734	1.199	1199.1	generate	Run2	generate/STIM_014.jpg	100
1221.944	1.085	1084.6	generate	Run2	generate/STIM_014.jpg	100
1225.982	0.986	986.3	generate	Run2	generate/STIM_014.jpg	99
1230.591	2.718	2718.2	generate	Run2	generate/STIM_015.jpg	99
1236.74	1.624	1624.2	generate	Run2	generate/STIM_015.jpg	99
1242.014	1.462	1461.6	generate	Run2	generate/STIM_015.jpg	99
1245.682	2.221	2220.7	generate	Run2	generate/STIM_015.jpg	100
1249.671	1.857	1857.4	generate	Run2	generate/STIM_015.jpg	100
1253.719	1.146	1145.7	generate	Run2	generate/STIM_016.jpg	100
1256.975	2.391	2391.2	generate	Run2	generate/STIM_016.jpg	100
1262.147	1.942	1942.4	generate	Run2	generate/STIM_016.jpg	100
1266.714	1.709	1709.0	generate	Run2	generate/STIM_016.jpg	99
1270.753	1.136	1135.8	generate	Run2	generate/STIM_016.jpg	99
1275.479	2.368	2367.8	generate	Run2	generate/STIM_017.jpg	99
1279.846	2.742	2742.5	generate	Run2	generate/STIM_017.jpg	99
1285.167	2.094	2094.3	generate	Run2	generate/STIM_017.jpg	99
1290.492	1.994	1993.8	generate	Run2	generate/STIM_017.jpg	99
1294.587	1.134	1134.3	generate	Run2	generate/STIM_017.jpg	100
1297.936	2.663	2663.2	generate	Run2	generate/STIM_018.jpg	99
1303.491	2.158	2158.4	generate	Run2	generate/STIM_018.jpg	99
1308.694	1.931	1930.9	generate	Run2	generate/STIM_018.jpg	100
1312.774	1.438	1437.8	generate	Run2	generate/STIM_018.jpg	100
1317.984	1.608	1608.5	generate	Run2	generate/STIM_018.jpg	100
1322.457	1.99	1989.9	generate	Run2	generate/STIM_019.jpg	100
1326.401	2.486	2486.1	generate	Run2	generate/STIM_019.jpg	100
1330.808	2.095	2095.0	generate	Run2	generate/STIM_019.jpg	99
1335.184	2.269	2269.3	generate	Run2	generate/STIM_019.jpg	99
1340.545	2.25	2250.3	generate	Run2	generate/STIM_019.jpg	100
1346.43	1.394	1394.2	generate	Run2	generate/STIM_020.jpg	100
1350.924	2.211	2211.4	generate	Run2	generate/STIM_020.jpg	100
1354.953	1.132	1131.6	generate	Run2	generate/STIM_020.jpg	99
1359.036	1.228	1228.5	generate	Run2	generate/STIM_020.jpg	99
1362.364	1.174	1173.9	generate	Run2	generate/STIM_020.jpg	100
1366.982	1.493	1492.7	generate	Run2	generate/STIM_021.jpg	100
1370.379	1.592	1592.3	generate	Run2	generate/STIM_021.jpg	100
1375.058	1.599	1599.1	generate	Run2	generate/STIM_021.jpg	100
1379.598	1.467	1467.3	generate	Run2	generate/STIM_021.jpg	100
1384.765	1.538	1537.9	generate	Run2	generate/STIM_021.jpg	100
1388.532	1.656	1655.9	generate	Run2	generate/STIM_022.jpg	100
1392.857	2.391	2391.4	generate	Run2	generate/STIM_022.jpg	99
1398.329	1.655	1655.0	generate	Run2	generate/STIM_022.jpg	99
1402.011	1.58	1579.7	generate	Run2	generate/STIM_022.jpg	99
1406.903	1.208	1208.2	generate	Run2	generate/STIM_022.jpg	99
1410.312	1.767	1767.2	generate	Run2	generate/STIM_023.jpg	100
1414.537	1.455	1454.9	generate	Run2	generate/STIM_023.jpg	100
1419.282	1.03	1030.2	generate	Run2	generate/STIM_023.jpg	100
1422.611	1.772	1771.6	generate	Run2	generate/STIM_023.jpg	99
1426.814	2.073	2072.6	generate	Run2	generate/STIM_023.jpg	99
1430.876	2.703	2702.6	generate	Run2	generate/STIM_024.jpg	100
1437.119	1.94	1940.5	generate	Run2	generate/STIM_024.jpg	99
1440.871	1.12	1120.0	generate	Run2	generate/STIM_024.jpg	99
1445.27	1.199	1198.9	generate	Run2	generate/STIM_024.jpg	100
1449.304	0.997	996.8	generate	Run2	generate/STIM_024.jpg	100
1453.869	0.836	836.2	repeat	Run2	repeat/STIM_000.jpg	100
1456.962	0.824	824.1	repeat	Run2	repeat/STIM_000.jpg	99
1459.955	0.757	757.4	repeat	Run2	repeat/STIM_000.jpg	100
1462.973	0.776	775.9	repeat	Run2	repeat/STIM_000.jpg	100
1466.601	0.704	703.7	repeat	Run2	repeat/STIM_000.jpg	100
1469.903	0.914	914.3	repeat	Run2	repeat/STIM_001.jpg	99
1472.829	0.96	960.0	repeat	Run2	repeat/STIM_001.jpg	99
1476.282	1.123	1122.9	repeat	Run2	repeat/STIM_001.jpg	100
1479.353	0.9	899.9	repeat	Run2	repeat/STIM_001.jpg	99
1483.729	0.626	626.1	repeat	Run2	repeat/STIM_001.jpg	99
1487.006	0.511	510.6	repeat	Run2	repeat/STIM_002.jpg	100
1489.812	0.5	500.4	repeat	Run2	repeat/STIM_002.jpg	100
1492.956	0.84	839.9	repeat	Run2	repeat/STIM_002.jpg	100
1497.534	0.929	929.1	repeat	Run2	repeat/STIM_002.jpg	100
1500.916	1.083	1082.6	repeat	Run2	repeat/STIM_002.jpg	99
1505.72	0.651	651.0	repeat	Run2	repeat/STIM_003.jpg	99
1508.409	1.047	1047.3	repeat	Run2	repeat/STIM_003.jpg	99
1512.487	0.659	658.8	repeat	Run2	repeat/STIM_003.jpg	99
1515.301	0.888	888.3	repeat	Run2	repeat/STIM_003.jpg	99
1518.371	1.156	1156.2	repeat	Run2	repeat/STIM_003.jpg	100
1522.121	0.897	897.4	repeat	Run2	repeat/STIM_004.jpg	100
1526.415	1.166	1165.9	repeat	Run2	repeat/STIM_004.jpg	100
1530.73	0.889	889.2	repeat	Run2	repeat/STIM_004.jpg	99
1535.054	0.967	967.2	repeat	Run2	repeat/STIM_004.jpg	99
1539.275	1.045	1045.0	repeat	Run2	repeat/STIM_004.jpg	99
1542.487	0.777	776.7	repeat	Run2	repeat/STIM_005.jpg	99
1546.779	0.535	535.4	repeat	Run2	repeat/STIM_005.jpg	100
1550.416	0.77	770.5	repeat	Run2	repeat/STIM_005.jpg	99
1554.834	0.657	656.6	repeat	Run2	repeat/STIM_005.jpg	99
1559.095	0.914	914.5	repeat	Run2	repeat/STIM_005.jpg	99
1562.797	0.973	972.9	repeat	Run2	repeat/STIM_006.jpg	100
1567.111	1.038	1037.5	repeat	Run2	repeat/STIM_006.jpg	100
1570.746	0.537	537.3	repeat	Run2	repeat/STIM_006.jpg	100
1574.235	1.082	1082.1	repeat	Run2	repeat/STIM_006.jpg	100
1577.774	0.766	766.1	repeat	Run2	repeat/STIM_006.jpg	100
1581.639	0.713	713.2	repeat	Run2	repeat/STIM_007.jpg	100
1586.199	0.939	939.3	repeat	Run2	repeat/STIM_007.jpg	100
1590.437	0.873	873.2	repeat	Run2	repeat/STIM_007.jpg	100
1595.107	0.655	654.9	repeat	Run2	repeat/STIM_007.jpg	99
1599.27	0.884	884.2	repeat	Run2	repeat/STIM_007.jpg	100
1603.446	0.98	979.6	repeat	Run2	repeat/STIM_008.jpg	99
1607.135	1.124	1124.2	repeat	Run2	repeat/STIM_008.jpg	100
1611.086	0.622	621.5	repeat	Run2	repeat/STIM_008.jpg	99
1614.129	0.728	728.0	repeat	Run2	repeat/STIM_008.jpg	100
1618.558	0.769	769.0	repeat	Run2	repeat/STIM_008.jpg	99
1621.407	0.677	677.4	repeat	Run2	repeat/STIM_009.jpg	100
1624.909	1.073	1073.1	repeat	Run2	repeat/STIM_009.jpg	100
1628.595	1.072	1072.3	repeat	Run2	repeat/STIM_009.jpg	100
1633.315	0.666	666.1	repeat	Run2	repeat/STIM_009.jpg	99
1635.892	1.033	1032.6	repeat	Run2	repeat/STIM_009.jpg	99
1639.987	0.738	738.4	repeat	Run2	repeat/STIM_010.jpg	100
1643.544	0.657	657.1	repeat	Run2	repeat/STIM_010.jpg	100
1647.45	0.968	968.1	repeat	Run2	repeat/STIM_010.jpg	99
1651.029	0.947	946.6	repeat	Run2	repeat/STIM_010.jpg	99
1654.687	0.664	663.6	repeat	Run2	repeat/STIM_010.jpg	100
1659.041	0.977	977.2	repeat	Run2	repeat/STIM_011.jpg	99
1663.267	0.902	901.8	repeat	Run2	repeat/STIM_011.jpg	100
1667.471	0.936	936.3	repeat	Run2	repeat/STIM_011.jpg	99
1670.945	1.044	1043.7	repeat	Run2	repeat/STIM_011.jpg	99
1675.825	1.097	1096.7	repeat	Run2	repeat/STIM_011.jpg	100
1680.079	1.026	1026.5	repeat	Run2	repeat/STIM_012.jpg	100
1684.173	0.675	674.9	repeat	Run2	repeat/STIM_012.jpg	99
1688.253	0.918	918.5	repeat	Run2	repeat/STIM_012.jpg	100
1691.844	0.653	653.4	repeat	Run2	repeat/STIM_012.jpg	99
1694.987	0.881	881.3	repeat	Run2	repeat/STIM_012.jpg	100
1697.834	0.791	790.8	repeat	Run2	repeat/STIM_013.jpg	100
1701.294	0.833	833.1	repeat	Run2	repeat/STIM_013.jpg	100
1704.24	0.66	660.2	repeat	Run2	repeat/STIM_013.jpg	100
1708.267	0.702	702.0	repeat	Run2	repeat/STIM_013.jpg	99
1711.794	1.092	1091.7	repeat	Run2	repeat/STIM_013.jpg	99
1716.714	1.064	1063.5	repeat	Run2	repeat/STIM_014.jpg	100
1719.948	0.932	932.3	repeat	Run2	repeat/STIM_014.jpg	100
1723.77	0.99	990.4	repeat	Run2	repeat/STIM_014.jpg	100
1728.553	0.875	875.1	repeat	Run2	repeat/STIM_014.jpg	99
1732.768	1.038	1038.3	repeat	Run2	repeat/STIM_014.jpg	100
1736.162	1.343	1343.0	generate	Run3	generate/STIM_000.jpg	100
1740.461	1.727	1726.7	generate	Run3	generate/STIM_000.jpg	99
1744.849	1.378	1377.9	generate	Run3	generate/STIM_000.jpg	99
1748.634	1.915	1914.6	generate	Run3	generate/STIM_000.jpg	100
1752.682	1.049	1048.6	generate	Run3	generate/STIM_000.jpg	99
1755.794	1.53	1530.1	generate	Run3	generate/STIM_001.jpg	99
1760.693	2.351	2350.6	generate	Run3	generate/STIM_001.jpg	99
1766.159	1.305	1305.3	generate	Run3	generate/STIM_001.jpg	99
1769.49	1.115	1114.6	generate	Run3	generate/STIM_001.jpg	99
1773.518	2.17	2170.2	generate	Run3	generate/STIM_001.jpg	99
1777.63	1.694	1694.0	generate	Run3	generate/STIM_002.jpg	100
1781.821	2.097	2097.3	generate	Run3	generate/STIM_002.jpg	99
1786.821	2.011	2011.1	generate	Run3	generate/STIM_002.jpg	100
1791.612	1.146	1145.6	generate	Run3	generate/STIM_002.jpg	100
1794.75	1.664	1664.0	generate	Run3	generate/STIM_002.jpg	100
1798.678	1.404	1403.7	generate	Run3	generate/STIM_003.jpg	100
1802.429	1.119	1118.9	generate	Run3	generate/STIM_003.jpg	100
1807.339	2.3	2300.5	generate	Run3	generate/STIM_003.jpg	100
1812.713	2.288	2287.9	generate	Run3	generate/STIM_003.jpg	99
1817.962	1.398	1398.4	generate	Run3	generate/STIM_003.jpg	99
1822.784	1.868	1867.9	generate	Run3	generate/STIM_004.jpg	100
1826.746	1.051	1051.0	generate	Run3	generate/STIM_004.jpg	99
1830.886	1.724	1724.5	generate	Run3	generate/STIM_004.jpg	100
1835.107	0.992	992.2	generate	Run3	generate/STIM_004.jpg	100
1838.991	2.334	2334.5	generate	Run3	generate/STIM_004.jpg	99
1843.908	1.264	1264.2	generate	Run3	generate/STIM_005.jpg	99
1848.273	1.32	1319.9	generate	Run3	generate/STIM_005.jpg	99
1852.052	1.526	1525.6	generate	Run3	generate/STIM_005.jpg	99
1856.287	1.454	1453.5	generate	Run3	generate/STIM_005.jpg	99
1859.72	1.363	1363.0	generate	Run3	generate/STIM_005.jpg	100
1863.286	2.286	2285.6	generate	Run3	generate/STIM_006.jpg	100
1867.603	0.956	956.5	generate	Run3	generate/STIM_006.jpg	99
1871.148	1.871	1870.8	generate	Run3	generate/STIM_006.jpg	99
1876.5	2.216	2216.0	generate	Run3	generate/STIM_006.jpg	100
1882.035	1.927	1927.4	generate	Run3	generate/STIM_006.jpg	100
1886.811	1.772	1772.2	generate	Run3	generate/STIM_007.jpg	99
1890.583	1.12	1120.4	generate	Run3	generate/STIM_007.jpg	99
1894.676	1.754	1754.4	generate	Run3	generate/STIM_007.jpg	99
1899.775	1.426	1425.8	generate	Run3	generate/STIM_007.jpg	100
1903.666	1.556	1556.4	generate	Run3	generate/STIM_007.jpg	99
1907.922	1.443	1443.2	generate	Run3	generate/STIM_008.jpg	100
1912.58	2.252	2252.2	generate	Run3	generate/STIM_008.jpg	100
1917.649	1.966	1966.4	generate	Run3	generate/STIM_008.jpg	100
1922.92	1.716	1716.4	generate	Run3	generate/STIM_008.jpg	99
1926.596	2.284	2284.0	generate	Run3	generate/STIM_008.jpg	99
1930.654	1.217	1217.3	generate	Run3	generate/STIM_009.jpg	100
1935.177	1.238	1237.6	generate	Run3	generate/STIM_009.jpg	99
1939.559	1.897	1896.6	generate	Run3	generate/STIM_009.jpg	99
1943.656	1.916	1916.5	generate	Run3	generate/STIM_009.jpg	100
1948.967	1.996	1995.9	generate	Run3	generate/STIM_009.jpg	99
1953.869	2.299	2298.8	generate	Run3	generate/STIM_010.jpg	99
1958.979	2.03	2029.7	generate	Run3	generate/STIM_010.jpg	100
1964.564	1.059	1058.7	generate	Run3	generate/STIM_010.jpg	100
1967.861	1.861	1861.3	generate	Run3	generate/STIM_010.jpg	100
1973.267	1.858	1858.1	generate	Run3	generate/STIM_010.jpg	99
1977.598	1.075	1075.1	generate	Run3	generate/STIM_011.jpg	100
1980.746	1.224	1223.5	generate	Run3	generate/STIM_011.jpg	99
1984.023	2.194	2194.3	generate	Run3	generate/STIM_011.jpg	100
1988.51	1.014	1013.9	generate	Run3	generate/STIM_011.jpg	99
1991.463	2.384	2384.3	generate	Run3	generate/STIM_011.jpg	100
1996.705	1.167	1167.3	generate	Run3	generate/STIM_012.jpg	99
2000.141	1.885	1885.1	generate	Run3	generate/STIM_012.jpg	100
2004.134	1.415	1414.8	generate	Run3	generate/STIM_012.jpg	99
2008.751	1.241	1241.4	generate	Run3	generate/STIM_012.jpg	99
2013.155	1.167	1167.1	generate	Run3	generate/STIM_012.jpg	99
2016.278	1.931	1930.6	generate	Run3	generate/STIM_013.jpg	99
2020.202	1.353	1352.9	generate	Run3	generate/STIM_013.jpg	99
2023.825	2.042	2042.3	generate	Run3	generate/STIM_013.jpg	100
2028.921	2.056	2055.7	generate	Run3	generate/STIM_013.jpg	100
2032.945	2.287	2287.1	generate	Run3	generate/STIM_013.jpg	99
2038.516	1.015	1014.6	generate	Run3	generate/STIM_014.jpg	100
2043.382	1.035	1035.0	generate	Run3	generate/STIM_014.jpg	99
2046.883	1.184	1183.7	generate	Run3	generate/STIM_014.jpg	99
2050.364	1.902	1901.7	generate	Run3	generate/STIM_014.jpg	99
2054.369	2.104	2103.8	generate	Run3	generate/STIM_014.jpg	99
2060.115	1.858	1857.6	generate	Run3	generate/STIM_015.jpg	99
2063.98	1.66	1660.1	generate	Run3	generate/STIM_015.jpg	99
2069.076	2.382	2381.6	generate	Run3	generate/STIM_015.jpg	99
2074.876	2.324	2324.4	generate	Run3	generate/STIM_015.jpg	100
2080.179	2.322	2322.4	generate	Run3	generate/STIM_015.jpg	99
2084.63	1.67	1670.3	generate	Run3	generate/STIM_016.jpg	100
2088.564	1.804	1804.3	generate	Run3	generate/STIM_016.jpg	99
2094.021	2.182	2181.9	generate	Run3	generate/STIM_016.jpg	99
2099.433	2.257	2257.1	generate	Run3	generate/STIM_016.jpg	100
2105.123	1.797	1796.7	generate	Run3	generate/STIM_016.jpg	99
2110.296	1.692	1691.9	generate	Run3	generate/STIM_017.jpg	99
2115.336	1.412	1411.9	generate	Run3	generate/STIM_017.jpg	100
2119.184	2.123	2123.4	generate	Run3	generate/STIM_017.jpg	100
2123.952	2.017	2016.6	generate	Run3	generate/STIM_017.jpg	100
2128.408	1.958	1957.7	generate	Run3	generate/STIM_017.jpg	100
2133.652	1.156	1155.6	generate	Run3	generate/STIM_018.jpg	99
2136.923	0.976	976.3	generate	Run3	generate/STIM_018.jpg	100
2141.02	2.284	2284.5	generate	Run3	generate/STIM_018.jpg	99
2145.178	1.637	1636.9	generate	Run3	generate/STIM_018.jpg	99
2149.309	1.911	1910.8	generate	Run3	generate/STIM_018.jpg	99
2153.474	2.304	2303.8	generate	Run3	generate/STIM_019.jpg	99
2158.22	1.601	1600.6	generate	Run3	generate/STIM_019.jpg	100
2163.62	1.926	1925.5	generate	Run3	generate/STIM_019.jpg	99
2168.258	2.295	2295.0	generate	Run3	generate/STIM_019.jpg	100
2172.498	1.456	1456.3	generate	Run3	generate/STIM_019.jpg	99
2177.123	2.186	2185.6	generate	Run3	generate/STIM_020.jpg	100
2181.724	1.472	1471.9	generate	Run3	generate/STIM_020.jpg	100
2186.921	1.198	1198.2	generate	Run3	generate/STIM_020.jpg	99
2191.841	2.07	2070.2	generate	Run3	generate/STIM_020.jpg	99
2196.248	1.169	1168.6	generate	Run3	generate/STIM_020.jpg	99
2200.831	1.184	1183.7	generate	Run3	generate/STIM_021.jpg	100
2204.798	1.992	1991.8	generate	Run3	generate/STIM_021.jpg	100
2210.301	1.539	1539.0	generate	Run3	generate/STIM_021.jpg	100
2213.911	2.36	2360.2	generate	Run3	generate/STIM_021.jpg	99
2219.095	2.469	2469.2	generate	Run3	generate/STIM_021.jpg	100
2223.866	1.375	1374.6	generate	Run3	generate/STIM_022.jpg	99
2228.246	1.468	1468.1	generate	Run3	generate/STIM_022.jpg	100
2232.273	0.974	974.1	generate	Run3	generate/STIM_022.jpg	99
2236.27	1.472	1471.8	generate	Run3	generate/STIM_022.jpg	100
2240.961	1.402	1401.5	generate	Run3	generate/STIM_022.jpg	99
2245.129	1.199	1199.2	generate	Run3	generate/STIM_023.jpg	100
2249.467	2.044	2043.6	generate	Run3	generate/STIM_023.jpg	100
2253.465	1.844	1843.6	generate	Run3	generate/STIM_023.jpg	100
2258.18	2.141	2141.4	generate	Run3	generate/STIM_023.jpg	100
2263.677	2.266	2265.5	generate	Run3	generate/STIM_023.jpg	99
2269.117	1.696	1696.5	generate	Run3	generate/STIM_024.jpg	100
2274.311	1.914	1913.8	generate	Run3	generate/STIM_024.jpg	99
2278.345	1.272	1272.3	generate	Run3	generate/STIM_024.jpg	100
2282.537	1.03	1030.2	generate	Run3	generate/STIM_024.jpg	100
2287.338	1.491	1491.3	generate	Run3	generate/STIM_024.jpg	99
2291.469	0.894	894.3	repeat	Run3	repeat/STIM_000.jpg	99
2295.995	0.921	920.8	repeat	Run3	repeat/STIM_000.jpg	100
2299.862	0.739	738.7	repeat	Run3	repeat/STIM_000.jpg	100
2303.678	0.823	823.2	repeat	Run3	repeat/STIM_000.jpg	99
2306.648	0.979	979.1	repeat	Run3	repeat/STIM_000.jpg	99
2309.563	1.105	1105.0	repeat	Run3	repeat/STIM_001.jpg	99
2314.454	1.101	1100.8	repeat	Run3	repeat/STIM_001.jpg	100
2318.981	0.566	566.4	repeat	Run3	repeat/STIM_001.jpg	99
2321.564	0.726	726.2	repeat	Run3	repeat/STIM_001.jpg	100
2325.151	0.626	625.7	repeat	Run3	repeat/STIM_001.jpg	99
2328.033	0.709	709.0	repeat	Run3	repeat/STIM_002.jpg	99
2331.61	0.774	774.2	repeat	Run3	repeat/STIM_002.jpg	99
2334.854	0.984	984.2	repeat	Run3	repeat/STIM_002.jpg	99
2339.407	1.081	1080.6	repeat	Run3	repeat/STIM_002.jpg	99
2343.658	0.938	938.0	repeat	Run3	repeat/STIM_002.jpg	100
2347.674	0.877	877.4	repeat	Run3	repeat/STIM_003.jpg	100
2351.623	0.8	800.1	repeat	Run3	repeat/STIM_003.jpg	100
2354.648	1.055	1054.9	repeat	Run3	repeat/STIM_003.jpg	99
2357.992	1.082	1081.9	repeat	Run3	repeat/STIM_003.jpg	100
2361.322	0.827	827.3	repeat	Run3	repeat/STIM_003.jpg	100
2364.852	0.988	988.2	repeat	Run3	repeat/STIM_004.jpg	100
2368.508	0.68	679.7	repeat	Run3	repeat/STIM_004.jpg	100
2372.886	0.551	551.3	repeat	Run3	repeat/STIM_004.jpg	99
2377.216	0.914	913.8	repeat	Run3	repeat/STIM_004.jpg	99
2380.373	0.802	802.1	repeat	Run3	repeat/STIM_004.jpg	100
2384.526	0.785	785.4	repeat	Run3	repeat/STIM_005.jpg	100
2387.394	1.016	1016.2	repeat	Run3	repeat/STIM_005.jpg	99
2390.419	0.629	629.2	repeat	Run3	repeat/STIM_005.jpg	99
2394.458	0.701	700.7	repeat	Run3	repeat/STIM_005.jpg	100
2398.068	0.904	903.8	repeat	Run3	repeat/STIM_005.jpg	100
2402.319	0.88	880.0	repeat	Run3	repeat/STIM_006.jpg	99
2405.11	0.616	616.2	repeat	Run3	repeat/STIM_006.jpg	100
2407.838	0.804	804.4	repeat	Run3	repeat/STIM_006.jpg	100
2411.062	1.146	1145.5	repeat	Run3	repeat/STIM_006.jpg	99
2414.536	1.103	1103.1	repeat	Run3	repeat/STIM_006.jpg	100
2418.467	0.966	966.2	repeat	Run3	repeat/STIM_007.jpg	100
2421.948	0.946	945.8	repeat	Run3	repeat/STIM_007.jpg	100
2425.57	0.973	973.4	repeat	Run3	repeat/STIM_007.jpg	100
2428.642	0.899	898.7	repeat	Run3	repeat/STIM_007.jpg	100
2431.663	0.89	889.8	repeat	Run3	repeat/STIM_007.jpg	100
2435.219	1.006	1006.4	repeat	Run3	repeat/STIM_008.jpg	100
2439.028	0.938	937.6	repeat	Run3	repeat/STIM_008.jpg	99
2443.151	0.725	724.6	repeat	Run3	repeat/STIM_008.jpg	99
2446.887	0.929	929.2	repeat	Run3	repeat/STIM_008.jpg	100
2450.552	0.624	624.5	repeat	Run3	repeat/STIM_008.jpg	99
2453.755	1.005	1004.8	repeat	Run3	repeat/STIM_009.jpg	100
2458.344	1.16	1160.2	repeat	Run3	repeat/STIM_009.jpg	100
2463.041	0.912	911.7	repeat	Run3	repeat/STIM_009.jpg	99
2465.969	0.685	685.3	repeat	Run3	repeat/STIM_009.jpg	100
2469.126	0.909	908.8	repeat	Run3	repeat/STIM_009.jpg	99
2473.224	0.832	832.1	repeat	Run3	repeat/STIM_010.jpg	99
2477.839	1.033	1033.3	repeat	Run3	repeat/STIM_010.jpg	100
2480.767	1.059	1058.6	repeat	Run3	repeat/STIM_010.jpg	99
2485.017	0.995	995.4	repeat	Run3	repeat/STIM_010.jpg	100
2488.341	0.78	779.7	repeat	Run3	repeat/STIM_010.jpg	100
2492.063	0.839	839.0	repeat	Run3	repeat/STIM_011.jpg	100
2496.048	0.876	876.3	repeat	Run3	repeat/STIM_011.jpg	99
2499.847	0.893	893.2	repeat	Run3	repeat/STIM_011.jpg	99
2503.669	1.091	1091.0	repeat	Run3	repeat/STIM_011.jpg	100
2507.224	0.669	669.1	repeat	Run3	repeat/STIM_011.jpg	100
2510.758	0.793	792.9	repeat	Run3	repeat/STIM_012.jpg	99
2515.132	1.013	1012.7	repeat	Run3	repeat/STIM_012.jpg	100
2519.718	0.968	968.4	repeat	Run3	repeat/STIM_012.jpg	100
2522.874	0.928	927.7	repeat	Run3	repeat/STIM_012.jpg	99
2526.545	0.981	980.7	repeat	Run3	repeat/STIM_012.jpg	100
2530.116	0.877	877.1	repeat	Run3	repeat/STIM_013.jpg	100
2533.605	0.54	539.7	repeat	Run3	repeat/STIM_013.jpg	100
2537.933	1.118	1117.5	repeat	Run3	repeat/STIM_013.jpg	100
2542.178	1.042	1041.7	repeat	Run3	repeat/STIM_013.jpg	99
2545.921	0.966	965.6	repeat	Run3	repeat/STIM_013.jpg	100
2550.304	0.787	787.4	repeat	Run3	repeat/STIM_014.jpg	99
2554.65	0.94	940.2	repeat	Run3	repeat/STIM_014.jpg	100
2558.247	0.931	931.0	repeat	Run3	repeat/STIM_014.jpg	100
2561.626	0.82	819.8	repeat	Run3	repeat/STIM_014.jpg	100
2565.811	1.047	1046.8	repeat	Run3	repeat/STIM_014.jpg	99
2569.572	2.081	2080.9	generate	Run4	generate/STIM_000.jpg	99
2573.778	1.309	1308.6	generate	Run4	generate/STIM_000.jpg	99
2578.723	1.507	1506.6	generate	Run4	generate/STIM_000.jpg	100
2583.104	1.576	1576.4	generate	Run4	generate/STIM_000.jpg	100
2588.171	2.216	2215.8	generate	Run4	generate/STIM_000.jpg	99
2593.312	1.532	1531.7	generate	Run4	generate/STIM_001.jpg	100
2596.853	1.0	1000.1	generate	Run4	generate/STIM_001.jpg	99
2600.387	1.364	1364.4	generate	Run4	generate/STIM_001.jpg	99
2605.368	1.42	1420.0	generate	Run4	generate/STIM_001.jpg	100
2608.908	1.843	1843.2	generate	Run4	generate/STIM_001.jpg	100
2613.025	1.782	1782.2	generate	Run4	generate/STIM_002.jpg	100
2618.328	2.311	2311.2	generate	Run4	generate/STIM_002.jpg	100
2623.025	1.446	1446.3	generate	Run4	generate/STIM_002.jpg	99
2627.829	2.156	2156.4	generate	Run4	generate/STIM_002.jpg	100
2633.08	1.543	1543.3	generate	Run4	generate/STIM_002.jpg	99
2636.611	1.755	1755.4	generate	Run4	generate/STIM_003.jpg	99
2641.309	0.994	994.3	generate	Run4	generate/STIM_003.jpg	99
2645.911	1.225	1224.8	generate	Run4	generate/STIM_003.jpg	100
2650.18	2.015	2014.7	generate	Run4	generate/STIM_003.jpg	99
2655.608	1.583	1582.6	generate	Run4	generate/STIM_003.jpg	99
2660.63	2.022	2022.4	generate	Run4	generate/STIM_004.jpg	99
2665.304	1.932	1931.9	generate	Run4	generate/STIM_004.jpg	100
2670.762	1.558	1558.4	generate	Run4	generate/STIM_004.jpg	100
2674.497	1.839	1839.2	generate	Run4	generate/STIM_004.jpg	99
2679.617	1.493	1493.1	generate	Run4	generate/STIM_004.jpg	99
2683.873	1.995	1995.2	generate	Run4	generate/STIM_005.jpg	99
2689.596	1.183	1183.4	generate	Run4	generate/STIM_005.jpg	100
2694.335	1.144	1144.5	generate	Run4	generate/STIM_005.jpg	99
2697.814	1.47	1470.1	generate	Run4	generate/STIM_005.jpg	99
2702.651	1.029	1029.0	generate	Run4	generate/STIM_005.jpg	99
2705.996	1.602	1602.1	generate	Run4	generate/STIM_006.jpg	100
2711.156	1.335	1334.6	generate	Run4	generate/STIM_006.jpg	99
2714.393	0.971	971.3	generate	Run4	generate/STIM_006.jpg	99
2718.25	1.53	1529.9	generate	Run4	generate/STIM_006.jpg	99
2721.754	1.737	1736.9	generate	Run4	generate/STIM_006.jpg	99
2726.524	1.515	1515.0	generate	Run4	generate/STIM_007.jpg	99
2731.654	2.12	2120.0	generate	Run4	generate/STIM_007.jpg	100
2736.656	1.006	1006.5	generate	Run4	generate/STIM_007.jpg	99
2741.028	2.131	2130.6	generate	Run4	generate/STIM_007.jpg	100
2746.549	1.031	1031.0	generate	Run4	generate/STIM_007.jpg	99
2749.709	1.391	1391.3	generate	Run4	generate/STIM_008.jpg	99
2753.85	2.107	2107.4	generate	Run4	generate/STIM_008.jpg	100
2759.309	1.297	1297.2	generate	Run4	generate/STIM_008.jpg	100
2763.589	1.058	1058.0	generate	Run4	generate/STIM_008.jpg	100
2766.745	1.411	1411.3	generate	Run4	generate/STIM_008.jpg	100
2771.011	1.396	1395.9	generate	Run4	generate/STIM_009.jpg	100
2775.197	2.428	2428.2	generate	Run4	generate/STIM_009.jpg	99
2780.289	1.523	1523.2	generate	Run4	generate/STIM_009.jpg	100
2784.264	2.133	2132.7	generate	Run4	generate/STIM_009.jpg	100
2789.693	1.784	1784.5	generate	Run4	generate/STIM_009.jpg	99
2793.394	1.738	1737.6	generate	Run4	generate/STIM_010.jpg	100
2798.06	1.677	1677.1	generate	Run4	generate/STIM_010.jpg	99
2802.182	1.704	1704.5	generate	Run4	generate/STIM_010.jpg	100
2806.685	2.213	2213.3	generate	Run4	generate/STIM_010.jpg	100
2812.128	1.887	1887.4	generate	Run4	generate/STIM_010.jpg	99
2817.357	1.82	1820.1	generate	Run4	generate/STIM_011.jpg	100
2822.49	1.103	1102.6	generate	Run4	generate/STIM_011.jpg	99
2827.048	2.335	2335.3	generate	Run4	generate/STIM_011.jpg	99
2832.677	2.222	2222.5	generate	Run4	generate/STIM_011.jpg	100
2838.023	1.72	1720.5	generate	Run4	generate/STIM_011.jpg	99
2842.979	1.882	1882.2	generate	Run4	generate/STIM_012.jpg	100
2847.373	1.598	1597.8	generate	Run4	generate/STIM_012.jpg	99
2851.797	1.256	1255.9	generate	Run4	generate/STIM_012.jpg	100
2856.127	1.442	1442.1	generate	Run4	generate/STIM_012.jpg	99
2859.618	2.312	2312.5	generate	Run4	generate/STIM_012.jpg	100
2863.707	1.968	1967.9	generate	Run4	generate/STIM_013.jpg	99
2868.925	1.831	1831.4	generate	Run4	generate/STIM_013.jpg	99
2874.358	0.956	955.7	generate	Run4	generate/STIM_013.jpg	100
2877.252	1.002	1002.2	generate	Run4	generate/STIM_013.jpg	100
2880.153	1.602	1601.6	generate	Run4	generate/STIM_013.jpg	100
2883.945	2.109	2108.8	generate	Run4	generate/STIM_014.jpg	100
2888.848	1.699	1698.6	generate	Run4	generate/STIM_014.jpg	99
2892.372	1.219	1219.0	generate	Run4	generate/STIM_014.jpg	99
2895.762	0.913	913.2	generate	Run4	generate/STIM_014.jpg	99
2898.775	2.284	2283.9	generate	Run4	generate/STIM_014.jpg	99
2903.246	2.027	2027.4	generate	Run4	generate/STIM_015.jpg	100
2908.694	1.402	1401.6	generate	Run4	generate/STIM_015.jpg	99
2912.251	2.206	2206.4	generate	Run4	generate/STIM_015.jpg	100
2917.822	2.293	2292.6	generate	Run4	generate/STIM_015.jpg	99
2922.587	0.966	965.8	generate	Run4	generate/STIM_015.jpg	100
2926.255	1.384	1384.3	generate	Run4	generate/STIM_016.jpg	100
2931.268	2.172	2171.8	generate	Run4	generate/STIM_016.jpg	99
2935.231	1.98	1979.7	generate	Run4	generate/STIM_016.jpg	100
2939.62	1.217	1217.1	generate	Run4	generate/STIM_016.jpg	100
2942.89	1.155	1155.3	generate	Run4	generate/STIM_016.jpg	99
2946.376	1.037	1036.9	generate	Run4	generate/STIM_017.jpg	100
2951.146	1.762	1761.6	generate	Run4	generate/STIM_017.jpg	99
2956.382	1.196	1195.9	generate	Run4	generate/STIM_017.jpg	100
2960.615	1.469	1468.9	generate	Run4	generate/STIM_017.jpg	99
2965.805	1.526	1526.0	generate	Run4	generate/STIM_017.jpg	99
2969.757	1.142	1142.0	generate	Run4	generate/STIM_018.jpg	99
2972.974	1.236	1236.1	generate	Run4	generate/STIM_018.jpg	100
2976.336	1.431	1430.6	generate	Run4	generate/STIM_018.jpg	99
2979.717	2.245	2244.9	generate	Run4	generate/STIM_018.jpg	99
2984.5	2.056	2055.8	generate	Run4	generate/STIM_018.jpg	99
2989.987	1.802	1802.1	generate	Run4	generate/STIM_019.jpg	100
2994.712	1.811	1810.6	generate	Run4	generate/STIM_019.jpg	99
2998.409	1.262	1262.3	generate	Run4	generate/STIM_019.jpg	99
3002.0	1.67	1670.2	generate	Run4	generate/STIM_019.jpg	100
3006.968	2.028	2027.6	generate	Run4	generate/STIM_019.jpg	99
3012.021	1.231	1231.3	generate	Run4	generate/STIM_020.jpg	100
3015.885	2.026	2025.9	generate	Run4	generate/STIM_020.jpg	100
3020.797	1.059	1059.0	generate	Run4	generate/STIM_020.jpg	100
3024.459	2.273	2273.3	generate	Run4	generate/STIM_020.jpg	100
3029.352	2.309	2309.2	generate	Run4	generate/STIM_020.jpg	99
3035.383	2.221	2221.0	generate	Run4	generate/STIM_021.jpg	99
3039.953	1.498	1497.7	generate	Run4	generate/STIM_021.jpg	100
3043.379	1.364	1363.7	generate	Run4	generate/STIM_021.jpg	100
3047.384	2.393	2392.9	generate	Run4	generate/STIM_021.jpg	99
3053.245	1.136	1136.4	generate	Run4	generate/STIM_021.jpg	100
3057.271	2.14	2139.5	generate	Run4	generate/STIM_022.jpg	99
3062.612	2.021	2020.9	generate	Run4	generate/STIM_022.jpg	100
3068.083	1.667	1666.6	generate	Run4	generate/STIM_022.jpg	99
3072.105	1.034	1034.4	generate	Run4	generate/STIM_022.jpg	99
3075.398	2.01	2009.8	generate	Run4	generate/STIM_022.jpg	100
3080.306	1.127	1127.4	generate	Run4	generate/STIM_023.jpg	100
3084.443	1.894	1894.5	generate	Run4	generate/STIM_023.jpg	100
3089.887	2.205	2204.7	generate	Run4	generate/STIM_023.jpg	100
3094.699	1.026	1025.9	generate	Run4	generate/STIM_023.jpg	100
3097.74	1.357	1357.4	generate	Run4	generate/STIM_023.jpg	100
3101.809	1.318	1318.2	generate	Run4	generate/STIM_024.jpg	99
3106.449	2.007	2007.0	generate	Run4	generate/STIM_024.jpg	100
3110.449	1.217	1216.7	generate	Run4	generate/STIM_024.jpg	99
3114.954	1.511	1511.1	generate	Run4	generate/STIM_024.jpg	99
3120.236	1.177	1177.3	generate	Run4	generate/STIM_024.jpg	100
3125.09	1.166	1166.3	repeat	Run4	repeat/STIM_000.jpg	100
3128.912	1.117	1117.4	repeat	Run4	repeat/STIM_000.jpg	99
3133.901	0.909	908.6	repeat	Run4	repeat/STIM_000.jpg	99
3136.885	0.82	820.0	repeat	Run4	repeat/STIM_000.jpg	99
3141.319	0.634	633.8	repeat	Run4	repeat/STIM_000.jpg	99
3144.147	0.978	978.0	repeat	Run4	repeat/STIM_001.jpg	100
3147.351	1.096	1095.9	repeat	Run4	repeat/STIM_001.jpg	100
3152.182	0.988	988.5	repeat	Run4	repeat/STIM_001.jpg	99
3157.041	0.62	619.6	repeat	Run4	repeat/STIM_001.jpg	100
3161.151	1.017	1017.0	repeat	Run4	repeat/STIM_001.jpg	99
3165.804	0.576	576.1	repeat	Run4	repeat/STIM_002.jpg	99
3169.441	0.688	687.8	repeat	Run4	repeat/STIM_002.jpg	100
3173.274	1.072	1071.8	repeat	Run4	repeat/STIM_002.jpg	100
3178.032	0.578	578.2	repeat	Run4	repeat/STIM_002.jpg	100
3181.798	0.876	876.3	repeat	Run4	repeat/STIM_002.jpg	100
3186.204	1.026	1025.7	repeat	Run4	repeat/STIM_003.jpg	99
3190.488	0.641	640.9	repeat	Run4	repeat/STIM_003.jpg	99
3193.926	0.743	742.8	repeat	Run4	repeat/STIM_003.jpg	99
3198.112	0.864	864.5	repeat	Run4	repeat/STIM_003.jpg	99
3201.345	0.727	726.7	repeat	Run4	repeat/STIM_003.jpg	99
3205.734	1.174	1174.1	repeat	Run4	repeat/STIM_004.jpg	99
3210.437	0.892	892.3	repeat	Run4	repeat/STIM_004.jpg	99
3214.315	0.608	608.3	repeat	Run4	repeat/STIM_004.jpg	100
3217.929	0.937	936.6	repeat	Run4	repeat/STIM_004.jpg	99
3222.156	0.564	563.7	repeat	Run4	repeat/STIM_004.jpg	100
3226.065	0.668	667.7	repeat	Run4	repeat/STIM_005.jpg	99
3229.474	0.63	629.7	repeat	Run4	repeat/STIM_005.jpg	99
3233.963	0.835	834.9	repeat	Run4	repeat/STIM_005.jpg	100
3236.943	0.789	789.0	repeat	Run4	repeat/STIM_005.jpg	99
3239.848	1.048	1047.8	repeat	Run4	repeat/STIM_005.jpg	99
3244.456	0.842	842.4	repeat	Run4	repeat/STIM_006.jpg	100
3248.562	0.832	832.0	repeat	Run4	repeat/STIM_006.jpg	99
3252.357	0.952	952.2	repeat	Run4	repeat/STIM_006.jpg	99
3256.81	0.801	800.8	repeat	Run4	repeat/STIM_006.jpg	99
3259.67	0.746	745.7	repeat	Run4	repeat/STIM_006.jpg	99
3262.381	0.912	912.4	repeat	Run4	repeat/STIM_007.jpg	99
3266.261	0.87	870.4	repeat	Run4	repeat/STIM_007.jpg	100
3269.033	0.88	879.5	repeat	Run4	repeat/STIM_007.jpg	99
3272.208	1.062	1061.8	repeat	Run4	repeat/STIM_007.jpg	99
3276.698	0.522	522.1	repeat	Run4	repeat/STIM_007.jpg	99
3280.715	0.756	756.1	repeat	Run4	repeat/STIM_008.jpg	99
3283.632	0.818	817.6	repeat	Run4	repeat/STIM_008.jpg	100
3286.83	1.058	1058.2	repeat	Run4	repeat/STIM_008.jpg	100
3289.852	1.027	1027.2	repeat	Run4	repeat/STIM_008.jpg	100
3293.255	1.056	1056.0	repeat	Run4	repeat/STIM_008.jpg	99
3297.565	1.124	1124.2	repeat	Run4	repeat/STIM_009.jpg	99
3301.468	0.904	904.4	repeat	Run4	repeat/STIM_009.jpg	100
3305.263	1.017	1016.8	repeat	Run4	repeat/STIM_009.jpg	99
3309.217	0.649	648.7	repeat	Run4	repeat/STIM_009.jpg	100
3313.675	0.973	973.3	repeat	Run4	repeat/STIM_009.jpg	100
3316.905	0.65	650.1	repeat	Run4	repeat/STIM_010.jpg	100
3319.624	1.145	1144.8	repeat	Run4	repeat/STIM_010.jpg	100
3323.318	0.625	625.1	repeat	Run4	repeat/STIM_010.jpg	99
3325.917	0.978	978.0	repeat	Run4	repeat/STIM_010.jpg	99
3330.193	0.771	771.4	repeat	Run4	repeat/STIM_010.jpg	100
3333.567	0.876	875.6	repeat	Run4	repeat/STIM_011.jpg	99
3336.832	0.673	672.9	repeat	Run4	repeat/STIM_011.jpg	100
3339.802	0.985	984.9	repeat	Run4	repeat/STIM_011.jpg	99
3343.736	0.915	914.6	repeat	Run4	repeat/STIM_011.jpg	100
3347.229	0.984	983.7	repeat	Run4	repeat/STIM_011.jpg	100
3350.383	0.703	703.4	repeat	Run4	repeat/STIM_012.jpg	100
3354.698	0.746	746.4	repeat	Run4	repeat/STIM_012.jpg	100
3358.287	0.678	678.5	repeat	Run4	repeat/STIM_012.jpg	100
3361.635	0.644	644.1	repeat	Run4	repeat/STIM_012.jpg	99
3364.53	0.589	588.6	repeat	Run4	repeat/STIM_012.jpg	100
3368.026	1.14	1140.1	repeat	Run4	repeat/STIM_013.jpg	100
3372.823	1.019	1019.3	repeat	Run4	repeat/STIM_013.jpg	100
3376.184	0.917	917.2	repeat	Run4	repeat/STIM_013.jpg	99
3379.199	0.865	865.0	repeat	Run4	repeat/STIM_013.jpg	100
3382.444	1.154	1153.8	repeat	Run4	repeat/STIM_013.jpg	99
3385.877	1.116	1115.5	repeat	Run4	repeat/STIM_014.jpg	99
3390.169	1.064	1064.4	repeat	Run4	repeat/STIM_014.jpg	100
3393.794	0.835	835.1	repeat	Run4	repeat/STIM_014.jpg	100
3397.032	0.986	985.8	repeat	Run4	repeat/STIM_014.jpg	99
3399.955	0.564	564.2	repeat	Run4	repeat/STIM_014.jpg	99
