onset	duration	accuracy_binary	trial_type	learning_stage	stimulus
0.0	0.804	1	incongruent	Block1	incongruent/STIM_000.jpg
3.936	1.23	1	incongruent	Block1	incongruent/STIM_000.jpg
7.639	1.075	1	incongruent	Block1	incongruent/STIM_000.jpg
12.379	0.782	1	incongruent	Block1	incongruent/STIM_000.jpg
15.966	0.634	1	incongruent	Block1	incongruent/STIM_000.jpg
19.317	1.592	0	incongruent	Block1	incongruent/STIM_001.jpg
23.973	1.136	1	incongruent	Block1	incongruent/STIM_001.jpg
28.532	0.874	1	incongruent	Block1	incongruent/STIM_001.jpg
33.126	0.933	1	incongruent	Block1	incongruent/STIM_001.jpg
36.752	0.89	1	incongruent	Block1	incongruent/STIM_001.jpg
40.904	1.089	1	incongruent	Block1	incongruent/STIM_002.jpg
45.309	0.92	1	incongruent	Block1	incongruent/STIM_002.jpg
48.645	1.335	1	incongruent	Block1	incongruent/STIM_002.jpg
52.531	1.276	1	incongruent	Block1	incongruent/STIM_002.jpg
56.445	0.978	1	incongruent	Block1	incongruent/STIM_002.jpg
60.219	1.503	0	incongruent	Block1	incongruent/STIM_003.jpg
64.139	1.635	1	incongruent	Block1	incongruent/STIM_003.jpg
68.605	1.412	1	incongruent	Block1	incongruent/STIM_003.jpg
72.26	0.842	1	incongruent	Block1	incongruent/STIM_003.jpg
76.607	0.712	1	incongruent	Block1	incongruent/STIM_003.jpg
80.433	1.062	1	incongruent	Block1	incongruent/STIM_004.jpg
84.229	1.584	1	incongruent	Block1	incongruent/STIM_004.jpg
87.715	1.458	1	incongruent	Block1	incongruent/STIM_004.jpg
91.347	1.299	1	incongruent	Block1	incongruent/STIM_004.jpg
96.168	1.222	1	incongruent	Block1	incongruent/STIM_004.jpg
99.315	0.93	1	incongruent	Block1	incongruent/STIM_005.jpg
102.866	0.831	0	incongruent	Block1	incongruent/STIM_005.jpg
106.086	1.233	1	incongruent	Block1	incongruent/STIM_005.jpg
110.504	0.924	0	incongruent	Block1	incongruent/STIM_005.jpg
114.763	0.944	1	incongruent	Block1	incongruent/STIM_005.jpg
119.521	1.544	0	incongruent	Block1	incongruent/STIM_006.jpg
123.207	0.784	1	incongruent	Block1	incongruent/STIM_006.jpg
127.522	1.44	1	incongruent	Block1	incongruent/STIM_006.jpg
132.447	1.293	1	incongruent	Block1	incongruent/STIM_006.jpg
136.749	0.789	1	incongruent	Block1	incongruent/STIM_006.jpg
141.37	0.801	1	incongruent	Block1	incongruent/STIM_007.jpg
144.212	1.19	1	incongruent	Block1	incongruent/STIM_007.jpg
147.749	1.006	1	incongruent	Block1	incongruent/STIM_007.jpg
151.332	1.092	1	incongruent	Block1	incongruent/STIM_007.jpg
155.131	0.873	1	incongruent	Block1	incongruent/STIM_007.jpg
159.041	0.86	1	incongruent	Block1	incongruent/STIM_008.jpg
163.75	1.417	1	incongruent	Block1	incongruent/STIM_008.jpg
168.156	1.178	0	incongruent	Block1	incongruent/STIM_008.jpg
172.541	0.774	1	incongruent	Block1	incongruent/STIM_008.jpg
177.26	0.688	1	incongruent	Block1	incongruent/STIM_008.jpg
181.21	1.579	1	incongruent	Block1	incongruent/STIM_009.jpg
184.869	1.532	1	incongruent	Block1	incongruent/STIM_009.jpg
188.748	1.348	1	incongruent	Block1	incongruent/STIM_009.jpg
192.846	1.425	1	incongruent	Block1	incongruent/STIM_009.jpg
196.841	1.267	1	incongruent	Block1	incongruent/STIM_009.jpg
200.572	0.918	1	incongruent	Block1	incongruent/STIM_010.jpg
204.555	1.532	1	incongruent	Block1	incongruent/STIM_010.jpg
208.307	1.29	1	incongruent	Block1	incongruent/STIM_010.jpg
212.725	1.238	0	incongruent	Block1	incongruent/STIM_010.jpg
217.656	0.962	1	incongruent	Block1	incongruent/STIM_010.jpg
221.664	1.124	1	incongruent	Block1	incongruent/STIM_011.jpg
226.036	1.115	0	incongruent	Block1	incongruent/STIM_011.jpg
230.746	0.928	1	incongruent	Block1	incongruent/STIM_011.jpg
234.072	1.247	1	incongruent	Block1	incongruent/STIM_011.jpg
237.275	0.882	1	incongruent	Block1	incongruent/STIM_011.jpg
241.825	1.494	1	incongruent	Block1	incongruent/STIM_012.jpg
245.729	1.499	1	incongruent	Block1	incongruent/STIM_012.jpg
249.622	1.24	1	incongruent	Block1	incongruent/STIM_012.jpg
253.287	1.347	1	incongruent	Block1	incongruent/STIM_012.jpg
258.026	0.996	1	incongruent	Block1	incongruent/STIM_012.jpg
262.463	1.158	0	incongruent	Block1	incongruent/STIM_013.jpg
267.187	0.891	0	incongruent	Block1	incongruent/STIM_013.jpg
271.429	0.706	1	incongruent	Block1	incongruent/STIM_013.jpg
274.515	0.852	1	incongruent	Block1	incongruent/STIM_013.jpg
278.115	0.688	1	incongruent	Block1	incongruent/STIM_013.jpg
282.248	1.097	1	incongruent	Block1	incongruent/STIM_014.jpg
286.852	1.481	1	incongruent	Block1	incongruent/STIM_014.jpg
291.696	0.991	1	incongruent	Block1	incongruent/STIM_014.jpg
295.754	0.759	1	incongruent	Block1	incongruent/STIM_014.jpg
300.164	1.11	1	incongruent	Block1	incongruent/STIM_014.jpg
303.919	1.34	0	incongruent	Block1	incongruent/STIM_015.jpg
307.684	0.894	1	incongruent	Block1	incongruent/STIM_015.jpg
312.291	0.9	0	incongruent	Block1	incongruent/STIM_015.jpg
316.957	1.096	1	incongruent	Block1	incongruent/STIM_015.jpg
319.964	0.926	1	incongruent	Block1	incongruent/STIM_015.jpg
322.889	1.599	1	incongruent	Block1	incongruent/STIM_016.jpg
327.866	0.818	1	incongruent	Block1	incongruent/STIM_016.jpg
331.285	1.147	1	incongruent	Block1	incongruent/STIM_016.jpg
335.352	0.896	1	incongruent	Block1	incongruent/STIM_016.jpg
340.127	1.192	1	incongruent	Block1	incongruent/STIM_016.jpg
343.785	0.792	1	incongruent	Block1	incongruent/STIM_017.jpg
348.537	0.874	1	incongruent	Block1	incongruent/STIM_017.jpg
352.758	0.762	1	incongruent	Block1	incongruent/STIM_017.jpg
356.397	1.384	1	incongruent	Block1	incongruent/STIM_017.jpg
360.61	0.988	1	incongruent	Block1	incongruent/STIM_017.jpg
364.174	1.369	1	incongruent	Block1	incongruent/STIM_018.jpg
369.253	1.565	1	incongruent	Block1	incongruent/STIM_018.jpg
373.539	1.347	1	incongruent	Block1	incongruent/STIM_018.jpg
377.366	1.008	1	incongruent	Block1	incongruent/STIM_018.jpg
380.447	1.226	1	incongruent	Block1	incongruent/STIM_018.jpg
385.235	1.52	1	incongruent	Block1	incongruent/STIM_019.jpg
389.775	0.934	1	incongruent	Block1	incongruent/STIM_019.jpg
394.534	1.27	1	incongruent	Block1	incongruent/STIM_019.jpg
398.722	0.811	1	incongruent	Block1	incongruent/STIM_019.jpg
402.403	1.32	1	incongruent	Block1	incongruent/STIM_019.jpg
407.196	1.143	1	incongruent	Block1	incongruent/STIM_020.jpg
411.163	0.903	0	incongruent	Block1	incongruent/STIM_020.jpg
414.333	0.739	1	incongruent	Block1	incongruent/STIM_020.jpg
417.289	1.201	1	incongruent	Block1	incongruent/STIM_020.jpg
422.146	0.981	1	incongruent	Block1	incongruent/STIM_020.jpg
425.167	1.125	1	incongruent	Block1	incongruent/STIM_021.jpg
430.018	0.987	1	incongruent	Block1	incongruent/STIM_021.jpg
434.166	0.866	1	incongruent	Block1	incongruent/STIM_021.jpg
437.11	1.219	1	incongruent	Block1	incongruent/STIM_021.jpg
441.045	0.839	1	incongruent	Block1	incongruent/STIM_021.jpg
444.08	1.244	1	incongruent	Block1	incongruent/STIM_022.jpg
447.662	1.486	1	incongruent	Block1	incongruent/STIM_022.jpg
451.021	1.158	1	incongruent	Block1	incongruent/STIM_022.jpg
454.386	0.954	1	incongruent	Block1	incongruent/STIM_022.jpg
458.899	1.238	1	incongruent	Block1	incongruent/STIM_022.jpg
463.642	1.312	1	incongruent	Block1	incongruent/STIM_023.jpg
467.504	1.12	1	incongruent	Block1	incongruent/STIM_023.jpg
470.635	0.716	1	incongruent	Block1	incongruent/STIM_023.jpg
474.131	0.692	1	incongruent	Block1	incongruent/STIM_023.jpg
478.133	0.636	1	incongruent	Block1	incongruent/STIM_023.jpg
480.966	1.217	1	incongruent	Block1	incongruent/STIM_024.jpg
484.686	1.068	1	incongruent	Block1	incongruent/STIM_024.jpg
488.295	1.347	1	incongruent	Block1	incongruent/STIM_024.jpg
492.771	1.312	1	incongruent	Block1	incongruent/STIM_024.jpg
496.408	0.789	1	incongruent	Block1	incongruent/STIM_024.jpg
500.618	1.442	0	incongruent	Block1	incongruent/STIM_025.jpg
504.384	1.015	1	incongruent	Block1	incongruent/STIM_025.jpg
509.108	0.762	1	incongruent	Block1	incongruent/STIM_025.jpg
513.244	0.799	1	incongruent	Block1	incongruent/STIM_025.jpg
517.322	1.195	1	incongruent	Block1	incongruent/STIM_025.jpg
520.428	1.469	1	incongruent	Block1	incongruent/STIM_026.jpg
524.064	0.813	1	incongruent	Block1	incongruent/STIM_026.jpg
527.768	0.914	1	incongruent	Block1	incongruent/STIM_026.jpg
532.419	0.951	1	incongruent	Block1	incongruent/STIM_026.jpg
537.018	0.969	1	incongruent	Block1	incongruent/STIM_026.jpg
541.423	1.133	1	incongruent	Block1	incongruent/STIM_027.jpg
545.559	1.067	1	incongruent	Block1	incongruent/STIM_027.jpg
550.388	1.471	1	incongruent	Block1	incongruent/STIM_027.jpg
553.699	1.052	1	incongruent	Block1	incongruent/STIM_027.jpg
558.499	0.755	0	incongruent	Block1	incongruent/STIM_027.jpg
562.617	0.98	1	incongruent	Block1	incongruent/STIM_028.jpg
566.779	1.662	1	incongruent	Block1	incongruent/STIM_028.jpg
570.498	1.446	1	incongruent	Block1	incongruent/STIM_028.jpg
575.674	1.019	1	incongruent	Block1	incongruent/STIM_028.jpg
580.475	0.952	1	incongruent	Block1	incongruent/STIM_028.jpg
583.637	0.872	1	incongruent	Block1	incongruent/STIM_029.jpg
588.004	1.318	1	incongruent	Block1	incongruent/STIM_029.jpg
591.276	1.162	1	incongruent	Block1	incongruent/STIM_029.jpg
595.918	0.992	1	incongruent	Block1	incongruent/STIM_029.jpg
599.004	0.817	1	incongruent	Block1	incongruent/STIM_029.jpg
602.34	0.686	0	congruent	Block1	congruent/STIM_000.jpg
605.789	0.98	1	congruent	Block1	congruent/STIM_000.jpg
609.071	0.835	1	congruent	Block1	congruent/STIM_000.jpg
613.552	0.992	1	congruent	Block1	congruent/STIM_000.jpg
617.724	0.657	1	congruent	Block1	congruent/STIM_000.jpg
620.896	0.8	1	congruent	Block1	congruent/STIM_001.jpg
624.111	0.673	1	congruent	Block1	congruent/STIM_001.jpg
627.45	0.892	1	congruent	Block1	congruent/STIM_001.jpg
631.905	0.685	1	congruent	Block1	congruent/STIM_001.jpg
635.299	0.86	1	congruent	Block1	congruent/STIM_001.jpg
638.852	0.958	1	congruent	Block1	congruent/STIM_002.jpg
643.551	1.037	1	congruent	Block1	congruent/STIM_002.jpg
646.647	0.618	1	congruent	Block1	congruent/STIM_002.jpg
650.157	0.895	1	congruent	Block1	congruent/STIM_002.jpg
653.145	0.621	1	congruent	Block1	congruent/STIM_002.jpg
657.5	0.897	1	congruent	Block1	congruent/STIM_003.jpg
662.3	0.905	1	congruent	Block1	congruent/STIM_003.jpg
665.676	0.584	1	congruent	Block1	congruent/STIM_003.jpg
668.579	0.749	1	congruent	Block1	congruent/STIM_003.jpg
671.435	0.612	1	congruent	Block1	congruent/STIM_003.jpg
675.126	0.847	1	congruent	Block1	congruent/STIM_004.jpg
678.234	0.75	1	congruent	Block1	congruent/STIM_004.jpg
682.682	0.682	1	congruent	Block1	congruent/STIM_004.jpg
686.968	1.015	1	congruent	Block1	congruent/STIM_004.jpg
690.974	0.682	1	congruent	Block1	congruent/STIM_004.jpg
693.552	0.792	1	congruent	Block1	congruent/STIM_005.jpg
696.771	0.734	1	congruent	Block1	congruent/STIM_005.jpg
699.945	0.812	0	congruent	Block1	congruent/STIM_005.jpg
704.166	0.818	1	congruent	Block1	congruent/STIM_005.jpg
708.661	0.512	1	congruent	Block1	congruent/STIM_005.jpg
712.867	0.711	1	congruent	Block1	congruent/STIM_006.jpg
716.611	0.766	1	congruent	Block1	congruent/STIM_006.jpg
721.129	0.644	1	congruent	Block1	congruent/STIM_006.jpg
723.987	1.013	1	congruent	Block1	congruent/STIM_006.jpg
728.156	0.98	1	congruent	Block1	congruent/STIM_006.jpg
732.106	0.834	1	congruent	Block1	congruent/STIM_007.jpg
736.496	0.889	1	congruent	Block1	congruent/STIM_007.jpg
739.946	0.925	1	congruent	Block1	congruent/STIM_007.jpg
743.678	0.864	1	congruent	Block1	congruent/STIM_007.jpg
747.337	0.682	1	congruent	Block1	congruent/STIM_007.jpg
751.147	0.64	1	congruent	Block1	congruent/STIM_008.jpg
754.247	0.884	1	congruent	Block1	congruent/STIM_008.jpg
757.695	0.789	1	congruent	Block1	congruent/STIM_008.jpg
760.488	0.615	1	congruent	Block1	congruent/STIM_008.jpg
763.465	0.609	1	congruent	Block1	congruent/STIM_008.jpg
767.221	0.933	1	congruent	Block1	congruent/STIM_009.jpg
771.618	0.853	1	congruent	Block1	congruent/STIM_009.jpg
774.942	0.745	1	congruent	Block1	congruent/STIM_009.jpg
778.649	0.889	1	congruent	Block1	congruent/STIM_009.jpg
781.449	0.962	1	congruent	Block1	congruent/STIM_009.jpg
785.555	0.726	1	congruent	Block1	congruent/STIM_010.jpg
790.085	0.803	1	congruent	Block1	congruent/STIM_010.jpg
792.92	0.792	1	congruent	Block1	congruent/STIM_010.jpg
795.669	0.733	1	congruent	Block1	congruent/STIM_010.jpg
798.986	0.799	1	congruent	Block1	congruent/STIM_010.jpg
802.986	0.683	1	congruent	Block1	congruent/STIM_011.jpg
805.701	0.753	1	congruent	Block1	congruent/STIM_011.jpg
809.936	0.646	1	congruent	Block1	congruent/STIM_011.jpg
813.69	0.624	1	congruent	Block1	congruent/STIM_011.jpg
816.538	0.716	1	congruent	Block1	congruent/STIM_011.jpg
820.369	0.667	1	congruent	Block1	congruent/STIM_012.jpg
824.181	1.054	0	congruent	Block1	congruent/STIM_012.jpg
828.035	1.014	1	congruent	Block1	congruent/STIM_012.jpg
832.287	0.553	1	congruent	Block1	congruent/STIM_012.jpg
835.863	0.724	1	congruent	Block1	congruent/STIM_012.jpg
839.183	0.871	1	congruent	Block1	congruent/STIM_013.jpg
842.404	0.571	1	congruent	Block1	congruent/STIM_013.jpg
846.217	0.771	1	congruent	Block1	congruent/STIM_013.jpg
849.877	0.849	1	congruent	Block1	congruent/STIM_013.jpg
853.511	0.86	1	congruent	Block1	congruent/STIM_013.jpg
856.817	0.831	1	congruent	Block1	congruent/STIM_014.jpg
861.592	0.865	1	congruent	Block1	congruent/STIM_014.jpg
864.951	0.818	1	congruent	Block1	congruent/STIM_014.jpg
868.478	0.678	1	congruent	Block1	congruent/STIM_014.jpg
872.711	0.771	1	congruent	Block1	congruent/STIM_014.jpg
876.15	0.992	1	congruent	Block1	congruent/STIM_015.jpg
880.107	0.987	1	congruent	Block1	congruent/STIM_015.jpg
883.321	0.509	1	congruent	Block1	congruent/STIM_015.jpg
887.408	0.86	1	congruent	Block1	congruent/STIM_015.jpg
890.848	0.942	1	congruent	Block1	congruent/STIM_015.jpg
894.398	0.628	1	congruent	Block1	congruent/STIM_016.jpg
898.881	0.634	1	congruent	Block1	congruent/STIM_016.jpg
902.73	0.9	1	congruent	Block1	congruent/STIM_016.jpg
906.909	0.773	1	congruent	Block1	congruent/STIM_016.jpg
910.805	0.689	1	congruent	Block1	congruent/STIM_016.jpg
915.26	0.749	1	congruent	Block1	congruent/STIM_017.jpg
918.482	0.727	1	congruent	Block1	congruent/STIM_017.jpg
921.858	0.732	1	congruent	Block1	congruent/STIM_017.jpg
925.325	0.995	1	congruent	Block1	congruent/STIM_017.jpg
928.32	0.902	1	congruent	Block1	congruent/STIM_017.jpg
931.995	0.83	1	congruent	Block1	congruent/STIM_018.jpg
936.651	0.868	1	congruent	Block1	congruent/STIM_018.jpg
940.485	0.743	1	congruent	Block1	congruent/STIM_018.jpg
943.495	0.817	1	congruent	Block1	congruent/STIM_018.jpg
946.125	0.923	1	congruent	Block1	congruent/STIM_018.jpg
949.344	0.922	1	congruent	Block1	congruent/STIM_019.jpg
953.893	0.919	1	congruent	Block1	congruent/STIM_019.jpg
957.592	0.938	1	congruent	Block1	congruent/STIM_019.jpg
961.547	0.968	1	congruent	Block1	congruent/STIM_019.jpg
964.737	0.87	1	congruent	Block1	congruent/STIM_019.jpg
968.614	0.911	1	congruent	Block1	congruent/STIM_020.jpg
971.598	1.077	1	congruent	Block1	congruent/STIM_020.jpg
974.569	0.896	1	congruent	Block1	congruent/STIM_020.jpg
977.941	0.835	1	congruent	Block1	congruent/STIM_020.jpg
980.968	0.858	1	congruent	Block1	congruent/STIM_020.jpg
984.982	0.797	1	congruent	Block1	congruent/STIM_021.jpg
988.555	0.551	1	congruent	Block1	congruent/STIM_021.jpg
991.586	0.754	1	congruent	Block1	congruent/STIM_021.jpg
994.527	0.601	1	congruent	Block1	congruent/STIM_021.jpg
998.044	0.88	1	congruent	Block1	congruent/STIM_021.jpg
1001.117	0.984	0	congruent	Block1	congruent/STIM_022.jpg
1005.307	0.864	1	congruent	Block1	congruent/STIM_022.jpg
1009.315	0.69	1	congruent	Block1	congruent/STIM_022.jpg
1013.306	0.578	1	congruent	Block1	congruent/STIM_022.jpg
1016.718	0.78	1	congruent	Block1	congruent/STIM_022.jpg
1019.647	0.664	1	congruent	Block1	congruent/STIM_023.jpg
1023.588	0.886	1	congruent	Block1	congruent/STIM_023.jpg
1027.803	0.588	1	congruent	Block1	congruent/STIM_023.jpg
1031.756	0.624	1	congruent	Block1	congruent/STIM_023.jpg
1035.716	0.733	1	congruent	Block1	congruent/STIM_023.jpg
1038.582	0.842	1	congruent	Block1	congruent/STIM_024.jpg
1043.025	0.64	1	congruent	Block1	congruent/STIM_024.jpg
1046.531	0.766	1	congruent	Block1	congruent/STIM_024.jpg
1049.281	0.682	1	congruent	Block1	congruent/STIM_024.jpg
1052.66	0.565	1	congruent	Block1	congruent/STIM_024.jpg
1056.788	0.856	1	congruent	Block1	congruent/STIM_025.jpg
1060.557	0.744	1	congruent	Block1	congruent/STIM_025.jpg
1064.41	1.066	1	congruent	Block1	congruent/STIM_025.jpg
1068.057	1.076	1	congruent	Block1	congruent/STIM_025.jpg
1071.105	0.605	1	congruent	Block1	congruent/STIM_025.jpg
1074.131	0.57	1	congruent	Block1	congruent/STIM_026.jpg
1078.297	0.532	1	congruent	Block1	congruent/STIM_026.jpg
1082.304	0.85	1	congruent	Block1	congruent/STIM_026.jpg
1086.136	0.739	1	congruent	Block1	congruent/STIM_026.jpg
1089.117	0.68	1	congruent	Block1	congruent/STIM_026.jpg
1092.525	0.568	0	congruent	Block1	congruent/STIM_027.jpg
1095.197	0.841	1	congruent	Block1	congruent/STIM_027.jpg
1099.573	0.829	1	congruent	Block1	congruent/STIM_027.jpg
1103.14	0.544	1	congruent	Block1	congruent/STIM_027.jpg
1107.132	0.677	1	congruent	Block1	congruent/STIM_027.jpg
1111.55	0.802	1	congruent	Block1	congruent/STIM_028.jpg
1115.496	1.017	1	congruent	Block1	congruent/STIM_028.jpg
1119.583	0.721	1	congruent	Block1	congruent/STIM_028.jpg
1122.265	0.726	1	congruent	Block1	congruent/STIM_028.jpg
1125.048	0.829	1	congruent	Block1	congruent/STIM_028.jpg
1128.025	1.028	1	congruent	Block1	congruent/STIM_029.jpg
1132.08	1.032	1	congruent	Block1	congruent/STIM_029.jpg
1136.253	0.919	1	congruent	Block1	congruent/STIM_029.jpg
1139.668	0.758	1	congruent	Block1	congruent/STIM_029.jpg
1143.338	0.977	1	congruent	Block1	congruent/STIM_029.jpg
1146.38	0.835	1	incongruent	Block2	incongruent/STIM_000.jpg
1149.349	1.21	1	incongruent	Block2	incongruent/STIM_000.jpg
1153.191	0.91	1	incongruent	Block2	incongruent/STIM_000.jpg
1156.829	1.176	0	incongruent	Block2	incongruent/STIM_000.jpg
1160.713	0.672	1	incongruent	Block2	incongruent/STIM_000.jpg
1163.527	1.268	1	incongruent	Block2	incongruent/STIM_001.jpg
1168.146	1.203	1	incongruent	Block2	incongruent/STIM_001.jpg
1172.764	0.765	1	incongruent	Block2	incongruent/STIM_001.jpg
1175.711	0.948	1	incongruent	Block2	incongruent/STIM_001.jpg
1179.288	0.727	1	incongruent	Block2	incongruent/STIM_001.jpg
1183.634	0.67	1	incongruent	Block2	incongruent/STIM_002.jpg
1187.304	0.85	1	incongruent	Block2	incongruent/STIM_002.jpg
1191.926	1.234	1	incongruent	Block2	incongruent/STIM_002.jpg
1196.369	0.852	1	incongruent	Block2	incongruent/STIM_002.jpg
1199.567	0.782	1	incongruent	Block2	incongruent/STIM_002.jpg
1203.658	0.778	1	incongruent	Block2	incongruent/STIM_003.jpg
1206.938	1.31	1	incongruent	Block2	incongruent/STIM_003.jpg
1210.895	0.601	1	incongruent	Block2	incongruent/STIM_003.jpg
1214.481	0.792	1	incongruent	Block2	incongruent/STIM_003.jpg
1218.829	0.715	1	incongruent	Block2	incongruent/STIM_003.jpg
1221.701	1.096	1	incongruent	Block2	incongruent/STIM_004.jpg
1225.112	1.089	1	incongruent	Block2	incongruent/STIM_004.jpg
1228.415	0.986	1	incongruent	Block2	incongruent/STIM_004.jpg
1232.764	1.178	1	incongruent	Block2	incongruent/STIM_004.jpg
1237.091	0.797	0	incongruent	Block2	incongruent/STIM_004.jpg
1240.891	1.178	1	incongruent	Block2	incongruent/STIM_005.jpg
1244.709	1.094	1	incongruent	Block2	incongruent/STIM_005.jpg
1247.951	0.994	1	incongruent	Block2	incongruent/STIM_005.jpg
1250.851	0.598	1	incongruent	Block2	incongruent/STIM_005.jpg
1254.122	1.008	1	incongruent	Block2	incongruent/STIM_005.jpg
1258.288	1.123	1	incongruent	Block2	incongruent/STIM_006.jpg
1263.138	1.449	1	incongruent	Block2	incongruent/STIM_006.jpg
1266.403	0.934	1	incongruent	Block2	incongruent/STIM_006.jpg
1269.477	0.52	1	incongruent	Block2	incongruent/STIM_006.jpg
1273.575	0.681	1	incongruent	Block2	incongruent/STIM_006.jpg
1277.602	0.865	1	incongruent	Block2	incongruent/STIM_007.jpg
1281.454	1.359	1	incongruent	Block2	incongruent/STIM_007.jpg
1286.405	0.726	1	incongruent	Block2	incongruent/STIM_007.jpg
1289.648	0.845	1	incongruent	Block2	incongruent/STIM_007.jpg
1292.859	0.94	1	incongruent	Block2	incongruent/STIM_007.jpg
1297.05	1.222	1	incongruent	Block2	incongruent/STIM_008.jpg
1300.282	1.128	1	incongruent	Block2	incongruent/STIM_008.jpg
1303.702	1.213	1	incongruent	Block2	incongruent/STIM_008.jpg
1308.275	0.994	1	incongruent	Block2	incongruent/STIM_008.jpg
1312.358	0.747	1	incongruent	Block2	incongruent/STIM_008.jpg
1315.615	1.178	1	incongruent	Block2	incongruent/STIM_009.jpg
1319.827	1.036	1	incongruent	Block2	incongruent/STIM_009.jpg
1324.513	0.704	1	incongruent	Block2	incongruent/STIM_009.jpg
1327.583	0.606	1	incongruent	Block2	incongruent/STIM_009.jpg
1330.616	0.981	1	incongruent	Block2	incongruent/STIM_009.jpg
1334.527	1.153	1	incongruent	Block2	incongruent/STIM_010.jpg
1338.521	0.854	1	incongruent	Block2	incongruent/STIM_010.jpg
1342.39	1.218	1	incongruent	Block2	incongruent/STIM_010.jpg
1347.019	0.898	1	incongruent	Block2	incongruent/STIM_010.jpg
1350.3	0.805	1	incongruent	Block2	incongruent/STIM_010.jpg
1354.706	0.799	1	incongruent	Block2	incongruent/STIM_011.jpg
1358.338	0.98	1	incongruent	Block2	incongruent/STIM_011.jpg
1361.262	0.584	1	incongruent	Block2	incongruent/STIM_011.jpg
1365.593	1.212	1	incongruent	Block2	incongruent/STIM_011.jpg
1370.273	0.683	1	incongruent	Block2	incongruent/STIM_011.jpg
1372.961	0.699	1	incongruent	Block2	incongruent/STIM_012.jpg
1376.698	0.799	1	incongruent	Block2	incongruent/STIM_012.jpg
1381.264	0.91	1	incongruent	Block2	incongruent/STIM_012.jpg
1385.018	0.567	1	incongruent	Block2	incongruent/STIM_012.jpg
1389.241	0.709	1	incongruent	Block2	incongruent/STIM_012.jpg
1393.254	1.167	1	incongruent	Block2	incongruent/STIM_013.jpg
1396.443	0.818	1	incongruent	Block2	incongruent/STIM_013.jpg
1401.196	0.813	1	incongruent	Block2	incongruent/STIM_013.jpg
1404.172	0.633	1	incongruent	Block2	incongruent/STIM_013.jpg
1408.235	0.892	1	incongruent	Block2	incongruent/STIM_013.jpg
1411.433	0.862	1	incongruent	Block2	incongruent/STIM_014.jpg
1415.535	1.27	1	incongruent	Block2	incongruent/STIM_014.jpg
1419.345	1.173	1	incongruent	Block2	incongruent/STIM_014.jpg
1423.437	0.828	1	incongruent	Block2	incongruent/STIM_014.jpg
1427.335	1.112	1	incongruent	Block2	incongruent/STIM_014.jpg
1430.89	1.153	1	incongruent	Block2	incongruent/STIM_015.jpg
1435.54	0.694	1	incongruent	Block2	incongruent/STIM_015.jpg
1438.281	0.871	1	incongruent	Block2	incongruent/STIM_015.jpg
1442.203	0.668	1	incongruent	Block2	incongruent/STIM_015.jpg
1446.308	0.649	1	incongruent	Block2	incongruent/STIM_015.jpg
1449.551	1.33	1	incongruent	Block2	incongruent/STIM_016.jpg
1454.366	1.335	1	incongruent	Block2	incongruent/STIM_016.jpg
1457.882	0.637	0	incongruent	Block2	incongruent/STIM_016.jpg
1460.905	0.671	0	incongruent	Block2	incongruent/STIM_016.jpg
1464.088	0.928	1	incongruent	Block2	incongruent/STIM_016.jpg
1468.519	0.679	1	incongruent	Block2	incongruent/STIM_017.jpg
1472.775	0.766	1	incongruent	Block2	incongruent/STIM_017.jpg
1476.321	0.764	0	incongruent	Block2	incongruent/STIM_017.jpg
1479.272	0.968	1	incongruent	Block2	incongruent/STIM_017.jpg
1482.661	0.467	1	incongruent	Block2	incongruent/STIM_017.jpg
1485.752	0.919	1	incongruent	Block2	incongruent/STIM_018.jpg
1490.078	1.372	1	incongruent	Block2	incongruent/STIM_018.jpg
1493.725	1.251	1	incongruent	Block2	incongruent/STIM_018.jpg
1497.455	1.235	1	incongruent	Block2	incongruent/STIM_018.jpg
1501.993	0.658	1	incongruent	Block2	incongruent/STIM_018.jpg
1506.153	1.354	1	incongruent	Block2	incongruent/STIM_019.jpg
1511.36	1.141	1	incongruent	Block2	incongruent/STIM_019.jpg
1515.928	0.956	1	incongruent	Block2	incongruent/STIM_019.jpg
1520.355	0.985	1	incongruent	Block2	incongruent/STIM_019.jpg
1523.543	0.669	1	incongruent	Block2	incongruent/STIM_019.jpg
1526.227	1.331	1	incongruent	Block2	incongruent/STIM_020.jpg
1529.949	1.027	1	incongruent	Block2	incongruent/STIM_020.jpg
1533.583	0.989	1	incongruent	Block2	incongruent/STIM_020.jpg
1536.853	0.973	1	incongruent	Block2	incongruent/STIM_020.jpg
1540.922	0.774	1	incongruent	Block2	incongruent/STIM_020.jpg
1545.253	1.253	1	incongruent	Block2	incongruent/STIM_021.jpg
1549.66	0.958	1	incongruent	Block2	incongruent/STIM_021.jpg
1554.489	1.163	1	incongruent	Block2	incongruent/STIM_021.jpg
1558.021	0.918	1	incongruent	Block2	incongruent/STIM_021.jpg
1560.796	0.544	1	incongruent	Block2	incongruent/STIM_021.jpg
1565.284	1.02	1	incongruent	Block2	incongruent/STIM_022.jpg
1568.944	0.925	0	incongruent	Block2	incongruent/STIM_022.jpg
1572.761	0.804	1	incongruent	Block2	incongruent/STIM_022.jpg
1576.148	0.955	1	incongruent	Block2	incongruent/STIM_022.jpg
1579.444	1.037	1	incongruent	Block2	incongruent/STIM_022.jpg
1584.242	1.339	1	incongruent	Block2	incongruent/STIM_023.jpg
1589.036	0.92	1	incongruent	Block2	incongruent/STIM_023.jpg
1592.672	0.626	1	incongruent	Block2	incongruent/STIM_023.jpg
1596.884	0.863	1	incongruent	Block2	incongruent/STIM_023.jpg
1600.401	0.786	1	incongruent	Block2	incongruent/STIM_023.jpg
1604.981	1.278	1	incongruent	Block2	incongruent/STIM_024.jpg
1609.975	0.832	1	incongruent	Block2	incongruent/STIM_024.jpg
1613.224	1.162	1	incongruent	Block2	incongruent/STIM_024.jpg
1617.402	0.777	1	incongruent	Block2	incongruent/STIM_024.jpg
1621.295	0.978	1	incongruent	Block2	incongruent/STIM_024.jpg
1624.246	0.696	1	incongruent	Block2	incongruent/STIM_025.jpg
1628.441	0.85	1	incongruent	Block2	incongruent/STIM_025.jpg
1632.798	1.105	0	incongruent	Block2	incongruent/STIM_025.jpg
1636.396	0.772	1	incongruent	Block2	incongruent/STIM_025.jpg
1640.015	1.154	1	incongruent	Block2	incongruent/STIM_025.jpg
1643.229	0.981	1	incongruent	Block2	incongruent/STIM_026.jpg
1646.333	1.14	1	incongruent	Block2	incongruent/STIM_026.jpg
1650.551	0.96	1	incongruent	Block2	incongruent/STIM_026.jpg
1654.036	0.711	1	incongruent	Block2	incongruent/STIM_026.jpg
1658.297	0.9	1	incongruent	Block2	incongruent/STIM_026.jpg
1662.083	0.718	1	incongruent	Block2	incongruent/STIM_027.jpg
1666.537	0.75	1	incongruent	Block2	incongruent/STIM_027.jpg
1669.607	0.885	1	incongruent	Block2	incongruent/STIM_027.jpg
1674.001	0.625	1	incongruent	Block2	incongruent/STIM_027.jpg
1677.068	1.097	1	incongruent	Block2	incongruent/STIM_027.jpg
1681.642	1.244	1	incongruent	Block2	incongruent/STIM_028.jpg
1686.439	0.87	1	incongruent	Block2	incongruent/STIM_028.jpg
1689.782	0.974	1	incongruent	Block2	incongruent/STIM_028.jpg
1693.109	1.077	1	incongruent	Block2	incongruent/STIM_028.jpg
1696.678	1.177	1	incongruent	Block2	incongruent/STIM_028.jpg
1700.284	1.159	1	incongruent	Block2	incongruent/STIM_029.jpg
1703.905	0.856	1	incongruent	Block2	incongruent/STIM_029.jpg
1707.942	1.037	1	incongruent	Block2	incongruent/STIM_029.jpg
1711.057	1.052	1	incongruent	Block2	incongruent/STIM_029.jpg
1715.309	0.926	0	incongruent	Block2	incongruent/STIM_029.jpg
1719.663	0.899	0	congruent	Block2	congruent/STIM_000.jpg
1723.429	0.682	1	congruent	Block2	congruent/STIM_000.jpg
1727.913	0.575	1	congruent	Block2	congruent/STIM_000.jpg
1730.897	0.815	1	congruent	Block2	congruent/STIM_000.jpg
1734.294	0.879	1	congruent	Block2	congruent/STIM_000.jpg
1738.141	0.944	1	congruent	Block2	congruent/STIM_001.jpg
1741.933	0.64	1	congruent	Block2	congruent/STIM_001.jpg
1744.744	0.96	1	congruent	Block2	congruent/STIM_001.jpg
1748.27	0.863	1	congruent	Block2	congruent/STIM_001.jpg
1751.152	0.875	1	congruent	Block2	congruent/STIM_001.jpg
1755.195	0.904	1	congruent	Block2	congruent/STIM_002.jpg
1759.372	0.922	1	congruent	Block2	congruent/STIM_002.jpg
1762.948	0.845	1	congruent	Block2	congruent/STIM_002.jpg
1767.466	0.945	1	congruent	Block2	congruent/STIM_002.jpg
1771.533	0.797	1	congruent	Block2	congruent/STIM_002.jpg
1774.67	0.907	1	congruent	Block2	congruent/STIM_003.jpg
1778.358	0.8	1	congruent	Block2	congruent/STIM_003.jpg
1782.837	0.92	1	congruent	Block2	congruent/STIM_003.jpg
1786.303	0.58	1	congruent	Block2	congruent/STIM_003.jpg
1789.598	0.664	1	congruent	Block2	congruent/STIM_003.jpg
1792.448	0.757	1	congruent	Block2	congruent/STIM_004.jpg
1795.912	0.934	1	congruent	Block2	congruent/STIM_004.jpg
1799.723	0.598	1	congruent	Block2	congruent/STIM_004.jpg
1803.862	0.82	1	congruent	Block2	congruent/STIM_004.jpg
1806.865	0.878	1	congruent	Block2	congruent/STIM_004.jpg
1810.979	0.941	1	congruent	Block2	congruent/STIM_005.jpg
1814.355	0.947	1	congruent	Block2	congruent/STIM_005.jpg
1818.454	0.837	1	congruent	Block2	congruent/STIM_005.jpg
1821.664	0.908	0	congruent	Block2	congruent/STIM_005.jpg
1826.32	0.756	1	congruent	Block2	congruent/STIM_005.jpg
1829.869	0.965	1	congruent	Block2	congruent/STIM_006.jpg
1834.387	0.955	1	congruent	Block2	congruent/STIM_006.jpg
1838.171	1.043	1	congruent	Block2	congruent/STIM_006.jpg
1841.657	0.945	1	congruent	Block2	congruent/STIM_006.jpg
1845.31	0.878	1	congruent	Block2	congruent/STIM_006.jpg
1848.353	0.851	0	congruent	Block2	congruent/STIM_007.jpg
1851.411	0.82	1	congruent	Block2	congruent/STIM_007.jpg
1854.229	0.666	1	congruent	Block2	congruent/STIM_007.jpg
1858.262	0.91	1	congruent	Block2	congruent/STIM_007.jpg
1861.884	0.972	1	congruent	Block2	congruent/STIM_007.jpg
1865.35	0.742	1	congruent	Block2	congruent/STIM_008.jpg
1868.976	0.953	1	congruent	Block2	congruent/STIM_008.jpg
1873.495	0.685	1	congruent	Block2	congruent/STIM_008.jpg
1876.877	0.988	1	congruent	Block2	congruent/STIM_008.jpg
1881.082	0.764	1	congruent	Block2	congruent/STIM_008.jpg
1884.936	0.794	1	congruent	Block2	congruent/STIM_009.jpg
1889.459	0.705	1	congruent	Block2	congruent/STIM_009.jpg
1892.29	0.624	1	congruent	Block2	congruent/STIM_009.jpg
1894.974	0.531	1	congruent	Block2	congruent/STIM_009.jpg
1897.838	1.01	1	congruent	Block2	congruent/STIM_009.jpg
1900.784	0.904	1	congruent	Block2	congruent/STIM_010.jpg
1905.251	0.846	0	congruent	Block2	congruent/STIM_010.jpg
1909.896	0.847	1	congruent	Block2	congruent/STIM_010.jpg
1914.424	0.828	1	congruent	Block2	congruent/STIM_010.jpg
1918.916	0.909	1	congruent	Block2	congruent/STIM_010.jpg
1923.713	0.89	1	congruent	Block2	congruent/STIM_011.jpg
1928.522	0.82	1	congruent	Block2	congruent/STIM_011.jpg
1932.504	0.941	1	congruent	Block2	congruent/STIM_011.jpg
1936.586	0.61	1	congruent	Block2	congruent/STIM_011.jpg
1940.301	0.681	1	congruent	Block2	congruent/STIM_011.jpg
1943.557	0.53	1	congruent	Block2	congruent/STIM_012.jpg
1946.758	0.642	1	congruent	Block2	congruent/STIM_012.jpg
1949.37	0.767	1	congruent	Block2	congruent/STIM_012.jpg
1953.737	1.068	1	congruent	Block2	congruent/STIM_012.jpg
1957.666	0.957	1	congruent	Block2	congruent/STIM_012.jpg
1960.915	0.898	1	congruent	Block2	congruent/STIM_013.jpg
1963.734	0.823	1	congruent	Block2	congruent/STIM_013.jpg
1967.172	0.836	1	congruent	Block2	congruent/STIM_013.jpg
1970.667	0.58	1	congruent	Block2	congruent/STIM_013.jpg
1975.056	0.983	1	congruent	Block2	congruent/STIM_013.jpg
1978.554	0.634	1	congruent	Block2	congruent/STIM_014.jpg
1981.761	0.812	1	congruent	Block2	congruent/STIM_014.jpg
1985.299	0.668	1	congruent	Block2	congruent/STIM_014.jpg
1989.591	0.96	1	congruent	Block2	congruent/STIM_014.jpg
1993.329	1.002	1	congruent	Block2	congruent/STIM_014.jpg
1997.182	0.855	1	congruent	Block2	congruent/STIM_015.jpg
2000.003	0.876	1	congruent	Block2	congruent/STIM_015.jpg
2003.446	0.987	1	congruent	Block2	congruent/STIM_015.jpg
2007.692	0.657	1	congruent	Block2	congruent/STIM_015.jpg
2011.714	0.776	1	congruent	Block2	congruent/STIM_015.jpg
2014.444	0.684	1	congruent	Block2	congruent/STIM_016.jpg
2018.083	0.667	1	congruent	Block2	congruent/STIM_016.jpg
2021.357	0.781	1	congruent	Block2	congruent/STIM_016.jpg
2025.568	0.911	1	congruent	Block2	congruent/STIM_016.jpg
2029.36	0.931	1	congruent	Block2	congruent/STIM_016.jpg
2033.556	1.017	1	congruent	Block2	congruent/STIM_017.jpg
2036.991	1.076	1	congruent	Block2	congruent/STIM_017.jpg
2041.347	0.957	1	congruent	Block2	congruent/STIM_017.jpg
2044.705	0.787	1	congruent	Block2	congruent/STIM_017.jpg
2047.473	0.943	1	congruent	Block2	congruent/STIM_017.jpg
2051.261	0.649	1	congruent	Block2	congruent/STIM_018.jpg
2055.722	0.932	1	congruent	Block2	congruent/STIM_018.jpg
2059.877	0.579	1	congruent	Block2	congruent/STIM_018.jpg
2062.906	0.856	1	congruent	Block2	congruent/STIM_018.jpg
2066.947	0.78	1	congruent	Block2	congruent/STIM_018.jpg
2070.967	0.805	1	congruent	Block2	congruent/STIM_019.jpg
2075.022	0.954	1	congruent	Block2	congruent/STIM_019.jpg
2079.118	0.712	1	congruent	Block2	congruent/STIM_019.jpg
2082.11	0.714	1	congruent	Block2	congruent/STIM_019.jpg
2086.006	0.865	1	congruent	Block2	congruent/STIM_019.jpg
2090.129	0.503	1	congruent	Block2	congruent/STIM_020.jpg
2094.362	1.067	1	congruent	Block2	congruent/STIM_020.jpg
2098.937	0.751	0	congruent	Block2	congruent/STIM_020.jpg
2102.805	0.681	1	congruent	Block2	congruent/STIM_020.jpg
2106.724	0.599	1	congruent	Block2	congruent/STIM_020.jpg
2109.795	0.794	1	congruent	Block2	congruent/STIM_021.jpg
2112.603	0.874	1	congruent	Block2	congruent/STIM_021.jpg
2117.254	0.668	1	congruent	Block2	congruent/STIM_021.jpg
2120.399	0.617	1	congruent	Block2	congruent/STIM_021.jpg
2124.582	0.785	1	congruent	Block2	congruent/STIM_021.jpg
2128.957	0.74	1	congruent	Block2	congruent/STIM_022.jpg
2132.492	0.755	1	congruent	Block2	congruent/STIM_022.jpg
2136.033	0.79	1	congruent	Block2	congruent/STIM_022.jpg
2139.213	0.91	1	congruent	Block2	congruent/STIM_022.jpg
2143.188	0.697	1	congruent	Block2	congruent/STIM_022.jpg
2146.361	1.051	1	congruent	Block2	congruent/STIM_023.jpg
2149.794	0.544	1	congruent	Block2	congruent/STIM_023.jpg
2153.525	0.68	1	congruent	Block2	congruent/STIM_023.jpg
2156.549	0.797	1	congruent	Block2	congruent/STIM_023.jpg
2160.616	0.696	1	congruent	Block2	congruent/STIM_023.jpg
2163.825	0.848	1	congruent	Block2	congruent/STIM_024.jpg
2167.761	0.914	1	congruent	Block2	congruent/STIM_024.jpg
2171.516	0.801	0	congruent	Block2	congruent/STIM_024.jpg
2176.053	1.037	1	congruent	Block2	congruent/STIM_024.jpg
2180.577	0.6	1	congruent	Block2	congruent/STIM_024.jpg
2184.604	0.682	1	congruent	Block2	congruent/STIM_025.jpg
2188.138	0.559	1	congruent	Block2	congruent/STIM_025.jpg
2191.437	0.741	1	congruent	Block2	congruent/STIM_025.jpg
2195.223	0.908	1	congruent	Block2	congruent/STIM_025.jpg
2198.857	0.694	1	congruent	Block2	congruent/STIM_025.jpg
2203.381	0.614	1	congruent	Block2	congruent/STIM_026.jpg
2207.067	0.823	1	congruent	Block2	congruent/STIM_026.jpg
2211.236	0.958	1	congruent	Block2	congruent/STIM_026.jpg
2215.944	0.72	1	congruent	Block2	congruent/STIM_026.jpg
2219.146	0.796	1	congruent	Block2	congruent/STIM_026.jpg
2222.096	0.889	1	congruent	Block2	congruent/STIM_027.jpg
2226.038	0.912	1	congruent	Block2	congruent/STIM_027.jpg
2229.333	0.647	1	congruent	Block2	congruent/STIM_027.jpg
2232.868	0.623	1	congruent	Block2	congruent/STIM_027.jpg
2236.999	0.794	1	congruent	Block2	congruent/STIM_027.jpg
2240.563	0.792	1	congruent	Block2	congruent/STIM_028.jpg
2243.316	0.86	1	congruent	Block2	congruent/STIM_028.jpg
2246.81	0.861	1	congruent	Block2	congruent/STIM_028.jpg
2250.098	0.79	1	congruent	Block2	congruent/STIM_028.jpg
2253.413	0.842	1	congruent	Block2	congruent/STIM_028.jpg
2256.274	0.646	0	congruent	Block2	congruent/STIM_029.jpg
2260.327	0.761	1	congruent	Block2	congruent/STIM_029.jpg
2264.773	0.846	1	congruent	Block2	congruent/STIM_029.jpg
2268.091	0.639	1	congruent	Block2	congruent/STIM_029.jpg
2272.042	0.827	1	congruent	Block2	congruent/STIM_029.jpg
2275.167	0.79	1	incongruent	Block3	incongruent/STIM_000.jpg
2278.483	0.84	1	incongruent	Block3	incongruent/STIM_000.jpg
2282.655	0.967	1	incongruent	Block3	incongruent/STIM_000.jpg
2285.961	1.062	1	incongruent	Block3	incongruent/STIM_000.jpg
2289.086	1.082	1	incongruent	Block3	incongruent/STIM_000.jpg
2292.555	1.106	1	incongruent	Block3	incongruent/STIM_001.jpg
2296.82	0.56	1	incongruent	Block3	incongruent/STIM_001.jpg
2300.628	1.091	1	incongruent	Block3	incongruent/STIM_001.jpg
2303.667	0.8	1	incongruent	Block3	incongruent/STIM_001.jpg
2308.068	0.909	1	incongruent	Block3	incongruent/STIM_001.jpg
2312.049	0.674	1	incongruent	Block3	incongruent/STIM_002.jpg
2316.114	0.584	1	incongruent	Block3	incongruent/STIM_002.jpg
2319.18	0.571	1	incongruent	Block3	incongruent/STIM_002.jpg
2322.648	0.659	1	incongruent	Block3	incongruent/STIM_002.jpg
2325.505	1.222	1	incongruent	Block3	incongruent/STIM_002.jpg
2329.808	0.699	1	incongruent	Block3	incongruent/STIM_003.jpg
2332.626	0.716	1	incongruent	Block3	incongruent/STIM_003.jpg
2336.259	0.891	1	incongruent	Block3	incongruent/STIM_003.jpg
2340.282	0.894	1	incongruent	Block3	incongruent/STIM_003.jpg
2343.176	1.042	1	incongruent	Block3	incongruent/STIM_003.jpg
2347.411	0.987	1	incongruent	Block3	incongruent/STIM_004.jpg
2351.29	1.043	1	incongruent	Block3	incongruent/STIM_004.jpg
2355.716	0.948	1	incongruent	Block3	incongruent/STIM_004.jpg
2359.808	0.588	0	incongruent	Block3	incongruent/STIM_004.jpg
2363.384	0.592	1	incongruent	Block3	incongruent/STIM_004.jpg
2366.643	0.919	1	incongruent	Block3	incongruent/STIM_005.jpg
2369.74	0.74	1	incongruent	Block3	incongruent/STIM_005.jpg
2372.664	1.139	1	incongruent	Block3	incongruent/STIM_005.jpg
2376.706	0.932	1	incongruent	Block3	incongruent/STIM_005.jpg
2380.899	1.065	1	incongruent	Block3	incongruent/STIM_005.jpg
2384.648	0.767	1	incongruent	Block3	incongruent/STIM_006.jpg
2389.209	0.826	1	incongruent	Block3	incongruent/STIM_006.jpg
2392.748	0.639	1	incongruent	Block3	incongruent/STIM_006.jpg
2396.661	0.767	1	incongruent	Block3	incongruent/STIM_006.jpg
2399.892	1.089	1	incongruent	Block3	incongruent/STIM_006.jpg
2403.732	0.588	1	incongruent	Block3	incongruent/STIM_007.jpg
2406.508	0.726	1	incongruent	Block3	incongruent/STIM_007.jpg
2409.775	0.745	1	incongruent	Block3	incongruent/STIM_007.jpg
2414.055	1.184	1	incongruent	Block3	incongruent/STIM_007.jpg
2418.014	1.139	1	incongruent	Block3	incongruent/STIM_007.jpg
2421.223	1.117	1	incongruent	Block3	incongruent/STIM_008.jpg
2425.42	0.747	1	incongruent	Block3	incongruent/STIM_008.jpg
2428.664	0.835	1	incongruent	Block3	incongruent/STIM_008.jpg
2433.228	1.132	1	incongruent	Block3	incongruent/STIM_008.jpg
2437.205	1.072	1	incongruent	Block3	incongruent/STIM_008.jpg
2441.29	1.018	1	incongruent	Block3	incongruent/STIM_009.jpg
2444.779	1.008	1	incongruent	Block3	incongruent/STIM_009.jpg
2448.47	0.465	1	incongruent	Block3	incongruent/STIM_009.jpg
2451.017	0.591	1	incongruent	Block3	incongruent/STIM_009.jpg
2453.594	0.909	1	incongruent	Block3	incongruent/STIM_009.jpg
2458.018	1.091	1	incongruent	Block3	incongruent/STIM_010.jpg
2462.612	1.096	1	incongruent	Block3	incongruent/STIM_010.jpg
2465.709	0.743	1	incongruent	Block3	incongruent/STIM_010.jpg
2468.844	0.682	1	incongruent	Block3	incongruent/STIM_010.jpg
2472.44	1.13	1	incongruent	Block3	incongruent/STIM_010.jpg
2475.676	1.102	1	incongruent	Block3	incongruent/STIM_011.jpg
2478.969	0.984	1	incongruent	Block3	incongruent/STIM_011.jpg
2481.919	0.902	1	incongruent	Block3	incongruent/STIM_011.jpg
2486.56	1.1	1	incongruent	Block3	incongruent/STIM_011.jpg
2491.298	0.53	1	incongruent	Block3	incongruent/STIM_011.jpg
2494.443	0.792	1	incongruent	Block3	incongruent/STIM_012.jpg
2497.182	0.844	1	incongruent	Block3	incongruent/STIM_012.jpg
2499.934	0.897	1	incongruent	Block3	incongruent/STIM_012.jpg
2503.632	0.957	1	incongruent	Block3	incongruent/STIM_012.jpg
2507.318	0.619	1	incongruent	Block3	incongruent/STIM_012.jpg
2510.21	0.851	1	incongruent	Block3	incongruent/STIM_013.jpg
2514.795	0.512	1	incongruent	Block3	incongruent/STIM_013.jpg
2518.452	0.939	1	incongruent	Block3	incongruent/STIM_013.jpg
2522.988	0.957	1	incongruent	Block3	incongruent/STIM_013.jpg
2527.036	0.747	1	incongruent	Block3	incongruent/STIM_013.jpg
2529.99	0.747	1	incongruent	Block3	incongruent/STIM_014.jpg
2533.591	0.92	1	incongruent	Block3	incongruent/STIM_014.jpg
2537.309	0.58	0	incongruent	Block3	incongruent/STIM_014.jpg
2541.659	0.665	1	incongruent	Block3	incongruent/STIM_014.jpg
2544.712	0.966	1	incongruent	Block3	incongruent/STIM_014.jpg
2548.108	0.94	1	incongruent	Block3	incongruent/STIM_015.jpg
2551.802	1.035	1	incongruent	Block3	incongruent/STIM_015.jpg
2556.002	0.956	1	incongruent	Block3	incongruent/STIM_015.jpg
2560.804	0.948	1	incongruent	Block3	incongruent/STIM_015.jpg
2565.46	1.088	1	incongruent	Block3	incongruent/STIM_015.jpg
2570.011	0.683	1	incongruent	Block3	incongruent/STIM_016.jpg
2572.92	0.987	1	incongruent	Block3	incongruent/STIM_016.jpg
2577.015	0.59	1	incongruent	Block3	incongruent/STIM_016.jpg
2580.755	1.114	1	incongruent	Block3	incongruent/STIM_016.jpg
2584.092	1.018	1	incongruent	Block3	incongruent/STIM_016.jpg
2588.833	0.642	1	incongruent	Block3	incongruent/STIM_017.jpg
2591.728	0.688	1	incongruent	Block3	incongruent/STIM_017.jpg
2595.441	0.952	1	incongruent	Block3	incongruent/STIM_017.jpg
2598.36	0.755	1	incongruent	Block3	incongruent/STIM_017.jpg
2602.247	0.76	1	incongruent	Block3	incongruent/STIM_017.jpg
2605.426	1.004	1	incongruent	Block3	incongruent/STIM_018.jpg
2609.536	0.604	1	incongruent	Block3	incongruent/STIM_018.jpg
2613.792	1.169	1	incongruent	Block3	incongruent/STIM_018.jpg
2618.513	0.602	1	incongruent	Block3	incongruent/STIM_018.jpg
2621.395	1.219	1	incongruent	Block3	incongruent/STIM_018.jpg
2625.188	0.911	1	incongruent	Block3	incongruent/STIM_019.jpg
2628.594	0.771	1	incongruent	Block3	incongruent/STIM_019.jpg
2632.794	0.682	1	incongruent	Block3	incongruent/STIM_019.jpg
2636.138	0.775	1	incongruent	Block3	incongruent/STIM_019.jpg
2640.738	0.562	1	incongruent	Block3	incongruent/STIM_019.jpg
2643.887	1.13	1	incongruent	Block3	incongruent/STIM_020.jpg
2647.405	0.574	1	incongruent	Block3	incongruent/STIM_020.jpg
2650.088	0.849	1	incongruent	Block3	incongruent/STIM_020.jpg
2653.782	1.102	1	incongruent	Block3	incongruent/STIM_020.jpg
2657.627	1.223	1	incongruent	Block3	incongruent/STIM_020.jpg
2661.242	0.824	1	incongruent	Block3	incongruent/STIM_021.jpg
2665.487	0.817	1	incongruent	Block3	incongruent/STIM_021.jpg
2669.555	0.63	1	incongruent	Block3	incongruent/STIM_021.jpg
2673.706	0.769	1	incongruent	Block3	incongruent/STIM_021.jpg
2676.919	0.707	1	incongruent	Block3	incongruent/STIM_021.jpg
2681.094	1.062	1	incongruent	Block3	incongruent/STIM_022.jpg
2685.872	0.65	1	incongruent	Block3	incongruent/STIM_022.jpg
2690.104	0.912	1	incongruent	Block3	incongruent/STIM_022.jpg
2693.527	0.958	1	incongruent	Block3	incongruent/STIM_022.jpg
2697.699	0.845	1	incongruent	Block3	incongruent/STIM_022.jpg
2700.623	0.871	1	incongruent	Block3	incongruent/STIM_023.jpg
2704.906	1.0	1	incongruent	Block3	incongruent/STIM_023.jpg
2708.214	0.911	1	incongruent	Block3	incongruent/STIM_023.jpg
2711.629	1.089	1	incongruent	Block3	incongruent/STIM_023.jpg
2716.336	0.754	1	incongruent	Block3	incongruent/STIM_023.jpg
2720.637	0.912	1	incongruent	Block3	incongruent/STIM_024.jpg
2724.909	0.767	1	incongruent	Block3	incongruent/STIM_024.jpg
2728.683	1.094	1	incongruent	Block3	incongruent/STIM_024.jpg
2733.108	0.646	1	incongruent	Block3	incongruent/STIM_024.jpg
2736.813	1.135	1	incongruent	Block3	incongruent/STIM_024.jpg
2740.603	0.65	1	incongruent	Block3	incongruent/STIM_025.jpg
2743.344	0.78	1	incongruent	Block3	incongruent/STIM_025.jpg
2746.792	0.822	1	incongruent	Block3	incongruent/STIM_025.jpg
2750.168	0.658	1	incongruent	Block3	incongruent/STIM_025.jpg
2753.631	0.602	1	incongruent	Block3	incongruent/STIM_025.jpg
2757.815	0.643	1	incongruent	Block3	incongruent/STIM_026.jpg
2761.324	0.701	1	incongruent	Block3	incongruent/STIM_026.jpg
2764.006	0.944	1	incongruent	Block3	incongruent/STIM_026.jpg
2768.193	0.537	1	incongruent	Block3	incongruent/STIM_026.jpg
2771.406	0.811	1	incongruent	Block3	incongruent/STIM_026.jpg
2774.701	0.68	1	incongruent	Block3	incongruent/STIM_027.jpg
2777.802	0.877	1	incongruent	Block3	incongruent/STIM_027.jpg
2781.546	0.647	1	incongruent	Block3	incongruent/STIM_027.jpg
2785.794	1.064	1	incongruent	Block3	incongruent/STIM_027.jpg
2790.401	0.94	1	incongruent	Block3	incongruent/STIM_027.jpg
2794.77	0.662	1	incongruent	Block3	incongruent/STIM_028.jpg
2798.741	1.184	1	incongruent	Block3	incongruent/STIM_028.jpg
2802.996	1.18	1	incongruent	Block3	incongruent/STIM_028.jpg
2806.929	0.916	1	incongruent	Block3	incongruent/STIM_028.jpg
2811.227	0.863	1	incongruent	Block3	incongruent/STIM_028.jpg
2815.889	1.096	1	incongruent	Block3	incongruent/STIM_029.jpg
2818.988	0.81	1	incongruent	Block3	incongruent/STIM_029.jpg
2821.935	0.702	1	incongruent	Block3	incongruent/STIM_029.jpg
2826.386	0.932	1	incongruent	Block3	incongruent/STIM_029.jpg
2830.059	0.954	1	incongruent	Block3	incongruent/STIM_029.jpg
2834.724	0.901	1	congruent	Block3	congruent/STIM_000.jpg
2837.869	0.966	1	congruent	Block3	congruent/STIM_000.jpg
2842.189	0.852	1	congruent	Block3	congruent/STIM_000.jpg
2845.715	0.625	1	congruent	Block3	congruent/STIM_000.jpg
2850.083	0.866	1	congruent	Block3	congruent/STIM_000.jpg
2854.665	0.671	1	congruent	Block3	congruent/STIM_001.jpg
2858.622	0.67	1	congruent	Block3	congruent/STIM_001.jpg
2861.322	0.867	1	congruent	Block3	congruent/STIM_001.jpg
2865.427	0.736	1	congruent	Block3	congruent/STIM_001.jpg
2869.929	0.83	1	congruent	Block3	congruent/STIM_001.jpg
2872.924	1.014	1	congruent	Block3	congruent/STIM_002.jpg
2877.065	1.019	1	congruent	Block3	congruent/STIM_002.jpg
2880.56	0.675	1	congruent	Block3	congruent/STIM_002.jpg
2883.509	0.609	1	congruent	Block3	congruent/STIM_002.jpg
2887.626	0.695	1	congruent	Block3	congruent/STIM_002.jpg
2890.382	0.755	1	congruent	Block3	congruent/STIM_003.jpg
2894.746	0.589	1	congruent	Block3	congruent/STIM_003.jpg
2899.273	0.746	1	congruent	Block3	congruent/STIM_003.jpg
2902.362	0.678	1	congruent	Block3	congruent/STIM_003.jpg
2906.927	0.897	1	congruent	Block3	congruent/STIM_003.jpg
2910.019	0.672	1	congruent	Block3	congruent/STIM_004.jpg
2914.293	0.686	1	congruent	Block3	congruent/STIM_004.jpg
2918.581	0.663	1	congruent	Block3	congruent/STIM_004.jpg
2922.57	0.705	1	congruent	Block3	congruent/STIM_004.jpg
2925.719	0.903	1	congruent	Block3	congruent/STIM_004.jpg
2929.959	0.675	1	congruent	Block3	congruent/STIM_005.jpg
2932.588	0.756	1	congruent	Block3	congruent/STIM_005.jpg
2936.305	0.775	1	congruent	Block3	congruent/STIM_005.jpg
2941.037	0.809	1	congruent	Block3	congruent/STIM_005.jpg
2945.495	0.886	1	congruent	Block3	congruent/STIM_005.jpg
2949.342	0.811	1	congruent	Block3	congruent/STIM_006.jpg
2954.035	0.868	1	congruent	Block3	congruent/STIM_006.jpg
2958.389	0.583	1	congruent	Block3	congruent/STIM_006.jpg
2962.773	1.014	1	congruent	Block3	congruent/STIM_006.jpg
2966.483	0.992	1	congruent	Block3	congruent/STIM_006.jpg
2971.26	0.997	1	congruent	Block3	congruent/STIM_007.jpg
2974.517	0.808	1	congruent	Block3	congruent/STIM_007.jpg
2979.156	0.598	1	congruent	Block3	congruent/STIM_007.jpg
2983.28	0.667	1	congruent	Block3	congruent/STIM_007.jpg
2986.44	0.782	1	congruent	Block3	congruent/STIM_007.jpg
2991.026	0.84	1	congruent	Block3	congruent/STIM_008.jpg
2993.774	0.96	1	congruent	Block3	congruent/STIM_008.jpg
2997.847	0.645	1	congruent	Block3	congruent/STIM_008.jpg
3001.373	0.626	1	congruent	Block3	congruent/STIM_008.jpg
3004.878	0.94	1	congruent	Block3	congruent/STIM_008.jpg
3008.551	0.632	1	congruent	Block3	congruent/STIM_009.jpg
3011.909	0.689	1	congruent	Block3	congruent/STIM_009.jpg
3015.598	0.827	1	congruent	Block3	congruent/STIM_009.jpg
3019.291	0.591	1	congruent	Block3	congruent/STIM_009.jpg
3023.036	0.605	1	congruent	Block3	congruent/STIM_009.jpg
3026.799	0.49	1	congruent	Block3	congruent/STIM_010.jpg
3031.293	0.698	1	congruent	Block3	congruent/STIM_010.jpg
3035.153	0.6	1	congruent	Block3	congruent/STIM_010.jpg
3038.899	0.843	1	congruent	Block3	congruent/STIM_010.jpg
3043.119	0.603	1	congruent	Block3	congruent/STIM_010.jpg
3045.965	0.968	1	congruent	Block3	congruent/STIM_011.jpg
3049.266	1.089	1	congruent	Block3	congruent/STIM_011.jpg
3052.815	0.785	1	congruent	Block3	congruent/STIM_011.jpg
3056.75	0.704	0	congruent	Block3	congruent/STIM_011.jpg
3060.988	0.99	1	congruent	Block3	congruent/STIM_011.jpg
3064.708	0.882	1	congruent	Block3	congruent/STIM_012.jpg
3069.332	0.709	1	congruent	Block3	congruent/STIM_012.jpg
3072.328	0.739	1	congruent	Block3	congruent/STIM_012.jpg
3076.256	0.746	1	congruent	Block3	congruent/STIM_012.jpg
3079.945	0.902	1	congruent	Block3	congruent/STIM_012.jpg
3083.285	0.834	1	congruent	Block3	congruent/STIM_013.jpg
3086.431	0.928	1	congruent	Block3	congruent/STIM_013.jpg
3090.034	0.69	1	congruent	Block3	congruent/STIM_013.jpg
3093.513	0.97	0	congruent	Block3	congruent/STIM_013.jpg
3097.531	0.924	1	congruent	Block3	congruent/STIM_013.jpg
3100.496	0.773	1	congruent	Block3	congruent/STIM_014.jpg
3105.137	0.67	1	congruent	Block3	congruent/STIM_014.jpg
3108.485	0.829	1	congruent	Block3	congruent/STIM_014.jpg
3111.731	0.925	1	congruent	Block3	congruent/STIM_014.jpg
3115.137	0.946	1	congruent	Block3	congruent/STIM_014.jpg
3118.821	0.93	1	congruent	Block3	congruent/STIM_015.jpg
3121.757	0.554	1	congruent	Block3	congruent/STIM_015.jpg
3124.6	0.9	1	congruent	Block3	congruent/STIM_015.jpg
3128.856	0.953	1	congruent	Block3	congruent/STIM_015.jpg
3132.388	0.773	1	congruent	Block3	congruent/STIM_015.jpg
3135.779	0.66	1	congruent	Block3	congruent/STIM_016.jpg
3138.339	0.708	1	congruent	Block3	congruent/STIM_016.jpg
3141.77	0.957	1	congruent	Block3	congruent/STIM_016.jpg
3144.805	0.711	1	congruent	Block3	congruent/STIM_016.jpg
3149.15	0.804	1	congruent	Block3	congruent/STIM_016.jpg
3153.303	0.974	1	congruent	Block3	congruent/STIM_017.jpg
3156.262	0.638	1	congruent	Block3	congruent/STIM_017.jpg
3159.714	0.936	1	congruent	Block3	congruent/STIM_017.jpg
3163.576	0.704	1	congruent	Block3	congruent/STIM_017.jpg
3166.348	0.698	1	congruent	Block3	congruent/STIM_017.jpg
3169.458	0.551	1	congruent	Block3	congruent/STIM_018.jpg
3173.686	0.934	0	congruent	Block3	congruent/STIM_018.jpg
3178.155	1.03	1	congruent	Block3	congruent/STIM_018.jpg
3181.357	0.802	1	congruent	Block3	congruent/STIM_018.jpg
3185.848	0.714	1	congruent	Block3	congruent/STIM_018.jpg
3190.024	0.696	1	congruent	Block3	congruent/STIM_019.jpg
3193.136	0.844	1	congruent	Block3	congruent/STIM_019.jpg
3196.544	0.632	1	congruent	Block3	congruent/STIM_019.jpg
3200.261	1.082	1	congruent	Block3	congruent/STIM_019.jpg
3203.366	0.635	1	congruent	Block3	congruent/STIM_019.jpg
3207.559	0.798	1	congruent	Block3	congruent/STIM_020.jpg
3210.635	0.742	1	congruent	Block3	congruent/STIM_020.jpg
3214.09	0.808	1	congruent	Block3	congruent/STIM_020.jpg
3218.506	0.859	0	congruent	Block3	congruent/STIM_020.jpg
3222.171	0.595	1	congruent	Block3	congruent/STIM_020.jpg
3225.474	0.726	1	congruent	Block3	congruent/STIM_021.jpg
3229.272	0.761	1	congruent	Block3	congruent/STIM_021.jpg
3232.276	0.926	1	congruent	Block3	congruent/STIM_021.jpg
3235.783	0.934	1	congruent	Block3	congruent/STIM_021.jpg
3240.123	0.616	1	congruent	Block3	congruent/STIM_021.jpg
3243.534	0.63	1	congruent	Block3	congruent/STIM_022.jpg
3247.66	0.677	1	congruent	Block3	congruent/STIM_022.jpg
3251.098	0.948	1	congruent	Block3	congruent/STIM_022.jpg
3255.262	1.001	1	congruent	Block3	congruent/STIM_022.jpg
3259.71	0.756	1	congruent	Block3	congruent/STIM_022.jpg
3264.107	0.909	1	congruent	Block3	congruent/STIM_023.jpg
3267.51	0.863	1	congruent	Block3	congruent/STIM_023.jpg
3272.01	0.925	1	congruent	Block3	congruent/STIM_023.jpg
3276.051	0.836	1	congruent	Block3	congruent/STIM_023.jpg
3280.095	0.528	1	congruent	Block3	congruent/STIM_023.jpg
3283.615	0.882	1	congruent	Block3	congruent/STIM_024.jpg
3286.569	1.061	1	congruent	Block3	congruent/STIM_024.jpg
3291.336	0.921	1	congruent	Block3	congruent/STIM_024.jpg
3295.601	0.584	1	congruent	Block3	congruent/STIM_024.jpg
3299.666	0.732	1	congruent	Block3	congruent/STIM_024.jpg
3304.294	0.767	1	congruent	Block3	congruent/STIM_025.jpg
3308.333	0.616	0	congruent	Block3	congruent/STIM_025.jpg
3312.82	0.979	1	congruent	Block3	congruent/STIM_025.jpg
3316.965	0.754	1	congruent	Block3	congruent/STIM_025.jpg
3320.616	1.066	1	congruent	Block3	congruent/STIM_025.jpg
3323.649	0.811	1	congruent	Block3	congruent/STIM_026.jpg
3327.589	0.872	1	congruent	Block3	congruent/STIM_026.jpg
3332.328	0.88	1	congruent	Block3	congruent/STIM_026.jpg
3336.68	0.904	1	congruent	Block3	congruent/STIM_026.jpg
3340.83	0.926	1	congruent	Block3	congruent/STIM_026.jpg
3345.269	0.725	1	congruent	Block3	congruent/STIM_027.jpg
3348.994	0.989	1	congruent	Block3	congruent/STIM_027.jpg
3353.171	0.644	1	congruent	Block3	congruent/STIM_027.jpg
3356.955	0.794	1	congruent	Block3	congruent/STIM_027.jpg
3360.585	0.702	1	congruent	Block3	congruent/STIM_027.jpg
3363.534	0.696	1	congruent	Block3	congruent/STIM_028.jpg
3367.816	0.87	1	congruent	Block3	congruent/STIM_028.jpg
3372.143	1.007	1	congruent	Block3	congruent/STIM_028.jpg
3375.801	0.701	1	congruent	Block3	congruent/STIM_028.jpg
3379.472	0.502	1	congruent	Block3	congruent/STIM_028.jpg
3383.781	0.975	1	congruent	Block3	congruent/STIM_029.jpg
3386.678	1.057	1	congruent	Block3	congruent/STIM_029.jpg
3391.245	0.966	1	congruent	Block3	congruent/STIM_029.jpg
3395.523	0.615	1	congruent	Block3	congruent/STIM_029.jpg
3399.568	0.706	0	congruent	Block3	congruent/STIM_029.jpg
