onset	duration	response_time_ms	trial_type	learning_stage	stimulus	response_port
0.0	0.576	575.6	incongruent	Block1	incongruent/STIM_000.jpg	100
2.997	1.062	1061.6	incongruent	Block1	incongruent/STIM_000.jpg	99
6.321	1.057	1056.6	incongruent	Block1	incongruent/STIM_000.jpg	100
11.293	0.639	638.6	incongruent	Block1	incongruent/STIM_000.jpg	100
15.475	0.859	859.0	incongruent	Block1	incongruent/STIM_000.jpg	99
19.625	0.676	675.6	incongruent	Block1	incongruent/STIM_001.jpg	99
24.216	0.854	854.0	incongruent	Block1	incongruent/STIM_001.jpg	99
27.586	0.929	928.6	incongruent	Block1	incongruent/STIM_001.jpg	100
31.531	0.518	518.1	incongruent	Block1	incongruent/STIM_001.jpg	99
34.553	0.475	474.8	incongruent	Block1	incongruent/STIM_001.jpg	99
38.123	0.629	628.7	incongruent	Block1	incongruent/STIM_002.jpg	99
42.666	0.811	811.0	incongruent	Block1	incongruent/STIM_002.jpg	99
47.471	1.052	1051.6	incongruent	Block1	incongruent/STIM_002.jpg	100
51.553	0.673	673.4	incongruent	Block1	incongruent/STIM_002.jpg	100
56.159	0.489	488.7	incongruent	Block1	incongruent/STIM_002.jpg	100
59.985	0.724	724.2	incongruent	Block1	incongruent/STIM_003.jpg	100
63.058	1.029	1029.4	incongruent	Block1	incongruent/STIM_003.jpg	100
67.778	0.713	713.0	incongruent	Block1	incongruent/STIM_003.jpg	99
71.888	0.526	526.2	incongruent	Block1	incongruent/STIM_003.jpg	99
75.11	0.933	932.9	incongruent	Block1	incongruent/STIM_003.jpg	100
78.586	1.121	1121.4	incongruent	Block1	incongruent/STIM_004.jpg	100
82.938	0.729	729.2	incongruent	Block1	incongruent/STIM_004.jpg	99
86.416	0.917	916.7	incongruent	Block1	incongruent/STIM_004.jpg	100
90.243	0.576	576.0	incongruent	Block1	incongruent/STIM_004.jpg	99
93.847	0.705	705.4	incongruent	Block1	incongruent/STIM_004.jpg	99
98.231	0.691	690.9	incongruent	Block1	incongruent/STIM_005.jpg	99
102.172	0.824	824.4	incongruent	Block1	incongruent/STIM_005.jpg	99
105.618	0.766	765.5	incongruent	Block1	incongruent/STIM_005.jpg	99
108.562	0.622	622.3	incongruent	Block1	incongruent/STIM_005.jpg	100
112.69	0.814	814.5	incongruent	Block1	incongruent/STIM_005.jpg	100
116.914	0.992	991.8	incongruent	Block1	incongruent/STIM_006.jpg	99
121.2	0.674	673.5	incongruent	Block1	incongruent/STIM_006.jpg	100
125.166	0.499	499.1	incongruent	Block1	incongruent/STIM_006.jpg	99
128.394	0.971	970.6	incongruent	Block1	incongruent/STIM_006.jpg	100
131.784	0.481	481.4	incongruent	Block1	incongruent/STIM_006.jpg	100
135.012	1.088	1087.7	incongruent	Block1	incongruent/STIM_007.jpg	100
139.369	0.768	768.4	incongruent	Block1	incongruent/STIM_007.jpg	100
142.856	0.657	656.7	incongruent	Block1	incongruent/STIM_007.jpg	100
145.753	0.981	980.8	incongruent	Block1	incongruent/STIM_007.jpg	100
149.916	0.595	594.8	incongruent	Block1	incongruent/STIM_007.jpg	99
153.734	0.77	770.3	incongruent	Block1	incongruent/STIM_008.jpg	99
158.127	1.03	1030.4	incongruent	Block1	incongruent/STIM_008.jpg	99
162.242	0.735	734.7	incongruent	Block1	incongruent/STIM_008.jpg	100
166.32	0.784	784.1	incongruent	Block1	incongruent/STIM_008.jpg	100
171.039	0.923	923.0	incongruent	Block1	incongruent/STIM_008.jpg	99
174.751	1.048	1048.2	incongruent	Block1	incongruent/STIM_009.jpg	99
178.856	0.894	893.5	incongruent	Block1	incongruent/STIM_009.jpg	99
182.278	0.782	781.5	incongruent	Block1	incongruent/STIM_009.jpg	100
185.767	0.738	737.6	incongruent	Block1	incongruent/STIM_009.jpg	99
188.908	0.829	829.3	incongruent	Block1	incongruent/STIM_009.jpg	99
192.493	0.592	592.4	incongruent	Block1	incongruent/STIM_010.jpg	100
195.57	1.118	1118.2	incongruent	Block1	incongruent/STIM_010.jpg	100
200.605	0.844	844.4	incongruent	Block1	incongruent/STIM_010.jpg	100
204.579	0.572	571.6	incongruent	Block1	incongruent/STIM_010.jpg	100
209.135	0.935	935.3	incongruent	Block1	incongruent/STIM_010.jpg	100
213.658	0.955	955.2	incongruent	Block1	incongruent/STIM_011.jpg	100
218.35	0.657	656.9	incongruent	Block1	incongruent/STIM_011.jpg	100
222.697	0.811	811.3	incongruent	Block1	incongruent/STIM_011.jpg	100
226.981	0.523	523.3	incongruent	Block1	incongruent/STIM_011.jpg	100
230.697	0.872	871.9	incongruent	Block1	incongruent/STIM_011.jpg	100
233.77	1.113	1112.9	incongruent	Block1	incongruent/STIM_012.jpg	99
237.071	1.01	1009.8	incongruent	Block1	incongruent/STIM_012.jpg	99
241.141	0.908	908.1	incongruent	Block1	incongruent/STIM_012.jpg	99
245.056	0.503	503.0	incongruent	Block1	incongruent/STIM_012.jpg	100
248.504	0.505	504.6	incongruent	Block1	incongruent/STIM_012.jpg	100
252.606	0.618	617.9	incongruent	Block1	incongruent/STIM_013.jpg	99
255.966	0.693	692.7	incongruent	Block1	incongruent/STIM_013.jpg	100
260.248	0.56	559.9	incongruent	Block1	incongruent/STIM_013.jpg	100
263.661	0.925	925.3	incongruent	Block1	incongruent/STIM_013.jpg	99
267.438	0.707	707.3	incongruent	Block1	incongruent/STIM_013.jpg	99
272.026	0.679	679.1	incongruent	Block1	incongruent/STIM_014.jpg	100
275.021	0.873	873.4	incongruent	Block1	incongruent/STIM_014.jpg	100
277.992	0.626	625.5	incongruent	Block1	incongruent/STIM_014.jpg	99
281.387	0.947	946.7	incongruent	Block1	incongruent/STIM_014.jpg	100
286.233	0.54	540.3	incongruent	Block1	incongruent/STIM_014.jpg	100
289.452	1.156	1156.3	incongruent	Block1	incongruent/STIM_015.jpg	100
293.762	0.684	684.4	incongruent	Block1	incongruent/STIM_015.jpg	100
298.246	0.997	997.4	incongruent	Block1	incongruent/STIM_015.jpg	100
302.244	0.802	802.5	incongruent	Block1	incongruent/STIM_015.jpg	99
306.888	0.688	688.0	incongruent	Block1	incongruent/STIM_015.jpg	99
311.114	1.158	1158.0	incongruent	Block1	incongruent/STIM_016.jpg	100
315.145	0.646	646.2	incongruent	Block1	incongruent/STIM_016.jpg	100
318.083	0.87	870.2	incongruent	Block1	incongruent/STIM_016.jpg	99
322.942	0.531	531.2	incongruent	Block1	incongruent/STIM_016.jpg	99
326.473	0.683	682.6	incongruent	Block1	incongruent/STIM_016.jpg	99
329.584	0.561	560.6	incongruent	Block1	incongruent/STIM_017.jpg	100
333.721	0.922	921.8	incongruent	Block1	incongruent/STIM_017.jpg	100
336.758	0.525	524.9	incongruent	Block1	incongruent/STIM_017.jpg	99
339.409	0.966	965.5	incongruent	Block1	incongruent/STIM_017.jpg	99
343.187	0.779	778.8	incongruent	Block1	incongruent/STIM_017.jpg	99
347.639	0.913	912.6	incongruent	Block1	incongruent/STIM_018.jpg	100
350.866	0.666	666.3	incongruent	Block1	incongruent/STIM_018.jpg	100
353.791	1.043	1043.4	incongruent	Block1	incongruent/STIM_018.jpg	100
357.084	0.791	791.1	incongruent	Block1	incongruent/STIM_018.jpg	100
361.194	0.573	573.2	incongruent	Block1	incongruent/STIM_018.jpg	99
363.768	0.83	829.9	incongruent	Block1	incongruent/STIM_019.jpg	100
368.028	0.882	882.1	incongruent	Block1	incongruent/STIM_019.jpg	100
372.595	0.64	640.4	incongruent	Block1	incongruent/STIM_019.jpg	99
377.203	0.687	686.7	incongruent	Block1	incongruent/STIM_019.jpg	100
380.816	0.659	658.7	incongruent	Block1	incongruent/STIM_019.jpg	99
385.161	0.716	715.5	incongruent	Block1	incongruent/STIM_020.jpg	99
389.819	0.735	735.3	incongruent	Block1	incongruent/STIM_020.jpg	99
393.25	0.857	856.9	incongruent	Block1	incongruent/STIM_020.jpg	99
397.706	0.57	570.3	incongruent	Block1	incongruent/STIM_020.jpg	100
400.9	0.6	599.6	incongruent	Block1	incongruent/STIM_020.jpg	99
404.71	1.009	1009.3	incongruent	Block1	incongruent/STIM_021.jpg	100
409.272	0.76	760.5	incongruent	Block1	incongruent/STIM_021.jpg	99
412.333	0.547	547.0	incongruent	Block1	incongruent/STIM_021.jpg	99
416.61	0.688	687.6	incongruent	Block1	incongruent/STIM_021.jpg	100
420.752	0.89	889.7	incongruent	Block1	incongruent/STIM_021.jpg	99
425.184	0.94	940.1	incongruent	Block1	incongruent/STIM_022.jpg	99
429.122	1.0	1000.2	incongruent	Block1	incongruent/STIM_022.jpg	99
433.362	0.871	871.1	incongruent	Block1	incongruent/STIM_022.jpg	100
436.669	0.905	905.3	incongruent	Block1	incongruent/STIM_022.jpg	99
440.2	0.5	500.4	incongruent	Block1	incongruent/STIM_022.jpg	100
443.708	0.932	931.6	incongruent	Block1	incongruent/STIM_023.jpg	100
447.949	1.042	1042.1	incongruent	Block1	incongruent/STIM_023.jpg	99
451.942	0.809	809.2	incongruent	Block1	incongruent/STIM_023.jpg	99
455.985	0.979	979.1	incongruent	Block1	incongruent/STIM_023.jpg	99
459.794	0.572	572.3	incongruent	Block1	incongruent/STIM_023.jpg	99
463.235	0.986	985.9	incongruent	Block1	incongruent/STIM_024.jpg	99
466.252	1.126	1125.5	incongruent	Block1	incongruent/STIM_024.jpg	100
470.283	0.695	695.0	incongruent	Block1	incongruent/STIM_024.jpg	100
474.779	0.579	578.8	incongruent	Block1	incongruent/STIM_024.jpg	100
477.453	0.732	731.7	incongruent	Block1	incongruent/STIM_024.jpg	100
482.181	0.771	771.1	incongruent	Block1	incongruent/STIM_025.jpg	100
485.52	0.754	753.9	incongruent	Block1	incongruent/STIM_025.jpg	99
489.177	0.51	510.1	incongruent	Block1	incongruent/STIM_025.jpg	99
493.444	0.926	925.8	incongruent	Block1	incongruent/STIM_025.jpg	99
497.474	0.759	759.4	incongruent	Block1	incongruent/STIM_025.jpg	99
500.312	0.976	976.0	incongruent	Block1	incongruent/STIM_026.jpg	100
505.199	1.065	1065.1	incongruent	Block1	incongruent/STIM_026.jpg	99
509.941	1.006	1005.7	incongruent	Block1	incongruent/STIM_026.jpg	100
513.295	0.601	600.9	incongruent	Block1	incongruent/STIM_026.jpg	99
517.716	0.519	519.2	incongruent	Block1	incongruent/STIM_026.jpg	99
521.769	1.019	1018.7	incongruent	Block1	incongruent/STIM_027.jpg	100
526.022	0.849	848.8	incongruent	Block1	incongruent/STIM_027.jpg	99
528.957	0.655	654.7	incongruent	Block1	incongruent/STIM_027.jpg	99
533.42	0.634	633.6	incongruent	Block1	incongruent/STIM_027.jpg	100
537.018	0.945	945.2	incongruent	Block1	incongruent/STIM_027.jpg	100
540.593	1.087	1087.2	incongruent	Block1	incongruent/STIM_028.jpg	100
545.311	1.122	1121.5	incongruent	Block1	incongruent/STIM_028.jpg	100
549.461	0.809	808.9	incongruent	Block1	incongruent/STIM_028.jpg	100
554.195	0.917	917.4	incongruent	Block1	incongruent/STIM_028.jpg	100
558.681	0.881	881.2	incongruent	Block1	incongruent/STIM_028.jpg	99
561.726	0.906	906.0	incongruent	Block1	incongruent/STIM_029.jpg	100
565.788	0.636	635.8	incongruent	Block1	incongruent/STIM_029.jpg	100
568.854	0.736	736.4	incongruent	Block1	incongruent/STIM_029.jpg	99
571.8	0.541	541.1	incongruent	Block1	incongruent/STIM_029.jpg	100
574.76	0.487	486.8	incongruent	Block1	incongruent/STIM_029.jpg	99
577.661	0.656	656.4	congruent	Block1	congruent/STIM_000.jpg	100
581.179	0.649	649.2	congruent	Block1	congruent/STIM_000.jpg	99
584.616	0.707	706.6	congruent	Block1	congruent/STIM_000.jpg	100
589.118	0.493	492.8	congruent	Block1	congruent/STIM_000.jpg	100
592.19	0.642	642.5	congruent	Block1	congruent/STIM_000.jpg	99
595.134	0.516	515.8	congruent	Block1	congruent/STIM_001.jpg	100
599.217	0.443	442.6	congruent	Block1	congruent/STIM_001.jpg	100
603.207	0.507	507.3	congruent	Block1	congruent/STIM_001.jpg	100
606.975	0.434	433.6	congruent	Block1	congruent/STIM_001.jpg	99
611.095	0.561	561.1	congruent	Block1	congruent/STIM_001.jpg	99
615.142	0.465	464.6	congruent	Block1	congruent/STIM_002.jpg	99
618.93	0.492	492.3	congruent	Block1	congruent/STIM_002.jpg	100
621.646	0.684	683.9	congruent	Block1	congruent/STIM_002.jpg	100
626.101	0.689	689.4	congruent	Block1	congruent/STIM_002.jpg	99
630.171	0.65	649.6	congruent	Block1	congruent/STIM_002.jpg	99
634.156	0.683	683.1	congruent	Block1	congruent/STIM_003.jpg	100
638.361	0.463	462.8	congruent	Block1	congruent/STIM_003.jpg	100
641.526	0.532	532.0	congruent	Block1	congruent/STIM_003.jpg	99
645.589	0.699	699.1	congruent	Block1	congruent/STIM_003.jpg	99
648.497	0.557	556.8	congruent	Block1	congruent/STIM_003.jpg	99
652.882	0.418	417.7	congruent	Block1	congruent/STIM_004.jpg	100
656.964	0.619	618.8	congruent	Block1	congruent/STIM_004.jpg	99
660.196	0.421	420.7	congruent	Block1	congruent/STIM_004.jpg	99
663.275	0.661	661.1	congruent	Block1	congruent/STIM_004.jpg	100
665.964	0.408	407.5	congruent	Block1	congruent/STIM_004.jpg	99
669.692	0.7	700.2	congruent	Block1	congruent/STIM_005.jpg	99
672.742	0.566	565.6	congruent	Block1	congruent/STIM_005.jpg	100
676.346	0.412	412.5	congruent	Block1	congruent/STIM_005.jpg	100
679.782	0.473	473.4	congruent	Block1	congruent/STIM_005.jpg	99
683.395	0.544	543.9	congruent	Block1	congruent/STIM_005.jpg	100
687.555	0.472	471.5	congruent	Block1	congruent/STIM_006.jpg	99
690.475	0.61	610.4	congruent	Block1	congruent/STIM_006.jpg	99
693.321	0.549	549.1	congruent	Block1	congruent/STIM_006.jpg	99
696.185	0.604	604.3	congruent	Block1	congruent/STIM_006.jpg	100
700.074	0.481	480.9	congruent	Block1	congruent/STIM_006.jpg	99
702.68	0.701	701.3	congruent	Block1	congruent/STIM_007.jpg	100
705.926	0.415	414.6	congruent	Block1	congruent/STIM_007.jpg	99
710.019	0.669	669.0	congruent	Block1	congruent/STIM_007.jpg	100
713.094	0.424	424.2	congruent	Block1	congruent/STIM_007.jpg	100
716.385	0.676	675.8	congruent	Block1	congruent/STIM_007.jpg	100
719.779	0.474	473.8	congruent	Block1	congruent/STIM_008.jpg	100
723.894	0.677	677.0	congruent	Block1	congruent/STIM_008.jpg	100
727.02	0.396	395.8	congruent	Block1	congruent/STIM_008.jpg	99
729.481	0.461	461.1	congruent	Block1	congruent/STIM_008.jpg	100
733.479	0.589	588.9	congruent	Block1	congruent/STIM_008.jpg	100
736.828	0.679	679.4	congruent	Block1	congruent/STIM_009.jpg	100
740.454	0.612	612.5	congruent	Block1	congruent/STIM_009.jpg	100
743.603	0.59	589.6	congruent	Block1	congruent/STIM_009.jpg	100
746.484	0.399	399.4	congruent	Block1	congruent/STIM_009.jpg	100
750.202	0.712	711.8	congruent	Block1	congruent/STIM_009.jpg	100
753.615	0.686	686.0	congruent	Block1	congruent/STIM_010.jpg	100
756.944	0.478	478.4	congruent	Block1	congruent/STIM_010.jpg	99
760.284	0.574	574.5	congruent	Block1	congruent/STIM_010.jpg	99
763.178	0.708	708.2	congruent	Block1	congruent/STIM_010.jpg	100
767.361	0.4	400.1	congruent	Block1	congruent/STIM_010.jpg	100
770.904	0.695	695.0	congruent	Block1	congruent/STIM_011.jpg	100
774.483	0.594	594.5	congruent	Block1	congruent/STIM_011.jpg	99
779.043	0.536	536.3	congruent	Block1	congruent/STIM_011.jpg	99
783.286	0.43	430.2	congruent	Block1	congruent/STIM_011.jpg	99
786.271	0.639	638.7	congruent	Block1	congruent/STIM_011.jpg	100
788.934	0.528	527.6	congruent	Block1	congruent/STIM_012.jpg	99
791.663	0.545	545.4	congruent	Block1	congruent/STIM_012.jpg	99
795.29	0.533	533.1	congruent	Block1	congruent/STIM_012.jpg	99
798.23	0.533	533.1	congruent	Block1	congruent/STIM_012.jpg	99
801.559	0.654	654.3	congruent	Block1	congruent/STIM_012.jpg	100
805.39	0.551	550.8	congruent	Block1	congruent/STIM_013.jpg	99
808.106	0.45	449.7	congruent	Block1	congruent/STIM_013.jpg	99
811.495	0.602	601.8	congruent	Block1	congruent/STIM_013.jpg	100
815.898	0.498	497.7	congruent	Block1	congruent/STIM_013.jpg	100
818.59	0.617	617.0	congruent	Block1	congruent/STIM_013.jpg	99
823.165	0.693	692.6	congruent	Block1	congruent/STIM_014.jpg	99
826.047	0.647	647.2	congruent	Block1	congruent/STIM_014.jpg	100
828.981	0.663	663.4	congruent	Block1	congruent/STIM_014.jpg	99
832.535	0.437	437.4	congruent	Block1	congruent/STIM_014.jpg	99
835.632	0.499	499.2	congruent	Block1	congruent/STIM_014.jpg	100
838.469	0.646	645.9	congruent	Block1	congruent/STIM_015.jpg	100
842.176	0.618	618.0	congruent	Block1	congruent/STIM_015.jpg	99
845.179	0.495	494.7	congruent	Block1	congruent/STIM_015.jpg	99
849.369	0.698	698.2	congruent	Block1	congruent/STIM_015.jpg	100
853.34	0.534	533.9	congruent	Block1	congruent/STIM_015.jpg	100
857.427	0.536	535.6	congruent	Block1	congruent/STIM_016.jpg	100
860.503	0.61	610.5	congruent	Block1	congruent/STIM_016.jpg	99
863.882	0.543	542.6	congruent	Block1	congruent/STIM_016.jpg	100
866.619	0.503	503.2	congruent	Block1	congruent/STIM_016.jpg	99
870.365	0.706	705.9	congruent	Block1	congruent/STIM_016.jpg	99
874.221	0.525	524.6	congruent	Block1	congruent/STIM_017.jpg	100
877.961	0.551	550.8	congruent	Block1	congruent/STIM_017.jpg	99
881.863	0.481	481.0	congruent	Block1	congruent/STIM_017.jpg	99
885.22	0.577	577.2	congruent	Block1	congruent/STIM_017.jpg	99
888.471	0.414	413.6	congruent	Block1	congruent/STIM_017.jpg	100
891.773	0.692	692.0	congruent	Block1	congruent/STIM_018.jpg	100
894.716	0.474	474.5	congruent	Block1	congruent/STIM_018.jpg	100
898.44	0.624	624.2	congruent	Block1	congruent/STIM_018.jpg	99
902.78	0.602	601.6	congruent	Block1	congruent/STIM_018.jpg	99
906.763	0.512	512.0	congruent	Block1	congruent/STIM_018.jpg	100
910.838	0.51	510.3	congruent	Block1	congruent/STIM_019.jpg	100
914.298	0.604	604.1	congruent	Block1	congruent/STIM_019.jpg	99
916.965	0.538	538.1	congruent	Block1	congruent/STIM_019.jpg	99
921.152	0.697	697.0	congruent	Block1	congruent/STIM_019.jpg	99
924.182	0.438	438.1	congruent	Block1	congruent/STIM_019.jpg	100
928.121	0.507	506.6	congruent	Block1	congruent/STIM_020.jpg	100
931.43	0.568	567.5	congruent	Block1	congruent/STIM_020.jpg	99
934.748	0.664	663.5	congruent	Block1	congruent/STIM_020.jpg	100
939.329	0.552	552.3	congruent	Block1	congruent/STIM_020.jpg	100
942.385	0.639	639.4	congruent	Block1	congruent/STIM_020.jpg	99
945.776	0.55	549.8	congruent	Block1	congruent/STIM_021.jpg	100
948.758	0.655	654.6	congruent	Block1	congruent/STIM_021.jpg	99
953.132	0.536	536.0	congruent	Block1	congruent/STIM_021.jpg	100
955.891	0.614	613.8	congruent	Block1	congruent/STIM_021.jpg	100
959.752	0.437	437.1	congruent	Block1	congruent/STIM_021.jpg	100
963.376	0.556	555.7	congruent	Block1	congruent/STIM_022.jpg	100
967.76	0.549	548.6	congruent	Block1	congruent/STIM_022.jpg	100
971.13	0.532	531.6	congruent	Block1	congruent/STIM_022.jpg	99
975.115	0.516	515.9	congruent	Block1	congruent/STIM_022.jpg	99
978.757	0.662	661.9	congruent	Block1	congruent/STIM_022.jpg	100
982.83	0.666	666.3	congruent	Block1	congruent/STIM_023.jpg	99
986.425	0.483	483.3	congruent	Block1	congruent/STIM_023.jpg	99
989.962	0.702	702.2	congruent	Block1	congruent/STIM_023.jpg	100
993.517	0.666	665.7	congruent	Block1	congruent/STIM_023.jpg	99
998.134	0.565	565.4	congruent	Block1	congruent/STIM_023.jpg	100
1001.689	0.608	607.8	congruent	Block1	congruent/STIM_024.jpg	100
1005.582	0.502	501.6	congruent	Block1	congruent/STIM_024.jpg	100
1009.677	0.493	493.2	congruent	Block1	congruent/STIM_024.jpg	99
1012.58	0.686	686.4	congruent	Block1	congruent/STIM_024.jpg	100
1016.917	0.604	604.5	congruent	Block1	congruent/STIM_024.jpg	100
1021.185	0.459	459.2	congruent	Block1	congruent/STIM_025.jpg	99
1025.397	0.554	553.5	congruent	Block1	congruent/STIM_025.jpg	99
1028.937	0.423	422.6	congruent	Block1	congruent/STIM_025.jpg	100
1031.797	0.63	629.6	congruent	Block1	congruent/STIM_025.jpg	99
1034.434	0.625	625.1	congruent	Block1	congruent/STIM_025.jpg	99
1037.599	0.693	693.2	congruent	Block1	congruent/STIM_026.jpg	99
1040.707	0.435	434.6	congruent	Block1	congruent/STIM_026.jpg	100
1044.44	0.523	522.6	congruent	Block1	congruent/STIM_026.jpg	100
1047.115	0.43	430.3	congruent	Block1	congruent/STIM_026.jpg	100
1050.861	0.673	673.1	congruent	Block1	congruent/STIM_026.jpg	100
1053.78	0.683	682.7	congruent	Block1	congruent/STIM_027.jpg	99
1056.615	0.399	399.2	congruent	Block1	congruent/STIM_027.jpg	99
1059.692	0.443	442.6	congruent	Block1	congruent/STIM_027.jpg	99
1064.058	0.559	558.7	congruent	Block1	congruent/STIM_027.jpg	99
1067.412	0.598	598.1	congruent	Block1	congruent/STIM_027.jpg	99
1071.239	0.643	643.3	congruent	Block1	congruent/STIM_028.jpg	100
1075.106	0.654	653.7	congruent	Block1	congruent/STIM_028.jpg	100
1077.792	0.673	673.3	congruent	Block1	congruent/STIM_028.jpg	100
1081.236	0.409	409.0	congruent	Block1	congruent/STIM_028.jpg	100
1084.033	0.604	604.1	congruent	Block1	congruent/STIM_028.jpg	100
1088.522	0.42	420.0	congruent	Block1	congruent/STIM_029.jpg	100
1092.211	0.476	476.4	congruent	Block1	congruent/STIM_029.jpg	100
1095.577	0.45	449.9	congruent	Block1	congruent/STIM_029.jpg	100
1099.928	0.473	473.2	congruent	Block1	congruent/STIM_029.jpg	99
1104.201	0.625	624.9	congruent	Block1	congruent/STIM_029.jpg	99
1106.877	0.83	830.2	incongruent	Block2	incongruent/STIM_000.jpg	99
1111.639	0.461	461.2	incongruent	Block2	incongruent/STIM_000.jpg	99
1115.633	0.841	841.4	incongruent	Block2	incongruent/STIM_000.jpg	99
1118.691	0.619	618.9	incongruent	Block2	incongruent/STIM_000.jpg	99
1122.724	0.693	692.6	incongruent	Block2	incongruent/STIM_000.jpg	99
1126.242	0.631	631.2	incongruent	Block2	incongruent/STIM_001.jpg	99
1130.479	0.726	726.2	incongruent	Block2	incongruent/STIM_001.jpg	99
1134.623	0.555	554.9	incongruent	Block2	incongruent/STIM_001.jpg	99
1137.779	0.714	714.3	incongruent	Block2	incongruent/STIM_001.jpg	100
1141.109	0.521	521.4	incongruent	Block2	incongruent/STIM_001.jpg	100
1144.502	0.716	715.7	incongruent	Block2	incongruent/STIM_002.jpg	99
1148.042	0.874	874.0	incongruent	Block2	incongruent/STIM_002.jpg	100
1151.398	0.663	663.1	incongruent	Block2	incongruent/STIM_002.jpg	99
1155.128	0.427	427.4	incongruent	Block2	incongruent/STIM_002.jpg	100
1158.01	0.562	561.9	incongruent	Block2	incongruent/STIM_002.jpg	100
1161.762	0.953	953.0	incongruent	Block2	incongruent/STIM_003.jpg	99
1165.983	0.626	626.5	incongruent	Block2	incongruent/STIM_003.jpg	99
1168.925	0.652	652.4	incongruent	Block2	incongruent/STIM_003.jpg	99
1173.154	0.754	754.5	incongruent	Block2	incongruent/STIM_003.jpg	99
1176.485	0.687	687.2	incongruent	Block2	incongruent/STIM_003.jpg	99
1180.851	0.52	520.5	incongruent	Block2	incongruent/STIM_004.jpg	99
1184.643	0.713	712.6	incongruent	Block2	incongruent/STIM_004.jpg	100
1188.107	0.618	617.9	incongruent	Block2	incongruent/STIM_004.jpg	100
1192.264	0.731	730.6	incongruent	Block2	incongruent/STIM_004.jpg	100
1195.377	0.827	826.9	incongruent	Block2	incongruent/STIM_004.jpg	99
1200.131	0.718	718.0	incongruent	Block2	incongruent/STIM_005.jpg	99
1203.969	0.557	557.3	incongruent	Block2	incongruent/STIM_005.jpg	99
1207.824	0.626	625.7	incongruent	Block2	incongruent/STIM_005.jpg	100
1211.495	0.544	543.5	incongruent	Block2	incongruent/STIM_005.jpg	99
1215.755	0.708	708.1	incongruent	Block2	incongruent/STIM_005.jpg	100
1219.606	0.898	898.3	incongruent	Block2	incongruent/STIM_006.jpg	99
1223.792	0.948	947.7	incongruent	Block2	incongruent/STIM_006.jpg	99
1227.186	0.42	419.6	incongruent	Block2	incongruent/STIM_006.jpg	100
1230.122	0.46	460.4	incongruent	Block2	incongruent/STIM_006.jpg	100
1233.63	0.716	716.1	incongruent	Block2	incongruent/STIM_006.jpg	99
1238.219	0.651	650.8	incongruent	Block2	incongruent/STIM_007.jpg	99
1242.572	0.574	574.2	incongruent	Block2	incongruent/STIM_007.jpg	100
1246.724	0.652	652.0	incongruent	Block2	incongruent/STIM_007.jpg	99
1249.826	0.748	748.1	incongruent	Block2	incongruent/STIM_007.jpg	100
1253.42	0.396	395.9	incongruent	Block2	incongruent/STIM_007.jpg	100
1256.066	0.934	933.6	incongruent	Block2	incongruent/STIM_008.jpg	99
1260.762	0.532	532.4	incongruent	Block2	incongruent/STIM_008.jpg	99
1264.269	0.777	776.8	incongruent	Block2	incongruent/STIM_008.jpg	100
1268.56	0.504	503.8	incongruent	Block2	incongruent/STIM_008.jpg	99
1271.62	0.709	709.2	incongruent	Block2	incongruent/STIM_008.jpg	100
1275.775	0.974	973.6	incongruent	Block2	incongruent/STIM_009.jpg	100
1279.473	0.741	741.4	incongruent	Block2	incongruent/STIM_009.jpg	100
1282.396	0.8	800.5	incongruent	Block2	incongruent/STIM_009.jpg	100
1285.899	0.509	509.0	incongruent	Block2	incongruent/STIM_009.jpg	100
1288.764	0.616	616.2	incongruent	Block2	incongruent/STIM_009.jpg	100
1291.806	0.998	998.5	incongruent	Block2	incongruent/STIM_010.jpg	100
1295.352	0.704	704.4	incongruent	Block2	incongruent/STIM_010.jpg	99
1299.011	0.56	560.1	incongruent	Block2	incongruent/STIM_010.jpg	100
1302.594	0.514	513.5	incongruent	Block2	incongruent/STIM_010.jpg	99
1306.123	0.69	689.7	incongruent	Block2	incongruent/STIM_010.jpg	100
1310.812	0.93	930.3	incongruent	Block2	incongruent/STIM_011.jpg	100
1313.763	0.758	757.8	incongruent	Block2	incongruent/STIM_011.jpg	100
1316.857	0.731	731.4	incongruent	Block2	incongruent/STIM_011.jpg	99
1319.961	0.704	703.5	incongruent	Block2	incongruent/STIM_011.jpg	99
1323.509	0.74	740.1	incongruent	Block2	incongruent/STIM_011.jpg	99
1326.7	0.614	614.3	incongruent	Block2	incongruent/STIM_012.jpg	100
1330.716	0.916	915.7	incongruent	Block2	incongruent/STIM_012.jpg	99
1334.007	0.766	766.4	incongruent	Block2	incongruent/STIM_012.jpg	100
1338.004	0.576	576.2	incongruent	Block2	incongruent/STIM_012.jpg	100
1342.161	0.609	609.4	incongruent	Block2	incongruent/STIM_012.jpg	99
1345.776	0.522	521.6	incongruent	Block2	incongruent/STIM_013.jpg	100
1348.343	0.527	526.8	incongruent	Block2	incongruent/STIM_013.jpg	99
1351.623	0.573	573.3	incongruent	Block2	incongruent/STIM_013.jpg	99
1354.65	0.444	444.2	incongruent	Block2	incongruent/STIM_013.jpg	100
1358.195	0.647	647.2	incongruent	Block2	incongruent/STIM_013.jpg	99
1362.794	0.615	614.6	incongruent	Block2	incongruent/STIM_014.jpg	99
1365.697	0.581	581.1	incongruent	Block2	incongruent/STIM_014.jpg	100
1369.708	0.821	820.9	incongruent	Block2	incongruent/STIM_014.jpg	100
1373.393	0.608	607.6	incongruent	Block2	incongruent/STIM_014.jpg	100
1377.938	0.523	522.8	incongruent	Block2	incongruent/STIM_014.jpg	99
1381.968	0.79	789.7	incongruent	Block2	incongruent/STIM_015.jpg	99
1386.124	0.874	873.6	incongruent	Block2	incongruent/STIM_015.jpg	100
1390.93	0.86	860.2	incongruent	Block2	incongruent/STIM_015.jpg	99
1395.166	0.418	418.3	incongruent	Block2	incongruent/STIM_015.jpg	100
1399.231	0.553	553.2	incongruent	Block2	incongruent/STIM_015.jpg	100
1402.086	0.914	914.4	incongruent	Block2	incongruent/STIM_016.jpg	99
1406.396	0.61	610.3	incongruent	Block2	incongruent/STIM_016.jpg	100
1410.105	0.699	699.1	incongruent	Block2	incongruent/STIM_016.jpg	100
1413.799	0.572	571.6	incongruent	Block2	incongruent/STIM_016.jpg	100
1418.347	0.561	560.8	incongruent	Block2	incongruent/STIM_016.jpg	100
1422.106	0.744	744.5	incongruent	Block2	incongruent/STIM_017.jpg	99
1425.55	0.461	461.2	incongruent	Block2	incongruent/STIM_017.jpg	100
1429.619	0.552	552.5	incongruent	Block2	incongruent/STIM_017.jpg	99
1433.872	0.73	729.6	incongruent	Block2	incongruent/STIM_017.jpg	100
1438.045	0.506	506.0	incongruent	Block2	incongruent/STIM_017.jpg	100
1440.76	0.75	749.7	incongruent	Block2	incongruent/STIM_018.jpg	99
1443.663	0.891	891.2	incongruent	Block2	incongruent/STIM_018.jpg	99
1447.639	0.857	857.2	incongruent	Block2	incongruent/STIM_018.jpg	99
1450.971	0.416	415.5	incongruent	Block2	incongruent/STIM_018.jpg	99
1454.129	0.434	433.8	incongruent	Block2	incongruent/STIM_018.jpg	100
1456.737	0.818	818.0	incongruent	Block2	incongruent/STIM_019.jpg	99
1461.517	0.526	526.5	incongruent	Block2	incongruent/STIM_019.jpg	100
1464.232	0.685	684.7	incongruent	Block2	incongruent/STIM_019.jpg	100
1467.824	0.617	616.8	incongruent	Block2	incongruent/STIM_019.jpg	100
1471.291	0.424	424.1	incongruent	Block2	incongruent/STIM_019.jpg	99
1474.697	0.982	982.5	incongruent	Block2	incongruent/STIM_020.jpg	99
1478.089	0.708	708.2	incongruent	Block2	incongruent/STIM_020.jpg	99
1481.44	0.748	748.2	incongruent	Block2	incongruent/STIM_020.jpg	100
1485.169	0.509	509.5	incongruent	Block2	incongruent/STIM_020.jpg	100
1487.754	0.633	633.3	incongruent	Block2	incongruent/STIM_020.jpg	99
1490.666	0.848	847.7	incongruent	Block2	incongruent/STIM_021.jpg	100
1494.885	0.568	568.5	incongruent	Block2	incongruent/STIM_021.jpg	99
1497.644	0.452	451.8	incongruent	Block2	incongruent/STIM_021.jpg	99
1500.898	0.683	683.3	incongruent	Block2	incongruent/STIM_021.jpg	100
1504.103	0.759	759.2	incongruent	Block2	incongruent/STIM_021.jpg	99
1507.61	0.882	881.8	incongruent	Block2	incongruent/STIM_022.jpg	99
1511.793	0.656	655.6	incongruent	Block2	incongruent/STIM_022.jpg	99
1515.799	0.718	718.1	incongruent	Block2	incongruent/STIM_022.jpg	99
1519.033	0.751	750.9	incongruent	Block2	incongruent/STIM_022.jpg	100
1521.9	0.541	541.4	incongruent	Block2	incongruent/STIM_022.jpg	100
1524.942	0.927	927.1	incongruent	Block2	incongruent/STIM_023.jpg	100
1528.896	0.657	656.8	incongruent	Block2	incongruent/STIM_023.jpg	100
1532.636	0.736	736.5	incongruent	Block2	incongruent/STIM_023.jpg	99
1536.106	0.658	658.2	incongruent	Block2	incongruent/STIM_023.jpg	99
1539.188	0.647	647.2	incongruent	Block2	incongruent/STIM_023.jpg	100
1543.446	0.904	903.5	incongruent	Block2	incongruent/STIM_024.jpg	100
1547.043	0.738	737.5	incongruent	Block2	incongruent/STIM_024.jpg	100
1550.221	0.703	703.3	incongruent	Block2	incongruent/STIM_024.jpg	99
1553.417	0.541	541.4	incongruent	Block2	incongruent/STIM_024.jpg	100
1556.974	0.511	510.7	incongruent	Block2	incongruent/STIM_024.jpg	99
1561.289	0.742	742.5	incongruent	Block2	incongruent/STIM_025.jpg	99
1564.166	0.798	797.8	incongruent	Block2	incongruent/STIM_025.jpg	100
1567.766	0.475	475.4	incongruent	Block2	incongruent/STIM_025.jpg	100
1571.531	0.532	532.5	incongruent	Block2	incongruent/STIM_025.jpg	99
1576.01	0.589	589.2	incongruent	Block2	incongruent/STIM_025.jpg	99
1580.482	0.854	853.9	incongruent	Block2	incongruent/STIM_026.jpg	99
1585.275	0.826	826.5	incongruent	Block2	incongruent/STIM_026.jpg	100
1589.943	0.776	776.2	incongruent	Block2	incongruent/STIM_026.jpg	100
1593.403	0.674	673.9	incongruent	Block2	incongruent/STIM_026.jpg	100
1597.423	0.395	394.9	incongruent	Block2	incongruent/STIM_026.jpg	99
1601.308	0.961	960.6	incongruent	Block2	incongruent/STIM_027.jpg	99
1605.436	0.633	633.1	incongruent	Block2	incongruent/STIM_027.jpg	99
1608.81	0.88	880.2	incongruent	Block2	incongruent/STIM_027.jpg	99
1612.841	0.519	518.6	incongruent	Block2	incongruent/STIM_027.jpg	100
1616.861	0.582	581.8	incongruent	Block2	incongruent/STIM_027.jpg	100
1619.493	1.003	1003.4	incongruent	Block2	incongruent/STIM_028.jpg	99
1624.111	0.484	483.7	incongruent	Block2	incongruent/STIM_028.jpg	100
1626.643	0.722	721.9	incongruent	Block2	incongruent/STIM_028.jpg	100
1630.741	0.403	402.6	incongruent	Block2	incongruent/STIM_028.jpg	99
1634.753	0.406	406.1	incongruent	Block2	incongruent/STIM_028.jpg	100
1637.792	0.988	987.9	incongruent	Block2	incongruent/STIM_029.jpg	100
1640.997	0.527	527.1	incongruent	Block2	incongruent/STIM_029.jpg	99
1644.18	0.859	859.2	incongruent	Block2	incongruent/STIM_029.jpg	99
1647.55	0.43	430.0	incongruent	Block2	incongruent/STIM_029.jpg	100
1651.978	0.467	467.2	incongruent	Block2	incongruent/STIM_029.jpg	99
1656.105	0.676	675.7	congruent	Block2	congruent/STIM_000.jpg	100
1660.158	0.669	668.9	congruent	Block2	congruent/STIM_000.jpg	100
1664.677	0.605	604.8	congruent	Block2	congruent/STIM_000.jpg	100
1668.609	0.65	649.7	congruent	Block2	congruent/STIM_000.jpg	99
1672.182	0.396	396.4	congruent	Block2	congruent/STIM_000.jpg	99
1676.217	0.446	446.0	congruent	Block2	congruent/STIM_001.jpg	99
1680.449	0.571	571.0	congruent	Block2	congruent/STIM_001.jpg	99
1684.19	0.69	690.4	congruent	Block2	congruent/STIM_001.jpg	100
1688.067	0.541	540.6	congruent	Block2	congruent/STIM_001.jpg	99
1692.188	0.457	456.8	congruent	Block2	congruent/STIM_001.jpg	100
1694.887	0.597	597.2	congruent	Block2	congruent/STIM_002.jpg	99
1698.219	0.42	420.4	congruent	Block2	congruent/STIM_002.jpg	99
1701.029	0.655	654.7	congruent	Block2	congruent/STIM_002.jpg	100
1705.54	0.668	668.3	congruent	Block2	congruent/STIM_002.jpg	100
1708.252	0.661	661.1	congruent	Block2	congruent/STIM_002.jpg	99
1712.368	0.454	454.5	congruent	Block2	congruent/STIM_003.jpg	99
1715.317	0.432	431.9	congruent	Block2	congruent/STIM_003.jpg	100
1718.182	0.519	519.3	congruent	Block2	congruent/STIM_003.jpg	100
1722.027	0.571	571.2	congruent	Block2	congruent/STIM_003.jpg	100
1725.741	0.457	457.3	congruent	Block2	congruent/STIM_003.jpg	100
1729.04	0.578	577.7	congruent	Block2	congruent/STIM_004.jpg	100
1732.414	0.621	620.7	congruent	Block2	congruent/STIM_004.jpg	100
1736.2	0.629	628.8	congruent	Block2	congruent/STIM_004.jpg	99
1739.915	0.401	401.3	congruent	Block2	congruent/STIM_004.jpg	100
1744.276	0.486	486.4	congruent	Block2	congruent/STIM_004.jpg	99
1746.845	0.519	519.3	congruent	Block2	congruent/STIM_005.jpg	99
1749.548	0.651	650.9	congruent	Block2	congruent/STIM_005.jpg	99
1752.249	0.49	490.1	congruent	Block2	congruent/STIM_005.jpg	100
1754.805	0.416	416.3	congruent	Block2	congruent/STIM_005.jpg	100
1758.742	0.687	686.9	congruent	Block2	congruent/STIM_005.jpg	100
1762.5	0.462	461.9	congruent	Block2	congruent/STIM_006.jpg	100
1766.639	0.522	521.5	congruent	Block2	congruent/STIM_006.jpg	100
1770.516	0.552	552.1	congruent	Block2	congruent/STIM_006.jpg	100
1773.309	0.635	634.9	congruent	Block2	congruent/STIM_006.jpg	99
1777.498	0.567	566.7	congruent	Block2	congruent/STIM_006.jpg	99
1780.976	0.628	628.2	congruent	Block2	congruent/STIM_007.jpg	100
1784.352	0.628	627.5	congruent	Block2	congruent/STIM_007.jpg	99
1787.034	0.668	668.5	congruent	Block2	congruent/STIM_007.jpg	99
1790.026	0.46	459.5	congruent	Block2	congruent/STIM_007.jpg	99
1794.123	0.598	597.5	congruent	Block2	congruent/STIM_007.jpg	99
1796.879	0.689	689.0	congruent	Block2	congruent/STIM_008.jpg	99
1800.693	0.566	566.4	congruent	Block2	congruent/STIM_008.jpg	99
1803.955	0.502	502.0	congruent	Block2	congruent/STIM_008.jpg	100
1807.727	0.69	689.9	congruent	Block2	congruent/STIM_008.jpg	100
1811.664	0.572	571.9	congruent	Block2	congruent/STIM_008.jpg	100
1815.694	0.708	708.2	congruent	Block2	congruent/STIM_009.jpg	100
1819.596	0.559	558.7	congruent	Block2	congruent/STIM_009.jpg	100
1823.872	0.473	473.4	congruent	Block2	congruent/STIM_009.jpg	100
1827.965	0.709	709.4	congruent	Block2	congruent/STIM_009.jpg	99
1831.949	0.408	407.8	congruent	Block2	congruent/STIM_009.jpg	100
1835.969	0.425	424.9	congruent	Block2	congruent/STIM_010.jpg	100
1839.299	0.535	534.6	congruent	Block2	congruent/STIM_010.jpg	99
1843.382	0.628	628.1	congruent	Block2	congruent/STIM_010.jpg	99
1847.348	0.514	514.3	congruent	Block2	congruent/STIM_010.jpg	99
1850.89	0.7	699.5	congruent	Block2	congruent/STIM_010.jpg	99
1854.438	0.58	579.9	congruent	Block2	congruent/STIM_011.jpg	100
1857.794	0.693	692.7	congruent	Block2	congruent/STIM_011.jpg	99
1860.745	0.556	556.0	congruent	Block2	congruent/STIM_011.jpg	100
1865.279	0.559	558.7	congruent	Block2	congruent/STIM_011.jpg	99
1868.409	0.637	636.7	congruent	Block2	congruent/STIM_011.jpg	100
1872.647	0.49	489.8	congruent	Block2	congruent/STIM_012.jpg	99
1876.216	0.587	586.6	congruent	Block2	congruent/STIM_012.jpg	100
1879.236	0.452	451.7	congruent	Block2	congruent/STIM_012.jpg	100
1882.151	0.552	552.2	congruent	Block2	congruent/STIM_012.jpg	99
1885.103	0.569	569.0	congruent	Block2	congruent/STIM_012.jpg	100
1889.637	0.482	482.3	congruent	Block2	congruent/STIM_013.jpg	99
1893.768	0.581	580.7	congruent	Block2	congruent/STIM_013.jpg	100
1896.703	0.485	485.4	congruent	Block2	congruent/STIM_013.jpg	99
1899.842	0.469	468.9	congruent	Block2	congruent/STIM_013.jpg	100
1902.632	0.44	439.6	congruent	Block2	congruent/STIM_013.jpg	99
1905.232	0.536	535.9	congruent	Block2	congruent/STIM_014.jpg	99
1908.768	0.627	626.6	congruent	Block2	congruent/STIM_014.jpg	99
1913.1	0.487	486.8	congruent	Block2	congruent/STIM_014.jpg	99
1917.427	0.704	703.8	congruent	Block2	congruent/STIM_014.jpg	99
1920.669	0.534	534.2	congruent	Block2	congruent/STIM_014.jpg	100
1923.763	0.596	596.4	congruent	Block2	congruent/STIM_015.jpg	100
1927.71	0.396	396.3	congruent	Block2	congruent/STIM_015.jpg	100
1930.326	0.456	456.0	congruent	Block2	congruent/STIM_015.jpg	100
1934.136	0.641	641.4	congruent	Block2	congruent/STIM_015.jpg	100
1938.596	0.596	596.2	congruent	Block2	congruent/STIM_015.jpg	99
1942.169	0.467	466.6	congruent	Block2	congruent/STIM_016.jpg	99
1946.155	0.657	657.0	congruent	Block2	congruent/STIM_016.jpg	99
1949.488	0.505	504.7	congruent	Block2	congruent/STIM_016.jpg	99
1953.724	0.689	689.2	congruent	Block2	congruent/STIM_016.jpg	99
1956.571	0.478	477.8	congruent	Block2	congruent/STIM_016.jpg	100
1960.72	0.529	529.1	congruent	Block2	congruent/STIM_017.jpg	100
1963.494	0.473	472.7	congruent	Block2	congruent/STIM_017.jpg	99
1966.568	0.506	505.9	congruent	Block2	congruent/STIM_017.jpg	100
1969.455	0.625	624.8	congruent	Block2	congruent/STIM_017.jpg	100
1973.101	0.614	614.2	congruent	Block2	congruent/STIM_017.jpg	99
1977.437	0.599	598.8	congruent	Block2	congruent/STIM_018.jpg	100
1980.793	0.425	425.1	congruent	Block2	congruent/STIM_018.jpg	100
1984.519	0.62	620.5	congruent	Block2	congruent/STIM_018.jpg	100
1988.816	0.615	615.1	congruent	Block2	congruent/STIM_018.jpg	100
1992.25	0.667	666.6	congruent	Block2	congruent/STIM_018.jpg	99
1996.242	0.47	469.6	congruent	Block2	congruent/STIM_019.jpg	100
1999.262	0.622	622.1	congruent	Block2	congruent/STIM_019.jpg	99
2002.88	0.407	406.8	congruent	Block2	congruent/STIM_019.jpg	99
2007.119	0.584	583.8	congruent	Block2	congruent/STIM_019.jpg	100
2010.507	0.635	635.0	congruent	Block2	congruent/STIM_019.jpg	99
2014.307	0.453	452.6	congruent	Block2	congruent/STIM_020.jpg	99
2017.916	0.636	635.8	congruent	Block2	congruent/STIM_020.jpg	100
2022.401	0.438	438.0	congruent	Block2	congruent/STIM_020.jpg	99
2025.362	0.426	426.4	congruent	Block2	congruent/STIM_020.jpg	100
2027.875	0.469	469.1	congruent	Block2	congruent/STIM_020.jpg	99
2030.875	0.56	560.0	congruent	Block2	congruent/STIM_021.jpg	100
2034.585	0.418	418.0	congruent	Block2	congruent/STIM_021.jpg	100
2038.24	0.477	477.1	congruent	Block2	congruent/STIM_021.jpg	99
2040.819	0.577	577.0	congruent	Block2	congruent/STIM_021.jpg	99
2045.252	0.444	443.9	congruent	Block2	congruent/STIM_021.jpg	100
2048.169	0.657	657.4	congruent	Block2	congruent/STIM_022.jpg	100
2051.836	0.402	401.5	congruent	Block2	congruent/STIM_022.jpg	100
2054.392	0.586	585.8	congruent	Block2	congruent/STIM_022.jpg	99
2058.822	0.443	443.3	congruent	Block2	congruent/STIM_022.jpg	100
2062.733	0.451	450.6	congruent	Block2	congruent/STIM_022.jpg	100
2066.001	0.48	480.3	congruent	Block2	congruent/STIM_023.jpg	99
2070.272	0.5	499.7	congruent	Block2	congruent/STIM_023.jpg	100
2073.383	0.516	516.5	congruent	Block2	congruent/STIM_023.jpg	99
2077.33	0.692	691.9	congruent	Block2	congruent/STIM_023.jpg	100
2081.801	0.536	536.4	congruent	Block2	congruent/STIM_023.jpg	99
2085.633	0.61	609.5	congruent	Block2	congruent/STIM_024.jpg	100
2089.858	0.697	696.9	congruent	Block2	congruent/STIM_024.jpg	99
2092.702	0.397	396.9	congruent	Block2	congruent/STIM_024.jpg	99
2096.566	0.702	702.5	congruent	Block2	congruent/STIM_024.jpg	100
2100.051	0.453	453.4	congruent	Block2	congruent/STIM_024.jpg	100
2103.644	0.423	423.3	congruent	Block2	congruent/STIM_025.jpg	100
2107.543	0.613	612.6	congruent	Block2	congruent/STIM_025.jpg	100
2110.442	0.48	480.1	congruent	Block2	congruent/STIM_025.jpg	99
2113.606	0.479	478.6	congruent	Block2	congruent/STIM_025.jpg	99
2117.723	0.682	681.8	congruent	Block2	congruent/STIM_025.jpg	99
2122.12	0.51	509.6	congruent	Block2	congruent/STIM_026.jpg	99
2125.496	0.573	573.2	congruent	Block2	congruent/STIM_026.jpg	99
2128.663	0.613	613.4	congruent	Block2	congruent/STIM_026.jpg	100
2132.168	0.617	617.2	congruent	Block2	congruent/STIM_026.jpg	99
2136.312	0.438	437.6	congruent	Block2	congruent/STIM_026.jpg	99
2140.491	0.575	575.4	congruent	Block2	congruent/STIM_027.jpg	100
2144.028	0.598	598.3	congruent	Block2	congruent/STIM_027.jpg	99
2147.468	0.587	587.2	congruent	Block2	congruent/STIM_027.jpg	100
2150.783	0.456	455.6	congruent	Block2	congruent/STIM_027.jpg	100
2154.641	0.443	443.3	congruent	Block2	congruent/STIM_027.jpg	99
2158.68	0.396	396.0	congruent	Block2	congruent/STIM_028.jpg	100
2162.755	0.435	434.7	congruent	Block2	congruent/STIM_028.jpg	99
2165.591	0.52	520.5	congruent	Block2	congruent/STIM_028.jpg	99
2170.033	0.417	416.8	congruent	Block2	congruent/STIM_028.jpg	100
2173.76	0.496	496.3	congruent	Block2	congruent/STIM_028.jpg	100
2176.461	0.691	691.0	congruent	Block2	congruent/STIM_029.jpg	100
2179.729	0.702	701.5	congruent	Block2	congruent/STIM_029.jpg	100
2182.941	0.66	659.8	congruent	Block2	congruent/STIM_029.jpg	100
2186.074	0.671	671.4	congruent	Block2	congruent/STIM_029.jpg	100
2188.998	0.656	655.6	congruent	Block2	congruent/STIM_029.jpg	100
2191.661	0.809	809.0	incongruent	Block3	incongruent/STIM_000.jpg	99
2194.93	0.737	736.9	incongruent	Block3	incongruent/STIM_000.jpg	100
2198.591	0.53	529.9	incongruent	Block3	incongruent/STIM_000.jpg	99
2201.648	0.541	540.8	incongruent	Block3	incongruent/STIM_000.jpg	100
2205.258	0.649	648.7	incongruent	Block3	incongruent/STIM_000.jpg	100
2208.811	0.543	543.3	incongruent	Block3	incongruent/STIM_001.jpg	99
2212.481	0.557	557.0	incongruent	Block3	incongruent/STIM_001.jpg	100
2216.181	0.561	561.2	incongruent	Block3	incongruent/STIM_001.jpg	99
2219.922	0.547	547.1	incongruent	Block3	incongruent/STIM_001.jpg	99
2224.438	0.754	753.8	incongruent	Block3	incongruent/STIM_001.jpg	99
2227.762	0.724	724.1	incongruent	Block3	incongruent/STIM_002.jpg	100
2231.291	0.699	699.3	incongruent	Block3	incongruent/STIM_002.jpg	100
2235.381	0.418	418.4	incongruent	Block3	incongruent/STIM_002.jpg	100
2238.753	0.797	797.0	incongruent	Block3	incongruent/STIM_002.jpg	99
2242.494	0.389	388.7	incongruent	Block3	incongruent/STIM_002.jpg	99
2246.839	0.42	420.4	incongruent	Block3	incongruent/STIM_003.jpg	99
2249.609	0.739	738.9	incongruent	Block3	incongruent/STIM_003.jpg	100
2252.675	0.455	455.3	incongruent	Block3	incongruent/STIM_003.jpg	99
2256.512	0.791	790.7	incongruent	Block3	incongruent/STIM_003.jpg	99
2260.289	0.436	436.1	incongruent	Block3	incongruent/STIM_003.jpg	99
2264.284	0.59	590.5	incongruent	Block3	incongruent/STIM_004.jpg	100
2267.357	0.721	721.0	incongruent	Block3	incongruent/STIM_004.jpg	100
2270.584	0.662	662.2	incongruent	Block3	incongruent/STIM_004.jpg	100
2274.014	0.57	570.1	incongruent	Block3	incongruent/STIM_004.jpg	100
2276.978	0.658	658.4	incongruent	Block3	incongruent/STIM_004.jpg	99
2281.181	0.808	808.5	incongruent	Block3	incongruent/STIM_005.jpg	100
2284.633	0.596	595.7	incongruent	Block3	incongruent/STIM_005.jpg	100
2288.529	0.816	815.7	incongruent	Block3	incongruent/STIM_005.jpg	99
2292.36	0.779	779.2	incongruent	Block3	incongruent/STIM_005.jpg	100
2295.164	0.733	733.4	incongruent	Block3	incongruent/STIM_005.jpg	100
2299.072	0.393	393.0	incongruent	Block3	incongruent/STIM_006.jpg	100
2301.7	0.475	474.9	incongruent	Block3	incongruent/STIM_006.jpg	99
2304.404	0.731	731.1	incongruent	Block3	incongruent/STIM_006.jpg	99
2308.584	0.603	602.9	incongruent	Block3	incongruent/STIM_006.jpg	100
2312.707	0.704	704.0	incongruent	Block3	incongruent/STIM_006.jpg	99
2317.123	0.389	389.2	incongruent	Block3	incongruent/STIM_007.jpg	99
2319.859	0.578	578.1	incongruent	Block3	incongruent/STIM_007.jpg	99
2323.222	0.57	569.9	incongruent	Block3	incongruent/STIM_007.jpg	99
2326.201	0.731	730.7	incongruent	Block3	incongruent/STIM_007.jpg	99
2330.913	0.529	529.1	incongruent	Block3	incongruent/STIM_007.jpg	100
2334.228	0.407	407.2	incongruent	Block3	incongruent/STIM_008.jpg	100
2337.233	0.619	618.9	incongruent	Block3	incongruent/STIM_008.jpg	100
2341.679	0.739	739.1	incongruent	Block3	incongruent/STIM_008.jpg	100
2345.099	0.536	535.9	incongruent	Block3	incongruent/STIM_008.jpg	100
2348.396	0.526	525.8	incongruent	Block3	incongruent/STIM_008.jpg	100
2351.876	0.802	801.8	incongruent	Block3	incongruent/STIM_009.jpg	100
2356.214	0.686	686.1	incongruent	Block3	incongruent/STIM_009.jpg	99
2360.307	0.61	609.5	incongruent	Block3	incongruent/STIM_009.jpg	100
2364.744	0.738	737.7	incongruent	Block3	incongruent/STIM_009.jpg	99
2367.626	0.643	643.2	incongruent	Block3	incongruent/STIM_009.jpg	100
2372.071	0.686	686.5	incongruent	Block3	incongruent/STIM_010.jpg	100
2376.021	0.738	738.2	incongruent	Block3	incongruent/STIM_010.jpg	100
2380.288	0.535	535.3	incongruent	Block3	incongruent/STIM_010.jpg	99
2384.513	0.796	795.7	incongruent	Block3	incongruent/STIM_010.jpg	100
2387.783	0.662	662.1	incongruent	Block3	incongruent/STIM_010.jpg	99
2390.449	0.507	507.0	incongruent	Block3	incongruent/STIM_011.jpg	99
2393.918	0.54	540.4	incongruent	Block3	incongruent/STIM_011.jpg	99
2397.933	0.721	720.7	incongruent	Block3	incongruent/STIM_011.jpg	99
2401.01	0.524	524.2	incongruent	Block3	incongruent/STIM_011.jpg	99
2403.703	0.775	775.0	incongruent	Block3	incongruent/STIM_011.jpg	99
2407.475	0.555	554.7	incongruent	Block3	incongruent/STIM_012.jpg	99
2411.509	0.403	402.8	incongruent	Block3	incongruent/STIM_012.jpg	100
2414.459	0.785	784.6	incongruent	Block3	incongruent/STIM_012.jpg	99
2418.914	0.786	786.3	incongruent	Block3	incongruent/STIM_012.jpg	100
2423.289	0.712	711.8	incongruent	Block3	incongruent/STIM_012.jpg	100
2426.628	0.57	570.1	incongruent	Block3	incongruent/STIM_013.jpg	100
2430.815	0.49	490.4	incongruent	Block3	incongruent/STIM_013.jpg	99
2434.113	0.771	770.7	incongruent	Block3	incongruent/STIM_013.jpg	99
2437.059	0.417	416.8	incongruent	Block3	incongruent/STIM_013.jpg	99
2441.331	0.421	420.9	incongruent	Block3	incongruent/STIM_013.jpg	100
2445.59	0.735	734.8	incongruent	Block3	incongruent/STIM_014.jpg	99
2449.861	0.61	610.2	incongruent	Block3	incongruent/STIM_014.jpg	99
2453.84	0.591	590.8	incongruent	Block3	incongruent/STIM_014.jpg	99
2457.731	0.488	488.1	incongruent	Block3	incongruent/STIM_014.jpg	99
2462.055	0.482	482.3	incongruent	Block3	incongruent/STIM_014.jpg	100
2464.612	0.719	718.8	incongruent	Block3	incongruent/STIM_015.jpg	99
2468.187	0.7	700.4	incongruent	Block3	incongruent/STIM_015.jpg	100
2472.236	0.714	714.5	incongruent	Block3	incongruent/STIM_015.jpg	100
2476.681	0.619	619.1	incongruent	Block3	incongruent/STIM_015.jpg	100
2480.186	0.747	746.9	incongruent	Block3	incongruent/STIM_015.jpg	99
2484.803	0.551	550.9	incongruent	Block3	incongruent/STIM_016.jpg	99
2489.076	0.569	568.9	incongruent	Block3	incongruent/STIM_016.jpg	100
2491.86	0.77	770.3	incongruent	Block3	incongruent/STIM_016.jpg	100
2496.488	0.803	803.4	incongruent	Block3	incongruent/STIM_016.jpg	99
2499.479	0.791	791.2	incongruent	Block3	incongruent/STIM_016.jpg	100
2503.947	0.678	678.5	incongruent	Block3	incongruent/STIM_017.jpg	100
2507.813	0.495	495.3	incongruent	Block3	incongruent/STIM_017.jpg	99
2510.954	0.822	821.6	incongruent	Block3	incongruent/STIM_017.jpg	100
2514.01	0.798	797.6	incongruent	Block3	incongruent/STIM_017.jpg	99
2518.206	0.495	494.6	incongruent	Block3	incongruent/STIM_017.jpg	100
2521.213	0.576	576.3	incongruent	Block3	incongruent/STIM_018.jpg	100
2524.35	0.394	394.2	incongruent	Block3	incongruent/STIM_018.jpg	99
2527.329	0.397	397.4	incongruent	Block3	incongruent/STIM_018.jpg	100
2531.639	0.814	814.2	incongruent	Block3	incongruent/STIM_018.jpg	99
2534.515	0.513	513.0	incongruent	Block3	incongruent/STIM_018.jpg	100
2538.886	0.544	543.5	incongruent	Block3	incongruent/STIM_019.jpg	100
2542.343	0.558	558.4	incongruent	Block3	incongruent/STIM_019.jpg	100
2544.921	0.48	479.7	incongruent	Block3	incongruent/STIM_019.jpg	100
2548.799	0.559	559.4	incongruent	Block3	incongruent/STIM_019.jpg	99
2552.266	0.452	451.5	incongruent	Block3	incongruent/STIM_019.jpg	99
2555.805	0.418	418.2	incongruent	Block3	incongruent/STIM_020.jpg	99
2559.245	0.7	700.5	incongruent	Block3	incongruent/STIM_020.jpg	99
2561.965	0.685	685.0	incongruent	Block3	incongruent/STIM_020.jpg	99
2565.662	0.58	579.7	incongruent	Block3	incongruent/STIM_020.jpg	100
2569.861	0.558	557.7	incongruent	Block3	incongruent/STIM_020.jpg	100
2573.008	0.643	642.9	incongruent	Block3	incongruent/STIM_021.jpg	100
2577.334	0.551	550.9	incongruent	Block3	incongruent/STIM_021.jpg	100
2581.7	0.673	672.9	incongruent	Block3	incongruent/STIM_021.jpg	99
2585.255	0.455	454.6	incongruent	Block3	incongruent/STIM_021.jpg	100
2589.045	0.524	523.7	incongruent	Block3	incongruent/STIM_021.jpg	99
2593.338	0.571	571.0	incongruent	Block3	incongruent/STIM_022.jpg	100
2596.349	0.415	415.2	incongruent	Block3	incongruent/STIM_022.jpg	100
2600.113	0.716	715.7	incongruent	Block3	incongruent/STIM_022.jpg	99
2604.678	0.488	487.9	incongruent	Block3	incongruent/STIM_022.jpg	99
2607.553	0.723	722.9	incongruent	Block3	incongruent/STIM_022.jpg	99
2610.383	0.565	564.8	incongruent	Block3	incongruent/STIM_023.jpg	100
2613.403	0.389	389.1	incongruent	Block3	incongruent/STIM_023.jpg	100
2616.322	0.707	706.8	incongruent	Block3	incongruent/STIM_023.jpg	100
2620.775	0.434	434.3	incongruent	Block3	incongruent/STIM_023.jpg	100
2624.383	0.723	722.6	incongruent	Block3	incongruent/STIM_023.jpg	99
2628.136	0.633	632.7	incongruent	Block3	incongruent/STIM_024.jpg	99
2631.873	0.629	629.4	incongruent	Block3	incongruent/STIM_024.jpg	100
2635.571	0.491	491.4	incongruent	Block3	incongruent/STIM_024.jpg	99
2638.428	0.81	809.9	incongruent	Block3	incongruent/STIM_024.jpg	99
2641.756	0.693	692.7	incongruent	Block3	incongruent/STIM_024.jpg	99
2645.281	0.717	717.3	incongruent	Block3	incongruent/STIM_025.jpg	100
2649.199	0.502	501.6	incongruent	Block3	incongruent/STIM_025.jpg	99
2651.876	0.83	830.0	incongruent	Block3	incongruent/STIM_025.jpg	100
2655.021	0.73	730.0	incongruent	Block3	incongruent/STIM_025.jpg	99
2658.275	0.419	419.2	incongruent	Block3	incongruent/STIM_025.jpg	100
2661.482	0.788	788.1	incongruent	Block3	incongruent/STIM_026.jpg	100
2665.58	0.427	427.4	incongruent	Block3	incongruent/STIM_026.jpg	100
2669.871	0.805	804.6	incongruent	Block3	incongruent/STIM_026.jpg	99
2673.047	0.566	565.5	incongruent	Block3	incongruent/STIM_026.jpg	100
2676.87	0.57	569.6	incongruent	Block3	incongruent/STIM_026.jpg	100
2679.774	0.672	672.4	incongruent	Block3	incongruent/STIM_027.jpg	99
2683.303	0.41	409.6	incongruent	Block3	incongruent/STIM_027.jpg	100
2686.658	0.431	430.7	incongruent	Block3	incongruent/STIM_027.jpg	99
2690.053	0.807	807.1	incongruent	Block3	incongruent/STIM_027.jpg	100
2693.66	0.552	551.6	incongruent	Block3	incongruent/STIM_027.jpg	100
2696.773	0.804	804.2	incongruent	Block3	incongruent/STIM_028.jpg	100
2701.377	0.508	508.3	incongruent	Block3	incongruent/STIM_028.jpg	100
2705.223	0.793	792.6	incongruent	Block3	incongruent/STIM_028.jpg	99
2709.695	0.796	795.8	incongruent	Block3	incongruent/STIM_028.jpg	100
2713.573	0.815	815.0	incongruent	Block3	incongruent/STIM_028.jpg	100
2717.589	0.575	574.8	incongruent	Block3	incongruent/STIM_029.jpg	99
2721.983	0.744	744.5	incongruent	Block3	incongruent/STIM_029.jpg	100
2726.534	0.674	673.7	incongruent	Block3	incongruent/STIM_029.jpg	99
2730.799	0.554	553.5	incongruent	Block3	incongruent/STIM_029.jpg	100
2734.274	0.472	472.2	incongruent	Block3	incongruent/STIM_029.jpg	99
2737.068	0.69	689.5	congruent	Block3	congruent/STIM_000.jpg	100
2740.574	0.427	426.6	congruent	Block3	congruent/STIM_000.jpg	99
2743.516	0.591	591.3	congruent	Block3	congruent/STIM_000.jpg	99
2746.652	0.414	414.5	congruent	Block3	congruent/STIM_000.jpg	99
2749.95	0.408	408.4	congruent	Block3	congruent/STIM_000.jpg	99
2754.276	0.52	520.5	congruent	Block3	congruent/STIM_001.jpg	99
2756.94	0.514	513.8	congruent	Block3	congruent/STIM_001.jpg	99
2759.916	0.606	605.6	congruent	Block3	congruent/STIM_001.jpg	100
2764.452	0.417	417.0	congruent	Block3	congruent/STIM_001.jpg	100
2767.632	0.511	511.1	congruent	Block3	congruent/STIM_001.jpg	100
2772.05	0.703	703.4	congruent	Block3	congruent/STIM_002.jpg	99
2774.828	0.4	400.0	congruent	Block3	congruent/STIM_002.jpg	99
2778.605	0.436	436.3	congruent	Block3	congruent/STIM_002.jpg	99
2781.731	0.514	513.8	congruent	Block3	congruent/STIM_002.jpg	99
2785.379	0.58	580.2	congruent	Block3	congruent/STIM_002.jpg	100
2789.396	0.414	414.3	congruent	Block3	congruent/STIM_003.jpg	100
2791.874	0.511	510.9	congruent	Block3	congruent/STIM_003.jpg	99
2795.999	0.48	480.2	congruent	Block3	congruent/STIM_003.jpg	100
2799.051	0.676	675.5	congruent	Block3	congruent/STIM_003.jpg	100
2802.447	0.507	506.9	congruent	Block3	congruent/STIM_003.jpg	100
2806.401	0.446	446.3	congruent	Block3	congruent/STIM_004.jpg	100
2810.082	0.651	650.9	congruent	Block3	congruent/STIM_004.jpg	100
2814.126	0.62	620.5	congruent	Block3	congruent/STIM_004.jpg	99
2818.423	0.522	522.3	congruent	Block3	congruent/STIM_004.jpg	100
2822.713	0.492	492.1	congruent	Block3	congruent/STIM_004.jpg	99
2825.259	0.439	438.6	congruent	Block3	congruent/STIM_005.jpg	99
2828.587	0.446	445.7	congruent	Block3	congruent/STIM_005.jpg	100
2832.777	0.582	581.6	congruent	Block3	congruent/STIM_005.jpg	100
2837.005	0.553	553.2	congruent	Block3	congruent/STIM_005.jpg	99
2841.342	0.666	665.8	congruent	Block3	congruent/STIM_005.jpg	99
2844.142	0.707	707.4	congruent	Block3	congruent/STIM_006.jpg	99
2847.787	0.69	690.0	congruent	Block3	congruent/STIM_006.jpg	99
2850.508	0.505	505.2	congruent	Block3	congruent/STIM_006.jpg	100
2853.499	0.648	648.1	congruent	Block3	congruent/STIM_006.jpg	99
2857.468	0.632	632.1	congruent	Block3	congruent/STIM_006.jpg	99
2860.3	0.645	645.0	congruent	Block3	congruent/STIM_007.jpg	100
2864.762	0.637	637.3	congruent	Block3	congruent/STIM_007.jpg	100
2868.825	0.63	630.3	congruent	Block3	congruent/STIM_007.jpg	99
2872.148	0.54	540.1	congruent	Block3	congruent/STIM_007.jpg	99
2876.392	0.68	679.7	congruent	Block3	congruent/STIM_007.jpg	100
2881.039	0.56	559.9	congruent	Block3	congruent/STIM_008.jpg	100
2885.344	0.412	411.5	congruent	Block3	congruent/STIM_008.jpg	100
2889.423	0.461	461.0	congruent	Block3	congruent/STIM_008.jpg	99
2893.175	0.466	466.2	congruent	Block3	congruent/STIM_008.jpg	99
2896.593	0.613	613.3	congruent	Block3	congruent/STIM_008.jpg	100
2899.588	0.504	504.2	congruent	Block3	congruent/STIM_009.jpg	100
2903.259	0.428	427.8	congruent	Block3	congruent/STIM_009.jpg	100
2906.429	0.672	671.8	congruent	Block3	congruent/STIM_009.jpg	100
2910.079	0.602	602.2	congruent	Block3	congruent/STIM_009.jpg	100
2913.376	0.503	503.2	congruent	Block3	congruent/STIM_009.jpg	100
2916.269	0.439	439.3	congruent	Block3	congruent/STIM_010.jpg	99
2920.336	0.54	540.4	congruent	Block3	congruent/STIM_010.jpg	99
2923.824	0.676	675.8	congruent	Block3	congruent/STIM_010.jpg	100
2928.367	0.572	572.2	congruent	Block3	congruent/STIM_010.jpg	99
2932.625	0.445	444.6	congruent	Block3	congruent/STIM_010.jpg	99
2935.607	0.498	498.0	congruent	Block3	congruent/STIM_011.jpg	99
2938.119	0.577	576.7	congruent	Block3	congruent/STIM_011.jpg	100
2941.43	0.415	414.7	congruent	Block3	congruent/STIM_011.jpg	99
2944.722	0.444	443.9	congruent	Block3	congruent/STIM_011.jpg	99
2947.232	0.51	510.5	congruent	Block3	congruent/STIM_011.jpg	99
2949.861	0.461	460.7	congruent	Block3	congruent/STIM_012.jpg	100
2952.943	0.584	583.6	congruent	Block3	congruent/STIM_012.jpg	100
2956.502	0.636	636.4	congruent	Block3	congruent/STIM_012.jpg	99
2959.335	0.481	480.7	congruent	Block3	congruent/STIM_012.jpg	99
2961.917	0.507	507.3	congruent	Block3	congruent/STIM_012.jpg	100
2965.556	0.431	431.2	congruent	Block3	congruent/STIM_013.jpg	100
2969.343	0.604	603.7	congruent	Block3	congruent/STIM_013.jpg	99
2973.648	0.496	495.9	congruent	Block3	congruent/STIM_013.jpg	100
2976.728	0.522	521.7	congruent	Block3	congruent/STIM_013.jpg	99
2979.962	0.465	464.6	congruent	Block3	congruent/STIM_013.jpg	99
2983.264	0.579	579.0	congruent	Block3	congruent/STIM_014.jpg	99
2987.287	0.563	562.7	congruent	Block3	congruent/STIM_014.jpg	99
2991.211	0.676	675.6	congruent	Block3	congruent/STIM_014.jpg	99
2995.881	0.409	409.2	congruent	Block3	congruent/STIM_014.jpg	100
2999.048	0.703	703.3	congruent	Block3	congruent/STIM_014.jpg	100
3003.737	0.64	639.6	congruent	Block3	congruent/STIM_015.jpg	99
3008.141	0.599	599.0	congruent	Block3	congruent/STIM_015.jpg	100
3011.589	0.646	646.5	congruent	Block3	congruent/STIM_015.jpg	100
3015.582	0.683	683.4	congruent	Block3	congruent/STIM_015.jpg	99
3018.514	0.567	567.4	congruent	Block3	congruent/STIM_015.jpg	100
3021.34	0.501	501.2	congruent	Block3	congruent/STIM_016.jpg	100
3024.994	0.708	707.8	congruent	Block3	congruent/STIM_016.jpg	99
3028.157	0.412	412.3	congruent	Block3	congruent/STIM_016.jpg	99
3032.022	0.537	537.1	congruent	Block3	congruent/STIM_016.jpg	99
3035.035	0.577	576.6	congruent	Block3	congruent/STIM_016.jpg	100
3039.347	0.55	550.5	congruent	Block3	congruent/STIM_017.jpg	100
3043.212	0.649	648.6	congruent	Block3	congruent/STIM_017.jpg	99
3046.412	0.686	685.9	congruent	Block3	congruent/STIM_017.jpg	99
3049.701	0.573	572.7	congruent	Block3	congruent/STIM_017.jpg	99
3052.918	0.401	400.6	congruent	Block3	congruent/STIM_017.jpg	99
3055.781	0.567	566.8	congruent	Block3	congruent/STIM_018.jpg	100
3060.272	0.562	561.7	congruent	Block3	congruent/STIM_018.jpg	100
3064.249	0.527	527.2	congruent	Block3	congruent/STIM_018.jpg	100
3067.088	0.595	594.7	congruent	Block3	congruent/STIM_018.jpg	99
3069.957	0.494	493.7	congruent	Block3	congruent/STIM_018.jpg	100
3072.942	0.425	424.7	congruent	Block3	congruent/STIM_019.jpg	99
3076.025	0.51	510.5	congruent	Block3	congruent/STIM_019.jpg	100
3079.537	0.566	565.7	congruent	Block3	congruent/STIM_019.jpg	99
3082.81	0.438	438.1	congruent	Block3	congruent/STIM_019.jpg	99
3086.206	0.48	480.3	congruent	Block3	congruent/STIM_019.jpg	99
3089.422	0.576	576.1	congruent	Block3	congruent/STIM_020.jpg	100
3093.436	0.687	686.7	congruent	Block3	congruent/STIM_020.jpg	100
3096.795	0.662	662.3	congruent	Block3	congruent/STIM_020.jpg	99
3100.109	0.406	405.8	congruent	Block3	congruent/STIM_020.jpg	99
3103.061	0.606	605.9	congruent	Block3	congruent/STIM_020.jpg	100
3107.342	0.67	669.8	congruent	Block3	congruent/STIM_021.jpg	99
3111.584	0.68	679.7	congruent	Block3	congruent/STIM_021.jpg	100
3115.071	0.566	565.6	congruent	Block3	congruent/STIM_021.jpg	100
3118.849	0.417	416.6	congruent	Block3	congruent/STIM_021.jpg	99
3122.477	0.63	630.3	congruent	Block3	congruent/STIM_021.jpg	100
3126.224	0.464	463.9	congruent	Block3	congruent/STIM_022.jpg	99
3129.424	0.546	545.8	congruent	Block3	congruent/STIM_022.jpg	99
3133.666	0.603	602.6	congruent	Block3	congruent/STIM_022.jpg	100
3136.319	0.425	424.7	congruent	Block3	congruent/STIM_022.jpg	100
3140.624	0.469	469.4	congruent	Block3	congruent/STIM_022.jpg	99
3144.334	0.464	463.6	congruent	Block3	congruent/STIM_023.jpg	99
3147.583	0.7	699.5	congruent	Block3	congruent/STIM_023.jpg	99
3151.239	0.441	440.6	congruent	Block3	congruent/STIM_023.jpg	100
3154.132	0.699	698.8	congruent	Block3	congruent/STIM_023.jpg	100
3157.939	0.524	524.5	congruent	Block3	congruent/STIM_023.jpg	100
3161.151	0.603	603.2	congruent	Block3	congruent/STIM_024.jpg	100
3164.711	0.551	550.9	congruent	Block3	congruent/STIM_024.jpg	99
3168.752	0.55	549.8	congruent	Block3	congruent/STIM_024.jpg	99
3172.163	0.554	553.6	congruent	Block3	congruent/STIM_024.jpg	99
3175.034	0.456	455.5	congruent	Block3	congruent/STIM_024.jpg	99
3178.391	0.472	472.2	congruent	Block3	congruent/STIM_025.jpg	99
3181.191	0.559	558.6	congruent	Block3	congruent/STIM_025.jpg	99
3185.684	0.689	688.6	congruent	Block3	congruent/STIM_025.jpg	100
3188.864	0.539	538.8	congruent	Block3	congruent/STIM_025.jpg	100
3192.323	0.652	652.2	congruent	Block3	congruent/STIM_025.jpg	99
3195.41	0.533	533.1	congruent	Block3	congruent/STIM_026.jpg	100
3197.955	0.701	701.2	congruent	Block3	congruent/STIM_026.jpg	100
3202.362	0.671	670.8	congruent	Block3	congruent/STIM_026.jpg	99
3205.114	0.437	436.8	congruent	Block3	congruent/STIM_026.jpg	100
3209.059	0.501	500.8	congruent	Block3	congruent/STIM_026.jpg	100
3211.927	0.607	607.1	congruent	Block3	congruent/STIM_027.jpg	99
3215.779	0.503	503.2	congruent	Block3	congruent/STIM_027.jpg	100
3219.088	0.698	697.6	congruent	Block3	congruent/STIM_027.jpg	99
3223.2	0.626	626.4	congruent	Block3	congruent/STIM_027.jpg	99
3227.415	0.512	511.9	congruent	Block3	congruent/STIM_027.jpg	100
3230.843	0.646	646.2	congruent	Block3	congruent/STIM_028.jpg	99
3234.321	0.427	426.9	congruent	Block3	congruent/STIM_028.jpg	99
3237.477	0.533	532.7	congruent	Block3	congruent/STIM_028.jpg	99
3241.99	0.509	509.3	congruent	Block3	congruent/STIM_028.jpg	99
3244.69	0.402	402.0	congruent	Block3	congruent/STIM_028.jpg	100
3248.952	0.433	433.3	congruent	Block3	congruent/STIM_029.jpg	100
3252.321	0.548	548.4	congruent	Block3	congruent/STIM_029.jpg	99
3256.741	0.709	709.2	congruent	Block3	congruent/STIM_029.jpg	99
3259.729	0.56	560.1	congruent	Block3	congruent/STIM_029.jpg	99
3264.07	0.425	425.1	congruent	Block3	congruent/STIM_029.jpg	100
