onset	duration	accuracy_binary	trial_type	learning_stage	stimulus
0.0	1.486	1	study	Phase1	study/STIM_000.jpg
5.2	1.137	1	study	Phase1	study/STIM_000.jpg
9.213	0.914	1	study	Phase1	study/STIM_000.jpg
13.671	0.862	1	study	Phase1	study/STIM_001.jpg
17.389	1.306	1	study	Phase1	study/STIM_001.jpg
21.37	0.789	1	study	Phase1	study/STIM_001.jpg
25.773	1.241	1	study	Phase1	study/STIM_002.jpg
30.881	1.071	1	study	Phase1	study/STIM_002.jpg
35.078	1.546	1	study	Phase1	study/STIM_002.jpg
39.1	1.712	1	study	Phase1	study/STIM_003.jpg
43.039	1.282	1	study	Phase1	study/STIM_003.jpg
47.275	1.591	1	study	Phase1	study/STIM_003.jpg
51.014	1.766	1	study	Phase1	study/STIM_004.jpg
55.355	1.271	1	study	Phase1	study/STIM_004.jpg
58.798	0.71	1	study	Phase1	study/STIM_004.jpg
63.183	1.352	1	study	Phase1	study/STIM_005.jpg
67.108	1.011	1	study	Phase1	study/STIM_005.jpg
70.447	0.962	1	study	Phase1	study/STIM_005.jpg
75.221	1.748	0	study	Phase1	study/STIM_006.jpg
80.732	1.056	1	study	Phase1	study/STIM_006.jpg
85.527	1.273	1	study	Phase1	study/STIM_006.jpg
89.66	1.071	1	study	Phase1	study/STIM_007.jpg
93.638	1.674	1	study	Phase1	study/STIM_007.jpg
98.022	1.136	1	study	Phase1	study/STIM_007.jpg
101.791	1.506	1	study	Phase1	study/STIM_008.jpg
107.174	1.502	1	study	Phase1	study/STIM_008.jpg
111.777	1.441	0	study	Phase1	study/STIM_008.jpg
116.015	1.1	1	study	Phase1	study/STIM_009.jpg
119.687	1.648	1	study	Phase1	study/STIM_009.jpg
123.531	1.176	1	study	Phase1	study/STIM_009.jpg
126.929	1.004	0	study	Phase1	study/STIM_010.jpg
130.799	1.497	1	study	Phase1	study/STIM_010.jpg
135.149	1.005	0	study	Phase1	study/STIM_010.jpg
139.702	0.839	0	study	Phase1	study/STIM_011.jpg
144.132	1.195	0	study	Phase1	study/STIM_011.jpg
147.798	1.536	1	study	Phase1	study/STIM_011.jpg
152.754	1.263	1	study	Phase1	study/STIM_012.jpg
157.967	1.652	1	study	Phase1	study/STIM_012.jpg
163.241	0.884	1	study	Phase1	study/STIM_012.jpg
167.478	1.187	1	study	Phase1	study/STIM_013.jpg
170.843	1.227	0	study	Phase1	study/STIM_013.jpg
175.878	0.848	1	study	Phase1	study/STIM_013.jpg
179.964	0.945	1	study	Phase1	study/STIM_014.jpg
184.739	0.905	1	study	Phase1	study/STIM_014.jpg
187.814	1.515	1	study	Phase1	study/STIM_014.jpg
192.162	1.23	0	study	Phase1	study/STIM_015.jpg
195.536	0.961	1	study	Phase1	study/STIM_015.jpg
200.313	1.402	1	study	Phase1	study/STIM_015.jpg
204.369	1.406	1	study	Phase1	study/STIM_016.jpg
209.595	1.342	1	study	Phase1	study/STIM_016.jpg
214.755	1.558	1	study	Phase1	study/STIM_016.jpg
219.378	1.087	1	study	Phase1	study/STIM_017.jpg
222.824	1.29	1	study	Phase1	study/STIM_017.jpg
227.119	0.783	1	study	Phase1	study/STIM_017.jpg
230.582	1.631	1	study	Phase1	study/STIM_018.jpg
234.599	0.927	1	study	Phase1	study/STIM_018.jpg
238.058	1.389	1	study	Phase1	study/STIM_018.jpg
242.09	1.246	1	study	Phase1	study/STIM_019.jpg
247.2	0.942	0	study	Phase1	study/STIM_019.jpg
250.441	1.161	1	study	Phase1	study/STIM_019.jpg
255.404	1.704	1	study	Phase1	study/STIM_020.jpg
260.092	1.587	1	study	Phase1	study/STIM_020.jpg
263.686	0.993	1	study	Phase1	study/STIM_020.jpg
267.138	0.985	1	study	Phase1	study/STIM_021.jpg
271.41	0.994	1	study	Phase1	study/STIM_021.jpg
274.866	1.42	1	study	Phase1	study/STIM_021.jpg
279.252	1.198	1	study	Phase1	study/STIM_022.jpg
282.851	0.95	1	study	Phase1	study/STIM_022.jpg
286.147	1.046	0	study	Phase1	study/STIM_022.jpg
290.423	1.194	1	study	Phase1	study/STIM_023.jpg
293.713	0.945	1	study	Phase1	study/STIM_023.jpg
297.89	0.744	1	study	Phase1	study/STIM_023.jpg
301.932	1.476	1	study	Phase1	study/STIM_024.jpg
306.049	0.836	1	study	Phase1	study/STIM_024.jpg
309.143	1.549	1	study	Phase1	study/STIM_024.jpg
313.326	1.543	1	study	Phase1	study/STIM_025.jpg
317.489	1.508	1	study	Phase1	study/STIM_025.jpg
322.344	0.751	1	study	Phase1	study/STIM_025.jpg
326.621	0.922	1	study	Phase1	study/STIM_026.jpg
331.309	0.767	1	study	Phase1	study/STIM_026.jpg
335.023	1.105	1	study	Phase1	study/STIM_026.jpg
339.767	1.142	1	study	Phase1	study/STIM_027.jpg
344.264	1.406	1	study	Phase1	study/STIM_027.jpg
348.733	1.064	1	study	Phase1	study/STIM_027.jpg
353.081	1.082	1	study	Phase1	study/STIM_028.jpg
357.848	1.088	1	study	Phase1	study/STIM_028.jpg
361.877	0.886	1	study	Phase1	study/STIM_028.jpg
364.884	1.195	1	study	Phase1	study/STIM_029.jpg
368.951	1.449	0	study	Phase1	study/STIM_029.jpg
373.943	0.744	1	study	Phase1	study/STIM_029.jpg
377.759	1.236	1	test	Phase1	test/STIM_000.jpg
382.68	0.8	1	test	Phase1	test/STIM_000.jpg
386.421	0.7	1	test	Phase1	test/STIM_000.jpg
391.015	0.757	1	test	Phase1	test/STIM_001.jpg
393.938	1.231	1	test	Phase1	test/STIM_001.jpg
398.504	1.22	0	test	Phase1	test/STIM_001.jpg
402.966	0.618	1	test	Phase1	test/STIM_002.jpg
407.246	1.12	1	test	Phase1	test/STIM_002.jpg
411.12	0.959	1	test	Phase1	test/STIM_002.jpg
414.561	0.735	1	test	Phase1	test/STIM_003.jpg
418.907	0.784	1	test	Phase1	test/STIM_003.jpg
422.7	1.188	1	test	Phase1	test/STIM_003.jpg
426.045	0.837	1	test	Phase1	test/STIM_004.jpg
429.983	1.154	1	test	Phase1	test/STIM_004.jpg
434.722	1.007	1	test	Phase1	test/STIM_004.jpg
437.81	1.27	1	test	Phase1	test/STIM_005.jpg
441.384	1.051	1	test	Phase1	test/STIM_005.jpg
445.606	0.996	1	test	Phase1	test/STIM_005.jpg
450.274	0.774	1	test	Phase1	test/STIM_006.jpg
454.123	1.048	1	test	Phase1	test/STIM_006.jpg
457.961	1.036	1	test	Phase1	test/STIM_006.jpg
462.863	0.855	1	test	Phase1	test/STIM_007.jpg
465.758	0.732	1	test	Phase1	test/STIM_007.jpg
470.247	0.954	1	test	Phase1	test/STIM_007.jpg
474.17	0.929	0	test	Phase1	test/STIM_008.jpg
478.704	0.761	1	test	Phase1	test/STIM_008.jpg
483.287	1.241	1	test	Phase1	test/STIM_008.jpg
487.882	1.128	1	test	Phase1	test/STIM_009.jpg
492.212	0.615	1	test	Phase1	test/STIM_009.jpg
495.136	0.717	1	test	Phase1	test/STIM_009.jpg
498.718	1.021	1	test	Phase1	test/STIM_010.jpg
502.746	0.717	1	test	Phase1	test/STIM_010.jpg
506.738	0.975	1	test	Phase1	test/STIM_010.jpg
510.384	1.118	1	test	Phase1	test/STIM_011.jpg
514.471	1.038	0	test	Phase1	test/STIM_011.jpg
518.817	1.018	0	test	Phase1	test/STIM_011.jpg
522.006	0.654	1	test	Phase1	test/STIM_012.jpg
526.038	0.679	0	test	Phase1	test/STIM_012.jpg
529.902	1.167	1	test	Phase1	test/STIM_012.jpg
533.542	1.204	1	test	Phase1	test/STIM_013.jpg
537.149	1.252	1	test	Phase1	test/STIM_013.jpg
540.925	0.637	1	test	Phase1	test/STIM_013.jpg
544.052	1.199	0	test	Phase1	test/STIM_014.jpg
548.691	1.224	1	test	Phase1	test/STIM_014.jpg
552.298	0.948	1	test	Phase1	test/STIM_014.jpg
556.854	0.636	1	test	Phase1	test/STIM_015.jpg
560.634	1.217	0	test	Phase1	test/STIM_015.jpg
564.919	1.197	1	test	Phase1	test/STIM_015.jpg
569.08	0.64	1	test	Phase1	test/STIM_016.jpg
572.369	1.243	1	test	Phase1	test/STIM_016.jpg
576.533	1.054	1	test	Phase1	test/STIM_016.jpg
580.56	1.1	1	test	Phase1	test/STIM_017.jpg
584.913	1.052	1	test	Phase1	test/STIM_017.jpg
589.856	0.682	1	test	Phase1	test/STIM_017.jpg
593.069	1.235	0	test	Phase1	test/STIM_018.jpg
597.811	0.742	1	test	Phase1	test/STIM_018.jpg
601.788	1.122	1	test	Phase1	test/STIM_018.jpg
606.835	1.205	1	test	Phase1	test/STIM_019.jpg
611.685	0.948	1	test	Phase1	test/STIM_019.jpg
615.263	0.992	1	test	Phase1	test/STIM_019.jpg
619.076	1.025	1	test	Phase1	test/STIM_020.jpg
623.523	0.627	1	test	Phase1	test/STIM_020.jpg
627.066	0.772	1	test	Phase1	test/STIM_020.jpg
630.804	1.202	1	test	Phase1	test/STIM_021.jpg
635.506	0.658	1	test	Phase1	test/STIM_021.jpg
640.147	1.122	1	test	Phase1	test/STIM_021.jpg
644.272	0.752	1	test	Phase1	test/STIM_022.jpg
648.585	1.123	1	test	Phase1	test/STIM_022.jpg
653.552	1.0	1	test	Phase1	test/STIM_022.jpg
657.555	1.008	0	test	Phase1	test/STIM_023.jpg
661.536	0.939	1	test	Phase1	test/STIM_023.jpg
666.101	0.964	1	test	Phase1	test/STIM_023.jpg
670.598	1.234	1	test	Phase1	test/STIM_024.jpg
674.57	0.684	1	test	Phase1	test/STIM_024.jpg
677.479	1.235	1	test	Phase1	test/STIM_024.jpg
681.22	0.871	0	test	Phase1	test/STIM_025.jpg
685.68	0.906	1	test	Phase1	test/STIM_025.jpg
689.12	0.942	1	test	Phase1	test/STIM_025.jpg
693.286	0.981	1	test	Phase1	test/STIM_026.jpg
698.142	1.22	1	test	Phase1	test/STIM_026.jpg
701.852	0.682	1	test	Phase1	test/STIM_026.jpg
706.323	1.261	1	test	Phase1	test/STIM_027.jpg
709.805	1.244	0	test	Phase1	test/STIM_027.jpg
713.067	0.896	1	test	Phase1	test/STIM_027.jpg
717.051	0.824	0	test	Phase1	test/STIM_028.jpg
721.102	1.19	1	test	Phase1	test/STIM_028.jpg
725.16	1.156	1	test	Phase1	test/STIM_028.jpg
728.556	0.958	1	test	Phase1	test/STIM_029.jpg
731.607	1.052	1	test	Phase1	test/STIM_029.jpg
734.985	1.151	1	test	Phase1	test/STIM_029.jpg
739.965	0.892	1	study	Phase2	study/STIM_000.jpg
743.498	1.066	1	study	Phase2	study/STIM_000.jpg
746.652	1.123	1	study	Phase2	study/STIM_000.jpg
750.287	0.829	1	study	Phase2	study/STIM_001.jpg
753.117	1.265	1	study	Phase2	study/STIM_001.jpg
756.766	0.876	1	study	Phase2	study/STIM_001.jpg
760.352	0.938	1	study	Phase2	study/STIM_002.jpg
764.573	0.649	1	study	Phase2	study/STIM_002.jpg
768.972	0.814	0	study	Phase2	study/STIM_002.jpg
773.303	1.177	1	study	Phase2	study/STIM_003.jpg
776.587	0.741	1	study	Phase2	study/STIM_003.jpg
779.744	0.963	1	study	Phase2	study/STIM_003.jpg
783.274	1.464	1	study	Phase2	study/STIM_004.jpg
788.183	0.692	1	study	Phase2	study/STIM_004.jpg
791.86	0.71	1	study	Phase2	study/STIM_004.jpg
794.887	1.078	1	study	Phase2	study/STIM_005.jpg
799.244	0.732	1	study	Phase2	study/STIM_005.jpg
802.525	1.247	0	study	Phase2	study/STIM_005.jpg
807.599	1.367	1	study	Phase2	study/STIM_006.jpg
812.545	0.655	1	study	Phase2	study/STIM_006.jpg
816.253	0.815	1	study	Phase2	study/STIM_006.jpg
819.201	1.498	1	study	Phase2	study/STIM_007.jpg
824.009	0.979	1	study	Phase2	study/STIM_007.jpg
827.48	0.984	1	study	Phase2	study/STIM_007.jpg
831.87	0.727	0	study	Phase2	study/STIM_008.jpg
835.026	1.212	1	study	Phase2	study/STIM_008.jpg
839.385	0.75	1	study	Phase2	study/STIM_008.jpg
844.019	1.104	1	study	Phase2	study/STIM_009.jpg
847.591	0.67	1	study	Phase2	study/STIM_009.jpg
851.569	0.985	1	study	Phase2	study/STIM_009.jpg
855.347	1.251	1	study	Phase2	study/STIM_010.jpg
859.623	0.841	1	study	Phase2	study/STIM_010.jpg
863.406	1.113	1	study	Phase2	study/STIM_010.jpg
867.178	0.705	1	study	Phase2	study/STIM_011.jpg
870.972	0.763	1	study	Phase2	study/STIM_011.jpg
875.705	1.29	1	study	Phase2	study/STIM_011.jpg
880.745	1.26	1	study	Phase2	study/STIM_012.jpg
885.086	1.3	1	study	Phase2	study/STIM_012.jpg
889.132	0.955	1	study	Phase2	study/STIM_012.jpg
892.466	1.424	1	study	Phase2	study/STIM_013.jpg
897.156	0.709	0	study	Phase2	study/STIM_013.jpg
900.107	0.649	1	study	Phase2	study/STIM_013.jpg
903.561	1.163	0	study	Phase2	study/STIM_014.jpg
907.586	0.768	1	study	Phase2	study/STIM_014.jpg
911.477	1.099	1	study	Phase2	study/STIM_014.jpg
914.765	1.487	1	study	Phase2	study/STIM_015.jpg
919.099	1.142	0	study	Phase2	study/STIM_015.jpg
923.862	0.987	1	study	Phase2	study/STIM_015.jpg
926.973	0.806	1	study	Phase2	study/STIM_016.jpg
931.151	0.827	1	study	Phase2	study/STIM_016.jpg
935.359	1.014	1	study	Phase2	study/STIM_016.jpg
939.1	0.851	1	study	Phase2	study/STIM_017.jpg
943.893	0.769	1	study	Phase2	study/STIM_017.jpg
947.51	0.921	1	study	Phase2	study/STIM_017.jpg
952.081	1.076	1	study	Phase2	study/STIM_018.jpg
955.767	0.774	1	study	Phase2	study/STIM_018.jpg
959.969	0.736	1	study	Phase2	study/STIM_018.jpg
963.486	1.018	0	study	Phase2	study/STIM_019.jpg
967.239	0.71	1	study	Phase2	study/STIM_019.jpg
971.276	1.083	1	study	Phase2	study/STIM_019.jpg
975.279	0.832	0	study	Phase2	study/STIM_020.jpg
978.157	1.337	1	study	Phase2	study/STIM_020.jpg
981.949	0.798	1	study	Phase2	study/STIM_020.jpg
986.025	0.733	1	study	Phase2	study/STIM_021.jpg
990.047	0.898	1	study	Phase2	study/STIM_021.jpg
994.06	0.78	1	study	Phase2	study/STIM_021.jpg
997.073	1.119	1	study	Phase2	study/STIM_022.jpg
1000.727	1.106	1	study	Phase2	study/STIM_022.jpg
1005.832	1.04	1	study	Phase2	study/STIM_022.jpg
1009.322	0.885	1	study	Phase2	study/STIM_023.jpg
1012.941	1.35	1	study	Phase2	study/STIM_023.jpg
1017.039	0.874	1	study	Phase2	study/STIM_023.jpg
1021.215	1.184	1	study	Phase2	study/STIM_024.jpg
1026.035	0.661	1	study	Phase2	study/STIM_024.jpg
1029.721	0.885	1	study	Phase2	study/STIM_024.jpg
1033.941	0.68	1	study	Phase2	study/STIM_025.jpg
1037.515	0.901	1	study	Phase2	study/STIM_025.jpg
1041.294	0.958	0	study	Phase2	study/STIM_025.jpg
1045.609	1.022	1	study	Phase2	study/STIM_026.jpg
1049.83	1.267	1	study	Phase2	study/STIM_026.jpg
1053.891	0.84	1	study	Phase2	study/STIM_026.jpg
1058.453	0.735	0	study	Phase2	study/STIM_027.jpg
1062.889	0.798	1	study	Phase2	study/STIM_027.jpg
1066.773	1.206	0	study	Phase2	study/STIM_027.jpg
1070.239	1.136	1	study	Phase2	study/STIM_028.jpg
1074.205	0.888	1	study	Phase2	study/STIM_028.jpg
1078.954	1.209	1	study	Phase2	study/STIM_028.jpg
1082.208	0.764	1	study	Phase2	study/STIM_029.jpg
1086.613	0.855	1	study	Phase2	study/STIM_029.jpg
1091.043	0.633	1	study	Phase2	study/STIM_029.jpg
1094.687	0.977	1	test	Phase2	test/STIM_000.jpg
1098.374	1.013	1	test	Phase2	test/STIM_000.jpg
1102.483	1.033	1	test	Phase2	test/STIM_000.jpg
1105.684	0.673	1	test	Phase2	test/STIM_001.jpg
1109.358	1.17	1	test	Phase2	test/STIM_001.jpg
1114.107	0.833	0	test	Phase2	test/STIM_001.jpg
1117.727	0.723	1	test	Phase2	test/STIM_002.jpg
1121.632	1.273	1	test	Phase2	test/STIM_002.jpg
1124.998	1.128	1	test	Phase2	test/STIM_002.jpg
1129.786	1.076	1	test	Phase2	test/STIM_003.jpg
1133.68	1.047	1	test	Phase2	test/STIM_003.jpg
1137.989	0.901	1	test	Phase2	test/STIM_003.jpg
1141.906	0.955	1	test	Phase2	test/STIM_004.jpg
1146.332	1.049	1	test	Phase2	test/STIM_004.jpg
1150.822	0.936	1	test	Phase2	test/STIM_004.jpg
1155.598	0.629	1	test	Phase2	test/STIM_005.jpg
1158.302	0.844	0	test	Phase2	test/STIM_005.jpg
1161.442	1.106	1	test	Phase2	test/STIM_005.jpg
1164.885	0.991	1	test	Phase2	test/STIM_006.jpg
1169.71	1.077	1	test	Phase2	test/STIM_006.jpg
1173.576	0.592	1	test	Phase2	test/STIM_006.jpg
1177.237	1.056	1	test	Phase2	test/STIM_007.jpg
1181.755	0.951	1	test	Phase2	test/STIM_007.jpg
1185.09	1.17	1	test	Phase2	test/STIM_007.jpg
1190.049	0.672	1	test	Phase2	test/STIM_008.jpg
1193.14	0.599	1	test	Phase2	test/STIM_008.jpg
1196.301	1.052	1	test	Phase2	test/STIM_008.jpg
1200.513	1.214	1	test	Phase2	test/STIM_009.jpg
1205.068	0.72	1	test	Phase2	test/STIM_009.jpg
1208.462	0.737	1	test	Phase2	test/STIM_009.jpg
1211.556	1.213	1	test	Phase2	test/STIM_010.jpg
1215.259	0.9	1	test	Phase2	test/STIM_010.jpg
1219.648	1.261	1	test	Phase2	test/STIM_010.jpg
1224.631	0.981	1	test	Phase2	test/STIM_011.jpg
1228.993	0.945	1	test	Phase2	test/STIM_011.jpg
1233.718	0.895	0	test	Phase2	test/STIM_011.jpg
1238.114	0.928	1	test	Phase2	test/STIM_012.jpg
1241.693	1.269	1	test	Phase2	test/STIM_012.jpg
1245.05	0.816	1	test	Phase2	test/STIM_012.jpg
1247.979	0.608	1	test	Phase2	test/STIM_013.jpg
1251.251	0.893	1	test	Phase2	test/STIM_013.jpg
1254.474	1.066	1	test	Phase2	test/STIM_013.jpg
1257.94	0.811	1	test	Phase2	test/STIM_014.jpg
1260.896	0.693	0	test	Phase2	test/STIM_014.jpg
1265.214	1.11	1	test	Phase2	test/STIM_014.jpg
1269.756	1.052	1	test	Phase2	test/STIM_015.jpg
1274.093	0.617	1	test	Phase2	test/STIM_015.jpg
1278.266	0.936	1	test	Phase2	test/STIM_015.jpg
1281.757	1.034	1	test	Phase2	test/STIM_016.jpg
1286.533	0.827	1	test	Phase2	test/STIM_016.jpg
1290.483	1.2	0	test	Phase2	test/STIM_016.jpg
1294.718	0.989	1	test	Phase2	test/STIM_017.jpg
1299.637	0.642	0	test	Phase2	test/STIM_017.jpg
1304.153	0.956	1	test	Phase2	test/STIM_017.jpg
1308.075	0.656	1	test	Phase2	test/STIM_018.jpg
1312.225	0.806	1	test	Phase2	test/STIM_018.jpg
1316.706	0.641	1	test	Phase2	test/STIM_018.jpg
1319.86	1.0	1	test	Phase2	test/STIM_019.jpg
1324.216	0.877	1	test	Phase2	test/STIM_019.jpg
1327.781	0.782	1	test	Phase2	test/STIM_019.jpg
1332.065	1.036	1	test	Phase2	test/STIM_020.jpg
1335.199	0.612	1	test	Phase2	test/STIM_020.jpg
1339.335	0.962	1	test	Phase2	test/STIM_020.jpg
1342.363	0.844	0	test	Phase2	test/STIM_021.jpg
1346.102	0.641	1	test	Phase2	test/STIM_021.jpg
1349.189	1.227	1	test	Phase2	test/STIM_021.jpg
1354.387	0.973	1	test	Phase2	test/STIM_022.jpg
1357.371	1.107	1	test	Phase2	test/STIM_022.jpg
1360.757	0.657	1	test	Phase2	test/STIM_022.jpg
1365.282	0.965	1	test	Phase2	test/STIM_023.jpg
1368.529	0.592	1	test	Phase2	test/STIM_023.jpg
1371.296	1.028	1	test	Phase2	test/STIM_023.jpg
1374.741	1.05	1	test	Phase2	test/STIM_024.jpg
1378.998	0.704	1	test	Phase2	test/STIM_024.jpg
1382.305	0.91	1	test	Phase2	test/STIM_024.jpg
1385.558	1.102	1	test	Phase2	test/STIM_025.jpg
1389.985	0.7	1	test	Phase2	test/STIM_025.jpg
1392.941	0.884	1	test	Phase2	test/STIM_025.jpg
1397.322	0.772	1	test	Phase2	test/STIM_026.jpg
1401.878	0.726	1	test	Phase2	test/STIM_026.jpg
1404.779	0.861	1	test	Phase2	test/STIM_026.jpg
1408.959	1.022	1	test	Phase2	test/STIM_027.jpg
1412.737	0.662	1	test	Phase2	test/STIM_027.jpg
1416.407	1.08	1	test	Phase2	test/STIM_027.jpg
1420.135	0.821	1	test	Phase2	test/STIM_028.jpg
1423.639	1.145	1	test	Phase2	test/STIM_028.jpg
1427.82	0.905	1	test	Phase2	test/STIM_028.jpg
1432.484	0.6	1	test	Phase2	test/STIM_029.jpg
1436.062	0.827	1	test	Phase2	test/STIM_029.jpg
1438.937	0.992	1	test	Phase2	test/STIM_029.jpg
1442.368	0.847	1	study	Phase3	study/STIM_000.jpg
1446.67	0.552	1	study	Phase3	study/STIM_000.jpg
1449.551	0.713	1	study	Phase3	study/STIM_000.jpg
1452.339	0.636	1	study	Phase3	study/STIM_001.jpg
1455.606	0.631	1	study	Phase3	study/STIM_001.jpg
1459.676	1.141	0	study	Phase3	study/STIM_001.jpg
1462.858	0.705	1	study	Phase3	study/STIM_002.jpg
1465.771	0.849	1	study	Phase3	study/STIM_002.jpg
1469.652	0.726	1	study	Phase3	study/STIM_002.jpg
1474.19	0.942	1	study	Phase3	study/STIM_003.jpg
1477.895	0.836	1	study	Phase3	study/STIM_003.jpg
1481.633	1.142	1	study	Phase3	study/STIM_003.jpg
1485.448	0.938	1	study	Phase3	study/STIM_004.jpg
1488.787	0.837	1	study	Phase3	study/STIM_004.jpg
1493.376	0.661	1	study	Phase3	study/STIM_004.jpg
1497.249	1.029	1	study	Phase3	study/STIM_005.jpg
1502.015	0.943	1	study	Phase3	study/STIM_005.jpg
1505.093	0.872	1	study	Phase3	study/STIM_005.jpg
1509.194	1.125	1	study	Phase3	study/STIM_006.jpg
1512.557	0.561	1	study	Phase3	study/STIM_006.jpg
1516.514	1.096	1	study	Phase3	study/STIM_006.jpg
1520.601	0.842	1	study	Phase3	study/STIM_007.jpg
1523.906	0.646	1	study	Phase3	study/STIM_007.jpg
1526.662	0.688	1	study	Phase3	study/STIM_007.jpg
1530.605	0.77	1	study	Phase3	study/STIM_008.jpg
1533.762	0.79	1	study	Phase3	study/STIM_008.jpg
1536.569	1.13	1	study	Phase3	study/STIM_008.jpg
1541.58	1.167	1	study	Phase3	study/STIM_009.jpg
1545.833	1.002	1	study	Phase3	study/STIM_009.jpg
1550.13	0.582	1	study	Phase3	study/STIM_009.jpg
1553.627	0.93	1	study	Phase3	study/STIM_010.jpg
1556.767	1.119	1	study	Phase3	study/STIM_010.jpg
1560.674	0.77	1	study	Phase3	study/STIM_010.jpg
1563.745	0.899	1	study	Phase3	study/STIM_011.jpg
1567.527	0.89	1	study	Phase3	study/STIM_011.jpg
1571.829	0.89	1	study	Phase3	study/STIM_011.jpg
1576.488	0.949	0	study	Phase3	study/STIM_012.jpg
1579.976	1.105	1	study	Phase3	study/STIM_012.jpg
1585.065	0.642	1	study	Phase3	study/STIM_012.jpg
1588.496	0.891	1	study	Phase3	study/STIM_013.jpg
1592.213	0.922	1	study	Phase3	study/STIM_013.jpg
1595.14	0.72	1	study	Phase3	study/STIM_013.jpg
1598.103	0.63	1	study	Phase3	study/STIM_014.jpg
1602.029	1.042	1	study	Phase3	study/STIM_014.jpg
1605.23	1.2	1	study	Phase3	study/STIM_014.jpg
1610.137	1.147	1	study	Phase3	study/STIM_015.jpg
1613.622	1.118	1	study	Phase3	study/STIM_015.jpg
1617.933	0.784	1	study	Phase3	study/STIM_015.jpg
1620.961	0.903	1	study	Phase3	study/STIM_016.jpg
1624.583	0.879	1	study	Phase3	study/STIM_016.jpg
1628.744	1.173	1	study	Phase3	study/STIM_016.jpg
1632.68	0.649	1	study	Phase3	study/STIM_017.jpg
1636.787	1.194	1	study	Phase3	study/STIM_017.jpg
1641.881	0.595	1	study	Phase3	study/STIM_017.jpg
1644.591	1.168	1	study	Phase3	study/STIM_018.jpg
1649.097	1.125	1	study	Phase3	study/STIM_018.jpg
1652.299	1.158	1	study	Phase3	study/STIM_018.jpg
1655.715	0.875	1	study	Phase3	study/STIM_019.jpg
1658.651	0.741	1	study	Phase3	study/STIM_019.jpg
1662.233	1.169	1	study	Phase3	study/STIM_019.jpg
1666.676	0.663	1	study	Phase3	study/STIM_020.jpg
1670.371	0.658	1	study	Phase3	study/STIM_020.jpg
1674.544	1.056	1	study	Phase3	study/STIM_020.jpg
1678.001	0.697	1	study	Phase3	study/STIM_021.jpg
1681.137	0.854	1	study	Phase3	study/STIM_021.jpg
1685.559	0.864	1	study	Phase3	study/STIM_021.jpg
1690.1	1.003	0	study	Phase3	study/STIM_022.jpg
1693.652	0.769	1	study	Phase3	study/STIM_022.jpg
1696.967	0.696	1	study	Phase3	study/STIM_022.jpg
1701.479	0.624	1	study	Phase3	study/STIM_023.jpg
1705.478	0.618	1	study	Phase3	study/STIM_023.jpg
1709.232	0.802	1	study	Phase3	study/STIM_023.jpg
1712.549	1.03	1	study	Phase3	study/STIM_024.jpg
1717.258	0.861	1	study	Phase3	study/STIM_024.jpg
1720.561	1.018	1	study	Phase3	study/STIM_024.jpg
1724.526	0.978	1	study	Phase3	study/STIM_025.jpg
1729.291	0.895	1	study	Phase3	study/STIM_025.jpg
1733.789	0.835	1	study	Phase3	study/STIM_025.jpg
1737.436	1.121	1	study	Phase3	study/STIM_026.jpg
1741.606	1.107	1	study	Phase3	study/STIM_026.jpg
1745.998	0.721	1	study	Phase3	study/STIM_026.jpg
1750.307	0.62	0	study	Phase3	study/STIM_027.jpg
1754.637	0.79	1	study	Phase3	study/STIM_027.jpg
1759.387	0.737	0	study	Phase3	study/STIM_027.jpg
1763.534	0.862	1	study	Phase3	study/STIM_028.jpg
1767.812	0.573	1	study	Phase3	study/STIM_028.jpg
1770.662	0.639	1	study	Phase3	study/STIM_028.jpg
1775.222	1.03	1	study	Phase3	study/STIM_029.jpg
1779.047	0.784	1	study	Phase3	study/STIM_029.jpg
1782.791	0.932	1	study	Phase3	study/STIM_029.jpg
1786.238	1.245	1	test	Phase3	test/STIM_000.jpg
1791.414	0.601	1	test	Phase3	test/STIM_000.jpg
1794.682	0.901	1	test	Phase3	test/STIM_000.jpg
1798.454	0.877	1	test	Phase3	test/STIM_001.jpg
1802.703	1.166	1	test	Phase3	test/STIM_001.jpg
1807.087	0.994	1	test	Phase3	test/STIM_001.jpg
1811.054	0.807	1	test	Phase3	test/STIM_002.jpg
1814.289	0.664	1	test	Phase3	test/STIM_002.jpg
1818.274	1.246	1	test	Phase3	test/STIM_002.jpg
1821.624	1.201	0	test	Phase3	test/STIM_003.jpg
1825.712	0.995	1	test	Phase3	test/STIM_003.jpg
1829.771	1.215	1	test	Phase3	test/STIM_003.jpg
1833.369	0.895	1	test	Phase3	test/STIM_004.jpg
1837.896	1.272	0	test	Phase3	test/STIM_004.jpg
1841.263	1.143	1	test	Phase3	test/STIM_004.jpg
1844.804	0.932	1	test	Phase3	test/STIM_005.jpg
1849.277	0.936	1	test	Phase3	test/STIM_005.jpg
1854.16	1.048	1	test	Phase3	test/STIM_005.jpg
1857.769	1.095	1	test	Phase3	test/STIM_006.jpg
1861.207	0.956	1	test	Phase3	test/STIM_006.jpg
1865.421	0.672	1	test	Phase3	test/STIM_006.jpg
1868.66	0.591	0	test	Phase3	test/STIM_007.jpg
1873.119	1.189	0	test	Phase3	test/STIM_007.jpg
1877.864	1.011	1	test	Phase3	test/STIM_007.jpg
1881.622	1.061	1	test	Phase3	test/STIM_008.jpg
1885.476	1.256	1	test	Phase3	test/STIM_008.jpg
1889.307	0.674	1	test	Phase3	test/STIM_008.jpg
1893.27	0.849	1	test	Phase3	test/STIM_009.jpg
1896.164	0.8	1	test	Phase3	test/STIM_009.jpg
1899.606	0.765	0	test	Phase3	test/STIM_009.jpg
1904.018	0.662	1	test	Phase3	test/STIM_010.jpg
1908.271	0.716	1	test	Phase3	test/STIM_010.jpg
1911.757	0.868	1	test	Phase3	test/STIM_010.jpg
1916.55	0.678	0	test	Phase3	test/STIM_011.jpg
1920.191	0.85	1	test	Phase3	test/STIM_011.jpg
1923.146	1.064	0	test	Phase3	test/STIM_011.jpg
1926.599	1.154	1	test	Phase3	test/STIM_012.jpg
1930.725	0.797	1	test	Phase3	test/STIM_012.jpg
1934.098	0.754	1	test	Phase3	test/STIM_012.jpg
1936.933	0.656	1	test	Phase3	test/STIM_013.jpg
1939.895	0.639	1	test	Phase3	test/STIM_013.jpg
1943.111	0.694	1	test	Phase3	test/STIM_013.jpg
1947.677	0.95	1	test	Phase3	test/STIM_014.jpg
1952.374	0.863	1	test	Phase3	test/STIM_014.jpg
1955.652	0.852	1	test	Phase3	test/STIM_014.jpg
1959.858	0.791	1	test	Phase3	test/STIM_015.jpg
1962.78	0.723	1	test	Phase3	test/STIM_015.jpg
1967.377	0.851	1	test	Phase3	test/STIM_015.jpg
1970.738	0.679	1	test	Phase3	test/STIM_016.jpg
1974.027	0.7	1	test	Phase3	test/STIM_016.jpg
1978.249	0.602	1	test	Phase3	test/STIM_016.jpg
1981.61	0.94	1	test	Phase3	test/STIM_017.jpg
1985.176	0.794	1	test	Phase3	test/STIM_017.jpg
1989.714	0.724	1	test	Phase3	test/STIM_017.jpg
1994.233	0.832	1	test	Phase3	test/STIM_018.jpg
1997.784	0.678	1	test	Phase3	test/STIM_018.jpg
2001.512	0.731	1	test	Phase3	test/STIM_018.jpg
2005.837	0.998	1	test	Phase3	test/STIM_019.jpg
2009.931	1.076	1	test	Phase3	test/STIM_019.jpg
2014.265	0.696	1	test	Phase3	test/STIM_019.jpg
2018.316	0.608	1	test	Phase3	test/STIM_020.jpg
2021.59	1.052	0	test	Phase3	test/STIM_020.jpg
2025.824	1.221	1	test	Phase3	test/STIM_020.jpg
2030.887	1.266	1	test	Phase3	test/STIM_021.jpg
2035.398	0.876	1	test	Phase3	test/STIM_021.jpg
2038.778	1.267	1	test	Phase3	test/STIM_021.jpg
2043.632	0.65	0	test	Phase3	test/STIM_022.jpg
2047.799	0.606	1	test	Phase3	test/STIM_022.jpg
2050.433	1.044	0	test	Phase3	test/STIM_022.jpg
2054.7	1.071	1	test	Phase3	test/STIM_023.jpg
2057.987	0.639	1	test	Phase3	test/STIM_023.jpg
2061.667	1.103	0	test	Phase3	test/STIM_023.jpg
2065.615	0.866	1	test	Phase3	test/STIM_024.jpg
2069.151	1.264	1	test	Phase3	test/STIM_024.jpg
2073.074	0.996	1	test	Phase3	test/STIM_024.jpg
2076.953	0.603	1	test	Phase3	test/STIM_025.jpg
2080.577	1.259	1	test	Phase3	test/STIM_025.jpg
2083.978	0.722	1	test	Phase3	test/STIM_025.jpg
2088.383	1.017	1	test	Phase3	test/STIM_026.jpg
2091.456	1.162	1	test	Phase3	test/STIM_026.jpg
2095.137	1.08	1	test	Phase3	test/STIM_026.jpg
2098.297	0.73	1	test	Phase3	test/STIM_027.jpg
2101.702	0.88	1	test	Phase3	test/STIM_027.jpg
2105.535	0.778	1	test	Phase3	test/STIM_027.jpg
2109.523	0.864	1	test	Phase3	test/STIM_028.jpg
2114.121	1.106	1	test	Phase3	test/STIM_028.jpg
2118.216	0.681	1	test	Phase3	test/STIM_028.jpg
2121.31	0.895	1	test	Phase3	test/STIM_029.jpg
2125.856	0.678	1	test	Phase3	test/STIM_029.jpg
2130.262	0.911	1	test	Phase3	test/STIM_029.jpg
