onset	duration	response_time_ms	trial_type	learning_stage	stimulus	response_port
0.0	2.915	2915.1	regulate	Run1	regulate/STIM_000.jpg	100
4.945	2.048	2048.3	regulate	Run1	regulate/STIM_000.jpg	100
10.93	2.282	2281.8	regulate	Run1	regulate/STIM_000.jpg	100
15.882	2.578	2577.7	regulate	Run1	regulate/STIM_000.jpg	99
21.127	2.473	2472.6	regulate	Run1	regulate/STIM_001.jpg	100
26.165	2.226	2225.5	regulate	Run1	regulate/STIM_001.jpg	100
30.622	2.227	2227.1	regulate	Run1	regulate/STIM_001.jpg	100
35.521	2.429	2428.7	regulate	Run1	regulate/STIM_001.jpg	99
40.414	2.991	2990.7	regulate	Run1	regulate/STIM_002.jpg	100
46.226	2.592	2591.8	regulate	Run1	regulate/STIM_002.jpg	99
51.714	1.701	1700.8	regulate	Run1	regulate/STIM_002.jpg	100
56.929	2.573	2572.8	regulate	Run1	regulate/STIM_002.jpg	99
62.323	2.466	2465.5	regulate	Run1	regulate/STIM_003.jpg	99
68.376	2.875	2875.1	regulate	Run1	regulate/STIM_003.jpg	99
74.996	2.845	2844.6	regulate	Run1	regulate/STIM_003.jpg	100
81.709	2.356	2356.1	regulate	Run1	regulate/STIM_003.jpg	100
87.284	2.688	2687.6	regulate	Run1	regulate/STIM_004.jpg	100
92.852	2.026	2025.8	regulate	Run1	regulate/STIM_004.jpg	100
97.077	2.005	2004.5	regulate	Run1	regulate/STIM_004.jpg	99
102.995	1.776	1776.3	regulate	Run1	regulate/STIM_004.jpg	100
107.272	2.147	2146.9	regulate	Run1	regulate/STIM_005.jpg	100
112.37	2.591	2590.8	regulate	Run1	regulate/STIM_005.jpg	100
118.541	1.662	1662.5	regulate	Run1	regulate/STIM_005.jpg	100
123.328	2.32	2319.6	regulate	Run1	regulate/STIM_005.jpg	100
129.329	1.8	1799.7	regulate	Run1	regulate/STIM_006.jpg	100
133.637	2.529	2529.0	regulate	Run1	regulate/STIM_006.jpg	100
139.963	1.595	1594.8	regulate	Run1	regulate/STIM_006.jpg	100
143.933	1.503	1503.0	regulate	Run1	regulate/STIM_006.jpg	99
148.477	2.761	2761.4	regulate	Run1	regulate/STIM_007.jpg	100
154.485	1.771	1770.9	regulate	Run1	regulate/STIM_007.jpg	100
160.219	1.602	1601.7	regulate	Run1	regulate/STIM_007.jpg	99
164.344	2.727	2727.2	regulate	Run1	regulate/STIM_007.jpg	99
170.06	3.149	3149.1	regulate	Run1	regulate/STIM_008.jpg	99
176.019	2.284	2283.9	regulate	Run1	regulate/STIM_008.jpg	99
181.22	1.567	1567.4	regulate	Run1	regulate/STIM_008.jpg	100
185.753	2.758	2758.4	regulate	Run1	regulate/STIM_008.jpg	99
191.165	2.28	2280.1	regulate	Run1	regulate/STIM_009.jpg	100
196.559	3.104	3104.0	regulate	Run1	regulate/STIM_009.jpg	100
202.169	2.903	2903.3	regulate	Run1	regulate/STIM_009.jpg	99
208.574	1.81	1809.9	regulate	Run1	regulate/STIM_009.jpg	99
213.599	2.647	2647.0	regulate	Run1	regulate/STIM_010.jpg	100
220.086	2.495	2494.7	regulate	Run1	regulate/STIM_010.jpg	100
225.982	1.888	1887.8	regulate	Run1	regulate/STIM_010.jpg	99
230.348	1.863	1863.3	regulate	Run1	regulate/STIM_010.jpg	100
234.901	1.632	1631.6	regulate	Run1	regulate/STIM_011.jpg	99
240.282	2.101	2100.6	regulate	Run1	regulate/STIM_011.jpg	100
245.659	1.449	1448.6	regulate	Run1	regulate/STIM_011.jpg	99
249.9	2.165	2164.8	regulate	Run1	regulate/STIM_011.jpg	100
255.727	1.648	1648.1	regulate	Run1	regulate/STIM_012.jpg	100
260.524	2.309	2308.8	regulate	Run1	regulate/STIM_012.jpg	100
265.566	2.118	2117.5	regulate	Run1	regulate/STIM_012.jpg	99
270.042	2.489	2489.4	regulate	Run1	regulate/STIM_012.jpg	100
276.459	2.332	2331.5	regulate	Run1	regulate/STIM_013.jpg	99
281.643	2.367	2367.2	regulate	Run1	regulate/STIM_013.jpg	99
286.117	1.889	1889.3	regulate	Run1	regulate/STIM_013.jpg	99
291.245	2.691	2690.6	regulate	Run1	regulate/STIM_013.jpg	100
297.29	2.695	2695.0	regulate	Run1	regulate/STIM_014.jpg	99
302.7	1.808	1808.5	regulate	Run1	regulate/STIM_014.jpg	99
307.109	1.873	1872.9	regulate	Run1	regulate/STIM_014.jpg	100
312.972	1.288	1287.6	regulate	Run1	regulate/STIM_014.jpg	100
317.202	2.418	2417.7	regulate	Run1	regulate/STIM_015.jpg	99
321.633	1.642	1642.2	regulate	Run1	regulate/STIM_015.jpg	99
326.913	1.926	1925.9	regulate	Run1	regulate/STIM_015.jpg	100
332.567	1.563	1563.0	regulate	Run1	regulate/STIM_015.jpg	100
336.258	2.862	2861.6	regulate	Run1	regulate/STIM_016.jpg	99
341.899	2.684	2684.3	regulate	Run1	regulate/STIM_016.jpg	100
347.383	1.918	1918.5	regulate	Run1	regulate/STIM_016.jpg	99
352.998	2.68	2680.4	regulate	Run1	regulate/STIM_016.jpg	99
359.497	1.972	1971.5	regulate	Run1	regulate/STIM_017.jpg	100
364.384	1.611	1610.8	regulate	Run1	regulate/STIM_017.jpg	99
368.981	1.439	1439.4	regulate	Run1	regulate/STIM_017.jpg	100
373.13	2.073	2072.9	regulate	Run1	regulate/STIM_017.jpg	100
377.632	1.698	1698.4	regulate	Run1	regulate/STIM_018.jpg	100
382.844	1.99	1990.2	regulate	Run1	regulate/STIM_018.jpg	100
387.16	1.331	1331.0	regulate	Run1	regulate/STIM_018.jpg	100
391.455	1.668	1667.9	regulate	Run1	regulate/STIM_018.jpg	99
396.17	2.452	2452.3	regulate	Run1	regulate/STIM_019.jpg	100
402.184	1.819	1818.6	regulate	Run1	regulate/STIM_019.jpg	99
406.734	1.565	1565.4	regulate	Run1	regulate/STIM_019.jpg	99
411.181	1.582	1581.8	regulate	Run1	regulate/STIM_019.jpg	99
416.165	2.234	2233.9	regulate	Run1	regulate/STIM_020.jpg	99
420.683	3.032	3032.2	regulate	Run1	regulate/STIM_020.jpg	100
427.207	2.224	2224.0	regulate	Run1	regulate/STIM_020.jpg	100
433.148	2.185	2185.0	regulate	Run1	regulate/STIM_020.jpg	100
437.591	3.265	3265.2	regulate	Run1	regulate/STIM_021.jpg	100
444.05	3.122	3121.5	regulate	Run1	regulate/STIM_021.jpg	99
450.021	1.957	1956.9	regulate	Run1	regulate/STIM_021.jpg	99
454.229	1.266	1266.1	regulate	Run1	regulate/STIM_021.jpg	100
457.85	2.568	2567.7	regulate	Run1	regulate/STIM_022.jpg	100
463.683	1.824	1823.5	regulate	Run1	regulate/STIM_022.jpg	100
469.488	2.964	2963.7	regulate	Run1	regulate/STIM_022.jpg	99
475.265	2.228	2228.0	regulate	Run1	regulate/STIM_022.jpg	100
480.726	1.478	1478.3	regulate	Run1	regulate/STIM_023.jpg	100
485.322	1.532	1531.5	regulate	Run1	regulate/STIM_023.jpg	100
489.687	1.38	1380.0	regulate	Run1	regulate/STIM_023.jpg	100
494.562	1.718	1717.9	regulate	Run1	regulate/STIM_023.jpg	99
499.924	3.312	3312.5	regulate	Run1	regulate/STIM_024.jpg	99
505.601	2.977	2977.4	regulate	Run1	regulate/STIM_024.jpg	99
511.727	2.662	2661.7	regulate	Run1	regulate/STIM_024.jpg	99
516.467	1.235	1235.0	regulate	Run1	regulate/STIM_024.jpg	100
520.327	1.482	1482.4	regulate	Run1	regulate/STIM_025.jpg	99
523.88	2.771	2770.9	regulate	Run1	regulate/STIM_025.jpg	100
529.661	2.673	2673.2	regulate	Run1	regulate/STIM_025.jpg	100
536.132	2.48	2479.7	regulate	Run1	regulate/STIM_025.jpg	100
541.756	2.926	2926.4	regulate	Run1	regulate/STIM_026.jpg	99
547.296	2.484	2484.4	regulate	Run1	regulate/STIM_026.jpg	99
552.883	1.546	1545.8	regulate	Run1	regulate/STIM_026.jpg	99
557.052	1.705	1705.0	regulate	Run1	regulate/STIM_026.jpg	100
561.481	1.619	1619.0	regulate	Run1	regulate/STIM_027.jpg	99
565.916	1.579	1579.2	regulate	Run1	regulate/STIM_027.jpg	99
569.708	2.385	2385.1	regulate	Run1	regulate/STIM_027.jpg	100
575.301	1.626	1626.2	regulate	Run1	regulate/STIM_027.jpg	99
580.111	2.405	2405.0	regulate	Run1	regulate/STIM_028.jpg	99
586.342	2.161	2161.1	regulate	Run1	regulate/STIM_028.jpg	99
590.765	1.642	1641.8	regulate	Run1	regulate/STIM_028.jpg	100
595.847	2.366	2366.3	regulate	Run1	regulate/STIM_028.jpg	100
600.525	3.316	3316.4	regulate	Run1	regulate/STIM_029.jpg	99
606.255	1.667	1666.7	regulate	Run1	regulate/STIM_029.jpg	100
610.717	2.826	2826.2	regulate	Run1	regulate/STIM_029.jpg	100
616.445	2.458	2458.4	regulate	Run1	regulate/STIM_029.jpg	99
620.909	0.855	854.6	observe	Run1	observe/STIM_000.jpg	100
625.383	0.841	840.8	observe	Run1	observe/STIM_000.jpg	99
630.079	0.915	915.0	observe	Run1	observe/STIM_000.jpg	100
634.063	1.434	1434.4	observe	Run1	observe/STIM_000.jpg	99
638.586	1.157	1156.6	observe	Run1	observe/STIM_001.jpg	99
643.452	1.505	1505.1	observe	Run1	observe/STIM_001.jpg	100
647.194	1.231	1230.8	observe	Run1	observe/STIM_001.jpg	99
651.354	0.773	772.6	observe	Run1	observe/STIM_001.jpg	100
654.698	1.277	1276.9	observe	Run1	observe/STIM_002.jpg	99
659.97	1.29	1290.3	observe	Run1	observe/STIM_002.jpg	99
664.695	1.408	1407.9	observe	Run1	observe/STIM_002.jpg	99
668.87	1.093	1093.1	observe	Run1	observe/STIM_002.jpg	100
673.783	1.49	1490.3	observe	Run1	observe/STIM_003.jpg	100
678.001	1.029	1028.6	observe	Run1	observe/STIM_003.jpg	100
682.008	0.994	993.7	observe	Run1	observe/STIM_003.jpg	99
685.411	0.979	979.3	observe	Run1	observe/STIM_003.jpg	100
689.471	1.22	1219.7	observe	Run1	observe/STIM_004.jpg	99
693.306	1.201	1201.2	observe	Run1	observe/STIM_004.jpg	99
698.035	0.985	985.4	observe	Run1	observe/STIM_004.jpg	99
701.622	1.471	1470.6	observe	Run1	observe/STIM_004.jpg	99
705.411	1.199	1198.7	observe	Run1	observe/STIM_005.jpg	100
708.631	1.299	1298.6	observe	Run1	observe/STIM_005.jpg	100
713.72	1.018	1017.9	observe	Run1	observe/STIM_005.jpg	99
718.147	1.509	1509.2	observe	Run1	observe/STIM_005.jpg	99
723.471	1.167	1167.4	observe	Run1	observe/STIM_006.jpg	100
726.837	0.859	859.0	observe	Run1	observe/STIM_006.jpg	100
730.213	1.457	1457.3	observe	Run1	observe/STIM_006.jpg	99
734.235	1.001	1000.8	observe	Run1	observe/STIM_006.jpg	99
738.359	1.454	1454.0	observe	Run1	observe/STIM_007.jpg	99
742.56	0.879	879.0	observe	Run1	observe/STIM_007.jpg	99
747.028	0.97	970.2	observe	Run1	observe/STIM_007.jpg	99
751.069	0.958	957.6	observe	Run1	observe/STIM_007.jpg	100
755.998	1.244	1243.9	observe	Run1	observe/STIM_008.jpg	99
759.891	1.051	1051.2	observe	Run1	observe/STIM_008.jpg	99
762.959	0.794	794.3	observe	Run1	observe/STIM_008.jpg	100
765.763	1.109	1109.2	observe	Run1	observe/STIM_008.jpg	99
770.211	0.784	783.8	observe	Run1	observe/STIM_009.jpg	100
773.799	1.403	1403.2	observe	Run1	observe/STIM_009.jpg	100
777.879	0.964	963.5	observe	Run1	observe/STIM_009.jpg	99
782.182	0.982	981.6	observe	Run1	observe/STIM_009.jpg	99
785.973	1.26	1260.4	observe	Run1	observe/STIM_010.jpg	100
789.337	1.41	1410.5	observe	Run1	observe/STIM_010.jpg	99
793.47	1.129	1128.8	observe	Run1	observe/STIM_010.jpg	100
797.405	1.509	1509.4	observe	Run1	observe/STIM_010.jpg	100
801.026	1.497	1497.3	observe	Run1	observe/STIM_011.jpg	99
805.842	0.796	796.2	observe	Run1	observe/STIM_011.jpg	100
810.094	1.008	1007.8	observe	Run1	observe/STIM_011.jpg	100
815.025	0.904	904.5	observe	Run1	observe/STIM_011.jpg	100
818.2	1.377	1376.9	observe	Run1	observe/STIM_012.jpg	99
822.442	1.142	1141.9	observe	Run1	observe/STIM_012.jpg	99
827.091	1.033	1033.4	observe	Run1	observe/STIM_012.jpg	99
831.049	1.343	1342.6	observe	Run1	observe/STIM_012.jpg	99
835.966	0.795	795.0	observe	Run1	observe/STIM_013.jpg	100
840.079	1.201	1201.1	observe	Run1	observe/STIM_013.jpg	99
843.857	1.373	1373.0	observe	Run1	observe/STIM_013.jpg	100
848.664	1.221	1220.7	observe	Run1	observe/STIM_013.jpg	100
852.543	1.502	1501.6	observe	Run1	observe/STIM_014.jpg	99
856.991	0.908	908.3	observe	Run1	observe/STIM_014.jpg	99
861.142	1.432	1432.2	observe	Run1	observe/STIM_014.jpg	100
865.175	1.286	1286.3	observe	Run1	observe/STIM_014.jpg	100
870.134	0.762	762.0	observe	Run1	observe/STIM_015.jpg	99
874.664	1.452	1452.1	observe	Run1	observe/STIM_015.jpg	100
878.157	1.025	1024.8	observe	Run1	observe/STIM_015.jpg	100
882.902	0.917	917.4	observe	Run1	observe/STIM_015.jpg	100
886.352	0.988	988.2	observe	Run1	observe/STIM_016.jpg	100
889.402	1.259	1259.4	observe	Run1	observe/STIM_016.jpg	99
893.087	1.382	1381.8	observe	Run1	observe/STIM_016.jpg	99
898.04	1.389	1389.4	observe	Run1	observe/STIM_016.jpg	100
901.957	0.99	990.0	observe	Run1	observe/STIM_017.jpg	100
906.264	0.83	829.8	observe	Run1	observe/STIM_017.jpg	100
909.806	1.135	1134.9	observe	Run1	observe/STIM_017.jpg	100
913.263	1.351	1351.4	observe	Run1	observe/STIM_017.jpg	100
918.061	0.926	925.7	observe	Run1	observe/STIM_018.jpg	99
921.853	0.762	762.1	observe	Run1	observe/STIM_018.jpg	100
925.386	1.359	1359.4	observe	Run1	observe/STIM_018.jpg	100
930.363	0.83	830.2	observe	Run1	observe/STIM_018.jpg	99
933.504	1.162	1162.0	observe	Run1	observe/STIM_019.jpg	100
938.073	1.44	1440.2	observe	Run1	observe/STIM_019.jpg	100
942.411	1.109	1108.8	observe	Run1	observe/STIM_019.jpg	100
945.823	1.453	1452.9	observe	Run1	observe/STIM_019.jpg	99
950.378	1.307	1307.3	regulate	Run2	regulate/STIM_000.jpg	100
954.254	1.688	1688.3	regulate	Run2	regulate/STIM_000.jpg	100
959.371	1.858	1857.5	regulate	Run2	regulate/STIM_000.jpg	100
965.167	1.479	1479.1	regulate	Run2	regulate/STIM_000.jpg	99
969.655	1.811	1811.3	regulate	Run2	regulate/STIM_001.jpg	100
974.795	2.49	2490.1	regulate	Run2	regulate/STIM_001.jpg	99
980.423	2.01	2010.5	regulate	Run2	regulate/STIM_001.jpg	99
986.019	2.219	2218.9	regulate	Run2	regulate/STIM_001.jpg	100
990.857	1.918	1917.6	regulate	Run2	regulate/STIM_002.jpg	99
995.954	2.069	2069.3	regulate	Run2	regulate/STIM_002.jpg	100
1000.757	1.304	1304.5	regulate	Run2	regulate/STIM_002.jpg	99
1004.391	1.302	1301.9	regulate	Run2	regulate/STIM_002.jpg	100
1008.798	2.713	2712.7	regulate	Run2	regulate/STIM_003.jpg	99
1014.912	1.318	1317.9	regulate	Run2	regulate/STIM_003.jpg	99
1018.935	1.796	1796.4	regulate	Run2	regulate/STIM_003.jpg	100
1023.339	1.765	1765.1	regulate	Run2	regulate/STIM_003.jpg	99
1027.747	1.827	1827.4	regulate	Run2	regulate/STIM_004.jpg	100
1033.239	1.214	1214.1	regulate	Run2	regulate/STIM_004.jpg	99
1036.918	2.315	2314.9	regulate	Run2	regulate/STIM_004.jpg	100
1041.371	1.732	1731.5	regulate	Run2	regulate/STIM_004.jpg	100
1046.538	1.485	1485.3	regulate	Run2	regulate/STIM_005.jpg	99
1050.659	1.444	1444.2	regulate	Run2	regulate/STIM_005.jpg	100
1054.914	1.897	1896.9	regulate	Run2	regulate/STIM_005.jpg	99
1060.522	1.098	1097.9	regulate	Run2	regulate/STIM_005.jpg	100
1063.76	1.729	1729.4	regulate	Run2	regulate/STIM_006.jpg	100
1069.398	2.578	2577.5	regulate	Run2	regulate/STIM_006.jpg	100
1075.304	2.165	2164.9	regulate	Run2	regulate/STIM_006.jpg	99
1079.643	2.194	2193.6	regulate	Run2	regulate/STIM_006.jpg	99
1084.764	2.319	2319.2	regulate	Run2	regulate/STIM_007.jpg	100
1090.178	2.663	2662.6	regulate	Run2	regulate/STIM_007.jpg	100
1096.189	1.533	1533.1	regulate	Run2	regulate/STIM_007.jpg	99
1101.393	2.183	2183.0	regulate	Run2	regulate/STIM_007.jpg	99
1105.659	2.766	2766.5	regulate	Run2	regulate/STIM_008.jpg	99
1110.456	1.784	1784.2	regulate	Run2	regulate/STIM_008.jpg	100
1114.924	2.021	2020.6	regulate	Run2	regulate/STIM_008.jpg	100
1120.483	1.084	1083.6	regulate	Run2	regulate/STIM_008.jpg	100
1124.475	2.328	2327.8	regulate	Run2	regulate/STIM_009.jpg	99
1129.655	2.113	2112.9	regulate	Run2	regulate/STIM_009.jpg	100
1135.328	2.396	2396.0	regulate	Run2	regulate/STIM_009.jpg	99
1141.714	1.317	1317.3	regulate	Run2	regulate/STIM_009.jpg	99
1146.021	1.237	1237.4	regulate	Run2	regulate/STIM_010.jpg	99
1149.907	1.895	1894.9	regulate	Run2	regulate/STIM_010.jpg	99
1153.819	2.147	2146.8	regulate	Run2	regulate/STIM_010.jpg	100
1158.779	1.203	1203.3	regulate	Run2	regulate/STIM_010.jpg	100
1163.868	1.656	1655.7	regulate	Run2	regulate/STIM_011.jpg	100
1168.298	1.728	1727.6	regulate	Run2	regulate/STIM_011.jpg	99
1172.358	2.439	2439.3	regulate	Run2	regulate/STIM_011.jpg	100
1177.462	2.002	2001.6	regulate	Run2	regulate/STIM_011.jpg	99
1182.931	2.222	2222.5	regulate	Run2	regulate/STIM_012.jpg	100
1188.489	1.741	1741.1	regulate	Run2	regulate/STIM_012.jpg	100
1193.339	1.456	1456.5	regulate	Run2	regulate/STIM_012.jpg	99
1198.448	1.046	1046.1	regulate	Run2	regulate/STIM_012.jpg	100
1202.396	1.789	1789.1	regulate	Run2	regulate/STIM_013.jpg	100
1207.823	2.631	2631.2	regulate	Run2	regulate/STIM_013.jpg	99
1213.24	2.458	2458.4	regulate	Run2	regulate/STIM_013.jpg	100
1218.82	1.595	1595.1	regulate	Run2	regulate/STIM_013.jpg	100
1223.893	2.018	2017.8	regulate	Run2	regulate/STIM_014.jpg	100
1228.942	2.501	2500.9	regulate	Run2	regulate/STIM_014.jpg	100
1234.201	2.383	2383.2	regulate	Run2	regulate/STIM_014.jpg	99
1239.785	1.12	1120.4	regulate	Run2	regulate/STIM_014.jpg	100
1243.753	1.28	1280.3	regulate	Run2	regulate/STIM_015.jpg	100
1247.898	1.759	1758.6	regulate	Run2	regulate/STIM_015.jpg	99
1252.404	2.151	2151.0	regulate	Run2	regulate/STIM_015.jpg	100
1257.248	1.302	1301.9	regulate	Run2	regulate/STIM_015.jpg	100
1262.342	1.936	1935.5	regulate	Run2	regulate/STIM_016.jpg	99
1266.537	2.105	2105.0	regulate	Run2	regulate/STIM_016.jpg	100
1272.583	2.328	2327.8	regulate	Run2	regulate/STIM_016.jpg	99
1277.123	1.688	1687.7	regulate	Run2	regulate/STIM_016.jpg	100
1280.866	2.623	2622.7	regulate	Run2	regulate/STIM_017.jpg	99
1286.196	1.321	1320.7	regulate	Run2	regulate/STIM_017.jpg	99
1290.734	1.378	1378.5	regulate	Run2	regulate/STIM_017.jpg	99
1294.649	1.302	1301.5	regulate	Run2	regulate/STIM_017.jpg	99
1298.093	2.21	2210.0	regulate	Run2	regulate/STIM_018.jpg	100
1302.956	1.782	1782.0	regulate	Run2	regulate/STIM_018.jpg	99
1307.735	1.986	1985.9	regulate	Run2	regulate/STIM_018.jpg	99
1313.204	1.685	1685.3	regulate	Run2	regulate/STIM_018.jpg	99
1318.718	1.602	1601.7	regulate	Run2	regulate/STIM_019.jpg	100
1322.507	1.703	1702.7	regulate	Run2	regulate/STIM_019.jpg	100
1326.793	1.417	1417.2	regulate	Run2	regulate/STIM_019.jpg	100
1330.922	2.328	2328.3	regulate	Run2	regulate/STIM_019.jpg	99
1336.67	1.369	1369.2	regulate	Run2	regulate/STIM_020.jpg	100
1341.456	1.95	1950.1	regulate	Run2	regulate/STIM_020.jpg	100
1346.176	2.465	2464.6	regulate	Run2	regulate/STIM_020.jpg	99
1351.335	1.685	1685.1	regulate	Run2	regulate/STIM_020.jpg	99
1356.371	1.748	1748.3	regulate	Run2	regulate/STIM_021.jpg	99
1361.204	1.188	1187.6	regulate	Run2	regulate/STIM_021.jpg	100
1364.609	1.996	1996.4	regulate	Run2	regulate/STIM_021.jpg	99
1369.493	1.153	1152.8	regulate	Run2	regulate/STIM_021.jpg	99
1372.973	1.72	1720.1	regulate	Run2	regulate/STIM_022.jpg	100
1378.301	2.13	2129.8	regulate	Run2	regulate/STIM_022.jpg	100
1384.335	2.132	2132.3	regulate	Run2	regulate/STIM_022.jpg	99
1390.455	1.597	1597.4	regulate	Run2	regulate/STIM_022.jpg	99
1394.584	2.378	2377.8	regulate	Run2	regulate/STIM_023.jpg	100
1400.536	2.266	2265.5	regulate	Run2	regulate/STIM_023.jpg	100
1404.879	1.699	1698.6	regulate	Run2	regulate/STIM_023.jpg	100
1409.642	2.25	2249.9	regulate	Run2	regulate/STIM_023.jpg	99
1415.673	1.517	1517.1	regulate	Run2	regulate/STIM_024.jpg	100
1420.643	2.051	2051.3	regulate	Run2	regulate/STIM_024.jpg	100
1424.904	1.154	1153.9	regulate	Run2	regulate/STIM_024.jpg	99
1429.161	1.362	1361.6	regulate	Run2	regulate/STIM_024.jpg	99
1432.738	2.817	2817.2	regulate	Run2	regulate/STIM_025.jpg	99
1438.835	2.617	2617.4	regulate	Run2	regulate/STIM_025.jpg	99
1445.358	1.941	1940.8	regulate	Run2	regulate/STIM_025.jpg	99
1449.856	1.317	1317.3	regulate	Run2	regulate/STIM_025.jpg	100
1453.698	2.557	2557.3	regulate	Run2	regulate/STIM_026.jpg	99
1458.436	1.561	1560.6	regulate	Run2	regulate/STIM_026.jpg	100
1462.153	2.46	2460.1	regulate	Run2	regulate/STIM_026.jpg	99
1467.858	1.962	1961.5	regulate	Run2	regulate/STIM_026.jpg	100
1471.974	1.97	1969.8	regulate	Run2	regulate/STIM_027.jpg	99
1477.364	2.396	2395.8	regulate	Run2	regulate/STIM_027.jpg	99
1483.014	2.166	2165.8	regulate	Run2	regulate/STIM_027.jpg	100
1488.562	1.515	1514.6	regulate	Run2	regulate/STIM_027.jpg	100
1493.5	1.482	1482.3	regulate	Run2	regulate/STIM_028.jpg	100
1498.661	2.17	2170.0	regulate	Run2	regulate/STIM_028.jpg	100
1504.215	1.869	1869.1	regulate	Run2	regulate/STIM_028.jpg	99
1509.25	1.084	1084.1	regulate	Run2	regulate/STIM_028.jpg	99
1512.853	2.437	2437.1	regulate	Run2	regulate/STIM_029.jpg	99
1518.498	1.594	1593.8	regulate	Run2	regulate/STIM_029.jpg	99
1522.902	1.237	1237.1	regulate	Run2	regulate/STIM_029.jpg	100
1527.103	2.032	2032.1	regulate	Run2	regulate/STIM_029.jpg	99
1532.019	1.391	1390.8	observe	Run2	observe/STIM_000.jpg	99
1537.136	1.237	1237.0	observe	Run2	observe/STIM_000.jpg	100
1542.012	0.933	933.3	observe	Run2	observe/STIM_000.jpg	100
1546.708	1.523	1522.7	observe	Run2	observe/STIM_000.jpg	100
1551.591	0.888	887.8	observe	Run2	observe/STIM_001.jpg	99
1556.127	1.503	1503.4	observe	Run2	observe/STIM_001.jpg	99
1559.877	1.199	1198.6	observe	Run2	observe/STIM_001.jpg	99
1563.412	1.456	1455.8	observe	Run2	observe/STIM_001.jpg	100
1567.121	0.806	805.7	observe	Run2	observe/STIM_002.jpg	100
1571.472	1.094	1094.5	observe	Run2	observe/STIM_002.jpg	99
1575.69	0.846	845.5	observe	Run2	observe/STIM_002.jpg	99
1579.458	1.342	1341.9	observe	Run2	observe/STIM_002.jpg	100
1584.616	1.038	1037.8	observe	Run2	observe/STIM_003.jpg	100
1587.952	1.346	1346.0	observe	Run2	observe/STIM_003.jpg	99
1592.198	1.102	1102.4	observe	Run2	observe/STIM_003.jpg	99
1595.45	1.201	1200.9	observe	Run2	observe/STIM_003.jpg	99
1600.349	1.287	1287.1	observe	Run2	observe/STIM_004.jpg	99
1604.395	1.057	1056.8	observe	Run2	observe/STIM_004.jpg	99
1608.567	1.423	1423.2	observe	Run2	observe/STIM_004.jpg	99
1612.756	1.022	1021.8	observe	Run2	observe/STIM_004.jpg	100
1617.174	0.976	976.1	observe	Run2	observe/STIM_005.jpg	99
1621.087	1.404	1404.4	observe	Run2	observe/STIM_005.jpg	99
1625.922	0.854	853.7	observe	Run2	observe/STIM_005.jpg	99
1630.105	1.084	1084.0	observe	Run2	observe/STIM_005.jpg	99
1634.789	0.895	895.1	observe	Run2	observe/STIM_006.jpg	100
1638.428	1.06	1060.4	observe	Run2	observe/STIM_006.jpg	100
1643.296	0.828	828.0	observe	Run2	observe/STIM_006.jpg	99
1647.882	1.152	1151.5	observe	Run2	observe/STIM_006.jpg	99
1651.494	1.286	1286.5	observe	Run2	observe/STIM_007.jpg	100
1655.564	1.116	1116.4	observe	Run2	observe/STIM_007.jpg	99
1660.125	1.225	1225.4	observe	Run2	observe/STIM_007.jpg	100
1664.838	0.979	978.8	observe	Run2	observe/STIM_007.jpg	100
1668.228	1.019	1018.6	observe	Run2	observe/STIM_008.jpg	99
1671.474	1.349	1349.2	observe	Run2	observe/STIM_008.jpg	100
1675.803	1.361	1360.8	observe	Run2	observe/STIM_008.jpg	100
1679.968	1.011	1011.2	observe	Run2	observe/STIM_008.jpg	100
1683.818	1.08	1080.2	observe	Run2	observe/STIM_009.jpg	99
1687.628	1.34	1339.9	observe	Run2	observe/STIM_009.jpg	99
1691.959	0.795	795.1	observe	Run2	observe/STIM_009.jpg	99
1695.043	1.467	1467.4	observe	Run2	observe/STIM_009.jpg	100
1699.313	1.383	1383.4	observe	Run2	observe/STIM_010.jpg	99
1703.865	0.86	860.1	observe	Run2	observe/STIM_010.jpg	100
1707.493	1.42	1420.3	observe	Run2	observe/STIM_010.jpg	100
1712.618	1.313	1313.1	observe	Run2	observe/STIM_010.jpg	99
1717.275	1.5	1499.7	observe	Run2	observe/STIM_011.jpg	99
1721.174	1.296	1296.2	observe	Run2	observe/STIM_011.jpg	100
1724.719	1.103	1103.1	observe	Run2	observe/STIM_011.jpg	100
1728.936	1.209	1209.0	observe	Run2	observe/STIM_011.jpg	100
1733.116	1.497	1496.7	observe	Run2	observe/STIM_012.jpg	100
1738.091	1.417	1417.4	observe	Run2	observe/STIM_012.jpg	99
1742.868	0.84	839.9	observe	Run2	observe/STIM_012.jpg	99
1745.798	1.371	1370.9	observe	Run2	observe/STIM_012.jpg	100
1750.408	0.931	931.4	observe	Run2	observe/STIM_013.jpg	100
1754.282	0.931	930.6	observe	Run2	observe/STIM_013.jpg	100
1758.925	1.254	1254.4	observe	Run2	observe/STIM_013.jpg	99
1763.47	0.992	992.2	observe	Run2	observe/STIM_013.jpg	99
1768.3	1.277	1276.8	observe	Run2	observe/STIM_014.jpg	99
1772.58	1.52	1519.6	observe	Run2	observe/STIM_014.jpg	100
1777.963	1.472	1471.6	observe	Run2	observe/STIM_014.jpg	99
1781.484	0.898	898.1	observe	Run2	observe/STIM_014.jpg	100
1784.539	1.219	1218.7	observe	Run2	observe/STIM_015.jpg	100
1789.125	0.864	863.9	observe	Run2	observe/STIM_015.jpg	99
1792.305	1.098	1097.5	observe	Run2	observe/STIM_015.jpg	100
1795.572	1.087	1086.9	observe	Run2	observe/STIM_015.jpg	100
1799.164	0.801	801.1	observe	Run2	observe/STIM_016.jpg	100
1803.322	1.398	1397.9	observe	Run2	observe/STIM_016.jpg	100
1806.804	1.26	1259.6	observe	Run2	observe/STIM_016.jpg	100
1811.164	0.96	959.8	observe	Run2	observe/STIM_016.jpg	99
1815.901	1.111	1110.9	observe	Run2	observe/STIM_017.jpg	100
1820.163	0.948	948.1	observe	Run2	observe/STIM_017.jpg	100
1823.246	0.82	819.8	observe	Run2	observe/STIM_017.jpg	100
1826.234	0.979	979.3	observe	Run2	observe/STIM_017.jpg	100
1829.717	1.314	1314.5	observe	Run2	observe/STIM_018.jpg	100
1835.016	1.39	1390.1	observe	Run2	observe/STIM_018.jpg	99
1839.234	1.221	1221.4	observe	Run2	observe/STIM_018.jpg	100
1843.828	1.155	1154.7	observe	Run2	observe/STIM_018.jpg	99
1847.471	1.28	1279.9	observe	Run2	observe/STIM_019.jpg	99
1852.198	1.441	1441.4	observe	Run2	observe/STIM_019.jpg	100
1857.068	1.187	1186.6	observe	Run2	observe/STIM_019.jpg	99
1860.292	1.451	1450.6	observe	Run2	observe/STIM_019.jpg	100
1865.666	1.616	1616.0	regulate	Run3	regulate/STIM_000.jpg	100
1870.847	1.689	1689.0	regulate	Run3	regulate/STIM_000.jpg	100
1874.834	1.152	1152.0	regulate	Run3	regulate/STIM_000.jpg	100
1879.378	1.324	1323.9	regulate	Run3	regulate/STIM_000.jpg	99
1883.201	1.278	1277.8	regulate	Run3	regulate/STIM_001.jpg	100
1887.355	1.616	1615.7	regulate	Run3	regulate/STIM_001.jpg	99
1891.235	1.148	1147.5	regulate	Run3	regulate/STIM_001.jpg	99
1895.514	1.558	1557.8	regulate	Run3	regulate/STIM_001.jpg	100
1899.411	1.279	1279.4	regulate	Run3	regulate/STIM_002.jpg	100
1903.806	1.971	1970.7	regulate	Run3	regulate/STIM_002.jpg	100
1909.494	1.306	1305.6	regulate	Run3	regulate/STIM_002.jpg	100
1913.423	1.334	1334.2	regulate	Run3	regulate/STIM_002.jpg	99
1916.836	1.008	1008.2	regulate	Run3	regulate/STIM_003.jpg	100
1920.811	1.931	1931.2	regulate	Run3	regulate/STIM_003.jpg	99
1925.771	2.142	2142.0	regulate	Run3	regulate/STIM_003.jpg	99
1930.214	1.94	1940.0	regulate	Run3	regulate/STIM_003.jpg	100
1935.706	2.09	2090.3	regulate	Run3	regulate/STIM_004.jpg	100
1940.283	1.12	1120.1	regulate	Run3	regulate/STIM_004.jpg	99
1944.252	2.109	2108.8	regulate	Run3	regulate/STIM_004.jpg	99
1949.951	2.144	2144.0	regulate	Run3	regulate/STIM_004.jpg	99
1954.584	1.913	1912.9	regulate	Run3	regulate/STIM_005.jpg	100
1959.596	1.845	1845.0	regulate	Run3	regulate/STIM_005.jpg	100
1964.352	1.554	1553.5	regulate	Run3	regulate/STIM_005.jpg	100
1968.082	1.143	1143.4	regulate	Run3	regulate/STIM_005.jpg	99
1973.156	2.262	2261.6	regulate	Run3	regulate/STIM_006.jpg	100
1978.795	1.416	1416.3	regulate	Run3	regulate/STIM_006.jpg	99
1983.772	1.358	1358.5	regulate	Run3	regulate/STIM_006.jpg	100
1988.448	1.094	1093.9	regulate	Run3	regulate/STIM_006.jpg	99
1992.79	1.472	1471.7	regulate	Run3	regulate/STIM_007.jpg	99
1997.211	1.215	1215.4	regulate	Run3	regulate/STIM_007.jpg	100
2002.03	1.489	1489.2	regulate	Run3	regulate/STIM_007.jpg	100
2006.329	1.117	1116.6	regulate	Run3	regulate/STIM_007.jpg	99
2010.869	2.179	2178.8	regulate	Run3	regulate/STIM_008.jpg	100
2015.859	1.115	1114.7	regulate	Run3	regulate/STIM_008.jpg	100
2019.5	1.966	1965.7	regulate	Run3	regulate/STIM_008.jpg	99
2024.867	1.713	1713.4	regulate	Run3	regulate/STIM_008.jpg	99
2028.977	1.701	1701.4	regulate	Run3	regulate/STIM_009.jpg	99
2033.634	1.135	1135.2	regulate	Run3	regulate/STIM_009.jpg	99
2038.327	1.38	1379.9	regulate	Run3	regulate/STIM_009.jpg	100
2042.177	1.341	1340.8	regulate	Run3	regulate/STIM_009.jpg	99
2047.117	1.358	1358.1	regulate	Run3	regulate/STIM_010.jpg	99
2051.011	1.907	1907.1	regulate	Run3	regulate/STIM_010.jpg	100
2056.325	1.557	1556.9	regulate	Run3	regulate/STIM_010.jpg	100
2060.941	1.014	1013.5	regulate	Run3	regulate/STIM_010.jpg	100
2065.098	1.434	1434.1	regulate	Run3	regulate/STIM_011.jpg	99
2069.004	1.146	1146.3	regulate	Run3	regulate/STIM_011.jpg	99
2073.812	2.281	2280.8	regulate	Run3	regulate/STIM_011.jpg	100
2078.94	1.171	1171.4	regulate	Run3	regulate/STIM_011.jpg	100
2082.736	1.996	1995.9	regulate	Run3	regulate/STIM_012.jpg	99
2088.437	1.803	1802.9	regulate	Run3	regulate/STIM_012.jpg	99
2094.217	1.176	1176.1	regulate	Run3	regulate/STIM_012.jpg	99
2099.078	1.235	1234.6	regulate	Run3	regulate/STIM_012.jpg	99
2103.171	2.093	2092.8	regulate	Run3	regulate/STIM_013.jpg	99
2107.33	1.874	1873.7	regulate	Run3	regulate/STIM_013.jpg	100
2111.521	1.946	1946.2	regulate	Run3	regulate/STIM_013.jpg	99
2116.226	2.2	2200.3	regulate	Run3	regulate/STIM_013.jpg	99
2120.789	2.01	2010.4	regulate	Run3	regulate/STIM_014.jpg	100
2125.003	2.244	2244.3	regulate	Run3	regulate/STIM_014.jpg	100
2129.364	2.052	2052.2	regulate	Run3	regulate/STIM_014.jpg	100
2134.165	1.865	1865.0	regulate	Run3	regulate/STIM_014.jpg	100
2138.83	2.222	2221.8	regulate	Run3	regulate/STIM_015.jpg	99
2144.97	1.337	1337.2	regulate	Run3	regulate/STIM_015.jpg	99
2148.991	1.756	1756.1	regulate	Run3	regulate/STIM_015.jpg	100
2152.85	1.641	1640.8	regulate	Run3	regulate/STIM_015.jpg	100
2157.783	1.916	1915.8	regulate	Run3	regulate/STIM_016.jpg	100
2161.999	1.661	1660.8	regulate	Run3	regulate/STIM_016.jpg	99
2166.312	2.161	2161.4	regulate	Run3	regulate/STIM_016.jpg	99
2171.871	2.232	2232.3	regulate	Run3	regulate/STIM_016.jpg	99
2178.089	1.292	1292.4	regulate	Run3	regulate/STIM_017.jpg	99
2181.872	1.323	1322.8	regulate	Run3	regulate/STIM_017.jpg	100
2185.906	1.693	1693.1	regulate	Run3	regulate/STIM_017.jpg	99
2191.038	1.61	1610.1	regulate	Run3	regulate/STIM_017.jpg	99
2195.946	1.324	1324.1	regulate	Run3	regulate/STIM_018.jpg	100
2200.855	1.304	1303.5	regulate	Run3	regulate/STIM_018.jpg	99
2205.588	1.774	1774.1	regulate	Run3	regulate/STIM_018.jpg	99
2210.513	1.229	1229.2	regulate	Run3	regulate/STIM_018.jpg	99
2214.717	1.31	1310.4	regulate	Run3	regulate/STIM_019.jpg	100
2218.514	1.353	1353.4	regulate	Run3	regulate/STIM_019.jpg	99
2223.473	1.761	1760.8	regulate	Run3	regulate/STIM_019.jpg	100
2227.779	2.118	2118.3	regulate	Run3	regulate/STIM_019.jpg	100
2233.265	1.012	1012.4	regulate	Run3	regulate/STIM_020.jpg	100
2236.447	2.244	2243.9	regulate	Run3	regulate/STIM_020.jpg	100
2240.7	1.272	1271.5	regulate	Run3	regulate/STIM_020.jpg	99
2245.081	2.109	2108.9	regulate	Run3	regulate/STIM_020.jpg	99
2250.098	1.475	1475.2	regulate	Run3	regulate/STIM_021.jpg	100
2253.797	2.169	2169.4	regulate	Run3	regulate/STIM_021.jpg	99
2258.802	2.022	2021.9	regulate	Run3	regulate/STIM_021.jpg	99
2264.101	1.312	1312.1	regulate	Run3	regulate/STIM_021.jpg	100
2269.12	1.986	1985.9	regulate	Run3	regulate/STIM_022.jpg	100
2273.984	1.441	1440.6	regulate	Run3	regulate/STIM_022.jpg	99
2278.108	1.391	1391.2	regulate	Run3	regulate/STIM_022.jpg	100
2283.275	2.3	2299.6	regulate	Run3	regulate/STIM_022.jpg	99
2287.921	1.392	1391.7	regulate	Run3	regulate/STIM_023.jpg	99
2293.215	1.892	1891.5	regulate	Run3	regulate/STIM_023.jpg	100
2297.313	1.671	1671.3	regulate	Run3	regulate/STIM_023.jpg	100
2302.034	2.158	2157.9	regulate	Run3	regulate/STIM_023.jpg	100
2308.029	2.001	2000.9	regulate	Run3	regulate/STIM_024.jpg	99
2312.841	1.352	1351.9	regulate	Run3	regulate/STIM_024.jpg	99
2318.15	2.256	2256.4	regulate	Run3	regulate/STIM_024.jpg	99
2322.658	1.19	1189.7	regulate	Run3	regulate/STIM_024.jpg	99
2327.068	1.49	1489.6	regulate	Run3	regulate/STIM_025.jpg	100
2331.088	1.169	1168.9	regulate	Run3	regulate/STIM_025.jpg	99
2336.021	1.92	1919.7	regulate	Run3	regulate/STIM_025.jpg	99
2341.416	1.824	1824.5	regulate	Run3	regulate/STIM_025.jpg	99
2345.334	1.585	1585.0	regulate	Run3	regulate/STIM_026.jpg	100
2350.457	2.026	2025.6	regulate	Run3	regulate/STIM_026.jpg	100
2355.042	1.771	1770.6	regulate	Run3	regulate/STIM_026.jpg	100
2360.661	2.003	2003.5	regulate	Run3	regulate/STIM_026.jpg	100
2365.343	2.291	2290.9	regulate	Run3	regulate/STIM_027.jpg	100
2370.266	1.679	1679.4	regulate	Run3	regulate/STIM_027.jpg	100
2375.241	2.122	2121.8	regulate	Run3	regulate/STIM_027.jpg	99
2379.74	2.269	2268.7	regulate	Run3	regulate/STIM_027.jpg	99
2384.72	1.546	1546.1	regulate	Run3	regulate/STIM_028.jpg	100
2388.673	1.722	1721.8	regulate	Run3	regulate/STIM_028.jpg	100
2393.763	1.141	1141.4	regulate	Run3	regulate/STIM_028.jpg	99
2398.013	1.884	1883.7	regulate	Run3	regulate/STIM_028.jpg	100
2403.522	2.06	2060.0	regulate	Run3	regulate/STIM_029.jpg	100
2408.041	1.144	1144.2	regulate	Run3	regulate/STIM_029.jpg	100
2411.516	1.484	1484.2	regulate	Run3	regulate/STIM_029.jpg	99
2416.6	1.721	1721.4	regulate	Run3	regulate/STIM_029.jpg	100
2420.963	0.866	865.5	observe	Run3	observe/STIM_000.jpg	99
2423.937	0.817	817.1	observe	Run3	observe/STIM_000.jpg	99
2427.165	0.986	985.5	observe	Run3	observe/STIM_000.jpg	99
2430.63	1.478	1477.8	observe	Run3	observe/STIM_000.jpg	99
2435.93	1.097	1097.0	observe	Run3	observe/STIM_001.jpg	100
2440.117	0.972	971.5	observe	Run3	observe/STIM_001.jpg	100
2443.69	0.982	982.5	observe	Run3	observe/STIM_001.jpg	100
2447.41	1.145	1145.2	observe	Run3	observe/STIM_001.jpg	100
2451.161	1.262	1261.7	observe	Run3	observe/STIM_002.jpg	100
2455.668	0.778	778.4	observe	Run3	observe/STIM_002.jpg	99
2460.032	0.899	899.2	observe	Run3	observe/STIM_002.jpg	100
2464.744	0.764	763.9	observe	Run3	observe/STIM_002.jpg	99
2469.092	1.119	1119.2	observe	Run3	observe/STIM_003.jpg	99
2473.166	1.407	1406.6	observe	Run3	observe/STIM_003.jpg	100
2478.569	1.287	1286.7	observe	Run3	observe/STIM_003.jpg	99
2482.609	1.228	1228.3	observe	Run3	observe/STIM_003.jpg	100
2486.203	0.763	762.8	observe	Run3	observe/STIM_004.jpg	100
2489.435	1.136	1136.5	observe	Run3	observe/STIM_004.jpg	100
2493.857	0.774	774.0	observe	Run3	observe/STIM_004.jpg	100
2498.055	1.199	1199.2	observe	Run3	observe/STIM_004.jpg	100
2501.67	1.42	1420.4	observe	Run3	observe/STIM_005.jpg	100
2506.393	1.102	1101.5	observe	Run3	observe/STIM_005.jpg	100
2511.468	1.119	1119.4	observe	Run3	observe/STIM_005.jpg	99
2516.404	0.955	954.8	observe	Run3	observe/STIM_005.jpg	99
2519.966	1.294	1293.6	observe	Run3	observe/STIM_006.jpg	99
2524.958	1.299	1298.8	observe	Run3	observe/STIM_006.jpg	99
2529.849	1.398	1397.6	observe	Run3	observe/STIM_006.jpg	99
2534.927	1.283	1283.4	observe	Run3	observe/STIM_006.jpg	99
2539.158	1.478	1478.3	observe	Run3	observe/STIM_007.jpg	100
2544.118	0.794	794.5	observe	Run3	observe/STIM_007.jpg	99
2547.058	0.973	972.8	observe	Run3	observe/STIM_007.jpg	99
2550.168	1.274	1274.2	observe	Run3	observe/STIM_007.jpg	100
2553.816	1.204	1203.5	observe	Run3	observe/STIM_008.jpg	99
2558.01	1.446	1445.7	observe	Run3	observe/STIM_008.jpg	100
2562.82	1.51	1509.7	observe	Run3	observe/STIM_008.jpg	99
2567.108	1.358	1358.1	observe	Run3	observe/STIM_008.jpg	99
2571.246	1.506	1505.6	observe	Run3	observe/STIM_009.jpg	100
2575.155	1.51	1510.2	observe	Run3	observe/STIM_009.jpg	100
2579.236	1.255	1255.0	observe	Run3	observe/STIM_009.jpg	100
2583.66	0.935	935.1	observe	Run3	observe/STIM_009.jpg	99
2587.482	1.099	1099.2	observe	Run3	observe/STIM_010.jpg	99
2590.611	0.814	814.1	observe	Run3	observe/STIM_010.jpg	100
2594.499	0.917	916.9	observe	Run3	observe/STIM_010.jpg	99
2599.207	1.19	1190.2	observe	Run3	observe/STIM_010.jpg	100
2603.566	1.18	1180.1	observe	Run3	observe/STIM_011.jpg	99
2607.565	1.196	1196.2	observe	Run3	observe/STIM_011.jpg	99
2612.237	1.515	1515.0	observe	Run3	observe/STIM_011.jpg	100
2616.128	1.075	1074.7	observe	Run3	observe/STIM_011.jpg	99
2620.774	1.013	1013.0	observe	Run3	observe/STIM_012.jpg	99
2624.833	1.306	1306.0	observe	Run3	observe/STIM_012.jpg	100
2629.65	0.88	879.7	observe	Run3	observe/STIM_012.jpg	99
2633.341	1.261	1260.7	observe	Run3	observe/STIM_012.jpg	99
2638.55	0.877	877.0	observe	Run3	observe/STIM_013.jpg	99
2641.825	1.477	1476.6	observe	Run3	observe/STIM_013.jpg	99
2645.675	1.376	1375.9	observe	Run3	observe/STIM_013.jpg	99
2649.336	1.448	1447.9	observe	Run3	observe/STIM_013.jpg	99
2653.715	1.064	1063.8	observe	Run3	observe/STIM_014.jpg	99
2657.832	0.767	766.6	observe	Run3	observe/STIM_014.jpg	99
2662.189	1.048	1047.9	observe	Run3	observe/STIM_014.jpg	99
2665.321	0.827	827.0	observe	Run3	observe/STIM_014.jpg	100
2669.907	0.833	832.7	observe	Run3	observe/STIM_015.jpg	100
2674.63	1.489	1489.0	observe	Run3	observe/STIM_015.jpg	99
2678.818	1.241	1240.7	observe	Run3	observe/STIM_015.jpg	100
2682.769	1.484	1484.2	observe	Run3	observe/STIM_015.jpg	100
2687.151	1.013	1012.6	observe	Run3	observe/STIM_016.jpg	99
2690.903	1.395	1394.9	observe	Run3	observe/STIM_016.jpg	100
2695.098	1.189	1189.4	observe	Run3	observe/STIM_016.jpg	100
2699.594	1.218	1218.4	observe	Run3	observe/STIM_016.jpg	100
2704.549	1.095	1095.2	observe	Run3	observe/STIM_017.jpg	100
2709.304	0.871	870.8	observe	Run3	observe/STIM_017.jpg	100
2712.446	1.186	1185.5	observe	Run3	observe/STIM_017.jpg	99
2717.11	0.777	776.6	observe	Run3	observe/STIM_017.jpg	99
2720.426	0.859	859.0	observe	Run3	observe/STIM_018.jpg	100
2724.847	1.294	1294.3	observe	Run3	observe/STIM_018.jpg	100
2729.137	0.933	933.3	observe	Run3	observe/STIM_018.jpg	100
2733.442	0.936	936.4	observe	Run3	observe/STIM_018.jpg	100
2738.105	0.884	884.2	observe	Run3	observe/STIM_019.jpg	100
2742.68	0.984	983.6	observe	Run3	observe/STIM_019.jpg	100
2745.885	1.256	1256.5	observe	Run3	observe/STIM_019.jpg	99
2750.102	0.99	989.6	observe	Run3	observe/STIM_019.jpg	99
