onset	duration	accuracy_binary	trial_type	learning_stage	stimulus
0.0	3.387	1	regulate	Run1	regulate/STIM_000.jpg
6.494	1.785	1	regulate	Run1	regulate/STIM_000.jpg
10.312	1.504	1	regulate	Run1	regulate/STIM_000.jpg
15.412	2.285	1	regulate	Run1	regulate/STIM_000.jpg
20.305	2.465	1	regulate	Run1	regulate/STIM_001.jpg
25.232	2.636	1	regulate	Run1	regulate/STIM_001.jpg
30.264	2.508	1	regulate	Run1	regulate/STIM_001.jpg
34.979	2.564	1	regulate	Run1	regulate/STIM_001.jpg
41.236	2.285	1	regulate	Run1	regulate/STIM_002.jpg
47.225	3.21	1	regulate	Run1	regulate/STIM_002.jpg
52.691	1.779	1	regulate	Run1	regulate/STIM_002.jpg
58.223	2.614	1	regulate	Run1	regulate/STIM_002.jpg
63.504	3.422	1	regulate	Run1	regulate/STIM_003.jpg
70.313	1.727	0	regulate	Run1	regulate/STIM_003.jpg
74.627	2.881	1	regulate	Run1	regulate/STIM_003.jpg
79.57	2.756	1	regulate	Run1	regulate/STIM_003.jpg
86.096	2.824	1	regulate	Run1	regulate/STIM_004.jpg
91.721	3.11	0	regulate	Run1	regulate/STIM_004.jpg
97.57	1.859	1	regulate	Run1	regulate/STIM_004.jpg
102.196	2.13	1	regulate	Run1	regulate/STIM_004.jpg
106.466	2.572	1	regulate	Run1	regulate/STIM_005.jpg
112.609	2.722	1	regulate	Run1	regulate/STIM_005.jpg
117.648	2.801	1	regulate	Run1	regulate/STIM_005.jpg
123.635	1.615	1	regulate	Run1	regulate/STIM_005.jpg
128.208	1.94	0	regulate	Run1	regulate/STIM_006.jpg
132.102	2.293	0	regulate	Run1	regulate/STIM_006.jpg
137.911	1.541	0	regulate	Run1	regulate/STIM_006.jpg
142.241	2.431	1	regulate	Run1	regulate/STIM_006.jpg
147.854	1.584	0	regulate	Run1	regulate/STIM_007.jpg
151.857	2.81	1	regulate	Run1	regulate/STIM_007.jpg
157.334	2.445	1	regulate	Run1	regulate/STIM_007.jpg
162.708	2.221	0	regulate	Run1	regulate/STIM_007.jpg
168.91	1.988	1	regulate	Run1	regulate/STIM_008.jpg
173.138	2.197	1	regulate	Run1	regulate/STIM_008.jpg
178.973	2.809	0	regulate	Run1	regulate/STIM_008.jpg
185.659	2.924	1	regulate	Run1	regulate/STIM_008.jpg
191.283	2.326	1	regulate	Run1	regulate/STIM_009.jpg
196.752	2.82	1	regulate	Run1	regulate/STIM_009.jpg
203.381	2.885	1	regulate	Run1	regulate/STIM_009.jpg
209.903	1.793	1	regulate	Run1	regulate/STIM_009.jpg
214.889	2.854	1	regulate	Run1	regulate/STIM_010.jpg
221.118	3.289	1	regulate	Run1	regulate/STIM_010.jpg
227.653	2.543	1	regulate	Run1	regulate/STIM_010.jpg
233.932	1.667	1	regulate	Run1	regulate/STIM_010.jpg
239.449	1.654	1	regulate	Run1	regulate/STIM_011.jpg
243.353	2.771	1	regulate	Run1	regulate/STIM_011.jpg
249.225	1.775	1	regulate	Run1	regulate/STIM_011.jpg
254.411	1.756	1	regulate	Run1	regulate/STIM_011.jpg
259.591	2.461	1	regulate	Run1	regulate/STIM_012.jpg
265.555	2.699	0	regulate	Run1	regulate/STIM_012.jpg
271.134	2.333	1	regulate	Run1	regulate/STIM_012.jpg
276.296	1.505	1	regulate	Run1	regulate/STIM_012.jpg
279.846	3.159	1	regulate	Run1	regulate/STIM_013.jpg
285.872	3.05	1	regulate	Run1	regulate/STIM_013.jpg
290.966	2.243	1	regulate	Run1	regulate/STIM_013.jpg
297.075	1.491	1	regulate	Run1	regulate/STIM_013.jpg
302.32	1.626	1	regulate	Run1	regulate/STIM_014.jpg
306.92	1.93	1	regulate	Run1	regulate/STIM_014.jpg
311.182	2.718	1	regulate	Run1	regulate/STIM_014.jpg
315.982	2.927	0	regulate	Run1	regulate/STIM_014.jpg
321.358	3.444	1	regulate	Run1	regulate/STIM_015.jpg
328.236	2.162	1	regulate	Run1	regulate/STIM_015.jpg
334.076	2.977	1	regulate	Run1	regulate/STIM_015.jpg
339.046	1.529	1	regulate	Run1	regulate/STIM_015.jpg
343.3	2.862	1	regulate	Run1	regulate/STIM_016.jpg
348.168	2.796	1	regulate	Run1	regulate/STIM_016.jpg
354.274	1.958	1	regulate	Run1	regulate/STIM_016.jpg
359.343	2.039	1	regulate	Run1	regulate/STIM_016.jpg
365.069	3.434	1	regulate	Run1	regulate/STIM_017.jpg
370.51	2.143	1	regulate	Run1	regulate/STIM_017.jpg
375.15	2.976	1	regulate	Run1	regulate/STIM_017.jpg
381.329	2.063	1	regulate	Run1	regulate/STIM_017.jpg
385.301	2.814	1	regulate	Run1	regulate/STIM_018.jpg
391.948	2.68	1	regulate	Run1	regulate/STIM_018.jpg
396.736	2.091	1	regulate	Run1	regulate/STIM_018.jpg
401.255	1.408	1	regulate	Run1	regulate/STIM_018.jpg
404.869	2.908	0	regulate	Run1	regulate/STIM_019.jpg
410.985	2.967	1	regulate	Run1	regulate/STIM_019.jpg
415.993	1.743	0	regulate	Run1	regulate/STIM_019.jpg
421.488	2.442	1	regulate	Run1	regulate/STIM_019.jpg
427.895	2.673	1	regulate	Run1	regulate/STIM_020.jpg
433.833	1.653	1	regulate	Run1	regulate/STIM_020.jpg
438.253	2.284	1	regulate	Run1	regulate/STIM_020.jpg
442.518	1.812	1	regulate	Run1	regulate/STIM_020.jpg
447.358	1.802	1	regulate	Run1	regulate/STIM_021.jpg
452.205	2.348	1	regulate	Run1	regulate/STIM_021.jpg
457.053	2.434	0	regulate	Run1	regulate/STIM_021.jpg
462.148	2.551	1	regulate	Run1	regulate/STIM_021.jpg
466.894	2.652	1	regulate	Run1	regulate/STIM_022.jpg
471.894	3.314	0	regulate	Run1	regulate/STIM_022.jpg
478.56	2.216	1	regulate	Run1	regulate/STIM_022.jpg
483.718	1.201	1	regulate	Run1	regulate/STIM_022.jpg
487.857	2.975	1	regulate	Run1	regulate/STIM_023.jpg
493.298	2.329	1	regulate	Run1	regulate/STIM_023.jpg
498.958	2.828	1	regulate	Run1	regulate/STIM_023.jpg
503.916	2.561	0	regulate	Run1	regulate/STIM_023.jpg
509.515	2.273	0	regulate	Run1	regulate/STIM_024.jpg
515.014	3.087	1	regulate	Run1	regulate/STIM_024.jpg
520.438	2.731	1	regulate	Run1	regulate/STIM_024.jpg
525.346	2.827	1	regulate	Run1	regulate/STIM_024.jpg
530.318	2.635	1	regulate	Run1	regulate/STIM_025.jpg
536.788	2.307	1	regulate	Run1	regulate/STIM_025.jpg
542.899	1.269	1	regulate	Run1	regulate/STIM_025.jpg
547.401	2.142	1	regulate	Run1	regulate/STIM_025.jpg
551.848	2.558	1	regulate	Run1	regulate/STIM_026.jpg
557.521	1.719	1	regulate	Run1	regulate/STIM_026.jpg
562.109	2.097	1	regulate	Run1	regulate/STIM_026.jpg
566.588	1.555	0	regulate	Run1	regulate/STIM_026.jpg
570.433	3.16	1	regulate	Run1	regulate/STIM_027.jpg
576.218	1.926	1	regulate	Run1	regulate/STIM_027.jpg
581.322	2.795	1	regulate	Run1	regulate/STIM_027.jpg
587.025	1.531	1	regulate	Run1	regulate/STIM_027.jpg
592.253	2.25	1	regulate	Run1	regulate/STIM_028.jpg
598.441	2.394	1	regulate	Run1	regulate/STIM_028.jpg
604.071	2.596	1	regulate	Run1	regulate/STIM_028.jpg
609.442	2.766	1	regulate	Run1	regulate/STIM_028.jpg
615.943	2.32	1	regulate	Run1	regulate/STIM_029.jpg
622.044	2.948	1	regulate	Run1	regulate/STIM_029.jpg
628.333	3.143	0	regulate	Run1	regulate/STIM_029.jpg
634.222	2.006	1	regulate	Run1	regulate/STIM_029.jpg
639.413	1.335	1	observe	Run1	observe/STIM_000.jpg
643.745	1.375	0	observe	Run1	observe/STIM_000.jpg
648.294	1.091	0	observe	Run1	observe/STIM_000.jpg
652.865	1.475	1	observe	Run1	observe/STIM_000.jpg
657.786	0.917	1	observe	Run1	observe/STIM_001.jpg
660.888	0.967	1	observe	Run1	observe/STIM_001.jpg
664.113	1.396	1	observe	Run1	observe/STIM_001.jpg
667.652	1.196	1	observe	Run1	observe/STIM_001.jpg
671.931	1.052	1	observe	Run1	observe/STIM_002.jpg
675.09	1.596	1	observe	Run1	observe/STIM_002.jpg
680.112	1.186	1	observe	Run1	observe/STIM_002.jpg
684.256	1.099	1	observe	Run1	observe/STIM_002.jpg
688.704	1.522	1	observe	Run1	observe/STIM_003.jpg
692.817	1.42	0	observe	Run1	observe/STIM_003.jpg
696.543	1.237	1	observe	Run1	observe/STIM_003.jpg
700.465	0.978	1	observe	Run1	observe/STIM_003.jpg
704.477	1.382	0	observe	Run1	observe/STIM_004.jpg
707.969	1.537	1	observe	Run1	observe/STIM_004.jpg
712.511	1.002	1	observe	Run1	observe/STIM_004.jpg
715.833	0.942	0	observe	Run1	observe/STIM_004.jpg
719.016	1.514	1	observe	Run1	observe/STIM_005.jpg
722.541	1.221	1	observe	Run1	observe/STIM_005.jpg
727.665	1.288	1	observe	Run1	observe/STIM_005.jpg
731.459	1.044	1	observe	Run1	observe/STIM_005.jpg
735.066	1.418	1	observe	Run1	observe/STIM_006.jpg
740.17	1.264	1	observe	Run1	observe/STIM_006.jpg
744.77	1.654	1	observe	Run1	observe/STIM_006.jpg
748.964	0.883	1	observe	Run1	observe/STIM_006.jpg
752.178	1.536	0	observe	Run1	observe/STIM_007.jpg
756.063	1.06	1	observe	Run1	observe/STIM_007.jpg
760.243	1.598	1	observe	Run1	observe/STIM_007.jpg
764.396	1.338	0	observe	Run1	observe/STIM_007.jpg
768.589	1.054	1	observe	Run1	observe/STIM_008.jpg
771.746	1.018	1	observe	Run1	observe/STIM_008.jpg
774.905	1.215	1	observe	Run1	observe/STIM_008.jpg
778.353	1.172	1	observe	Run1	observe/STIM_008.jpg
781.624	0.774	1	observe	Run1	observe/STIM_009.jpg
785.775	1.22	1	observe	Run1	observe/STIM_009.jpg
790.375	1.375	1	observe	Run1	observe/STIM_009.jpg
794.18	0.836	1	observe	Run1	observe/STIM_009.jpg
798.748	0.772	1	observe	Run1	observe/STIM_010.jpg
802.403	1.041	1	observe	Run1	observe/STIM_010.jpg
807.299	0.876	0	observe	Run1	observe/STIM_010.jpg
811.565	1.11	1	observe	Run1	observe/STIM_010.jpg
814.664	0.853	0	observe	Run1	observe/STIM_011.jpg
817.997	1.333	1	observe	Run1	observe/STIM_011.jpg
823.12	0.985	1	observe	Run1	observe/STIM_011.jpg
827.483	1.354	1	observe	Run1	observe/STIM_011.jpg
832.639	1.01	1	observe	Run1	observe/STIM_012.jpg
836.755	0.965	1	observe	Run1	observe/STIM_012.jpg
840.588	1.143	0	observe	Run1	observe/STIM_012.jpg
843.948	1.553	1	observe	Run1	observe/STIM_012.jpg
847.697	0.831	1	observe	Run1	observe/STIM_013.jpg
850.921	1.124	1	observe	Run1	observe/STIM_013.jpg
854.505	0.833	1	observe	Run1	observe/STIM_013.jpg
859.17	1.162	1	observe	Run1	observe/STIM_013.jpg
863.815	1.317	1	observe	Run1	observe/STIM_014.jpg
868.095	0.953	1	observe	Run1	observe/STIM_014.jpg
871.872	1.262	1	observe	Run1	observe/STIM_014.jpg
876.174	1.278	1	observe	Run1	observe/STIM_014.jpg
880.226	1.109	1	observe	Run1	observe/STIM_015.jpg
883.648	1.503	1	observe	Run1	observe/STIM_015.jpg
888.302	0.983	1	observe	Run1	observe/STIM_015.jpg
892.897	1.473	1	observe	Run1	observe/STIM_015.jpg
896.661	1.403	1	observe	Run1	observe/STIM_016.jpg
901.795	0.843	1	observe	Run1	observe/STIM_016.jpg
906.632	1.478	0	observe	Run1	observe/STIM_016.jpg
910.084	0.986	1	observe	Run1	observe/STIM_016.jpg
913.419	0.842	1	observe	Run1	observe/STIM_017.jpg
917.651	1.089	1	observe	Run1	observe/STIM_017.jpg
921.937	1.367	1	observe	Run1	observe/STIM_017.jpg
925.773	1.61	1	observe	Run1	observe/STIM_017.jpg
931.099	1.164	1	observe	Run1	observe/STIM_018.jpg
935.105	1.626	1	observe	Run1	observe/STIM_018.jpg
939.754	1.141	1	observe	Run1	observe/STIM_018.jpg
944.643	1.399	1	observe	Run1	observe/STIM_018.jpg
949.024	1.087	1	observe	Run1	observe/STIM_019.jpg
952.683	1.559	1	observe	Run1	observe/STIM_019.jpg
956.781	0.884	1	observe	Run1	observe/STIM_019.jpg
960.389	1.152	1	observe	Run1	observe/STIM_019.jpg
965.376	2.785	1	regulate	Run2	regulate/STIM_000.jpg
971.555	2.121	1	regulate	Run2	regulate/STIM_000.jpg
976.348	1.808	1	regulate	Run2	regulate/STIM_000.jpg
981.312	2.069	1	regulate	Run2	regulate/STIM_000.jpg
985.682	2.039	1	regulate	Run2	regulate/STIM_001.jpg
989.727	1.756	1	regulate	Run2	regulate/STIM_001.jpg
994.308	2.212	1	regulate	Run2	regulate/STIM_001.jpg
998.93	1.316	1	regulate	Run2	regulate/STIM_001.jpg
1003.819	2.052	1	regulate	Run2	regulate/STIM_002.jpg
1008.525	1.96	0	regulate	Run2	regulate/STIM_002.jpg
1014.338	2.384	1	regulate	Run2	regulate/STIM_002.jpg
1020.51	1.939	1	regulate	Run2	regulate/STIM_002.jpg
1024.803	1.66	1	regulate	Run2	regulate/STIM_003.jpg
1030.161	1.484	1	regulate	Run2	regulate/STIM_003.jpg
1034.924	1.708	1	regulate	Run2	regulate/STIM_003.jpg
1038.908	2.232	1	regulate	Run2	regulate/STIM_003.jpg
1044.174	1.86	1	regulate	Run2	regulate/STIM_004.jpg
1048.255	2.253	1	regulate	Run2	regulate/STIM_004.jpg
1052.701	2.189	1	regulate	Run2	regulate/STIM_004.jpg
1057.567	1.353	1	regulate	Run2	regulate/STIM_004.jpg
1062.757	2.106	1	regulate	Run2	regulate/STIM_005.jpg
1067.222	1.96	1	regulate	Run2	regulate/STIM_005.jpg
1071.886	2.261	1	regulate	Run2	regulate/STIM_005.jpg
1076.616	1.753	1	regulate	Run2	regulate/STIM_005.jpg
1082.254	2.129	1	regulate	Run2	regulate/STIM_006.jpg
1088.166	2.257	1	regulate	Run2	regulate/STIM_006.jpg
1093.488	2.376	1	regulate	Run2	regulate/STIM_006.jpg
1098.18	1.194	1	regulate	Run2	regulate/STIM_006.jpg
1101.656	2.372	1	regulate	Run2	regulate/STIM_007.jpg
1106.259	1.629	1	regulate	Run2	regulate/STIM_007.jpg
1110.243	1.446	1	regulate	Run2	regulate/STIM_007.jpg
1114.617	1.42	1	regulate	Run2	regulate/STIM_007.jpg
1119.242	2.076	1	regulate	Run2	regulate/STIM_008.jpg
1123.324	2.312	1	regulate	Run2	regulate/STIM_008.jpg
1127.999	1.882	1	regulate	Run2	regulate/STIM_008.jpg
1133.147	2.412	1	regulate	Run2	regulate/STIM_008.jpg
1139.094	2.796	1	regulate	Run2	regulate/STIM_009.jpg
1145.236	2.156	1	regulate	Run2	regulate/STIM_009.jpg
1150.591	2.378	1	regulate	Run2	regulate/STIM_009.jpg
1156.768	2.283	1	regulate	Run2	regulate/STIM_009.jpg
1161.647	1.841	1	regulate	Run2	regulate/STIM_010.jpg
1165.765	2.671	0	regulate	Run2	regulate/STIM_010.jpg
1172.105	1.142	1	regulate	Run2	regulate/STIM_010.jpg
1176.157	1.943	1	regulate	Run2	regulate/STIM_010.jpg
1180.67	2.037	1	regulate	Run2	regulate/STIM_011.jpg
1186.101	2.312	0	regulate	Run2	regulate/STIM_011.jpg
1190.7	1.471	1	regulate	Run2	regulate/STIM_011.jpg
1195.522	1.632	1	regulate	Run2	regulate/STIM_011.jpg
1199.68	1.861	1	regulate	Run2	regulate/STIM_012.jpg
1204.564	1.656	1	regulate	Run2	regulate/STIM_012.jpg
1209.722	2.439	1	regulate	Run2	regulate/STIM_012.jpg
1215.352	1.562	1	regulate	Run2	regulate/STIM_012.jpg
1219.194	2.768	1	regulate	Run2	regulate/STIM_013.jpg
1225.199	2.654	0	regulate	Run2	regulate/STIM_013.jpg
1231.048	1.264	0	regulate	Run2	regulate/STIM_013.jpg
1235.427	1.785	1	regulate	Run2	regulate/STIM_013.jpg
1241.208	2.164	0	regulate	Run2	regulate/STIM_014.jpg
1247.098	2.338	1	regulate	Run2	regulate/STIM_014.jpg
1253.298	1.376	1	regulate	Run2	regulate/STIM_014.jpg
1257.064	1.412	1	regulate	Run2	regulate/STIM_014.jpg
1261.605	2.304	1	regulate	Run2	regulate/STIM_015.jpg
1267.406	2.121	1	regulate	Run2	regulate/STIM_015.jpg
1272.245	2.031	0	regulate	Run2	regulate/STIM_015.jpg
1276.46	1.5	1	regulate	Run2	regulate/STIM_015.jpg
1280.115	2.206	1	regulate	Run2	regulate/STIM_016.jpg
1285.773	2.072	1	regulate	Run2	regulate/STIM_016.jpg
1289.891	1.215	1	regulate	Run2	regulate/STIM_016.jpg
1294.616	2.31	1	regulate	Run2	regulate/STIM_016.jpg
1300.317	1.564	1	regulate	Run2	regulate/STIM_017.jpg
1304.311	2.019	0	regulate	Run2	regulate/STIM_017.jpg
1309.04	2.562	0	regulate	Run2	regulate/STIM_017.jpg
1314.532	1.683	1	regulate	Run2	regulate/STIM_017.jpg
1320.18	2.082	1	regulate	Run2	regulate/STIM_018.jpg
1325.626	1.231	1	regulate	Run2	regulate/STIM_018.jpg
1329.287	2.567	1	regulate	Run2	regulate/STIM_018.jpg
1334.953	1.593	1	regulate	Run2	regulate/STIM_018.jpg
1338.932	1.512	1	regulate	Run2	regulate/STIM_019.jpg
1342.906	1.378	1	regulate	Run2	regulate/STIM_019.jpg
1348.087	1.246	1	regulate	Run2	regulate/STIM_019.jpg
1352.516	2.223	1	regulate	Run2	regulate/STIM_019.jpg
1357.471	1.317	1	regulate	Run2	regulate/STIM_020.jpg
1362.128	1.299	1	regulate	Run2	regulate/STIM_020.jpg
1365.931	2.151	1	regulate	Run2	regulate/STIM_020.jpg
1371.745	2.075	1	regulate	Run2	regulate/STIM_020.jpg
1376.596	2.303	1	regulate	Run2	regulate/STIM_021.jpg
1382.161	1.743	0	regulate	Run2	regulate/STIM_021.jpg
1385.947	2.16	1	regulate	Run2	regulate/STIM_021.jpg
1391.565	2.304	1	regulate	Run2	regulate/STIM_021.jpg
1397.556	2.272	1	regulate	Run2	regulate/STIM_022.jpg
1403.313	1.274	1	regulate	Run2	regulate/STIM_022.jpg
1407.466	2.569	1	regulate	Run2	regulate/STIM_022.jpg
1413.263	2.042	1	regulate	Run2	regulate/STIM_022.jpg
1417.875	2.896	1	regulate	Run2	regulate/STIM_023.jpg
1424.67	2.32	1	regulate	Run2	regulate/STIM_023.jpg
1429.968	2.512	1	regulate	Run2	regulate/STIM_023.jpg
1435.827	1.136	1	regulate	Run2	regulate/STIM_023.jpg
1439.847	2.031	1	regulate	Run2	regulate/STIM_024.jpg
1444.79	2.569	1	regulate	Run2	regulate/STIM_024.jpg
1451.103	1.681	1	regulate	Run2	regulate/STIM_024.jpg
1455.171	1.637	0	regulate	Run2	regulate/STIM_024.jpg
1460.387	1.873	0	regulate	Run2	regulate/STIM_025.jpg
1466.036	2.811	1	regulate	Run2	regulate/STIM_025.jpg
1472.121	1.851	1	regulate	Run2	regulate/STIM_025.jpg
1476.236	1.065	1	regulate	Run2	regulate/STIM_025.jpg
1479.405	1.408	1	regulate	Run2	regulate/STIM_026.jpg
1483.869	2.322	1	regulate	Run2	regulate/STIM_026.jpg
1488.764	1.946	1	regulate	Run2	regulate/STIM_026.jpg
1493.134	2.158	0	regulate	Run2	regulate/STIM_026.jpg
1498.74	1.394	0	regulate	Run2	regulate/STIM_027.jpg
1503.774	1.974	1	regulate	Run2	regulate/STIM_027.jpg
1507.889	2.295	1	regulate	Run2	regulate/STIM_027.jpg
1513.384	1.703	1	regulate	Run2	regulate/STIM_027.jpg
1517.48	2.846	1	regulate	Run2	regulate/STIM_028.jpg
1523.245	1.702	1	regulate	Run2	regulate/STIM_028.jpg
1528.27	1.591	1	regulate	Run2	regulate/STIM_028.jpg
1532.179	2.146	1	regulate	Run2	regulate/STIM_028.jpg
1536.696	2.934	1	regulate	Run2	regulate/STIM_029.jpg
1543.42	2.297	1	regulate	Run2	regulate/STIM_029.jpg
1548.372	1.417	1	regulate	Run2	regulate/STIM_029.jpg
1552.82	2.323	1	regulate	Run2	regulate/STIM_029.jpg
1558.502	1.33	0	observe	Run2	observe/STIM_000.jpg
1563.53	0.852	0	observe	Run2	observe/STIM_000.jpg
1567.93	0.87	1	observe	Run2	observe/STIM_000.jpg
1571.911	1.416	1	observe	Run2	observe/STIM_000.jpg
1575.598	1.377	1	observe	Run2	observe/STIM_001.jpg
1580.609	1.126	1	observe	Run2	observe/STIM_001.jpg
1584.721	1.663	1	observe	Run2	observe/STIM_001.jpg
1589.727	1.119	1	observe	Run2	observe/STIM_001.jpg
1593.146	1.463	1	observe	Run2	observe/STIM_002.jpg
1597.012	1.51	1	observe	Run2	observe/STIM_002.jpg
1600.637	1.414	1	observe	Run2	observe/STIM_002.jpg
1604.516	1.446	1	observe	Run2	observe/STIM_002.jpg
1608.482	1.453	1	observe	Run2	observe/STIM_003.jpg
1612.903	0.922	1	observe	Run2	observe/STIM_003.jpg
1616.588	0.9	0	observe	Run2	observe/STIM_003.jpg
1620.468	0.836	1	observe	Run2	observe/STIM_003.jpg
1623.784	1.226	1	observe	Run2	observe/STIM_004.jpg
1628.324	1.141	1	observe	Run2	observe/STIM_004.jpg
1632.986	1.378	1	observe	Run2	observe/STIM_004.jpg
1636.867	1.167	1	observe	Run2	observe/STIM_004.jpg
1640.794	0.872	1	observe	Run2	observe/STIM_005.jpg
1644.571	0.926	1	observe	Run2	observe/STIM_005.jpg
1649.43	1.269	1	observe	Run2	observe/STIM_005.jpg
1654.569	1.524	0	observe	Run2	observe/STIM_005.jpg
1659.986	1.506	1	observe	Run2	observe/STIM_006.jpg
1664.296	0.848	1	observe	Run2	observe/STIM_006.jpg
1667.491	0.916	1	observe	Run2	observe/STIM_006.jpg
1670.778	0.906	1	observe	Run2	observe/STIM_006.jpg
1674.265	1.536	1	observe	Run2	observe/STIM_007.jpg
1679.301	1.325	0	observe	Run2	observe/STIM_007.jpg
1682.768	1.544	0	observe	Run2	observe/STIM_007.jpg
1687.858	0.901	1	observe	Run2	observe/STIM_007.jpg
1691.206	1.174	1	observe	Run2	observe/STIM_008.jpg
1695.29	1.091	1	observe	Run2	observe/STIM_008.jpg
1698.517	1.331	1	observe	Run2	observe/STIM_008.jpg
1702.518	1.147	1	observe	Run2	observe/STIM_008.jpg
1706.892	1.492	1	observe	Run2	observe/STIM_009.jpg
1711.214	1.346	1	observe	Run2	observe/STIM_009.jpg
1716.376	1.115	1	observe	Run2	observe/STIM_009.jpg
1721.121	1.347	1	observe	Run2	observe/STIM_009.jpg
1725.528	1.361	1	observe	Run2	observe/STIM_010.jpg
1730.62	0.878	1	observe	Run2	observe/STIM_010.jpg
1735.157	0.969	1	observe	Run2	observe/STIM_010.jpg
1739.66	1.264	1	observe	Run2	observe/STIM_010.jpg
1743.389	1.084	0	observe	Run2	observe/STIM_011.jpg
1747.672	1.602	1	observe	Run2	observe/STIM_011.jpg
1752.424	1.184	1	observe	Run2	observe/STIM_011.jpg
1755.709	1.351	1	observe	Run2	observe/STIM_011.jpg
1760.522	1.53	1	observe	Run2	observe/STIM_012.jpg
1764.902	1.18	1	observe	Run2	observe/STIM_012.jpg
1768.986	0.989	0	observe	Run2	observe/STIM_012.jpg
1773.882	0.95	1	observe	Run2	observe/STIM_012.jpg
1777.36	1.162	0	observe	Run2	observe/STIM_013.jpg
1781.334	0.98	1	observe	Run2	observe/STIM_013.jpg
1784.829	0.876	1	observe	Run2	observe/STIM_013.jpg
1789.627	1.501	1	observe	Run2	observe/STIM_013.jpg
1794.244	1.052	1	observe	Run2	observe/STIM_014.jpg
1798.381	1.562	0	observe	Run2	observe/STIM_014.jpg
1803.826	1.372	1	observe	Run2	observe/STIM_014.jpg
1808.366	1.597	1	observe	Run2	observe/STIM_014.jpg
1812.252	0.991	1	observe	Run2	observe/STIM_015.jpg
1815.816	1.665	1	observe	Run2	observe/STIM_015.jpg
1820.243	0.899	1	observe	Run2	observe/STIM_015.jpg
1824.849	1.151	1	observe	Run2	observe/STIM_015.jpg
1830.007	1.489	1	observe	Run2	observe/STIM_016.jpg
1834.02	1.393	1	observe	Run2	observe/STIM_016.jpg
1838.105	1.55	1	observe	Run2	observe/STIM_016.jpg
1842.478	1.059	1	observe	Run2	observe/STIM_016.jpg
1846.542	0.955	0	observe	Run2	observe/STIM_017.jpg
1851.381	1.409	1	observe	Run2	observe/STIM_017.jpg
1855.15	1.226	0	observe	Run2	observe/STIM_017.jpg
1859.688	1.629	1	observe	Run2	observe/STIM_017.jpg
1863.936	1.552	1	observe	Run2	observe/STIM_018.jpg
1868.48	0.954	1	observe	Run2	observe/STIM_018.jpg
1872.992	0.836	1	observe	Run2	observe/STIM_018.jpg
1876.529	1.398	1	observe	Run2	observe/STIM_018.jpg
1881.711	1.23	1	observe	Run2	observe/STIM_019.jpg
1885.836	1.19	1	observe	Run2	observe/STIM_019.jpg
1889.362	1.298	1	observe	Run2	observe/STIM_019.jpg
1893.706	1.656	1	observe	Run2	observe/STIM_019.jpg
1899.06	1.39	1	regulate	Run3	regulate/STIM_000.jpg
1902.954	1.416	1	regulate	Run3	regulate/STIM_000.jpg
1907.098	1.554	1	regulate	Run3	regulate/STIM_000.jpg
1911.472	1.394	1	regulate	Run3	regulate/STIM_000.jpg
1916.102	1.829	1	regulate	Run3	regulate/STIM_001.jpg
1920.963	1.937	1	regulate	Run3	regulate/STIM_001.jpg
1926.65	1.79	1	regulate	Run3	regulate/STIM_001.jpg
1930.958	1.843	1	regulate	Run3	regulate/STIM_001.jpg
1936.449	1.232	0	regulate	Run3	regulate/STIM_002.jpg
1940.872	1.997	1	regulate	Run3	regulate/STIM_002.jpg
1946.328	2.157	1	regulate	Run3	regulate/STIM_002.jpg
1950.646	1.298	1	regulate	Run3	regulate/STIM_002.jpg
1954.117	2.115	1	regulate	Run3	regulate/STIM_003.jpg
1959.058	1.668	0	regulate	Run3	regulate/STIM_003.jpg
1963.409	1.912	1	regulate	Run3	regulate/STIM_003.jpg
1969.178	2.281	1	regulate	Run3	regulate/STIM_003.jpg
1974.114	1.868	1	regulate	Run3	regulate/STIM_004.jpg
1978.608	1.733	1	regulate	Run3	regulate/STIM_004.jpg
1983.447	1.968	1	regulate	Run3	regulate/STIM_004.jpg
1987.643	1.446	1	regulate	Run3	regulate/STIM_004.jpg
1992.274	1.684	1	regulate	Run3	regulate/STIM_005.jpg
1997.036	1.349	1	regulate	Run3	regulate/STIM_005.jpg
2000.718	1.593	1	regulate	Run3	regulate/STIM_005.jpg
2005.851	1.53	0	regulate	Run3	regulate/STIM_005.jpg
2010.364	2.06	1	regulate	Run3	regulate/STIM_006.jpg
2014.453	2.348	1	regulate	Run3	regulate/STIM_006.jpg
2020.088	1.851	1	regulate	Run3	regulate/STIM_006.jpg
2024.193	1.554	1	regulate	Run3	regulate/STIM_006.jpg
2029.12	2.459	1	regulate	Run3	regulate/STIM_007.jpg
2034.001	1.687	1	regulate	Run3	regulate/STIM_007.jpg
2038.641	2.134	1	regulate	Run3	regulate/STIM_007.jpg
2042.865	1.347	1	regulate	Run3	regulate/STIM_007.jpg
2047.35	1.229	1	regulate	Run3	regulate/STIM_008.jpg
2051.653	1.57	1	regulate	Run3	regulate/STIM_008.jpg
2056.614	1.141	1	regulate	Run3	regulate/STIM_008.jpg
2060.354	2.368	1	regulate	Run3	regulate/STIM_008.jpg
2064.917	1.639	1	regulate	Run3	regulate/STIM_009.jpg
2070.346	2.051	1	regulate	Run3	regulate/STIM_009.jpg
2074.931	1.94	1	regulate	Run3	regulate/STIM_009.jpg
2079.803	1.099	1	regulate	Run3	regulate/STIM_009.jpg
2083.757	1.424	1	regulate	Run3	regulate/STIM_010.jpg
2087.896	1.285	1	regulate	Run3	regulate/STIM_010.jpg
2092.992	2.033	1	regulate	Run3	regulate/STIM_010.jpg
2097.049	1.493	1	regulate	Run3	regulate/STIM_010.jpg
2101.538	2.147	1	regulate	Run3	regulate/STIM_011.jpg
2106.89	1.506	1	regulate	Run3	regulate/STIM_011.jpg
2112.009	1.152	1	regulate	Run3	regulate/STIM_011.jpg
2115.322	2.259	1	regulate	Run3	regulate/STIM_011.jpg
2120.023	2.17	1	regulate	Run3	regulate/STIM_012.jpg
2124.207	1.722	1	regulate	Run3	regulate/STIM_012.jpg
2128.516	2.334	1	regulate	Run3	regulate/STIM_012.jpg
2134.093	1.712	1	regulate	Run3	regulate/STIM_012.jpg
2139.587	1.889	1	regulate	Run3	regulate/STIM_013.jpg
2144.112	1.362	1	regulate	Run3	regulate/STIM_013.jpg
2148.926	2.342	1	regulate	Run3	regulate/STIM_013.jpg
2154.404	1.346	1	regulate	Run3	regulate/STIM_013.jpg
2158.185	2.332	1	regulate	Run3	regulate/STIM_014.jpg
2163.955	1.224	1	regulate	Run3	regulate/STIM_014.jpg
2168.333	1.062	1	regulate	Run3	regulate/STIM_014.jpg
2171.985	1.989	1	regulate	Run3	regulate/STIM_014.jpg
2177.582	1.094	1	regulate	Run3	regulate/STIM_015.jpg
2181.868	1.754	0	regulate	Run3	regulate/STIM_015.jpg
2186.554	1.454	1	regulate	Run3	regulate/STIM_015.jpg
2190.256	1.928	1	regulate	Run3	regulate/STIM_015.jpg
2195.052	1.816	0	regulate	Run3	regulate/STIM_016.jpg
2199.043	1.587	1	regulate	Run3	regulate/STIM_016.jpg
2204.471	1.654	1	regulate	Run3	regulate/STIM_016.jpg
2208.804	1.492	1	regulate	Run3	regulate/STIM_016.jpg
2212.734	2.415	1	regulate	Run3	regulate/STIM_017.jpg
2218.782	1.07	1	regulate	Run3	regulate/STIM_017.jpg
2223.597	2.233	1	regulate	Run3	regulate/STIM_017.jpg
2227.953	2.004	1	regulate	Run3	regulate/STIM_017.jpg
2232.963	2.39	1	regulate	Run3	regulate/STIM_018.jpg
2239.366	1.229	1	regulate	Run3	regulate/STIM_018.jpg
2242.768	1.174	1	regulate	Run3	regulate/STIM_018.jpg
2246.183	1.959	1	regulate	Run3	regulate/STIM_018.jpg
2251.886	1.513	1	regulate	Run3	regulate/STIM_019.jpg
2255.632	1.727	1	regulate	Run3	regulate/STIM_019.jpg
2261.17	1.122	1	regulate	Run3	regulate/STIM_019.jpg
2266.19	1.005	1	regulate	Run3	regulate/STIM_019.jpg
2270.139	2.065	0	regulate	Run3	regulate/STIM_020.jpg
2274.618	1.249	0	regulate	Run3	regulate/STIM_020.jpg
2279.108	1.174	1	regulate	Run3	regulate/STIM_020.jpg
2283.368	1.493	1	regulate	Run3	regulate/STIM_020.jpg
2287.345	1.738	1	regulate	Run3	regulate/STIM_021.jpg
2291.179	1.89	1	regulate	Run3	regulate/STIM_021.jpg
2296.245	2.103	1	regulate	Run3	regulate/STIM_021.jpg
2301.514	2.343	1	regulate	Run3	regulate/STIM_021.jpg
2307.484	2.15	1	regulate	Run3	regulate/STIM_022.jpg
2312.786	1.65	1	regulate	Run3	regulate/STIM_022.jpg
2316.95	0.99	1	regulate	Run3	regulate/STIM_022.jpg
2321.84	1.984	1	regulate	Run3	regulate/STIM_022.jpg
2326.805	1.478	1	regulate	Run3	regulate/STIM_023.jpg
2330.662	2.423	1	regulate	Run3	regulate/STIM_023.jpg
2336.476	1.504	1	regulate	Run3	regulate/STIM_023.jpg
2340.053	1.761	1	regulate	Run3	regulate/STIM_023.jpg
2345.489	1.348	1	regulate	Run3	regulate/STIM_024.jpg
2350.369	2.168	1	regulate	Run3	regulate/STIM_024.jpg
2355.971	1.893	1	regulate	Run3	regulate/STIM_024.jpg
2361.22	2.189	1	regulate	Run3	regulate/STIM_024.jpg
2365.342	1.149	1	regulate	Run3	regulate/STIM_025.jpg
2368.755	2.177	1	regulate	Run3	regulate/STIM_025.jpg
2372.959	1.756	1	regulate	Run3	regulate/STIM_025.jpg
2378.261	1.481	1	regulate	Run3	regulate/STIM_025.jpg
2383.419	2.556	0	regulate	Run3	regulate/STIM_026.jpg
2389.736	2.135	1	regulate	Run3	regulate/STIM_026.jpg
2394.572	1.468	1	regulate	Run3	regulate/STIM_026.jpg
2398.102	2.372	1	regulate	Run3	regulate/STIM_026.jpg
2403.053	1.868	1	regulate	Run3	regulate/STIM_027.jpg
2407.92	2.178	1	regulate	Run3	regulate/STIM_027.jpg
2412.246	1.16	1	regulate	Run3	regulate/STIM_027.jpg
2416.643	1.554	1	regulate	Run3	regulate/STIM_027.jpg
2421.168	1.063	1	regulate	Run3	regulate/STIM_028.jpg
2425.684	2.16	1	regulate	Run3	regulate/STIM_028.jpg
2430.024	1.282	1	regulate	Run3	regulate/STIM_028.jpg
2434.572	2.29	1	regulate	Run3	regulate/STIM_028.jpg
2440.14	2.442	1	regulate	Run3	regulate/STIM_029.jpg
2445.846	1.49	1	regulate	Run3	regulate/STIM_029.jpg
2451.24	1.596	1	regulate	Run3	regulate/STIM_029.jpg
2456.765	1.119	1	regulate	Run3	regulate/STIM_029.jpg
2460.93	1.11	1	observe	Run3	observe/STIM_000.jpg
2465.458	0.992	1	observe	Run3	observe/STIM_000.jpg
2469.866	1.022	1	observe	Run3	observe/STIM_000.jpg
2473.762	1.089	1	observe	Run3	observe/STIM_000.jpg
2478.392	0.922	1	observe	Run3	observe/STIM_001.jpg
2481.566	1.2	1	observe	Run3	observe/STIM_001.jpg
2486.318	1.489	0	observe	Run3	observe/STIM_001.jpg
2490.484	1.414	0	observe	Run3	observe/STIM_001.jpg
2493.921	1.574	1	observe	Run3	observe/STIM_002.jpg
2497.923	1.197	1	observe	Run3	observe/STIM_002.jpg
2502.764	1.088	0	observe	Run3	observe/STIM_002.jpg
2506.224	1.412	0	observe	Run3	observe/STIM_002.jpg
2511.101	1.244	1	observe	Run3	observe/STIM_003.jpg
2514.683	1.324	1	observe	Run3	observe/STIM_003.jpg
2519.379	1.413	1	observe	Run3	observe/STIM_003.jpg
2523.62	1.499	1	observe	Run3	observe/STIM_003.jpg
2527.237	1.082	1	observe	Run3	observe/STIM_004.jpg
2530.249	1.393	1	observe	Run3	observe/STIM_004.jpg
2534.544	0.965	1	observe	Run3	observe/STIM_004.jpg
2539.163	1.3	1	observe	Run3	observe/STIM_004.jpg
2542.925	0.784	1	observe	Run3	observe/STIM_005.jpg
2546.988	1.451	1	observe	Run3	observe/STIM_005.jpg
2550.421	1.328	1	observe	Run3	observe/STIM_005.jpg
2555.299	1.263	1	observe	Run3	observe/STIM_005.jpg
2558.817	1.237	1	observe	Run3	observe/STIM_006.jpg
2562.09	0.886	1	observe	Run3	observe/STIM_006.jpg
2566.883	1.209	1	observe	Run3	observe/STIM_006.jpg
2571.176	1.596	1	observe	Run3	observe/STIM_006.jpg
2575.987	1.279	1	observe	Run3	observe/STIM_007.jpg
2579.854	0.953	1	observe	Run3	observe/STIM_007.jpg
2583.663	1.022	1	observe	Run3	observe/STIM_007.jpg
2588.283	1.015	1	observe	Run3	observe/STIM_007.jpg
2591.281	0.951	1	observe	Run3	observe/STIM_008.jpg
2595.223	1.232	1	observe	Run3	observe/STIM_008.jpg
2599.159	0.995	1	observe	Run3	observe/STIM_008.jpg
2603.223	1.334	1	observe	Run3	observe/STIM_008.jpg
2607.42	0.861	1	observe	Run3	observe/STIM_009.jpg
2610.374	1.08	1	observe	Run3	observe/STIM_009.jpg
2613.591	0.779	1	observe	Run3	observe/STIM_009.jpg
2617.876	0.999	1	observe	Run3	observe/STIM_009.jpg
2621.41	1.397	1	observe	Run3	observe/STIM_010.jpg
2626.206	1.596	1	observe	Run3	observe/STIM_010.jpg
2631.016	0.736	1	observe	Run3	observe/STIM_010.jpg
2635.611	1.281	0	observe	Run3	observe/STIM_010.jpg
2640.108	0.976	1	observe	Run3	observe/STIM_011.jpg
2643.657	1.385	1	observe	Run3	observe/STIM_011.jpg
2647.467	1.633	1	observe	Run3	observe/STIM_011.jpg
2652.381	0.951	1	observe	Run3	observe/STIM_011.jpg
2655.901	1.567	1	observe	Run3	observe/STIM_012.jpg
2660.444	0.935	1	observe	Run3	observe/STIM_012.jpg
2665.31	0.916	1	observe	Run3	observe/STIM_012.jpg
2669.182	0.998	0	observe	Run3	observe/STIM_012.jpg
2672.178	1.132	1	observe	Run3	observe/STIM_013.jpg
2675.901	1.348	1	observe	Run3	observe/STIM_013.jpg
2679.46	0.953	1	observe	Run3	observe/STIM_013.jpg
2683.06	1.054	1	observe	Run3	observe/STIM_013.jpg
2687.577	1.113	1	observe	Run3	observe/STIM_014.jpg
2692.007	1.469	1	observe	Run3	observe/STIM_014.jpg
2697.076	0.95	1	observe	Run3	observe/STIM_014.jpg
2701.695	0.772	1	observe	Run3	observe/STIM_014.jpg
2705.474	0.921	1	observe	Run3	observe/STIM_015.jpg
2709.107	1.278	1	observe	Run3	observe/STIM_015.jpg
2713.832	1.388	1	observe	Run3	observe/STIM_015.jpg
2718.084	0.945	1	observe	Run3	observe/STIM_015.jpg
2722.929	0.905	1	observe	Run3	observe/STIM_016.jpg
2727.428	0.865	1	observe	Run3	observe/STIM_016.jpg
2731.963	1.294	1	observe	Run3	observe/STIM_016.jpg
2737.28	1.116	1	observe	Run3	observe/STIM_016.jpg
2740.683	1.484	1	observe	Run3	observe/STIM_017.jpg
2744.251	0.893	1	observe	Run3	observe/STIM_017.jpg
2748.156	1.104	1	observe	Run3	observe/STIM_017.jpg
2752.049	0.808	1	observe	Run3	observe/STIM_017.jpg
2754.983	1.386	1	observe	Run3	observe/STIM_018.jpg
2759.199	1.359	1	observe	Run3	observe/STIM_018.jpg
2763.991	1.044	1	observe	Run3	observe/STIM_018.jpg
2768.838	1.596	1	observe	Run3	observe/STIM_018.jpg
2773.433	0.872	1	observe	Run3	observe/STIM_019.jpg
2776.521	1.518	0	observe	Run3	observe/STIM_019.jpg
2781.934	1.628	0	observe	Run3	observe/STIM_019.jpg
2786.372	1.095	1	observe	Run3	observe/STIM_019.jpg
