onset	duration	accuracy_binary	trial_type	learning_stage	stimulus
0.0	2.387	1	generate	Run1	generate/STIM_000.jpg
4.506	2.603	0	generate	Run1	generate/STIM_000.jpg
10.372	2.399	1	generate	Run1	generate/STIM_000.jpg
14.683	1.346	1	generate	Run1	generate/STIM_000.jpg
18.365	1.084	1	generate	Run1	generate/STIM_000.jpg
22.192	2.117	1	generate	Run1	generate/STIM_001.jpg
27.402	1.729	0	generate	Run1	generate/STIM_001.jpg
32.829	1.996	1	generate	Run1	generate/STIM_001.jpg
38.033	1.907	1	generate	Run1	generate/STIM_001.jpg
42.13	1.998	1	generate	Run1	generate/STIM_001.jpg
47.555	2.719	0	generate	Run1	generate/STIM_002.jpg
53.926	2.222	0	generate	Run1	generate/STIM_002.jpg
59.024	2.499	0	generate	Run1	generate/STIM_002.jpg
64.908	1.97	1	generate	Run1	generate/STIM_002.jpg
70.323	1.511	1	generate	Run1	generate/STIM_002.jpg
75.404	2.65	1	generate	Run1	generate/STIM_003.jpg
81.341	2.997	1	generate	Run1	generate/STIM_003.jpg
87.261	1.242	1	generate	Run1	generate/STIM_003.jpg
91.126	1.142	1	generate	Run1	generate/STIM_003.jpg
94.441	2.495	1	generate	Run1	generate/STIM_003.jpg
100.011	1.435	0	generate	Run1	generate/STIM_004.jpg
104.992	2.617	0	generate	Run1	generate/STIM_004.jpg
110.631	1.222	1	generate	Run1	generate/STIM_004.jpg
114.361	2.516	1	generate	Run1	generate/STIM_004.jpg
118.833	2.408	0	generate	Run1	generate/STIM_004.jpg
124.026	2.524	1	generate	Run1	generate/STIM_005.jpg
130.077	1.304	1	generate	Run1	generate/STIM_005.jpg
133.55	1.4	1	generate	Run1	generate/STIM_005.jpg
138.818	1.111	1	generate	Run1	generate/STIM_005.jpg
141.935	1.663	1	generate	Run1	generate/STIM_005.jpg
146.984	1.468	1	generate	Run1	generate/STIM_006.jpg
151.053	2.296	1	generate	Run1	generate/STIM_006.jpg
157.096	2.412	0	generate	Run1	generate/STIM_006.jpg
162.936	2.503	1	generate	Run1	generate/STIM_006.jpg
168.237	1.218	0	generate	Run1	generate/STIM_006.jpg
173.224	2.537	1	generate	Run1	generate/STIM_007.jpg
178.529	2.388	0	generate	Run1	generate/STIM_007.jpg
183.48	2.263	1	generate	Run1	generate/STIM_007.jpg
188.497	1.469	1	generate	Run1	generate/STIM_007.jpg
192.754	2.422	1	generate	Run1	generate/STIM_007.jpg
198.347	2.809	1	generate	Run1	generate/STIM_008.jpg
203.551	1.76	0	generate	Run1	generate/STIM_008.jpg
207.493	2.661	1	generate	Run1	generate/STIM_008.jpg
213.072	2.563	1	generate	Run1	generate/STIM_008.jpg
218.739	1.643	0	generate	Run1	generate/STIM_008.jpg
222.505	2.56	1	generate	Run1	generate/STIM_009.jpg
227.785	1.401	1	generate	Run1	generate/STIM_009.jpg
231.88	2.833	0	generate	Run1	generate/STIM_009.jpg
237.188	1.188	1	generate	Run1	generate/STIM_009.jpg
240.358	1.678	0	generate	Run1	generate/STIM_009.jpg
245.558	1.861	1	generate	Run1	generate/STIM_010.jpg
249.713	2.11	1	generate	Run1	generate/STIM_010.jpg
254.993	1.869	1	generate	Run1	generate/STIM_010.jpg
259.978	2.677	1	generate	Run1	generate/STIM_010.jpg
264.552	2.054	1	generate	Run1	generate/STIM_010.jpg
269.72	1.676	1	generate	Run1	generate/STIM_011.jpg
273.808	3.005	1	generate	Run1	generate/STIM_011.jpg
278.621	2.037	0	generate	Run1	generate/STIM_011.jpg
283.323	1.234	1	generate	Run1	generate/STIM_011.jpg
286.774	2.389	0	generate	Run1	generate/STIM_011.jpg
292.916	2.133	1	generate	Run1	generate/STIM_012.jpg
296.982	1.878	1	generate	Run1	generate/STIM_012.jpg
300.87	2.894	1	generate	Run1	generate/STIM_012.jpg
307.315	1.153	1	generate	Run1	generate/STIM_012.jpg
310.886	1.816	0	generate	Run1	generate/STIM_012.jpg
315.676	2.457	0	generate	Run1	generate/STIM_013.jpg
321.756	1.652	1	generate	Run1	generate/STIM_013.jpg
326.333	1.37	1	generate	Run1	generate/STIM_013.jpg
329.625	1.211	1	generate	Run1	generate/STIM_013.jpg
333.294	1.897	1	generate	Run1	generate/STIM_013.jpg
337.21	2.179	1	generate	Run1	generate/STIM_014.jpg
341.286	1.934	1	generate	Run1	generate/STIM_014.jpg
346.493	2.381	0	generate	Run1	generate/STIM_014.jpg
352.326	1.867	0	generate	Run1	generate/STIM_014.jpg
356.73	2.031	0	generate	Run1	generate/STIM_014.jpg
361.218	1.594	1	generate	Run1	generate/STIM_015.jpg
365.681	2.988	1	generate	Run1	generate/STIM_015.jpg
371.078	2.636	0	generate	Run1	generate/STIM_015.jpg
377.305	2.117	0	generate	Run1	generate/STIM_015.jpg
382.407	2.168	1	generate	Run1	generate/STIM_015.jpg
386.82	3.146	1	generate	Run1	generate/STIM_016.jpg
392.637	2.256	1	generate	Run1	generate/STIM_016.jpg
397.087	2.333	1	generate	Run1	generate/STIM_016.jpg
401.547	2.328	1	generate	Run1	generate/STIM_016.jpg
407.264	2.473	1	generate	Run1	generate/STIM_016.jpg
412.541	2.968	1	generate	Run1	generate/STIM_017.jpg
418.395	1.415	1	generate	Run1	generate/STIM_017.jpg
423.507	1.395	0	generate	Run1	generate/STIM_017.jpg
427.099	1.306	0	generate	Run1	generate/STIM_017.jpg
431.062	1.967	1	generate	Run1	generate/STIM_017.jpg
435.93	2.878	0	generate	Run1	generate/STIM_018.jpg
441.746	1.327	1	generate	Run1	generate/STIM_018.jpg
445.484	1.282	1	generate	Run1	generate/STIM_018.jpg
449.574	1.302	1	generate	Run1	generate/STIM_018.jpg
452.842	1.213	1	generate	Run1	generate/STIM_018.jpg
455.98	1.755	1	generate	Run1	generate/STIM_019.jpg
460.905	1.798	1	generate	Run1	generate/STIM_019.jpg
466.121	2.434	1	generate	Run1	generate/STIM_019.jpg
470.784	1.27	1	generate	Run1	generate/STIM_019.jpg
474.962	1.752	1	generate	Run1	generate/STIM_019.jpg
478.7	1.548	0	generate	Run1	generate/STIM_020.jpg
483.781	2.356	0	generate	Run1	generate/STIM_020.jpg
488.381	2.542	1	generate	Run1	generate/STIM_020.jpg
494.287	2.388	0	generate	Run1	generate/STIM_020.jpg
499.384	2.514	1	generate	Run1	generate/STIM_020.jpg
505.065	2.351	1	generate	Run1	generate/STIM_021.jpg
510.697	1.596	1	generate	Run1	generate/STIM_021.jpg
515.039	1.958	1	generate	Run1	generate/STIM_021.jpg
518.92	2.006	1	generate	Run1	generate/STIM_021.jpg
522.83	2.517	1	generate	Run1	generate/STIM_021.jpg
528.94	2.405	1	generate	Run1	generate/STIM_022.jpg
535.064	1.635	1	generate	Run1	generate/STIM_022.jpg
538.891	2.663	1	generate	Run1	generate/STIM_022.jpg
544.012	2.329	1	generate	Run1	generate/STIM_022.jpg
548.974	1.236	1	generate	Run1	generate/STIM_022.jpg
553.587	1.39	0	generate	Run1	generate/STIM_023.jpg
558.378	2.102	1	generate	Run1	generate/STIM_023.jpg
564.309	2.525	0	generate	Run1	generate/STIM_023.jpg
569.816	2.135	1	generate	Run1	generate/STIM_023.jpg
574.671	2.426	1	generate	Run1	generate/STIM_023.jpg
579.904	2.422	1	generate	Run1	generate/STIM_024.jpg
584.391	2.492	1	generate	Run1	generate/STIM_024.jpg
590.238	2.204	1	generate	Run1	generate/STIM_024.jpg
595.346	2.633	1	generate	Run1	generate/STIM_024.jpg
600.986	1.083	1	generate	Run1	generate/STIM_024.jpg
605.32	0.824	1	repeat	Run1	repeat/STIM_000.jpg
608.774	0.978	1	repeat	Run1	repeat/STIM_000.jpg
612.48	0.617	1	repeat	Run1	repeat/STIM_000.jpg
616.119	0.772	1	repeat	Run1	repeat/STIM_000.jpg
619.842	1.044	1	repeat	Run1	repeat/STIM_000.jpg
623.882	0.867	1	repeat	Run1	repeat/STIM_001.jpg
628.588	1.042	1	repeat	Run1	repeat/STIM_001.jpg
631.569	0.696	1	repeat	Run1	repeat/STIM_001.jpg
634.639	0.862	1	repeat	Run1	repeat/STIM_001.jpg
638.346	0.668	1	repeat	Run1	repeat/STIM_001.jpg
642.602	1.027	1	repeat	Run1	repeat/STIM_002.jpg
646.145	1.047	1	repeat	Run1	repeat/STIM_002.jpg
651.039	0.685	1	repeat	Run1	repeat/STIM_002.jpg
655.448	0.972	1	repeat	Run1	repeat/STIM_002.jpg
659.159	0.86	1	repeat	Run1	repeat/STIM_002.jpg
662.813	0.624	1	repeat	Run1	repeat/STIM_003.jpg
666.23	0.935	1	repeat	Run1	repeat/STIM_003.jpg
669.854	0.821	0	repeat	Run1	repeat/STIM_003.jpg
674.163	0.798	1	repeat	Run1	repeat/STIM_003.jpg
678.023	0.558	1	repeat	Run1	repeat/STIM_003.jpg
680.929	0.743	1	repeat	Run1	repeat/STIM_004.jpg
685.27	1.002	1	repeat	Run1	repeat/STIM_004.jpg
689.155	1.058	1	repeat	Run1	repeat/STIM_004.jpg
693.917	0.681	1	repeat	Run1	repeat/STIM_004.jpg
697.057	0.827	1	repeat	Run1	repeat/STIM_004.jpg
700.937	0.977	0	repeat	Run1	repeat/STIM_005.jpg
704.896	0.787	1	repeat	Run1	repeat/STIM_005.jpg
707.828	1.05	1	repeat	Run1	repeat/STIM_005.jpg
712.123	0.793	1	repeat	Run1	repeat/STIM_005.jpg
716.07	0.541	1	repeat	Run1	repeat/STIM_005.jpg
718.604	0.861	1	repeat	Run1	repeat/STIM_006.jpg
722.587	0.777	1	repeat	Run1	repeat/STIM_006.jpg
726.857	0.803	1	repeat	Run1	repeat/STIM_006.jpg
731.145	0.815	0	repeat	Run1	repeat/STIM_006.jpg
734.781	0.586	1	repeat	Run1	repeat/STIM_006.jpg
738.714	0.7	1	repeat	Run1	repeat/STIM_007.jpg
742.953	0.83	1	repeat	Run1	repeat/STIM_007.jpg
746.886	0.771	1	repeat	Run1	repeat/STIM_007.jpg
750.39	0.633	1	repeat	Run1	repeat/STIM_007.jpg
753.706	0.599	1	repeat	Run1	repeat/STIM_007.jpg
758.097	0.638	1	repeat	Run1	repeat/STIM_008.jpg
761.774	0.734	1	repeat	Run1	repeat/STIM_008.jpg
765.249	0.834	1	repeat	Run1	repeat/STIM_008.jpg
769.271	1.037	1	repeat	Run1	repeat/STIM_008.jpg
772.266	0.632	1	repeat	Run1	repeat/STIM_008.jpg
775.093	0.542	1	repeat	Run1	repeat/STIM_009.jpg
779.337	1.019	1	repeat	Run1	repeat/STIM_009.jpg
783.649	0.775	1	repeat	Run1	repeat/STIM_009.jpg
787.552	0.962	1	repeat	Run1	repeat/STIM_009.jpg
791.374	0.671	1	repeat	Run1	repeat/STIM_009.jpg
794.331	1.008	1	repeat	Run1	repeat/STIM_010.jpg
798.838	0.74	1	repeat	Run1	repeat/STIM_010.jpg
802.769	1.034	1	repeat	Run1	repeat/STIM_010.jpg
806.461	0.89	1	repeat	Run1	repeat/STIM_010.jpg
811.273	0.8	1	repeat	Run1	repeat/STIM_010.jpg
814.519	0.768	1	repeat	Run1	repeat/STIM_011.jpg
818.975	0.952	1	repeat	Run1	repeat/STIM_011.jpg
821.961	0.841	1	repeat	Run1	repeat/STIM_011.jpg
826.518	1.013	1	repeat	Run1	repeat/STIM_011.jpg
830.597	0.666	1	repeat	Run1	repeat/STIM_011.jpg
833.432	0.813	1	repeat	Run1	repeat/STIM_012.jpg
836.654	0.627	1	repeat	Run1	repeat/STIM_012.jpg
839.745	0.622	1	repeat	Run1	repeat/STIM_012.jpg
842.947	0.991	1	repeat	Run1	repeat/STIM_012.jpg
846.158	0.652	1	repeat	Run1	repeat/STIM_012.jpg
849.706	1.08	1	repeat	Run1	repeat/STIM_013.jpg
854.262	0.813	1	repeat	Run1	repeat/STIM_013.jpg
857.116	0.552	0	repeat	Run1	repeat/STIM_013.jpg
860.007	1.045	1	repeat	Run1	repeat/STIM_013.jpg
864.553	0.945	1	repeat	Run1	repeat/STIM_013.jpg
868.612	0.853	1	repeat	Run1	repeat/STIM_014.jpg
872.542	0.742	1	repeat	Run1	repeat/STIM_014.jpg
876.906	0.968	1	repeat	Run1	repeat/STIM_014.jpg
880.064	0.582	1	repeat	Run1	repeat/STIM_014.jpg
883.707	0.81	1	repeat	Run1	repeat/STIM_014.jpg
886.485	1.164	1	generate	Run2	generate/STIM_000.jpg
891.199	2.171	1	generate	Run2	generate/STIM_000.jpg
896.171	2.153	1	generate	Run2	generate/STIM_000.jpg
902.066	1.226	1	generate	Run2	generate/STIM_000.jpg
905.913	1.522	1	generate	Run2	generate/STIM_000.jpg
909.701	1.505	0	generate	Run2	generate/STIM_001.jpg
913.429	2.374	1	generate	Run2	generate/STIM_001.jpg
919.626	1.275	1	generate	Run2	generate/STIM_001.jpg
923.624	1.42	1	generate	Run2	generate/STIM_001.jpg
928.692	1.654	1	generate	Run2	generate/STIM_001.jpg
933.395	2.711	1	generate	Run2	generate/STIM_002.jpg
939.191	2.35	0	generate	Run2	generate/STIM_002.jpg
943.992	2.231	1	generate	Run2	generate/STIM_002.jpg
948.423	0.913	1	generate	Run2	generate/STIM_002.jpg
952.403	2.143	1	generate	Run2	generate/STIM_002.jpg
957.909	2.559	1	generate	Run2	generate/STIM_003.jpg
962.866	2.273	1	generate	Run2	generate/STIM_003.jpg
967.227	2.4	1	generate	Run2	generate/STIM_003.jpg
973.149	2.005	1	generate	Run2	generate/STIM_003.jpg
977.54	2.209	1	generate	Run2	generate/STIM_003.jpg
982.899	1.859	1	generate	Run2	generate/STIM_004.jpg
987.659	1.756	0	generate	Run2	generate/STIM_004.jpg
992.644	2.37	1	generate	Run2	generate/STIM_004.jpg
998.385	2.035	1	generate	Run2	generate/STIM_004.jpg
1003.04	1.564	1	generate	Run2	generate/STIM_004.jpg
1008.263	2.202	1	generate	Run2	generate/STIM_005.jpg
1014.078	2.317	1	generate	Run2	generate/STIM_005.jpg
1020.105	1.02	1	generate	Run2	generate/STIM_005.jpg
1023.324	1.695	1	generate	Run2	generate/STIM_005.jpg
1027.425	1.922	1	generate	Run2	generate/STIM_005.jpg
1033.062	1.241	1	generate	Run2	generate/STIM_006.jpg
1036.901	1.872	1	generate	Run2	generate/STIM_006.jpg
1042.028	1.342	1	generate	Run2	generate/STIM_006.jpg
1045.325	2.133	1	generate	Run2	generate/STIM_006.jpg
1049.645	1.61	0	generate	Run2	generate/STIM_006.jpg
1053.655	1.311	1	generate	Run2	generate/STIM_007.jpg
1057.084	2.458	1	generate	Run2	generate/STIM_007.jpg
1062.898	1.939	1	generate	Run2	generate/STIM_007.jpg
1067.24	1.984	0	generate	Run2	generate/STIM_007.jpg
1072.775	1.145	1	generate	Run2	generate/STIM_007.jpg
1076.231	2.013	1	generate	Run2	generate/STIM_008.jpg
1080.738	1.282	0	generate	Run2	generate/STIM_008.jpg
1085.005	2.399	1	generate	Run2	generate/STIM_008.jpg
1090.513	1.242	0	generate	Run2	generate/STIM_008.jpg
1095.267	1.378	1	generate	Run2	generate/STIM_008.jpg
1099.664	1.723	1	generate	Run2	generate/STIM_009.jpg
1103.263	1.777	1	generate	Run2	generate/STIM_009.jpg
1107.861	1.675	1	generate	Run2	generate/STIM_009.jpg
1112.917	1.569	0	generate	Run2	generate/STIM_009.jpg
1117.481	1.802	1	generate	Run2	generate/STIM_009.jpg
1121.564	2.509	1	generate	Run2	generate/STIM_010.jpg
1126.274	1.601	0	generate	Run2	generate/STIM_010.jpg
1130.193	1.019	1	generate	Run2	generate/STIM_010.jpg
1134.615	1.358	1	generate	Run2	generate/STIM_010.jpg
1139.263	2.108	0	generate	Run2	generate/STIM_010.jpg
1143.755	2.579	1	generate	Run2	generate/STIM_011.jpg
1148.54	2.253	1	generate	Run2	generate/STIM_011.jpg
1153.754	2.266	0	generate	Run2	generate/STIM_011.jpg
1158.716	1.432	1	generate	Run2	generate/STIM_011.jpg
1163.895	1.054	1	generate	Run2	generate/STIM_011.jpg
1167.038	1.756	0	generate	Run2	generate/STIM_012.jpg
1171.098	1.49	1	generate	Run2	generate/STIM_012.jpg
1174.76	1.14	1	generate	Run2	generate/STIM_012.jpg
1178.627	1.169	1	generate	Run2	generate/STIM_012.jpg
1182.76	1.819	1	generate	Run2	generate/STIM_012.jpg
1187.817	2.298	0	generate	Run2	generate/STIM_013.jpg
1193.632	2.113	1	generate	Run2	generate/STIM_013.jpg
1199.249	1.033	0	generate	Run2	generate/STIM_013.jpg
1203.951	1.824	0	generate	Run2	generate/STIM_013.jpg
1209.441	2.194	1	generate	Run2	generate/STIM_013.jpg
1214.54	2.058	1	generate	Run2	generate/STIM_014.jpg
1219.575	1.076	0	generate	Run2	generate/STIM_014.jpg
1222.802	2.388	1	generate	Run2	generate/STIM_014.jpg
1228.182	1.088	0	generate	Run2	generate/STIM_014.jpg
1232.927	1.277	1	generate	Run2	generate/STIM_014.jpg
1236.791	1.172	1	generate	Run2	generate/STIM_015.jpg
1240.97	2.335	1	generate	Run2	generate/STIM_015.jpg
1246.395	1.488	1	generate	Run2	generate/STIM_015.jpg
1250.169	1.572	1	generate	Run2	generate/STIM_015.jpg
1254.726	1.821	1	generate	Run2	generate/STIM_015.jpg
1260.346	2.749	1	generate	Run2	generate/STIM_016.jpg
1265.97	1.612	1	generate	Run2	generate/STIM_016.jpg
1271.046	1.572	1	generate	Run2	generate/STIM_016.jpg
1275.619	1.308	1	generate	Run2	generate/STIM_016.jpg
1280.747	1.112	1	generate	Run2	generate/STIM_016.jpg
1284.5	1.476	1	generate	Run2	generate/STIM_017.jpg
1289.093	1.85	1	generate	Run2	generate/STIM_017.jpg
1293.703	2.222	1	generate	Run2	generate/STIM_017.jpg
1298.386	2.164	1	generate	Run2	generate/STIM_017.jpg
1302.976	1.748	1	generate	Run2	generate/STIM_017.jpg
1308.564	1.485	1	generate	Run2	generate/STIM_018.jpg
1312.793	1.97	1	generate	Run2	generate/STIM_018.jpg
1316.825	2.224	1	generate	Run2	generate/STIM_018.jpg
1322.767	2.108	1	generate	Run2	generate/STIM_018.jpg
1327.1	1.796	1	generate	Run2	generate/STIM_018.jpg
1331.024	1.78	1	generate	Run2	generate/STIM_019.jpg
1335.236	1.176	1	generate	Run2	generate/STIM_019.jpg
1339.17	2.407	1	generate	Run2	generate/STIM_019.jpg
1344.288	1.29	1	generate	Run2	generate/STIM_019.jpg
1348.729	1.637	1	generate	Run2	generate/STIM_019.jpg
1352.574	2.392	1	generate	Run2	generate/STIM_020.jpg
1357.422	1.689	1	generate	Run2	generate/STIM_020.jpg
1362.716	2.233	1	generate	Run2	generate/STIM_020.jpg
1368.215	1.471	1	generate	Run2	generate/STIM_020.jpg
1373.378	1.318	1	generate	Run2	generate/STIM_020.jpg
1378.162	2.064	1	generate	Run2	generate/STIM_021.jpg
1382.948	2.356	1	generate	Run2	generate/STIM_021.jpg
1388.134	1.305	1	generate	Run2	generate/STIM_021.jpg
1393.185	0.946	0	generate	Run2	generate/STIM_021.jpg
1397.363	0.964	1	generate	Run2	generate/STIM_021.jpg
1400.283	1.772	1	generate	Run2	generate/STIM_022.jpg
1405.152	1.091	1	generate	Run2	generate/STIM_022.jpg
1409.106	2.006	1	generate	Run2	generate/STIM_022.jpg
1414.588	1.224	1	generate	Run2	generate/STIM_022.jpg
1419.279	1.105	1	generate	Run2	generate/STIM_022.jpg
1423.35	1.819	1	generate	Run2	generate/STIM_023.jpg
1427.232	1.16	0	generate	Run2	generate/STIM_023.jpg
1432.237	2.149	1	generate	Run2	generate/STIM_023.jpg
1437.797	1.09	1	generate	Run2	generate/STIM_023.jpg
1441.875	1.42	1	generate	Run2	generate/STIM_023.jpg
1446.493	1.491	0	generate	Run2	generate/STIM_024.jpg
1450.319	1.941	0	generate	Run2	generate/STIM_024.jpg
1455.87	1.779	1	generate	Run2	generate/STIM_024.jpg
1460.912	1.914	1	generate	Run2	generate/STIM_024.jpg
1466.615	1.43	1	generate	Run2	generate/STIM_024.jpg
1470.526	0.825	1	repeat	Run2	repeat/STIM_000.jpg
1473.786	0.618	1	repeat	Run2	repeat/STIM_000.jpg
1476.774	0.613	1	repeat	Run2	repeat/STIM_000.jpg
1480.81	0.72	1	repeat	Run2	repeat/STIM_000.jpg
1483.9	0.93	1	repeat	Run2	repeat/STIM_000.jpg
1487.539	0.893	1	repeat	Run2	repeat/STIM_001.jpg
1492.024	1.054	1	repeat	Run2	repeat/STIM_001.jpg
1496.194	0.687	1	repeat	Run2	repeat/STIM_001.jpg
1499.869	0.69	1	repeat	Run2	repeat/STIM_001.jpg
1503.881	1.07	1	repeat	Run2	repeat/STIM_001.jpg
1508.641	0.674	1	repeat	Run2	repeat/STIM_002.jpg
1512.285	0.704	1	repeat	Run2	repeat/STIM_002.jpg
1515.689	0.868	1	repeat	Run2	repeat/STIM_002.jpg
1519.436	0.853	0	repeat	Run2	repeat/STIM_002.jpg
1522.941	0.868	1	repeat	Run2	repeat/STIM_002.jpg
1526.765	0.589	1	repeat	Run2	repeat/STIM_003.jpg
1529.656	0.551	1	repeat	Run2	repeat/STIM_003.jpg
1532.428	1.072	1	repeat	Run2	repeat/STIM_003.jpg
1536.521	0.942	1	repeat	Run2	repeat/STIM_003.jpg
1540.346	1.07	1	repeat	Run2	repeat/STIM_003.jpg
1543.848	0.657	1	repeat	Run2	repeat/STIM_004.jpg
1546.663	0.912	1	repeat	Run2	repeat/STIM_004.jpg
1550.844	0.796	0	repeat	Run2	repeat/STIM_004.jpg
1555.31	0.771	1	repeat	Run2	repeat/STIM_004.jpg
1558.798	1.055	0	repeat	Run2	repeat/STIM_004.jpg
1562.122	0.596	1	repeat	Run2	repeat/STIM_005.jpg
1564.852	0.746	1	repeat	Run2	repeat/STIM_005.jpg
1569.36	0.944	1	repeat	Run2	repeat/STIM_005.jpg
1573.366	0.747	1	repeat	Run2	repeat/STIM_005.jpg
1577.851	0.878	1	repeat	Run2	repeat/STIM_005.jpg
1581.754	0.978	1	repeat	Run2	repeat/STIM_006.jpg
1586.449	0.563	1	repeat	Run2	repeat/STIM_006.jpg
1590.557	0.68	1	repeat	Run2	repeat/STIM_006.jpg
1594.831	0.914	1	repeat	Run2	repeat/STIM_006.jpg
1598.467	0.807	1	repeat	Run2	repeat/STIM_006.jpg
1602.437	1.055	1	repeat	Run2	repeat/STIM_007.jpg
1606.956	1.025	0	repeat	Run2	repeat/STIM_007.jpg
1609.999	1.025	1	repeat	Run2	repeat/STIM_007.jpg
1613.521	0.82	1	repeat	Run2	repeat/STIM_007.jpg
1616.686	0.548	1	repeat	Run2	repeat/STIM_007.jpg
1621.134	0.915	1	repeat	Run2	repeat/STIM_008.jpg
1625.045	0.784	1	repeat	Run2	repeat/STIM_008.jpg
1628.524	0.599	1	repeat	Run2	repeat/STIM_008.jpg
1632.051	0.77	1	repeat	Run2	repeat/STIM_008.jpg
1636.63	0.602	1	repeat	Run2	repeat/STIM_008.jpg
1640.241	1.065	1	repeat	Run2	repeat/STIM_009.jpg
1644.478	0.735	1	repeat	Run2	repeat/STIM_009.jpg
1647.683	0.814	1	repeat	Run2	repeat/STIM_009.jpg
1650.497	0.957	1	repeat	Run2	repeat/STIM_009.jpg
1655.138	0.689	1	repeat	Run2	repeat/STIM_009.jpg
1659.074	1.032	1	repeat	Run2	repeat/STIM_010.jpg
1662.24	0.565	1	repeat	Run2	repeat/STIM_010.jpg
1665.294	0.567	1	repeat	Run2	repeat/STIM_010.jpg
1667.843	0.871	1	repeat	Run2	repeat/STIM_010.jpg
1672.378	0.979	1	repeat	Run2	repeat/STIM_010.jpg
1676.219	0.654	1	repeat	Run2	repeat/STIM_011.jpg
1679.794	0.595	1	repeat	Run2	repeat/STIM_011.jpg
1683.508	0.72	1	repeat	Run2	repeat/STIM_011.jpg
1687.469	0.904	1	repeat	Run2	repeat/STIM_011.jpg
1690.585	0.703	1	repeat	Run2	repeat/STIM_011.jpg
1693.477	0.892	1	repeat	Run2	repeat/STIM_012.jpg
1697.554	0.71	1	repeat	Run2	repeat/STIM_012.jpg
1702.045	0.614	1	repeat	Run2	repeat/STIM_012.jpg
1704.931	0.611	1	repeat	Run2	repeat/STIM_012.jpg
1708.641	0.635	1	repeat	Run2	repeat/STIM_012.jpg
1712.787	0.63	1	repeat	Run2	repeat/STIM_013.jpg
1717.316	0.658	1	repeat	Run2	repeat/STIM_013.jpg
1721.292	0.877	1	repeat	Run2	repeat/STIM_013.jpg
1725.177	0.908	1	repeat	Run2	repeat/STIM_013.jpg
1729.307	0.635	1	repeat	Run2	repeat/STIM_013.jpg
1732.963	0.864	1	repeat	Run2	repeat/STIM_014.jpg
1735.877	1.001	1	repeat	Run2	repeat/STIM_014.jpg
1740.618	0.954	1	repeat	Run2	repeat/STIM_014.jpg
1743.973	0.856	1	repeat	Run2	repeat/STIM_014.jpg
1747.029	0.975	1	repeat	Run2	repeat/STIM_014.jpg
1751.589	1.92	1	generate	Run3	generate/STIM_000.jpg
1755.826	1.756	1	generate	Run3	generate/STIM_000.jpg
1760.744	1.151	1	generate	Run3	generate/STIM_000.jpg
1764.402	1.029	1	generate	Run3	generate/STIM_000.jpg
1767.952	1.152	1	generate	Run3	generate/STIM_000.jpg
1771.889	1.499	1	generate	Run3	generate/STIM_001.jpg
1775.329	2.151	1	generate	Run3	generate/STIM_001.jpg
1780.99	1.812	1	generate	Run3	generate/STIM_001.jpg
1785.216	1.039	0	generate	Run3	generate/STIM_001.jpg
1788.666	1.872	1	generate	Run3	generate/STIM_001.jpg
1794.185	1.856	1	generate	Run3	generate/STIM_002.jpg
1798.049	1.392	1	generate	Run3	generate/STIM_002.jpg
1803.067	1.518	1	generate	Run3	generate/STIM_002.jpg
1808.225	1.362	1	generate	Run3	generate/STIM_002.jpg
1813.068	1.862	1	generate	Run3	generate/STIM_002.jpg
1817.547	1.956	0	generate	Run3	generate/STIM_003.jpg
1821.959	2.136	1	generate	Run3	generate/STIM_003.jpg
1826.315	0.941	1	generate	Run3	generate/STIM_003.jpg
1831.146	1.778	1	generate	Run3	generate/STIM_003.jpg
1836.768	1.53	1	generate	Run3	generate/STIM_003.jpg
1841.718	1.329	1	generate	Run3	generate/STIM_004.jpg
1846.005	1.755	1	generate	Run3	generate/STIM_004.jpg
1850.164	0.947	1	generate	Run3	generate/STIM_004.jpg
1853.836	1.398	1	generate	Run3	generate/STIM_004.jpg
1858.813	0.947	1	generate	Run3	generate/STIM_004.jpg
1862.075	1.506	1	generate	Run3	generate/STIM_005.jpg
1866.986	1.929	1	generate	Run3	generate/STIM_005.jpg
1871.273	1.435	1	generate	Run3	generate/STIM_005.jpg
1874.932	2.104	1	generate	Run3	generate/STIM_005.jpg
1880.425	1.019	1	generate	Run3	generate/STIM_005.jpg
1884.716	1.76	1	generate	Run3	generate/STIM_006.jpg
1889.999	2.182	1	generate	Run3	generate/STIM_006.jpg
1895.122	1.633	1	generate	Run3	generate/STIM_006.jpg
1900.419	2.23	0	generate	Run3	generate/STIM_006.jpg
1905.305	1.995	1	generate	Run3	generate/STIM_006.jpg
1910.839	2.132	0	generate	Run3	generate/STIM_007.jpg
1914.856	2.153	1	generate	Run3	generate/STIM_007.jpg
1918.958	1.767	1	generate	Run3	generate/STIM_007.jpg
1923.86	2.044	1	generate	Run3	generate/STIM_007.jpg
1929.412	2.019	1	generate	Run3	generate/STIM_007.jpg
1935.091	1.271	1	generate	Run3	generate/STIM_008.jpg
1939.929	1.956	1	generate	Run3	generate/STIM_008.jpg
1945.205	1.867	1	generate	Run3	generate/STIM_008.jpg
1949.047	1.023	0	generate	Run3	generate/STIM_008.jpg
1952.639	1.679	1	generate	Run3	generate/STIM_008.jpg
1956.547	1.196	0	generate	Run3	generate/STIM_009.jpg
1959.748	2.044	1	generate	Run3	generate/STIM_009.jpg
1963.962	1.315	1	generate	Run3	generate/STIM_009.jpg
1968.208	1.86	1	generate	Run3	generate/STIM_009.jpg
1973.153	1.348	1	generate	Run3	generate/STIM_009.jpg
1978.029	2.092	1	generate	Run3	generate/STIM_010.jpg
1983.667	1.966	1	generate	Run3	generate/STIM_010.jpg
1988.042	1.466	1	generate	Run3	generate/STIM_010.jpg
1992.452	1.741	0	generate	Run3	generate/STIM_010.jpg
1996.787	1.936	1	generate	Run3	generate/STIM_010.jpg
2002.003	1.231	1	generate	Run3	generate/STIM_011.jpg
2006.99	1.034	1	generate	Run3	generate/STIM_011.jpg
2010.742	2.037	1	generate	Run3	generate/STIM_011.jpg
2015.266	0.926	1	generate	Run3	generate/STIM_011.jpg
2019.954	1.666	0	generate	Run3	generate/STIM_011.jpg
2023.765	0.912	1	generate	Run3	generate/STIM_012.jpg
2027.173	1.612	1	generate	Run3	generate/STIM_012.jpg
2031.929	1.612	1	generate	Run3	generate/STIM_012.jpg
2035.993	2.029	1	generate	Run3	generate/STIM_012.jpg
2041.82	1.524	1	generate	Run3	generate/STIM_012.jpg
2045.508	1.119	1	generate	Run3	generate/STIM_013.jpg
2049.46	2.217	1	generate	Run3	generate/STIM_013.jpg
2055.171	2.122	1	generate	Run3	generate/STIM_013.jpg
2061.052	1.171	1	generate	Run3	generate/STIM_013.jpg
2066.059	1.516	1	generate	Run3	generate/STIM_013.jpg
2071.181	1.556	1	generate	Run3	generate/STIM_014.jpg
2075.52	1.568	1	generate	Run3	generate/STIM_014.jpg
2079.913	2.071	1	generate	Run3	generate/STIM_014.jpg
2084.221	1.56	1	generate	Run3	generate/STIM_014.jpg
2089.527	1.758	1	generate	Run3	generate/STIM_014.jpg
2093.621	1.842	1	generate	Run3	generate/STIM_015.jpg
2098.356	2.242	0	generate	Run3	generate/STIM_015.jpg
2104.37	1.182	1	generate	Run3	generate/STIM_015.jpg
2108.293	1.256	1	generate	Run3	generate/STIM_015.jpg
2112.606	1.404	1	generate	Run3	generate/STIM_015.jpg
2116.805	2.248	0	generate	Run3	generate/STIM_016.jpg
2121.568	1.143	1	generate	Run3	generate/STIM_016.jpg
2126.024	1.871	1	generate	Run3	generate/STIM_016.jpg
2131.064	2.075	1	generate	Run3	generate/STIM_016.jpg
2135.565	1.628	1	generate	Run3	generate/STIM_016.jpg
2139.221	0.917	1	generate	Run3	generate/STIM_017.jpg
2142.809	1.233	1	generate	Run3	generate/STIM_017.jpg
2147.051	1.321	1	generate	Run3	generate/STIM_017.jpg
2150.725	2.248	1	generate	Run3	generate/STIM_017.jpg
2155.418	0.985	1	generate	Run3	generate/STIM_017.jpg
2159.017	1.655	1	generate	Run3	generate/STIM_018.jpg
2162.76	1.418	0	generate	Run3	generate/STIM_018.jpg
2167.265	1.735	1	generate	Run3	generate/STIM_018.jpg
2172.139	1.844	1	generate	Run3	generate/STIM_018.jpg
2176.998	1.486	1	generate	Run3	generate/STIM_018.jpg
2182.348	2.155	1	generate	Run3	generate/STIM_019.jpg
2187.116	1.307	1	generate	Run3	generate/STIM_019.jpg
2190.703	1.715	1	generate	Run3	generate/STIM_019.jpg
2195.412	1.864	1	generate	Run3	generate/STIM_019.jpg
2200.915	1.396	1	generate	Run3	generate/STIM_019.jpg
2205.448	1.014	1	generate	Run3	generate/STIM_020.jpg
2209.753	2.095	1	generate	Run3	generate/STIM_020.jpg
2215.621	1.127	0	generate	Run3	generate/STIM_020.jpg
2218.97	2.073	0	generate	Run3	generate/STIM_020.jpg
2224.734	1.675	1	generate	Run3	generate/STIM_020.jpg
2228.502	1.34	1	generate	Run3	generate/STIM_021.jpg
2232.791	1.284	1	generate	Run3	generate/STIM_021.jpg
2236.684	1.282	1	generate	Run3	generate/STIM_021.jpg
2240.089	1.78	1	generate	Run3	generate/STIM_021.jpg
2244.444	2.071	1	generate	Run3	generate/STIM_021.jpg
2249.34	1.451	1	generate	Run3	generate/STIM_022.jpg
2253.535	1.76	1	generate	Run3	generate/STIM_022.jpg
2257.217	1.487	1	generate	Run3	generate/STIM_022.jpg
2260.927	0.979	1	generate	Run3	generate/STIM_022.jpg
2265.69	1.275	1	generate	Run3	generate/STIM_022.jpg
2269.308	2.215	1	generate	Run3	generate/STIM_023.jpg
2274.069	1.773	1	generate	Run3	generate/STIM_023.jpg
2278.163	1.118	1	generate	Run3	generate/STIM_023.jpg
2282.157	0.978	1	generate	Run3	generate/STIM_023.jpg
2285.812	2.261	0	generate	Run3	generate/STIM_023.jpg
2289.935	2.084	1	generate	Run3	generate/STIM_024.jpg
2294.032	1.909	1	generate	Run3	generate/STIM_024.jpg
2298.482	1.624	1	generate	Run3	generate/STIM_024.jpg
2302.73	1.42	1	generate	Run3	generate/STIM_024.jpg
2306.121	0.909	0	generate	Run3	generate/STIM_024.jpg
2310.563	1.006	1	repeat	Run3	repeat/STIM_000.jpg
2313.906	0.574	1	repeat	Run3	repeat/STIM_000.jpg
2318.206	0.576	1	repeat	Run3	repeat/STIM_000.jpg
2322.613	0.858	1	repeat	Run3	repeat/STIM_000.jpg
2326.747	0.726	1	repeat	Run3	repeat/STIM_000.jpg
2330.154	0.713	0	repeat	Run3	repeat/STIM_001.jpg
2334.213	1.019	1	repeat	Run3	repeat/STIM_001.jpg
2338.158	0.841	1	repeat	Run3	repeat/STIM_001.jpg
2341.939	0.898	1	repeat	Run3	repeat/STIM_001.jpg
2344.991	0.643	1	repeat	Run3	repeat/STIM_001.jpg
2349.54	0.546	1	repeat	Run3	repeat/STIM_002.jpg
2352.612	0.588	1	repeat	Run3	repeat/STIM_002.jpg
2355.656	0.586	0	repeat	Run3	repeat/STIM_002.jpg
2359.708	0.643	1	repeat	Run3	repeat/STIM_002.jpg
2362.386	0.549	1	repeat	Run3	repeat/STIM_002.jpg
2365.536	0.799	1	repeat	Run3	repeat/STIM_003.jpg
2368.319	0.798	1	repeat	Run3	repeat/STIM_003.jpg
2372.043	0.904	1	repeat	Run3	repeat/STIM_003.jpg
2375.328	0.761	1	repeat	Run3	repeat/STIM_003.jpg
2379.954	0.982	1	repeat	Run3	repeat/STIM_003.jpg
2383.39	0.712	1	repeat	Run3	repeat/STIM_004.jpg
2386.511	1.013	1	repeat	Run3	repeat/STIM_004.jpg
2391.009	0.832	1	repeat	Run3	repeat/STIM_004.jpg
2394.129	0.557	1	repeat	Run3	repeat/STIM_004.jpg
2397.939	0.76	1	repeat	Run3	repeat/STIM_004.jpg
2400.73	0.796	1	repeat	Run3	repeat/STIM_005.jpg
2404.283	0.657	1	repeat	Run3	repeat/STIM_005.jpg
2407.389	0.54	1	repeat	Run3	repeat/STIM_005.jpg
2411.098	0.952	1	repeat	Run3	repeat/STIM_005.jpg
2415.374	0.941	1	repeat	Run3	repeat/STIM_005.jpg
2419.973	0.684	1	repeat	Run3	repeat/STIM_006.jpg
2423.058	0.565	1	repeat	Run3	repeat/STIM_006.jpg
2426.981	0.546	1	repeat	Run3	repeat/STIM_006.jpg
2430.297	0.551	1	repeat	Run3	repeat/STIM_006.jpg
2434.08	0.893	1	repeat	Run3	repeat/STIM_006.jpg
2437.291	0.702	1	repeat	Run3	repeat/STIM_007.jpg
2441.865	0.841	1	repeat	Run3	repeat/STIM_007.jpg
2446.328	1.004	1	repeat	Run3	repeat/STIM_007.jpg
2451.0	0.87	1	repeat	Run3	repeat/STIM_007.jpg
2454.596	0.812	1	repeat	Run3	repeat/STIM_007.jpg
2458.75	1.066	1	repeat	Run3	repeat/STIM_008.jpg
2462.046	0.601	1	repeat	Run3	repeat/STIM_008.jpg
2466.064	0.761	1	repeat	Run3	repeat/STIM_008.jpg
2469.572	0.957	1	repeat	Run3	repeat/STIM_008.jpg
2472.651	0.787	1	repeat	Run3	repeat/STIM_008.jpg
2476.116	0.786	1	repeat	Run3	repeat/STIM_009.jpg
2479.555	0.831	1	repeat	Run3	repeat/STIM_009.jpg
2482.361	0.578	1	repeat	Run3	repeat/STIM_009.jpg
2486.344	0.564	1	repeat	Run3	repeat/STIM_009.jpg
2489.675	0.554	1	repeat	Run3	repeat/STIM_009.jpg
2493.519	0.984	1	repeat	Run3	repeat/STIM_010.jpg
2497.045	0.719	1	repeat	Run3	repeat/STIM_010.jpg
2500.969	0.903	1	repeat	Run3	repeat/STIM_010.jpg
2505.784	1.021	0	repeat	Run3	repeat/STIM_010.jpg
2509.05	0.869	1	repeat	Run3	repeat/STIM_010.jpg
2512.35	0.986	1	repeat	Run3	repeat/STIM_011.jpg
2516.541	0.59	1	repeat	Run3	repeat/STIM_011.jpg
2519.935	0.905	1	repeat	Run3	repeat/STIM_011.jpg
2524.582	0.57	1	repeat	Run3	repeat/STIM_011.jpg
2528.754	0.735	1	repeat	Run3	repeat/STIM_011.jpg
2531.443	0.554	1	repeat	Run3	repeat/STIM_012.jpg
2535.582	0.953	1	repeat	Run3	repeat/STIM_012.jpg
2539.764	0.899	0	repeat	Run3	repeat/STIM_012.jpg
2544.23	1.078	1	repeat	Run3	repeat/STIM_012.jpg
2547.701	0.577	1	repeat	Run3	repeat/STIM_012.jpg
2551.686	0.904	1	repeat	Run3	repeat/STIM_013.jpg
2555.586	0.882	1	repeat	Run3	repeat/STIM_013.jpg
2559.918	0.696	1	repeat	Run3	repeat/STIM_013.jpg
2564.319	0.864	1	repeat	Run3	repeat/STIM_013.jpg
2568.268	0.672	1	repeat	Run3	repeat/STIM_013.jpg
2572.447	0.572	1	repeat	Run3	repeat/STIM_014.jpg
2576.046	0.688	1	repeat	Run3	repeat/STIM_014.jpg
2579.804	1.026	1	repeat	Run3	repeat/STIM_014.jpg
2583.435	0.991	1	repeat	Run3	repeat/STIM_014.jpg
2586.889	1.08	1	repeat	Run3	repeat/STIM_014.jpg
2589.922	1.939	1	generate	Run4	generate/STIM_000.jpg
2595.068	2.047	1	generate	Run4	generate/STIM_000.jpg
2600.78	1.815	1	generate	Run4	generate/STIM_000.jpg
2605.078	0.976	1	generate	Run4	generate/STIM_000.jpg
2609.602	1.577	1	generate	Run4	generate/STIM_000.jpg
2613.184	1.396	1	generate	Run4	generate/STIM_001.jpg
2617.233	1.661	1	generate	Run4	generate/STIM_001.jpg
2621.818	1.239	1	generate	Run4	generate/STIM_001.jpg
2625.235	1.723	1	generate	Run4	generate/STIM_001.jpg
2629.285	1.327	1	generate	Run4	generate/STIM_001.jpg
2634.181	0.954	1	generate	Run4	generate/STIM_002.jpg
2637.16	0.935	1	generate	Run4	generate/STIM_002.jpg
2641.271	1.731	1	generate	Run4	generate/STIM_002.jpg
2645.754	1.896	1	generate	Run4	generate/STIM_002.jpg
2649.673	2.039	1	generate	Run4	generate/STIM_002.jpg
2655.451	1.105	1	generate	Run4	generate/STIM_003.jpg
2660.146	2.031	1	generate	Run4	generate/STIM_003.jpg
2665.73	1.6	1	generate	Run4	generate/STIM_003.jpg
2669.291	1.173	1	generate	Run4	generate/STIM_003.jpg
2673.86	2.082	1	generate	Run4	generate/STIM_003.jpg
2679.537	2.16	1	generate	Run4	generate/STIM_004.jpg
2684.121	1.381	1	generate	Run4	generate/STIM_004.jpg
2687.897	1.261	1	generate	Run4	generate/STIM_004.jpg
2691.549	1.824	1	generate	Run4	generate/STIM_004.jpg
2695.426	1.598	1	generate	Run4	generate/STIM_004.jpg
2699.145	1.117	1	generate	Run4	generate/STIM_005.jpg
2703.882	1.167	1	generate	Run4	generate/STIM_005.jpg
2708.208	1.771	1	generate	Run4	generate/STIM_005.jpg
2712.626	1.254	1	generate	Run4	generate/STIM_005.jpg
2716.003	1.649	1	generate	Run4	generate/STIM_005.jpg
2719.592	1.642	1	generate	Run4	generate/STIM_006.jpg
2723.57	1.674	1	generate	Run4	generate/STIM_006.jpg
2728.989	1.364	1	generate	Run4	generate/STIM_006.jpg
2733.249	1.41	1	generate	Run4	generate/STIM_006.jpg
2737.41	1.756	1	generate	Run4	generate/STIM_006.jpg
2741.694	2.258	1	generate	Run4	generate/STIM_007.jpg
2747.18	1.382	1	generate	Run4	generate/STIM_007.jpg
2752.355	1.726	1	generate	Run4	generate/STIM_007.jpg
2757.186	1.335	1	generate	Run4	generate/STIM_007.jpg
2760.982	2.257	1	generate	Run4	generate/STIM_007.jpg
2765.303	1.811	1	generate	Run4	generate/STIM_008.jpg
2770.321	1.427	1	generate	Run4	generate/STIM_008.jpg
2774.493	1.322	1	generate	Run4	generate/STIM_008.jpg
2778.278	2.055	1	generate	Run4	generate/STIM_008.jpg
2782.393	1.88	1	generate	Run4	generate/STIM_008.jpg
2786.527	1.741	1	generate	Run4	generate/STIM_009.jpg
2791.434	0.943	1	generate	Run4	generate/STIM_009.jpg
2794.949	1.836	1	generate	Run4	generate/STIM_009.jpg
2799.394	1.954	1	generate	Run4	generate/STIM_009.jpg
2803.903	1.64	1	generate	Run4	generate/STIM_009.jpg
2807.993	1.162	1	generate	Run4	generate/STIM_010.jpg
2811.148	1.483	1	generate	Run4	generate/STIM_010.jpg
2815.091	1.718	1	generate	Run4	generate/STIM_010.jpg
2819.978	2.005	1	generate	Run4	generate/STIM_010.jpg
2824.356	2.141	1	generate	Run4	generate/STIM_010.jpg
2828.742	1.152	1	generate	Run4	generate/STIM_011.jpg
2833.43	1.624	1	generate	Run4	generate/STIM_011.jpg
2838.924	1.182	1	generate	Run4	generate/STIM_011.jpg
2843.151	1.368	1	generate	Run4	generate/STIM_011.jpg
2847.742	2.247	1	generate	Run4	generate/STIM_011.jpg
2852.174	1.15	1	generate	Run4	generate/STIM_012.jpg
2855.467	1.374	1	generate	Run4	generate/STIM_012.jpg
2858.923	1.647	1	generate	Run4	generate/STIM_012.jpg
2863.576	1.76	1	generate	Run4	generate/STIM_012.jpg
2867.249	1.946	1	generate	Run4	generate/STIM_012.jpg
2871.96	2.144	1	generate	Run4	generate/STIM_013.jpg
2877.269	1.414	1	generate	Run4	generate/STIM_013.jpg
2881.553	1.093	1	generate	Run4	generate/STIM_013.jpg
2886.259	1.981	1	generate	Run4	generate/STIM_013.jpg
2891.319	1.298	1	generate	Run4	generate/STIM_013.jpg
2894.945	1.96	1	generate	Run4	generate/STIM_014.jpg
2899.795	1.978	1	generate	Run4	generate/STIM_014.jpg
2904.468	2.124	1	generate	Run4	generate/STIM_014.jpg
2910.139	1.105	1	generate	Run4	generate/STIM_014.jpg
2913.743	1.791	1	generate	Run4	generate/STIM_014.jpg
2918.214	0.946	1	generate	Run4	generate/STIM_015.jpg
2921.775	1.102	1	generate	Run4	generate/STIM_015.jpg
2925.235	1.174	0	generate	Run4	generate/STIM_015.jpg
2930.075	1.561	1	generate	Run4	generate/STIM_015.jpg
2934.529	1.472	1	generate	Run4	generate/STIM_015.jpg
2938.224	1.05	1	generate	Run4	generate/STIM_016.jpg
2941.522	2.055	1	generate	Run4	generate/STIM_016.jpg
2946.779	1.072	1	generate	Run4	generate/STIM_016.jpg
2950.68	2.072	1	generate	Run4	generate/STIM_016.jpg
2955.689	1.768	1	generate	Run4	generate/STIM_016.jpg
2959.843	1.968	1	generate	Run4	generate/STIM_017.jpg
2963.952	1.016	1	generate	Run4	generate/STIM_017.jpg
2968.84	1.079	1	generate	Run4	generate/STIM_017.jpg
2971.947	2.097	1	generate	Run4	generate/STIM_017.jpg
2976.842	2.072	1	generate	Run4	generate/STIM_017.jpg
2981.666	1.325	1	generate	Run4	generate/STIM_018.jpg
2986.036	1.973	1	generate	Run4	generate/STIM_018.jpg
2989.967	2.117	1	generate	Run4	generate/STIM_018.jpg
2995.037	1.559	1	generate	Run4	generate/STIM_018.jpg
2998.818	2.087	1	generate	Run4	generate/STIM_018.jpg
3004.536	1.615	0	generate	Run4	generate/STIM_019.jpg
3008.31	1.383	1	generate	Run4	generate/STIM_019.jpg
3012.662	1.494	1	generate	Run4	generate/STIM_019.jpg
3016.626	1.432	1	generate	Run4	generate/STIM_019.jpg
3020.274	1.742	1	generate	Run4	generate/STIM_019.jpg
3025.08	1.096	1	generate	Run4	generate/STIM_020.jpg
3029.406	2.098	1	generate	Run4	generate/STIM_020.jpg
3033.456	2.205	1	generate	Run4	generate/STIM_020.jpg
3039.14	1.207	1	generate	Run4	generate/STIM_020.jpg
3043.442	1.408	1	generate	Run4	generate/STIM_020.jpg
3048.0	2.216	1	generate	Run4	generate/STIM_021.jpg
3052.975	1.321	1	generate	Run4	generate/STIM_021.jpg
3057.84	2.084	1	generate	Run4	generate/STIM_021.jpg
3062.077	1.659	1	generate	Run4	generate/STIM_021.jpg
3066.922	1.255	1	generate	Run4	generate/STIM_021.jpg
3070.221	2.017	1	generate	Run4	generate/STIM_022.jpg
3075.173	0.955	1	generate	Run4	generate/STIM_022.jpg
3079.363	2.08	1	generate	Run4	generate/STIM_022.jpg
3083.459	1.064	1	generate	Run4	generate/STIM_022.jpg
3087.708	1.226	1	generate	Run4	generate/STIM_022.jpg
3092.321	1.996	1	generate	Run4	generate/STIM_023.jpg
3097.758	1.782	1	generate	Run4	generate/STIM_023.jpg
3102.541	2.162	1	generate	Run4	generate/STIM_023.jpg
3107.116	2.072	1	generate	Run4	generate/STIM_023.jpg
3112.757	1.493	1	generate	Run4	generate/STIM_023.jpg
3116.847	2.024	0	generate	Run4	generate/STIM_024.jpg
3122.531	1.866	1	generate	Run4	generate/STIM_024.jpg
3127.41	2.112	1	generate	Run4	generate/STIM_024.jpg
3132.62	1.837	1	generate	Run4	generate/STIM_024.jpg
3137.011	2.089	1	generate	Run4	generate/STIM_024.jpg
3141.547	0.886	1	repeat	Run4	repeat/STIM_000.jpg
3145.61	0.956	1	repeat	Run4	repeat/STIM_000.jpg
3148.852	0.592	1	repeat	Run4	repeat/STIM_000.jpg
3152.574	0.548	1	repeat	Run4	repeat/STIM_000.jpg
3156.702	0.848	1	repeat	Run4	repeat/STIM_000.jpg
3160.024	0.668	1	repeat	Run4	repeat/STIM_001.jpg
3163.042	0.573	1	repeat	Run4	repeat/STIM_001.jpg
3166.415	0.578	1	repeat	Run4	repeat/STIM_001.jpg
3169.866	0.874	1	repeat	Run4	repeat/STIM_001.jpg
3174.073	0.566	1	repeat	Run4	repeat/STIM_001.jpg
3176.864	0.804	1	repeat	Run4	repeat/STIM_002.jpg
3181.197	0.73	1	repeat	Run4	repeat/STIM_002.jpg
3185.601	1.056	1	repeat	Run4	repeat/STIM_002.jpg
3189.887	0.948	1	repeat	Run4	repeat/STIM_002.jpg
3193.655	0.588	1	repeat	Run4	repeat/STIM_002.jpg
3196.588	0.784	1	repeat	Run4	repeat/STIM_003.jpg
3199.367	0.935	1	repeat	Run4	repeat/STIM_003.jpg
3203.585	0.823	1	repeat	Run4	repeat/STIM_003.jpg
3206.648	0.569	1	repeat	Run4	repeat/STIM_003.jpg
3209.545	0.73	1	repeat	Run4	repeat/STIM_003.jpg
3212.976	0.639	1	repeat	Run4	repeat/STIM_004.jpg
3216.137	1.016	1	repeat	Run4	repeat/STIM_004.jpg
3220.92	0.708	1	repeat	Run4	repeat/STIM_004.jpg
3225.036	0.982	1	repeat	Run4	repeat/STIM_004.jpg
3228.026	0.892	1	repeat	Run4	repeat/STIM_004.jpg
3232.618	0.8	1	repeat	Run4	repeat/STIM_005.jpg
3235.522	0.962	1	repeat	Run4	repeat/STIM_005.jpg
3239.189	0.745	1	repeat	Run4	repeat/STIM_005.jpg
3243.599	0.7	1	repeat	Run4	repeat/STIM_005.jpg
3246.427	0.57	1	repeat	Run4	repeat/STIM_005.jpg
3250.228	0.816	1	repeat	Run4	repeat/STIM_006.jpg
3253.836	1.006	1	repeat	Run4	repeat/STIM_006.jpg
3258.043	0.734	1	repeat	Run4	repeat/STIM_006.jpg
3262.604	1.017	1	repeat	Run4	repeat/STIM_006.jpg
3267.032	0.554	1	repeat	Run4	repeat/STIM_006.jpg
3270.459	0.768	1	repeat	Run4	repeat/STIM_007.jpg
3273.497	0.785	1	repeat	Run4	repeat/STIM_007.jpg
3277.065	0.718	1	repeat	Run4	repeat/STIM_007.jpg
3281.446	0.922	1	repeat	Run4	repeat/STIM_007.jpg
3284.543	0.675	1	repeat	Run4	repeat/STIM_007.jpg
3288.32	0.766	1	repeat	Run4	repeat/STIM_008.jpg
3291.672	0.562	1	repeat	Run4	repeat/STIM_008.jpg
3295.695	1.067	1	repeat	Run4	repeat/STIM_008.jpg
3300.489	0.542	1	repeat	Run4	repeat/STIM_008.jpg
3304.299	1.072	1	repeat	Run4	repeat/STIM_008.jpg
3308.317	0.835	1	repeat	Run4	repeat/STIM_009.jpg
3311.221	0.629	1	repeat	Run4	repeat/STIM_009.jpg
3314.891	0.898	1	repeat	Run4	repeat/STIM_009.jpg
3317.997	0.764	1	repeat	Run4	repeat/STIM_009.jpg
3321.678	0.577	1	repeat	Run4	repeat/STIM_009.jpg
3324.938	0.603	1	repeat	Run4	repeat/STIM_010.jpg
3328.439	0.901	1	repeat	Run4	repeat/STIM_010.jpg
3332.898	0.554	1	repeat	Run4	repeat/STIM_010.jpg
3336.35	0.859	1	repeat	Run4	repeat/STIM_010.jpg
3339.868	0.812	1	repeat	Run4	repeat/STIM_010.jpg
3342.965	0.886	1	repeat	Run4	repeat/STIM_011.jpg
3346.103	0.941	1	repeat	Run4	repeat/STIM_011.jpg
3349.189	0.972	1	repeat	Run4	repeat/STIM_011.jpg
3352.767	0.957	1	repeat	Run4	repeat/STIM_011.jpg
3357.016	0.817	1	repeat	Run4	repeat/STIM_011.jpg
3360.822	0.679	1	repeat	Run4	repeat/STIM_012.jpg
3363.654	0.609	1	repeat	Run4	repeat/STIM_012.jpg
3367.495	0.655	1	repeat	Run4	repeat/STIM_012.jpg
3370.906	0.557	0	repeat	Run4	repeat/STIM_012.jpg
3375.416	0.622	1	repeat	Run4	repeat/STIM_012.jpg
3379.747	0.614	1	repeat	Run4	repeat/STIM_013.jpg
3384.127	0.545	1	repeat	Run4	repeat/STIM_013.jpg
3387.298	0.785	1	repeat	Run4	repeat/STIM_013.jpg
3391.385	0.951	1	repeat	Run4	repeat/STIM_013.jpg
3395.465	0.941	1	repeat	Run4	repeat/STIM_013.jpg
3400.09	0.664	1	repeat	Run4	repeat/STIM_014.jpg
3402.885	0.905	1	repeat	Run4	repeat/STIM_014.jpg
3406.978	0.82	1	repeat	Run4	repeat/STIM_014.jpg
3409.836	1.068	1	repeat	Run4	repeat/STIM_014.jpg
3413.399	0.693	1	repeat	Run4	repeat/STIM_014.jpg
