onset	duration	accuracy	trial_type	learning_stage	stimulus
0.0	1.769	correct	generate	Run1	generate/STIM_000.jpg
4.704	1.65	incorrect	generate	Run1	generate/STIM_000.jpg
8.918	1.662	incorrect	generate	Run1	generate/STIM_000.jpg
13.56	0.976	correct	generate	Run1	generate/STIM_000.jpg
18.244	1.413	correct	generate	Run1	generate/STIM_000.jpg
22.648	1.051	correct	generate	Run1	generate/STIM_001.jpg
26.787	2.12	correct	generate	Run1	generate/STIM_001.jpg
32.431	1.449	correct	generate	Run1	generate/STIM_001.jpg
37.754	1.93	correct	generate	Run1	generate/STIM_001.jpg
43.001	1.281	incorrect	generate	Run1	generate/STIM_001.jpg
46.529	1.709	incorrect	generate	Run1	generate/STIM_002.jpg
51.498	1.324	incorrect	generate	Run1	generate/STIM_002.jpg
55.489	1.355	incorrect	generate	Run1	generate/STIM_002.jpg
59.904	1.763	correct	generate	Run1	generate/STIM_002.jpg
65.189	0.77	incorrect	generate	Run1	generate/STIM_002.jpg
69.481	1.009	correct	generate	Run1	generate/STIM_003.jpg
72.55	0.977	correct	generate	Run1	generate/STIM_003.jpg
76.951	1.088	incorrect	generate	Run1	generate/STIM_003.jpg
80.835	1.963	correct	generate	Run1	generate/STIM_003.jpg
85.237	1.369	correct	generate	Run1	generate/STIM_003.jpg
89.462	2.3	incorrect	generate	Run1	generate/STIM_004.jpg
94.819	0.906	incorrect	generate	Run1	generate/STIM_004.jpg
98.633	0.941	correct	generate	Run1	generate/STIM_004.jpg
102.316	1.862	correct	generate	Run1	generate/STIM_004.jpg
107.183	1.005	incorrect	generate	Run1	generate/STIM_004.jpg
110.392	1.228	correct	generate	Run1	generate/STIM_005.jpg
114.211	2.133	correct	generate	Run1	generate/STIM_005.jpg
119.352	1.97	incorrect	generate	Run1	generate/STIM_005.jpg
125.091	1.726	correct	generate	Run1	generate/STIM_005.jpg
130.141	1.67	correct	generate	Run1	generate/STIM_005.jpg
133.819	2.284	correct	generate	Run1	generate/STIM_006.jpg
139.045	1.208	correct	generate	Run1	generate/STIM_006.jpg
142.992	1.32	incorrect	generate	Run1	generate/STIM_006.jpg
147.39	1.172	correct	generate	Run1	generate/STIM_006.jpg
152.001	1.144	incorrect	generate	Run1	generate/STIM_006.jpg
156.812	2.29	correct	generate	Run1	generate/STIM_007.jpg
162.654	1.048	incorrect	generate	Run1	generate/STIM_007.jpg
167.517	1.402	correct	generate	Run1	generate/STIM_007.jpg
171.932	1.758	correct	generate	Run1	generate/STIM_007.jpg
176.333	1.076	correct	generate	Run1	generate/STIM_007.jpg
180.798	2.086	correct	generate	Run1	generate/STIM_008.jpg
185.672	1.692	incorrect	generate	Run1	generate/STIM_008.jpg
191.34	1.709	incorrect	generate	Run1	generate/STIM_008.jpg
196.915	0.918	correct	generate	Run1	generate/STIM_008.jpg
200.719	1.858	incorrect	generate	Run1	generate/STIM_008.jpg
205.478	2.014	correct	generate	Run1	generate/STIM_009.jpg
210.8	1.459	correct	generate	Run1	generate/STIM_009.jpg
214.697	1.01	incorrect	generate	Run1	generate/STIM_009.jpg
218.67	1.241	correct	generate	Run1	generate/STIM_009.jpg
223.782	1.055	incorrect	generate	Run1	generate/STIM_009.jpg
227.541	1.654	correct	generate	Run1	generate/STIM_010.jpg
232.234	1.512	correct	generate	Run1	generate/STIM_010.jpg
236.991	1.019	correct	generate	Run1	generate/STIM_010.jpg
240.295	0.984	incorrect	generate	Run1	generate/STIM_010.jpg
244.755	1.285	correct	generate	Run1	generate/STIM_010.jpg
249.429	1.44	correct	generate	Run1	generate/STIM_011.jpg
253.489	2.045	correct	generate	Run1	generate/STIM_011.jpg
258.958	1.248	incorrect	generate	Run1	generate/STIM_011.jpg
263.026	1.106	correct	generate	Run1	generate/STIM_011.jpg
266.159	1.549	correct	generate	Run1	generate/STIM_011.jpg
271.17	1.189	correct	generate	Run1	generate/STIM_012.jpg
276.116	1.951	correct	generate	Run1	generate/STIM_012.jpg
281.171	1.523	correct	generate	Run1	generate/STIM_012.jpg
285.856	1.698	correct	generate	Run1	generate/STIM_012.jpg
290.304	1.51	incorrect	generate	Run1	generate/STIM_012.jpg
294.493	1.734	incorrect	generate	Run1	generate/STIM_013.jpg
299.76	1.187	correct	generate	Run1	generate/STIM_013.jpg
304.58	1.522	correct	generate	Run1	generate/STIM_013.jpg
308.573	1.117	correct	generate	Run1	generate/STIM_013.jpg
312.476	1.552	correct	generate	Run1	generate/STIM_013.jpg
317.474	1.016	incorrect	generate	Run1	generate/STIM_014.jpg
322.474	2.114	correct	generate	Run1	generate/STIM_014.jpg
327.665	0.839	correct	generate	Run1	generate/STIM_014.jpg
331.697	1.158	incorrect	generate	Run1	generate/STIM_014.jpg
336.337	1.732	incorrect	generate	Run1	generate/STIM_014.jpg
341.554	1.459	correct	generate	Run1	generate/STIM_015.jpg
346.916	1.158	correct	generate	Run1	generate/STIM_015.jpg
350.769	1.9	incorrect	generate	Run1	generate/STIM_015.jpg
356.575	1.772	incorrect	generate	Run1	generate/STIM_015.jpg
361.114	1.138	correct	generate	Run1	generate/STIM_015.jpg
365.537	1.03	correct	generate	Run1	generate/STIM_016.jpg
370.493	1.347	correct	generate	Run1	generate/STIM_016.jpg
374.582	1.258	correct	generate	Run1	generate/STIM_016.jpg
379.785	1.217	incorrect	generate	Run1	generate/STIM_016.jpg
384.317	1.662	correct	generate	Run1	generate/STIM_016.jpg
389.964	1.643	correct	generate	Run1	generate/STIM_017.jpg
394.182	2.157	correct	generate	Run1	generate/STIM_017.jpg
399.206	1.522	correct	generate	Run1	generate/STIM_017.jpg
404.711	1.395	incorrect	generate	Run1	generate/STIM_017.jpg
408.912	0.825	correct	generate	Run1	generate/STIM_017.jpg
412.018	2.018	incorrect	generate	Run1	generate/STIM_018.jpg
417.372	0.96	correct	generate	Run1	generate/STIM_018.jpg
420.752	2.044	correct	generate	Run1	generate/STIM_018.jpg
426.768	1.286	correct	generate	Run1	generate/STIM_018.jpg
431.998	1.603	correct	generate	Run1	generate/STIM_018.jpg
436.917	1.16	correct	generate	Run1	generate/STIM_019.jpg
440.659	1.05	correct	generate	Run1	generate/STIM_019.jpg
444.081	1.496	correct	generate	Run1	generate/STIM_019.jpg
448.142	1.659	incorrect	generate	Run1	generate/STIM_019.jpg
452.405	1.432	correct	generate	Run1	generate/STIM_019.jpg
457.04	2.03	incorrect	generate	Run1	generate/STIM_020.jpg
462.126	1.284	incorrect	generate	Run1	generate/STIM_020.jpg
466.234	1.398	correct	generate	Run1	generate/STIM_020.jpg
471.578	1.018	incorrect	generate	Run1	generate/STIM_020.jpg
475.546	0.86	correct	generate	Run1	generate/STIM_020.jpg
479.703	2.314	correct	generate	Run1	generate/STIM_021.jpg
484.315	1.434	correct	generate	Run1	generate/STIM_021.jpg
488.39	1.603	correct	generate	Run1	generate/STIM_021.jpg
492.507	1.977	correct	generate	Run1	generate/STIM_021.jpg
497.952	1.424	incorrect	generate	Run1	generate/STIM_021.jpg
501.684	2.187	correct	generate	Run1	generate/STIM_022.jpg
506.103	2.07	correct	generate	Run1	generate/STIM_022.jpg
510.254	1.802	incorrect	generate	Run1	generate/STIM_022.jpg
514.842	0.853	incorrect	generate	Run1	generate/STIM_022.jpg
518.061	1.276	correct	generate	Run1	generate/STIM_022.jpg
522.862	1.421	incorrect	generate	Run1	generate/STIM_023.jpg
526.981	1.354	correct	generate	Run1	generate/STIM_023.jpg
531.054	1.22	incorrect	generate	Run1	generate/STIM_023.jpg
535.927	0.949	correct	generate	Run1	generate/STIM_023.jpg
539.518	1.022	correct	generate	Run1	generate/STIM_023.jpg
542.667	0.957	correct	generate	Run1	generate/STIM_024.jpg
547.188	1.105	correct	generate	Run1	generate/STIM_024.jpg
551.622	1.68	correct	generate	Run1	generate/STIM_024.jpg
557.277	0.844	correct	generate	Run1	generate/STIM_024.jpg
560.198	1.164	correct	generate	Run1	generate/STIM_024.jpg
563.991	0.678	incorrect	repeat	Run1	repeat/STIM_000.jpg
567.969	0.762	correct	repeat	Run1	repeat/STIM_000.jpg
571.995	0.605	correct	repeat	Run1	repeat/STIM_000.jpg
575.691	0.763	correct	repeat	Run1	repeat/STIM_000.jpg
579.292	0.412	correct	repeat	Run1	repeat/STIM_000.jpg
582.491	0.573	correct	repeat	Run1	repeat/STIM_001.jpg
586.075	0.413	correct	repeat	Run1	repeat/STIM_001.jpg
589.794	0.581	correct	repeat	Run1	repeat/STIM_001.jpg
593.937	0.42	correct	repeat	Run1	repeat/STIM_001.jpg
596.666	0.738	correct	repeat	Run1	repeat/STIM_001.jpg
599.988	0.517	correct	repeat	Run1	repeat/STIM_002.jpg
603.733	0.392	correct	repeat	Run1	repeat/STIM_002.jpg
607.387	0.416	correct	repeat	Run1	repeat/STIM_002.jpg
610.518	0.746	correct	repeat	Run1	repeat/STIM_002.jpg
613.541	0.54	correct	repeat	Run1	repeat/STIM_002.jpg
617.957	0.421	correct	repeat	Run1	repeat/STIM_003.jpg
620.405	0.579	correct	repeat	Run1	repeat/STIM_003.jpg
624.97	0.452	incorrect	repeat	Run1	repeat/STIM_003.jpg
628.614	0.72	correct	repeat	Run1	repeat/STIM_003.jpg
631.873	0.699	correct	repeat	Run1	repeat/STIM_003.jpg
634.791	0.613	correct	repeat	Run1	repeat/STIM_004.jpg
638.523	0.733	correct	repeat	Run1	repeat/STIM_004.jpg
642.935	0.766	correct	repeat	Run1	repeat/STIM_004.jpg
646.206	0.489	correct	repeat	Run1	repeat/STIM_004.jpg
650.317	0.751	correct	repeat	Run1	repeat/STIM_004.jpg
654.044	0.416	incorrect	repeat	Run1	repeat/STIM_005.jpg
657.103	0.466	correct	repeat	Run1	repeat/STIM_005.jpg
661.1	0.54	correct	repeat	Run1	repeat/STIM_005.jpg
664.001	0.47	correct	repeat	Run1	repeat/STIM_005.jpg
666.52	0.681	correct	repeat	Run1	repeat/STIM_005.jpg
670.874	0.754	correct	repeat	Run1	repeat/STIM_006.jpg
674.58	0.684	correct	repeat	Run1	repeat/STIM_006.jpg
679.122	0.692	correct	repeat	Run1	repeat/STIM_006.jpg
682.269	0.504	incorrect	repeat	Run1	repeat/STIM_006.jpg
684.806	0.575	correct	repeat	Run1	repeat/STIM_006.jpg
688.982	0.415	correct	repeat	Run1	repeat/STIM_007.jpg
693.264	0.689	correct	repeat	Run1	repeat/STIM_007.jpg
697.51	0.532	correct	repeat	Run1	repeat/STIM_007.jpg
700.117	0.576	correct	repeat	Run1	repeat/STIM_007.jpg
703.288	0.642	incorrect	repeat	Run1	repeat/STIM_007.jpg
707.488	0.467	incorrect	repeat	Run1	repeat/STIM_008.jpg
710.924	0.516	correct	repeat	Run1	repeat/STIM_008.jpg
713.808	0.575	correct	repeat	Run1	repeat/STIM_008.jpg
717.2	0.463	correct	repeat	Run1	repeat/STIM_008.jpg
720.802	0.757	correct	repeat	Run1	repeat/STIM_008.jpg
724.722	0.599	correct	repeat	Run1	repeat/STIM_009.jpg
727.911	0.472	correct	repeat	Run1	repeat/STIM_009.jpg
730.826	0.457	correct	repeat	Run1	repeat/STIM_009.jpg
734.416	0.674	correct	repeat	Run1	repeat/STIM_009.jpg
738.076	0.652	correct	repeat	Run1	repeat/STIM_009.jpg
742.609	0.695	correct	repeat	Run1	repeat/STIM_010.jpg
746.977	0.471	correct	repeat	Run1	repeat/STIM_010.jpg
749.711	0.713	correct	repeat	Run1	repeat/STIM_010.jpg
752.825	0.733	correct	repeat	Run1	repeat/STIM_010.jpg
756.54	0.625	correct	repeat	Run1	repeat/STIM_010.jpg
759.331	0.694	correct	repeat	Run1	repeat/STIM_011.jpg
762.643	0.465	correct	repeat	Run1	repeat/STIM_011.jpg
765.238	0.673	incorrect	repeat	Run1	repeat/STIM_011.jpg
768.742	0.459	incorrect	repeat	Run1	repeat/STIM_011.jpg
772.401	0.402	correct	repeat	Run1	repeat/STIM_011.jpg
775.297	0.626	correct	repeat	Run1	repeat/STIM_012.jpg
778.658	0.449	correct	repeat	Run1	repeat/STIM_012.jpg
782.099	0.582	correct	repeat	Run1	repeat/STIM_012.jpg
784.774	0.468	correct	repeat	Run1	repeat/STIM_012.jpg
788.279	0.46	correct	repeat	Run1	repeat/STIM_012.jpg
792.018	0.612	correct	repeat	Run1	repeat/STIM_013.jpg
794.807	0.48	correct	repeat	Run1	repeat/STIM_013.jpg
798.742	0.457	incorrect	repeat	Run1	repeat/STIM_013.jpg
801.672	0.508	correct	repeat	Run1	repeat/STIM_013.jpg
806.063	0.726	correct	repeat	Run1	repeat/STIM_013.jpg
810.091	0.693	correct	repeat	Run1	repeat/STIM_014.jpg
813.618	0.636	correct	repeat	Run1	repeat/STIM_014.jpg
816.904	0.567	correct	repeat	Run1	repeat/STIM_014.jpg
821.383	0.715	correct	repeat	Run1	repeat/STIM_014.jpg
825.782	0.401	correct	repeat	Run1	repeat/STIM_014.jpg
829.388	1.402	correct	generate	Run2	generate/STIM_000.jpg
834.213	1.786	correct	generate	Run2	generate/STIM_000.jpg
839.642	1.729	incorrect	generate	Run2	generate/STIM_000.jpg
845.091	0.744	correct	generate	Run2	generate/STIM_000.jpg
848.539	1.215	correct	generate	Run2	generate/STIM_000.jpg
853.695	1.33	incorrect	generate	Run2	generate/STIM_001.jpg
857.739	1.825	correct	generate	Run2	generate/STIM_001.jpg
863.317	1.153	incorrect	generate	Run2	generate/STIM_001.jpg
867.632	1.36	correct	generate	Run2	generate/STIM_001.jpg
871.066	1.184	correct	generate	Run2	generate/STIM_001.jpg
875.476	1.522	correct	generate	Run2	generate/STIM_002.jpg
880.368	1.297	incorrect	generate	Run2	generate/STIM_002.jpg
884.385	1.392	correct	generate	Run2	generate/STIM_002.jpg
889.054	1.182	correct	generate	Run2	generate/STIM_002.jpg
893.648	0.812	correct	generate	Run2	generate/STIM_002.jpg
897.497	0.902	correct	generate	Run2	generate/STIM_003.jpg
901.756	0.887	correct	generate	Run2	generate/STIM_003.jpg
904.922	1.169	correct	generate	Run2	generate/STIM_003.jpg
910.067	1.341	incorrect	generate	Run2	generate/STIM_003.jpg
914.711	0.73	correct	generate	Run2	generate/STIM_003.jpg
918.214	1.152	correct	generate	Run2	generate/STIM_004.jpg
922.277	0.915	incorrect	generate	Run2	generate/STIM_004.jpg
925.815	1.595	incorrect	generate	Run2	generate/STIM_004.jpg
929.492	1.278	correct	generate	Run2	generate/STIM_004.jpg
933.019	1.46	correct	generate	Run2	generate/STIM_004.jpg
938.192	1.075	correct	generate	Run2	generate/STIM_005.jpg
942.608	1.016	correct	generate	Run2	generate/STIM_005.jpg
946.161	1.572	correct	generate	Run2	generate/STIM_005.jpg
950.256	0.944	correct	generate	Run2	generate/STIM_005.jpg
954.754	1.512	correct	generate	Run2	generate/STIM_005.jpg
960.221	1.363	correct	generate	Run2	generate/STIM_006.jpg
964.575	1.066	correct	generate	Run2	generate/STIM_006.jpg
968.561	0.959	correct	generate	Run2	generate/STIM_006.jpg
972.81	1.269	correct	generate	Run2	generate/STIM_006.jpg
977.286	1.549	incorrect	generate	Run2	generate/STIM_006.jpg
981.217	0.888	correct	generate	Run2	generate/STIM_007.jpg
984.554	1.038	correct	generate	Run2	generate/STIM_007.jpg
988.772	1.723	correct	generate	Run2	generate/STIM_007.jpg
992.584	1.201	incorrect	generate	Run2	generate/STIM_007.jpg
996.265	0.757	correct	generate	Run2	generate/STIM_007.jpg
1000.126	1.368	correct	generate	Run2	generate/STIM_008.jpg
1004.864	1.169	correct	generate	Run2	generate/STIM_008.jpg
1010.01	1.368	incorrect	generate	Run2	generate/STIM_008.jpg
1014.521	1.14	correct	generate	Run2	generate/STIM_008.jpg
1018.88	1.581	correct	generate	Run2	generate/STIM_008.jpg
1024.292	1.903	correct	generate	Run2	generate/STIM_009.jpg
1029.676	1.204	correct	generate	Run2	generate/STIM_009.jpg
1034.212	0.941	incorrect	generate	Run2	generate/STIM_009.jpg
1037.588	1.081	incorrect	generate	Run2	generate/STIM_009.jpg
1041.521	0.789	correct	generate	Run2	generate/STIM_009.jpg
1044.462	1.632	correct	generate	Run2	generate/STIM_010.jpg
1048.166	1.544	incorrect	generate	Run2	generate/STIM_010.jpg
1053.106	1.351	correct	generate	Run2	generate/STIM_010.jpg
1057.055	1.298	correct	generate	Run2	generate/STIM_010.jpg
1061.605	1.004	incorrect	generate	Run2	generate/STIM_010.jpg
1066.543	0.987	correct	generate	Run2	generate/STIM_011.jpg
1069.771	0.858	correct	generate	Run2	generate/STIM_011.jpg
1074.156	1.155	incorrect	generate	Run2	generate/STIM_011.jpg
1077.818	1.322	correct	generate	Run2	generate/STIM_011.jpg
1082.588	0.896	correct	generate	Run2	generate/STIM_011.jpg
1086.422	1.394	incorrect	generate	Run2	generate/STIM_012.jpg
1090.839	1.382	correct	generate	Run2	generate/STIM_012.jpg
1095.491	1.167	correct	generate	Run2	generate/STIM_012.jpg
1099.279	1.555	correct	generate	Run2	generate/STIM_012.jpg
1102.993	1.091	correct	generate	Run2	generate/STIM_012.jpg
1107.43	1.813	incorrect	generate	Run2	generate/STIM_013.jpg
1111.572	0.852	correct	generate	Run2	generate/STIM_013.jpg
1115.218	0.847	incorrect	generate	Run2	generate/STIM_013.jpg
1119.717	1.618	correct	generate	Run2	generate/STIM_013.jpg
1124.195	1.572	correct	generate	Run2	generate/STIM_013.jpg
1128.568	1.751	correct	generate	Run2	generate/STIM_014.jpg
1133.452	1.14	incorrect	generate	Run2	generate/STIM_014.jpg
1137.749	0.808	correct	generate	Run2	generate/STIM_014.jpg
1141.047	1.038	incorrect	generate	Run2	generate/STIM_014.jpg
1145.27	1.005	correct	generate	Run2	generate/STIM_014.jpg
1149.69	1.547	correct	generate	Run2	generate/STIM_015.jpg
1154.823	0.97	correct	generate	Run2	generate/STIM_015.jpg
1159.388	0.951	correct	generate	Run2	generate/STIM_015.jpg
1164.075	1.364	correct	generate	Run2	generate/STIM_015.jpg
1169.362	0.662	correct	generate	Run2	generate/STIM_015.jpg
1172.685	1.228	correct	generate	Run2	generate/STIM_016.jpg
1176.611	1.31	correct	generate	Run2	generate/STIM_016.jpg
1180.253	0.7	correct	generate	Run2	generate/STIM_016.jpg
1183.087	1.312	correct	generate	Run2	generate/STIM_016.jpg
1187.357	1.606	correct	generate	Run2	generate/STIM_016.jpg
1192.605	1.258	correct	generate	Run2	generate/STIM_017.jpg
1195.884	1.566	correct	generate	Run2	generate/STIM_017.jpg
1200.38	0.922	correct	generate	Run2	generate/STIM_017.jpg
1204.852	1.091	correct	generate	Run2	generate/STIM_017.jpg
1209.496	0.983	correct	generate	Run2	generate/STIM_017.jpg
1212.716	1.291	correct	generate	Run2	generate/STIM_018.jpg
1216.28	1.368	correct	generate	Run2	generate/STIM_018.jpg
1221.312	0.73	incorrect	generate	Run2	generate/STIM_018.jpg
1225.364	1.264	correct	generate	Run2	generate/STIM_018.jpg
1229.354	0.907	correct	generate	Run2	generate/STIM_018.jpg
1233.99	1.311	correct	generate	Run2	generate/STIM_019.jpg
1239.204	0.817	correct	generate	Run2	generate/STIM_019.jpg
1243.448	0.796	correct	generate	Run2	generate/STIM_019.jpg
1247.014	0.832	correct	generate	Run2	generate/STIM_019.jpg
1250.606	0.768	incorrect	generate	Run2	generate/STIM_019.jpg
1253.861	1.329	correct	generate	Run2	generate/STIM_020.jpg
1258.213	1.328	incorrect	generate	Run2	generate/STIM_020.jpg
1262.553	1.538	correct	generate	Run2	generate/STIM_020.jpg
1267.06	1.191	incorrect	generate	Run2	generate/STIM_020.jpg
1270.326	1.618	correct	generate	Run2	generate/STIM_020.jpg
1275.874	1.495	correct	generate	Run2	generate/STIM_021.jpg
1280.869	0.888	correct	generate	Run2	generate/STIM_021.jpg
1284.326	1.012	incorrect	generate	Run2	generate/STIM_021.jpg
1289.262	1.514	correct	generate	Run2	generate/STIM_021.jpg
1293.314	1.287	correct	generate	Run2	generate/STIM_021.jpg
1297.442	1.29	correct	generate	Run2	generate/STIM_022.jpg
1301.745	1.476	correct	generate	Run2	generate/STIM_022.jpg
1306.226	1.381	correct	generate	Run2	generate/STIM_022.jpg
1310.686	0.976	correct	generate	Run2	generate/STIM_022.jpg
1315.439	1.017	correct	generate	Run2	generate/STIM_022.jpg
1319.613	1.513	incorrect	generate	Run2	generate/STIM_023.jpg
1324.916	1.818	incorrect	generate	Run2	generate/STIM_023.jpg
1329.991	1.597	correct	generate	Run2	generate/STIM_023.jpg
1334.379	1.446	correct	generate	Run2	generate/STIM_023.jpg
1338.479	1.623	correct	generate	Run2	generate/STIM_023.jpg
1342.471	1.593	incorrect	generate	Run2	generate/STIM_024.jpg
1346.095	1.522	incorrect	generate	Run2	generate/STIM_024.jpg
1350.334	0.933	correct	generate	Run2	generate/STIM_024.jpg
1353.734	1.043	correct	generate	Run2	generate/STIM_024.jpg
1358.089	0.979	correct	generate	Run2	generate/STIM_024.jpg
1361.597	0.502	correct	repeat	Run2	repeat/STIM_000.jpg
1365.454	0.424	correct	repeat	Run2	repeat/STIM_000.jpg
1369.616	0.426	correct	repeat	Run2	repeat/STIM_000.jpg
1372.942	0.412	correct	repeat	Run2	repeat/STIM_000.jpg
1376.269	0.578	correct	repeat	Run2	repeat/STIM_000.jpg
1379.899	0.759	correct	repeat	Run2	repeat/STIM_001.jpg
1383.313	0.579	incorrect	repeat	Run2	repeat/STIM_001.jpg
1387.645	0.559	correct	repeat	Run2	repeat/STIM_001.jpg
1391.509	0.451	correct	repeat	Run2	repeat/STIM_001.jpg
1393.994	0.643	correct	repeat	Run2	repeat/STIM_001.jpg
1397.63	0.571	correct	repeat	Run2	repeat/STIM_002.jpg
1400.33	0.508	incorrect	repeat	Run2	repeat/STIM_002.jpg
1403.521	0.771	correct	repeat	Run2	repeat/STIM_002.jpg
1406.601	0.395	incorrect	repeat	Run2	repeat/STIM_002.jpg
1409.533	0.462	incorrect	repeat	Run2	repeat/STIM_002.jpg
1413.476	0.434	correct	repeat	Run2	repeat/STIM_003.jpg
1417.383	0.651	correct	repeat	Run2	repeat/STIM_003.jpg
1420.963	0.481	correct	repeat	Run2	repeat/STIM_003.jpg
1423.713	0.52	correct	repeat	Run2	repeat/STIM_003.jpg
1426.856	0.631	correct	repeat	Run2	repeat/STIM_003.jpg
1429.857	0.393	correct	repeat	Run2	repeat/STIM_004.jpg
1433.524	0.613	correct	repeat	Run2	repeat/STIM_004.jpg
1437.185	0.402	incorrect	repeat	Run2	repeat/STIM_004.jpg
1439.972	0.56	correct	repeat	Run2	repeat/STIM_004.jpg
1444.067	0.563	incorrect	repeat	Run2	repeat/STIM_004.jpg
1448.452	0.731	correct	repeat	Run2	repeat/STIM_005.jpg
1452.26	0.4	correct	repeat	Run2	repeat/STIM_005.jpg
1455.636	0.482	correct	repeat	Run2	repeat/STIM_005.jpg
1458.466	0.719	correct	repeat	Run2	repeat/STIM_005.jpg
1461.507	0.665	correct	repeat	Run2	repeat/STIM_005.jpg
1464.173	0.471	correct	repeat	Run2	repeat/STIM_006.jpg
1467.535	0.626	correct	repeat	Run2	repeat/STIM_006.jpg
1471.505	0.703	correct	repeat	Run2	repeat/STIM_006.jpg
1475.653	0.392	correct	repeat	Run2	repeat/STIM_006.jpg
1478.254	0.618	correct	repeat	Run2	repeat/STIM_006.jpg
1482.365	0.482	correct	repeat	Run2	repeat/STIM_007.jpg
1484.888	0.581	incorrect	repeat	Run2	repeat/STIM_007.jpg
1488.569	0.437	correct	repeat	Run2	repeat/STIM_007.jpg
1492.994	0.45	correct	repeat	Run2	repeat/STIM_007.jpg
1496.044	0.635	correct	repeat	Run2	repeat/STIM_007.jpg
1499.275	0.569	correct	repeat	Run2	repeat/STIM_008.jpg
1501.859	0.49	correct	repeat	Run2	repeat/STIM_008.jpg
1505.017	0.556	correct	repeat	Run2	repeat/STIM_008.jpg
1507.726	0.603	correct	repeat	Run2	repeat/STIM_008.jpg
1511.491	0.698	correct	repeat	Run2	repeat/STIM_008.jpg
1515.517	0.424	correct	repeat	Run2	repeat/STIM_009.jpg
1518.482	0.592	correct	repeat	Run2	repeat/STIM_009.jpg
1521.249	0.774	correct	repeat	Run2	repeat/STIM_009.jpg
1524.978	0.548	correct	repeat	Run2	repeat/STIM_009.jpg
1529.333	0.413	incorrect	repeat	Run2	repeat/STIM_009.jpg
1532.046	0.443	correct	repeat	Run2	repeat/STIM_010.jpg
1535.908	0.771	correct	repeat	Run2	repeat/STIM_010.jpg
1539.358	0.747	correct	repeat	Run2	repeat/STIM_010.jpg
1544.1	0.587	correct	repeat	Run2	repeat/STIM_010.jpg
1547.291	0.647	correct	repeat	Run2	repeat/STIM_010.jpg
1551.34	0.677	correct	repeat	Run2	repeat/STIM_011.jpg
1554.13	0.671	correct	repeat	Run2	repeat/STIM_011.jpg
1558.15	0.584	incorrect	repeat	Run2	repeat/STIM_011.jpg
1562.637	0.436	correct	repeat	Run2	repeat/STIM_011.jpg
1566.49	0.755	correct	repeat	Run2	repeat/STIM_011.jpg
1570.239	0.557	correct	repeat	Run2	repeat/STIM_012.jpg
1573.457	0.625	correct	repeat	Run2	repeat/STIM_012.jpg
1577.54	0.77	correct	repeat	Run2	repeat/STIM_012.jpg
1580.753	0.726	incorrect	repeat	Run2	repeat/STIM_012.jpg
1583.709	0.592	correct	repeat	Run2	repeat/STIM_012.jpg
1588.128	0.66	correct	repeat	Run2	repeat/STIM_013.jpg
1592.335	0.682	correct	repeat	Run2	repeat/STIM_013.jpg
1596.811	0.5	correct	repeat	Run2	repeat/STIM_013.jpg
1601.228	0.396	correct	repeat	Run2	repeat/STIM_013.jpg
1604.435	0.393	correct	repeat	Run2	repeat/STIM_013.jpg
1608.651	0.679	correct	repeat	Run2	repeat/STIM_014.jpg
1611.854	0.665	correct	repeat	Run2	repeat/STIM_014.jpg
1614.616	0.617	correct	repeat	Run2	repeat/STIM_014.jpg
1617.292	0.729	correct	repeat	Run2	repeat/STIM_014.jpg
1621.035	0.631	correct	repeat	Run2	repeat/STIM_014.jpg
1625.61	0.804	correct	generate	Run3	generate/STIM_000.jpg
1628.768	1.029	correct	generate	Run3	generate/STIM_000.jpg
1631.802	1.155	correct	generate	Run3	generate/STIM_000.jpg
1636.81	0.856	correct	generate	Run3	generate/STIM_000.jpg
1640.901	1.3	correct	generate	Run3	generate/STIM_000.jpg
1645.9	1.194	incorrect	generate	Run3	generate/STIM_001.jpg
1650.739	1.155	incorrect	generate	Run3	generate/STIM_001.jpg
1654.849	1.596	correct	generate	Run3	generate/STIM_001.jpg
1658.875	0.712	incorrect	generate	Run3	generate/STIM_001.jpg
1662.571	0.701	correct	generate	Run3	generate/STIM_001.jpg
1665.425	1.181	correct	generate	Run3	generate/STIM_002.jpg
1670.593	1.31	correct	generate	Run3	generate/STIM_002.jpg
1674.488	0.84	correct	generate	Run3	generate/STIM_002.jpg
1678.613	1.383	correct	generate	Run3	generate/STIM_002.jpg
1683.435	0.91	correct	generate	Run3	generate/STIM_002.jpg
1686.601	1.363	incorrect	generate	Run3	generate/STIM_003.jpg
1690.878	1.394	correct	generate	Run3	generate/STIM_003.jpg
1694.49	0.773	correct	generate	Run3	generate/STIM_003.jpg
1698.053	1.262	correct	generate	Run3	generate/STIM_003.jpg
1702.067	1.018	correct	generate	Run3	generate/STIM_003.jpg
1705.983	0.96	correct	generate	Run3	generate/STIM_004.jpg
1710.65	1.467	correct	generate	Run3	generate/STIM_004.jpg
1714.822	1.599	correct	generate	Run3	generate/STIM_004.jpg
1720.027	0.922	correct	generate	Run3	generate/STIM_004.jpg
1724.596	1.561	correct	generate	Run3	generate/STIM_004.jpg
1728.732	1.46	correct	generate	Run3	generate/STIM_005.jpg
1732.999	1.499	correct	generate	Run3	generate/STIM_005.jpg
1737.515	0.809	correct	generate	Run3	generate/STIM_005.jpg
1742.158	1.493	correct	generate	Run3	generate/STIM_005.jpg
1746.436	0.726	correct	generate	Run3	generate/STIM_005.jpg
1749.379	1.513	correct	generate	Run3	generate/STIM_006.jpg
1752.946	1.43	correct	generate	Run3	generate/STIM_006.jpg
1757.302	0.942	correct	generate	Run3	generate/STIM_006.jpg
1760.952	0.952	correct	generate	Run3	generate/STIM_006.jpg
1764.564	1.126	correct	generate	Run3	generate/STIM_006.jpg
1767.82	1.501	incorrect	generate	Run3	generate/STIM_007.jpg
1773.296	0.735	correct	generate	Run3	generate/STIM_007.jpg
1776.347	0.822	correct	generate	Run3	generate/STIM_007.jpg
1780.895	1.613	incorrect	generate	Run3	generate/STIM_007.jpg
1785.275	1.241	correct	generate	Run3	generate/STIM_007.jpg
1789.021	0.874	correct	generate	Run3	generate/STIM_008.jpg
1792.202	0.818	correct	generate	Run3	generate/STIM_008.jpg
1796.979	0.726	correct	generate	Run3	generate/STIM_008.jpg
1800.755	0.722	correct	generate	Run3	generate/STIM_008.jpg
1803.632	1.258	correct	generate	Run3	generate/STIM_008.jpg
1808.206	1.436	incorrect	generate	Run3	generate/STIM_009.jpg
1811.867	1.343	correct	generate	Run3	generate/STIM_009.jpg
1816.895	0.997	correct	generate	Run3	generate/STIM_009.jpg
1820.718	0.657	correct	generate	Run3	generate/STIM_009.jpg
1824.159	1.002	correct	generate	Run3	generate/STIM_009.jpg
1828.626	1.021	correct	generate	Run3	generate/STIM_010.jpg
1831.953	0.782	correct	generate	Run3	generate/STIM_010.jpg
1835.579	1.304	correct	generate	Run3	generate/STIM_010.jpg
1840.86	1.445	correct	generate	Run3	generate/STIM_010.jpg
1845.876	1.408	correct	generate	Run3	generate/STIM_010.jpg
1850.143	0.983	correct	generate	Run3	generate/STIM_011.jpg
1854.213	1.463	correct	generate	Run3	generate/STIM_011.jpg
1859.255	1.533	correct	generate	Run3	generate/STIM_011.jpg
1864.502	0.911	correct	generate	Run3	generate/STIM_011.jpg
1867.874	0.782	correct	generate	Run3	generate/STIM_011.jpg
1872.083	0.765	incorrect	generate	Run3	generate/STIM_012.jpg
1876.429	1.521	correct	generate	Run3	generate/STIM_012.jpg
1881.086	1.2	correct	generate	Run3	generate/STIM_012.jpg
1884.391	0.662	correct	generate	Run3	generate/STIM_012.jpg
1887.078	1.364	correct	generate	Run3	generate/STIM_012.jpg
1890.717	1.379	correct	generate	Run3	generate/STIM_013.jpg
1894.5	1.502	incorrect	generate	Run3	generate/STIM_013.jpg
1899.564	0.804	incorrect	generate	Run3	generate/STIM_013.jpg
1903.577	1.105	correct	generate	Run3	generate/STIM_013.jpg
1908.096	1.128	correct	generate	Run3	generate/STIM_013.jpg
1912.248	0.722	correct	generate	Run3	generate/STIM_014.jpg
1916.108	1.079	correct	generate	Run3	generate/STIM_014.jpg
1919.4	1.082	correct	generate	Run3	generate/STIM_014.jpg
1922.914	1.057	correct	generate	Run3	generate/STIM_014.jpg
1927.267	0.677	correct	generate	Run3	generate/STIM_014.jpg
1930.355	1.03	correct	generate	Run3	generate/STIM_015.jpg
1933.767	1.519	incorrect	generate	Run3	generate/STIM_015.jpg
1938.525	0.786	correct	generate	Run3	generate/STIM_015.jpg
1941.467	1.38	incorrect	generate	Run3	generate/STIM_015.jpg
1946.549	1.623	correct	generate	Run3	generate/STIM_015.jpg
1951.882	1.046	incorrect	generate	Run3	generate/STIM_016.jpg
1956.635	0.654	correct	generate	Run3	generate/STIM_016.jpg
1959.513	1.0	correct	generate	Run3	generate/STIM_016.jpg
1963.613	0.968	correct	generate	Run3	generate/STIM_016.jpg
1967.772	1.551	correct	generate	Run3	generate/STIM_016.jpg
1972.022	0.72	correct	generate	Run3	generate/STIM_017.jpg
1975.552	0.904	incorrect	generate	Run3	generate/STIM_017.jpg
1978.537	1.436	correct	generate	Run3	generate/STIM_017.jpg
1983.028	1.482	correct	generate	Run3	generate/STIM_017.jpg
1988.337	1.562	correct	generate	Run3	generate/STIM_017.jpg
1992.383	1.068	correct	generate	Run3	generate/STIM_018.jpg
1996.738	0.784	incorrect	generate	Run3	generate/STIM_018.jpg
1999.686	1.063	correct	generate	Run3	generate/STIM_018.jpg
2003.316	1.223	correct	generate	Run3	generate/STIM_018.jpg
2007.504	1.001	correct	generate	Run3	generate/STIM_018.jpg
2011.372	1.612	incorrect	generate	Run3	generate/STIM_019.jpg
2016.147	0.722	correct	generate	Run3	generate/STIM_019.jpg
2020.036	1.061	correct	generate	Run3	generate/STIM_019.jpg
2023.223	1.064	correct	generate	Run3	generate/STIM_019.jpg
2027.89	1.253	correct	generate	Run3	generate/STIM_019.jpg
2032.587	1.319	correct	generate	Run3	generate/STIM_020.jpg
2037.057	1.548	correct	generate	Run3	generate/STIM_020.jpg
2040.688	1.354	incorrect	generate	Run3	generate/STIM_020.jpg
2045.286	1.362	incorrect	generate	Run3	generate/STIM_020.jpg
2049.271	1.332	correct	generate	Run3	generate/STIM_020.jpg
2053.058	1.187	correct	generate	Run3	generate/STIM_021.jpg
2056.33	1.074	incorrect	generate	Run3	generate/STIM_021.jpg
2059.546	0.774	correct	generate	Run3	generate/STIM_021.jpg
2063.568	1.43	correct	generate	Run3	generate/STIM_021.jpg
2068.038	1.007	incorrect	generate	Run3	generate/STIM_021.jpg
2072.266	1.249	correct	generate	Run3	generate/STIM_022.jpg
2075.777	1.494	correct	generate	Run3	generate/STIM_022.jpg
2081.204	1.129	correct	generate	Run3	generate/STIM_022.jpg
2086.105	1.464	correct	generate	Run3	generate/STIM_022.jpg
2090.609	0.968	correct	generate	Run3	generate/STIM_022.jpg
2093.71	1.606	correct	generate	Run3	generate/STIM_023.jpg
2099.136	1.175	correct	generate	Run3	generate/STIM_023.jpg
2104.063	1.112	correct	generate	Run3	generate/STIM_023.jpg
2107.863	1.58	correct	generate	Run3	generate/STIM_023.jpg
2112.236	0.932	incorrect	generate	Run3	generate/STIM_023.jpg
2116.468	0.804	correct	generate	Run3	generate/STIM_024.jpg
2121.158	0.734	correct	generate	Run3	generate/STIM_024.jpg
2125.662	1.363	incorrect	generate	Run3	generate/STIM_024.jpg
2130.315	0.838	correct	generate	Run3	generate/STIM_024.jpg
2133.753	1.086	incorrect	generate	Run3	generate/STIM_024.jpg
2137.485	0.397	correct	repeat	Run3	repeat/STIM_000.jpg
2139.942	0.462	correct	repeat	Run3	repeat/STIM_000.jpg
2142.884	0.726	correct	repeat	Run3	repeat/STIM_000.jpg
2147.222	0.635	correct	repeat	Run3	repeat/STIM_000.jpg
2150.647	0.471	correct	repeat	Run3	repeat/STIM_000.jpg
2154.137	0.672	incorrect	repeat	Run3	repeat/STIM_001.jpg
2157.978	0.556	correct	repeat	Run3	repeat/STIM_001.jpg
2161.859	0.635	correct	repeat	Run3	repeat/STIM_001.jpg
2165.139	0.45	correct	repeat	Run3	repeat/STIM_001.jpg
2169.574	0.528	correct	repeat	Run3	repeat/STIM_001.jpg
2172.639	0.721	correct	repeat	Run3	repeat/STIM_002.jpg
2176.581	0.592	correct	repeat	Run3	repeat/STIM_002.jpg
2180.318	0.667	incorrect	repeat	Run3	repeat/STIM_002.jpg
2183.652	0.583	correct	repeat	Run3	repeat/STIM_002.jpg
2186.28	0.581	correct	repeat	Run3	repeat/STIM_002.jpg
2190.848	0.622	correct	repeat	Run3	repeat/STIM_003.jpg
2194.175	0.486	correct	repeat	Run3	repeat/STIM_003.jpg
2196.825	0.59	correct	repeat	Run3	repeat/STIM_003.jpg
2201.28	0.533	correct	repeat	Run3	repeat/STIM_003.jpg
2205.795	0.532	correct	repeat	Run3	repeat/STIM_003.jpg
2209.696	0.637	correct	repeat	Run3	repeat/STIM_004.jpg
2214.197	0.504	incorrect	repeat	Run3	repeat/STIM_004.jpg
2217.141	0.554	correct	repeat	Run3	repeat/STIM_004.jpg
2220.81	0.645	correct	repeat	Run3	repeat/STIM_004.jpg
2224.719	0.672	incorrect	repeat	Run3	repeat/STIM_004.jpg
2228.854	0.502	correct	repeat	Run3	repeat/STIM_005.jpg
2231.686	0.422	correct	repeat	Run3	repeat/STIM_005.jpg
2234.616	0.677	correct	repeat	Run3	repeat/STIM_005.jpg
2238.018	0.432	incorrect	repeat	Run3	repeat/STIM_005.jpg
2241.315	0.596	correct	repeat	Run3	repeat/STIM_005.jpg
2245.307	0.72	correct	repeat	Run3	repeat/STIM_006.jpg
2248.492	0.72	correct	repeat	Run3	repeat/STIM_006.jpg
2251.595	0.464	incorrect	repeat	Run3	repeat/STIM_006.jpg
2254.173	0.539	correct	repeat	Run3	repeat/STIM_006.jpg
2256.911	0.515	correct	repeat	Run3	repeat/STIM_006.jpg
2260.181	0.574	correct	repeat	Run3	repeat/STIM_007.jpg
2264.117	0.755	correct	repeat	Run3	repeat/STIM_007.jpg
2267.445	0.747	correct	repeat	Run3	repeat/STIM_007.jpg
2271.543	0.53	correct	repeat	Run3	repeat/STIM_007.jpg
2274.207	0.761	correct	repeat	Run3	repeat/STIM_007.jpg
2277.038	0.416	correct	repeat	Run3	repeat/STIM_008.jpg
2280.939	0.53	correct	repeat	Run3	repeat/STIM_008.jpg
2284.362	0.681	incorrect	repeat	Run3	repeat/STIM_008.jpg
2287.702	0.632	correct	repeat	Run3	repeat/STIM_008.jpg
2291.084	0.469	correct	repeat	Run3	repeat/STIM_008.jpg
2295.296	0.687	correct	repeat	Run3	repeat/STIM_009.jpg
2298.71	0.405	correct	repeat	Run3	repeat/STIM_009.jpg
2301.872	0.407	incorrect	repeat	Run3	repeat/STIM_009.jpg
2305.708	0.763	correct	repeat	Run3	repeat/STIM_009.jpg
2308.817	0.75	correct	repeat	Run3	repeat/STIM_009.jpg
2312.797	0.649	incorrect	repeat	Run3	repeat/STIM_010.jpg
2317.416	0.519	correct	repeat	Run3	repeat/STIM_010.jpg
2320.358	0.581	correct	repeat	Run3	repeat/STIM_010.jpg
2324.783	0.569	incorrect	repeat	Run3	repeat/STIM_010.jpg
2328.488	0.7	correct	repeat	Run3	repeat/STIM_010.jpg
2331.284	0.513	incorrect	repeat	Run3	repeat/STIM_011.jpg
2334.431	0.502	correct	repeat	Run3	repeat/STIM_011.jpg
2338.58	0.706	correct	repeat	Run3	repeat/STIM_011.jpg
2341.812	0.572	correct	repeat	Run3	repeat/STIM_011.jpg
2346.096	0.52	correct	repeat	Run3	repeat/STIM_011.jpg
2349.436	0.482	incorrect	repeat	Run3	repeat/STIM_012.jpg
2351.935	0.574	correct	repeat	Run3	repeat/STIM_012.jpg
2354.818	0.581	incorrect	repeat	Run3	repeat/STIM_012.jpg
2359.254	0.497	correct	repeat	Run3	repeat/STIM_012.jpg
2363.704	0.468	correct	repeat	Run3	repeat/STIM_012.jpg
2366.691	0.442	correct	repeat	Run3	repeat/STIM_013.jpg
2370.093	0.579	correct	repeat	Run3	repeat/STIM_013.jpg
2373.8	0.561	correct	repeat	Run3	repeat/STIM_013.jpg
2376.844	0.445	correct	repeat	Run3	repeat/STIM_013.jpg
2380.159	0.766	correct	repeat	Run3	repeat/STIM_013.jpg
2384.513	0.619	incorrect	repeat	Run3	repeat/STIM_014.jpg
2387.418	0.486	correct	repeat	Run3	repeat/STIM_014.jpg
2391.401	0.698	correct	repeat	Run3	repeat/STIM_014.jpg
2395.417	0.405	correct	repeat	Run3	repeat/STIM_014.jpg
2399.68	0.692	correct	repeat	Run3	repeat/STIM_014.jpg
2402.761	1.482	correct	generate	Run4	generate/STIM_000.jpg
2407.422	1.404	correct	generate	Run4	generate/STIM_000.jpg
2411.185	1.628	correct	generate	Run4	generate/STIM_000.jpg
2416.427	1.58	correct	generate	Run4	generate/STIM_000.jpg
2421.067	1.007	correct	generate	Run4	generate/STIM_000.jpg
2425.643	1.376	incorrect	generate	Run4	generate/STIM_001.jpg
2429.887	1.017	correct	generate	Run4	generate/STIM_001.jpg
2433.571	1.137	correct	generate	Run4	generate/STIM_001.jpg
2437.7	1.196	correct	generate	Run4	generate/STIM_001.jpg
2441.855	1.179	correct	generate	Run4	generate/STIM_001.jpg
2446.931	0.948	correct	generate	Run4	generate/STIM_002.jpg
2450.33	0.781	correct	generate	Run4	generate/STIM_002.jpg
2453.195	1.614	correct	generate	Run4	generate/STIM_002.jpg
2457.275	1.308	correct	generate	Run4	generate/STIM_002.jpg
2460.886	1.595	correct	generate	Run4	generate/STIM_002.jpg
2465.621	1.265	correct	generate	Run4	generate/STIM_003.jpg
2470.026	1.434	correct	generate	Run4	generate/STIM_003.jpg
2475.107	1.13	correct	generate	Run4	generate/STIM_003.jpg
2479.706	0.983	correct	generate	Run4	generate/STIM_003.jpg
2483.651	1.425	correct	generate	Run4	generate/STIM_003.jpg
2488.031	0.711	correct	generate	Run4	generate/STIM_004.jpg
2492.303	1.125	correct	generate	Run4	generate/STIM_004.jpg
2495.506	0.998	correct	generate	Run4	generate/STIM_004.jpg
2499.109	1.513	correct	generate	Run4	generate/STIM_004.jpg
2503.445	0.791	correct	generate	Run4	generate/STIM_004.jpg
2507.569	1.495	incorrect	generate	Run4	generate/STIM_005.jpg
2511.856	1.243	correct	generate	Run4	generate/STIM_005.jpg
2516.971	1.571	correct	generate	Run4	generate/STIM_005.jpg
2521.192	1.587	correct	generate	Run4	generate/STIM_005.jpg
2525.732	0.71	correct	generate	Run4	generate/STIM_005.jpg
2530.093	1.62	correct	generate	Run4	generate/STIM_006.jpg
2533.801	1.376	incorrect	generate	Run4	generate/STIM_006.jpg
2538.534	0.969	correct	generate	Run4	generate/STIM_006.jpg
2542.159	1.194	correct	generate	Run4	generate/STIM_006.jpg
2547.155	0.965	correct	generate	Run4	generate/STIM_006.jpg
2551.193	1.625	correct	generate	Run4	generate/STIM_007.jpg
2556.572	1.14	correct	generate	Run4	generate/STIM_007.jpg
2561.31	1.331	incorrect	generate	Run4	generate/STIM_007.jpg
2565.661	1.16	correct	generate	Run4	generate/STIM_007.jpg
2570.46	0.821	correct	generate	Run4	generate/STIM_007.jpg
2574.394	1.016	correct	generate	Run4	generate/STIM_008.jpg
2579.306	0.816	correct	generate	Run4	generate/STIM_008.jpg
2582.596	0.831	correct	generate	Run4	generate/STIM_008.jpg
2585.782	1.563	correct	generate	Run4	generate/STIM_008.jpg
2590.045	1.176	correct	generate	Run4	generate/STIM_008.jpg
2593.327	1.578	correct	generate	Run4	generate/STIM_009.jpg
2597.804	1.037	correct	generate	Run4	generate/STIM_009.jpg
2601.033	1.505	incorrect	generate	Run4	generate/STIM_009.jpg
2605.31	1.103	correct	generate	Run4	generate/STIM_009.jpg
2609.052	1.335	correct	generate	Run4	generate/STIM_009.jpg
2612.571	0.722	correct	generate	Run4	generate/STIM_010.jpg
2615.628	1.204	correct	generate	Run4	generate/STIM_010.jpg
2619.034	1.23	correct	generate	Run4	generate/STIM_010.jpg
2622.761	1.627	correct	generate	Run4	generate/STIM_010.jpg
2628.183	0.732	correct	generate	Run4	generate/STIM_010.jpg
2631.394	1.155	correct	generate	Run4	generate/STIM_011.jpg
2636.38	1.236	correct	generate	Run4	generate/STIM_011.jpg
2641.426	1.117	incorrect	generate	Run4	generate/STIM_011.jpg
2645.36	1.019	correct	generate	Run4	generate/STIM_011.jpg
2649.916	0.921	correct	generate	Run4	generate/STIM_011.jpg
2652.91	1.023	correct	generate	Run4	generate/STIM_012.jpg
2657.69	1.038	correct	generate	Run4	generate/STIM_012.jpg
2661.307	1.056	correct	generate	Run4	generate/STIM_012.jpg
2664.745	0.68	correct	generate	Run4	generate/STIM_012.jpg
2668.452	1.378	correct	generate	Run4	generate/STIM_012.jpg
2673.41	1.016	correct	generate	Run4	generate/STIM_013.jpg
2678.353	1.244	correct	generate	Run4	generate/STIM_013.jpg
2683.019	1.052	correct	generate	Run4	generate/STIM_013.jpg
2686.074	0.927	correct	generate	Run4	generate/STIM_013.jpg
2689.096	1.305	correct	generate	Run4	generate/STIM_013.jpg
2694.401	0.791	correct	generate	Run4	generate/STIM_014.jpg
2698.919	1.433	correct	generate	Run4	generate/STIM_014.jpg
2703.693	1.11	correct	generate	Run4	generate/STIM_014.jpg
2707.342	1.409	correct	generate	Run4	generate/STIM_014.jpg
2711.773	1.5	correct	generate	Run4	generate/STIM_014.jpg
2715.373	1.439	correct	generate	Run4	generate/STIM_015.jpg
2720.082	0.665	correct	generate	Run4	generate/STIM_015.jpg
2722.827	1.263	incorrect	generate	Run4	generate/STIM_015.jpg
2727.015	1.456	correct	generate	Run4	generate/STIM_015.jpg
2732.433	1.39	correct	generate	Run4	generate/STIM_015.jpg
2736.624	0.929	correct	generate	Run4	generate/STIM_016.jpg
2741.041	1.007	correct	generate	Run4	generate/STIM_016.jpg
2744.911	1.454	correct	generate	Run4	generate/STIM_016.jpg
2749.741	1.558	correct	generate	Run4	generate/STIM_016.jpg
2754.53	1.438	correct	generate	Run4	generate/STIM_016.jpg
2759.337	0.942	correct	generate	Run4	generate/STIM_017.jpg
2763.757	0.754	correct	generate	Run4	generate/STIM_017.jpg
2767.883	1.544	correct	generate	Run4	generate/STIM_017.jpg
2772.429	1.466	correct	generate	Run4	generate/STIM_017.jpg
2777.281	1.208	correct	generate	Run4	generate/STIM_017.jpg
2781.839	1.327	correct	generate	Run4	generate/STIM_018.jpg
2785.387	1.12	correct	generate	Run4	generate/STIM_018.jpg
2788.968	0.652	correct	generate	Run4	generate/STIM_018.jpg
2792.999	0.983	correct	generate	Run4	generate/STIM_018.jpg
2796.899	1.323	correct	generate	Run4	generate/STIM_018.jpg
2800.642	1.102	incorrect	generate	Run4	generate/STIM_019.jpg
2805.425	0.748	correct	generate	Run4	generate/STIM_019.jpg
2810.124	0.807	correct	generate	Run4	generate/STIM_019.jpg
2813.715	1.564	correct	generate	Run4	generate/STIM_019.jpg
2817.736	1.62	correct	generate	Run4	generate/STIM_019.jpg
2821.976	1.537	correct	generate	Run4	generate/STIM_020.jpg
2826.975	1.596	correct	generate	Run4	generate/STIM_020.jpg
2831.609	0.749	correct	generate	Run4	generate/STIM_020.jpg
2835.142	1.29	correct	generate	Run4	generate/STIM_020.jpg
2840.33	1.153	incorrect	generate	Run4	generate/STIM_020.jpg
2843.951	1.228	correct	generate	Run4	generate/STIM_021.jpg
2847.599	1.625	correct	generate	Run4	generate/STIM_021.jpg
2852.381	0.698	correct	generate	Run4	generate/STIM_021.jpg
2856.575	1.284	correct	generate	Run4	generate/STIM_021.jpg
2861.339	1.281	correct	generate	Run4	generate/STIM_021.jpg
2865.666	0.944	correct	generate	Run4	generate/STIM_022.jpg
2868.637	0.877	correct	generate	Run4	generate/STIM_022.jpg
2872.546	1.39	correct	generate	Run4	generate/STIM_022.jpg
2876.297	0.985	correct	generate	Run4	generate/STIM_022.jpg
2879.905	0.696	correct	generate	Run4	generate/STIM_022.jpg
2884.068	1.585	correct	generate	Run4	generate/STIM_023.jpg
2887.939	0.927	correct	generate	Run4	generate/STIM_023.jpg
2891.071	0.916	correct	generate	Run4	generate/STIM_023.jpg
2895.653	0.895	correct	generate	Run4	generate/STIM_023.jpg
2898.589	1.315	correct	generate	Run4	generate/STIM_023.jpg
2902.979	0.876	correct	generate	Run4	generate/STIM_024.jpg
2907.45	1.301	incorrect	generate	Run4	generate/STIM_024.jpg
2912.236	0.78	incorrect	generate	Run4	generate/STIM_024.jpg
2915.281	0.704	correct	generate	Run4	generate/STIM_024.jpg
2919.64	1.018	correct	generate	Run4	generate/STIM_024.jpg
2923.738	0.473	correct	repeat	Run4	repeat/STIM_000.jpg
2927.475	0.565	correct	repeat	Run4	repeat/STIM_000.jpg
2930.374	0.68	correct	repeat	Run4	repeat/STIM_000.jpg
2934.097	0.659	correct	repeat	Run4	repeat/STIM_000.jpg
2936.8	0.741	correct	repeat	Run4	repeat/STIM_000.jpg
2939.77	0.753	correct	repeat	Run4	repeat/STIM_001.jpg
2943.701	0.528	correct	repeat	Run4	repeat/STIM_001.jpg
2948.094	0.477	correct	repeat	Run4	repeat/STIM_001.jpg
2951.095	0.401	correct	repeat	Run4	repeat/STIM_001.jpg
2953.984	0.485	correct	repeat	Run4	repeat/STIM_001.jpg
2957.018	0.432	correct	repeat	Run4	repeat/STIM_002.jpg
2960.661	0.592	correct	repeat	Run4	repeat/STIM_002.jpg
2964.848	0.522	correct	repeat	Run4	repeat/STIM_002.jpg
2969.317	0.517	correct	repeat	Run4	repeat/STIM_002.jpg
2973.045	0.686	correct	repeat	Run4	repeat/STIM_002.jpg
2975.739	0.53	correct	repeat	Run4	repeat/STIM_003.jpg
2980.115	0.546	correct	repeat	Run4	repeat/STIM_003.jpg
2984.596	0.71	correct	repeat	Run4	repeat/STIM_003.jpg
2989.162	0.625	correct	repeat	Run4	repeat/STIM_003.jpg
2992.498	0.441	correct	repeat	Run4	repeat/STIM_003.jpg
2995.897	0.695	correct	repeat	Run4	repeat/STIM_004.jpg
3000.304	0.769	correct	repeat	Run4	repeat/STIM_004.jpg
3004.899	0.554	correct	repeat	Run4	repeat/STIM_004.jpg
3008.354	0.469	correct	repeat	Run4	repeat/STIM_004.jpg
3012.467	0.473	correct	repeat	Run4	repeat/STIM_004.jpg
3016.454	0.388	correct	repeat	Run4	repeat/STIM_005.jpg
3020.07	0.617	correct	repeat	Run4	repeat/STIM_005.jpg
3023.568	0.489	correct	repeat	Run4	repeat/STIM_005.jpg
3027.72	0.473	correct	repeat	Run4	repeat/STIM_005.jpg
3031.628	0.606	correct	repeat	Run4	repeat/STIM_005.jpg
3034.504	0.627	correct	repeat	Run4	repeat/STIM_006.jpg
3038.786	0.53	correct	repeat	Run4	repeat/STIM_006.jpg
3041.936	0.553	correct	repeat	Run4	repeat/STIM_006.jpg
3044.562	0.397	correct	repeat	Run4	repeat/STIM_006.jpg
3048.625	0.594	correct	repeat	Run4	repeat/STIM_006.jpg
3052.396	0.669	correct	repeat	Run4	repeat/STIM_007.jpg
3055.187	0.454	correct	repeat	Run4	repeat/STIM_007.jpg
3057.901	0.54	correct	repeat	Run4	repeat/STIM_007.jpg
3060.958	0.732	correct	repeat	Run4	repeat/STIM_007.jpg
3064.118	0.508	correct	repeat	Run4	repeat/STIM_007.jpg
3067.177	0.625	correct	repeat	Run4	repeat/STIM_008.jpg
3071.248	0.391	correct	repeat	Run4	repeat/STIM_008.jpg
3073.692	0.606	correct	repeat	Run4	repeat/STIM_008.jpg
3077.887	0.563	correct	repeat	Run4	repeat/STIM_008.jpg
3080.565	0.538	correct	repeat	Run4	repeat/STIM_008.jpg
3084.169	0.477	correct	repeat	Run4	repeat/STIM_009.jpg
3087.583	0.497	correct	repeat	Run4	repeat/STIM_009.jpg
3091.24	0.753	correct	repeat	Run4	repeat/STIM_009.jpg
3095.095	0.668	incorrect	repeat	Run4	repeat/STIM_009.jpg
3099.668	0.553	correct	repeat	Run4	repeat/STIM_009.jpg
3103.169	0.568	correct	repeat	Run4	repeat/STIM_010.jpg
3107.35	0.65	correct	repeat	Run4	repeat/STIM_010.jpg
3111.836	0.418	correct	repeat	Run4	repeat/STIM_010.jpg
3115.183	0.575	correct	repeat	Run4	repeat/STIM_010.jpg
3119.223	0.686	correct	repeat	Run4	repeat/STIM_010.jpg
3122.716	0.766	correct	repeat	Run4	repeat/STIM_011.jpg
3126.663	0.45	correct	repeat	Run4	repeat/STIM_011.jpg
3130.951	0.766	correct	repeat	Run4	repeat/STIM_011.jpg
3133.858	0.725	correct	repeat	Run4	repeat/STIM_011.jpg
3136.974	0.431	correct	repeat	Run4	repeat/STIM_011.jpg
3141.258	0.395	correct	repeat	Run4	repeat/STIM_012.jpg
3145.068	0.739	correct	repeat	Run4	repeat/STIM_012.jpg
3149.296	0.46	correct	repeat	Run4	repeat/STIM_012.jpg
3152.818	0.584	incorrect	repeat	Run4	repeat/STIM_012.jpg
3155.605	0.684	correct	repeat	Run4	repeat/STIM_012.jpg
3159.473	0.702	correct	repeat	Run4	repeat/STIM_013.jpg
3162.884	0.674	incorrect	repeat	Run4	repeat/STIM_013.jpg
3167.043	0.405	incorrect	repeat	Run4	repeat/STIM_013.jpg
3171.048	0.56	correct	repeat	Run4	repeat/STIM_013.jpg
3174.898	0.577	correct	repeat	Run4	repeat/STIM_013.jpg
3179.163	0.774	correct	repeat	Run4	repeat/STIM_014.jpg
3183.423	0.74	correct	repeat	Run4	repeat/STIM_014.jpg
3186.382	0.77	correct	repeat	Run4	repeat/STIM_014.jpg
3190.882	0.459	correct	repeat	Run4	repeat/STIM_014.jpg
3193.688	0.515	correct	repeat	Run4	repeat/STIM_014.jpg
