onset	duration	accuracy_binary	trial_type	learning_stage	stimulus
0.0	1.263	1	study	Phase1	study/STIM_000.jpg
4.194	1.017	0	study	Phase1	study/STIM_000.jpg
8.718	1.563	1	study	Phase1	study/STIM_000.jpg
12.421	1.189	1	study	Phase1	study/STIM_001.jpg
16.306	1.565	1	study	Phase1	study/STIM_001.jpg
19.781	1.194	1	study	Phase1	study/STIM_001.jpg
23.241	1.605	1	study	Phase1	study/STIM_002.jpg
28.454	1.793	1	study	Phase1	study/STIM_002.jpg
32.525	1.214	1	study	Phase1	study/STIM_002.jpg
36.96	1.81	1	study	Phase1	study/STIM_003.jpg
42.235	1.266	1	study	Phase1	study/STIM_003.jpg
46.848	1.163	1	study	Phase1	study/STIM_003.jpg
50.434	0.981	1	study	Phase1	study/STIM_004.jpg
53.627	1.891	1	study	Phase1	study/STIM_004.jpg
58.914	1.462	1	study	Phase1	study/STIM_004.jpg
63.96	1.213	0	study	Phase1	study/STIM_005.jpg
68.288	1.281	1	study	Phase1	study/STIM_005.jpg
72.099	1.367	1	study	Phase1	study/STIM_005.jpg
75.73	1.931	1	study	Phase1	study/STIM_006.jpg
81.111	1.434	1	study	Phase1	study/STIM_006.jpg
84.432	1.621	1	study	Phase1	study/STIM_006.jpg
89.668	1.995	1	study	Phase1	study/STIM_007.jpg
93.881	1.655	1	study	Phase1	study/STIM_007.jpg
99.099	0.904	1	study	Phase1	study/STIM_007.jpg
103.87	1.64	1	study	Phase1	study/STIM_008.jpg
107.992	1.561	1	study	Phase1	study/STIM_008.jpg
112.601	1.485	1	study	Phase1	study/STIM_008.jpg
116.794	1.198	1	study	Phase1	study/STIM_009.jpg
120.322	1.578	1	study	Phase1	study/STIM_009.jpg
124.991	1.55	1	study	Phase1	study/STIM_009.jpg
128.503	1.036	1	study	Phase1	study/STIM_010.jpg
133.133	0.894	0	study	Phase1	study/STIM_010.jpg
136.618	1.281	1	study	Phase1	study/STIM_010.jpg
140.433	1.408	1	study	Phase1	study/STIM_011.jpg
143.861	1.12	1	study	Phase1	study/STIM_011.jpg
148.13	1.229	1	study	Phase1	study/STIM_011.jpg
151.583	1.22	1	study	Phase1	study/STIM_012.jpg
156.609	0.899	1	study	Phase1	study/STIM_012.jpg
160.571	1.366	1	study	Phase1	study/STIM_012.jpg
163.937	0.991	1	study	Phase1	study/STIM_013.jpg
167.509	1.816	1	study	Phase1	study/STIM_013.jpg
171.427	1.517	1	study	Phase1	study/STIM_013.jpg
175.841	1.667	1	study	Phase1	study/STIM_014.jpg
180.923	1.561	0	study	Phase1	study/STIM_014.jpg
186.218	1.098	1	study	Phase1	study/STIM_014.jpg
189.748	1.133	0	study	Phase1	study/STIM_015.jpg
194.033	1.474	1	study	Phase1	study/STIM_015.jpg
198.815	1.126	1	study	Phase1	study/STIM_015.jpg
202.939	1.272	1	study	Phase1	study/STIM_016.jpg
206.271	1.725	1	study	Phase1	study/STIM_016.jpg
211.12	0.905	1	study	Phase1	study/STIM_016.jpg
215.391	1.758	1	study	Phase1	study/STIM_017.jpg
218.971	1.599	1	study	Phase1	study/STIM_017.jpg
222.916	0.814	1	study	Phase1	study/STIM_017.jpg
227.35	1.956	1	study	Phase1	study/STIM_018.jpg
232.137	0.936	1	study	Phase1	study/STIM_018.jpg
235.738	1.41	1	study	Phase1	study/STIM_018.jpg
239.485	0.996	1	study	Phase1	study/STIM_019.jpg
242.573	1.033	1	study	Phase1	study/STIM_019.jpg
246.389	1.334	1	study	Phase1	study/STIM_019.jpg
251.579	1.539	1	study	Phase1	study/STIM_020.jpg
255.616	1.169	1	study	Phase1	study/STIM_020.jpg
260.011	1.485	1	study	Phase1	study/STIM_020.jpg
263.611	1.594	0	study	Phase1	study/STIM_021.jpg
268.201	1.579	1	study	Phase1	study/STIM_021.jpg
273.127	1.676	1	study	Phase1	study/STIM_021.jpg
278.093	1.58	1	study	Phase1	study/STIM_022.jpg
281.563	1.147	0	study	Phase1	study/STIM_022.jpg
285.828	1.653	1	study	Phase1	study/STIM_022.jpg
289.564	1.963	0	study	Phase1	study/STIM_023.jpg
294.284	1.465	1	study	Phase1	study/STIM_023.jpg
297.773	0.859	1	study	Phase1	study/STIM_023.jpg
301.715	1.496	1	study	Phase1	study/STIM_024.jpg
306.335	1.713	1	study	Phase1	study/STIM_024.jpg
310.87	1.492	0	study	Phase1	study/STIM_024.jpg
314.826	1.574	1	study	Phase1	study/STIM_025.jpg
319.86	1.463	0	study	Phase1	study/STIM_025.jpg
323.903	1.444	0	study	Phase1	study/STIM_025.jpg
327.58	1.672	1	study	Phase1	study/STIM_026.jpg
331.799	1.81	1	study	Phase1	study/STIM_026.jpg
336.056	0.858	1	study	Phase1	study/STIM_026.jpg
340.232	1.259	1	study	Phase1	study/STIM_027.jpg
344.155	1.646	1	study	Phase1	study/STIM_027.jpg
348.458	1.738	1	study	Phase1	study/STIM_027.jpg
352.26	1.541	1	study	Phase1	study/STIM_028.jpg
356.4	0.912	1	study	Phase1	study/STIM_028.jpg
360.231	0.964	1	study	Phase1	study/STIM_028.jpg
365.092	1.393	1	study	Phase1	study/STIM_029.jpg
369.146	0.968	1	study	Phase1	study/STIM_029.jpg
372.845	1.189	1	study	Phase1	study/STIM_029.jpg
376.797	1.173	1	test	Phase1	test/STIM_000.jpg
381.478	1.401	1	test	Phase1	test/STIM_000.jpg
386.646	0.786	1	test	Phase1	test/STIM_000.jpg
390.555	1.121	1	test	Phase1	test/STIM_001.jpg
394.239	0.767	1	test	Phase1	test/STIM_001.jpg
397.253	1.24	1	test	Phase1	test/STIM_001.jpg
400.484	1.098	1	test	Phase1	test/STIM_002.jpg
405.215	1.118	1	test	Phase1	test/STIM_002.jpg
409.825	1.089	1	test	Phase1	test/STIM_002.jpg
413.934	1.375	1	test	Phase1	test/STIM_003.jpg
417.763	0.78	1	test	Phase1	test/STIM_003.jpg
421.329	1.132	0	test	Phase1	test/STIM_003.jpg
426.225	1.256	1	test	Phase1	test/STIM_004.jpg
431.01	0.73	1	test	Phase1	test/STIM_004.jpg
434.927	1.314	1	test	Phase1	test/STIM_004.jpg
438.661	1.401	1	test	Phase1	test/STIM_005.jpg
443.67	1.424	1	test	Phase1	test/STIM_005.jpg
448.393	0.699	1	test	Phase1	test/STIM_005.jpg
452.054	1.12	1	test	Phase1	test/STIM_006.jpg
456.405	1.043	1	test	Phase1	test/STIM_006.jpg
461.243	0.685	1	test	Phase1	test/STIM_006.jpg
464.031	1.302	1	test	Phase1	test/STIM_007.jpg
467.465	1.011	1	test	Phase1	test/STIM_007.jpg
471.135	0.71	1	test	Phase1	test/STIM_007.jpg
475.578	0.966	1	test	Phase1	test/STIM_008.jpg
479.331	0.706	1	test	Phase1	test/STIM_008.jpg
483.618	1.126	1	test	Phase1	test/STIM_008.jpg
488.229	1.1	1	test	Phase1	test/STIM_009.jpg
492.48	1.279	1	test	Phase1	test/STIM_009.jpg
496.458	1.414	1	test	Phase1	test/STIM_009.jpg
500.938	0.84	1	test	Phase1	test/STIM_010.jpg
504.836	0.812	0	test	Phase1	test/STIM_010.jpg
508.774	1.263	1	test	Phase1	test/STIM_010.jpg
512.362	1.187	1	test	Phase1	test/STIM_011.jpg
516.313	0.795	1	test	Phase1	test/STIM_011.jpg
519.431	0.969	1	test	Phase1	test/STIM_011.jpg
523.098	1.067	1	test	Phase1	test/STIM_012.jpg
526.822	1.322	1	test	Phase1	test/STIM_012.jpg
531.02	0.716	0	test	Phase1	test/STIM_012.jpg
534.811	1.109	1	test	Phase1	test/STIM_013.jpg
538.923	1.416	0	test	Phase1	test/STIM_013.jpg
542.391	0.702	1	test	Phase1	test/STIM_013.jpg
546.105	1.171	1	test	Phase1	test/STIM_014.jpg
551.049	1.324	1	test	Phase1	test/STIM_014.jpg
554.392	0.8	1	test	Phase1	test/STIM_014.jpg
557.358	1.072	1	test	Phase1	test/STIM_015.jpg
561.037	1.439	1	test	Phase1	test/STIM_015.jpg
566.228	0.779	1	test	Phase1	test/STIM_015.jpg
570.037	0.728	1	test	Phase1	test/STIM_016.jpg
574.032	1.168	1	test	Phase1	test/STIM_016.jpg
578.06	0.992	1	test	Phase1	test/STIM_016.jpg
581.622	0.806	1	test	Phase1	test/STIM_017.jpg
586.259	1.135	1	test	Phase1	test/STIM_017.jpg
589.909	0.974	1	test	Phase1	test/STIM_017.jpg
592.979	0.807	0	test	Phase1	test/STIM_018.jpg
597.059	1.094	1	test	Phase1	test/STIM_018.jpg
601.887	0.724	1	test	Phase1	test/STIM_018.jpg
605.237	1.278	1	test	Phase1	test/STIM_019.jpg
608.867	1.349	1	test	Phase1	test/STIM_019.jpg
612.528	0.979	1	test	Phase1	test/STIM_019.jpg
617.364	0.809	1	test	Phase1	test/STIM_020.jpg
620.759	1.237	0	test	Phase1	test/STIM_020.jpg
625.027	1.317	1	test	Phase1	test/STIM_020.jpg
629.943	0.714	1	test	Phase1	test/STIM_021.jpg
632.865	0.992	1	test	Phase1	test/STIM_021.jpg
636.561	1.073	1	test	Phase1	test/STIM_021.jpg
639.795	1.194	1	test	Phase1	test/STIM_022.jpg
643.134	0.792	0	test	Phase1	test/STIM_022.jpg
647.604	1.375	1	test	Phase1	test/STIM_022.jpg
651.256	0.945	1	test	Phase1	test/STIM_023.jpg
655.072	0.994	1	test	Phase1	test/STIM_023.jpg
659.153	1.116	1	test	Phase1	test/STIM_023.jpg
663.099	1.099	1	test	Phase1	test/STIM_024.jpg
666.507	1.246	0	test	Phase1	test/STIM_024.jpg
670.336	1.276	1	test	Phase1	test/STIM_024.jpg
674.005	1.209	1	test	Phase1	test/STIM_025.jpg
678.684	1.241	1	test	Phase1	test/STIM_025.jpg
682.774	0.772	1	test	Phase1	test/STIM_025.jpg
686.306	1.135	1	test	Phase1	test/STIM_026.jpg
689.902	0.673	1	test	Phase1	test/STIM_026.jpg
693.078	1.24	1	test	Phase1	test/STIM_026.jpg
697.361	1.401	1	test	Phase1	test/STIM_027.jpg
701.564	0.739	1	test	Phase1	test/STIM_027.jpg
705.329	0.985	1	test	Phase1	test/STIM_027.jpg
710.007	0.821	1	test	Phase1	test/STIM_028.jpg
714.468	1.118	1	test	Phase1	test/STIM_028.jpg
718.666	1.299	1	test	Phase1	test/STIM_028.jpg
723.333	1.379	1	test	Phase1	test/STIM_029.jpg
726.933	0.877	1	test	Phase1	test/STIM_029.jpg
730.215	0.907	1	test	Phase1	test/STIM_029.jpg
734.206	1.16	1	study	Phase2	study/STIM_000.jpg
737.411	0.79	1	study	Phase2	study/STIM_000.jpg
741.158	0.846	1	study	Phase2	study/STIM_000.jpg
744.719	1.525	1	study	Phase2	study/STIM_001.jpg
749.388	1.308	1	study	Phase2	study/STIM_001.jpg
754.428	0.685	1	study	Phase2	study/STIM_001.jpg
758.816	1.191	1	study	Phase2	study/STIM_002.jpg
763.211	1.317	1	study	Phase2	study/STIM_002.jpg
768.389	1.269	1	study	Phase2	study/STIM_002.jpg
773.288	0.804	1	study	Phase2	study/STIM_003.jpg
777.805	0.941	1	study	Phase2	study/STIM_003.jpg
780.926	1.385	1	study	Phase2	study/STIM_003.jpg
785.52	0.983	1	study	Phase2	study/STIM_004.jpg
789.923	0.991	0	study	Phase2	study/STIM_004.jpg
793.233	1.483	1	study	Phase2	study/STIM_004.jpg
798.434	1.044	1	study	Phase2	study/STIM_005.jpg
802.904	1.328	1	study	Phase2	study/STIM_005.jpg
806.884	0.777	1	study	Phase2	study/STIM_005.jpg
811.041	1.301	1	study	Phase2	study/STIM_006.jpg
815.219	0.99	1	study	Phase2	study/STIM_006.jpg
819.399	1.29	1	study	Phase2	study/STIM_006.jpg
823.368	1.012	0	study	Phase2	study/STIM_007.jpg
827.844	1.522	1	study	Phase2	study/STIM_007.jpg
832.714	1.417	1	study	Phase2	study/STIM_007.jpg
836.352	1.662	1	study	Phase2	study/STIM_008.jpg
840.524	0.768	1	study	Phase2	study/STIM_008.jpg
843.432	0.875	0	study	Phase2	study/STIM_008.jpg
847.836	1.585	1	study	Phase2	study/STIM_009.jpg
852.977	1.476	1	study	Phase2	study/STIM_009.jpg
856.596	1.244	1	study	Phase2	study/STIM_009.jpg
861.079	1.071	1	study	Phase2	study/STIM_010.jpg
865.333	1.167	0	study	Phase2	study/STIM_010.jpg
869.005	1.338	1	study	Phase2	study/STIM_010.jpg
872.482	1.658	1	study	Phase2	study/STIM_011.jpg
877.296	1.382	1	study	Phase2	study/STIM_011.jpg
882.429	0.929	1	study	Phase2	study/STIM_011.jpg
885.527	1.424	1	study	Phase2	study/STIM_012.jpg
890.162	0.937	1	study	Phase2	study/STIM_012.jpg
893.341	0.713	1	study	Phase2	study/STIM_012.jpg
896.932	1.56	1	study	Phase2	study/STIM_013.jpg
900.671	1.457	1	study	Phase2	study/STIM_013.jpg
904.358	1.269	1	study	Phase2	study/STIM_013.jpg
908.707	1.193	1	study	Phase2	study/STIM_014.jpg
913.438	1.344	1	study	Phase2	study/STIM_014.jpg
918.323	1.228	1	study	Phase2	study/STIM_014.jpg
922.152	1.589	1	study	Phase2	study/STIM_015.jpg
925.805	1.076	1	study	Phase2	study/STIM_015.jpg
928.866	1.471	1	study	Phase2	study/STIM_015.jpg
933.449	1.013	1	study	Phase2	study/STIM_016.jpg
938.243	0.978	1	study	Phase2	study/STIM_016.jpg
941.908	0.784	0	study	Phase2	study/STIM_016.jpg
945.701	1.68	1	study	Phase2	study/STIM_017.jpg
949.925	1.019	1	study	Phase2	study/STIM_017.jpg
953.722	1.402	1	study	Phase2	study/STIM_017.jpg
957.997	0.888	1	study	Phase2	study/STIM_018.jpg
961.295	0.778	1	study	Phase2	study/STIM_018.jpg
965.184	1.014	1	study	Phase2	study/STIM_018.jpg
969.666	0.942	1	study	Phase2	study/STIM_019.jpg
973.809	1.086	1	study	Phase2	study/STIM_019.jpg
977.298	1.296	1	study	Phase2	study/STIM_019.jpg
981.104	1.321	1	study	Phase2	study/STIM_020.jpg
985.161	1.532	1	study	Phase2	study/STIM_020.jpg
988.647	0.838	1	study	Phase2	study/STIM_020.jpg
991.839	0.757	1	study	Phase2	study/STIM_021.jpg
996.207	1.373	1	study	Phase2	study/STIM_021.jpg
999.682	0.724	1	study	Phase2	study/STIM_021.jpg
1004.19	1.164	1	study	Phase2	study/STIM_022.jpg
1008.261	1.023	1	study	Phase2	study/STIM_022.jpg
1012.423	1.268	1	study	Phase2	study/STIM_022.jpg
1015.633	1.698	0	study	Phase2	study/STIM_023.jpg
1019.266	0.882	1	study	Phase2	study/STIM_023.jpg
1022.841	1.338	1	study	Phase2	study/STIM_023.jpg
1026.931	1.396	1	study	Phase2	study/STIM_024.jpg
1031.909	1.484	0	study	Phase2	study/STIM_024.jpg
1036.797	1.053	1	study	Phase2	study/STIM_024.jpg
1040.709	1.691	1	study	Phase2	study/STIM_025.jpg
1044.726	1.192	1	study	Phase2	study/STIM_025.jpg
1049.511	0.749	1	study	Phase2	study/STIM_025.jpg
1052.875	0.764	1	study	Phase2	study/STIM_026.jpg
1056.031	1.442	1	study	Phase2	study/STIM_026.jpg
1060.981	0.668	1	study	Phase2	study/STIM_026.jpg
1064.064	0.978	0	study	Phase2	study/STIM_027.jpg
1067.317	1.207	1	study	Phase2	study/STIM_027.jpg
1071.236	0.983	1	study	Phase2	study/STIM_027.jpg
1075.929	1.223	1	study	Phase2	study/STIM_028.jpg
1079.242	1.561	1	study	Phase2	study/STIM_028.jpg
1083.24	0.917	1	study	Phase2	study/STIM_028.jpg
1086.392	1.498	1	study	Phase2	study/STIM_029.jpg
1091.007	0.823	1	study	Phase2	study/STIM_029.jpg
1095.565	0.827	0	study	Phase2	study/STIM_029.jpg
1099.397	0.728	1	test	Phase2	test/STIM_000.jpg
1102.546	1.338	1	test	Phase2	test/STIM_000.jpg
1107.455	0.678	1	test	Phase2	test/STIM_000.jpg
1111.603	1.396	1	test	Phase2	test/STIM_001.jpg
1116.497	1.36	1	test	Phase2	test/STIM_001.jpg
1120.287	0.893	1	test	Phase2	test/STIM_001.jpg
1123.876	1.092	1	test	Phase2	test/STIM_002.jpg
1128.24	0.798	0	test	Phase2	test/STIM_002.jpg
1131.964	1.288	1	test	Phase2	test/STIM_002.jpg
1136.412	0.789	1	test	Phase2	test/STIM_003.jpg
1139.296	0.962	1	test	Phase2	test/STIM_003.jpg
1142.24	0.881	1	test	Phase2	test/STIM_003.jpg
1146.939	0.942	1	test	Phase2	test/STIM_004.jpg
1150.144	0.974	1	test	Phase2	test/STIM_004.jpg
1153.301	1.263	1	test	Phase2	test/STIM_004.jpg
1158.398	0.965	1	test	Phase2	test/STIM_005.jpg
1161.95	1.157	1	test	Phase2	test/STIM_005.jpg
1165.281	1.399	1	test	Phase2	test/STIM_005.jpg
1170.313	1.155	1	test	Phase2	test/STIM_006.jpg
1173.489	0.929	1	test	Phase2	test/STIM_006.jpg
1177.595	0.945	1	test	Phase2	test/STIM_006.jpg
1181.637	1.302	1	test	Phase2	test/STIM_007.jpg
1185.071	0.821	1	test	Phase2	test/STIM_007.jpg
1188.409	1.169	1	test	Phase2	test/STIM_007.jpg
1192.851	0.95	1	test	Phase2	test/STIM_008.jpg
1196.113	1.033	1	test	Phase2	test/STIM_008.jpg
1199.401	0.754	1	test	Phase2	test/STIM_008.jpg
1202.764	1.201	1	test	Phase2	test/STIM_009.jpg
1207.223	0.914	1	test	Phase2	test/STIM_009.jpg
1211.264	0.856	1	test	Phase2	test/STIM_009.jpg
1214.194	0.782	0	test	Phase2	test/STIM_010.jpg
1217.076	1.378	1	test	Phase2	test/STIM_010.jpg
1221.281	0.764	1	test	Phase2	test/STIM_010.jpg
1225.82	0.794	1	test	Phase2	test/STIM_011.jpg
1228.945	1.246	0	test	Phase2	test/STIM_011.jpg
1233.833	1.1	1	test	Phase2	test/STIM_011.jpg
1237.211	0.798	1	test	Phase2	test/STIM_012.jpg
1240.583	0.958	1	test	Phase2	test/STIM_012.jpg
1244.122	1.41	1	test	Phase2	test/STIM_012.jpg
1248.583	1.354	1	test	Phase2	test/STIM_013.jpg
1252.314	1.03	1	test	Phase2	test/STIM_013.jpg
1256.727	1.384	0	test	Phase2	test/STIM_013.jpg
1260.655	1.417	1	test	Phase2	test/STIM_014.jpg
1264.906	0.942	1	test	Phase2	test/STIM_014.jpg
1268.89	1.262	1	test	Phase2	test/STIM_014.jpg
1272.707	1.006	1	test	Phase2	test/STIM_015.jpg
1276.337	1.287	1	test	Phase2	test/STIM_015.jpg
1280.739	1.246	1	test	Phase2	test/STIM_015.jpg
1285.549	0.976	1	test	Phase2	test/STIM_016.jpg
1289.229	1.193	1	test	Phase2	test/STIM_016.jpg
1293.798	0.946	1	test	Phase2	test/STIM_016.jpg
1297.021	1.252	1	test	Phase2	test/STIM_017.jpg
1300.554	0.895	1	test	Phase2	test/STIM_017.jpg
1304.323	0.836	1	test	Phase2	test/STIM_017.jpg
1308.505	1.414	1	test	Phase2	test/STIM_018.jpg
1312.725	1.368	1	test	Phase2	test/STIM_018.jpg
1317.368	0.864	0	test	Phase2	test/STIM_018.jpg
1320.392	0.828	1	test	Phase2	test/STIM_019.jpg
1323.214	1.429	1	test	Phase2	test/STIM_019.jpg
1327.825	1.322	1	test	Phase2	test/STIM_019.jpg
1331.319	1.235	1	test	Phase2	test/STIM_020.jpg
1335.891	1.268	1	test	Phase2	test/STIM_020.jpg
1340.177	0.934	1	test	Phase2	test/STIM_020.jpg
1343.153	1.367	1	test	Phase2	test/STIM_021.jpg
1347.037	1.304	1	test	Phase2	test/STIM_021.jpg
1350.995	1.037	1	test	Phase2	test/STIM_021.jpg
1354.606	1.346	0	test	Phase2	test/STIM_022.jpg
1359.369	1.328	1	test	Phase2	test/STIM_022.jpg
1363.423	0.797	1	test	Phase2	test/STIM_022.jpg
1367.209	1.163	1	test	Phase2	test/STIM_023.jpg
1370.678	0.7	0	test	Phase2	test/STIM_023.jpg
1374.426	1.336	1	test	Phase2	test/STIM_023.jpg
1378.497	1.411	1	test	Phase2	test/STIM_024.jpg
1383.625	1.079	1	test	Phase2	test/STIM_024.jpg
1386.7	1.234	1	test	Phase2	test/STIM_024.jpg
1390.414	1.083	1	test	Phase2	test/STIM_025.jpg
1394.588	0.798	1	test	Phase2	test/STIM_025.jpg
1398.538	1.424	1	test	Phase2	test/STIM_025.jpg
1403.662	1.262	1	test	Phase2	test/STIM_026.jpg
1407.18	1.187	1	test	Phase2	test/STIM_026.jpg
1411.452	1.05	1	test	Phase2	test/STIM_026.jpg
1415.063	1.072	1	test	Phase2	test/STIM_027.jpg
1419.637	0.813	1	test	Phase2	test/STIM_027.jpg
1423.24	1.181	0	test	Phase2	test/STIM_027.jpg
1426.854	1.103	1	test	Phase2	test/STIM_028.jpg
1431.711	1.387	1	test	Phase2	test/STIM_028.jpg
1435.612	1.242	1	test	Phase2	test/STIM_028.jpg
1439.678	0.93	1	test	Phase2	test/STIM_029.jpg
1442.537	1.099	1	test	Phase2	test/STIM_029.jpg
1446.494	0.734	1	test	Phase2	test/STIM_029.jpg
1450.19	1.102	1	study	Phase3	study/STIM_000.jpg
1454.147	0.958	1	study	Phase3	study/STIM_000.jpg
1457.22	1.276	1	study	Phase3	study/STIM_000.jpg
1460.756	1.017	1	study	Phase3	study/STIM_001.jpg
1463.793	1.073	1	study	Phase3	study/STIM_001.jpg
1466.83	0.664	1	study	Phase3	study/STIM_001.jpg
1469.663	0.658	0	study	Phase3	study/STIM_002.jpg
1473.942	0.828	1	study	Phase3	study/STIM_002.jpg
1476.766	0.973	1	study	Phase3	study/STIM_002.jpg
1480.782	0.882	0	study	Phase3	study/STIM_003.jpg
1483.788	0.909	1	study	Phase3	study/STIM_003.jpg
1488.138	1.376	1	study	Phase3	study/STIM_003.jpg
1493.104	1.092	1	study	Phase3	study/STIM_004.jpg
1496.655	1.115	1	study	Phase3	study/STIM_004.jpg
1500.621	1.214	1	study	Phase3	study/STIM_004.jpg
1504.347	1.344	1	study	Phase3	study/STIM_005.jpg
1508.526	1.335	1	study	Phase3	study/STIM_005.jpg
1512.818	0.818	1	study	Phase3	study/STIM_005.jpg
1517.257	1.059	1	study	Phase3	study/STIM_006.jpg
1520.407	0.636	1	study	Phase3	study/STIM_006.jpg
1523.732	1.093	1	study	Phase3	study/STIM_006.jpg
1528.081	1.35	1	study	Phase3	study/STIM_007.jpg
1531.546	1.077	1	study	Phase3	study/STIM_007.jpg
1535.326	1.309	1	study	Phase3	study/STIM_007.jpg
1540.3	1.109	1	study	Phase3	study/STIM_008.jpg
1543.916	0.781	1	study	Phase3	study/STIM_008.jpg
1548.138	1.15	1	study	Phase3	study/STIM_008.jpg
1551.54	1.213	1	study	Phase3	study/STIM_009.jpg
1555.081	1.104	0	study	Phase3	study/STIM_009.jpg
1558.725	0.988	1	study	Phase3	study/STIM_009.jpg
1563.582	0.786	1	study	Phase3	study/STIM_010.jpg
1566.696	1.223	1	study	Phase3	study/STIM_010.jpg
1570.925	0.64	1	study	Phase3	study/STIM_010.jpg
1574.391	1.26	1	study	Phase3	study/STIM_011.jpg
1577.696	1.043	1	study	Phase3	study/STIM_011.jpg
1581.409	1.27	1	study	Phase3	study/STIM_011.jpg
1586.421	1.209	1	study	Phase3	study/STIM_012.jpg
1590.86	0.906	1	study	Phase3	study/STIM_012.jpg
1594.225	0.882	1	study	Phase3	study/STIM_012.jpg
1598.548	1.348	1	study	Phase3	study/STIM_013.jpg
1603.355	1.199	1	study	Phase3	study/STIM_013.jpg
1607.206	0.844	1	study	Phase3	study/STIM_013.jpg
1611.93	1.124	1	study	Phase3	study/STIM_014.jpg
1616.893	0.917	1	study	Phase3	study/STIM_014.jpg
1620.587	1.301	1	study	Phase3	study/STIM_014.jpg
1625.651	0.794	1	study	Phase3	study/STIM_015.jpg
1629.876	0.93	1	study	Phase3	study/STIM_015.jpg
1633.601	1.202	1	study	Phase3	study/STIM_015.jpg
1636.798	0.857	1	study	Phase3	study/STIM_016.jpg
1639.903	0.9	1	study	Phase3	study/STIM_016.jpg
1642.827	1.078	1	study	Phase3	study/STIM_016.jpg
1646.098	1.089	1	study	Phase3	study/STIM_017.jpg
1649.916	1.17	1	study	Phase3	study/STIM_017.jpg
1653.976	0.629	1	study	Phase3	study/STIM_017.jpg
1657.863	0.653	1	study	Phase3	study/STIM_018.jpg
1662.408	0.951	1	study	Phase3	study/STIM_018.jpg
1667.083	1.182	1	study	Phase3	study/STIM_018.jpg
1671.74	1.297	1	study	Phase3	study/STIM_019.jpg
1675.856	0.924	1	study	Phase3	study/STIM_019.jpg
1680.08	0.688	1	study	Phase3	study/STIM_019.jpg
1683.66	0.677	1	study	Phase3	study/STIM_020.jpg
1687.102	1.307	1	study	Phase3	study/STIM_020.jpg
1691.929	1.058	1	study	Phase3	study/STIM_020.jpg
1696.824	1.023	1	study	Phase3	study/STIM_021.jpg
1700.681	1.292	1	study	Phase3	study/STIM_021.jpg
1704.227	0.724	1	study	Phase3	study/STIM_021.jpg
1708.438	0.991	1	study	Phase3	study/STIM_022.jpg
1711.66	0.883	1	study	Phase3	study/STIM_022.jpg
1715.139	1.393	1	study	Phase3	study/STIM_022.jpg
1718.749	1.318	1	study	Phase3	study/STIM_023.jpg
1723.352	1.39	1	study	Phase3	study/STIM_023.jpg
1726.794	1.185	1	study	Phase3	study/STIM_023.jpg
1730.227	0.654	1	study	Phase3	study/STIM_024.jpg
1734.364	0.728	1	study	Phase3	study/STIM_024.jpg
1738.229	0.957	1	study	Phase3	study/STIM_024.jpg
1742.656	0.632	1	study	Phase3	study/STIM_025.jpg
1747.01	0.961	1	study	Phase3	study/STIM_025.jpg
1750.827	0.927	1	study	Phase3	study/STIM_025.jpg
1755.448	0.885	1	study	Phase3	study/STIM_026.jpg
1760.096	1.373	1	study	Phase3	study/STIM_026.jpg
1764.236	0.84	1	study	Phase3	study/STIM_026.jpg
1767.276	1.075	1	study	Phase3	study/STIM_027.jpg
1770.8	0.939	1	study	Phase3	study/STIM_027.jpg
1773.754	1.074	1	study	Phase3	study/STIM_027.jpg
1777.028	0.966	0	study	Phase3	study/STIM_028.jpg
1780.413	0.87	1	study	Phase3	study/STIM_028.jpg
1783.801	1.376	1	study	Phase3	study/STIM_028.jpg
1787.707	1.068	1	study	Phase3	study/STIM_029.jpg
1790.679	1.255	1	study	Phase3	study/STIM_029.jpg
1793.989	0.749	1	study	Phase3	study/STIM_029.jpg
1797.737	0.679	1	test	Phase3	test/STIM_000.jpg
1801.247	1.208	0	test	Phase3	test/STIM_000.jpg
1806.323	0.892	0	test	Phase3	test/STIM_000.jpg
1810.191	0.984	1	test	Phase3	test/STIM_001.jpg
1815.03	1.333	1	test	Phase3	test/STIM_001.jpg
1819.434	0.845	1	test	Phase3	test/STIM_001.jpg
1823.583	1.069	1	test	Phase3	test/STIM_002.jpg
1827.766	0.957	1	test	Phase3	test/STIM_002.jpg
1830.967	0.968	1	test	Phase3	test/STIM_002.jpg
1834.699	1.277	1	test	Phase3	test/STIM_003.jpg
1839.435	1.117	1	test	Phase3	test/STIM_003.jpg
1844.058	0.854	1	test	Phase3	test/STIM_003.jpg
1847.834	0.871	1	test	Phase3	test/STIM_004.jpg
1851.913	1.066	0	test	Phase3	test/STIM_004.jpg
1856.805	1.113	1	test	Phase3	test/STIM_004.jpg
1860.084	1.111	1	test	Phase3	test/STIM_005.jpg
1864.248	1.227	1	test	Phase3	test/STIM_005.jpg
1867.536	1.025	1	test	Phase3	test/STIM_005.jpg
1872.19	0.858	1	test	Phase3	test/STIM_006.jpg
1876.877	0.861	1	test	Phase3	test/STIM_006.jpg
1881.442	1.421	1	test	Phase3	test/STIM_006.jpg
1885.361	1.078	1	test	Phase3	test/STIM_007.jpg
1888.876	1.242	1	test	Phase3	test/STIM_007.jpg
1892.09	0.969	1	test	Phase3	test/STIM_007.jpg
1895.592	1.05	1	test	Phase3	test/STIM_008.jpg
1898.92	0.909	1	test	Phase3	test/STIM_008.jpg
1902.559	1.014	1	test	Phase3	test/STIM_008.jpg
1907.437	0.856	1	test	Phase3	test/STIM_009.jpg
1911.638	1.141	1	test	Phase3	test/STIM_009.jpg
1916.017	0.718	1	test	Phase3	test/STIM_009.jpg
1920.141	0.832	1	test	Phase3	test/STIM_010.jpg
1922.949	1.325	1	test	Phase3	test/STIM_010.jpg
1926.575	0.772	1	test	Phase3	test/STIM_010.jpg
1929.414	0.823	1	test	Phase3	test/STIM_011.jpg
1933.394	1.092	1	test	Phase3	test/STIM_011.jpg
1936.954	0.854	1	test	Phase3	test/STIM_011.jpg
1940.544	1.216	1	test	Phase3	test/STIM_012.jpg
1944.37	0.972	1	test	Phase3	test/STIM_012.jpg
1949.153	1.291	1	test	Phase3	test/STIM_012.jpg
1952.449	0.915	0	test	Phase3	test/STIM_013.jpg
1956.283	1.274	1	test	Phase3	test/STIM_013.jpg
1961.117	0.948	1	test	Phase3	test/STIM_013.jpg
1964.594	0.715	1	test	Phase3	test/STIM_014.jpg
1967.257	0.987	1	test	Phase3	test/STIM_014.jpg
1971.53	1.265	1	test	Phase3	test/STIM_014.jpg
1976.29	0.897	1	test	Phase3	test/STIM_015.jpg
1980.549	1.208	1	test	Phase3	test/STIM_015.jpg
1984.085	1.184	1	test	Phase3	test/STIM_015.jpg
1988.979	0.79	1	test	Phase3	test/STIM_016.jpg
1992.824	0.882	1	test	Phase3	test/STIM_016.jpg
1996.284	1.119	1	test	Phase3	test/STIM_016.jpg
2000.428	1.16	1	test	Phase3	test/STIM_017.jpg
2003.573	0.849	1	test	Phase3	test/STIM_017.jpg
2006.956	0.81	1	test	Phase3	test/STIM_017.jpg
2010.329	0.869	1	test	Phase3	test/STIM_018.jpg
2013.377	1.391	1	test	Phase3	test/STIM_018.jpg
2018.041	0.751	1	test	Phase3	test/STIM_018.jpg
2022.331	1.266	1	test	Phase3	test/STIM_019.jpg
2026.757	1.318	1	test	Phase3	test/STIM_019.jpg
2031.234	1.025	1	test	Phase3	test/STIM_019.jpg
2034.223	1.166	1	test	Phase3	test/STIM_020.jpg
2038.14	0.896	1	test	Phase3	test/STIM_020.jpg
2041.212	1.207	1	test	Phase3	test/STIM_020.jpg
2044.623	0.749	1	test	Phase3	test/STIM_021.jpg
2049.05	1.079	1	test	Phase3	test/STIM_021.jpg
2052.233	1.174	1	test	Phase3	test/STIM_021.jpg
2056.945	1.156	1	test	Phase3	test/STIM_022.jpg
2060.208	0.706	1	test	Phase3	test/STIM_022.jpg
2063.113	0.87	1	test	Phase3	test/STIM_022.jpg
2067.781	1.144	1	test	Phase3	test/STIM_023.jpg
2072.229	0.756	1	test	Phase3	test/STIM_023.jpg
2075.458	1.166	1	test	Phase3	test/STIM_023.jpg
2080.501	0.873	1	test	Phase3	test/STIM_024.jpg
2085.147	0.687	1	test	Phase3	test/STIM_024.jpg
2089.215	1.32	1	test	Phase3	test/STIM_024.jpg
2094.351	0.719	1	test	Phase3	test/STIM_025.jpg
2098.29	1.172	1	test	Phase3	test/STIM_025.jpg
2102.643	1.433	1	test	Phase3	test/STIM_025.jpg
2106.809	0.699	1	test	Phase3	test/STIM_026.jpg
2111.09	1.214	1	test	Phase3	test/STIM_026.jpg
2114.291	1.0	1	test	Phase3	test/STIM_026.jpg
2119.047	1.168	0	test	Phase3	test/STIM_027.jpg
2123.147	0.719	1	test	Phase3	test/STIM_027.jpg
2126.513	1.04	1	test	Phase3	test/STIM_027.jpg
2130.812	1.184	1	test	Phase3	test/STIM_028.jpg
2134.412	0.914	0	test	Phase3	test/STIM_028.jpg
2138.544	0.699	1	test	Phase3	test/STIM_028.jpg
2142.912	1.362	1	test	Phase3	test/STIM_029.jpg
2147.054	0.728	1	test	Phase3	test/STIM_029.jpg
2151.35	0.859	1	test	Phase3	test/STIM_029.jpg
