onset	duration	response_time_ms	trial_type	learning_stage	stimulus	response_port
0.0	2.011	2011.5	regulate	Run1	regulate/STIM_000.jpg	99
5.022	2.165	2164.6	regulate	Run1	regulate/STIM_000.jpg	99
11.086	1.832	1832.1	regulate	Run1	regulate/STIM_000.jpg	99
16.56	2.701	2700.8	regulate	Run1	regulate/STIM_000.jpg	100
23.244	2.672	2672.2	regulate	Run1	regulate/STIM_001.jpg	99
29.937	1.844	1844.4	regulate	Run1	regulate/STIM_001.jpg	99
35.887	2.144	2144.4	regulate	Run1	regulate/STIM_001.jpg	99
42.019	1.674	1674.4	regulate	Run1	regulate/STIM_001.jpg	99
46.449	1.437	1437.2	regulate	Run1	regulate/STIM_002.jpg	100
51.208	1.615	1614.6	regulate	Run1	regulate/STIM_002.jpg	99
56.949	1.498	1497.8	regulate	Run1	regulate/STIM_002.jpg	100
62.418	1.456	1455.8	regulate	Run1	regulate/STIM_002.jpg	99
66.023	1.601	1600.9	regulate	Run1	regulate/STIM_003.jpg	100
70.15	1.284	1283.5	regulate	Run1	regulate/STIM_003.jpg	99
73.805	1.233	1233.1	regulate	Run1	regulate/STIM_003.jpg	100
77.915	1.609	1608.7	regulate	Run1	regulate/STIM_003.jpg	99
83.169	2.698	2698.2	regulate	Run1	regulate/STIM_004.jpg	100
89.326	2.086	2086.4	regulate	Run1	regulate/STIM_004.jpg	99
95.224	2.776	2775.7	regulate	Run1	regulate/STIM_004.jpg	100
102.192	2.07	2069.8	regulate	Run1	regulate/STIM_004.jpg	100
108.348	2.856	2855.7	regulate	Run1	regulate/STIM_005.jpg	99
114.197	2.286	2286.3	regulate	Run1	regulate/STIM_005.jpg	99
119.043	1.541	1541.2	regulate	Run1	regulate/STIM_005.jpg	99
124.407	2.089	2089.0	regulate	Run1	regulate/STIM_005.jpg	99
128.801	1.981	1980.8	regulate	Run1	regulate/STIM_006.jpg	100
134.111	2.271	2271.0	regulate	Run1	regulate/STIM_006.jpg	99
139.787	2.295	2295.4	regulate	Run1	regulate/STIM_006.jpg	99
145.67	2.212	2212.3	regulate	Run1	regulate/STIM_006.jpg	99
151.97	2.748	2748.4	regulate	Run1	regulate/STIM_007.jpg	100
157.399	2.961	2961.0	regulate	Run1	regulate/STIM_007.jpg	100
164.249	1.913	1912.7	regulate	Run1	regulate/STIM_007.jpg	100
169.381	1.397	1396.6	regulate	Run1	regulate/STIM_007.jpg	100
174.743	1.553	1553.0	regulate	Run1	regulate/STIM_008.jpg	99
179.84	1.896	1895.7	regulate	Run1	regulate/STIM_008.jpg	99
185.025	1.827	1827.3	regulate	Run1	regulate/STIM_008.jpg	99
189.331	1.864	1864.3	regulate	Run1	regulate/STIM_008.jpg	100
194.518	3.116	3116.3	regulate	Run1	regulate/STIM_009.jpg	100
200.629	2.927	2927.4	regulate	Run1	regulate/STIM_009.jpg	100
207.222	2.185	2185.4	regulate	Run1	regulate/STIM_009.jpg	100
212.358	1.306	1305.8	regulate	Run1	regulate/STIM_009.jpg	99
216.754	1.759	1759.2	regulate	Run1	regulate/STIM_010.jpg	99
222.003	1.456	1456.4	regulate	Run1	regulate/STIM_010.jpg	99
225.835	2.22	2220.3	regulate	Run1	regulate/STIM_010.jpg	99
231.0	2.558	2558.0	regulate	Run1	regulate/STIM_010.jpg	99
237.227	1.663	1663.2	regulate	Run1	regulate/STIM_011.jpg	100
242.147	2.65	2650.0	regulate	Run1	regulate/STIM_011.jpg	100
247.861	2.826	2825.6	regulate	Run1	regulate/STIM_011.jpg	100
254.416	1.156	1156.3	regulate	Run1	regulate/STIM_011.jpg	99
258.96	1.797	1796.9	regulate	Run1	regulate/STIM_012.jpg	100
263.886	2.568	2568.1	regulate	Run1	regulate/STIM_012.jpg	100
270.429	1.504	1503.6	regulate	Run1	regulate/STIM_012.jpg	100
274.637	2.509	2509.0	regulate	Run1	regulate/STIM_012.jpg	100
280.692	1.405	1404.8	regulate	Run1	regulate/STIM_013.jpg	100
285.971	2.193	2193.1	regulate	Run1	regulate/STIM_013.jpg	99
291.26	2.429	2429.0	regulate	Run1	regulate/STIM_013.jpg	100
297.832	2.557	2556.9	regulate	Run1	regulate/STIM_013.jpg	100
303.321	2.091	2090.8	regulate	Run1	regulate/STIM_014.jpg	99
308.422	2.709	2708.7	regulate	Run1	regulate/STIM_014.jpg	99
313.796	2.39	2390.0	regulate	Run1	regulate/STIM_014.jpg	99
319.36	1.72	1720.1	regulate	Run1	regulate/STIM_014.jpg	99
323.77	1.524	1524.4	regulate	Run1	regulate/STIM_015.jpg	99
328.457	2.288	2287.8	regulate	Run1	regulate/STIM_015.jpg	99
334.65	1.186	1186.3	regulate	Run1	regulate/STIM_015.jpg	100
339.053	2.505	2504.8	regulate	Run1	regulate/STIM_015.jpg	100
345.248	2.431	2430.6	regulate	Run1	regulate/STIM_016.jpg	100
350.616	2.496	2496.5	regulate	Run1	regulate/STIM_016.jpg	99
357.208	1.408	1408.2	regulate	Run1	regulate/STIM_016.jpg	99
361.689	1.212	1212.0	regulate	Run1	regulate/STIM_016.jpg	99
366.8	3.226	3226.3	regulate	Run1	regulate/STIM_017.jpg	99
373.876	1.637	1637.1	regulate	Run1	regulate/STIM_017.jpg	100
378.354	2.716	2715.8	regulate	Run1	regulate/STIM_017.jpg	99
384.89	1.414	1414.5	regulate	Run1	regulate/STIM_017.jpg	100
389.047	3.214	3214.1	regulate	Run1	regulate/STIM_018.jpg	99
394.944	1.946	1945.5	regulate	Run1	regulate/STIM_018.jpg	100
399.57	2.665	2665.3	regulate	Run1	regulate/STIM_018.jpg	99
405.308	1.488	1488.0	regulate	Run1	regulate/STIM_018.jpg	99
410.098	1.48	1480.5	regulate	Run1	regulate/STIM_019.jpg	100
414.193	1.933	1932.6	regulate	Run1	regulate/STIM_019.jpg	100
418.38	2.66	2660.1	regulate	Run1	regulate/STIM_019.jpg	99
425.108	2.562	2561.9	regulate	Run1	regulate/STIM_019.jpg	100
431.386	2.95	2949.7	regulate	Run1	regulate/STIM_020.jpg	100
437.333	2.784	2783.6	regulate	Run1	regulate/STIM_020.jpg	100
443.703	2.63	2630.4	regulate	Run1	regulate/STIM_020.jpg	99
449.69	1.913	1913.3	regulate	Run1	regulate/STIM_020.jpg	99
454.504	2.094	2093.6	regulate	Run1	regulate/STIM_021.jpg	100
459.753	3.022	3022.0	regulate	Run1	regulate/STIM_021.jpg	99
465.264	2.657	2657.2	regulate	Run1	regulate/STIM_021.jpg	99
471.727	1.589	1589.1	regulate	Run1	regulate/STIM_021.jpg	100
477.212	2.796	2795.7	regulate	Run1	regulate/STIM_022.jpg	99
483.339	2.088	2087.8	regulate	Run1	regulate/STIM_022.jpg	99
488.394	1.488	1488.2	regulate	Run1	regulate/STIM_022.jpg	99
492.766	1.523	1522.8	regulate	Run1	regulate/STIM_022.jpg	99
497.973	1.387	1386.6	regulate	Run1	regulate/STIM_023.jpg	99
501.809	1.526	1526.1	regulate	Run1	regulate/STIM_023.jpg	99
507.206	1.286	1285.6	regulate	Run1	regulate/STIM_023.jpg	100
511.211	1.73	1729.7	regulate	Run1	regulate/STIM_023.jpg	100
516.072	1.495	1494.7	regulate	Run1	regulate/STIM_024.jpg	100
519.76	2.922	2922.5	regulate	Run1	regulate/STIM_024.jpg	100
525.754	1.915	1915.3	regulate	Run1	regulate/STIM_024.jpg	99
531.735	2.761	2760.8	regulate	Run1	regulate/STIM_024.jpg	99
537.716	2.128	2128.1	regulate	Run1	regulate/STIM_025.jpg	100
542.384	2.171	2170.8	regulate	Run1	regulate/STIM_025.jpg	100
548.164	2.594	2594.3	regulate	Run1	regulate/STIM_025.jpg	100
553.643	1.57	1569.6	regulate	Run1	regulate/STIM_025.jpg	99
558.918	2.417	2416.9	regulate	Run1	regulate/STIM_026.jpg	100
564.712	1.997	1997.4	regulate	Run1	regulate/STIM_026.jpg	99
569.515	1.573	1573.3	regulate	Run1	regulate/STIM_026.jpg	99
573.65	1.561	1561.1	regulate	Run1	regulate/STIM_026.jpg	99
578.098	2.276	2276.2	regulate	Run1	regulate/STIM_027.jpg	100
583.023	2.328	2328.1	regulate	Run1	regulate/STIM_027.jpg	100
587.714	2.236	2236.0	regulate	Run1	regulate/STIM_027.jpg	99
592.431	1.678	1678.1	regulate	Run1	regulate/STIM_027.jpg	100
596.324	2.407	2407.0	regulate	Run1	regulate/STIM_028.jpg	100
601.946	1.881	1881.1	regulate	Run1	regulate/STIM_028.jpg	99
606.901	2.452	2451.7	regulate	Run1	regulate/STIM_028.jpg	99
613.106	2.318	2318.0	regulate	Run1	regulate/STIM_028.jpg	100
619.512	1.925	1925.4	regulate	Run1	regulate/STIM_029.jpg	99
624.818	1.914	1913.5	regulate	Run1	regulate/STIM_029.jpg	99
629.573	2.41	2409.7	regulate	Run1	regulate/STIM_029.jpg	100
635.326	2.13	2129.8	regulate	Run1	regulate/STIM_029.jpg	100
639.832	1.041	1040.9	observe	Run1	observe/STIM_000.jpg	99
643.153	1.062	1061.5	observe	Run1	observe/STIM_000.jpg	100
647.969	1.005	1005.1	observe	Run1	observe/STIM_000.jpg	100
652.435	1.347	1347.4	observe	Run1	observe/STIM_000.jpg	99
655.931	1.313	1313.2	observe	Run1	observe/STIM_001.jpg	99
659.66	0.88	880.3	observe	Run1	observe/STIM_001.jpg	99
664.558	1.329	1329.4	observe	Run1	observe/STIM_001.jpg	100
669.547	0.75	750.5	observe	Run1	observe/STIM_001.jpg	100
673.702	0.836	835.5	observe	Run1	observe/STIM_002.jpg	99
677.767	1.364	1364.2	observe	Run1	observe/STIM_002.jpg	99
682.814	0.856	856.3	observe	Run1	observe/STIM_002.jpg	100
687.188	1.312	1311.5	observe	Run1	observe/STIM_002.jpg	99
692.188	1.436	1436.1	observe	Run1	observe/STIM_003.jpg	99
696.351	1.128	1127.5	observe	Run1	observe/STIM_003.jpg	99
701.085	1.198	1198.0	observe	Run1	observe/STIM_003.jpg	99
705.466	1.442	1442.1	observe	Run1	observe/STIM_003.jpg	100
710.608	0.955	955.0	observe	Run1	observe/STIM_004.jpg	100
714.538	0.975	975.2	observe	Run1	observe/STIM_004.jpg	99
718.847	1.253	1252.8	observe	Run1	observe/STIM_004.jpg	100
723.115	1.182	1181.9	observe	Run1	observe/STIM_004.jpg	99
727.263	1.215	1214.6	observe	Run1	observe/STIM_005.jpg	99
731.307	1.299	1298.6	observe	Run1	observe/STIM_005.jpg	99
735.89	1.359	1359.1	observe	Run1	observe/STIM_005.jpg	99
740.065	1.12	1119.8	observe	Run1	observe/STIM_005.jpg	100
744.896	0.975	974.9	observe	Run1	observe/STIM_006.jpg	100
749.8	0.992	992.3	observe	Run1	observe/STIM_006.jpg	99
753.204	0.894	893.7	observe	Run1	observe/STIM_006.jpg	99
757.009	0.806	806.5	observe	Run1	observe/STIM_006.jpg	99
761.824	0.998	997.8	observe	Run1	observe/STIM_007.jpg	100
765.413	1.22	1219.5	observe	Run1	observe/STIM_007.jpg	99
768.979	1.106	1105.9	observe	Run1	observe/STIM_007.jpg	99
773.306	0.93	930.1	observe	Run1	observe/STIM_007.jpg	100
776.956	1.041	1041.3	observe	Run1	observe/STIM_008.jpg	100
781.385	1.301	1301.4	observe	Run1	observe/STIM_008.jpg	99
786.487	1.442	1442.0	observe	Run1	observe/STIM_008.jpg	100
791.395	1.226	1225.7	observe	Run1	observe/STIM_008.jpg	99
796.693	1.497	1496.6	observe	Run1	observe/STIM_009.jpg	99
800.971	1.383	1383.3	observe	Run1	observe/STIM_009.jpg	99
804.691	0.927	927.4	observe	Run1	observe/STIM_009.jpg	99
808.681	0.926	925.9	observe	Run1	observe/STIM_009.jpg	100
813.535	1.035	1035.4	observe	Run1	observe/STIM_010.jpg	100
817.196	1.397	1396.7	observe	Run1	observe/STIM_010.jpg	100
822.149	1.11	1110.5	observe	Run1	observe/STIM_010.jpg	100
825.53	0.727	726.9	observe	Run1	observe/STIM_010.jpg	99
829.155	1.037	1036.9	observe	Run1	observe/STIM_011.jpg	100
833.643	1.272	1272.5	observe	Run1	observe/STIM_011.jpg	99
837.332	1.123	1122.9	observe	Run1	observe/STIM_011.jpg	99
841.257	1.348	1347.5	observe	Run1	observe/STIM_011.jpg	100
844.845	1.406	1406.0	observe	Run1	observe/STIM_012.jpg	99
850.245	1.113	1113.0	observe	Run1	observe/STIM_012.jpg	100
854.518	0.971	971.3	observe	Run1	observe/STIM_012.jpg	99
859.459	1.07	1069.5	observe	Run1	observe/STIM_012.jpg	100
862.695	1.164	1163.8	observe	Run1	observe/STIM_013.jpg	99
866.942	1.215	1214.8	observe	Run1	observe/STIM_013.jpg	99
870.376	1.382	1382.2	observe	Run1	observe/STIM_013.jpg	100
874.268	0.99	989.5	observe	Run1	observe/STIM_013.jpg	100
878.99	1.323	1322.7	observe	Run1	observe/STIM_014.jpg	100
883.374	0.915	914.7	observe	Run1	observe/STIM_014.jpg	100
886.475	1.177	1177.4	observe	Run1	observe/STIM_014.jpg	99
889.766	0.848	848.5	observe	Run1	observe/STIM_014.jpg	99
893.427	1.041	1041.0	observe	Run1	observe/STIM_015.jpg	100
898.468	1.22	1220.3	observe	Run1	observe/STIM_015.jpg	100
902.188	0.791	790.6	observe	Run1	observe/STIM_015.jpg	99
906.291	0.846	845.8	observe	Run1	observe/STIM_015.jpg	99
910.67	0.808	808.1	observe	Run1	observe/STIM_016.jpg	100
913.608	1.094	1093.5	observe	Run1	observe/STIM_016.jpg	100
917.724	1.495	1495.0	observe	Run1	observe/STIM_016.jpg	100
922.916	0.866	866.4	observe	Run1	observe/STIM_016.jpg	100
926.534	0.919	919.2	observe	Run1	observe/STIM_017.jpg	99
929.746	0.748	747.5	observe	Run1	observe/STIM_017.jpg	100
932.762	1.055	1054.7	observe	Run1	observe/STIM_017.jpg	99
936.043	0.713	713.2	observe	Run1	observe/STIM_017.jpg	100
938.981	1.498	1498.0	observe	Run1	observe/STIM_018.jpg	99
943.811	1.12	1120.5	observe	Run1	observe/STIM_018.jpg	100
948.389	1.283	1283.2	observe	Run1	observe/STIM_018.jpg	99
952.613	1.078	1078.4	observe	Run1	observe/STIM_018.jpg	99
957.535	0.929	929.3	observe	Run1	observe/STIM_019.jpg	99
960.939	1.388	1387.7	observe	Run1	observe/STIM_019.jpg	99
965.121	0.751	751.3	observe	Run1	observe/STIM_019.jpg	99
968.851	1.297	1296.6	observe	Run1	observe/STIM_019.jpg	99
973.173	1.6	1599.8	regulate	Run2	regulate/STIM_000.jpg	100
978.759	1.621	1620.6	regulate	Run2	regulate/STIM_000.jpg	99
983.459	1.268	1268.0	regulate	Run2	regulate/STIM_000.jpg	100
987.02	1.861	1860.9	regulate	Run2	regulate/STIM_000.jpg	99
991.365	2.156	2156.4	regulate	Run2	regulate/STIM_001.jpg	99
996.336	2.367	2367.4	regulate	Run2	regulate/STIM_001.jpg	100
1001.684	1.098	1098.1	regulate	Run2	regulate/STIM_001.jpg	100
1005.189	1.877	1876.7	regulate	Run2	regulate/STIM_001.jpg	99
1009.762	1.754	1754.1	regulate	Run2	regulate/STIM_002.jpg	100
1015.025	2.057	2056.8	regulate	Run2	regulate/STIM_002.jpg	99
1020.895	1.85	1850.1	regulate	Run2	regulate/STIM_002.jpg	99
1025.532	1.342	1342.3	regulate	Run2	regulate/STIM_002.jpg	99
1029.122	1.997	1997.0	regulate	Run2	regulate/STIM_003.jpg	100
1033.866	1.535	1535.2	regulate	Run2	regulate/STIM_003.jpg	100
1037.786	1.989	1988.7	regulate	Run2	regulate/STIM_003.jpg	100
1042.032	1.081	1080.8	regulate	Run2	regulate/STIM_003.jpg	100
1045.997	2.416	2415.7	regulate	Run2	regulate/STIM_004.jpg	99
1051.72	1.247	1247.4	regulate	Run2	regulate/STIM_004.jpg	99
1055.721	2.145	2145.0	regulate	Run2	regulate/STIM_004.jpg	100
1060.658	1.626	1625.8	regulate	Run2	regulate/STIM_004.jpg	99
1065.278	1.365	1365.1	regulate	Run2	regulate/STIM_005.jpg	99
1069.879	1.053	1052.8	regulate	Run2	regulate/STIM_005.jpg	99
1073.895	1.593	1593.0	regulate	Run2	regulate/STIM_005.jpg	100
1079.076	2.245	2244.7	regulate	Run2	regulate/STIM_005.jpg	99
1083.953	1.618	1617.9	regulate	Run2	regulate/STIM_006.jpg	99
1088.053	1.816	1816.5	regulate	Run2	regulate/STIM_006.jpg	100
1092.923	1.4	1399.7	regulate	Run2	regulate/STIM_006.jpg	100
1098.094	2.148	2148.2	regulate	Run2	regulate/STIM_006.jpg	100
1103.222	2.009	2009.2	regulate	Run2	regulate/STIM_007.jpg	100
1108.08	2.22	2220.2	regulate	Run2	regulate/STIM_007.jpg	99
1114.116	1.519	1519.2	regulate	Run2	regulate/STIM_007.jpg	100
1118.396	1.247	1247.4	regulate	Run2	regulate/STIM_007.jpg	99
1121.997	1.529	1529.0	regulate	Run2	regulate/STIM_008.jpg	99
1125.993	1.804	1804.1	regulate	Run2	regulate/STIM_008.jpg	100
1131.705	1.534	1533.9	regulate	Run2	regulate/STIM_008.jpg	100
1136.845	1.123	1123.2	regulate	Run2	regulate/STIM_008.jpg	100
1142.058	1.723	1722.8	regulate	Run2	regulate/STIM_009.jpg	100
1147.582	1.798	1798.4	regulate	Run2	regulate/STIM_009.jpg	100
1152.325	1.539	1538.8	regulate	Run2	regulate/STIM_009.jpg	100
1156.483	2.184	2184.2	regulate	Run2	regulate/STIM_009.jpg	100
1162.603	1.217	1216.7	regulate	Run2	regulate/STIM_010.jpg	100
1166.878	1.121	1120.9	regulate	Run2	regulate/STIM_010.jpg	99
1170.753	1.36	1359.8	regulate	Run2	regulate/STIM_010.jpg	99
1175.853	1.212	1212.5	regulate	Run2	regulate/STIM_010.jpg	99
1180.34	1.475	1475.2	regulate	Run2	regulate/STIM_011.jpg	99
1185.654	2.075	2075.4	regulate	Run2	regulate/STIM_011.jpg	100
1190.652	1.751	1750.8	regulate	Run2	regulate/STIM_011.jpg	99
1194.999	1.011	1011.3	regulate	Run2	regulate/STIM_011.jpg	100
1199.488	1.263	1262.8	regulate	Run2	regulate/STIM_012.jpg	99
1203.184	2.232	2231.6	regulate	Run2	regulate/STIM_012.jpg	100
1208.422	1.865	1864.6	regulate	Run2	regulate/STIM_012.jpg	99
1213.947	2.072	2072.4	regulate	Run2	regulate/STIM_012.jpg	100
1219.411	2.158	2158.4	regulate	Run2	regulate/STIM_013.jpg	100
1224.792	1.244	1244.3	regulate	Run2	regulate/STIM_013.jpg	100
1228.466	2.455	2455.1	regulate	Run2	regulate/STIM_013.jpg	99
1233.081	0.991	990.7	regulate	Run2	regulate/STIM_013.jpg	99
1236.31	1.401	1401.4	regulate	Run2	regulate/STIM_014.jpg	99
1241.044	2.278	2277.9	regulate	Run2	regulate/STIM_014.jpg	100
1246.519	1.71	1709.9	regulate	Run2	regulate/STIM_014.jpg	99
1252.288	1.762	1762.1	regulate	Run2	regulate/STIM_014.jpg	99
1257.02	2.705	2705.1	regulate	Run2	regulate/STIM_015.jpg	99
1262.042	2.029	2029.3	regulate	Run2	regulate/STIM_015.jpg	99
1267.773	1.759	1758.9	regulate	Run2	regulate/STIM_015.jpg	100
1271.783	1.952	1951.8	regulate	Run2	regulate/STIM_015.jpg	99
1277.821	2.388	2388.5	regulate	Run2	regulate/STIM_016.jpg	100
1284.25	2.294	2293.7	regulate	Run2	regulate/STIM_016.jpg	99
1290.6	2.211	2211.4	regulate	Run2	regulate/STIM_016.jpg	100
1295.729	1.934	1934.2	regulate	Run2	regulate/STIM_016.jpg	99
1300.803	1.779	1779.0	regulate	Run2	regulate/STIM_017.jpg	99
1304.922	1.216	1216.4	regulate	Run2	regulate/STIM_017.jpg	100
1309.777	1.712	1712.4	regulate	Run2	regulate/STIM_017.jpg	100
1315.083	1.38	1380.5	regulate	Run2	regulate/STIM_017.jpg	100
1320.395	1.816	1816.1	regulate	Run2	regulate/STIM_018.jpg	99
1325.862	2.5	2499.9	regulate	Run2	regulate/STIM_018.jpg	99
1332.43	1.604	1603.8	regulate	Run2	regulate/STIM_018.jpg	100
1337.889	1.526	1525.8	regulate	Run2	regulate/STIM_018.jpg	100
1341.866	1.641	1640.7	regulate	Run2	regulate/STIM_019.jpg	99
1346.383	2.382	2381.6	regulate	Run2	regulate/STIM_019.jpg	99
1351.831	1.91	1910.1	regulate	Run2	regulate/STIM_019.jpg	100
1356.806	1.109	1108.7	regulate	Run2	regulate/STIM_019.jpg	100
1360.985	1.716	1715.5	regulate	Run2	regulate/STIM_020.jpg	100
1365.171	1.795	1794.7	regulate	Run2	regulate/STIM_020.jpg	99
1369.318	1.063	1062.7	regulate	Run2	regulate/STIM_020.jpg	100
1373.686	1.79	1790.0	regulate	Run2	regulate/STIM_020.jpg	100
1377.942	2.501	2500.9	regulate	Run2	regulate/STIM_021.jpg	100
1383.989	1.715	1714.9	regulate	Run2	regulate/STIM_021.jpg	99
1388.309	1.857	1857.3	regulate	Run2	regulate/STIM_021.jpg	99
1392.982	1.399	1399.4	regulate	Run2	regulate/STIM_021.jpg	100
1396.804	1.865	1865.1	regulate	Run2	regulate/STIM_022.jpg	99
1402.002	1.676	1676.4	regulate	Run2	regulate/STIM_022.jpg	99
1406.101	1.465	1465.0	regulate	Run2	regulate/STIM_022.jpg	100
1411.094	1.332	1332.0	regulate	Run2	regulate/STIM_022.jpg	100
1414.744	1.315	1315.0	regulate	Run2	regulate/STIM_023.jpg	99
1418.903	1.884	1883.7	regulate	Run2	regulate/STIM_023.jpg	100
1423.382	2.001	2000.7	regulate	Run2	regulate/STIM_023.jpg	99
1428.228	2.027	2026.6	regulate	Run2	regulate/STIM_023.jpg	100
1433.38	2.214	2214.3	regulate	Run2	regulate/STIM_024.jpg	100
1438.276	2.36	2359.7	regulate	Run2	regulate/STIM_024.jpg	99
1444.205	1.394	1393.8	regulate	Run2	regulate/STIM_024.jpg	99
1448.464	1.381	1381.4	regulate	Run2	regulate/STIM_024.jpg	100
1452.028	2.448	2448.0	regulate	Run2	regulate/STIM_025.jpg	100
1457.531	1.735	1735.1	regulate	Run2	regulate/STIM_025.jpg	100
1462.99	1.991	1990.6	regulate	Run2	regulate/STIM_025.jpg	100
1468.662	2.104	2103.7	regulate	Run2	regulate/STIM_025.jpg	99
1474.527	2.5	2499.5	regulate	Run2	regulate/STIM_026.jpg	99
1479.492	1.14	1139.5	regulate	Run2	regulate/STIM_026.jpg	100
1483.337	1.59	1589.5	regulate	Run2	regulate/STIM_026.jpg	99
1487.603	1.595	1594.9	regulate	Run2	regulate/STIM_026.jpg	100
1492.873	1.405	1405.0	regulate	Run2	regulate/STIM_027.jpg	99
1496.65	1.521	1521.2	regulate	Run2	regulate/STIM_027.jpg	99
1501.276	1.319	1318.8	regulate	Run2	regulate/STIM_027.jpg	100
1506.176	1.93	1929.9	regulate	Run2	regulate/STIM_027.jpg	100
1511.131	2.499	2498.9	regulate	Run2	regulate/STIM_028.jpg	100
1517.109	2.461	2461.0	regulate	Run2	regulate/STIM_028.jpg	100
1522.132	2.085	2084.9	regulate	Run2	regulate/STIM_028.jpg	100
1527.65	1.446	1446.3	regulate	Run2	regulate/STIM_028.jpg	99
1531.168	1.364	1363.7	regulate	Run2	regulate/STIM_029.jpg	99
1535.323	1.471	1470.8	regulate	Run2	regulate/STIM_029.jpg	99
1539.643	1.446	1445.5	regulate	Run2	regulate/STIM_029.jpg	99
1544.71	2.183	2183.4	regulate	Run2	regulate/STIM_029.jpg	100
1550.018	0.713	712.8	observe	Run2	observe/STIM_000.jpg	100
1554.239	1.405	1405.4	observe	Run2	observe/STIM_000.jpg	99
1559.243	1.062	1061.9	observe	Run2	observe/STIM_000.jpg	100
1562.96	1.165	1165.1	observe	Run2	observe/STIM_000.jpg	100
1567.27	1.145	1145.1	observe	Run2	observe/STIM_001.jpg	99
1571.597	1.105	1105.1	observe	Run2	observe/STIM_001.jpg	99
1575.161	1.168	1167.7	observe	Run2	observe/STIM_001.jpg	99
1580.012	1.105	1105.2	observe	Run2	observe/STIM_001.jpg	100
1584.159	1.232	1232.0	observe	Run2	observe/STIM_002.jpg	100
1588.653	1.398	1398.4	observe	Run2	observe/STIM_002.jpg	100
1593.997	0.823	823.3	observe	Run2	observe/STIM_002.jpg	99
1598.735	1.175	1174.8	observe	Run2	observe/STIM_002.jpg	99
1603.185	1.109	1108.7	observe	Run2	observe/STIM_003.jpg	100
1607.117	1.302	1301.6	observe	Run2	observe/STIM_003.jpg	100
1612.218	0.982	981.9	observe	Run2	observe/STIM_003.jpg	100
1616.981	0.716	716.1	observe	Run2	observe/STIM_003.jpg	100
1621.645	1.233	1232.6	observe	Run2	observe/STIM_004.jpg	100
1626.065	1.4	1400.4	observe	Run2	observe/STIM_004.jpg	100
1631.545	0.962	962.5	observe	Run2	observe/STIM_004.jpg	100
1634.737	0.86	860.2	observe	Run2	observe/STIM_004.jpg	100
1638.086	0.826	826.2	observe	Run2	observe/STIM_005.jpg	100
1641.463	1.243	1243.0	observe	Run2	observe/STIM_005.jpg	99
1645.105	1.143	1143.4	observe	Run2	observe/STIM_005.jpg	100
1650.144	1.191	1190.8	observe	Run2	observe/STIM_005.jpg	99
1655.319	0.716	716.4	observe	Run2	observe/STIM_006.jpg	100
1658.446	0.929	929.0	observe	Run2	observe/STIM_006.jpg	99
1663.296	1.414	1413.7	observe	Run2	observe/STIM_006.jpg	100
1667.088	1.244	1244.1	observe	Run2	observe/STIM_006.jpg	99
1672.079	0.828	828.4	observe	Run2	observe/STIM_007.jpg	100
1676.003	0.903	902.7	observe	Run2	observe/STIM_007.jpg	100
1680.695	1.114	1114.5	observe	Run2	observe/STIM_007.jpg	99
1684.667	1.157	1157.2	observe	Run2	observe/STIM_007.jpg	99
1689.214	0.85	850.5	observe	Run2	observe/STIM_008.jpg	99
1694.097	1.453	1452.9	observe	Run2	observe/STIM_008.jpg	100
1698.084	0.831	830.6	observe	Run2	observe/STIM_008.jpg	99
1701.684	1.13	1129.5	observe	Run2	observe/STIM_008.jpg	100
1705.245	1.352	1352.1	observe	Run2	observe/STIM_009.jpg	100
1709.73	1.4	1399.5	observe	Run2	observe/STIM_009.jpg	100
1714.367	0.882	881.6	observe	Run2	observe/STIM_009.jpg	99
1718.165	1.454	1453.6	observe	Run2	observe/STIM_009.jpg	99
1722.046	0.859	858.7	observe	Run2	observe/STIM_010.jpg	99
1726.335	1.399	1398.6	observe	Run2	observe/STIM_010.jpg	100
1730.671	1.137	1137.2	observe	Run2	observe/STIM_010.jpg	100
1734.152	0.825	824.8	observe	Run2	observe/STIM_010.jpg	99
1738.367	0.722	722.1	observe	Run2	observe/STIM_011.jpg	100
1741.363	0.956	955.7	observe	Run2	observe/STIM_011.jpg	99
1744.788	1.116	1116.0	observe	Run2	observe/STIM_011.jpg	99
1749.742	1.052	1052.2	observe	Run2	observe/STIM_011.jpg	99
1754.811	0.906	905.8	observe	Run2	observe/STIM_012.jpg	99
1759.149	0.938	938.0	observe	Run2	observe/STIM_012.jpg	100
1763.576	1.205	1204.8	observe	Run2	observe/STIM_012.jpg	100
1768.065	1.058	1057.9	observe	Run2	observe/STIM_012.jpg	99
1772.395	1.293	1292.8	observe	Run2	observe/STIM_013.jpg	100
1775.831	1.448	1447.8	observe	Run2	observe/STIM_013.jpg	99
1779.575	1.3	1300.2	observe	Run2	observe/STIM_013.jpg	99
1783.363	1.367	1367.3	observe	Run2	observe/STIM_013.jpg	99
1788.332	1.333	1333.0	observe	Run2	observe/STIM_014.jpg	99
1792.587	1.401	1401.1	observe	Run2	observe/STIM_014.jpg	100
1797.379	1.215	1215.4	observe	Run2	observe/STIM_014.jpg	99
1801.121	0.85	849.8	observe	Run2	observe/STIM_014.jpg	99
1805.693	1.203	1203.4	observe	Run2	observe/STIM_015.jpg	99
1809.174	1.044	1044.1	observe	Run2	observe/STIM_015.jpg	99
1813.351	1.34	1340.0	observe	Run2	observe/STIM_015.jpg	100
1817.15	0.73	729.5	observe	Run2	observe/STIM_015.jpg	99
1820.108	1.393	1393.1	observe	Run2	observe/STIM_016.jpg	100
1824.819	0.994	994.4	observe	Run2	observe/STIM_016.jpg	100
1827.896	1.038	1037.7	observe	Run2	observe/STIM_016.jpg	100
1831.242	1.13	1130.5	observe	Run2	observe/STIM_016.jpg	99
1836.022	1.041	1041.1	observe	Run2	observe/STIM_017.jpg	99
1840.445	1.314	1314.3	observe	Run2	observe/STIM_017.jpg	99
1845.361	1.127	1127.0	observe	Run2	observe/STIM_017.jpg	100
1848.756	0.899	898.7	observe	Run2	observe/STIM_017.jpg	100
1852.909	0.81	809.9	observe	Run2	observe/STIM_018.jpg	100
1856.416	0.958	957.9	observe	Run2	observe/STIM_018.jpg	100
1859.631	0.951	951.1	observe	Run2	observe/STIM_018.jpg	99
1864.055	0.815	815.4	observe	Run2	observe/STIM_018.jpg	99
1867.772	0.979	979.4	observe	Run2	observe/STIM_019.jpg	99
1872.797	1.163	1163.0	observe	Run2	observe/STIM_019.jpg	100
1876.07	1.276	1275.7	observe	Run2	observe/STIM_019.jpg	100
1879.931	1.269	1268.9	observe	Run2	observe/STIM_019.jpg	100
1884.004	1.166	1165.8	regulate	Run3	regulate/STIM_000.jpg	99
1888.986	1.378	1377.8	regulate	Run3	regulate/STIM_000.jpg	99
1894.211	1.238	1238.4	regulate	Run3	regulate/STIM_000.jpg	99
1897.837	1.992	1992.1	regulate	Run3	regulate/STIM_000.jpg	99
1903.535	1.071	1071.3	regulate	Run3	regulate/STIM_001.jpg	99
1907.475	2.243	2243.3	regulate	Run3	regulate/STIM_001.jpg	99
1912.543	1.624	1624.4	regulate	Run3	regulate/STIM_001.jpg	99
1918.216	1.432	1432.0	regulate	Run3	regulate/STIM_001.jpg	99
1923.703	2.202	2201.7	regulate	Run3	regulate/STIM_002.jpg	100
1928.245	0.981	980.9	regulate	Run3	regulate/STIM_002.jpg	100
1932.262	1.462	1461.7	regulate	Run3	regulate/STIM_002.jpg	99
1937.487	1.518	1517.7	regulate	Run3	regulate/STIM_002.jpg	99
1942.309	1.63	1630.5	regulate	Run3	regulate/STIM_003.jpg	100
1947.342	1.656	1656.3	regulate	Run3	regulate/STIM_003.jpg	100
1951.616	2.285	2285.4	regulate	Run3	regulate/STIM_003.jpg	99
1957.552	1.07	1070.5	regulate	Run3	regulate/STIM_003.jpg	100
1962.082	0.993	993.2	regulate	Run3	regulate/STIM_004.jpg	100
1965.594	1.781	1781.0	regulate	Run3	regulate/STIM_004.jpg	99
1970.466	2.169	2168.9	regulate	Run3	regulate/STIM_004.jpg	99
1975.495	1.002	1002.1	regulate	Run3	regulate/STIM_004.jpg	100
1980.166	1.405	1405.3	regulate	Run3	regulate/STIM_005.jpg	100
1984.127	2.142	2141.8	regulate	Run3	regulate/STIM_005.jpg	100
1989.188	1.57	1569.5	regulate	Run3	regulate/STIM_005.jpg	100
1993.965	1.923	1923.4	regulate	Run3	regulate/STIM_005.jpg	100
1998.107	1.028	1027.5	regulate	Run3	regulate/STIM_006.jpg	100
2001.932	1.975	1975.4	regulate	Run3	regulate/STIM_006.jpg	99
2007.344	0.996	996.4	regulate	Run3	regulate/STIM_006.jpg	100
2012.406	2.124	2123.9	regulate	Run3	regulate/STIM_006.jpg	100
2017.939	1.525	1524.6	regulate	Run3	regulate/STIM_007.jpg	100
2023.366	1.243	1242.6	regulate	Run3	regulate/STIM_007.jpg	100
2028.625	2.043	2042.8	regulate	Run3	regulate/STIM_007.jpg	99
2033.691	2.218	2218.3	regulate	Run3	regulate/STIM_007.jpg	99
2038.764	1.134	1133.8	regulate	Run3	regulate/STIM_008.jpg	99
2043.653	1.925	1925.1	regulate	Run3	regulate/STIM_008.jpg	99
2049.692	1.783	1783.2	regulate	Run3	regulate/STIM_008.jpg	100
2055.127	1.568	1567.6	regulate	Run3	regulate/STIM_008.jpg	100
2060.74	0.97	969.6	regulate	Run3	regulate/STIM_009.jpg	99
2064.434	2.213	2212.7	regulate	Run3	regulate/STIM_009.jpg	100
2069.456	1.695	1695.4	regulate	Run3	regulate/STIM_009.jpg	99
2074.831	0.994	994.1	regulate	Run3	regulate/STIM_009.jpg	99
2078.65	1.176	1176.5	regulate	Run3	regulate/STIM_010.jpg	99
2082.441	1.289	1289.0	regulate	Run3	regulate/STIM_010.jpg	99
2087.017	1.137	1137.3	regulate	Run3	regulate/STIM_010.jpg	99
2091.157	2.139	2139.0	regulate	Run3	regulate/STIM_010.jpg	100
2095.58	1.292	1291.9	regulate	Run3	regulate/STIM_011.jpg	100
2099.238	1.175	1175.2	regulate	Run3	regulate/STIM_011.jpg	99
2103.568	1.206	1206.2	regulate	Run3	regulate/STIM_011.jpg	99
2107.005	2.236	2236.1	regulate	Run3	regulate/STIM_011.jpg	99
2112.509	2.032	2032.4	regulate	Run3	regulate/STIM_012.jpg	99
2117.381	1.381	1380.8	regulate	Run3	regulate/STIM_012.jpg	100
2120.916	1.022	1021.8	regulate	Run3	regulate/STIM_012.jpg	100
2124.937	1.166	1166.0	regulate	Run3	regulate/STIM_012.jpg	99
2128.502	2.032	2032.4	regulate	Run3	regulate/STIM_013.jpg	100
2133.702	1.51	1509.9	regulate	Run3	regulate/STIM_013.jpg	99
2138.092	1.155	1155.2	regulate	Run3	regulate/STIM_013.jpg	100
2142.35	1.694	1693.8	regulate	Run3	regulate/STIM_013.jpg	99
2147.495	1.677	1677.3	regulate	Run3	regulate/STIM_014.jpg	100
2151.779	1.841	1840.6	regulate	Run3	regulate/STIM_014.jpg	100
2156.583	1.07	1070.3	regulate	Run3	regulate/STIM_014.jpg	100
2161.648	1.01	1010.2	regulate	Run3	regulate/STIM_014.jpg	100
2165.382	1.967	1967.2	regulate	Run3	regulate/STIM_015.jpg	100
2170.399	1.744	1743.7	regulate	Run3	regulate/STIM_015.jpg	100
2174.535	1.39	1390.5	regulate	Run3	regulate/STIM_015.jpg	100
2178.611	1.106	1105.9	regulate	Run3	regulate/STIM_015.jpg	99
2182.707	1.798	1798.2	regulate	Run3	regulate/STIM_016.jpg	100
2186.926	2.011	2010.8	regulate	Run3	regulate/STIM_016.jpg	100
2191.199	1.459	1458.7	regulate	Run3	regulate/STIM_016.jpg	99
2194.942	1.319	1319.4	regulate	Run3	regulate/STIM_016.jpg	99
2200.044	1.639	1638.8	regulate	Run3	regulate/STIM_017.jpg	100
2204.99	1.206	1205.6	regulate	Run3	regulate/STIM_017.jpg	100
2208.472	2.037	2037.1	regulate	Run3	regulate/STIM_017.jpg	100
2212.762	2.126	2125.7	regulate	Run3	regulate/STIM_017.jpg	99
2217.134	2.078	2078.0	regulate	Run3	regulate/STIM_018.jpg	100
2222.221	1.114	1113.6	regulate	Run3	regulate/STIM_018.jpg	100
2227.272	1.853	1853.4	regulate	Run3	regulate/STIM_018.jpg	100
2232.341	1.457	1457.1	regulate	Run3	regulate/STIM_018.jpg	99
2236.963	1.752	1752.3	regulate	Run3	regulate/STIM_019.jpg	99
2241.733	1.468	1467.7	regulate	Run3	regulate/STIM_019.jpg	99
2246.949	1.868	1867.8	regulate	Run3	regulate/STIM_019.jpg	99
2251.311	1.109	1109.4	regulate	Run3	regulate/STIM_019.jpg	99
2255.768	1.108	1108.2	regulate	Run3	regulate/STIM_020.jpg	100
2260.473	1.457	1457.3	regulate	Run3	regulate/STIM_020.jpg	99
2265.857	1.996	1996.1	regulate	Run3	regulate/STIM_020.jpg	99
2270.238	1.57	1570.2	regulate	Run3	regulate/STIM_020.jpg	100
2274.123	2.192	2192.2	regulate	Run3	regulate/STIM_021.jpg	100
2279.326	1.168	1168.5	regulate	Run3	regulate/STIM_021.jpg	100
2283.421	1.199	1198.7	regulate	Run3	regulate/STIM_021.jpg	99
2287.561	1.644	1643.7	regulate	Run3	regulate/STIM_021.jpg	99
2291.456	1.225	1224.9	regulate	Run3	regulate/STIM_022.jpg	100
2295.505	1.521	1521.4	regulate	Run3	regulate/STIM_022.jpg	99
2299.693	1.339	1339.3	regulate	Run3	regulate/STIM_022.jpg	100
2304.562	1.078	1078.5	regulate	Run3	regulate/STIM_022.jpg	100
2309.175	1.445	1444.8	regulate	Run3	regulate/STIM_023.jpg	100
2313.43	1.525	1525.1	regulate	Run3	regulate/STIM_023.jpg	100
2318.67	1.382	1382.1	regulate	Run3	regulate/STIM_023.jpg	100
2323.848	1.349	1349.1	regulate	Run3	regulate/STIM_023.jpg	100
2328.812	1.153	1153.0	regulate	Run3	regulate/STIM_024.jpg	99
2333.716	1.878	1878.1	regulate	Run3	regulate/STIM_024.jpg	100
2339.39	2.128	2127.8	regulate	Run3	regulate/STIM_024.jpg	99
2343.868	1.537	1537.0	regulate	Run3	regulate/STIM_024.jpg	99
2347.813	1.291	1291.3	regulate	Run3	regulate/STIM_025.jpg	99
2352.91	1.377	1377.3	regulate	Run3	regulate/STIM_025.jpg	99
2356.52	1.353	1352.7	regulate	Run3	regulate/STIM_025.jpg	99
2361.251	2.134	2133.6	regulate	Run3	regulate/STIM_025.jpg	99
2365.472	1.005	1005.1	regulate	Run3	regulate/STIM_026.jpg	99
2369.005	1.844	1843.8	regulate	Run3	regulate/STIM_026.jpg	100
2374.501	1.929	1928.9	regulate	Run3	regulate/STIM_026.jpg	99
2379.982	1.662	1662.3	regulate	Run3	regulate/STIM_026.jpg	100
2384.033	1.183	1183.0	regulate	Run3	regulate/STIM_027.jpg	100
2388.521	1.571	1571.2	regulate	Run3	regulate/STIM_027.jpg	99
2393.662	1.017	1017.0	regulate	Run3	regulate/STIM_027.jpg	99
2397.577	1.494	1493.9	regulate	Run3	regulate/STIM_027.jpg	100
2401.793	1.024	1024.3	regulate	Run3	regulate/STIM_028.jpg	99
2406.8	1.999	1998.9	regulate	Run3	regulate/STIM_028.jpg	99
2411.56	1.447	1447.0	regulate	Run3	regulate/STIM_028.jpg	99
2416.013	2.144	2143.9	regulate	Run3	regulate/STIM_028.jpg	100
2420.398	2.192	2192.3	regulate	Run3	regulate/STIM_029.jpg	100
2425.693	1.848	1847.7	regulate	Run3	regulate/STIM_029.jpg	100
2430.182	2.175	2175.2	regulate	Run3	regulate/STIM_029.jpg	100
2436.274	1.071	1070.8	regulate	Run3	regulate/STIM_029.jpg	100
2440.311	0.861	860.8	observe	Run3	observe/STIM_000.jpg	100
2444.842	1.349	1349.4	observe	Run3	observe/STIM_000.jpg	100
2449.479	1.09	1089.6	observe	Run3	observe/STIM_000.jpg	100
2452.751	1.357	1357.3	observe	Run3	observe/STIM_000.jpg	99
2457.385	1.131	1130.8	observe	Run3	observe/STIM_001.jpg	99
2461.427	1.485	1484.9	observe	Run3	observe/STIM_001.jpg	99
2465.129	1.136	1136.0	observe	Run3	observe/STIM_001.jpg	99
2470.042	1.363	1363.2	observe	Run3	observe/STIM_001.jpg	100
2475.14	1.403	1403.4	observe	Run3	observe/STIM_002.jpg	100
2480.579	1.244	1244.3	observe	Run3	observe/STIM_002.jpg	100
2485.48	0.846	845.5	observe	Run3	observe/STIM_002.jpg	99
2488.86	1.24	1240.2	observe	Run3	observe/STIM_002.jpg	99
2492.956	0.78	780.1	observe	Run3	observe/STIM_003.jpg	100
2496.399	1.03	1029.7	observe	Run3	observe/STIM_003.jpg	100
2499.868	1.339	1338.7	observe	Run3	observe/STIM_003.jpg	100
2503.779	1.03	1029.5	observe	Run3	observe/STIM_003.jpg	99
2507.967	0.772	771.5	observe	Run3	observe/STIM_004.jpg	100
2511.005	0.879	879.4	observe	Run3	observe/STIM_004.jpg	99
2515.488	0.887	886.7	observe	Run3	observe/STIM_004.jpg	99
2519.817	0.97	969.6	observe	Run3	observe/STIM_004.jpg	100
2523.145	1.219	1218.8	observe	Run3	observe/STIM_005.jpg	100
2526.813	0.982	982.5	observe	Run3	observe/STIM_005.jpg	100
2530.7	1.056	1056.5	observe	Run3	observe/STIM_005.jpg	99
2534.354	1.053	1053.0	observe	Run3	observe/STIM_005.jpg	100
2538.832	0.718	717.9	observe	Run3	observe/STIM_006.jpg	100
2543.127	0.952	952.2	observe	Run3	observe/STIM_006.jpg	100
2547.849	1.36	1360.0	observe	Run3	observe/STIM_006.jpg	99
2553.045	0.923	923.2	observe	Run3	observe/STIM_006.jpg	100
2557.573	1.345	1345.2	observe	Run3	observe/STIM_007.jpg	99
2562.899	0.946	946.4	observe	Run3	observe/STIM_007.jpg	100
2567.511	1.262	1262.0	observe	Run3	observe/STIM_007.jpg	100
2572.318	1.043	1042.8	observe	Run3	observe/STIM_007.jpg	99
2575.796	1.324	1323.9	observe	Run3	observe/STIM_008.jpg	99
2579.375	1.382	1382.2	observe	Run3	observe/STIM_008.jpg	99
2584.428	0.944	944.5	observe	Run3	observe/STIM_008.jpg	100
2588.341	1.132	1131.6	observe	Run3	observe/STIM_008.jpg	100
2593.32	1.034	1033.8	observe	Run3	observe/STIM_009.jpg	100
2598.392	1.35	1350.0	observe	Run3	observe/STIM_009.jpg	99
2603.384	1.327	1326.6	observe	Run3	observe/STIM_009.jpg	99
2608.565	0.883	883.4	observe	Run3	observe/STIM_009.jpg	99
2612.699	0.912	912.0	observe	Run3	observe/STIM_010.jpg	99
2616.937	0.809	809.3	observe	Run3	observe/STIM_010.jpg	99
2621.298	1.093	1093.2	observe	Run3	observe/STIM_010.jpg	100
2625.45	1.261	1261.3	observe	Run3	observe/STIM_010.jpg	99
2629.016	0.899	899.3	observe	Run3	observe/STIM_011.jpg	100
2632.539	0.874	874.5	observe	Run3	observe/STIM_011.jpg	99
2636.907	0.901	901.1	observe	Run3	observe/STIM_011.jpg	100
2641.032	1.365	1365.2	observe	Run3	observe/STIM_011.jpg	100
2646.077	1.236	1236.2	observe	Run3	observe/STIM_012.jpg	100
2650.017	1.274	1273.6	observe	Run3	observe/STIM_012.jpg	100
2653.568	1.474	1474.0	observe	Run3	observe/STIM_012.jpg	100
2657.221	1.066	1066.5	observe	Run3	observe/STIM_012.jpg	99
2661.019	1.288	1288.1	observe	Run3	observe/STIM_013.jpg	99
2664.933	0.888	888.2	observe	Run3	observe/STIM_013.jpg	100
2668.57	1.353	1352.8	observe	Run3	observe/STIM_013.jpg	100
2673.795	1.122	1122.5	observe	Run3	observe/STIM_013.jpg	99
2678.377	0.86	859.7	observe	Run3	observe/STIM_014.jpg	100
2681.991	1.401	1400.6	observe	Run3	observe/STIM_014.jpg	100
2685.853	1.051	1051.3	observe	Run3	observe/STIM_014.jpg	100
2690.245	1.038	1038.1	observe	Run3	observe/STIM_014.jpg	100
2694.011	1.056	1055.9	observe	Run3	observe/STIM_015.jpg	100
2699.063	1.372	1372.1	observe	Run3	observe/STIM_015.jpg	100
2704.582	1.188	1187.7	observe	Run3	observe/STIM_015.jpg	100
2709.486	1.273	1273.1	observe	Run3	observe/STIM_015.jpg	100
2714.722	1.039	1038.9	observe	Run3	observe/STIM_016.jpg	99
2719.438	1.397	1396.7	observe	Run3	observe/STIM_016.jpg	100
2724.289	0.906	906.1	observe	Run3	observe/STIM_016.jpg	99
2728.954	0.851	851.0	observe	Run3	observe/STIM_016.jpg	99
2732.869	0.748	747.5	observe	Run3	observe/STIM_017.jpg	99
2736.365	1.048	1048.0	observe	Run3	observe/STIM_017.jpg	100
2740.224	0.743	743.4	observe	Run3	observe/STIM_017.jpg	99
2743.375	1.292	1292.0	observe	Run3	observe/STIM_017.jpg	99
2747.964	0.867	866.9	observe	Run3	observe/STIM_018.jpg	99
2751.074	1.086	1086.0	observe	Run3	observe/STIM_018.jpg	99
2755.79	0.857	856.7	observe	Run3	observe/STIM_018.jpg	100
2759.106	1.285	1285.4	observe	Run3	observe/STIM_018.jpg	99
2763.121	0.938	938.4	observe	Run3	observe/STIM_019.jpg	99
2767.572	1.134	1134.5	observe	Run3	observe/STIM_019.jpg	99
2772.014	1.152	1151.6	observe	Run3	observe/STIM_019.jpg	100
2776.37	0.948	948.0	observe	Run3	observe/STIM_019.jpg	100
