onset	duration	response_time_ms	trial_type	learning_stage	stimulus	response_port
0.0	2.041	2041.2	regulate	Run1	regulate/STIM_000.jpg	99
4.283	1.938	1937.7	regulate	Run1	regulate/STIM_000.jpg	99
9.516	1.982	1982.4	regulate	Run1	regulate/STIM_000.jpg	99
14.094	1.268	1267.7	regulate	Run1	regulate/STIM_000.jpg	100
17.582	3.169	3168.7	regulate	Run1	regulate/STIM_001.jpg	99
23.245	2.245	2244.8	regulate	Run1	regulate/STIM_001.jpg	99
28.782	1.694	1694.5	regulate	Run1	regulate/STIM_001.jpg	99
33.816	1.848	1848.2	regulate	Run1	regulate/STIM_001.jpg	99
39.206	1.633	1633.1	regulate	Run1	regulate/STIM_002.jpg	100
43.32	1.465	1464.9	regulate	Run1	regulate/STIM_002.jpg	99
48.136	2.142	2141.9	regulate	Run1	regulate/STIM_002.jpg	100
52.574	2.595	2595.3	regulate	Run1	regulate/STIM_002.jpg	99
57.226	2.726	2726.2	regulate	Run1	regulate/STIM_003.jpg	100
62.334	1.39	1390.1	regulate	Run1	regulate/STIM_003.jpg	99
67.023	1.333	1332.6	regulate	Run1	regulate/STIM_003.jpg	100
71.21	2.452	2452.5	regulate	Run1	regulate/STIM_003.jpg	99
76.976	3.338	3337.6	regulate	Run1	regulate/STIM_004.jpg	100
82.698	3.042	3042.1	regulate	Run1	regulate/STIM_004.jpg	99
88.298	1.721	1720.7	regulate	Run1	regulate/STIM_004.jpg	100
93.294	2.129	2129.3	regulate	Run1	regulate/STIM_004.jpg	100
98.158	2.224	2223.5	regulate	Run1	regulate/STIM_005.jpg	99
102.844	1.74	1740.2	regulate	Run1	regulate/STIM_005.jpg	99
108.225	2.023	2023.1	regulate	Run1	regulate/STIM_005.jpg	99
113.677	1.426	1425.7	regulate	Run1	regulate/STIM_005.jpg	99
117.315	2.654	2653.8	regulate	Run1	regulate/STIM_006.jpg	100
122.157	2.358	2357.5	regulate	Run1	regulate/STIM_006.jpg	99
127.206	1.576	1576.2	regulate	Run1	regulate/STIM_006.jpg	99
131.726	2.598	2597.7	regulate	Run1	regulate/STIM_006.jpg	99
137.868	1.956	1955.6	regulate	Run1	regulate/STIM_007.jpg	100
143.211	2.118	2118.0	regulate	Run1	regulate/STIM_007.jpg	100
149.043	1.489	1489.4	regulate	Run1	regulate/STIM_007.jpg	100
153.648	2.314	2313.5	regulate	Run1	regulate/STIM_007.jpg	100
158.965	1.932	1932.2	regulate	Run1	regulate/STIM_008.jpg	99
164.003	1.527	1526.7	regulate	Run1	regulate/STIM_008.jpg	99
168.099	2.738	2738.4	regulate	Run1	regulate/STIM_008.jpg	99
173.815	1.89	1889.5	regulate	Run1	regulate/STIM_008.jpg	100
178.477	3.192	3192.3	regulate	Run1	regulate/STIM_009.jpg	100
183.755	2.151	2150.9	regulate	Run1	regulate/STIM_009.jpg	100
189.04	1.403	1403.2	regulate	Run1	regulate/STIM_009.jpg	100
192.905	2.37	2369.5	regulate	Run1	regulate/STIM_009.jpg	99
199.187	3.305	3305.1	regulate	Run1	regulate/STIM_010.jpg	99
206.32	1.748	1747.6	regulate	Run1	regulate/STIM_010.jpg	99
211.294	2.64	2639.9	regulate	Run1	regulate/STIM_010.jpg	99
217.77	1.347	1347.0	regulate	Run1	regulate/STIM_010.jpg	99
221.125	1.751	1751.0	regulate	Run1	regulate/STIM_011.jpg	100
225.221	1.438	1438.4	regulate	Run1	regulate/STIM_011.jpg	100
230.331	1.555	1555.4	regulate	Run1	regulate/STIM_011.jpg	100
234.081	2.615	2614.8	regulate	Run1	regulate/STIM_011.jpg	99
239.04	1.512	1512.1	regulate	Run1	regulate/STIM_012.jpg	100
244.496	1.94	1939.5	regulate	Run1	regulate/STIM_012.jpg	100
248.594	1.558	1558.2	regulate	Run1	regulate/STIM_012.jpg	100
253.298	2.052	2052.1	regulate	Run1	regulate/STIM_012.jpg	100
258.267	3.332	3332.0	regulate	Run1	regulate/STIM_013.jpg	100
264.106	2.72	2719.7	regulate	Run1	regulate/STIM_013.jpg	99
269.568	2.375	2374.8	regulate	Run1	regulate/STIM_013.jpg	100
275.209	2.322	2321.8	regulate	Run1	regulate/STIM_013.jpg	100
280.376	2.34	2340.5	regulate	Run1	regulate/STIM_014.jpg	99
286.125	2.236	2235.8	regulate	Run1	regulate/STIM_014.jpg	99
291.363	1.962	1961.7	regulate	Run1	regulate/STIM_014.jpg	99
296.463	2.507	2507.4	regulate	Run1	regulate/STIM_014.jpg	99
302.354	1.999	1999.1	regulate	Run1	regulate/STIM_015.jpg	99
307.786	1.444	1444.5	regulate	Run1	regulate/STIM_015.jpg	99
313.178	2.458	2458.1	regulate	Run1	regulate/STIM_015.jpg	100
318.111	2.742	2742.2	regulate	Run1	regulate/STIM_015.jpg	100
324.028	2.111	2111.1	regulate	Run1	regulate/STIM_016.jpg	100
330.124	2.64	2640.0	regulate	Run1	regulate/STIM_016.jpg	99
336.332	2.646	2646.1	regulate	Run1	regulate/STIM_016.jpg	99
341.551	2.128	2128.3	regulate	Run1	regulate/STIM_016.jpg	99
345.997	2.065	2065.4	regulate	Run1	regulate/STIM_017.jpg	99
350.421	1.602	1602.4	regulate	Run1	regulate/STIM_017.jpg	100
355.57	2.604	2603.7	regulate	Run1	regulate/STIM_017.jpg	99
362.103	1.932	1931.5	regulate	Run1	regulate/STIM_017.jpg	100
367.11	1.659	1658.7	regulate	Run1	regulate/STIM_018.jpg	99
372.407	2.489	2489.2	regulate	Run1	regulate/STIM_018.jpg	100
378.212	2.864	2864.3	regulate	Run1	regulate/STIM_018.jpg	99
383.322	2.107	2106.6	regulate	Run1	regulate/STIM_018.jpg	99
388.079	2.473	2472.7	regulate	Run1	regulate/STIM_019.jpg	100
393.871	2.672	2672.5	regulate	Run1	regulate/STIM_019.jpg	100
400.259	1.773	1772.6	regulate	Run1	regulate/STIM_019.jpg	99
404.751	1.32	1319.6	regulate	Run1	regulate/STIM_019.jpg	100
409.471	3.342	3342.2	regulate	Run1	regulate/STIM_020.jpg	100
416.326	1.519	1519.4	regulate	Run1	regulate/STIM_020.jpg	100
420.91	2.48	2479.5	regulate	Run1	regulate/STIM_020.jpg	99
425.868	2.443	2442.7	regulate	Run1	regulate/STIM_020.jpg	99
431.543	1.477	1477.1	regulate	Run1	regulate/STIM_021.jpg	100
435.284	1.952	1952.3	regulate	Run1	regulate/STIM_021.jpg	99
441.085	2.154	2154.4	regulate	Run1	regulate/STIM_021.jpg	99
447.14	2.546	2546.4	regulate	Run1	regulate/STIM_021.jpg	100
452.339	1.842	1841.8	regulate	Run1	regulate/STIM_022.jpg	99
457.416	1.709	1709.3	regulate	Run1	regulate/STIM_022.jpg	99
461.254	2.193	2192.8	regulate	Run1	regulate/STIM_022.jpg	99
467.018	1.688	1688.1	regulate	Run1	regulate/STIM_022.jpg	99
471.949	1.456	1455.7	regulate	Run1	regulate/STIM_023.jpg	99
476.28	2.237	2236.8	regulate	Run1	regulate/STIM_023.jpg	99
481.779	1.401	1401.0	regulate	Run1	regulate/STIM_023.jpg	100
487.167	1.807	1806.7	regulate	Run1	regulate/STIM_023.jpg	100
491.863	3.084	3084.1	regulate	Run1	regulate/STIM_024.jpg	100
497.554	3.152	3152.0	regulate	Run1	regulate/STIM_024.jpg	100
503.093	2.135	2134.9	regulate	Run1	regulate/STIM_024.jpg	99
507.788	2.467	2467.4	regulate	Run1	regulate/STIM_024.jpg	99
512.57	3.038	3038.3	regulate	Run1	regulate/STIM_025.jpg	100
518.76	2.785	2784.6	regulate	Run1	regulate/STIM_025.jpg	100
525.298	2.322	2322.5	regulate	Run1	regulate/STIM_025.jpg	100
531.261	2.857	2857.3	regulate	Run1	regulate/STIM_025.jpg	99
537.604	1.689	1688.8	regulate	Run1	regulate/STIM_026.jpg	100
542.193	1.756	1756.1	regulate	Run1	regulate/STIM_026.jpg	99
546.744	1.721	1720.8	regulate	Run1	regulate/STIM_026.jpg	99
552.464	2.772	2772.5	regulate	Run1	regulate/STIM_026.jpg	99
558.85	2.853	2852.9	regulate	Run1	regulate/STIM_027.jpg	100
564.488	1.458	1457.8	regulate	Run1	regulate/STIM_027.jpg	100
568.779	1.356	1356.2	regulate	Run1	regulate/STIM_027.jpg	99
572.951	2.428	2427.8	regulate	Run1	regulate/STIM_027.jpg	100
579.104	1.954	1953.8	regulate	Run1	regulate/STIM_028.jpg	100
584.697	3.015	3015.2	regulate	Run1	regulate/STIM_028.jpg	99
590.355	2.437	2437.1	regulate	Run1	regulate/STIM_028.jpg	99
596.465	2.76	2760.0	regulate	Run1	regulate/STIM_028.jpg	100
602.762	1.938	1938.1	regulate	Run1	regulate/STIM_029.jpg	99
608.613	2.354	2353.8	regulate	Run1	regulate/STIM_029.jpg	99
614.764	2.037	2036.5	regulate	Run1	regulate/STIM_029.jpg	100
618.828	1.876	1875.8	regulate	Run1	regulate/STIM_029.jpg	100
623.802	1.084	1084.2	observe	Run1	observe/STIM_000.jpg	99
627.404	0.826	825.8	observe	Run1	observe/STIM_000.jpg	100
631.837	1.228	1228.3	observe	Run1	observe/STIM_000.jpg	100
635.792	1.409	1408.7	observe	Run1	observe/STIM_000.jpg	99
639.494	0.918	917.9	observe	Run1	observe/STIM_001.jpg	99
642.624	1.154	1154.1	observe	Run1	observe/STIM_001.jpg	99
646.117	1.372	1372.5	observe	Run1	observe/STIM_001.jpg	100
650.146	0.788	788.4	observe	Run1	observe/STIM_001.jpg	100
654.143	1.29	1289.6	observe	Run1	observe/STIM_002.jpg	99
659.397	1.287	1287.3	observe	Run1	observe/STIM_002.jpg	99
663.912	0.9	900.0	observe	Run1	observe/STIM_002.jpg	100
666.937	1.236	1235.9	observe	Run1	observe/STIM_002.jpg	99
672.171	0.973	973.1	observe	Run1	observe/STIM_003.jpg	99
675.548	1.49	1489.7	observe	Run1	observe/STIM_003.jpg	99
680.947	1.159	1159.4	observe	Run1	observe/STIM_003.jpg	99
684.25	1.293	1292.8	observe	Run1	observe/STIM_003.jpg	100
688.467	1.236	1236.2	observe	Run1	observe/STIM_004.jpg	100
692.627	0.854	853.7	observe	Run1	observe/STIM_004.jpg	99
697.275	1.066	1066.2	observe	Run1	observe/STIM_004.jpg	100
701.232	1.473	1473.2	observe	Run1	observe/STIM_004.jpg	99
704.82	1.467	1466.9	observe	Run1	observe/STIM_005.jpg	99
709.372	1.21	1210.3	observe	Run1	observe/STIM_005.jpg	99
712.627	1.284	1284.5	observe	Run1	observe/STIM_005.jpg	99
716.481	1.016	1016.4	observe	Run1	observe/STIM_005.jpg	100
719.646	1.451	1451.1	observe	Run1	observe/STIM_006.jpg	100
724.836	1.392	1392.3	observe	Run1	observe/STIM_006.jpg	99
730.036	0.814	813.9	observe	Run1	observe/STIM_006.jpg	99
733.062	1.46	1460.3	observe	Run1	observe/STIM_006.jpg	99
737.813	1.426	1426.2	observe	Run1	observe/STIM_007.jpg	100
743.117	0.881	881.2	observe	Run1	observe/STIM_007.jpg	99
747.171	0.865	864.8	observe	Run1	observe/STIM_007.jpg	99
750.818	1.319	1319.2	observe	Run1	observe/STIM_007.jpg	100
754.521	1.394	1394.5	observe	Run1	observe/STIM_008.jpg	100
759.524	1.196	1195.6	observe	Run1	observe/STIM_008.jpg	99
762.727	1.424	1424.2	observe	Run1	observe/STIM_008.jpg	100
766.601	1.434	1434.2	observe	Run1	observe/STIM_008.jpg	99
770.092	1.107	1106.8	observe	Run1	observe/STIM_009.jpg	99
774.929	1.375	1375.0	observe	Run1	observe/STIM_009.jpg	99
779.461	1.16	1160.3	observe	Run1	observe/STIM_009.jpg	99
783.952	1.187	1186.6	observe	Run1	observe/STIM_009.jpg	100
787.525	0.965	964.7	observe	Run1	observe/STIM_010.jpg	100
791.828	0.948	948.4	observe	Run1	observe/STIM_010.jpg	100
795.631	1.383	1382.7	observe	Run1	observe/STIM_010.jpg	100
799.838	1.119	1119.1	observe	Run1	observe/STIM_010.jpg	99
803.764	1.382	1382.1	observe	Run1	observe/STIM_011.jpg	100
808.07	1.356	1355.9	observe	Run1	observe/STIM_011.jpg	99
811.475	1.203	1202.8	observe	Run1	observe/STIM_011.jpg	99
814.73	1.107	1107.3	observe	Run1	observe/STIM_011.jpg	100
819.306	0.868	868.0	observe	Run1	observe/STIM_012.jpg	99
822.307	1.052	1051.7	observe	Run1	observe/STIM_012.jpg	100
827.178	0.792	791.8	observe	Run1	observe/STIM_012.jpg	99
830.811	1.054	1053.9	observe	Run1	observe/STIM_012.jpg	100
834.458	1.092	1092.3	observe	Run1	observe/STIM_013.jpg	99
838.526	1.252	1252.5	observe	Run1	observe/STIM_013.jpg	99
843.362	1.531	1530.8	observe	Run1	observe/STIM_013.jpg	100
847.67	1.265	1264.9	observe	Run1	observe/STIM_013.jpg	100
851.079	1.064	1064.1	observe	Run1	observe/STIM_014.jpg	100
854.933	1.209	1208.8	observe	Run1	observe/STIM_014.jpg	100
858.598	1.387	1387.2	observe	Run1	observe/STIM_014.jpg	99
863.956	1.357	1357.0	observe	Run1	observe/STIM_014.jpg	99
868.149	1.228	1227.8	observe	Run1	observe/STIM_015.jpg	100
872.313	1.497	1497.1	observe	Run1	observe/STIM_015.jpg	100
877.152	0.882	882.2	observe	Run1	observe/STIM_015.jpg	99
881.104	0.986	985.7	observe	Run1	observe/STIM_015.jpg	99
884.127	1.061	1060.9	observe	Run1	observe/STIM_016.jpg	100
887.601	1.236	1235.8	observe	Run1	observe/STIM_016.jpg	100
891.808	1.246	1246.0	observe	Run1	observe/STIM_016.jpg	100
895.071	0.87	869.9	observe	Run1	observe/STIM_016.jpg	100
898.73	0.815	815.3	observe	Run1	observe/STIM_017.jpg	99
902.133	1.425	1425.4	observe	Run1	observe/STIM_017.jpg	100
906.751	0.909	909.0	observe	Run1	observe/STIM_017.jpg	99
910.545	1.432	1431.9	observe	Run1	observe/STIM_017.jpg	100
915.393	1.296	1295.8	observe	Run1	observe/STIM_018.jpg	99
918.757	1.196	1196.5	observe	Run1	observe/STIM_018.jpg	100
923.906	1.065	1065.4	observe	Run1	observe/STIM_018.jpg	99
928.428	0.896	895.9	observe	Run1	observe/STIM_018.jpg	99
933.252	1.099	1098.8	observe	Run1	observe/STIM_019.jpg	99
937.821	1.112	1112.0	observe	Run1	observe/STIM_019.jpg	99
942.771	0.859	858.9	observe	Run1	observe/STIM_019.jpg	99
946.347	1.472	1472.4	observe	Run1	observe/STIM_019.jpg	99
951.193	2.825	2825.1	regulate	Run2	regulate/STIM_000.jpg	100
956.478	1.361	1361.0	regulate	Run2	regulate/STIM_000.jpg	99
960.629	1.163	1162.9	regulate	Run2	regulate/STIM_000.jpg	100
965.668	1.938	1937.5	regulate	Run2	regulate/STIM_000.jpg	99
971.418	2.097	2096.6	regulate	Run2	regulate/STIM_001.jpg	99
977.361	1.665	1664.7	regulate	Run2	regulate/STIM_001.jpg	100
981.063	1.462	1462.2	regulate	Run2	regulate/STIM_001.jpg	100
985.294	1.909	1909.2	regulate	Run2	regulate/STIM_001.jpg	99
990.357	2.075	2074.9	regulate	Run2	regulate/STIM_002.jpg	100
994.648	1.618	1617.5	regulate	Run2	regulate/STIM_002.jpg	99
999.889	2.499	2498.8	regulate	Run2	regulate/STIM_002.jpg	99
1005.891	1.615	1614.7	regulate	Run2	regulate/STIM_002.jpg	99
1010.953	1.467	1466.9	regulate	Run2	regulate/STIM_003.jpg	100
1014.683	1.981	1980.8	regulate	Run2	regulate/STIM_003.jpg	100
1020.66	1.35	1350.2	regulate	Run2	regulate/STIM_003.jpg	100
1024.47	1.563	1563.3	regulate	Run2	regulate/STIM_003.jpg	100
1029.759	2.259	2258.8	regulate	Run2	regulate/STIM_004.jpg	99
1035.755	1.852	1851.8	regulate	Run2	regulate/STIM_004.jpg	99
1040.19	2.354	2354.1	regulate	Run2	regulate/STIM_004.jpg	100
1044.943	1.759	1759.4	regulate	Run2	regulate/STIM_004.jpg	99
1048.898	2.354	2354.4	regulate	Run2	regulate/STIM_005.jpg	99
1053.287	2.434	2434.2	regulate	Run2	regulate/STIM_005.jpg	99
1059.01	1.149	1148.6	regulate	Run2	regulate/STIM_005.jpg	100
1063.99	1.946	1946.3	regulate	Run2	regulate/STIM_005.jpg	99
1069.455	1.679	1678.7	regulate	Run2	regulate/STIM_006.jpg	99
1074.921	2.23	2229.7	regulate	Run2	regulate/STIM_006.jpg	100
1081.094	2.138	2137.7	regulate	Run2	regulate/STIM_006.jpg	100
1085.755	2.227	2227.3	regulate	Run2	regulate/STIM_006.jpg	100
1089.983	2.071	2071.2	regulate	Run2	regulate/STIM_007.jpg	100
1094.792	1.633	1632.7	regulate	Run2	regulate/STIM_007.jpg	99
1098.797	1.611	1611.2	regulate	Run2	regulate/STIM_007.jpg	100
1104.143	1.161	1160.8	regulate	Run2	regulate/STIM_007.jpg	99
1107.32	2.603	2603.1	regulate	Run2	regulate/STIM_008.jpg	99
1113.467	2.52	2519.6	regulate	Run2	regulate/STIM_008.jpg	100
1118.023	1.401	1400.9	regulate	Run2	regulate/STIM_008.jpg	100
1122.817	2.322	2321.6	regulate	Run2	regulate/STIM_008.jpg	100
1128.837	2.101	2100.7	regulate	Run2	regulate/STIM_009.jpg	100
1134.717	1.382	1382.3	regulate	Run2	regulate/STIM_009.jpg	100
1138.276	1.185	1184.7	regulate	Run2	regulate/STIM_009.jpg	100
1143.215	1.324	1324.1	regulate	Run2	regulate/STIM_009.jpg	100
1146.786	1.422	1422.0	regulate	Run2	regulate/STIM_010.jpg	100
1151.113	2.073	2073.0	regulate	Run2	regulate/STIM_010.jpg	99
1155.202	1.489	1488.6	regulate	Run2	regulate/STIM_010.jpg	99
1160.234	2.263	2263.2	regulate	Run2	regulate/STIM_010.jpg	99
1165.978	1.554	1554.1	regulate	Run2	regulate/STIM_011.jpg	99
1169.848	2.678	2678.4	regulate	Run2	regulate/STIM_011.jpg	100
1174.551	1.428	1428.0	regulate	Run2	regulate/STIM_011.jpg	99
1179.29	1.334	1334.2	regulate	Run2	regulate/STIM_011.jpg	100
1184.204	1.537	1537.0	regulate	Run2	regulate/STIM_012.jpg	99
1189.43	2.43	2429.9	regulate	Run2	regulate/STIM_012.jpg	100
1193.95	2.305	2305.0	regulate	Run2	regulate/STIM_012.jpg	99
1198.52	2.259	2259.1	regulate	Run2	regulate/STIM_012.jpg	100
1204.633	1.594	1594.4	regulate	Run2	regulate/STIM_013.jpg	100
1210.043	1.326	1326.2	regulate	Run2	regulate/STIM_013.jpg	100
1214.183	2.463	2462.9	regulate	Run2	regulate/STIM_013.jpg	99
1219.009	1.748	1747.6	regulate	Run2	regulate/STIM_013.jpg	99
1224.015	2.01	2010.3	regulate	Run2	regulate/STIM_014.jpg	99
1228.587	2.257	2257.4	regulate	Run2	regulate/STIM_014.jpg	100
1234.0	1.406	1405.9	regulate	Run2	regulate/STIM_014.jpg	99
1238.698	1.849	1848.7	regulate	Run2	regulate/STIM_014.jpg	99
1243.882	1.504	1503.7	regulate	Run2	regulate/STIM_015.jpg	99
1248.652	1.884	1883.9	regulate	Run2	regulate/STIM_015.jpg	99
1253.4	1.949	1948.8	regulate	Run2	regulate/STIM_015.jpg	100
1257.73	1.084	1083.9	regulate	Run2	regulate/STIM_015.jpg	99
1261.58	2.073	2072.8	regulate	Run2	regulate/STIM_016.jpg	100
1267.262	2.182	2182.0	regulate	Run2	regulate/STIM_016.jpg	99
1272.632	2.414	2413.9	regulate	Run2	regulate/STIM_016.jpg	100
1277.748	1.706	1706.2	regulate	Run2	regulate/STIM_016.jpg	99
1281.461	1.598	1597.7	regulate	Run2	regulate/STIM_017.jpg	99
1285.576	1.927	1927.3	regulate	Run2	regulate/STIM_017.jpg	100
1290.959	2.438	2438.0	regulate	Run2	regulate/STIM_017.jpg	100
1296.779	1.874	1874.4	regulate	Run2	regulate/STIM_017.jpg	100
1302.539	1.377	1376.6	regulate	Run2	regulate/STIM_018.jpg	99
1306.382	2.386	2386.5	regulate	Run2	regulate/STIM_018.jpg	99
1312.381	1.492	1492.1	regulate	Run2	regulate/STIM_018.jpg	100
1315.929	1.629	1629.1	regulate	Run2	regulate/STIM_018.jpg	100
1320.865	1.382	1381.7	regulate	Run2	regulate/STIM_019.jpg	99
1324.683	2.015	2014.7	regulate	Run2	regulate/STIM_019.jpg	99
1329.844	2.514	2513.7	regulate	Run2	regulate/STIM_019.jpg	100
1336.213	1.716	1716.3	regulate	Run2	regulate/STIM_019.jpg	100
1341.465	2.552	2551.8	regulate	Run2	regulate/STIM_020.jpg	100
1347.028	2.221	2221.1	regulate	Run2	regulate/STIM_020.jpg	99
1353.146	2.162	2162.0	regulate	Run2	regulate/STIM_020.jpg	100
1357.747	1.817	1816.6	regulate	Run2	regulate/STIM_020.jpg	100
1361.75	1.693	1692.7	regulate	Run2	regulate/STIM_021.jpg	100
1365.805	1.352	1351.7	regulate	Run2	regulate/STIM_021.jpg	99
1370.065	2.224	2224.4	regulate	Run2	regulate/STIM_021.jpg	99
1375.732	1.284	1284.0	regulate	Run2	regulate/STIM_021.jpg	100
1379.395	2.388	2387.6	regulate	Run2	regulate/STIM_022.jpg	99
1384.184	2.08	2080.1	regulate	Run2	regulate/STIM_022.jpg	99
1389.282	2.144	2144.0	regulate	Run2	regulate/STIM_022.jpg	100
1393.634	2.056	2055.5	regulate	Run2	regulate/STIM_022.jpg	100
1397.821	1.783	1783.3	regulate	Run2	regulate/STIM_023.jpg	99
1402.686	1.89	1890.4	regulate	Run2	regulate/STIM_023.jpg	100
1408.369	1.883	1883.0	regulate	Run2	regulate/STIM_023.jpg	99
1413.17	1.324	1324.5	regulate	Run2	regulate/STIM_023.jpg	100
1418.046	1.488	1487.6	regulate	Run2	regulate/STIM_024.jpg	100
1422.956	2.522	2521.8	regulate	Run2	regulate/STIM_024.jpg	99
1429.298	2.408	2408.4	regulate	Run2	regulate/STIM_024.jpg	99
1435.51	1.15	1149.6	regulate	Run2	regulate/STIM_024.jpg	100
1440.183	1.292	1291.8	regulate	Run2	regulate/STIM_025.jpg	100
1445.295	2.06	2059.6	regulate	Run2	regulate/STIM_025.jpg	100
1451.249	2.205	2204.6	regulate	Run2	regulate/STIM_025.jpg	100
1456.462	2.3	2300.5	regulate	Run2	regulate/STIM_025.jpg	99
1461.451	1.958	1957.9	regulate	Run2	regulate/STIM_026.jpg	99
1467.339	1.311	1310.6	regulate	Run2	regulate/STIM_026.jpg	100
1471.562	2.399	2398.6	regulate	Run2	regulate/STIM_026.jpg	99
1477.337	1.938	1938.2	regulate	Run2	regulate/STIM_026.jpg	100
1481.401	1.831	1831.0	regulate	Run2	regulate/STIM_027.jpg	99
1485.663	2.421	2420.9	regulate	Run2	regulate/STIM_027.jpg	99
1491.103	2.15	2149.8	regulate	Run2	regulate/STIM_027.jpg	100
1495.379	1.634	1634.1	regulate	Run2	regulate/STIM_027.jpg	100
1499.146	2.125	2125.4	regulate	Run2	regulate/STIM_028.jpg	100
1504.975	2.562	2561.6	regulate	Run2	regulate/STIM_028.jpg	100
1510.344	2.02	2020.1	regulate	Run2	regulate/STIM_028.jpg	100
1515.442	2.273	2273.1	regulate	Run2	regulate/STIM_028.jpg	99
1521.353	1.973	1972.6	regulate	Run2	regulate/STIM_029.jpg	99
1526.187	2.33	2330.4	regulate	Run2	regulate/STIM_029.jpg	99
1532.336	2.115	2115.2	regulate	Run2	regulate/STIM_029.jpg	99
1537.405	1.753	1753.4	regulate	Run2	regulate/STIM_029.jpg	100
1541.966	1.181	1181.2	observe	Run2	observe/STIM_000.jpg	100
1546.462	0.922	921.7	observe	Run2	observe/STIM_000.jpg	99
1550.975	1.472	1472.1	observe	Run2	observe/STIM_000.jpg	100
1554.448	1.309	1309.0	observe	Run2	observe/STIM_000.jpg	100
1559.366	1.115	1114.7	observe	Run2	observe/STIM_001.jpg	99
1562.845	1.253	1252.9	observe	Run2	observe/STIM_001.jpg	99
1566.583	1.513	1513.4	observe	Run2	observe/STIM_001.jpg	99
1571.23	1.312	1311.5	observe	Run2	observe/STIM_001.jpg	100
1575.793	0.989	988.8	observe	Run2	observe/STIM_002.jpg	100
1579.617	1.155	1155.1	observe	Run2	observe/STIM_002.jpg	100
1584.709	1.341	1341.1	observe	Run2	observe/STIM_002.jpg	99
1589.866	1.146	1145.9	observe	Run2	observe/STIM_002.jpg	99
1594.431	1.232	1231.7	observe	Run2	observe/STIM_003.jpg	100
1598.15	1.12	1119.6	observe	Run2	observe/STIM_003.jpg	100
1602.986	1.479	1478.8	observe	Run2	observe/STIM_003.jpg	100
1606.719	1.53	1530.4	observe	Run2	observe/STIM_003.jpg	100
1610.471	1.475	1474.9	observe	Run2	observe/STIM_004.jpg	100
1614.532	1.209	1209.4	observe	Run2	observe/STIM_004.jpg	100
1619.056	1.142	1142.2	observe	Run2	observe/STIM_004.jpg	100
1623.398	1.219	1219.1	observe	Run2	observe/STIM_004.jpg	100
1627.693	1.401	1400.8	observe	Run2	observe/STIM_005.jpg	100
1632.428	1.04	1040.3	observe	Run2	observe/STIM_005.jpg	99
1636.503	1.495	1495.4	observe	Run2	observe/STIM_005.jpg	100
1641.191	1.247	1247.0	observe	Run2	observe/STIM_005.jpg	99
1644.841	1.256	1255.9	observe	Run2	observe/STIM_006.jpg	100
1649.488	0.994	993.7	observe	Run2	observe/STIM_006.jpg	99
1653.847	0.889	889.4	observe	Run2	observe/STIM_006.jpg	100
1657.016	0.833	832.8	observe	Run2	observe/STIM_006.jpg	99
1661.163	1.058	1057.5	observe	Run2	observe/STIM_007.jpg	100
1665.261	1.487	1486.9	observe	Run2	observe/STIM_007.jpg	100
1669.701	1.053	1053.1	observe	Run2	observe/STIM_007.jpg	99
1673.153	0.896	896.5	observe	Run2	observe/STIM_007.jpg	99
1676.248	1.088	1088.0	observe	Run2	observe/STIM_008.jpg	99
1680.017	0.974	973.7	observe	Run2	observe/STIM_008.jpg	100
1684.275	1.428	1427.7	observe	Run2	observe/STIM_008.jpg	99
1687.856	1.411	1410.6	observe	Run2	observe/STIM_008.jpg	100
1691.754	0.841	840.7	observe	Run2	observe/STIM_009.jpg	100
1695.977	1.493	1493.3	observe	Run2	observe/STIM_009.jpg	100
1700.277	1.066	1065.9	observe	Run2	observe/STIM_009.jpg	99
1703.647	1.196	1195.7	observe	Run2	observe/STIM_009.jpg	99
1708.073	1.308	1308.4	observe	Run2	observe/STIM_010.jpg	99
1713.058	1.19	1190.4	observe	Run2	observe/STIM_010.jpg	100
1716.48	1.208	1208.4	observe	Run2	observe/STIM_010.jpg	100
1719.919	0.837	837.1	observe	Run2	observe/STIM_010.jpg	99
1723.3	1.416	1416.3	observe	Run2	observe/STIM_011.jpg	100
1727.786	1.021	1021.1	observe	Run2	observe/STIM_011.jpg	99
1730.996	1.097	1096.8	observe	Run2	observe/STIM_011.jpg	99
1735.764	0.865	865.3	observe	Run2	observe/STIM_011.jpg	99
1740.241	1.136	1136.1	observe	Run2	observe/STIM_012.jpg	99
1744.851	1.375	1374.7	observe	Run2	observe/STIM_012.jpg	100
1748.758	1.21	1210.4	observe	Run2	observe/STIM_012.jpg	100
1752.645	1.461	1460.8	observe	Run2	observe/STIM_012.jpg	99
1756.903	1.156	1156.2	observe	Run2	observe/STIM_013.jpg	100
1761.861	1.215	1215.3	observe	Run2	observe/STIM_013.jpg	99
1766.589	1.134	1134.4	observe	Run2	observe/STIM_013.jpg	99
1771.219	0.859	858.6	observe	Run2	observe/STIM_013.jpg	99
1774.775	0.96	959.8	observe	Run2	observe/STIM_014.jpg	99
1778.203	1.356	1355.9	observe	Run2	observe/STIM_014.jpg	100
1783.283	1.343	1343.1	observe	Run2	observe/STIM_014.jpg	99
1787.603	1.156	1156.5	observe	Run2	observe/STIM_014.jpg	99
1792.254	1.204	1203.9	observe	Run2	observe/STIM_015.jpg	99
1797.117	0.857	857.4	observe	Run2	observe/STIM_015.jpg	99
1801.969	1.271	1271.1	observe	Run2	observe/STIM_015.jpg	100
1806.654	1.513	1512.8	observe	Run2	observe/STIM_015.jpg	99
1811.927	1.35	1349.9	observe	Run2	observe/STIM_016.jpg	100
1817.178	1.283	1282.8	observe	Run2	observe/STIM_016.jpg	100
1820.892	1.468	1468.4	observe	Run2	observe/STIM_016.jpg	100
1826.233	0.923	923.1	observe	Run2	observe/STIM_016.jpg	99
1830.885	0.942	942.0	observe	Run2	observe/STIM_017.jpg	99
1835.629	1.039	1039.1	observe	Run2	observe/STIM_017.jpg	99
1839.059	1.253	1252.6	observe	Run2	observe/STIM_017.jpg	100
1842.723	1.012	1011.6	observe	Run2	observe/STIM_017.jpg	100
1847.584	1.448	1448.3	observe	Run2	observe/STIM_018.jpg	100
1851.565	1.443	1442.6	observe	Run2	observe/STIM_018.jpg	100
1855.325	1.306	1305.5	observe	Run2	observe/STIM_018.jpg	99
1859.302	1.453	1453.4	observe	Run2	observe/STIM_018.jpg	99
1864.702	1.315	1314.7	observe	Run2	observe/STIM_019.jpg	99
1869.433	0.78	780.1	observe	Run2	observe/STIM_019.jpg	100
1872.857	1.42	1420.4	observe	Run2	observe/STIM_019.jpg	100
1876.773	1.23	1230.1	observe	Run2	observe/STIM_019.jpg	100
1881.394	2.242	2242.2	regulate	Run3	regulate/STIM_000.jpg	99
1887.199	1.929	1929.0	regulate	Run3	regulate/STIM_000.jpg	99
1892.109	1.131	1131.2	regulate	Run3	regulate/STIM_000.jpg	99
1896.375	1.993	1992.8	regulate	Run3	regulate/STIM_000.jpg	99
1900.485	1.519	1519.4	regulate	Run3	regulate/STIM_001.jpg	99
1904.312	2.12	2120.2	regulate	Run3	regulate/STIM_001.jpg	99
1909.865	2.054	2054.2	regulate	Run3	regulate/STIM_001.jpg	99
1915.804	2.247	2247.4	regulate	Run3	regulate/STIM_001.jpg	99
1921.185	1.488	1487.8	regulate	Run3	regulate/STIM_002.jpg	100
1925.24	1.805	1805.1	regulate	Run3	regulate/STIM_002.jpg	100
1929.917	1.451	1450.9	regulate	Run3	regulate/STIM_002.jpg	99
1934.785	1.381	1381.2	regulate	Run3	regulate/STIM_002.jpg	99
1938.877	1.331	1331.0	regulate	Run3	regulate/STIM_003.jpg	100
1943.702	2.265	2265.2	regulate	Run3	regulate/STIM_003.jpg	100
1949.763	1.913	1913.2	regulate	Run3	regulate/STIM_003.jpg	99
1954.539	1.137	1137.0	regulate	Run3	regulate/STIM_003.jpg	100
1958.386	1.369	1368.7	regulate	Run3	regulate/STIM_004.jpg	100
1963.058	2.248	2247.6	regulate	Run3	regulate/STIM_004.jpg	99
1967.717	1.175	1174.9	regulate	Run3	regulate/STIM_004.jpg	99
1972.596	2.119	2119.0	regulate	Run3	regulate/STIM_004.jpg	100
1978.544	1.235	1234.8	regulate	Run3	regulate/STIM_005.jpg	100
1983.033	2.302	2302.0	regulate	Run3	regulate/STIM_005.jpg	100
1988.363	1.681	1680.7	regulate	Run3	regulate/STIM_005.jpg	100
1992.981	1.802	1801.5	regulate	Run3	regulate/STIM_005.jpg	100
1996.919	1.164	1163.8	regulate	Run3	regulate/STIM_006.jpg	100
2000.444	1.084	1084.4	regulate	Run3	regulate/STIM_006.jpg	99
2004.476	1.981	1980.8	regulate	Run3	regulate/STIM_006.jpg	100
2009.853	1.789	1789.1	regulate	Run3	regulate/STIM_006.jpg	100
2014.218	1.634	1633.9	regulate	Run3	regulate/STIM_007.jpg	100
2018.06	2.3	2300.3	regulate	Run3	regulate/STIM_007.jpg	100
2023.583	2.192	2192.5	regulate	Run3	regulate/STIM_007.jpg	99
2028.366	1.376	1375.9	regulate	Run3	regulate/STIM_007.jpg	99
2032.866	1.336	1335.8	regulate	Run3	regulate/STIM_008.jpg	99
2037.724	2.195	2195.0	regulate	Run3	regulate/STIM_008.jpg	99
2042.894	1.805	1804.6	regulate	Run3	regulate/STIM_008.jpg	100
2047.376	1.207	1206.6	regulate	Run3	regulate/STIM_008.jpg	100
2051.9	1.969	1968.9	regulate	Run3	regulate/STIM_009.jpg	99
2056.253	1.491	1491.3	regulate	Run3	regulate/STIM_009.jpg	100
2061.201	1.08	1080.4	regulate	Run3	regulate/STIM_009.jpg	99
2065.645	1.834	1833.5	regulate	Run3	regulate/STIM_009.jpg	99
2069.702	1.123	1123.2	regulate	Run3	regulate/STIM_010.jpg	99
2074.592	1.233	1232.6	regulate	Run3	regulate/STIM_010.jpg	99
2079.794	1.644	1643.6	regulate	Run3	regulate/STIM_010.jpg	99
2083.572	1.909	1908.9	regulate	Run3	regulate/STIM_010.jpg	100
2087.947	1.997	1997.2	regulate	Run3	regulate/STIM_011.jpg	100
2092.328	1.322	1322.2	regulate	Run3	regulate/STIM_011.jpg	99
2097.219	1.194	1193.5	regulate	Run3	regulate/STIM_011.jpg	99
2100.615	1.422	1421.6	regulate	Run3	regulate/STIM_011.jpg	99
2104.151	2.009	2008.7	regulate	Run3	regulate/STIM_012.jpg	99
2109.949	2.147	2147.4	regulate	Run3	regulate/STIM_012.jpg	100
2115.864	2.109	2109.3	regulate	Run3	regulate/STIM_012.jpg	100
2120.617	1.446	1446.3	regulate	Run3	regulate/STIM_012.jpg	99
2125.947	1.83	1829.5	regulate	Run3	regulate/STIM_013.jpg	100
2131.304	1.308	1308.0	regulate	Run3	regulate/STIM_013.jpg	99
2135.861	2.169	2168.6	regulate	Run3	regulate/STIM_013.jpg	100
2141.966	1.82	1819.6	regulate	Run3	regulate/STIM_013.jpg	99
2147.035	1.172	1171.8	regulate	Run3	regulate/STIM_014.jpg	100
2150.946	1.845	1844.7	regulate	Run3	regulate/STIM_014.jpg	100
2156.76	2.111	2110.8	regulate	Run3	regulate/STIM_014.jpg	100
2161.279	1.157	1156.9	regulate	Run3	regulate/STIM_014.jpg	100
2165.389	1.91	1910.1	regulate	Run3	regulate/STIM_015.jpg	100
2171.255	2.203	2203.3	regulate	Run3	regulate/STIM_015.jpg	100
2175.585	1.475	1474.8	regulate	Run3	regulate/STIM_015.jpg	100
2179.629	2.304	2303.9	regulate	Run3	regulate/STIM_015.jpg	99
2185.349	1.113	1112.9	regulate	Run3	regulate/STIM_016.jpg	100
2189.558	1.637	1636.8	regulate	Run3	regulate/STIM_016.jpg	100
2194.316	2.152	2152.2	regulate	Run3	regulate/STIM_016.jpg	99
2200.315	1.123	1122.7	regulate	Run3	regulate/STIM_016.jpg	99
2204.45	1.731	1730.6	regulate	Run3	regulate/STIM_017.jpg	100
2210.181	2.091	2090.8	regulate	Run3	regulate/STIM_017.jpg	100
2215.818	1.271	1271.3	regulate	Run3	regulate/STIM_017.jpg	100
2219.885	1.684	1684.0	regulate	Run3	regulate/STIM_017.jpg	99
2224.833	2.186	2186.3	regulate	Run3	regulate/STIM_018.jpg	100
2229.565	1.223	1222.8	regulate	Run3	regulate/STIM_018.jpg	100
2233.285	1.421	1421.4	regulate	Run3	regulate/STIM_018.jpg	100
2237.255	2.34	2339.5	regulate	Run3	regulate/STIM_018.jpg	99
2242.255	2.235	2235.3	regulate	Run3	regulate/STIM_019.jpg	99
2247.072	1.112	1111.6	regulate	Run3	regulate/STIM_019.jpg	99
2250.256	2.277	2277.0	regulate	Run3	regulate/STIM_019.jpg	99
2255.548	2.212	2212.1	regulate	Run3	regulate/STIM_019.jpg	99
2260.858	1.131	1130.7	regulate	Run3	regulate/STIM_020.jpg	100
2264.428	2.077	2076.8	regulate	Run3	regulate/STIM_020.jpg	99
2270.264	1.92	1919.7	regulate	Run3	regulate/STIM_020.jpg	99
2275.845	2.261	2261.4	regulate	Run3	regulate/STIM_020.jpg	100
2280.175	1.419	1419.3	regulate	Run3	regulate/STIM_021.jpg	100
2285.143	2.013	2013.4	regulate	Run3	regulate/STIM_021.jpg	100
2289.223	1.499	1498.9	regulate	Run3	regulate/STIM_021.jpg	99
2293.014	2.009	2008.6	regulate	Run3	regulate/STIM_021.jpg	99
2297.19	1.088	1088.5	regulate	Run3	regulate/STIM_022.jpg	100
2302.133	1.598	1598.4	regulate	Run3	regulate/STIM_022.jpg	99
2307.62	1.739	1738.9	regulate	Run3	regulate/STIM_022.jpg	100
2313.275	1.741	1741.3	regulate	Run3	regulate/STIM_022.jpg	100
2318.921	2.257	2256.7	regulate	Run3	regulate/STIM_023.jpg	100
2324.173	1.048	1047.7	regulate	Run3	regulate/STIM_023.jpg	100
2327.373	1.266	1266.0	regulate	Run3	regulate/STIM_023.jpg	100
2331.635	1.198	1197.8	regulate	Run3	regulate/STIM_023.jpg	100
2336.379	1.898	1897.8	regulate	Run3	regulate/STIM_024.jpg	99
2340.326	1.349	1349.3	regulate	Run3	regulate/STIM_024.jpg	100
2343.748	2.157	2156.9	regulate	Run3	regulate/STIM_024.jpg	99
2348.383	1.485	1484.7	regulate	Run3	regulate/STIM_024.jpg	99
2352.725	1.316	1315.6	regulate	Run3	regulate/STIM_025.jpg	99
2356.168	1.348	1347.8	regulate	Run3	regulate/STIM_025.jpg	99
2360.125	1.622	1621.6	regulate	Run3	regulate/STIM_025.jpg	99
2365.408	1.083	1083.4	regulate	Run3	regulate/STIM_025.jpg	99
2369.228	1.702	1701.5	regulate	Run3	regulate/STIM_026.jpg	99
2374.657	1.413	1412.8	regulate	Run3	regulate/STIM_026.jpg	100
2378.671	1.244	1244.1	regulate	Run3	regulate/STIM_026.jpg	99
2383.515	2.058	2057.6	regulate	Run3	regulate/STIM_026.jpg	100
2388.045	1.418	1418.4	regulate	Run3	regulate/STIM_027.jpg	100
2392.258	1.93	1930.5	regulate	Run3	regulate/STIM_027.jpg	99
2396.612	1.716	1716.0	regulate	Run3	regulate/STIM_027.jpg	99
2401.826	1.893	1893.0	regulate	Run3	regulate/STIM_027.jpg	100
2407.118	1.876	1876.5	regulate	Run3	regulate/STIM_028.jpg	99
2411.171	2.159	2159.3	regulate	Run3	regulate/STIM_028.jpg	99
2415.587	1.984	1984.0	regulate	Run3	regulate/STIM_028.jpg	99
2419.747	1.462	1462.4	regulate	Run3	regulate/STIM_028.jpg	100
2423.651	2.104	2103.5	regulate	Run3	regulate/STIM_029.jpg	100
2427.963	2.091	2091.3	regulate	Run3	regulate/STIM_029.jpg	100
2433.551	1.014	1013.8	regulate	Run3	regulate/STIM_029.jpg	100
2438.09	1.274	1273.8	regulate	Run3	regulate/STIM_029.jpg	100
2442.096	1.12	1119.8	observe	Run3	observe/STIM_000.jpg	100
2445.547	0.868	867.5	observe	Run3	observe/STIM_000.jpg	100
2448.858	0.822	822.3	observe	Run3	observe/STIM_000.jpg	100
2453.209	1.521	1520.8	observe	Run3	observe/STIM_000.jpg	99
2458.624	0.869	868.6	observe	Run3	observe/STIM_001.jpg	99
2463.318	1.057	1056.6	observe	Run3	observe/STIM_001.jpg	99
2466.805	1.371	1371.2	observe	Run3	observe/STIM_001.jpg	99
2470.427	1.392	1392.0	observe	Run3	observe/STIM_001.jpg	100
2474.258	1.339	1338.9	observe	Run3	observe/STIM_002.jpg	100
2478.388	1.33	1330.2	observe	Run3	observe/STIM_002.jpg	100
2483.288	1.302	1301.7	observe	Run3	observe/STIM_002.jpg	99
2488.103	1.256	1255.6	observe	Run3	observe/STIM_002.jpg	99
2493.202	1.375	1375.2	observe	Run3	observe/STIM_003.jpg	100
2498.294	1.385	1385.1	observe	Run3	observe/STIM_003.jpg	100
2503.172	1.527	1527.2	observe	Run3	observe/STIM_003.jpg	100
2508.289	1.011	1011.1	observe	Run3	observe/STIM_003.jpg	99
2511.754	1.077	1077.3	observe	Run3	observe/STIM_004.jpg	100
2515.608	0.773	772.8	observe	Run3	observe/STIM_004.jpg	99
2519.624	0.939	939.3	observe	Run3	observe/STIM_004.jpg	99
2524.284	0.86	860.3	observe	Run3	observe/STIM_004.jpg	100
2527.852	0.829	829.0	observe	Run3	observe/STIM_005.jpg	100
2531.794	1.252	1251.6	observe	Run3	observe/STIM_005.jpg	100
2536.592	1.535	1534.8	observe	Run3	observe/STIM_005.jpg	99
2540.191	1.33	1330.3	observe	Run3	observe/STIM_005.jpg	100
2544.453	1.281	1281.4	observe	Run3	observe/STIM_006.jpg	100
2548.487	0.813	812.9	observe	Run3	observe/STIM_006.jpg	100
2551.337	1.125	1124.9	observe	Run3	observe/STIM_006.jpg	99
2555.079	1.369	1368.8	observe	Run3	observe/STIM_006.jpg	100
2559.284	1.383	1383.1	observe	Run3	observe/STIM_007.jpg	99
2563.478	0.87	870.0	observe	Run3	observe/STIM_007.jpg	100
2567.879	1.386	1386.2	observe	Run3	observe/STIM_007.jpg	100
2572.579	0.975	974.6	observe	Run3	observe/STIM_007.jpg	99
2577.199	1.39	1389.8	observe	Run3	observe/STIM_008.jpg	99
2582.431	0.828	828.3	observe	Run3	observe/STIM_008.jpg	99
2586.813	1.23	1229.8	observe	Run3	observe/STIM_008.jpg	100
2591.654	1.019	1018.6	observe	Run3	observe/STIM_008.jpg	100
2595.431	1.36	1360.2	observe	Run3	observe/STIM_009.jpg	100
2600.083	1.331	1330.7	observe	Run3	observe/STIM_009.jpg	99
2603.552	1.416	1416.1	observe	Run3	observe/STIM_009.jpg	99
2607.543	1.195	1195.2	observe	Run3	observe/STIM_009.jpg	99
2612.477	0.862	861.6	observe	Run3	observe/STIM_010.jpg	99
2615.692	1.33	1329.6	observe	Run3	observe/STIM_010.jpg	99
2620.368	0.78	779.9	observe	Run3	observe/STIM_010.jpg	100
2625.127	1.373	1373.2	observe	Run3	observe/STIM_010.jpg	99
2629.107	0.858	857.9	observe	Run3	observe/STIM_011.jpg	100
2633.59	1.413	1412.6	observe	Run3	observe/STIM_011.jpg	99
2637.12	1.176	1175.8	observe	Run3	observe/STIM_011.jpg	100
2641.541	1.056	1055.6	observe	Run3	observe/STIM_011.jpg	100
2645.259	1.018	1018.5	observe	Run3	observe/STIM_012.jpg	100
2649.955	1.232	1231.9	observe	Run3	observe/STIM_012.jpg	100
2654.336	1.359	1359.1	observe	Run3	observe/STIM_012.jpg	100
2659.67	0.965	964.9	observe	Run3	observe/STIM_012.jpg	99
2663.547	1.226	1225.6	observe	Run3	observe/STIM_013.jpg	99
2668.183	1.321	1321.3	observe	Run3	observe/STIM_013.jpg	100
2672.813	1.335	1334.9	observe	Run3	observe/STIM_013.jpg	100
2677.193	0.852	851.7	observe	Run3	observe/STIM_013.jpg	99
2680.957	1.389	1388.8	observe	Run3	observe/STIM_014.jpg	100
2686.009	1.404	1403.6	observe	Run3	observe/STIM_014.jpg	100
2691.062	1.522	1522.4	observe	Run3	observe/STIM_014.jpg	100
2696.055	0.884	883.6	observe	Run3	observe/STIM_014.jpg	100
2699.72	1.388	1388.5	observe	Run3	observe/STIM_015.jpg	100
2703.438	1.463	1462.6	observe	Run3	observe/STIM_015.jpg	100
2708.774	1.211	1210.7	observe	Run3	observe/STIM_015.jpg	100
2712.919	1.144	1144.2	observe	Run3	observe/STIM_015.jpg	100
2717.894	1.439	1439.3	observe	Run3	observe/STIM_016.jpg	99
2723.208	1.407	1407.1	observe	Run3	observe/STIM_016.jpg	100
2727.569	0.807	807.4	observe	Run3	observe/STIM_016.jpg	99
2732.002	1.266	1265.8	observe	Run3	observe/STIM_016.jpg	99
2735.667	0.878	877.6	observe	Run3	observe/STIM_017.jpg	99
2739.273	1.115	1114.6	observe	Run3	observe/STIM_017.jpg	100
2742.655	0.77	769.7	observe	Run3	observe/STIM_017.jpg	99
2747.058	1.0	1000.4	observe	Run3	observe/STIM_017.jpg	99
2751.048	1.211	1211.4	observe	Run3	observe/STIM_018.jpg	99
2755.848	0.997	997.0	observe	Run3	observe/STIM_018.jpg	99
2759.236	0.918	917.7	observe	Run3	observe/STIM_018.jpg	100
2763.502	1.031	1031.0	observe	Run3	observe/STIM_018.jpg	99
2767.091	0.989	989.1	observe	Run3	observe/STIM_019.jpg	99
2771.894	0.971	971.0	observe	Run3	observe/STIM_019.jpg	99
2775.178	1.118	1118.2	observe	Run3	observe/STIM_019.jpg	100
2780.204	1.455	1454.9	observe	Run3	observe/STIM_019.jpg	100
