onset	duration	accuracy_binary	trial_type	learning_stage	stimulus
0.0	0.793	1	2back	Block1	2back/STIM_000.jpg
3.642	1.138	1	2back	Block1	2back/STIM_000.jpg
8.577	0.788	1	2back	Block1	2back/STIM_000.jpg
12.233	0.911	1	2back	Block1	2back/STIM_001.jpg
16.091	0.829	1	2back	Block1	2back/STIM_001.jpg
19.571	0.662	1	2back	Block1	2back/STIM_001.jpg
22.66	0.763	1	2back	Block1	2back/STIM_002.jpg
26.725	0.614	1	2back	Block1	2back/STIM_002.jpg
30.173	0.606	1	2back	Block1	2back/STIM_002.jpg
32.995	1.348	1	2back	Block1	2back/STIM_003.jpg
38.124	0.742	1	2back	Block1	2back/STIM_003.jpg
41.822	0.732	1	2back	Block1	2back/STIM_003.jpg
46.288	1.428	1	2back	Block1	2back/STIM_004.jpg
50.473	1.275	1	2back	Block1	2back/STIM_004.jpg
55.223	0.61	1	2back	Block1	2back/STIM_004.jpg
58.595	0.912	1	2back	Block1	2back/STIM_005.jpg
63.31	0.937	1	2back	Block1	2back/STIM_005.jpg
66.323	1.164	1	2back	Block1	2back/STIM_005.jpg
69.938	1.452	1	2back	Block1	2back/STIM_006.jpg
73.974	1.184	1	2back	Block1	2back/STIM_006.jpg
78.734	1.223	1	2back	Block1	2back/STIM_006.jpg
83.429	1.142	1	2back	Block1	2back/STIM_007.jpg
88.073	0.702	1	2back	Block1	2back/STIM_007.jpg
91.342	1.04	1	2back	Block1	2back/STIM_007.jpg
96.13	1.406	1	2back	Block1	2back/STIM_008.jpg
99.679	0.825	1	2back	Block1	2back/STIM_008.jpg
103.468	0.602	1	2back	Block1	2back/STIM_008.jpg
106.181	0.99	1	2back	Block1	2back/STIM_009.jpg
110.551	0.813	1	2back	Block1	2back/STIM_009.jpg
113.963	0.623	1	2back	Block1	2back/STIM_009.jpg
118.191	1.055	1	2back	Block1	2back/STIM_010.jpg
122.497	0.832	0	2back	Block1	2back/STIM_010.jpg
126.175	1.332	1	2back	Block1	2back/STIM_010.jpg
130.226	0.646	1	2back	Block1	2back/STIM_011.jpg
133.132	0.645	0	2back	Block1	2back/STIM_011.jpg
136.138	1.011	1	2back	Block1	2back/STIM_011.jpg
139.628	0.822	0	2back	Block1	2back/STIM_012.jpg
142.604	0.876	1	2back	Block1	2back/STIM_012.jpg
145.944	0.761	1	2back	Block1	2back/STIM_012.jpg
150.684	0.852	1	2back	Block1	2back/STIM_013.jpg
154.659	1.293	1	2back	Block1	2back/STIM_013.jpg
159.164	0.778	1	2back	Block1	2back/STIM_013.jpg
163.383	1.002	1	2back	Block1	2back/STIM_014.jpg
168.156	1.049	1	2back	Block1	2back/STIM_014.jpg
173.032	1.295	1	2back	Block1	2back/STIM_014.jpg
177.481	1.135	1	2back	Block1	2back/STIM_015.jpg
182.094	0.672	0	2back	Block1	2back/STIM_015.jpg
184.805	0.587	1	2back	Block1	2back/STIM_015.jpg
188.119	0.831	1	2back	Block1	2back/STIM_016.jpg
191.785	1.303	1	2back	Block1	2back/STIM_016.jpg
196.959	0.864	1	2back	Block1	2back/STIM_016.jpg
200.489	0.873	0	2back	Block1	2back/STIM_017.jpg
203.425	0.832	1	2back	Block1	2back/STIM_017.jpg
207.884	0.654	1	2back	Block1	2back/STIM_017.jpg
211.105	1.029	1	2back	Block1	2back/STIM_018.jpg
215.707	1.092	1	2back	Block1	2back/STIM_018.jpg
220.137	0.63	1	2back	Block1	2back/STIM_018.jpg
222.882	0.87	1	2back	Block1	2back/STIM_019.jpg
227.748	1.284	1	2back	Block1	2back/STIM_019.jpg
231.352	0.796	1	2back	Block1	2back/STIM_019.jpg
235.529	0.643	1	2back	Block1	2back/STIM_020.jpg
238.912	1.019	1	2back	Block1	2back/STIM_020.jpg
242.113	0.838	1	2back	Block1	2back/STIM_020.jpg
245.241	1.036	1	2back	Block1	2back/STIM_021.jpg
250.057	0.897	1	2back	Block1	2back/STIM_021.jpg
253.649	0.776	1	2back	Block1	2back/STIM_021.jpg
256.621	0.735	0	2back	Block1	2back/STIM_022.jpg
261.308	1.116	1	2back	Block1	2back/STIM_022.jpg
265.303	1.316	1	2back	Block1	2back/STIM_022.jpg
269.652	1.018	1	2back	Block1	2back/STIM_023.jpg
273.564	0.814	1	2back	Block1	2back/STIM_023.jpg
276.379	0.773	0	2back	Block1	2back/STIM_023.jpg
280.973	1.238	1	2back	Block1	2back/STIM_024.jpg
284.491	1.313	1	2back	Block1	2back/STIM_024.jpg
289.454	1.285	1	2back	Block1	2back/STIM_024.jpg
294.687	1.228	1	2back	Block1	2back/STIM_025.jpg
297.976	0.942	1	2back	Block1	2back/STIM_025.jpg
302.251	1.115	1	2back	Block1	2back/STIM_025.jpg
305.62	1.202	1	2back	Block1	2back/STIM_026.jpg
309.576	1.006	1	2back	Block1	2back/STIM_026.jpg
313.952	0.714	1	2back	Block1	2back/STIM_026.jpg
317.748	0.905	1	2back	Block1	2back/STIM_027.jpg
322.028	0.795	1	2back	Block1	2back/STIM_027.jpg
326.507	1.317	1	2back	Block1	2back/STIM_027.jpg
331.715	0.958	1	2back	Block1	2back/STIM_028.jpg
335.973	1.282	1	2back	Block1	2back/STIM_028.jpg
339.654	1.003	1	2back	Block1	2back/STIM_028.jpg
344.054	1.34	1	2back	Block1	2back/STIM_029.jpg
347.958	1.268	1	2back	Block1	2back/STIM_029.jpg
351.321	1.008	1	2back	Block1	2back/STIM_029.jpg
356.257	0.962	1	2back	Block1	2back/STIM_030.jpg
359.948	0.972	1	2back	Block1	2back/STIM_030.jpg
363.989	0.652	1	2back	Block1	2back/STIM_030.jpg
367.508	0.738	1	2back	Block1	2back/STIM_031.jpg
371.457	0.65	1	2back	Block1	2back/STIM_031.jpg
374.161	0.603	1	2back	Block1	2back/STIM_031.jpg
377.025	0.928	1	2back	Block1	2back/STIM_032.jpg
381.271	0.931	1	2back	Block1	2back/STIM_032.jpg
384.415	0.611	1	2back	Block1	2back/STIM_032.jpg
388.332	1.259	1	2back	Block1	2back/STIM_033.jpg
393.259	1.386	1	2back	Block1	2back/STIM_033.jpg
397.136	0.964	0	2back	Block1	2back/STIM_033.jpg
402.089	1.264	0	2back	Block1	2back/STIM_034.jpg
406.324	1.318	1	2back	Block1	2back/STIM_034.jpg
410.143	0.756	1	2back	Block1	2back/STIM_034.jpg
413.462	1.129	1	2back	Block1	2back/STIM_035.jpg
417.313	0.728	1	2back	Block1	2back/STIM_035.jpg
420.404	0.839	1	2back	Block1	2back/STIM_035.jpg
423.546	0.865	1	2back	Block1	2back/STIM_036.jpg
427.906	1.077	1	2back	Block1	2back/STIM_036.jpg
432.225	0.574	1	2back	Block1	2back/STIM_036.jpg
435.739	1.144	1	2back	Block1	2back/STIM_037.jpg
439.731	1.107	1	2back	Block1	2back/STIM_037.jpg
444.501	0.886	0	2back	Block1	2back/STIM_037.jpg
449.008	1.428	1	2back	Block1	2back/STIM_038.jpg
453.778	0.664	1	2back	Block1	2back/STIM_038.jpg
457.088	1.123	1	2back	Block1	2back/STIM_038.jpg
461.199	1.442	0	2back	Block1	2back/STIM_039.jpg
465.95	0.671	1	2back	Block1	2back/STIM_039.jpg
470.075	0.598	1	2back	Block1	2back/STIM_039.jpg
473.011	0.83	1	0back	Block1	0back/STIM_000.jpg
477.599	0.728	1	0back	Block1	0back/STIM_000.jpg
482.185	0.465	1	0back	Block1	0back/STIM_000.jpg
484.835	0.603	1	0back	Block1	0back/STIM_001.jpg
488.483	0.494	1	0back	Block1	0back/STIM_001.jpg
491.79	0.795	1	0back	Block1	0back/STIM_001.jpg
496.354	0.43	1	0back	Block1	0back/STIM_002.jpg
499.395	0.644	1	0back	Block1	0back/STIM_002.jpg
503.24	0.654	1	0back	Block1	0back/STIM_002.jpg
507.058	0.73	1	0back	Block1	0back/STIM_003.jpg
511.64	0.502	1	0back	Block1	0back/STIM_003.jpg
515.693	0.753	1	0back	Block1	0back/STIM_003.jpg
519.987	0.459	1	0back	Block1	0back/STIM_004.jpg
523.502	0.761	1	0back	Block1	0back/STIM_004.jpg
527.047	0.64	1	0back	Block1	0back/STIM_004.jpg
531.343	0.5	1	0back	Block1	0back/STIM_005.jpg
535.397	0.603	1	0back	Block1	0back/STIM_005.jpg
539.139	0.467	1	0back	Block1	0back/STIM_005.jpg
541.922	0.833	1	0back	Block1	0back/STIM_006.jpg
546.257	0.485	1	0back	Block1	0back/STIM_006.jpg
550.704	0.78	1	0back	Block1	0back/STIM_006.jpg
553.798	0.565	1	0back	Block1	0back/STIM_007.jpg
556.777	0.804	1	0back	Block1	0back/STIM_007.jpg
559.764	0.511	1	0back	Block1	0back/STIM_007.jpg
563.211	0.722	1	0back	Block1	0back/STIM_008.jpg
567.812	0.814	1	0back	Block1	0back/STIM_008.jpg
572.257	0.613	1	0back	Block1	0back/STIM_008.jpg
576.075	0.566	1	0back	Block1	0back/STIM_009.jpg
580.132	0.778	1	0back	Block1	0back/STIM_009.jpg
583.833	0.481	1	0back	Block1	0back/STIM_009.jpg
588.08	0.674	1	0back	Block1	0back/STIM_010.jpg
591.351	0.702	1	0back	Block1	0back/STIM_010.jpg
595.372	0.75	1	0back	Block1	0back/STIM_010.jpg
598.143	0.507	1	0back	Block1	0back/STIM_011.jpg
601.778	0.46	1	0back	Block1	0back/STIM_011.jpg
604.478	0.808	1	0back	Block1	0back/STIM_011.jpg
607.429	0.578	1	0back	Block1	0back/STIM_012.jpg
611.048	0.71	1	0back	Block1	0back/STIM_012.jpg
613.867	0.486	1	0back	Block1	0back/STIM_012.jpg
616.848	0.64	1	0back	Block1	0back/STIM_013.jpg
620.007	0.425	1	0back	Block1	0back/STIM_013.jpg
623.482	0.791	1	0back	Block1	0back/STIM_013.jpg
627.943	0.608	1	0back	Block1	0back/STIM_014.jpg
631.664	0.649	1	0back	Block1	0back/STIM_014.jpg
635.712	0.636	1	0back	Block1	0back/STIM_014.jpg
640.158	0.465	1	0back	Block1	0back/STIM_015.jpg
643.085	0.752	1	0back	Block1	0back/STIM_015.jpg
647.102	0.703	1	0back	Block1	0back/STIM_015.jpg
649.909	0.832	1	0back	Block1	0back/STIM_016.jpg
653.109	0.8	1	0back	Block1	0back/STIM_016.jpg
656.337	0.462	1	0back	Block1	0back/STIM_016.jpg
658.8	0.586	1	0back	Block1	0back/STIM_017.jpg
662.885	0.616	1	0back	Block1	0back/STIM_017.jpg
665.627	0.618	1	0back	Block1	0back/STIM_017.jpg
669.346	0.443	1	0back	Block1	0back/STIM_018.jpg
671.861	0.544	1	0back	Block1	0back/STIM_018.jpg
676.02	0.48	1	0back	Block1	0back/STIM_018.jpg
679.751	0.717	1	0back	Block1	0back/STIM_019.jpg
682.866	0.828	1	0back	Block1	0back/STIM_019.jpg
686.336	0.845	1	0back	Block1	0back/STIM_019.jpg
690.294	0.568	1	2back	Block2	2back/STIM_000.jpg
694.415	1.035	1	2back	Block2	2back/STIM_000.jpg
698.284	0.796	1	2back	Block2	2back/STIM_000.jpg
702.565	0.651	1	2back	Block2	2back/STIM_001.jpg
705.94	1.007	1	2back	Block2	2back/STIM_001.jpg
710.389	1.095	0	2back	Block2	2back/STIM_001.jpg
713.493	1.218	1	2back	Block2	2back/STIM_002.jpg
718.601	0.732	1	2back	Block2	2back/STIM_002.jpg
722.902	0.747	1	2back	Block2	2back/STIM_002.jpg
727.33	0.737	1	2back	Block2	2back/STIM_003.jpg
730.389	0.576	1	2back	Block2	2back/STIM_003.jpg
734.241	0.673	1	2back	Block2	2back/STIM_003.jpg
737.184	0.556	1	2back	Block2	2back/STIM_004.jpg
741.072	0.555	1	2back	Block2	2back/STIM_004.jpg
745.521	0.963	1	2back	Block2	2back/STIM_004.jpg
750.08	1.054	1	2back	Block2	2back/STIM_005.jpg
753.704	0.837	1	2back	Block2	2back/STIM_005.jpg
757.128	0.955	1	2back	Block2	2back/STIM_005.jpg
760.678	0.623	1	2back	Block2	2back/STIM_006.jpg
764.313	1.115	1	2back	Block2	2back/STIM_006.jpg
769.269	0.87	1	2back	Block2	2back/STIM_006.jpg
772.759	0.96	1	2back	Block2	2back/STIM_007.jpg
777.25	0.846	1	2back	Block2	2back/STIM_007.jpg
781.256	0.94	1	2back	Block2	2back/STIM_007.jpg
785.632	0.952	1	2back	Block2	2back/STIM_008.jpg
789.08	0.992	1	2back	Block2	2back/STIM_008.jpg
792.117	1.081	1	2back	Block2	2back/STIM_008.jpg
796.668	0.719	0	2back	Block2	2back/STIM_009.jpg
800.235	0.57	1	2back	Block2	2back/STIM_009.jpg
804.574	0.833	1	2back	Block2	2back/STIM_009.jpg
808.108	0.566	1	2back	Block2	2back/STIM_010.jpg
811.562	0.585	1	2back	Block2	2back/STIM_010.jpg
815.133	0.769	1	2back	Block2	2back/STIM_010.jpg
817.991	0.915	1	2back	Block2	2back/STIM_011.jpg
822.386	0.535	1	2back	Block2	2back/STIM_011.jpg
826.113	0.714	1	2back	Block2	2back/STIM_011.jpg
830.521	1.093	1	2back	Block2	2back/STIM_012.jpg
835.283	0.997	1	2back	Block2	2back/STIM_012.jpg
838.682	0.534	0	2back	Block2	2back/STIM_012.jpg
841.751	0.605	1	2back	Block2	2back/STIM_013.jpg
844.73	0.856	1	2back	Block2	2back/STIM_013.jpg
848.426	0.86	1	2back	Block2	2back/STIM_013.jpg
851.474	0.849	1	2back	Block2	2back/STIM_014.jpg
855.342	0.87	1	2back	Block2	2back/STIM_014.jpg
858.217	0.528	1	2back	Block2	2back/STIM_014.jpg
861.996	1.001	1	2back	Block2	2back/STIM_015.jpg
866.176	0.647	1	2back	Block2	2back/STIM_015.jpg
870.568	0.519	1	2back	Block2	2back/STIM_015.jpg
873.229	0.552	1	2back	Block2	2back/STIM_016.jpg
877.501	0.786	1	2back	Block2	2back/STIM_016.jpg
882.173	0.773	1	2back	Block2	2back/STIM_016.jpg
885.149	0.722	1	2back	Block2	2back/STIM_017.jpg
888.056	0.796	1	2back	Block2	2back/STIM_017.jpg
892.29	0.736	1	2back	Block2	2back/STIM_017.jpg
895.494	0.995	1	2back	Block2	2back/STIM_018.jpg
900.23	1.043	1	2back	Block2	2back/STIM_018.jpg
905.018	1.064	1	2back	Block2	2back/STIM_018.jpg
908.221	0.734	1	2back	Block2	2back/STIM_019.jpg
911.533	0.825	1	2back	Block2	2back/STIM_019.jpg
914.746	0.766	1	2back	Block2	2back/STIM_019.jpg
918.3	0.942	1	2back	Block2	2back/STIM_020.jpg
921.539	0.738	1	2back	Block2	2back/STIM_020.jpg
926.063	0.867	1	2back	Block2	2back/STIM_020.jpg
930.338	0.971	1	2back	Block2	2back/STIM_021.jpg
934.014	0.982	1	2back	Block2	2back/STIM_021.jpg
938.723	0.557	1	2back	Block2	2back/STIM_021.jpg
941.439	1.041	1	2back	Block2	2back/STIM_022.jpg
945.292	0.666	1	2back	Block2	2back/STIM_022.jpg
948.509	0.778	1	2back	Block2	2back/STIM_022.jpg
951.735	1.065	1	2back	Block2	2back/STIM_023.jpg
955.338	0.543	1	2back	Block2	2back/STIM_023.jpg
959.66	0.504	1	2back	Block2	2back/STIM_023.jpg
964.152	0.837	1	2back	Block2	2back/STIM_024.jpg
968.355	0.667	1	2back	Block2	2back/STIM_024.jpg
971.888	0.709	1	2back	Block2	2back/STIM_024.jpg
976.331	1.257	1	2back	Block2	2back/STIM_025.jpg
979.829	0.752	1	2back	Block2	2back/STIM_025.jpg
983.901	0.551	1	2back	Block2	2back/STIM_025.jpg
987.968	0.732	1	2back	Block2	2back/STIM_026.jpg
992.296	0.94	1	2back	Block2	2back/STIM_026.jpg
996.228	1.032	1	2back	Block2	2back/STIM_026.jpg
1000.233	0.948	1	2back	Block2	2back/STIM_027.jpg
1003.968	0.664	1	2back	Block2	2back/STIM_027.jpg
1007.274	0.617	1	2back	Block2	2back/STIM_027.jpg
1010.642	0.853	1	2back	Block2	2back/STIM_028.jpg
1013.906	0.705	1	2back	Block2	2back/STIM_028.jpg
1017.056	0.697	1	2back	Block2	2back/STIM_028.jpg
1019.987	0.613	1	2back	Block2	2back/STIM_029.jpg
1024.243	0.896	1	2back	Block2	2back/STIM_029.jpg
1028.579	0.982	0	2back	Block2	2back/STIM_029.jpg
1031.783	1.062	1	2back	Block2	2back/STIM_030.jpg
1035.965	1.126	1	2back	Block2	2back/STIM_030.jpg
1041.024	0.813	1	2back	Block2	2back/STIM_030.jpg
1045.26	1.258	1	2back	Block2	2back/STIM_031.jpg
1049.961	0.957	1	2back	Block2	2back/STIM_031.jpg
1053.129	0.981	1	2back	Block2	2back/STIM_031.jpg
1056.391	0.705	1	2back	Block2	2back/STIM_032.jpg
1060.414	1.162	1	2back	Block2	2back/STIM_032.jpg
1065.53	0.753	1	2back	Block2	2back/STIM_032.jpg
1070.095	1.137	1	2back	Block2	2back/STIM_033.jpg
1074.368	1.182	1	2back	Block2	2back/STIM_033.jpg
1078.143	0.833	1	2back	Block2	2back/STIM_033.jpg
1082.553	0.974	1	2back	Block2	2back/STIM_034.jpg
1087.293	1.101	1	2back	Block2	2back/STIM_034.jpg
1091.877	0.615	1	2back	Block2	2back/STIM_034.jpg
1096.314	0.699	1	2back	Block2	2back/STIM_035.jpg
1100.636	0.639	1	2back	Block2	2back/STIM_035.jpg
1103.599	1.041	1	2back	Block2	2back/STIM_035.jpg
1106.744	0.669	1	2back	Block2	2back/STIM_036.jpg
1110.565	0.741	1	2back	Block2	2back/STIM_036.jpg
1114.148	0.745	1	2back	Block2	2back/STIM_036.jpg
1116.954	1.072	1	2back	Block2	2back/STIM_037.jpg
1120.94	1.133	1	2back	Block2	2back/STIM_037.jpg
1125.78	0.593	1	2back	Block2	2back/STIM_037.jpg
1128.592	1.081	1	2back	Block2	2back/STIM_038.jpg
1131.86	0.908	0	2back	Block2	2back/STIM_038.jpg
1136.16	1.082	1	2back	Block2	2back/STIM_038.jpg
1140.352	1.236	1	2back	Block2	2back/STIM_039.jpg
1144.858	0.514	1	2back	Block2	2back/STIM_039.jpg
1148.486	1.107	1	2back	Block2	2back/STIM_039.jpg
1151.876	0.793	1	0back	Block2	0back/STIM_000.jpg
1156.661	0.639	1	0back	Block2	0back/STIM_000.jpg
1159.56	0.527	1	0back	Block2	0back/STIM_000.jpg
1164.011	0.621	1	0back	Block2	0back/STIM_001.jpg
1166.684	0.618	1	0back	Block2	0back/STIM_001.jpg
1170.839	0.452	1	0back	Block2	0back/STIM_001.jpg
1173.74	0.837	1	0back	Block2	0back/STIM_002.jpg
1178.207	0.799	1	0back	Block2	0back/STIM_002.jpg
1182.125	0.628	1	0back	Block2	0back/STIM_002.jpg
1185.31	0.794	1	0back	Block2	0back/STIM_003.jpg
1190.031	0.44	1	0back	Block2	0back/STIM_003.jpg
1193.001	0.582	1	0back	Block2	0back/STIM_003.jpg
1196.465	0.684	1	0back	Block2	0back/STIM_004.jpg
1199.175	0.84	1	0back	Block2	0back/STIM_004.jpg
1203.124	0.612	1	0back	Block2	0back/STIM_004.jpg
1206.54	0.812	1	0back	Block2	0back/STIM_005.jpg
1210.392	0.603	1	0back	Block2	0back/STIM_005.jpg
1213.71	0.757	1	0back	Block2	0back/STIM_005.jpg
1218.383	0.65	0	0back	Block2	0back/STIM_006.jpg
1222.026	0.584	1	0back	Block2	0back/STIM_006.jpg
1224.929	0.836	1	0back	Block2	0back/STIM_006.jpg
1227.811	0.425	1	0back	Block2	0back/STIM_007.jpg
1231.769	0.429	1	0back	Block2	0back/STIM_007.jpg
1234.542	0.774	1	0back	Block2	0back/STIM_007.jpg
1239.278	0.499	1	0back	Block2	0back/STIM_008.jpg
1242.578	0.594	1	0back	Block2	0back/STIM_008.jpg
1247.102	0.541	1	0back	Block2	0back/STIM_008.jpg
1251.239	0.637	1	0back	Block2	0back/STIM_009.jpg
1255.471	0.647	1	0back	Block2	0back/STIM_009.jpg
1259.269	0.507	1	0back	Block2	0back/STIM_009.jpg
1261.941	0.526	1	0back	Block2	0back/STIM_010.jpg
1266.035	0.535	1	0back	Block2	0back/STIM_010.jpg
1269.324	0.778	1	0back	Block2	0back/STIM_010.jpg
1272.415	0.731	1	0back	Block2	0back/STIM_011.jpg
1275.954	0.824	1	0back	Block2	0back/STIM_011.jpg
1280.523	0.73	1	0back	Block2	0back/STIM_011.jpg
1284.034	0.498	1	0back	Block2	0back/STIM_012.jpg
1287.041	0.56	1	0back	Block2	0back/STIM_012.jpg
1290.864	0.834	1	0back	Block2	0back/STIM_012.jpg
1294.475	0.606	1	0back	Block2	0back/STIM_013.jpg
1298.531	0.726	1	0back	Block2	0back/STIM_013.jpg
1302.489	0.716	1	0back	Block2	0back/STIM_013.jpg
1306.99	0.472	1	0back	Block2	0back/STIM_014.jpg
1309.641	0.526	1	0back	Block2	0back/STIM_014.jpg
1313.674	0.804	1	0back	Block2	0back/STIM_014.jpg
1317.523	0.487	1	0back	Block2	0back/STIM_015.jpg
1321.225	0.644	1	0back	Block2	0back/STIM_015.jpg
1324.773	0.822	1	0back	Block2	0back/STIM_015.jpg
1328.34	0.665	1	0back	Block2	0back/STIM_016.jpg
1332.791	0.446	1	0back	Block2	0back/STIM_016.jpg
1335.607	0.647	1	0back	Block2	0back/STIM_016.jpg
1340.058	0.766	1	0back	Block2	0back/STIM_017.jpg
1344.176	0.84	1	0back	Block2	0back/STIM_017.jpg
1347.939	0.776	1	0back	Block2	0back/STIM_017.jpg
1352.014	0.559	1	0back	Block2	0back/STIM_018.jpg
1356.213	0.711	1	0back	Block2	0back/STIM_018.jpg
1360.081	0.801	1	0back	Block2	0back/STIM_018.jpg
1364.472	0.763	1	0back	Block2	0back/STIM_019.jpg
1368.022	0.552	1	0back	Block2	0back/STIM_019.jpg
1372.542	0.666	1	0back	Block2	0back/STIM_019.jpg
1376.925	0.814	1	2back	Block3	2back/STIM_000.jpg
1381.665	0.85	1	2back	Block3	2back/STIM_000.jpg
1384.544	0.808	1	2back	Block3	2back/STIM_000.jpg
1387.958	0.579	1	2back	Block3	2back/STIM_001.jpg
1390.825	0.846	1	2back	Block3	2back/STIM_001.jpg
1395.543	0.852	1	2back	Block3	2back/STIM_001.jpg
1399.03	0.742	1	2back	Block3	2back/STIM_002.jpg
1402.86	0.665	1	2back	Block3	2back/STIM_002.jpg
1407.521	0.445	1	2back	Block3	2back/STIM_002.jpg
1411.918	0.941	1	2back	Block3	2back/STIM_003.jpg
1415.259	0.479	1	2back	Block3	2back/STIM_003.jpg
1418.777	0.532	1	2back	Block3	2back/STIM_003.jpg
1422.103	0.494	1	2back	Block3	2back/STIM_004.jpg
1426.391	0.957	1	2back	Block3	2back/STIM_004.jpg
1431.19	0.956	1	2back	Block3	2back/STIM_004.jpg
1435.177	0.639	1	2back	Block3	2back/STIM_005.jpg
1439.655	0.967	1	2back	Block3	2back/STIM_005.jpg
1444.437	0.917	1	2back	Block3	2back/STIM_005.jpg
1448.436	0.656	1	2back	Block3	2back/STIM_006.jpg
1451.543	0.726	1	2back	Block3	2back/STIM_006.jpg
1455.217	0.691	1	2back	Block3	2back/STIM_006.jpg
1459.433	0.741	1	2back	Block3	2back/STIM_007.jpg
1462.583	0.746	1	2back	Block3	2back/STIM_007.jpg
1465.782	0.688	1	2back	Block3	2back/STIM_007.jpg
1468.822	0.577	1	2back	Block3	2back/STIM_008.jpg
1472.314	0.69	1	2back	Block3	2back/STIM_008.jpg
1475.512	0.753	1	2back	Block3	2back/STIM_008.jpg
1478.309	0.946	1	2back	Block3	2back/STIM_009.jpg
1481.305	0.581	1	2back	Block3	2back/STIM_009.jpg
1484.754	0.673	1	2back	Block3	2back/STIM_009.jpg
1488.048	0.959	1	2back	Block3	2back/STIM_010.jpg
1491.965	0.858	1	2back	Block3	2back/STIM_010.jpg
1495.346	0.66	1	2back	Block3	2back/STIM_010.jpg
1499.962	0.616	1	2back	Block3	2back/STIM_011.jpg
1503.91	0.929	1	2back	Block3	2back/STIM_011.jpg
1507.188	0.55	1	2back	Block3	2back/STIM_011.jpg
1511.69	0.746	1	2back	Block3	2back/STIM_012.jpg
1516.393	0.582	1	2back	Block3	2back/STIM_012.jpg
1519.387	1.013	1	2back	Block3	2back/STIM_012.jpg
1523.37	0.671	1	2back	Block3	2back/STIM_013.jpg
1526.919	0.825	1	2back	Block3	2back/STIM_013.jpg
1529.84	0.917	1	2back	Block3	2back/STIM_013.jpg
1533.5	0.455	1	2back	Block3	2back/STIM_014.jpg
1537.337	0.837	1	2back	Block3	2back/STIM_014.jpg
1541.54	0.715	0	2back	Block3	2back/STIM_014.jpg
1544.795	0.815	1	2back	Block3	2back/STIM_015.jpg
1548.732	0.521	1	2back	Block3	2back/STIM_015.jpg
1551.321	0.52	1	2back	Block3	2back/STIM_015.jpg
1554.944	0.707	1	2back	Block3	2back/STIM_016.jpg
1559.261	0.594	1	2back	Block3	2back/STIM_016.jpg
1562.121	0.965	1	2back	Block3	2back/STIM_016.jpg
1566.973	0.738	1	2back	Block3	2back/STIM_017.jpg
1569.934	0.74	1	2back	Block3	2back/STIM_017.jpg
1574.665	0.64	1	2back	Block3	2back/STIM_017.jpg
1578.318	0.951	1	2back	Block3	2back/STIM_018.jpg
1581.642	0.459	1	2back	Block3	2back/STIM_018.jpg
1584.693	0.728	1	2back	Block3	2back/STIM_018.jpg
1588.161	0.87	1	2back	Block3	2back/STIM_019.jpg
1592.054	0.76	0	2back	Block3	2back/STIM_019.jpg
1595.434	0.516	1	2back	Block3	2back/STIM_019.jpg
1599.169	0.791	1	2back	Block3	2back/STIM_020.jpg
1603.293	1.006	1	2back	Block3	2back/STIM_020.jpg
1606.961	0.967	1	2back	Block3	2back/STIM_020.jpg
1611.455	0.642	1	2back	Block3	2back/STIM_021.jpg
1615.072	0.982	1	2back	Block3	2back/STIM_021.jpg
1619.873	0.454	1	2back	Block3	2back/STIM_021.jpg
1623.47	0.537	1	2back	Block3	2back/STIM_022.jpg
1626.607	0.897	1	2back	Block3	2back/STIM_022.jpg
1630.361	1.005	1	2back	Block3	2back/STIM_022.jpg
1634.035	0.756	1	2back	Block3	2back/STIM_023.jpg
1637.715	1.035	1	2back	Block3	2back/STIM_023.jpg
1642.448	0.598	1	2back	Block3	2back/STIM_023.jpg
1646.502	0.941	1	2back	Block3	2back/STIM_024.jpg
1651.17	0.828	1	2back	Block3	2back/STIM_024.jpg
1655.352	0.656	1	2back	Block3	2back/STIM_024.jpg
1658.937	0.531	1	2back	Block3	2back/STIM_025.jpg
1662.082	0.757	1	2back	Block3	2back/STIM_025.jpg
1665.496	0.603	1	2back	Block3	2back/STIM_025.jpg
1668.47	0.568	1	2back	Block3	2back/STIM_026.jpg
1672.781	0.948	1	2back	Block3	2back/STIM_026.jpg
1676.991	0.777	1	2back	Block3	2back/STIM_026.jpg
1680.607	0.657	1	2back	Block3	2back/STIM_027.jpg
1683.425	1.008	1	2back	Block3	2back/STIM_027.jpg
1687.435	0.908	1	2back	Block3	2back/STIM_027.jpg
1690.989	0.74	1	2back	Block3	2back/STIM_028.jpg
1695.282	0.758	1	2back	Block3	2back/STIM_028.jpg
1698.621	0.721	1	2back	Block3	2back/STIM_028.jpg
1702.098	0.733	1	2back	Block3	2back/STIM_029.jpg
1706.565	0.954	1	2back	Block3	2back/STIM_029.jpg
1710.226	0.89	1	2back	Block3	2back/STIM_029.jpg
1714.957	0.87	1	2back	Block3	2back/STIM_030.jpg
1719.004	0.825	1	2back	Block3	2back/STIM_030.jpg
1722.071	0.88	1	2back	Block3	2back/STIM_030.jpg
1725.8	0.752	1	2back	Block3	2back/STIM_031.jpg
1728.892	0.538	1	2back	Block3	2back/STIM_031.jpg
1732.304	0.675	1	2back	Block3	2back/STIM_031.jpg
1736.555	0.744	1	2back	Block3	2back/STIM_032.jpg
1739.37	0.708	1	2back	Block3	2back/STIM_032.jpg
1744.072	0.783	1	2back	Block3	2back/STIM_032.jpg
1748.26	0.915	1	2back	Block3	2back/STIM_033.jpg
1752.701	0.849	1	2back	Block3	2back/STIM_033.jpg
1755.897	0.998	1	2back	Block3	2back/STIM_033.jpg
1760.405	0.725	1	2back	Block3	2back/STIM_034.jpg
1763.8	0.542	1	2back	Block3	2back/STIM_034.jpg
1768.099	0.576	1	2back	Block3	2back/STIM_034.jpg
1771.133	0.548	1	2back	Block3	2back/STIM_035.jpg
1775.044	0.51	1	2back	Block3	2back/STIM_035.jpg
1777.664	0.977	1	2back	Block3	2back/STIM_035.jpg
1782.288	0.986	1	2back	Block3	2back/STIM_036.jpg
1786.745	0.89	1	2back	Block3	2back/STIM_036.jpg
1789.758	0.919	1	2back	Block3	2back/STIM_036.jpg
1793.177	0.638	1	2back	Block3	2back/STIM_037.jpg
1796.775	0.964	1	2back	Block3	2back/STIM_037.jpg
1800.065	0.911	1	2back	Block3	2back/STIM_037.jpg
1804.747	0.983	1	2back	Block3	2back/STIM_038.jpg
1808.159	0.488	1	2back	Block3	2back/STIM_038.jpg
1811.143	0.555	1	2back	Block3	2back/STIM_038.jpg
1815.332	0.985	1	2back	Block3	2back/STIM_039.jpg
1818.533	0.828	1	2back	Block3	2back/STIM_039.jpg
1821.719	0.734	1	2back	Block3	2back/STIM_039.jpg
1826.257	0.705	1	0back	Block3	0back/STIM_000.jpg
1830.46	0.84	1	0back	Block3	0back/STIM_000.jpg
1834.826	0.745	1	0back	Block3	0back/STIM_000.jpg
1838.377	0.769	1	0back	Block3	0back/STIM_001.jpg
1842.372	0.459	1	0back	Block3	0back/STIM_001.jpg
1845.541	0.776	1	0back	Block3	0back/STIM_001.jpg
1849.932	0.659	1	0back	Block3	0back/STIM_002.jpg
1853.173	0.805	1	0back	Block3	0back/STIM_002.jpg
1856.088	0.68	1	0back	Block3	0back/STIM_002.jpg
1859.453	0.491	1	0back	Block3	0back/STIM_003.jpg
1862.929	0.48	1	0back	Block3	0back/STIM_003.jpg
1865.91	0.765	1	0back	Block3	0back/STIM_003.jpg
1869.102	0.534	1	0back	Block3	0back/STIM_004.jpg
1873.246	0.487	1	0back	Block3	0back/STIM_004.jpg
1875.936	0.445	1	0back	Block3	0back/STIM_004.jpg
1879.987	0.483	1	0back	Block3	0back/STIM_005.jpg
1883.252	0.843	1	0back	Block3	0back/STIM_005.jpg
1886.938	0.555	1	0back	Block3	0back/STIM_005.jpg
1889.715	0.678	1	0back	Block3	0back/STIM_006.jpg
1893.516	0.694	1	0back	Block3	0back/STIM_006.jpg
1897.49	0.53	1	0back	Block3	0back/STIM_006.jpg
1900.576	0.659	1	0back	Block3	0back/STIM_007.jpg
1905.041	0.788	1	0back	Block3	0back/STIM_007.jpg
1908.323	0.664	1	0back	Block3	0back/STIM_007.jpg
1912.777	0.818	1	0back	Block3	0back/STIM_008.jpg
1915.755	0.425	1	0back	Block3	0back/STIM_008.jpg
1918.311	0.765	1	0back	Block3	0back/STIM_008.jpg
1923.019	0.497	1	0back	Block3	0back/STIM_009.jpg
1926.833	0.697	1	0back	Block3	0back/STIM_009.jpg
1930.889	0.676	1	0back	Block3	0back/STIM_009.jpg
1935.15	0.597	1	0back	Block3	0back/STIM_010.jpg
1939.612	0.819	1	0back	Block3	0back/STIM_010.jpg
1943.807	0.51	1	0back	Block3	0back/STIM_010.jpg
1947.935	0.766	1	0back	Block3	0back/STIM_011.jpg
1950.808	0.842	1	0back	Block3	0back/STIM_011.jpg
1955.196	0.796	1	0back	Block3	0back/STIM_011.jpg
1958.275	0.602	1	0back	Block3	0back/STIM_012.jpg
1961.012	0.793	1	0back	Block3	0back/STIM_012.jpg
1964.268	0.43	1	0back	Block3	0back/STIM_012.jpg
1967.302	0.751	1	0back	Block3	0back/STIM_013.jpg
1970.235	0.78	0	0back	Block3	0back/STIM_013.jpg
1973.997	0.466	1	0back	Block3	0back/STIM_013.jpg
1977.869	0.759	0	0back	Block3	0back/STIM_014.jpg
1980.968	0.68	1	0back	Block3	0back/STIM_014.jpg
1984.343	0.668	1	0back	Block3	0back/STIM_014.jpg
1987.442	0.484	1	0back	Block3	0back/STIM_015.jpg
1991.106	0.531	1	0back	Block3	0back/STIM_015.jpg
1995.621	0.782	1	0back	Block3	0back/STIM_015.jpg
1999.214	0.479	1	0back	Block3	0back/STIM_016.jpg
2002.735	0.733	1	0back	Block3	0back/STIM_016.jpg
2007.265	0.564	1	0back	Block3	0back/STIM_016.jpg
2010.033	0.715	1	0back	Block3	0back/STIM_017.jpg
2012.753	0.604	1	0back	Block3	0back/STIM_017.jpg
2016.864	0.609	1	0back	Block3	0back/STIM_017.jpg
2020.165	0.646	1	0back	Block3	0back/STIM_018.jpg
2024.577	0.426	1	0back	Block3	0back/STIM_018.jpg
2027.138	0.453	1	0back	Block3	0back/STIM_018.jpg
2030.937	0.468	1	0back	Block3	0back/STIM_019.jpg
2035.149	0.799	1	0back	Block3	0back/STIM_019.jpg
2038.146	0.66	1	0back	Block3	0back/STIM_019.jpg
2040.983	1.026	1	2back	Block4	2back/STIM_000.jpg
2045.426	0.716	1	2back	Block4	2back/STIM_000.jpg
2050.014	0.572	1	2back	Block4	2back/STIM_000.jpg
2053.41	0.663	1	2back	Block4	2back/STIM_001.jpg
2056.47	0.928	1	2back	Block4	2back/STIM_001.jpg
2060.486	0.965	1	2back	Block4	2back/STIM_001.jpg
2065.289	0.871	1	2back	Block4	2back/STIM_002.jpg
2068.528	0.698	1	2back	Block4	2back/STIM_002.jpg
2071.257	0.917	1	2back	Block4	2back/STIM_002.jpg
2074.28	0.642	1	2back	Block4	2back/STIM_003.jpg
2077.894	0.602	1	2back	Block4	2back/STIM_003.jpg
2080.984	0.88	1	2back	Block4	2back/STIM_003.jpg
2084.533	1.015	1	2back	Block4	2back/STIM_004.jpg
2087.847	0.918	1	2back	Block4	2back/STIM_004.jpg
2091.696	0.684	1	2back	Block4	2back/STIM_004.jpg
2094.949	0.973	1	2back	Block4	2back/STIM_005.jpg
2099.159	0.463	1	2back	Block4	2back/STIM_005.jpg
2102.54	0.517	1	2back	Block4	2back/STIM_005.jpg
2105.181	0.836	1	2back	Block4	2back/STIM_006.jpg
2109.606	0.817	1	2back	Block4	2back/STIM_006.jpg
2114.266	0.861	1	2back	Block4	2back/STIM_006.jpg
2117.179	0.846	1	2back	Block4	2back/STIM_007.jpg
2121.887	0.822	1	2back	Block4	2back/STIM_007.jpg
2126.203	0.763	1	2back	Block4	2back/STIM_007.jpg
2129.258	0.965	1	2back	Block4	2back/STIM_008.jpg
2132.705	0.505	1	2back	Block4	2back/STIM_008.jpg
2135.651	0.915	1	2back	Block4	2back/STIM_008.jpg
2140.399	0.652	1	2back	Block4	2back/STIM_009.jpg
2144.958	0.779	1	2back	Block4	2back/STIM_009.jpg
2149.236	0.981	1	2back	Block4	2back/STIM_009.jpg
2154.183	0.787	1	2back	Block4	2back/STIM_010.jpg
2157.522	0.82	1	2back	Block4	2back/STIM_010.jpg
2161.818	0.724	1	2back	Block4	2back/STIM_010.jpg
2165.913	0.644	1	2back	Block4	2back/STIM_011.jpg
2170.346	0.983	1	2back	Block4	2back/STIM_011.jpg
2175.202	0.505	1	2back	Block4	2back/STIM_011.jpg
2179.02	0.464	1	2back	Block4	2back/STIM_012.jpg
2182.721	0.971	1	2back	Block4	2back/STIM_012.jpg
2186.486	0.464	1	2back	Block4	2back/STIM_012.jpg
2189.329	0.517	1	2back	Block4	2back/STIM_013.jpg
2192.549	0.922	1	2back	Block4	2back/STIM_013.jpg
2196.142	1.015	1	2back	Block4	2back/STIM_013.jpg
2200.759	0.62	1	2back	Block4	2back/STIM_014.jpg
2204.733	0.969	0	2back	Block4	2back/STIM_014.jpg
2209.693	0.808	1	2back	Block4	2back/STIM_014.jpg
2212.842	0.896	1	2back	Block4	2back/STIM_015.jpg
2216.536	0.566	1	2back	Block4	2back/STIM_015.jpg
2220.583	0.496	1	2back	Block4	2back/STIM_015.jpg
2223.289	0.837	1	2back	Block4	2back/STIM_016.jpg
2226.181	0.538	1	2back	Block4	2back/STIM_016.jpg
2229.695	0.82	1	2back	Block4	2back/STIM_016.jpg
2232.743	0.786	1	2back	Block4	2back/STIM_017.jpg
2236.045	0.926	1	2back	Block4	2back/STIM_017.jpg
2239.522	0.883	1	2back	Block4	2back/STIM_017.jpg
2243.831	1.008	1	2back	Block4	2back/STIM_018.jpg
2248.712	0.923	1	2back	Block4	2back/STIM_018.jpg
2251.997	0.566	1	2back	Block4	2back/STIM_018.jpg
2255.242	0.966	1	2back	Block4	2back/STIM_019.jpg
2258.855	0.85	1	2back	Block4	2back/STIM_019.jpg
2263.63	0.567	1	2back	Block4	2back/STIM_019.jpg
2266.785	0.984	1	2back	Block4	2back/STIM_020.jpg
2271.377	0.545	1	2back	Block4	2back/STIM_020.jpg
2274.263	1.001	1	2back	Block4	2back/STIM_020.jpg
2278.588	0.512	1	2back	Block4	2back/STIM_021.jpg
2281.187	0.55	1	2back	Block4	2back/STIM_021.jpg
2284.066	0.469	1	2back	Block4	2back/STIM_021.jpg
2288.131	0.946	1	2back	Block4	2back/STIM_022.jpg
2291.973	0.956	1	2back	Block4	2back/STIM_022.jpg
2296.482	0.945	1	2back	Block4	2back/STIM_022.jpg
2300.812	0.605	1	2back	Block4	2back/STIM_023.jpg
2303.726	0.743	1	2back	Block4	2back/STIM_023.jpg
2307.368	0.746	1	2back	Block4	2back/STIM_023.jpg
2311.11	0.651	1	2back	Block4	2back/STIM_024.jpg
2315.331	0.818	1	2back	Block4	2back/STIM_024.jpg
2319.211	0.837	1	2back	Block4	2back/STIM_024.jpg
2324.048	0.972	1	2back	Block4	2back/STIM_025.jpg
2328.103	0.747	1	2back	Block4	2back/STIM_025.jpg
2331.627	0.917	1	2back	Block4	2back/STIM_025.jpg
2335.008	0.539	1	2back	Block4	2back/STIM_026.jpg
2338.655	0.853	1	2back	Block4	2back/STIM_026.jpg
2342.004	0.887	1	2back	Block4	2back/STIM_026.jpg
2346.488	0.89	1	2back	Block4	2back/STIM_027.jpg
2349.91	0.827	1	2back	Block4	2back/STIM_027.jpg
2354.601	0.934	1	2back	Block4	2back/STIM_027.jpg
2358.559	0.64	1	2back	Block4	2back/STIM_028.jpg
2361.456	0.591	1	2back	Block4	2back/STIM_028.jpg
2366.027	0.507	1	2back	Block4	2back/STIM_028.jpg
2369.124	0.925	1	2back	Block4	2back/STIM_029.jpg
2373.989	0.747	0	2back	Block4	2back/STIM_029.jpg
2377.36	0.667	1	2back	Block4	2back/STIM_029.jpg
2380.541	0.595	1	2back	Block4	2back/STIM_030.jpg
2383.671	0.783	1	2back	Block4	2back/STIM_030.jpg
2388.328	0.612	0	2back	Block4	2back/STIM_030.jpg
2392.069	1.014	1	2back	Block4	2back/STIM_031.jpg
2396.637	0.536	1	2back	Block4	2back/STIM_031.jpg
2401.029	0.725	1	2back	Block4	2back/STIM_031.jpg
2405.611	0.564	1	2back	Block4	2back/STIM_032.jpg
2410.136	0.928	1	2back	Block4	2back/STIM_032.jpg
2413.638	0.847	1	2back	Block4	2back/STIM_032.jpg
2418.261	0.701	1	2back	Block4	2back/STIM_033.jpg
2422.574	0.598	1	2back	Block4	2back/STIM_033.jpg
2425.466	0.505	1	2back	Block4	2back/STIM_033.jpg
2429.137	0.958	1	2back	Block4	2back/STIM_034.jpg
2432.348	1.01	1	2back	Block4	2back/STIM_034.jpg
2436.97	0.517	1	2back	Block4	2back/STIM_034.jpg
2440.946	0.528	1	2back	Block4	2back/STIM_035.jpg
2444.425	0.907	1	2back	Block4	2back/STIM_035.jpg
2447.841	0.683	1	2back	Block4	2back/STIM_035.jpg
2451.549	0.937	1	2back	Block4	2back/STIM_036.jpg
2456.221	0.946	1	2back	Block4	2back/STIM_036.jpg
2460.576	0.814	1	2back	Block4	2back/STIM_036.jpg
2464.662	0.485	1	2back	Block4	2back/STIM_037.jpg
2468.972	0.622	1	2back	Block4	2back/STIM_037.jpg
2473.114	0.598	1	2back	Block4	2back/STIM_037.jpg
2476.511	0.688	1	2back	Block4	2back/STIM_038.jpg
2480.508	0.646	1	2back	Block4	2back/STIM_038.jpg
2485.108	0.673	1	2back	Block4	2back/STIM_038.jpg
2488.174	0.586	1	2back	Block4	2back/STIM_039.jpg
2491.2	0.609	0	2back	Block4	2back/STIM_039.jpg
2495.157	0.736	1	2back	Block4	2back/STIM_039.jpg
2498.705	0.74	1	0back	Block4	0back/STIM_000.jpg
2502.656	0.501	1	0back	Block4	0back/STIM_000.jpg
2505.325	0.818	1	0back	Block4	0back/STIM_000.jpg
2510.04	0.49	1	0back	Block4	0back/STIM_001.jpg
2512.68	0.63	1	0back	Block4	0back/STIM_001.jpg
2516.071	0.62	1	0back	Block4	0back/STIM_001.jpg
2519.075	0.74	1	0back	Block4	0back/STIM_002.jpg
2521.942	0.538	1	0back	Block4	0back/STIM_002.jpg
2526.356	0.518	1	0back	Block4	0back/STIM_002.jpg
2530.786	0.526	1	0back	Block4	0back/STIM_003.jpg
2534.122	0.43	1	0back	Block4	0back/STIM_003.jpg
2537.736	0.427	1	0back	Block4	0back/STIM_003.jpg
2540.653	0.618	1	0back	Block4	0back/STIM_004.jpg
2543.474	0.815	1	0back	Block4	0back/STIM_004.jpg
2548.269	0.702	1	0back	Block4	0back/STIM_004.jpg
2551.218	0.829	1	0back	Block4	0back/STIM_005.jpg
2555.842	0.655	1	0back	Block4	0back/STIM_005.jpg
2559.67	0.615	1	0back	Block4	0back/STIM_005.jpg
2562.685	0.481	1	0back	Block4	0back/STIM_006.jpg
2566.77	0.63	1	0back	Block4	0back/STIM_006.jpg
2570.248	0.788	1	0back	Block4	0back/STIM_006.jpg
2573.59	0.578	1	0back	Block4	0back/STIM_007.jpg
2576.372	0.684	1	0back	Block4	0back/STIM_007.jpg
2579.926	0.799	1	0back	Block4	0back/STIM_007.jpg
2583.691	0.572	1	0back	Block4	0back/STIM_008.jpg
2587.871	0.424	1	0back	Block4	0back/STIM_008.jpg
2590.904	0.59	1	0back	Block4	0back/STIM_008.jpg
2594.878	0.549	0	0back	Block4	0back/STIM_009.jpg
2599.362	0.813	1	0back	Block4	0back/STIM_009.jpg
2603.631	0.537	1	0back	Block4	0back/STIM_009.jpg
2608.097	0.749	1	0back	Block4	0back/STIM_010.jpg
2612.333	0.507	1	0back	Block4	0back/STIM_010.jpg
2616.154	0.433	1	0back	Block4	0back/STIM_010.jpg
2619.437	0.476	0	0back	Block4	0back/STIM_011.jpg
2623.787	0.445	1	0back	Block4	0back/STIM_011.jpg
2626.376	0.604	1	0back	Block4	0back/STIM_011.jpg
2629.32	0.784	1	0back	Block4	0back/STIM_012.jpg
2633.889	0.711	1	0back	Block4	0back/STIM_012.jpg
2637.37	0.552	1	0back	Block4	0back/STIM_012.jpg
2640.099	0.778	1	0back	Block4	0back/STIM_013.jpg
2644.565	0.772	1	0back	Block4	0back/STIM_013.jpg
2648.357	0.665	1	0back	Block4	0back/STIM_013.jpg
2652.318	0.571	1	0back	Block4	0back/STIM_014.jpg
2655.933	0.595	1	0back	Block4	0back/STIM_014.jpg
2660.47	0.702	1	0back	Block4	0back/STIM_014.jpg
2663.254	0.789	1	0back	Block4	0back/STIM_015.jpg
2666.258	0.544	1	0back	Block4	0back/STIM_015.jpg
2669.003	0.64	1	0back	Block4	0back/STIM_015.jpg
2672.805	0.583	1	0back	Block4	0back/STIM_016.jpg
2675.706	0.647	1	0back	Block4	0back/STIM_016.jpg
2679.413	0.503	1	0back	Block4	0back/STIM_016.jpg
2682.559	0.798	1	0back	Block4	0back/STIM_017.jpg
2686.911	0.514	1	0back	Block4	0back/STIM_017.jpg
2689.873	0.638	1	0back	Block4	0back/STIM_017.jpg
2693.412	0.744	1	0back	Block4	0back/STIM_018.jpg
2697.286	0.521	1	0back	Block4	0back/STIM_018.jpg
2701.063	0.714	1	0back	Block4	0back/STIM_018.jpg
2705.391	0.614	1	0back	Block4	0back/STIM_019.jpg
2709.219	0.448	1	0back	Block4	0back/STIM_019.jpg
2712.758	0.772	1	0back	Block4	0back/STIM_019.jpg
