onset	duration	accuracy	trial_type	learning_stage	stimulus
0.0	1.654	incorrect	study	Phase1	study/STIM_000.jpg
5.078	1.017	incorrect	study	Phase1	study/STIM_000.jpg
9.034	1.185	correct	study	Phase1	study/STIM_000.jpg
12.455	1.512	incorrect	study	Phase1	study/STIM_001.jpg
16.371	1.148	correct	study	Phase1	study/STIM_001.jpg
21.064	1.106	correct	study	Phase1	study/STIM_001.jpg
25.65	1.232	correct	study	Phase1	study/STIM_002.jpg
29.199	1.306	correct	study	Phase1	study/STIM_002.jpg
33.424	0.837	correct	study	Phase1	study/STIM_002.jpg
36.838	1.023	correct	study	Phase1	study/STIM_003.jpg
39.951	1.886	correct	study	Phase1	study/STIM_003.jpg
45.716	0.934	correct	study	Phase1	study/STIM_003.jpg
48.817	0.938	correct	study	Phase1	study/STIM_004.jpg
53.048	0.931	correct	study	Phase1	study/STIM_004.jpg
56.159	1.187	correct	study	Phase1	study/STIM_004.jpg
60.021	1.562	correct	study	Phase1	study/STIM_005.jpg
64.248	1.282	correct	study	Phase1	study/STIM_005.jpg
68.282	1.594	incorrect	study	Phase1	study/STIM_005.jpg
73.59	1.284	incorrect	study	Phase1	study/STIM_006.jpg
78.641	1.819	incorrect	study	Phase1	study/STIM_006.jpg
82.973	1.436	correct	study	Phase1	study/STIM_006.jpg
87.99	1.715	correct	study	Phase1	study/STIM_007.jpg
92.571	1.463	correct	study	Phase1	study/STIM_007.jpg
97.41	1.314	correct	study	Phase1	study/STIM_007.jpg
102.418	1.784	correct	study	Phase1	study/STIM_008.jpg
106.912	1.344	correct	study	Phase1	study/STIM_008.jpg
110.559	1.476	correct	study	Phase1	study/STIM_008.jpg
115.978	1.425	correct	study	Phase1	study/STIM_009.jpg
119.777	1.57	incorrect	study	Phase1	study/STIM_009.jpg
124.627	1.279	correct	study	Phase1	study/STIM_009.jpg
129.597	1.973	correct	study	Phase1	study/STIM_010.jpg
135.115	1.869	correct	study	Phase1	study/STIM_010.jpg
139.97	1.834	incorrect	study	Phase1	study/STIM_010.jpg
145.043	1.653	incorrect	study	Phase1	study/STIM_011.jpg
150.31	1.307	correct	study	Phase1	study/STIM_011.jpg
154.903	1.236	incorrect	study	Phase1	study/STIM_011.jpg
159.232	1.301	correct	study	Phase1	study/STIM_012.jpg
162.75	1.773	correct	study	Phase1	study/STIM_012.jpg
166.688	1.624	correct	study	Phase1	study/STIM_012.jpg
171.511	1.705	correct	study	Phase1	study/STIM_013.jpg
175.478	0.985	correct	study	Phase1	study/STIM_013.jpg
179.974	1.136	correct	study	Phase1	study/STIM_013.jpg
184.407	1.427	correct	study	Phase1	study/STIM_014.jpg
187.948	1.707	correct	study	Phase1	study/STIM_014.jpg
192.068	0.882	correct	study	Phase1	study/STIM_014.jpg
195.778	1.247	incorrect	study	Phase1	study/STIM_015.jpg
199.935	1.082	correct	study	Phase1	study/STIM_015.jpg
204.333	1.402	correct	study	Phase1	study/STIM_015.jpg
208.339	1.062	incorrect	study	Phase1	study/STIM_016.jpg
212.958	1.123	correct	study	Phase1	study/STIM_016.jpg
216.376	1.824	incorrect	study	Phase1	study/STIM_016.jpg
221.517	1.152	correct	study	Phase1	study/STIM_017.jpg
225.836	1.67	correct	study	Phase1	study/STIM_017.jpg
230.143	1.75	correct	study	Phase1	study/STIM_017.jpg
234.988	1.684	correct	study	Phase1	study/STIM_018.jpg
239.982	1.454	incorrect	study	Phase1	study/STIM_018.jpg
244.082	1.482	incorrect	study	Phase1	study/STIM_018.jpg
247.968	1.353	correct	study	Phase1	study/STIM_019.jpg
251.567	1.934	incorrect	study	Phase1	study/STIM_019.jpg
257.322	1.673	correct	study	Phase1	study/STIM_019.jpg
261.061	1.369	correct	study	Phase1	study/STIM_020.jpg
266.173	1.596	correct	study	Phase1	study/STIM_020.jpg
270.487	0.888	correct	study	Phase1	study/STIM_020.jpg
274.212	1.174	correct	study	Phase1	study/STIM_021.jpg
277.47	1.14	correct	study	Phase1	study/STIM_021.jpg
282.471	1.202	correct	study	Phase1	study/STIM_021.jpg
286.678	1.656	correct	study	Phase1	study/STIM_022.jpg
290.576	0.95	correct	study	Phase1	study/STIM_022.jpg
294.491	1.058	correct	study	Phase1	study/STIM_022.jpg
297.608	1.62	correct	study	Phase1	study/STIM_023.jpg
301.323	1.097	incorrect	study	Phase1	study/STIM_023.jpg
304.995	0.858	correct	study	Phase1	study/STIM_023.jpg
309.678	1.715	correct	study	Phase1	study/STIM_024.jpg
314.274	1.81	incorrect	study	Phase1	study/STIM_024.jpg
319.834	0.857	incorrect	study	Phase1	study/STIM_024.jpg
323.824	1.526	correct	study	Phase1	study/STIM_025.jpg
328.942	1.906	correct	study	Phase1	study/STIM_025.jpg
334.589	1.311	correct	study	Phase1	study/STIM_025.jpg
338.731	1.316	correct	study	Phase1	study/STIM_026.jpg
343.858	1.598	correct	study	Phase1	study/STIM_026.jpg
348.176	1.26	correct	study	Phase1	study/STIM_026.jpg
352.232	0.953	correct	study	Phase1	study/STIM_027.jpg
355.982	1.029	correct	study	Phase1	study/STIM_027.jpg
360.88	1.694	correct	study	Phase1	study/STIM_027.jpg
365.993	1.08	correct	study	Phase1	study/STIM_028.jpg
370.025	1.641	correct	study	Phase1	study/STIM_028.jpg
374.132	1.669	correct	study	Phase1	study/STIM_028.jpg
379.369	1.014	correct	study	Phase1	study/STIM_029.jpg
382.967	1.79	correct	study	Phase1	study/STIM_029.jpg
386.869	1.557	correct	study	Phase1	study/STIM_029.jpg
392.141	0.78	correct	test	Phase1	test/STIM_000.jpg
395.424	1.259	correct	test	Phase1	test/STIM_000.jpg
399.875	1.135	correct	test	Phase1	test/STIM_000.jpg
404.089	0.775	correct	test	Phase1	test/STIM_001.jpg
407.278	1.38	correct	test	Phase1	test/STIM_001.jpg
411.886	0.885	correct	test	Phase1	test/STIM_001.jpg
415.752	0.893	correct	test	Phase1	test/STIM_002.jpg
419.526	0.896	incorrect	test	Phase1	test/STIM_002.jpg
424.368	1.147	correct	test	Phase1	test/STIM_002.jpg
427.606	0.682	correct	test	Phase1	test/STIM_003.jpg
431.942	1.166	incorrect	test	Phase1	test/STIM_003.jpg
435.387	1.458	correct	test	Phase1	test/STIM_003.jpg
439.05	1.01	correct	test	Phase1	test/STIM_004.jpg
442.896	1.246	incorrect	test	Phase1	test/STIM_004.jpg
446.769	1.089	correct	test	Phase1	test/STIM_004.jpg
450.792	1.091	incorrect	test	Phase1	test/STIM_005.jpg
454.832	1.469	correct	test	Phase1	test/STIM_005.jpg
458.876	1.219	correct	test	Phase1	test/STIM_005.jpg
462.478	1.295	correct	test	Phase1	test/STIM_006.jpg
467.49	0.983	incorrect	test	Phase1	test/STIM_006.jpg
470.993	1.199	correct	test	Phase1	test/STIM_006.jpg
474.235	1.328	correct	test	Phase1	test/STIM_007.jpg
479.324	0.71	correct	test	Phase1	test/STIM_007.jpg
483.706	0.928	incorrect	test	Phase1	test/STIM_007.jpg
487.45	1.03	correct	test	Phase1	test/STIM_008.jpg
491.316	0.921	correct	test	Phase1	test/STIM_008.jpg
495.587	0.748	correct	test	Phase1	test/STIM_008.jpg
499.697	1.232	incorrect	test	Phase1	test/STIM_009.jpg
504.844	1.306	correct	test	Phase1	test/STIM_009.jpg
509.659	1.008	incorrect	test	Phase1	test/STIM_009.jpg
514.408	0.701	correct	test	Phase1	test/STIM_010.jpg
518.004	1.049	correct	test	Phase1	test/STIM_010.jpg
522.267	1.218	correct	test	Phase1	test/STIM_010.jpg
526.616	1.05	correct	test	Phase1	test/STIM_011.jpg
530.757	1.022	correct	test	Phase1	test/STIM_011.jpg
534.76	1.424	correct	test	Phase1	test/STIM_011.jpg
538.258	1.207	correct	test	Phase1	test/STIM_012.jpg
543.285	0.774	correct	test	Phase1	test/STIM_012.jpg
546.36	1.043	correct	test	Phase1	test/STIM_012.jpg
551.118	1.343	correct	test	Phase1	test/STIM_013.jpg
555.729	1.119	correct	test	Phase1	test/STIM_013.jpg
560.618	0.847	correct	test	Phase1	test/STIM_013.jpg
564.685	1.289	incorrect	test	Phase1	test/STIM_014.jpg
568.208	0.857	correct	test	Phase1	test/STIM_014.jpg
571.78	0.683	correct	test	Phase1	test/STIM_014.jpg
576.403	0.927	correct	test	Phase1	test/STIM_015.jpg
580.783	1.194	incorrect	test	Phase1	test/STIM_015.jpg
584.838	1.346	correct	test	Phase1	test/STIM_015.jpg
588.231	0.842	incorrect	test	Phase1	test/STIM_016.jpg
591.804	1.139	correct	test	Phase1	test/STIM_016.jpg
596.593	1.057	correct	test	Phase1	test/STIM_016.jpg
600.505	0.927	incorrect	test	Phase1	test/STIM_017.jpg
603.892	1.228	correct	test	Phase1	test/STIM_017.jpg
607.325	0.695	incorrect	test	Phase1	test/STIM_017.jpg
611.542	0.986	correct	test	Phase1	test/STIM_018.jpg
615.532	0.707	correct	test	Phase1	test/STIM_018.jpg
620.111	0.74	incorrect	test	Phase1	test/STIM_018.jpg
624.282	1.473	correct	test	Phase1	test/STIM_019.jpg
627.953	1.163	incorrect	test	Phase1	test/STIM_019.jpg
632.378	1.132	correct	test	Phase1	test/STIM_019.jpg
636.847	1.259	correct	test	Phase1	test/STIM_020.jpg
641.1	0.855	correct	test	Phase1	test/STIM_020.jpg
644.212	0.738	correct	test	Phase1	test/STIM_020.jpg
648.303	1.196	correct	test	Phase1	test/STIM_021.jpg
652.261	0.998	correct	test	Phase1	test/STIM_021.jpg
656.189	1.088	correct	test	Phase1	test/STIM_021.jpg
659.713	1.026	correct	test	Phase1	test/STIM_022.jpg
663.077	1.238	correct	test	Phase1	test/STIM_022.jpg
667.487	0.841	correct	test	Phase1	test/STIM_022.jpg
670.96	1.022	correct	test	Phase1	test/STIM_023.jpg
674.797	1.408	correct	test	Phase1	test/STIM_023.jpg
678.59	0.804	correct	test	Phase1	test/STIM_023.jpg
682.114	1.144	correct	test	Phase1	test/STIM_024.jpg
686.323	1.142	correct	test	Phase1	test/STIM_024.jpg
690.565	1.336	correct	test	Phase1	test/STIM_024.jpg
695.75	1.238	correct	test	Phase1	test/STIM_025.jpg
699.407	0.689	correct	test	Phase1	test/STIM_025.jpg
702.476	0.853	correct	test	Phase1	test/STIM_025.jpg
706.1	0.939	correct	test	Phase1	test/STIM_026.jpg
710.116	1.168	correct	test	Phase1	test/STIM_026.jpg
714.29	0.687	correct	test	Phase1	test/STIM_026.jpg
717.518	0.791	correct	test	Phase1	test/STIM_027.jpg
720.526	0.808	correct	test	Phase1	test/STIM_027.jpg
723.813	1.45	correct	test	Phase1	test/STIM_027.jpg
728.753	0.953	correct	test	Phase1	test/STIM_028.jpg
732.379	0.98	correct	test	Phase1	test/STIM_028.jpg
735.6	1.211	correct	test	Phase1	test/STIM_028.jpg
740.168	1.116	correct	test	Phase1	test/STIM_029.jpg
744.878	0.801	correct	test	Phase1	test/STIM_029.jpg
748.986	1.366	correct	test	Phase1	test/STIM_029.jpg
752.633	1.021	correct	study	Phase2	study/STIM_000.jpg
757.477	1.535	correct	study	Phase2	study/STIM_000.jpg
762.674	1.116	incorrect	study	Phase2	study/STIM_000.jpg
766.492	1.426	correct	study	Phase2	study/STIM_001.jpg
770.667	1.419	correct	study	Phase2	study/STIM_001.jpg
775.254	1.015	correct	study	Phase2	study/STIM_001.jpg
778.591	1.405	correct	study	Phase2	study/STIM_002.jpg
782.933	1.022	correct	study	Phase2	study/STIM_002.jpg
787.15	1.079	correct	study	Phase2	study/STIM_002.jpg
791.772	0.909	correct	study	Phase2	study/STIM_003.jpg
795.369	1.251	correct	study	Phase2	study/STIM_003.jpg
798.929	1.343	correct	study	Phase2	study/STIM_003.jpg
804.114	0.966	correct	study	Phase2	study/STIM_004.jpg
807.214	1.023	correct	study	Phase2	study/STIM_004.jpg
811.555	1.276	correct	study	Phase2	study/STIM_004.jpg
816.162	1.185	correct	study	Phase2	study/STIM_005.jpg
820.442	0.879	correct	study	Phase2	study/STIM_005.jpg
825.055	0.854	correct	study	Phase2	study/STIM_005.jpg
828.839	1.301	correct	study	Phase2	study/STIM_006.jpg
833.657	1.509	incorrect	study	Phase2	study/STIM_006.jpg
838.959	1.405	correct	study	Phase2	study/STIM_006.jpg
842.914	0.972	correct	study	Phase2	study/STIM_007.jpg
846.9	1.318	correct	study	Phase2	study/STIM_007.jpg
852.087	1.358	correct	study	Phase2	study/STIM_007.jpg
856.444	0.809	correct	study	Phase2	study/STIM_008.jpg
859.79	1.284	correct	study	Phase2	study/STIM_008.jpg
863.406	1.405	correct	study	Phase2	study/STIM_008.jpg
866.843	0.858	correct	study	Phase2	study/STIM_009.jpg
870.377	1.436	incorrect	study	Phase2	study/STIM_009.jpg
873.95	1.144	correct	study	Phase2	study/STIM_009.jpg
879.024	1.23	correct	study	Phase2	study/STIM_010.jpg
882.315	0.82	correct	study	Phase2	study/STIM_010.jpg
886.909	1.144	correct	study	Phase2	study/STIM_010.jpg
890.62	0.879	incorrect	study	Phase2	study/STIM_011.jpg
894.79	1.517	correct	study	Phase2	study/STIM_011.jpg
898.694	1.223	correct	study	Phase2	study/STIM_011.jpg
903.058	0.87	correct	study	Phase2	study/STIM_012.jpg
907.539	1.218	correct	study	Phase2	study/STIM_012.jpg
911.316	0.798	correct	study	Phase2	study/STIM_012.jpg
914.318	1.61	correct	study	Phase2	study/STIM_013.jpg
918.241	1.357	correct	study	Phase2	study/STIM_013.jpg
922.391	0.811	correct	study	Phase2	study/STIM_013.jpg
926.681	0.984	incorrect	study	Phase2	study/STIM_014.jpg
931.397	1.265	correct	study	Phase2	study/STIM_014.jpg
935.953	0.948	correct	study	Phase2	study/STIM_014.jpg
939.523	1.709	incorrect	study	Phase2	study/STIM_015.jpg
945.138	0.893	correct	study	Phase2	study/STIM_015.jpg
948.423	0.764	correct	study	Phase2	study/STIM_015.jpg
951.717	1.388	correct	study	Phase2	study/STIM_016.jpg
956.482	1.482	correct	study	Phase2	study/STIM_016.jpg
960.064	0.706	incorrect	study	Phase2	study/STIM_016.jpg
963.529	1.705	correct	study	Phase2	study/STIM_017.jpg
968.139	1.465	correct	study	Phase2	study/STIM_017.jpg
973.548	1.384	correct	study	Phase2	study/STIM_017.jpg
977.391	1.349	incorrect	study	Phase2	study/STIM_018.jpg
980.851	1.561	correct	study	Phase2	study/STIM_018.jpg
985.428	1.199	incorrect	study	Phase2	study/STIM_018.jpg
989.516	1.654	correct	study	Phase2	study/STIM_019.jpg
993.595	0.991	correct	study	Phase2	study/STIM_019.jpg
997.729	1.333	correct	study	Phase2	study/STIM_019.jpg
1002.479	1.62	correct	study	Phase2	study/STIM_020.jpg
1006.585	1.518	incorrect	study	Phase2	study/STIM_020.jpg
1011.925	1.382	correct	study	Phase2	study/STIM_020.jpg
1016.85	1.254	correct	study	Phase2	study/STIM_021.jpg
1021.021	0.787	correct	study	Phase2	study/STIM_021.jpg
1024.668	1.184	correct	study	Phase2	study/STIM_021.jpg
1028.883	1.238	incorrect	study	Phase2	study/STIM_022.jpg
1032.725	1.134	correct	study	Phase2	study/STIM_022.jpg
1037.124	1.392	correct	study	Phase2	study/STIM_022.jpg
1041.446	1.387	correct	study	Phase2	study/STIM_023.jpg
1045.121	1.016	correct	study	Phase2	study/STIM_023.jpg
1049.016	1.308	correct	study	Phase2	study/STIM_023.jpg
1053.103	0.855	correct	study	Phase2	study/STIM_024.jpg
1055.966	1.578	correct	study	Phase2	study/STIM_024.jpg
1059.646	0.986	correct	study	Phase2	study/STIM_024.jpg
1062.99	1.345	correct	study	Phase2	study/STIM_025.jpg
1068.051	1.367	incorrect	study	Phase2	study/STIM_025.jpg
1072.115	1.504	correct	study	Phase2	study/STIM_025.jpg
1076.527	1.094	correct	study	Phase2	study/STIM_026.jpg
1080.268	0.898	correct	study	Phase2	study/STIM_026.jpg
1083.515	1.211	correct	study	Phase2	study/STIM_026.jpg
1088.631	1.351	correct	study	Phase2	study/STIM_027.jpg
1092.478	1.405	correct	study	Phase2	study/STIM_027.jpg
1096.038	1.353	incorrect	study	Phase2	study/STIM_027.jpg
1099.987	1.318	correct	study	Phase2	study/STIM_028.jpg
1104.605	1.105	correct	study	Phase2	study/STIM_028.jpg
1108.772	0.701	correct	study	Phase2	study/STIM_028.jpg
1112.518	1.685	correct	study	Phase2	study/STIM_029.jpg
1117.667	0.999	incorrect	study	Phase2	study/STIM_029.jpg
1121.363	0.986	correct	study	Phase2	study/STIM_029.jpg
1124.391	1.353	correct	test	Phase2	test/STIM_000.jpg
1127.823	1.297	correct	test	Phase2	test/STIM_000.jpg
1132.736	1.168	incorrect	test	Phase2	test/STIM_000.jpg
1137.132	1.083	correct	test	Phase2	test/STIM_001.jpg
1141.165	1.295	incorrect	test	Phase2	test/STIM_001.jpg
1145.149	1.125	correct	test	Phase2	test/STIM_001.jpg
1148.613	0.74	correct	test	Phase2	test/STIM_002.jpg
1152.179	0.943	correct	test	Phase2	test/STIM_002.jpg
1156.021	0.994	correct	test	Phase2	test/STIM_002.jpg
1160.258	1.194	correct	test	Phase2	test/STIM_003.jpg
1165.006	0.802	incorrect	test	Phase2	test/STIM_003.jpg
1167.901	0.772	correct	test	Phase2	test/STIM_003.jpg
1171.557	1.235	incorrect	test	Phase2	test/STIM_004.jpg
1174.845	1.242	correct	test	Phase2	test/STIM_004.jpg
1179.533	0.687	incorrect	test	Phase2	test/STIM_004.jpg
1183.462	1.373	correct	test	Phase2	test/STIM_005.jpg
1187.734	1.252	incorrect	test	Phase2	test/STIM_005.jpg
1192.612	1.294	correct	test	Phase2	test/STIM_005.jpg
1196.116	0.951	correct	test	Phase2	test/STIM_006.jpg
1200.329	1.208	correct	test	Phase2	test/STIM_006.jpg
1204.38	1.159	correct	test	Phase2	test/STIM_006.jpg
1207.744	1.412	correct	test	Phase2	test/STIM_007.jpg
1213.103	0.932	correct	test	Phase2	test/STIM_007.jpg
1216.927	1.233	correct	test	Phase2	test/STIM_007.jpg
1220.669	1.444	correct	test	Phase2	test/STIM_008.jpg
1224.539	1.136	incorrect	test	Phase2	test/STIM_008.jpg
1228.775	0.971	correct	test	Phase2	test/STIM_008.jpg
1233.016	0.881	incorrect	test	Phase2	test/STIM_009.jpg
1237.748	1.281	correct	test	Phase2	test/STIM_009.jpg
1241.489	1.204	incorrect	test	Phase2	test/STIM_009.jpg
1246.415	1.129	correct	test	Phase2	test/STIM_010.jpg
1250.983	0.82	correct	test	Phase2	test/STIM_010.jpg
1253.951	1.16	correct	test	Phase2	test/STIM_010.jpg
1257.732	0.709	incorrect	test	Phase2	test/STIM_011.jpg
1260.49	0.824	correct	test	Phase2	test/STIM_011.jpg
1265.193	0.733	correct	test	Phase2	test/STIM_011.jpg
1268.584	1.212	correct	test	Phase2	test/STIM_012.jpg
1272.334	1.44	incorrect	test	Phase2	test/STIM_012.jpg
1276.988	1.283	correct	test	Phase2	test/STIM_012.jpg
1281.878	0.94	correct	test	Phase2	test/STIM_013.jpg
1285.445	1.37	correct	test	Phase2	test/STIM_013.jpg
1289.959	1.231	correct	test	Phase2	test/STIM_013.jpg
1294.756	1.416	correct	test	Phase2	test/STIM_014.jpg
1298.239	1.178	correct	test	Phase2	test/STIM_014.jpg
1302.1	1.305	correct	test	Phase2	test/STIM_014.jpg
1306.068	1.223	correct	test	Phase2	test/STIM_015.jpg
1309.976	1.45	correct	test	Phase2	test/STIM_015.jpg
1314.668	0.983	incorrect	test	Phase2	test/STIM_015.jpg
1317.834	0.865	correct	test	Phase2	test/STIM_016.jpg
1321.583	1.148	correct	test	Phase2	test/STIM_016.jpg
1325.025	1.365	correct	test	Phase2	test/STIM_016.jpg
1329.066	1.178	correct	test	Phase2	test/STIM_017.jpg
1332.94	1.286	correct	test	Phase2	test/STIM_017.jpg
1337.472	1.182	correct	test	Phase2	test/STIM_017.jpg
1342.529	1.426	correct	test	Phase2	test/STIM_018.jpg
1346.868	1.31	correct	test	Phase2	test/STIM_018.jpg
1351.014	0.958	correct	test	Phase2	test/STIM_018.jpg
1354.726	1.003	correct	test	Phase2	test/STIM_019.jpg
1358.815	0.94	correct	test	Phase2	test/STIM_019.jpg
1362.651	1.275	correct	test	Phase2	test/STIM_019.jpg
1366.27	1.239	correct	test	Phase2	test/STIM_020.jpg
1370.637	1.428	correct	test	Phase2	test/STIM_020.jpg
1374.37	1.02	correct	test	Phase2	test/STIM_020.jpg
1378.921	0.836	correct	test	Phase2	test/STIM_021.jpg
1381.857	1.238	correct	test	Phase2	test/STIM_021.jpg
1386.01	1.108	correct	test	Phase2	test/STIM_021.jpg
1389.655	1.163	correct	test	Phase2	test/STIM_022.jpg
1394.134	0.743	correct	test	Phase2	test/STIM_022.jpg
1397.915	0.738	incorrect	test	Phase2	test/STIM_022.jpg
1401.962	1.377	correct	test	Phase2	test/STIM_023.jpg
1406.723	0.825	incorrect	test	Phase2	test/STIM_023.jpg
1409.893	0.73	correct	test	Phase2	test/STIM_023.jpg
1413.559	1.193	incorrect	test	Phase2	test/STIM_024.jpg
1417.182	1.315	correct	test	Phase2	test/STIM_024.jpg
1420.555	1.355	correct	test	Phase2	test/STIM_024.jpg
1424.283	0.881	correct	test	Phase2	test/STIM_025.jpg
1428.286	1.32	incorrect	test	Phase2	test/STIM_025.jpg
1432.705	1.144	correct	test	Phase2	test/STIM_025.jpg
1435.994	1.007	correct	test	Phase2	test/STIM_026.jpg
1440.987	1.051	incorrect	test	Phase2	test/STIM_026.jpg
1445.005	1.411	correct	test	Phase2	test/STIM_026.jpg
1449.194	1.406	correct	test	Phase2	test/STIM_027.jpg
1453.128	0.993	correct	test	Phase2	test/STIM_027.jpg
1457.204	1.024	correct	test	Phase2	test/STIM_027.jpg
1460.996	1.182	correct	test	Phase2	test/STIM_028.jpg
1464.345	0.685	incorrect	test	Phase2	test/STIM_028.jpg
1467.396	1.357	incorrect	test	Phase2	test/STIM_028.jpg
1472.075	0.775	correct	test	Phase2	test/STIM_029.jpg
1475.721	1.005	correct	test	Phase2	test/STIM_029.jpg
1479.062	1.154	correct	test	Phase2	test/STIM_029.jpg
1483.643	1.416	correct	study	Phase3	study/STIM_000.jpg
1488.828	1.123	correct	study	Phase3	study/STIM_000.jpg
1492.882	1.245	correct	study	Phase3	study/STIM_000.jpg
1497.484	0.746	incorrect	study	Phase3	study/STIM_001.jpg
1501.367	0.662	correct	study	Phase3	study/STIM_001.jpg
1505.757	0.662	correct	study	Phase3	study/STIM_001.jpg
1509.553	0.805	correct	study	Phase3	study/STIM_002.jpg
1513.91	0.866	correct	study	Phase3	study/STIM_002.jpg
1518.219	1.393	correct	study	Phase3	study/STIM_002.jpg
1522.709	0.973	correct	study	Phase3	study/STIM_003.jpg
1527.214	1.089	correct	study	Phase3	study/STIM_003.jpg
1531.507	1.409	correct	study	Phase3	study/STIM_003.jpg
1536.016	1.368	correct	study	Phase3	study/STIM_004.jpg
1540.786	0.771	correct	study	Phase3	study/STIM_004.jpg
1544.054	1.389	incorrect	study	Phase3	study/STIM_004.jpg
1548.807	0.755	correct	study	Phase3	study/STIM_005.jpg
1552.545	1.358	correct	study	Phase3	study/STIM_005.jpg
1557.44	0.731	correct	study	Phase3	study/STIM_005.jpg
1561.872	0.815	correct	study	Phase3	study/STIM_006.jpg
1564.972	0.88	correct	study	Phase3	study/STIM_006.jpg
1569.531	0.678	correct	study	Phase3	study/STIM_006.jpg
1574.03	0.647	correct	study	Phase3	study/STIM_007.jpg
1577.967	0.719	incorrect	study	Phase3	study/STIM_007.jpg
1581.702	1.319	correct	study	Phase3	study/STIM_007.jpg
1586.045	1.041	correct	study	Phase3	study/STIM_008.jpg
1589.47	1.383	incorrect	study	Phase3	study/STIM_008.jpg
1592.857	1.132	correct	study	Phase3	study/STIM_008.jpg
1596.785	0.811	correct	study	Phase3	study/STIM_009.jpg
1601.253	1.191	correct	study	Phase3	study/STIM_009.jpg
1604.557	1.038	correct	study	Phase3	study/STIM_009.jpg
1608.923	1.322	correct	study	Phase3	study/STIM_010.jpg
1613.456	1.244	correct	study	Phase3	study/STIM_010.jpg
1616.902	0.826	incorrect	study	Phase3	study/STIM_010.jpg
1620.809	0.96	correct	study	Phase3	study/STIM_011.jpg
1625.67	0.691	incorrect	study	Phase3	study/STIM_011.jpg
1628.59	1.349	incorrect	study	Phase3	study/STIM_011.jpg
1633.922	0.975	incorrect	study	Phase3	study/STIM_012.jpg
1638.069	0.949	correct	study	Phase3	study/STIM_012.jpg
1642.276	1.214	correct	study	Phase3	study/STIM_012.jpg
1646.308	1.196	correct	study	Phase3	study/STIM_013.jpg
1651.167	0.663	incorrect	study	Phase3	study/STIM_013.jpg
1653.857	1.08	correct	study	Phase3	study/STIM_013.jpg
1658.566	1.28	correct	study	Phase3	study/STIM_014.jpg
1661.938	0.772	correct	study	Phase3	study/STIM_014.jpg
1664.978	0.735	correct	study	Phase3	study/STIM_014.jpg
1667.902	0.897	correct	study	Phase3	study/STIM_015.jpg
1670.84	1.295	correct	study	Phase3	study/STIM_015.jpg
1675.007	1.384	correct	study	Phase3	study/STIM_015.jpg
1680.356	1.32	correct	study	Phase3	study/STIM_016.jpg
1683.937	1.326	correct	study	Phase3	study/STIM_016.jpg
1688.902	0.708	incorrect	study	Phase3	study/STIM_016.jpg
1692.325	1.195	correct	study	Phase3	study/STIM_017.jpg
1697.421	1.053	correct	study	Phase3	study/STIM_017.jpg
1701.597	1.204	correct	study	Phase3	study/STIM_017.jpg
1705.383	1.007	correct	study	Phase3	study/STIM_018.jpg
1709.803	0.893	correct	study	Phase3	study/STIM_018.jpg
1713.67	1.066	correct	study	Phase3	study/STIM_018.jpg
1717.971	0.931	correct	study	Phase3	study/STIM_019.jpg
1721.518	1.148	correct	study	Phase3	study/STIM_019.jpg
1724.935	0.64	incorrect	study	Phase3	study/STIM_019.jpg
1729.31	0.999	correct	study	Phase3	study/STIM_020.jpg
1734.167	0.736	correct	study	Phase3	study/STIM_020.jpg
1737.981	1.304	correct	study	Phase3	study/STIM_020.jpg
1742.708	1.145	correct	study	Phase3	study/STIM_021.jpg
1747.528	1.322	correct	study	Phase3	study/STIM_021.jpg
1751.879	1.257	correct	study	Phase3	study/STIM_021.jpg
1756.639	0.643	correct	study	Phase3	study/STIM_022.jpg
1760.985	0.978	correct	study	Phase3	study/STIM_022.jpg
1765.024	1.15	correct	study	Phase3	study/STIM_022.jpg
1769.125	1.304	correct	study	Phase3	study/STIM_023.jpg
1773.598	0.727	correct	study	Phase3	study/STIM_023.jpg
1778.252	0.681	correct	study	Phase3	study/STIM_023.jpg
1782.536	0.929	correct	study	Phase3	study/STIM_024.jpg
1785.695	0.813	correct	study	Phase3	study/STIM_024.jpg
1790.165	1.149	correct	study	Phase3	study/STIM_024.jpg
1794.525	1.279	correct	study	Phase3	study/STIM_025.jpg
1797.969	1.016	incorrect	study	Phase3	study/STIM_025.jpg
1801.916	1.032	correct	study	Phase3	study/STIM_025.jpg
1805.827	0.893	correct	study	Phase3	study/STIM_026.jpg
1808.79	0.774	correct	study	Phase3	study/STIM_026.jpg
1812.399	0.787	correct	study	Phase3	study/STIM_026.jpg
1816.553	0.908	correct	study	Phase3	study/STIM_027.jpg
1821.44	0.83	correct	study	Phase3	study/STIM_027.jpg
1826.255	0.745	correct	study	Phase3	study/STIM_027.jpg
1830.042	1.008	incorrect	study	Phase3	study/STIM_028.jpg
1833.63	0.968	correct	study	Phase3	study/STIM_028.jpg
1838.014	1.362	correct	study	Phase3	study/STIM_028.jpg
1841.994	1.003	correct	study	Phase3	study/STIM_029.jpg
1845.412	0.803	correct	study	Phase3	study/STIM_029.jpg
1849.126	1.355	correct	study	Phase3	study/STIM_029.jpg
1853.737	1.379	correct	test	Phase3	test/STIM_000.jpg
1858.951	1.331	correct	test	Phase3	test/STIM_000.jpg
1864.093	1.319	correct	test	Phase3	test/STIM_000.jpg
1869.073	1.111	correct	test	Phase3	test/STIM_001.jpg
1873.42	0.992	correct	test	Phase3	test/STIM_001.jpg
1877.684	1.289	correct	test	Phase3	test/STIM_001.jpg
1882.3	1.467	correct	test	Phase3	test/STIM_002.jpg
1887.589	0.935	correct	test	Phase3	test/STIM_002.jpg
1891.248	1.03	correct	test	Phase3	test/STIM_002.jpg
1894.425	1.077	correct	test	Phase3	test/STIM_003.jpg
1899.123	0.706	correct	test	Phase3	test/STIM_003.jpg
1902.618	0.754	correct	test	Phase3	test/STIM_003.jpg
1906.99	0.79	correct	test	Phase3	test/STIM_004.jpg
1909.897	0.91	correct	test	Phase3	test/STIM_004.jpg
1913.523	1.062	correct	test	Phase3	test/STIM_004.jpg
1918.016	0.823	correct	test	Phase3	test/STIM_005.jpg
1921.918	1.116	correct	test	Phase3	test/STIM_005.jpg
1926.581	1.271	correct	test	Phase3	test/STIM_005.jpg
1930.035	1.258	correct	test	Phase3	test/STIM_006.jpg
1933.855	0.693	correct	test	Phase3	test/STIM_006.jpg
1938.026	0.791	correct	test	Phase3	test/STIM_006.jpg
1941.777	1.073	correct	test	Phase3	test/STIM_007.jpg
1945.794	1.196	correct	test	Phase3	test/STIM_007.jpg
1949.787	1.377	correct	test	Phase3	test/STIM_007.jpg
1953.407	0.871	correct	test	Phase3	test/STIM_008.jpg
1958.248	0.983	correct	test	Phase3	test/STIM_008.jpg
1962.623	1.034	correct	test	Phase3	test/STIM_008.jpg
1966.534	1.057	incorrect	test	Phase3	test/STIM_009.jpg
1970.728	1.451	correct	test	Phase3	test/STIM_009.jpg
1974.469	0.986	correct	test	Phase3	test/STIM_009.jpg
1978.299	0.76	incorrect	test	Phase3	test/STIM_010.jpg
1981.533	1.129	correct	test	Phase3	test/STIM_010.jpg
1985.729	1.273	correct	test	Phase3	test/STIM_010.jpg
1990.051	0.851	correct	test	Phase3	test/STIM_011.jpg
1993.454	0.882	incorrect	test	Phase3	test/STIM_011.jpg
1996.527	1.077	correct	test	Phase3	test/STIM_011.jpg
2000.648	1.041	correct	test	Phase3	test/STIM_012.jpg
2004.284	1.328	correct	test	Phase3	test/STIM_012.jpg
2008.029	1.397	correct	test	Phase3	test/STIM_012.jpg
2012.893	1.22	correct	test	Phase3	test/STIM_013.jpg
2017.915	0.932	correct	test	Phase3	test/STIM_013.jpg
2021.401	1.098	correct	test	Phase3	test/STIM_013.jpg
2025.721	0.916	incorrect	test	Phase3	test/STIM_014.jpg
2029.989	1.034	incorrect	test	Phase3	test/STIM_014.jpg
2034.759	0.797	correct	test	Phase3	test/STIM_014.jpg
2039.441	0.932	correct	test	Phase3	test/STIM_015.jpg
2042.393	0.773	correct	test	Phase3	test/STIM_015.jpg
2045.948	0.988	correct	test	Phase3	test/STIM_015.jpg
2049.264	1.085	correct	test	Phase3	test/STIM_016.jpg
2053.451	0.709	correct	test	Phase3	test/STIM_016.jpg
2058.023	1.031	correct	test	Phase3	test/STIM_016.jpg
2061.513	0.921	correct	test	Phase3	test/STIM_017.jpg
2065.974	0.945	correct	test	Phase3	test/STIM_017.jpg
2069.821	0.816	correct	test	Phase3	test/STIM_017.jpg
2074.048	1.025	correct	test	Phase3	test/STIM_018.jpg
2078.77	1.065	correct	test	Phase3	test/STIM_018.jpg
2081.902	0.898	incorrect	test	Phase3	test/STIM_018.jpg
2085.776	0.915	correct	test	Phase3	test/STIM_019.jpg
2089.295	1.27	correct	test	Phase3	test/STIM_019.jpg
2093.753	1.017	incorrect	test	Phase3	test/STIM_019.jpg
2097.174	0.895	correct	test	Phase3	test/STIM_020.jpg
2100.402	1.047	correct	test	Phase3	test/STIM_020.jpg
2105.429	1.152	correct	test	Phase3	test/STIM_020.jpg
2109.502	1.379	correct	test	Phase3	test/STIM_021.jpg
2114.804	1.391	correct	test	Phase3	test/STIM_021.jpg
2118.202	1.17	correct	test	Phase3	test/STIM_021.jpg
2121.635	0.813	correct	test	Phase3	test/STIM_022.jpg
2126.336	0.806	correct	test	Phase3	test/STIM_022.jpg
2130.925	1.026	incorrect	test	Phase3	test/STIM_022.jpg
2134.744	1.266	correct	test	Phase3	test/STIM_023.jpg
2139.808	0.939	correct	test	Phase3	test/STIM_023.jpg
2143.791	1.196	correct	test	Phase3	test/STIM_023.jpg
2148.272	0.793	incorrect	test	Phase3	test/STIM_024.jpg
2151.353	1.348	incorrect	test	Phase3	test/STIM_024.jpg
2155.384	0.941	correct	test	Phase3	test/STIM_024.jpg
2158.714	1.255	correct	test	Phase3	test/STIM_025.jpg
2163.78	1.27	correct	test	Phase3	test/STIM_025.jpg
2168.809	1.117	correct	test	Phase3	test/STIM_025.jpg
2172.369	0.841	correct	test	Phase3	test/STIM_026.jpg
2176.163	1.37	correct	test	Phase3	test/STIM_026.jpg
2180.01	1.155	correct	test	Phase3	test/STIM_026.jpg
2183.759	0.985	correct	test	Phase3	test/STIM_027.jpg
2187.331	1.236	correct	test	Phase3	test/STIM_027.jpg
2192.254	1.41	correct	test	Phase3	test/STIM_027.jpg
2196.744	0.828	incorrect	test	Phase3	test/STIM_028.jpg
2200.752	1.41	correct	test	Phase3	test/STIM_028.jpg
2206.034	0.889	correct	test	Phase3	test/STIM_028.jpg
2210.516	1.379	correct	test	Phase3	test/STIM_029.jpg
2214.1	0.714	incorrect	test	Phase3	test/STIM_029.jpg
2217.693	0.867	correct	test	Phase3	test/STIM_029.jpg
