onset	duration	accuracy_binary	trial_type	learning_stage	stimulus
0.0	1.043	1	incongruent	Block1	incongruent/STIM_000.jpg
3.767	0.727	1	incongruent	Block1	incongruent/STIM_000.jpg
7.03	0.686	1	incongruent	Block1	incongruent/STIM_000.jpg
11.29	1.016	0	incongruent	Block1	incongruent/STIM_000.jpg
14.453	0.926	1	incongruent	Block1	incongruent/STIM_000.jpg
18.595	0.997	0	incongruent	Block1	incongruent/STIM_001.jpg
22.912	0.788	1	incongruent	Block1	incongruent/STIM_001.jpg
27.539	0.895	1	incongruent	Block1	incongruent/STIM_001.jpg
30.883	0.911	1	incongruent	Block1	incongruent/STIM_001.jpg
33.883	0.923	1	incongruent	Block1	incongruent/STIM_001.jpg
37.471	1.062	0	incongruent	Block1	incongruent/STIM_002.jpg
41.832	0.625	1	incongruent	Block1	incongruent/STIM_002.jpg
46.292	1.083	1	incongruent	Block1	incongruent/STIM_002.jpg
49.98	1.016	1	incongruent	Block1	incongruent/STIM_002.jpg
53.875	0.931	1	incongruent	Block1	incongruent/STIM_002.jpg
58.135	1.062	1	incongruent	Block1	incongruent/STIM_003.jpg
61.58	0.956	1	incongruent	Block1	incongruent/STIM_003.jpg
66.433	0.674	0	incongruent	Block1	incongruent/STIM_003.jpg
70.028	1.112	1	incongruent	Block1	incongruent/STIM_003.jpg
75.098	1.042	1	incongruent	Block1	incongruent/STIM_003.jpg
78.304	0.776	1	incongruent	Block1	incongruent/STIM_004.jpg
82.354	0.954	1	incongruent	Block1	incongruent/STIM_004.jpg
86.973	0.835	1	incongruent	Block1	incongruent/STIM_004.jpg
90.345	0.713	1	incongruent	Block1	incongruent/STIM_004.jpg
94.979	1.101	1	incongruent	Block1	incongruent/STIM_004.jpg
99.875	1.126	1	incongruent	Block1	incongruent/STIM_005.jpg
103.963	1.026	1	incongruent	Block1	incongruent/STIM_005.jpg
108.553	0.635	1	incongruent	Block1	incongruent/STIM_005.jpg
112.112	0.814	1	incongruent	Block1	incongruent/STIM_005.jpg
115.695	0.66	1	incongruent	Block1	incongruent/STIM_005.jpg
118.631	0.964	1	incongruent	Block1	incongruent/STIM_006.jpg
122.401	1.167	1	incongruent	Block1	incongruent/STIM_006.jpg
127.262	1.079	1	incongruent	Block1	incongruent/STIM_006.jpg
130.888	1.109	1	incongruent	Block1	incongruent/STIM_006.jpg
135.055	1.076	1	incongruent	Block1	incongruent/STIM_006.jpg
138.869	1.317	1	incongruent	Block1	incongruent/STIM_007.jpg
142.558	0.681	1	incongruent	Block1	incongruent/STIM_007.jpg
146.612	0.654	1	incongruent	Block1	incongruent/STIM_007.jpg
150.243	0.718	1	incongruent	Block1	incongruent/STIM_007.jpg
153.264	0.851	1	incongruent	Block1	incongruent/STIM_007.jpg
157.11	1.103	1	incongruent	Block1	incongruent/STIM_008.jpg
160.814	1.229	1	incongruent	Block1	incongruent/STIM_008.jpg
165.503	0.945	1	incongruent	Block1	incongruent/STIM_008.jpg
168.911	0.553	1	incongruent	Block1	incongruent/STIM_008.jpg
172.114	0.946	1	incongruent	Block1	incongruent/STIM_008.jpg
175.278	1.277	1	incongruent	Block1	incongruent/STIM_009.jpg
179.203	0.952	1	incongruent	Block1	incongruent/STIM_009.jpg
183.959	0.688	1	incongruent	Block1	incongruent/STIM_009.jpg
188.09	0.927	1	incongruent	Block1	incongruent/STIM_009.jpg
192.49	0.649	1	incongruent	Block1	incongruent/STIM_009.jpg
196.36	1.128	0	incongruent	Block1	incongruent/STIM_010.jpg
199.597	1.093	1	incongruent	Block1	incongruent/STIM_010.jpg
203.792	0.79	1	incongruent	Block1	incongruent/STIM_010.jpg
207.654	0.746	1	incongruent	Block1	incongruent/STIM_010.jpg
211.817	0.663	1	incongruent	Block1	incongruent/STIM_010.jpg
216.22	1.189	0	incongruent	Block1	incongruent/STIM_011.jpg
220.377	0.636	1	incongruent	Block1	incongruent/STIM_011.jpg
224.704	1.187	1	incongruent	Block1	incongruent/STIM_011.jpg
228.255	0.614	1	incongruent	Block1	incongruent/STIM_011.jpg
231.432	0.732	1	incongruent	Block1	incongruent/STIM_011.jpg
235.626	1.039	0	incongruent	Block1	incongruent/STIM_012.jpg
240.179	1.121	1	incongruent	Block1	incongruent/STIM_012.jpg
243.545	0.978	1	incongruent	Block1	incongruent/STIM_012.jpg
248.189	0.87	0	incongruent	Block1	incongruent/STIM_012.jpg
252.861	0.603	1	incongruent	Block1	incongruent/STIM_012.jpg
255.845	0.972	1	incongruent	Block1	incongruent/STIM_013.jpg
259.923	0.722	1	incongruent	Block1	incongruent/STIM_013.jpg
263.291	1.231	1	incongruent	Block1	incongruent/STIM_013.jpg
268.122	1.126	1	incongruent	Block1	incongruent/STIM_013.jpg
273.011	0.893	0	incongruent	Block1	incongruent/STIM_013.jpg
277.668	1.362	1	incongruent	Block1	incongruent/STIM_014.jpg
282.438	1.074	1	incongruent	Block1	incongruent/STIM_014.jpg
286.054	1.099	1	incongruent	Block1	incongruent/STIM_014.jpg
289.867	0.875	1	incongruent	Block1	incongruent/STIM_014.jpg
293.404	1.06	1	incongruent	Block1	incongruent/STIM_014.jpg
298.242	0.692	1	incongruent	Block1	incongruent/STIM_015.jpg
302.344	0.764	1	incongruent	Block1	incongruent/STIM_015.jpg
305.601	0.776	1	incongruent	Block1	incongruent/STIM_015.jpg
309.403	0.733	0	incongruent	Block1	incongruent/STIM_015.jpg
312.559	0.753	1	incongruent	Block1	incongruent/STIM_015.jpg
316.873	0.669	1	incongruent	Block1	incongruent/STIM_016.jpg
321.397	1.026	1	incongruent	Block1	incongruent/STIM_016.jpg
326.09	1.192	1	incongruent	Block1	incongruent/STIM_016.jpg
329.965	0.994	1	incongruent	Block1	incongruent/STIM_016.jpg
333.416	0.546	1	incongruent	Block1	incongruent/STIM_016.jpg
336.664	0.848	1	incongruent	Block1	incongruent/STIM_017.jpg
340.891	0.839	1	incongruent	Block1	incongruent/STIM_017.jpg
345.415	0.787	1	incongruent	Block1	incongruent/STIM_017.jpg
349.632	0.677	1	incongruent	Block1	incongruent/STIM_017.jpg
353.074	0.926	1	incongruent	Block1	incongruent/STIM_017.jpg
356.846	1.061	1	incongruent	Block1	incongruent/STIM_018.jpg
361.628	0.613	1	incongruent	Block1	incongruent/STIM_018.jpg
364.568	0.963	1	incongruent	Block1	incongruent/STIM_018.jpg
368.13	0.982	1	incongruent	Block1	incongruent/STIM_018.jpg
371.706	0.832	0	incongruent	Block1	incongruent/STIM_018.jpg
376.242	0.804	1	incongruent	Block1	incongruent/STIM_019.jpg
380.963	1.138	1	incongruent	Block1	incongruent/STIM_019.jpg
384.295	0.993	1	incongruent	Block1	incongruent/STIM_019.jpg
388.443	0.577	1	incongruent	Block1	incongruent/STIM_019.jpg
391.722	0.598	1	incongruent	Block1	incongruent/STIM_019.jpg
395.345	1.195	1	incongruent	Block1	incongruent/STIM_020.jpg
399.75	0.944	1	incongruent	Block1	incongruent/STIM_020.jpg
402.719	0.794	1	incongruent	Block1	incongruent/STIM_020.jpg
406.098	0.683	1	incongruent	Block1	incongruent/STIM_020.jpg
409.223	0.776	1	incongruent	Block1	incongruent/STIM_020.jpg
412.624	0.769	1	incongruent	Block1	incongruent/STIM_021.jpg
415.585	1.11	1	incongruent	Block1	incongruent/STIM_021.jpg
420.059	0.711	1	incongruent	Block1	incongruent/STIM_021.jpg
424.066	0.787	1	incongruent	Block1	incongruent/STIM_021.jpg
428.061	0.975	1	incongruent	Block1	incongruent/STIM_021.jpg
432.277	1.03	1	incongruent	Block1	incongruent/STIM_022.jpg
436.698	1.297	1	incongruent	Block1	incongruent/STIM_022.jpg
441.636	1.025	1	incongruent	Block1	incongruent/STIM_022.jpg
444.845	0.614	1	incongruent	Block1	incongruent/STIM_022.jpg
449.174	1.036	1	incongruent	Block1	incongruent/STIM_022.jpg
452.414	0.803	1	incongruent	Block1	incongruent/STIM_023.jpg
456.76	0.634	1	incongruent	Block1	incongruent/STIM_023.jpg
461.345	1.207	1	incongruent	Block1	incongruent/STIM_023.jpg
464.943	0.755	1	incongruent	Block1	incongruent/STIM_023.jpg
469.558	0.681	0	incongruent	Block1	incongruent/STIM_023.jpg
473.512	0.812	1	incongruent	Block1	incongruent/STIM_024.jpg
476.332	1.277	1	incongruent	Block1	incongruent/STIM_024.jpg
479.907	0.605	1	incongruent	Block1	incongruent/STIM_024.jpg
484.152	0.712	1	incongruent	Block1	incongruent/STIM_024.jpg
487.782	0.602	1	incongruent	Block1	incongruent/STIM_024.jpg
491.863	1.023	1	incongruent	Block1	incongruent/STIM_025.jpg
495.338	0.886	1	incongruent	Block1	incongruent/STIM_025.jpg
499.348	0.636	1	incongruent	Block1	incongruent/STIM_025.jpg
502.122	0.635	0	incongruent	Block1	incongruent/STIM_025.jpg
505.653	0.986	1	incongruent	Block1	incongruent/STIM_025.jpg
509.996	1.188	1	incongruent	Block1	incongruent/STIM_026.jpg
513.552	1.16	1	incongruent	Block1	incongruent/STIM_026.jpg
517.355	1.033	1	incongruent	Block1	incongruent/STIM_026.jpg
521.698	0.685	1	incongruent	Block1	incongruent/STIM_026.jpg
525.422	0.836	1	incongruent	Block1	incongruent/STIM_026.jpg
529.046	1.296	1	incongruent	Block1	incongruent/STIM_027.jpg
532.889	0.857	1	incongruent	Block1	incongruent/STIM_027.jpg
536.825	0.654	1	incongruent	Block1	incongruent/STIM_027.jpg
540.916	1.091	1	incongruent	Block1	incongruent/STIM_027.jpg
544.349	0.986	1	incongruent	Block1	incongruent/STIM_027.jpg
548.452	1.184	1	incongruent	Block1	incongruent/STIM_028.jpg
553.408	0.739	1	incongruent	Block1	incongruent/STIM_028.jpg
557.282	1.021	1	incongruent	Block1	incongruent/STIM_028.jpg
560.954	0.798	0	incongruent	Block1	incongruent/STIM_028.jpg
565.464	0.577	1	incongruent	Block1	incongruent/STIM_028.jpg
569.513	0.939	1	incongruent	Block1	incongruent/STIM_029.jpg
573.324	0.981	1	incongruent	Block1	incongruent/STIM_029.jpg
578.273	0.837	1	incongruent	Block1	incongruent/STIM_029.jpg
582.098	0.959	1	incongruent	Block1	incongruent/STIM_029.jpg
586.059	0.716	1	incongruent	Block1	incongruent/STIM_029.jpg
589.911	0.716	1	congruent	Block1	congruent/STIM_000.jpg
593.497	0.64	1	congruent	Block1	congruent/STIM_000.jpg
596.481	0.463	1	congruent	Block1	congruent/STIM_000.jpg
600.84	0.656	1	congruent	Block1	congruent/STIM_000.jpg
603.636	0.694	1	congruent	Block1	congruent/STIM_000.jpg
606.82	0.504	1	congruent	Block1	congruent/STIM_001.jpg
610.153	0.598	1	congruent	Block1	congruent/STIM_001.jpg
614.389	0.789	1	congruent	Block1	congruent/STIM_001.jpg
618.518	0.766	1	congruent	Block1	congruent/STIM_001.jpg
621.364	0.722	0	congruent	Block1	congruent/STIM_001.jpg
625.447	0.493	1	congruent	Block1	congruent/STIM_002.jpg
628.968	0.732	1	congruent	Block1	congruent/STIM_002.jpg
633.177	0.771	1	congruent	Block1	congruent/STIM_002.jpg
637.208	0.77	1	congruent	Block1	congruent/STIM_002.jpg
640.579	0.82	1	congruent	Block1	congruent/STIM_002.jpg
643.972	0.544	1	congruent	Block1	congruent/STIM_003.jpg
648.341	0.658	0	congruent	Block1	congruent/STIM_003.jpg
651.604	0.763	1	congruent	Block1	congruent/STIM_003.jpg
654.493	0.547	0	congruent	Block1	congruent/STIM_003.jpg
657.636	0.818	1	congruent	Block1	congruent/STIM_003.jpg
660.727	0.633	0	congruent	Block1	congruent/STIM_004.jpg
664.957	0.581	1	congruent	Block1	congruent/STIM_004.jpg
668.527	0.536	1	congruent	Block1	congruent/STIM_004.jpg
672.686	0.75	1	congruent	Block1	congruent/STIM_004.jpg
676.537	0.727	1	congruent	Block1	congruent/STIM_004.jpg
681.028	0.594	1	congruent	Block1	congruent/STIM_005.jpg
684.407	0.482	1	congruent	Block1	congruent/STIM_005.jpg
688.61	0.533	1	congruent	Block1	congruent/STIM_005.jpg
692.933	0.807	1	congruent	Block1	congruent/STIM_005.jpg
696.016	0.52	1	congruent	Block1	congruent/STIM_005.jpg
699.83	0.61	1	congruent	Block1	congruent/STIM_006.jpg
702.492	0.755	1	congruent	Block1	congruent/STIM_006.jpg
706.256	0.569	1	congruent	Block1	congruent/STIM_006.jpg
709.052	0.576	1	congruent	Block1	congruent/STIM_006.jpg
713.616	0.529	1	congruent	Block1	congruent/STIM_006.jpg
716.207	0.477	1	congruent	Block1	congruent/STIM_007.jpg
719.687	0.466	1	congruent	Block1	congruent/STIM_007.jpg
722.655	0.654	1	congruent	Block1	congruent/STIM_007.jpg
726.309	0.552	1	congruent	Block1	congruent/STIM_007.jpg
729.007	0.624	1	congruent	Block1	congruent/STIM_007.jpg
733.443	0.654	1	congruent	Block1	congruent/STIM_008.jpg
737.416	0.753	1	congruent	Block1	congruent/STIM_008.jpg
741.462	0.549	1	congruent	Block1	congruent/STIM_008.jpg
744.673	0.781	0	congruent	Block1	congruent/STIM_008.jpg
749.193	0.514	1	congruent	Block1	congruent/STIM_008.jpg
751.741	0.596	1	congruent	Block1	congruent/STIM_009.jpg
754.446	0.529	1	congruent	Block1	congruent/STIM_009.jpg
757.216	0.769	1	congruent	Block1	congruent/STIM_009.jpg
761.952	0.81	1	congruent	Block1	congruent/STIM_009.jpg
765.554	0.459	1	congruent	Block1	congruent/STIM_009.jpg
769.65	0.749	0	congruent	Block1	congruent/STIM_010.jpg
773.799	0.61	1	congruent	Block1	congruent/STIM_010.jpg
777.776	0.814	1	congruent	Block1	congruent/STIM_010.jpg
782.081	0.624	1	congruent	Block1	congruent/STIM_010.jpg
785.797	0.518	1	congruent	Block1	congruent/STIM_010.jpg
788.74	0.505	0	congruent	Block1	congruent/STIM_011.jpg
793.09	0.644	1	congruent	Block1	congruent/STIM_011.jpg
796.596	0.8	1	congruent	Block1	congruent/STIM_011.jpg
799.913	0.587	1	congruent	Block1	congruent/STIM_011.jpg
803.445	0.501	1	congruent	Block1	congruent/STIM_011.jpg
807.357	0.587	1	congruent	Block1	congruent/STIM_012.jpg
811.616	0.666	1	congruent	Block1	congruent/STIM_012.jpg
815.11	0.584	1	congruent	Block1	congruent/STIM_012.jpg
819.504	0.509	1	congruent	Block1	congruent/STIM_012.jpg
823.49	0.804	1	congruent	Block1	congruent/STIM_012.jpg
827.029	0.758	1	congruent	Block1	congruent/STIM_013.jpg
830.422	0.567	1	congruent	Block1	congruent/STIM_013.jpg
833.874	0.693	0	congruent	Block1	congruent/STIM_013.jpg
837.024	0.759	1	congruent	Block1	congruent/STIM_013.jpg
840.729	0.513	1	congruent	Block1	congruent/STIM_013.jpg
844.761	0.462	1	congruent	Block1	congruent/STIM_014.jpg
847.323	0.715	1	congruent	Block1	congruent/STIM_014.jpg
850.33	0.525	1	congruent	Block1	congruent/STIM_014.jpg
854.187	0.817	1	congruent	Block1	congruent/STIM_014.jpg
858.02	0.58	1	congruent	Block1	congruent/STIM_014.jpg
861.554	0.559	1	congruent	Block1	congruent/STIM_015.jpg
865.28	0.603	1	congruent	Block1	congruent/STIM_015.jpg
868.626	0.49	1	congruent	Block1	congruent/STIM_015.jpg
871.203	0.678	1	congruent	Block1	congruent/STIM_015.jpg
874.013	0.698	1	congruent	Block1	congruent/STIM_015.jpg
877.805	0.698	1	congruent	Block1	congruent/STIM_016.jpg
882.146	0.656	1	congruent	Block1	congruent/STIM_016.jpg
885.178	0.55	1	congruent	Block1	congruent/STIM_016.jpg
888.766	0.756	1	congruent	Block1	congruent/STIM_016.jpg
892.872	0.584	1	congruent	Block1	congruent/STIM_016.jpg
897.221	0.632	1	congruent	Block1	congruent/STIM_017.jpg
900.547	0.525	1	congruent	Block1	congruent/STIM_017.jpg
904.847	0.807	1	congruent	Block1	congruent/STIM_017.jpg
907.947	0.804	1	congruent	Block1	congruent/STIM_017.jpg
911.43	0.628	1	congruent	Block1	congruent/STIM_017.jpg
914.869	0.703	1	congruent	Block1	congruent/STIM_018.jpg
919.297	0.745	1	congruent	Block1	congruent/STIM_018.jpg
923.519	0.541	1	congruent	Block1	congruent/STIM_018.jpg
927.052	0.78	1	congruent	Block1	congruent/STIM_018.jpg
930.479	0.697	1	congruent	Block1	congruent/STIM_018.jpg
933.47	0.786	1	congruent	Block1	congruent/STIM_019.jpg
937.245	0.759	1	congruent	Block1	congruent/STIM_019.jpg
940.051	0.518	1	congruent	Block1	congruent/STIM_019.jpg
942.71	0.569	1	congruent	Block1	congruent/STIM_019.jpg
946.519	0.699	1	congruent	Block1	congruent/STIM_019.jpg
950.865	0.465	1	congruent	Block1	congruent/STIM_020.jpg
954.012	0.67	1	congruent	Block1	congruent/STIM_020.jpg
958.099	0.648	1	congruent	Block1	congruent/STIM_020.jpg
962.097	0.579	1	congruent	Block1	congruent/STIM_020.jpg
966.133	0.755	1	congruent	Block1	congruent/STIM_020.jpg
970.591	0.664	1	congruent	Block1	congruent/STIM_021.jpg
974.962	0.726	1	congruent	Block1	congruent/STIM_021.jpg
978.24	0.762	1	congruent	Block1	congruent/STIM_021.jpg
982.704	0.463	1	congruent	Block1	congruent/STIM_021.jpg
986.557	0.676	1	congruent	Block1	congruent/STIM_021.jpg
989.398	0.73	1	congruent	Block1	congruent/STIM_022.jpg
992.318	0.67	1	congruent	Block1	congruent/STIM_022.jpg
995.14	0.657	1	congruent	Block1	congruent/STIM_022.jpg
998.585	0.489	1	congruent	Block1	congruent/STIM_022.jpg
1001.648	0.488	1	congruent	Block1	congruent/STIM_022.jpg
1005.797	0.604	1	congruent	Block1	congruent/STIM_023.jpg
1009.135	0.717	1	congruent	Block1	congruent/STIM_023.jpg
1013.246	0.824	1	congruent	Block1	congruent/STIM_023.jpg
1016.793	0.661	1	congruent	Block1	congruent/STIM_023.jpg
1020.935	0.721	1	congruent	Block1	congruent/STIM_023.jpg
1024.93	0.672	1	congruent	Block1	congruent/STIM_024.jpg
1029.57	0.48	1	congruent	Block1	congruent/STIM_024.jpg
1032.498	0.637	1	congruent	Block1	congruent/STIM_024.jpg
1035.371	0.627	1	congruent	Block1	congruent/STIM_024.jpg
1039.416	0.491	1	congruent	Block1	congruent/STIM_024.jpg
1042.788	0.62	1	congruent	Block1	congruent/STIM_025.jpg
1046.768	0.792	1	congruent	Block1	congruent/STIM_025.jpg
1050.881	0.655	1	congruent	Block1	congruent/STIM_025.jpg
1054.315	0.578	1	congruent	Block1	congruent/STIM_025.jpg
1057.8	0.718	1	congruent	Block1	congruent/STIM_025.jpg
1060.914	0.596	1	congruent	Block1	congruent/STIM_026.jpg
1064.073	0.705	1	congruent	Block1	congruent/STIM_026.jpg
1067.145	0.656	1	congruent	Block1	congruent/STIM_026.jpg
1070.819	0.692	1	congruent	Block1	congruent/STIM_026.jpg
1075.352	0.693	1	congruent	Block1	congruent/STIM_026.jpg
1079.017	0.461	1	congruent	Block1	congruent/STIM_027.jpg
1082.019	0.651	1	congruent	Block1	congruent/STIM_027.jpg
1086.043	0.798	1	congruent	Block1	congruent/STIM_027.jpg
1089.677	0.808	0	congruent	Block1	congruent/STIM_027.jpg
1093.961	0.485	1	congruent	Block1	congruent/STIM_027.jpg
1097.701	0.539	1	congruent	Block1	congruent/STIM_028.jpg
1101.925	0.479	1	congruent	Block1	congruent/STIM_028.jpg
1106.145	0.558	1	congruent	Block1	congruent/STIM_028.jpg
1109.88	0.644	1	congruent	Block1	congruent/STIM_028.jpg
1112.938	0.599	1	congruent	Block1	congruent/STIM_028.jpg
1115.629	0.74	1	congruent	Block1	congruent/STIM_029.jpg
1119.9	0.681	1	congruent	Block1	congruent/STIM_029.jpg
1122.797	0.573	1	congruent	Block1	congruent/STIM_029.jpg
1125.86	0.713	1	congruent	Block1	congruent/STIM_029.jpg
1129.296	0.729	1	congruent	Block1	congruent/STIM_029.jpg
1132.381	0.776	1	incongruent	Block2	incongruent/STIM_000.jpg
1137.095	0.887	1	incongruent	Block2	incongruent/STIM_000.jpg
1141.722	0.977	1	incongruent	Block2	incongruent/STIM_000.jpg
1145.583	0.888	1	incongruent	Block2	incongruent/STIM_000.jpg
1150.081	0.854	1	incongruent	Block2	incongruent/STIM_000.jpg
1154.372	1.109	1	incongruent	Block2	incongruent/STIM_001.jpg
1159.398	0.798	1	incongruent	Block2	incongruent/STIM_001.jpg
1162.262	0.711	1	incongruent	Block2	incongruent/STIM_001.jpg
1165.387	0.719	1	incongruent	Block2	incongruent/STIM_001.jpg
1169.524	0.617	1	incongruent	Block2	incongruent/STIM_001.jpg
1172.822	1.014	1	incongruent	Block2	incongruent/STIM_002.jpg
1176.464	1.024	1	incongruent	Block2	incongruent/STIM_002.jpg
1180.026	0.94	1	incongruent	Block2	incongruent/STIM_002.jpg
1183.084	0.654	1	incongruent	Block2	incongruent/STIM_002.jpg
1187.244	0.521	1	incongruent	Block2	incongruent/STIM_002.jpg
1190.599	0.719	1	incongruent	Block2	incongruent/STIM_003.jpg
1194.135	0.857	1	incongruent	Block2	incongruent/STIM_003.jpg
1197.807	0.706	1	incongruent	Block2	incongruent/STIM_003.jpg
1201.312	0.944	1	incongruent	Block2	incongruent/STIM_003.jpg
1205.797	0.73	1	incongruent	Block2	incongruent/STIM_003.jpg
1209.241	0.837	1	incongruent	Block2	incongruent/STIM_004.jpg
1212.326	0.749	1	incongruent	Block2	incongruent/STIM_004.jpg
1216.89	0.835	1	incongruent	Block2	incongruent/STIM_004.jpg
1221.395	0.64	1	incongruent	Block2	incongruent/STIM_004.jpg
1225.329	0.872	1	incongruent	Block2	incongruent/STIM_004.jpg
1228.392	0.881	1	incongruent	Block2	incongruent/STIM_005.jpg
1232.094	0.605	1	incongruent	Block2	incongruent/STIM_005.jpg
1234.77	0.868	1	incongruent	Block2	incongruent/STIM_005.jpg
1237.729	0.524	1	incongruent	Block2	incongruent/STIM_005.jpg
1240.824	0.53	1	incongruent	Block2	incongruent/STIM_005.jpg
1244.275	1.112	1	incongruent	Block2	incongruent/STIM_006.jpg
1247.394	0.928	1	incongruent	Block2	incongruent/STIM_006.jpg
1250.495	0.958	1	incongruent	Block2	incongruent/STIM_006.jpg
1253.794	0.797	1	incongruent	Block2	incongruent/STIM_006.jpg
1258.046	0.858	1	incongruent	Block2	incongruent/STIM_006.jpg
1261.494	0.575	1	incongruent	Block2	incongruent/STIM_007.jpg
1264.765	0.631	1	incongruent	Block2	incongruent/STIM_007.jpg
1269.241	0.777	1	incongruent	Block2	incongruent/STIM_007.jpg
1272.731	0.662	1	incongruent	Block2	incongruent/STIM_007.jpg
1276.389	0.735	1	incongruent	Block2	incongruent/STIM_007.jpg
1280.274	0.872	1	incongruent	Block2	incongruent/STIM_008.jpg
1284.733	1.063	1	incongruent	Block2	incongruent/STIM_008.jpg
1289.726	0.765	1	incongruent	Block2	incongruent/STIM_008.jpg
1293.825	0.673	1	incongruent	Block2	incongruent/STIM_008.jpg
1296.865	0.688	1	incongruent	Block2	incongruent/STIM_008.jpg
1300.099	0.557	1	incongruent	Block2	incongruent/STIM_009.jpg
1303.169	0.686	1	incongruent	Block2	incongruent/STIM_009.jpg
1305.9	0.705	1	incongruent	Block2	incongruent/STIM_009.jpg
1308.868	0.719	1	incongruent	Block2	incongruent/STIM_009.jpg
1312.241	0.712	1	incongruent	Block2	incongruent/STIM_009.jpg
1316.536	1.112	1	incongruent	Block2	incongruent/STIM_010.jpg
1319.748	1.054	1	incongruent	Block2	incongruent/STIM_010.jpg
1324.324	0.555	1	incongruent	Block2	incongruent/STIM_010.jpg
1327.753	0.756	1	incongruent	Block2	incongruent/STIM_010.jpg
1331.254	0.522	1	incongruent	Block2	incongruent/STIM_010.jpg
1334.546	0.946	1	incongruent	Block2	incongruent/STIM_011.jpg
1337.594	1.06	1	incongruent	Block2	incongruent/STIM_011.jpg
1342.273	0.988	1	incongruent	Block2	incongruent/STIM_011.jpg
1346.306	0.666	1	incongruent	Block2	incongruent/STIM_011.jpg
1350.459	0.679	1	incongruent	Block2	incongruent/STIM_011.jpg
1353.385	1.164	1	incongruent	Block2	incongruent/STIM_012.jpg
1357.052	0.885	1	incongruent	Block2	incongruent/STIM_012.jpg
1360.664	0.804	1	incongruent	Block2	incongruent/STIM_012.jpg
1363.563	0.958	1	incongruent	Block2	incongruent/STIM_012.jpg
1366.806	0.941	1	incongruent	Block2	incongruent/STIM_012.jpg
1370.673	1.023	1	incongruent	Block2	incongruent/STIM_013.jpg
1374.451	0.754	1	incongruent	Block2	incongruent/STIM_013.jpg
1378.5	0.991	1	incongruent	Block2	incongruent/STIM_013.jpg
1382.062	0.86	1	incongruent	Block2	incongruent/STIM_013.jpg
1385.745	0.593	1	incongruent	Block2	incongruent/STIM_013.jpg
1389.987	0.86	1	incongruent	Block2	incongruent/STIM_014.jpg
1394.433	0.91	1	incongruent	Block2	incongruent/STIM_014.jpg
1397.537	0.918	1	incongruent	Block2	incongruent/STIM_014.jpg
1400.994	0.824	1	incongruent	Block2	incongruent/STIM_014.jpg
1404.962	0.883	1	incongruent	Block2	incongruent/STIM_014.jpg
1408.566	1.05	1	incongruent	Block2	incongruent/STIM_015.jpg
1412.781	0.644	1	incongruent	Block2	incongruent/STIM_015.jpg
1415.673	1.023	1	incongruent	Block2	incongruent/STIM_015.jpg
1419.429	0.838	1	incongruent	Block2	incongruent/STIM_015.jpg
1422.613	0.892	1	incongruent	Block2	incongruent/STIM_015.jpg
1427.19	0.97	1	incongruent	Block2	incongruent/STIM_016.jpg
1431.66	0.577	1	incongruent	Block2	incongruent/STIM_016.jpg
1436.159	0.878	1	incongruent	Block2	incongruent/STIM_016.jpg
1440.9	0.607	1	incongruent	Block2	incongruent/STIM_016.jpg
1444.885	0.832	1	incongruent	Block2	incongruent/STIM_016.jpg
1448.806	0.553	1	incongruent	Block2	incongruent/STIM_017.jpg
1451.844	0.795	1	incongruent	Block2	incongruent/STIM_017.jpg
1455.745	0.803	1	incongruent	Block2	incongruent/STIM_017.jpg
1459.221	0.852	1	incongruent	Block2	incongruent/STIM_017.jpg
1462.823	0.836	1	incongruent	Block2	incongruent/STIM_017.jpg
1466.419	0.607	1	incongruent	Block2	incongruent/STIM_018.jpg
1469.831	0.582	1	incongruent	Block2	incongruent/STIM_018.jpg
1473.102	0.735	1	incongruent	Block2	incongruent/STIM_018.jpg
1476.922	0.719	1	incongruent	Block2	incongruent/STIM_018.jpg
1480.241	0.582	1	incongruent	Block2	incongruent/STIM_018.jpg
1483.139	0.552	1	incongruent	Block2	incongruent/STIM_019.jpg
1487.259	0.8	1	incongruent	Block2	incongruent/STIM_019.jpg
1490.266	0.549	1	incongruent	Block2	incongruent/STIM_019.jpg
1493.359	0.453	1	incongruent	Block2	incongruent/STIM_019.jpg
1497.704	0.55	1	incongruent	Block2	incongruent/STIM_019.jpg
1500.591	1.134	1	incongruent	Block2	incongruent/STIM_020.jpg
1504.633	0.843	1	incongruent	Block2	incongruent/STIM_020.jpg
1508.108	0.717	1	incongruent	Block2	incongruent/STIM_020.jpg
1511.66	0.928	1	incongruent	Block2	incongruent/STIM_020.jpg
1516.039	0.484	1	incongruent	Block2	incongruent/STIM_020.jpg
1519.82	1.154	1	incongruent	Block2	incongruent/STIM_021.jpg
1523.399	0.581	1	incongruent	Block2	incongruent/STIM_021.jpg
1527.893	0.545	1	incongruent	Block2	incongruent/STIM_021.jpg
1531.273	0.652	1	incongruent	Block2	incongruent/STIM_021.jpg
1534.951	0.604	0	incongruent	Block2	incongruent/STIM_021.jpg
1539.029	0.657	1	incongruent	Block2	incongruent/STIM_022.jpg
1541.738	0.849	1	incongruent	Block2	incongruent/STIM_022.jpg
1546.343	0.553	1	incongruent	Block2	incongruent/STIM_022.jpg
1549.286	0.832	1	incongruent	Block2	incongruent/STIM_022.jpg
1554.093	0.622	1	incongruent	Block2	incongruent/STIM_022.jpg
1558.182	0.654	1	incongruent	Block2	incongruent/STIM_023.jpg
1562.119	0.789	1	incongruent	Block2	incongruent/STIM_023.jpg
1566.763	0.685	1	incongruent	Block2	incongruent/STIM_023.jpg
1570.048	0.701	1	incongruent	Block2	incongruent/STIM_023.jpg
1572.85	0.701	1	incongruent	Block2	incongruent/STIM_023.jpg
1576.518	0.82	1	incongruent	Block2	incongruent/STIM_024.jpg
1580.346	0.557	1	incongruent	Block2	incongruent/STIM_024.jpg
1583.344	0.939	1	incongruent	Block2	incongruent/STIM_024.jpg
1586.758	0.726	1	incongruent	Block2	incongruent/STIM_024.jpg
1590.369	0.884	1	incongruent	Block2	incongruent/STIM_024.jpg
1594.587	0.69	1	incongruent	Block2	incongruent/STIM_025.jpg
1599.013	0.832	1	incongruent	Block2	incongruent/STIM_025.jpg
1602.863	0.518	1	incongruent	Block2	incongruent/STIM_025.jpg
1606.843	0.772	1	incongruent	Block2	incongruent/STIM_025.jpg
1610.034	0.608	1	incongruent	Block2	incongruent/STIM_025.jpg
1613.446	0.86	1	incongruent	Block2	incongruent/STIM_026.jpg
1616.813	0.633	1	incongruent	Block2	incongruent/STIM_026.jpg
1619.762	0.937	1	incongruent	Block2	incongruent/STIM_026.jpg
1624.278	0.64	1	incongruent	Block2	incongruent/STIM_026.jpg
1628.343	0.511	1	incongruent	Block2	incongruent/STIM_026.jpg
1631.138	1.058	1	incongruent	Block2	incongruent/STIM_027.jpg
1635.985	0.603	1	incongruent	Block2	incongruent/STIM_027.jpg
1640.573	1.016	1	incongruent	Block2	incongruent/STIM_027.jpg
1643.962	0.719	1	incongruent	Block2	incongruent/STIM_027.jpg
1648.29	0.656	1	incongruent	Block2	incongruent/STIM_027.jpg
1652.152	0.788	1	incongruent	Block2	incongruent/STIM_028.jpg
1656.163	0.978	1	incongruent	Block2	incongruent/STIM_028.jpg
1659.741	0.773	1	incongruent	Block2	incongruent/STIM_028.jpg
1663.851	0.672	1	incongruent	Block2	incongruent/STIM_028.jpg
1667.462	0.831	1	incongruent	Block2	incongruent/STIM_028.jpg
1670.914	0.983	1	incongruent	Block2	incongruent/STIM_029.jpg
1675.714	1.006	1	incongruent	Block2	incongruent/STIM_029.jpg
1678.81	0.555	1	incongruent	Block2	incongruent/STIM_029.jpg
1683.058	0.78	1	incongruent	Block2	incongruent/STIM_029.jpg
1686.07	0.846	1	incongruent	Block2	incongruent/STIM_029.jpg
1690.492	0.77	1	congruent	Block2	congruent/STIM_000.jpg
1693.429	0.559	1	congruent	Block2	congruent/STIM_000.jpg
1697.259	0.651	1	congruent	Block2	congruent/STIM_000.jpg
1700.496	0.761	1	congruent	Block2	congruent/STIM_000.jpg
1704.374	0.662	1	congruent	Block2	congruent/STIM_000.jpg
1707.593	0.685	1	congruent	Block2	congruent/STIM_001.jpg
1711.052	0.806	1	congruent	Block2	congruent/STIM_001.jpg
1713.972	0.68	1	congruent	Block2	congruent/STIM_001.jpg
1718.499	0.727	1	congruent	Block2	congruent/STIM_001.jpg
1722.048	0.816	1	congruent	Block2	congruent/STIM_001.jpg
1725.428	0.463	1	congruent	Block2	congruent/STIM_002.jpg
1727.982	0.566	1	congruent	Block2	congruent/STIM_002.jpg
1730.861	0.521	0	congruent	Block2	congruent/STIM_002.jpg
1734.631	0.775	1	congruent	Block2	congruent/STIM_002.jpg
1738.386	0.516	1	congruent	Block2	congruent/STIM_002.jpg
1740.934	0.66	1	congruent	Block2	congruent/STIM_003.jpg
1745.51	0.475	1	congruent	Block2	congruent/STIM_003.jpg
1748.26	0.54	1	congruent	Block2	congruent/STIM_003.jpg
1751.918	0.817	1	congruent	Block2	congruent/STIM_003.jpg
1755.488	0.534	1	congruent	Block2	congruent/STIM_003.jpg
1758.514	0.661	1	congruent	Block2	congruent/STIM_004.jpg
1761.19	0.527	1	congruent	Block2	congruent/STIM_004.jpg
1764.806	0.543	1	congruent	Block2	congruent/STIM_004.jpg
1768.174	0.632	1	congruent	Block2	congruent/STIM_004.jpg
1771.283	0.667	1	congruent	Block2	congruent/STIM_004.jpg
1774.71	0.705	1	congruent	Block2	congruent/STIM_005.jpg
1777.829	0.662	1	congruent	Block2	congruent/STIM_005.jpg
1781.236	0.662	1	congruent	Block2	congruent/STIM_005.jpg
1783.98	0.508	1	congruent	Block2	congruent/STIM_005.jpg
1788.212	0.721	1	congruent	Block2	congruent/STIM_005.jpg
1791.247	0.523	1	congruent	Block2	congruent/STIM_006.jpg
1795.673	0.49	1	congruent	Block2	congruent/STIM_006.jpg
1800.069	0.694	1	congruent	Block2	congruent/STIM_006.jpg
1803.223	0.532	1	congruent	Block2	congruent/STIM_006.jpg
1806.26	0.591	1	congruent	Block2	congruent/STIM_006.jpg
1810.679	0.683	1	congruent	Block2	congruent/STIM_007.jpg
1814.648	0.53	1	congruent	Block2	congruent/STIM_007.jpg
1817.746	0.51	1	congruent	Block2	congruent/STIM_007.jpg
1821.611	0.76	1	congruent	Block2	congruent/STIM_007.jpg
1825.432	0.492	1	congruent	Block2	congruent/STIM_007.jpg
1829.92	0.507	1	congruent	Block2	congruent/STIM_008.jpg
1834.306	0.525	1	congruent	Block2	congruent/STIM_008.jpg
1837.987	0.515	1	congruent	Block2	congruent/STIM_008.jpg
1841.088	0.532	1	congruent	Block2	congruent/STIM_008.jpg
1845.41	0.598	1	congruent	Block2	congruent/STIM_008.jpg
1848.14	0.476	1	congruent	Block2	congruent/STIM_009.jpg
1851.241	0.57	1	congruent	Block2	congruent/STIM_009.jpg
1855.384	0.791	1	congruent	Block2	congruent/STIM_009.jpg
1858.9	0.506	1	congruent	Block2	congruent/STIM_009.jpg
1863.323	0.664	1	congruent	Block2	congruent/STIM_009.jpg
1866.171	0.569	1	congruent	Block2	congruent/STIM_010.jpg
1868.807	0.582	1	congruent	Block2	congruent/STIM_010.jpg
1872.063	0.53	1	congruent	Block2	congruent/STIM_010.jpg
1874.976	0.811	1	congruent	Block2	congruent/STIM_010.jpg
1878.987	0.733	1	congruent	Block2	congruent/STIM_010.jpg
1882.561	0.487	1	congruent	Block2	congruent/STIM_011.jpg
1885.377	0.699	1	congruent	Block2	congruent/STIM_011.jpg
1888.425	0.535	1	congruent	Block2	congruent/STIM_011.jpg
1892.555	0.525	1	congruent	Block2	congruent/STIM_011.jpg
1895.128	0.486	1	congruent	Block2	congruent/STIM_011.jpg
1898.109	0.68	1	congruent	Block2	congruent/STIM_012.jpg
1900.946	0.792	1	congruent	Block2	congruent/STIM_012.jpg
1904.54	0.824	1	congruent	Block2	congruent/STIM_012.jpg
1909.115	0.701	1	congruent	Block2	congruent/STIM_012.jpg
1912.02	0.703	1	congruent	Block2	congruent/STIM_012.jpg
1916.302	0.788	1	congruent	Block2	congruent/STIM_013.jpg
1920.658	0.576	0	congruent	Block2	congruent/STIM_013.jpg
1925.134	0.769	1	congruent	Block2	congruent/STIM_013.jpg
1928.626	0.484	1	congruent	Block2	congruent/STIM_013.jpg
1932.366	0.48	1	congruent	Block2	congruent/STIM_013.jpg
1936.816	0.637	1	congruent	Block2	congruent/STIM_014.jpg
1940.799	0.604	1	congruent	Block2	congruent/STIM_014.jpg
1943.62	0.635	1	congruent	Block2	congruent/STIM_014.jpg
1947.632	0.492	1	congruent	Block2	congruent/STIM_014.jpg
1950.551	0.541	1	congruent	Block2	congruent/STIM_014.jpg
1953.583	0.659	1	congruent	Block2	congruent/STIM_015.jpg
1956.31	0.7	1	congruent	Block2	congruent/STIM_015.jpg
1960.183	0.739	1	congruent	Block2	congruent/STIM_015.jpg
1963.213	0.583	1	congruent	Block2	congruent/STIM_015.jpg
1966.2	0.543	1	congruent	Block2	congruent/STIM_015.jpg
1968.871	0.73	1	congruent	Block2	congruent/STIM_016.jpg
1973.347	0.475	1	congruent	Block2	congruent/STIM_016.jpg
1976.882	0.774	1	congruent	Block2	congruent/STIM_016.jpg
1981.57	0.757	0	congruent	Block2	congruent/STIM_016.jpg
1985.63	0.662	1	congruent	Block2	congruent/STIM_016.jpg
1988.822	0.594	1	congruent	Block2	congruent/STIM_017.jpg
1993.178	0.786	1	congruent	Block2	congruent/STIM_017.jpg
1997.799	0.582	1	congruent	Block2	congruent/STIM_017.jpg
2000.736	0.709	1	congruent	Block2	congruent/STIM_017.jpg
2003.953	0.775	1	congruent	Block2	congruent/STIM_017.jpg
2008.05	0.626	1	congruent	Block2	congruent/STIM_018.jpg
2010.746	0.539	1	congruent	Block2	congruent/STIM_018.jpg
2014.163	0.75	1	congruent	Block2	congruent/STIM_018.jpg
2017.275	0.464	1	congruent	Block2	congruent/STIM_018.jpg
2021.242	0.542	1	congruent	Block2	congruent/STIM_018.jpg
2024.623	0.616	1	congruent	Block2	congruent/STIM_019.jpg
2028.882	0.75	1	congruent	Block2	congruent/STIM_019.jpg
2032.291	0.764	1	congruent	Block2	congruent/STIM_019.jpg
2036.432	0.773	1	congruent	Block2	congruent/STIM_019.jpg
2039.926	0.802	1	congruent	Block2	congruent/STIM_019.jpg
2044.437	0.679	1	congruent	Block2	congruent/STIM_020.jpg
2047.533	0.788	1	congruent	Block2	congruent/STIM_020.jpg
2051.754	0.743	1	congruent	Block2	congruent/STIM_020.jpg
2055.541	0.811	1	congruent	Block2	congruent/STIM_020.jpg
2060.228	0.812	1	congruent	Block2	congruent/STIM_020.jpg
2063.723	0.646	1	congruent	Block2	congruent/STIM_021.jpg
2066.755	0.778	1	congruent	Block2	congruent/STIM_021.jpg
2070.383	0.54	1	congruent	Block2	congruent/STIM_021.jpg
2072.939	0.764	1	congruent	Block2	congruent/STIM_021.jpg
2076.272	0.782	1	congruent	Block2	congruent/STIM_021.jpg
2079.971	0.788	1	congruent	Block2	congruent/STIM_022.jpg
2084.007	0.491	1	congruent	Block2	congruent/STIM_022.jpg
2087.192	0.554	1	congruent	Block2	congruent/STIM_022.jpg
2090.486	0.688	1	congruent	Block2	congruent/STIM_022.jpg
2094.288	0.64	1	congruent	Block2	congruent/STIM_022.jpg
2098.183	0.798	1	congruent	Block2	congruent/STIM_023.jpg
2101.338	0.656	1	congruent	Block2	congruent/STIM_023.jpg
2105.605	0.63	1	congruent	Block2	congruent/STIM_023.jpg
2109.085	0.596	1	congruent	Block2	congruent/STIM_023.jpg
2113.531	0.563	1	congruent	Block2	congruent/STIM_023.jpg
2117.258	0.538	1	congruent	Block2	congruent/STIM_024.jpg
2119.906	0.484	1	congruent	Block2	congruent/STIM_024.jpg
2123.524	0.539	1	congruent	Block2	congruent/STIM_024.jpg
2128.007	0.805	1	congruent	Block2	congruent/STIM_024.jpg
2131.397	0.802	1	congruent	Block2	congruent/STIM_024.jpg
2135.533	0.772	1	congruent	Block2	congruent/STIM_025.jpg
2139.941	0.725	1	congruent	Block2	congruent/STIM_025.jpg
2144.032	0.65	1	congruent	Block2	congruent/STIM_025.jpg
2148.041	0.785	1	congruent	Block2	congruent/STIM_025.jpg
2152.195	0.552	1	congruent	Block2	congruent/STIM_025.jpg
2155.573	0.479	1	congruent	Block2	congruent/STIM_026.jpg
2159.831	0.773	1	congruent	Block2	congruent/STIM_026.jpg
2163.379	0.746	1	congruent	Block2	congruent/STIM_026.jpg
2167.593	0.536	1	congruent	Block2	congruent/STIM_026.jpg
2171.572	0.648	1	congruent	Block2	congruent/STIM_026.jpg
2175.497	0.537	0	congruent	Block2	congruent/STIM_027.jpg
2178.787	0.699	1	congruent	Block2	congruent/STIM_027.jpg
2183.325	0.7	1	congruent	Block2	congruent/STIM_027.jpg
2186.092	0.782	1	congruent	Block2	congruent/STIM_027.jpg
2189.777	0.556	1	congruent	Block2	congruent/STIM_027.jpg
2192.422	0.507	1	congruent	Block2	congruent/STIM_028.jpg
2195.731	0.75	1	congruent	Block2	congruent/STIM_028.jpg
2199.883	0.495	1	congruent	Block2	congruent/STIM_028.jpg
2203.66	0.54	1	congruent	Block2	congruent/STIM_028.jpg
2207.477	0.58	1	congruent	Block2	congruent/STIM_028.jpg
2210.825	0.526	1	congruent	Block2	congruent/STIM_029.jpg
2215.269	0.565	1	congruent	Block2	congruent/STIM_029.jpg
2218.442	0.55	1	congruent	Block2	congruent/STIM_029.jpg
2222.556	0.646	0	congruent	Block2	congruent/STIM_029.jpg
2226.387	0.54	1	congruent	Block2	congruent/STIM_029.jpg
2230.326	0.66	1	incongruent	Block3	incongruent/STIM_000.jpg
2233.17	0.659	1	incongruent	Block3	incongruent/STIM_000.jpg
2237.731	0.67	1	incongruent	Block3	incongruent/STIM_000.jpg
2241.871	0.917	1	incongruent	Block3	incongruent/STIM_000.jpg
2246.725	0.525	1	incongruent	Block3	incongruent/STIM_000.jpg
2250.673	0.939	1	incongruent	Block3	incongruent/STIM_001.jpg
2254.879	0.55	1	incongruent	Block3	incongruent/STIM_001.jpg
2258.381	0.701	1	incongruent	Block3	incongruent/STIM_001.jpg
2262.917	0.892	1	incongruent	Block3	incongruent/STIM_001.jpg
2266.349	0.836	1	incongruent	Block3	incongruent/STIM_001.jpg
2271.031	0.828	1	incongruent	Block3	incongruent/STIM_002.jpg
2274.295	0.936	1	incongruent	Block3	incongruent/STIM_002.jpg
2278.774	0.92	1	incongruent	Block3	incongruent/STIM_002.jpg
2282.637	0.964	1	incongruent	Block3	incongruent/STIM_002.jpg
2286.681	0.502	1	incongruent	Block3	incongruent/STIM_002.jpg
2290.943	0.477	1	incongruent	Block3	incongruent/STIM_003.jpg
2294.319	0.738	1	incongruent	Block3	incongruent/STIM_003.jpg
2297.565	0.701	1	incongruent	Block3	incongruent/STIM_003.jpg
2300.868	0.583	1	incongruent	Block3	incongruent/STIM_003.jpg
2305.407	0.721	1	incongruent	Block3	incongruent/STIM_003.jpg
2309.639	0.89	1	incongruent	Block3	incongruent/STIM_004.jpg
2314.292	0.71	1	incongruent	Block3	incongruent/STIM_004.jpg
2318.564	0.928	1	incongruent	Block3	incongruent/STIM_004.jpg
2322.136	0.71	1	incongruent	Block3	incongruent/STIM_004.jpg
2326.126	0.72	1	incongruent	Block3	incongruent/STIM_004.jpg
2330.01	0.537	1	incongruent	Block3	incongruent/STIM_005.jpg
2333.239	0.644	1	incongruent	Block3	incongruent/STIM_005.jpg
2336.819	0.723	1	incongruent	Block3	incongruent/STIM_005.jpg
2340.512	0.511	1	incongruent	Block3	incongruent/STIM_005.jpg
2343.91	0.698	1	incongruent	Block3	incongruent/STIM_005.jpg
2347.175	0.534	1	incongruent	Block3	incongruent/STIM_006.jpg
2350.96	0.684	1	incongruent	Block3	incongruent/STIM_006.jpg
2355.404	0.848	1	incongruent	Block3	incongruent/STIM_006.jpg
2360.175	0.639	1	incongruent	Block3	incongruent/STIM_006.jpg
2363.208	0.467	1	incongruent	Block3	incongruent/STIM_006.jpg
2366.23	0.755	1	incongruent	Block3	incongruent/STIM_007.jpg
2369.496	0.736	1	incongruent	Block3	incongruent/STIM_007.jpg
2374.184	0.702	1	incongruent	Block3	incongruent/STIM_007.jpg
2378.854	0.678	1	incongruent	Block3	incongruent/STIM_007.jpg
2382.099	0.718	1	incongruent	Block3	incongruent/STIM_007.jpg
2386.765	0.545	1	incongruent	Block3	incongruent/STIM_008.jpg
2391.067	0.802	1	incongruent	Block3	incongruent/STIM_008.jpg
2394.194	0.796	1	incongruent	Block3	incongruent/STIM_008.jpg
2397.36	0.581	1	incongruent	Block3	incongruent/STIM_008.jpg
2401.848	0.904	1	incongruent	Block3	incongruent/STIM_008.jpg
2405.512	0.565	1	incongruent	Block3	incongruent/STIM_009.jpg
2408.986	0.618	1	incongruent	Block3	incongruent/STIM_009.jpg
2412.958	0.545	1	incongruent	Block3	incongruent/STIM_009.jpg
2416.868	0.784	1	incongruent	Block3	incongruent/STIM_009.jpg
2421.443	0.796	1	incongruent	Block3	incongruent/STIM_009.jpg
2424.484	0.807	1	incongruent	Block3	incongruent/STIM_010.jpg
2427.975	0.74	1	incongruent	Block3	incongruent/STIM_010.jpg
2430.931	0.794	1	incongruent	Block3	incongruent/STIM_010.jpg
2434.364	0.857	1	incongruent	Block3	incongruent/STIM_010.jpg
2438.779	0.9	1	incongruent	Block3	incongruent/STIM_010.jpg
2443.417	0.907	1	incongruent	Block3	incongruent/STIM_011.jpg
2447.664	0.624	1	incongruent	Block3	incongruent/STIM_011.jpg
2451.878	0.945	1	incongruent	Block3	incongruent/STIM_011.jpg
2456.399	0.503	1	incongruent	Block3	incongruent/STIM_011.jpg
2459.263	0.756	1	incongruent	Block3	incongruent/STIM_011.jpg
2462.032	0.597	1	incongruent	Block3	incongruent/STIM_012.jpg
2465.826	0.735	1	incongruent	Block3	incongruent/STIM_012.jpg
2469.911	0.577	1	incongruent	Block3	incongruent/STIM_012.jpg
2474.481	0.536	1	incongruent	Block3	incongruent/STIM_012.jpg
2477.384	0.67	1	incongruent	Block3	incongruent/STIM_012.jpg
2481.096	0.776	1	incongruent	Block3	incongruent/STIM_013.jpg
2484.764	0.767	1	incongruent	Block3	incongruent/STIM_013.jpg
2488.831	0.633	1	incongruent	Block3	incongruent/STIM_013.jpg
2491.469	0.722	1	incongruent	Block3	incongruent/STIM_013.jpg
2494.333	0.724	1	incongruent	Block3	incongruent/STIM_013.jpg
2497.387	0.492	1	incongruent	Block3	incongruent/STIM_014.jpg
2501.218	0.537	1	incongruent	Block3	incongruent/STIM_014.jpg
2504.741	0.703	1	incongruent	Block3	incongruent/STIM_014.jpg
2509.437	0.456	1	incongruent	Block3	incongruent/STIM_014.jpg
2513.815	0.623	1	incongruent	Block3	incongruent/STIM_014.jpg
2516.905	0.702	1	incongruent	Block3	incongruent/STIM_015.jpg
2520.485	0.588	1	incongruent	Block3	incongruent/STIM_015.jpg
2523.106	0.757	1	incongruent	Block3	incongruent/STIM_015.jpg
2526.021	0.826	1	incongruent	Block3	incongruent/STIM_015.jpg
2530.249	0.779	1	incongruent	Block3	incongruent/STIM_015.jpg
2533.997	0.72	1	incongruent	Block3	incongruent/STIM_016.jpg
2538.685	0.864	1	incongruent	Block3	incongruent/STIM_016.jpg
2542.547	0.522	1	incongruent	Block3	incongruent/STIM_016.jpg
2546.84	0.602	1	incongruent	Block3	incongruent/STIM_016.jpg
2550.222	0.86	1	incongruent	Block3	incongruent/STIM_016.jpg
2553.688	0.945	1	incongruent	Block3	incongruent/STIM_017.jpg
2557.875	0.481	1	incongruent	Block3	incongruent/STIM_017.jpg
2560.86	0.508	1	incongruent	Block3	incongruent/STIM_017.jpg
2564.162	0.613	1	incongruent	Block3	incongruent/STIM_017.jpg
2567.141	0.892	1	incongruent	Block3	incongruent/STIM_017.jpg
2571.137	0.496	1	incongruent	Block3	incongruent/STIM_018.jpg
2574.179	0.627	1	incongruent	Block3	incongruent/STIM_018.jpg
2578.657	0.658	1	incongruent	Block3	incongruent/STIM_018.jpg
2582.055	0.8	1	incongruent	Block3	incongruent/STIM_018.jpg
2586.359	0.84	1	incongruent	Block3	incongruent/STIM_018.jpg
2589.498	0.765	1	incongruent	Block3	incongruent/STIM_019.jpg
2593.445	0.904	1	incongruent	Block3	incongruent/STIM_019.jpg
2596.485	0.765	1	incongruent	Block3	incongruent/STIM_019.jpg
2599.537	0.752	1	incongruent	Block3	incongruent/STIM_019.jpg
2602.856	0.657	1	incongruent	Block3	incongruent/STIM_019.jpg
2606.691	0.865	1	incongruent	Block3	incongruent/STIM_020.jpg
2611.443	0.461	1	incongruent	Block3	incongruent/STIM_020.jpg
2613.99	0.582	1	incongruent	Block3	incongruent/STIM_020.jpg
2616.582	0.924	1	incongruent	Block3	incongruent/STIM_020.jpg
2620.105	0.816	1	incongruent	Block3	incongruent/STIM_020.jpg
2624.221	0.911	1	incongruent	Block3	incongruent/STIM_021.jpg
2629.037	0.753	1	incongruent	Block3	incongruent/STIM_021.jpg
2631.857	0.77	1	incongruent	Block3	incongruent/STIM_021.jpg
2636.225	0.639	1	incongruent	Block3	incongruent/STIM_021.jpg
2639.329	0.843	1	incongruent	Block3	incongruent/STIM_021.jpg
2643.098	0.767	1	incongruent	Block3	incongruent/STIM_022.jpg
2647.335	0.752	1	incongruent	Block3	incongruent/STIM_022.jpg
2651.629	0.775	1	incongruent	Block3	incongruent/STIM_022.jpg
2654.533	0.6	1	incongruent	Block3	incongruent/STIM_022.jpg
2658.043	0.885	1	incongruent	Block3	incongruent/STIM_022.jpg
2662.01	0.701	1	incongruent	Block3	incongruent/STIM_023.jpg
2665.333	0.879	1	incongruent	Block3	incongruent/STIM_023.jpg
2669.204	0.751	1	incongruent	Block3	incongruent/STIM_023.jpg
2672.555	0.556	1	incongruent	Block3	incongruent/STIM_023.jpg
2675.684	0.816	1	incongruent	Block3	incongruent/STIM_023.jpg
2679.801	0.749	1	incongruent	Block3	incongruent/STIM_024.jpg
2683.186	0.733	1	incongruent	Block3	incongruent/STIM_024.jpg
2686.919	0.675	0	incongruent	Block3	incongruent/STIM_024.jpg
2690.624	0.851	1	incongruent	Block3	incongruent/STIM_024.jpg
2694.612	0.794	1	incongruent	Block3	incongruent/STIM_024.jpg
2697.661	0.922	1	incongruent	Block3	incongruent/STIM_025.jpg
2700.685	0.451	1	incongruent	Block3	incongruent/STIM_025.jpg
2703.92	0.931	1	incongruent	Block3	incongruent/STIM_025.jpg
2707.815	0.7	1	incongruent	Block3	incongruent/STIM_025.jpg
2711.356	0.857	1	incongruent	Block3	incongruent/STIM_025.jpg
2714.947	0.87	1	incongruent	Block3	incongruent/STIM_026.jpg
2718.385	0.597	1	incongruent	Block3	incongruent/STIM_026.jpg
2722.64	0.873	1	incongruent	Block3	incongruent/STIM_026.jpg
2726.979	0.512	1	incongruent	Block3	incongruent/STIM_026.jpg
2729.887	0.839	1	incongruent	Block3	incongruent/STIM_026.jpg
2734.489	0.878	1	incongruent	Block3	incongruent/STIM_027.jpg
2739.312	0.854	1	incongruent	Block3	incongruent/STIM_027.jpg
2744.106	0.817	1	incongruent	Block3	incongruent/STIM_027.jpg
2747.244	0.455	1	incongruent	Block3	incongruent/STIM_027.jpg
2750.482	0.64	1	incongruent	Block3	incongruent/STIM_027.jpg
2753.382	0.658	1	incongruent	Block3	incongruent/STIM_028.jpg
2756.566	0.532	1	incongruent	Block3	incongruent/STIM_028.jpg
2759.412	0.784	1	incongruent	Block3	incongruent/STIM_028.jpg
2764.169	0.75	1	incongruent	Block3	incongruent/STIM_028.jpg
2768.899	0.964	1	incongruent	Block3	incongruent/STIM_028.jpg
2772.309	0.834	1	incongruent	Block3	incongruent/STIM_029.jpg
2775.887	0.783	1	incongruent	Block3	incongruent/STIM_029.jpg
2780.528	0.932	1	incongruent	Block3	incongruent/STIM_029.jpg
2785.221	0.96	1	incongruent	Block3	incongruent/STIM_029.jpg
2789.558	0.881	1	incongruent	Block3	incongruent/STIM_029.jpg
2792.561	0.724	1	congruent	Block3	congruent/STIM_000.jpg
2797.002	0.627	1	congruent	Block3	congruent/STIM_000.jpg
2800.559	0.66	1	congruent	Block3	congruent/STIM_000.jpg
2803.536	0.469	1	congruent	Block3	congruent/STIM_000.jpg
2807.184	0.684	1	congruent	Block3	congruent/STIM_000.jpg
2811.426	0.487	1	congruent	Block3	congruent/STIM_001.jpg
2814.22	0.704	1	congruent	Block3	congruent/STIM_001.jpg
2817.827	0.824	1	congruent	Block3	congruent/STIM_001.jpg
2822.01	0.534	1	congruent	Block3	congruent/STIM_001.jpg
2826.397	0.783	1	congruent	Block3	congruent/STIM_001.jpg
2829.741	0.589	1	congruent	Block3	congruent/STIM_002.jpg
2834.179	0.677	1	congruent	Block3	congruent/STIM_002.jpg
2837.77	0.478	1	congruent	Block3	congruent/STIM_002.jpg
2842.151	0.814	1	congruent	Block3	congruent/STIM_002.jpg
2845.587	0.567	1	congruent	Block3	congruent/STIM_002.jpg
2848.41	0.658	1	congruent	Block3	congruent/STIM_003.jpg
2851.978	0.692	1	congruent	Block3	congruent/STIM_003.jpg
2855.243	0.82	1	congruent	Block3	congruent/STIM_003.jpg
2859.735	0.688	1	congruent	Block3	congruent/STIM_003.jpg
2863.84	0.693	1	congruent	Block3	congruent/STIM_003.jpg
2868.347	0.468	1	congruent	Block3	congruent/STIM_004.jpg
2872.553	0.65	1	congruent	Block3	congruent/STIM_004.jpg
2876.688	0.764	1	congruent	Block3	congruent/STIM_004.jpg
2880.059	0.678	1	congruent	Block3	congruent/STIM_004.jpg
2883.009	0.595	1	congruent	Block3	congruent/STIM_004.jpg
2887.02	0.759	1	congruent	Block3	congruent/STIM_005.jpg
2890.564	0.551	1	congruent	Block3	congruent/STIM_005.jpg
2894.42	0.525	1	congruent	Block3	congruent/STIM_005.jpg
2897.701	0.55	1	congruent	Block3	congruent/STIM_005.jpg
2901.198	0.776	1	congruent	Block3	congruent/STIM_005.jpg
2904.459	0.658	1	congruent	Block3	congruent/STIM_006.jpg
2908.737	0.576	1	congruent	Block3	congruent/STIM_006.jpg
2911.373	0.63	1	congruent	Block3	congruent/STIM_006.jpg
2915.375	0.511	1	congruent	Block3	congruent/STIM_006.jpg
2918.994	0.706	0	congruent	Block3	congruent/STIM_006.jpg
2922.473	0.807	0	congruent	Block3	congruent/STIM_007.jpg
2925.53	0.518	1	congruent	Block3	congruent/STIM_007.jpg
2928.92	0.814	1	congruent	Block3	congruent/STIM_007.jpg
2931.75	0.685	1	congruent	Block3	congruent/STIM_007.jpg
2935.912	0.729	1	congruent	Block3	congruent/STIM_007.jpg
2939.879	0.538	1	congruent	Block3	congruent/STIM_008.jpg
2944.008	0.779	1	congruent	Block3	congruent/STIM_008.jpg
2948.023	0.499	1	congruent	Block3	congruent/STIM_008.jpg
2952.508	0.726	1	congruent	Block3	congruent/STIM_008.jpg
2957.132	0.523	1	congruent	Block3	congruent/STIM_008.jpg
2959.784	0.604	1	congruent	Block3	congruent/STIM_009.jpg
2962.745	0.78	1	congruent	Block3	congruent/STIM_009.jpg
2966.258	0.563	1	congruent	Block3	congruent/STIM_009.jpg
2970.565	0.814	1	congruent	Block3	congruent/STIM_009.jpg
2974.225	0.57	1	congruent	Block3	congruent/STIM_009.jpg
2976.903	0.641	1	congruent	Block3	congruent/STIM_010.jpg
2980.973	0.679	1	congruent	Block3	congruent/STIM_010.jpg
2983.747	0.473	1	congruent	Block3	congruent/STIM_010.jpg
2986.947	0.511	1	congruent	Block3	congruent/STIM_010.jpg
2989.509	0.635	1	congruent	Block3	congruent/STIM_010.jpg
2992.245	0.501	1	congruent	Block3	congruent/STIM_011.jpg
2994.875	0.516	1	congruent	Block3	congruent/STIM_011.jpg
2997.516	0.509	1	congruent	Block3	congruent/STIM_011.jpg
3000.463	0.584	1	congruent	Block3	congruent/STIM_011.jpg
3003.573	0.756	0	congruent	Block3	congruent/STIM_011.jpg
3007.756	0.499	0	congruent	Block3	congruent/STIM_012.jpg
3011.346	0.47	1	congruent	Block3	congruent/STIM_012.jpg
3015.506	0.824	1	congruent	Block3	congruent/STIM_012.jpg
3019.591	0.702	1	congruent	Block3	congruent/STIM_012.jpg
3022.421	0.722	1	congruent	Block3	congruent/STIM_012.jpg
3026.977	0.774	1	congruent	Block3	congruent/STIM_013.jpg
3030.208	0.748	1	congruent	Block3	congruent/STIM_013.jpg
3033.209	0.654	1	congruent	Block3	congruent/STIM_013.jpg
3035.872	0.477	1	congruent	Block3	congruent/STIM_013.jpg
3038.687	0.795	1	congruent	Block3	congruent/STIM_013.jpg
3043.396	0.759	1	congruent	Block3	congruent/STIM_014.jpg
3046.724	0.777	1	congruent	Block3	congruent/STIM_014.jpg
3049.506	0.547	1	congruent	Block3	congruent/STIM_014.jpg
3053.075	0.626	1	congruent	Block3	congruent/STIM_014.jpg
3057.223	0.783	0	congruent	Block3	congruent/STIM_014.jpg
3061.305	0.484	0	congruent	Block3	congruent/STIM_015.jpg
3064.378	0.698	1	congruent	Block3	congruent/STIM_015.jpg
3068.855	0.564	1	congruent	Block3	congruent/STIM_015.jpg
3072.126	0.479	1	congruent	Block3	congruent/STIM_015.jpg
3075.613	0.675	1	congruent	Block3	congruent/STIM_015.jpg
3078.817	0.595	1	congruent	Block3	congruent/STIM_016.jpg
3081.474	0.816	1	congruent	Block3	congruent/STIM_016.jpg
3084.503	0.806	1	congruent	Block3	congruent/STIM_016.jpg
3088.905	0.504	1	congruent	Block3	congruent/STIM_016.jpg
3093.091	0.824	1	congruent	Block3	congruent/STIM_016.jpg
3097.557	0.571	1	congruent	Block3	congruent/STIM_017.jpg
3100.261	0.497	1	congruent	Block3	congruent/STIM_017.jpg
3104.388	0.524	1	congruent	Block3	congruent/STIM_017.jpg
3106.973	0.52	1	congruent	Block3	congruent/STIM_017.jpg
3110.42	0.504	1	congruent	Block3	congruent/STIM_017.jpg
3113.865	0.54	1	congruent	Block3	congruent/STIM_018.jpg
3117.26	0.564	1	congruent	Block3	congruent/STIM_018.jpg
3121.169	0.538	1	congruent	Block3	congruent/STIM_018.jpg
3124.764	0.522	1	congruent	Block3	congruent/STIM_018.jpg
3128.95	0.755	1	congruent	Block3	congruent/STIM_018.jpg
3131.933	0.682	1	congruent	Block3	congruent/STIM_019.jpg
3135.842	0.507	1	congruent	Block3	congruent/STIM_019.jpg
3139.211	0.472	1	congruent	Block3	congruent/STIM_019.jpg
3141.962	0.791	1	congruent	Block3	congruent/STIM_019.jpg
3146.327	0.574	1	congruent	Block3	congruent/STIM_019.jpg
3150.695	0.51	1	congruent	Block3	congruent/STIM_020.jpg
3154.355	0.678	1	congruent	Block3	congruent/STIM_020.jpg
3158.043	0.734	1	congruent	Block3	congruent/STIM_020.jpg
3162.023	0.796	1	congruent	Block3	congruent/STIM_020.jpg
3166.03	0.818	0	congruent	Block3	congruent/STIM_020.jpg
3170.606	0.467	1	congruent	Block3	congruent/STIM_021.jpg
3173.162	0.764	1	congruent	Block3	congruent/STIM_021.jpg
3177.185	0.527	1	congruent	Block3	congruent/STIM_021.jpg
3179.767	0.611	1	congruent	Block3	congruent/STIM_021.jpg
3183.229	0.799	1	congruent	Block3	congruent/STIM_021.jpg
3187.161	0.78	1	congruent	Block3	congruent/STIM_022.jpg
3191.376	0.71	1	congruent	Block3	congruent/STIM_022.jpg
3195.924	0.61	0	congruent	Block3	congruent/STIM_022.jpg
3200.321	0.682	1	congruent	Block3	congruent/STIM_022.jpg
3203.113	0.822	1	congruent	Block3	congruent/STIM_022.jpg
3205.956	0.69	1	congruent	Block3	congruent/STIM_023.jpg
3210.318	0.583	1	congruent	Block3	congruent/STIM_023.jpg
3213.397	0.516	1	congruent	Block3	congruent/STIM_023.jpg
3217.564	0.516	1	congruent	Block3	congruent/STIM_023.jpg
3220.395	0.552	1	congruent	Block3	congruent/STIM_023.jpg
3224.335	0.636	1	congruent	Block3	congruent/STIM_024.jpg
3227.029	0.548	0	congruent	Block3	congruent/STIM_024.jpg
3230.636	0.817	1	congruent	Block3	congruent/STIM_024.jpg
3234.54	0.564	1	congruent	Block3	congruent/STIM_024.jpg
3238.127	0.553	1	congruent	Block3	congruent/STIM_024.jpg
3241.297	0.567	1	congruent	Block3	congruent/STIM_025.jpg
3245.296	0.722	1	congruent	Block3	congruent/STIM_025.jpg
3249.009	0.491	1	congruent	Block3	congruent/STIM_025.jpg
3251.698	0.464	0	congruent	Block3	congruent/STIM_025.jpg
3254.571	0.496	1	congruent	Block3	congruent/STIM_025.jpg
3257.742	0.487	1	congruent	Block3	congruent/STIM_026.jpg
3260.587	0.522	1	congruent	Block3	congruent/STIM_026.jpg
3264.325	0.526	1	congruent	Block3	congruent/STIM_026.jpg
3267.681	0.614	1	congruent	Block3	congruent/STIM_026.jpg
3271.154	0.762	1	congruent	Block3	congruent/STIM_026.jpg
3274.037	0.804	0	congruent	Block3	congruent/STIM_027.jpg
3277.561	0.581	1	congruent	Block3	congruent/STIM_027.jpg
3281.538	0.733	1	congruent	Block3	congruent/STIM_027.jpg
3285.31	0.692	1	congruent	Block3	congruent/STIM_027.jpg
3289.084	0.737	1	congruent	Block3	congruent/STIM_027.jpg
3292.931	0.816	1	congruent	Block3	congruent/STIM_028.jpg
3297.185	0.548	1	congruent	Block3	congruent/STIM_028.jpg
3301.293	0.814	1	congruent	Block3	congruent/STIM_028.jpg
3304.739	0.776	1	congruent	Block3	congruent/STIM_028.jpg
3307.783	0.619	1	congruent	Block3	congruent/STIM_028.jpg
3311.229	0.794	1	congruent	Block3	congruent/STIM_029.jpg
3315.155	0.591	1	congruent	Block3	congruent/STIM_029.jpg
3318.834	0.48	1	congruent	Block3	congruent/STIM_029.jpg
3322.578	0.744	1	congruent	Block3	congruent/STIM_029.jpg
3326.975	0.775	1	congruent	Block3	congruent/STIM_029.jpg
