onset	duration	accuracy	trial_type	learning_stage	stimulus
0.0	1.321	correct	regulate	Run1	regulate/STIM_000.jpg
4.203	1.582	correct	regulate	Run1	regulate/STIM_000.jpg
9.474	2.496	correct	regulate	Run1	regulate/STIM_000.jpg
15.521	1.604	correct	regulate	Run1	regulate/STIM_000.jpg
20.953	1.802	correct	regulate	Run1	regulate/STIM_001.jpg
25.67	1.618	correct	regulate	Run1	regulate/STIM_001.jpg
30.184	1.156	correct	regulate	Run1	regulate/STIM_001.jpg
34.757	1.126	correct	regulate	Run1	regulate/STIM_001.jpg
39.572	2.83	correct	regulate	Run1	regulate/STIM_002.jpg
44.5	1.2	correct	regulate	Run1	regulate/STIM_002.jpg
47.841	1.474	correct	regulate	Run1	regulate/STIM_002.jpg
51.646	1.941	correct	regulate	Run1	regulate/STIM_002.jpg
56.365	1.757	correct	regulate	Run1	regulate/STIM_003.jpg
60.832	2.142	correct	regulate	Run1	regulate/STIM_003.jpg
65.414	2.395	correct	regulate	Run1	regulate/STIM_003.jpg
71.708	1.081	correct	regulate	Run1	regulate/STIM_003.jpg
75.238	1.822	correct	regulate	Run1	regulate/STIM_004.jpg
80.186	2.226	correct	regulate	Run1	regulate/STIM_004.jpg
84.926	1.23	correct	regulate	Run1	regulate/STIM_004.jpg
88.475	1.675	correct	regulate	Run1	regulate/STIM_004.jpg
92.783	2.177	correct	regulate	Run1	regulate/STIM_005.jpg
98.583	1.174	correct	regulate	Run1	regulate/STIM_005.jpg
103.32	2.072	correct	regulate	Run1	regulate/STIM_005.jpg
108.281	2.108	correct	regulate	Run1	regulate/STIM_005.jpg
113.092	1.531	correct	regulate	Run1	regulate/STIM_006.jpg
117.178	1.721	correct	regulate	Run1	regulate/STIM_006.jpg
121.22	1.375	correct	regulate	Run1	regulate/STIM_006.jpg
124.946	1.838	correct	regulate	Run1	regulate/STIM_006.jpg
129.73	1.215	correct	regulate	Run1	regulate/STIM_007.jpg
133.728	1.576	correct	regulate	Run1	regulate/STIM_007.jpg
137.995	1.944	correct	regulate	Run1	regulate/STIM_007.jpg
143.643	1.099	correct	regulate	Run1	regulate/STIM_007.jpg
148.479	2.038	incorrect	regulate	Run1	regulate/STIM_008.jpg
153.941	1.415	incorrect	regulate	Run1	regulate/STIM_008.jpg
158.184	2.012	correct	regulate	Run1	regulate/STIM_008.jpg
163.264	1.619	incorrect	regulate	Run1	regulate/STIM_008.jpg
167.668	2.146	correct	regulate	Run1	regulate/STIM_009.jpg
172.279	2.479	correct	regulate	Run1	regulate/STIM_009.jpg
178.15	1.58	correct	regulate	Run1	regulate/STIM_009.jpg
183.064	1.339	correct	regulate	Run1	regulate/STIM_009.jpg
187.482	1.718	correct	regulate	Run1	regulate/STIM_010.jpg
191.536	2.626	correct	regulate	Run1	regulate/STIM_010.jpg
197.043	1.477	correct	regulate	Run1	regulate/STIM_010.jpg
201.153	1.498	correct	regulate	Run1	regulate/STIM_010.jpg
205.45	1.566	correct	regulate	Run1	regulate/STIM_011.jpg
209.414	2.06	correct	regulate	Run1	regulate/STIM_011.jpg
214.372	1.774	correct	regulate	Run1	regulate/STIM_011.jpg
218.787	2.315	correct	regulate	Run1	regulate/STIM_011.jpg
224.489	1.287	correct	regulate	Run1	regulate/STIM_012.jpg
228.431	1.682	correct	regulate	Run1	regulate/STIM_012.jpg
233.634	2.5	correct	regulate	Run1	regulate/STIM_012.jpg
238.624	1.729	correct	regulate	Run1	regulate/STIM_012.jpg
242.822	2.724	correct	regulate	Run1	regulate/STIM_013.jpg
248.713	1.246	correct	regulate	Run1	regulate/STIM_013.jpg
252.023	1.672	correct	regulate	Run1	regulate/STIM_013.jpg
256.525	1.42	correct	regulate	Run1	regulate/STIM_013.jpg
261.455	1.484	correct	regulate	Run1	regulate/STIM_014.jpg
266.023	1.442	correct	regulate	Run1	regulate/STIM_014.jpg
269.833	2.317	correct	regulate	Run1	regulate/STIM_014.jpg
275.846	1.46	correct	regulate	Run1	regulate/STIM_014.jpg
279.965	2.415	correct	regulate	Run1	regulate/STIM_015.jpg
285.739	1.742	correct	regulate	Run1	regulate/STIM_015.jpg
289.974	1.299	correct	regulate	Run1	regulate/STIM_015.jpg
293.52	2.098	correct	regulate	Run1	regulate/STIM_015.jpg
299.157	1.829	correct	regulate	Run1	regulate/STIM_016.jpg
304.871	2.152	correct	regulate	Run1	regulate/STIM_016.jpg
310.374	1.094	correct	regulate	Run1	regulate/STIM_016.jpg
313.818	1.486	correct	regulate	Run1	regulate/STIM_016.jpg
317.346	1.426	correct	regulate	Run1	regulate/STIM_017.jpg
321.791	1.569	correct	regulate	Run1	regulate/STIM_017.jpg
326.821	1.944	correct	regulate	Run1	regulate/STIM_017.jpg
332.602	1.396	correct	regulate	Run1	regulate/STIM_017.jpg
337.689	2.533	correct	regulate	Run1	regulate/STIM_018.jpg
343.014	1.488	correct	regulate	Run1	regulate/STIM_018.jpg
347.638	2.221	correct	regulate	Run1	regulate/STIM_018.jpg
352.936	2.222	correct	regulate	Run1	regulate/STIM_018.jpg
358.097	1.328	correct	regulate	Run1	regulate/STIM_019.jpg
362.099	2.474	correct	regulate	Run1	regulate/STIM_019.jpg
366.845	2.053	correct	regulate	Run1	regulate/STIM_019.jpg
371.154	2.329	correct	regulate	Run1	regulate/STIM_019.jpg
377.137	2.057	correct	regulate	Run1	regulate/STIM_020.jpg
381.238	2.356	correct	regulate	Run1	regulate/STIM_020.jpg
385.955	2.297	correct	regulate	Run1	regulate/STIM_020.jpg
391.006	1.807	correct	regulate	Run1	regulate/STIM_020.jpg
394.882	2.327	correct	regulate	Run1	regulate/STIM_021.jpg
400.927	2.066	correct	regulate	Run1	regulate/STIM_021.jpg
406.864	1.344	correct	regulate	Run1	regulate/STIM_021.jpg
410.945	1.938	correct	regulate	Run1	regulate/STIM_021.jpg
416.51	1.338	correct	regulate	Run1	regulate/STIM_022.jpg
421.415	1.295	correct	regulate	Run1	regulate/STIM_022.jpg
425.267	2.491	correct	regulate	Run1	regulate/STIM_022.jpg
430.531	1.99	correct	regulate	Run1	regulate/STIM_022.jpg
434.901	1.607	correct	regulate	Run1	regulate/STIM_023.jpg
439.225	2.663	correct	regulate	Run1	regulate/STIM_023.jpg
445.853	2.163	correct	regulate	Run1	regulate/STIM_023.jpg
451.565	2.188	correct	regulate	Run1	regulate/STIM_023.jpg
456.506	1.376	correct	regulate	Run1	regulate/STIM_024.jpg
460.009	1.254	correct	regulate	Run1	regulate/STIM_024.jpg
465.138	1.358	correct	regulate	Run1	regulate/STIM_024.jpg
468.675	1.902	correct	regulate	Run1	regulate/STIM_024.jpg
473.143	2.787	correct	regulate	Run1	regulate/STIM_025.jpg
479.078	1.927	correct	regulate	Run1	regulate/STIM_025.jpg
484.789	1.279	correct	regulate	Run1	regulate/STIM_025.jpg
488.867	1.4	correct	regulate	Run1	regulate/STIM_025.jpg
492.488	1.509	incorrect	regulate	Run1	regulate/STIM_026.jpg
497.712	1.367	correct	regulate	Run1	regulate/STIM_026.jpg
501.274	1.47	correct	regulate	Run1	regulate/STIM_026.jpg
505.239	1.992	correct	regulate	Run1	regulate/STIM_026.jpg
509.311	1.321	correct	regulate	Run1	regulate/STIM_027.jpg
514.435	1.696	correct	regulate	Run1	regulate/STIM_027.jpg
519.606	1.577	correct	regulate	Run1	regulate/STIM_027.jpg
524.897	1.77	correct	regulate	Run1	regulate/STIM_027.jpg
529.601	2.434	correct	regulate	Run1	regulate/STIM_028.jpg
535.656	1.436	correct	regulate	Run1	regulate/STIM_028.jpg
540.012	1.689	correct	regulate	Run1	regulate/STIM_028.jpg
544.877	1.298	correct	regulate	Run1	regulate/STIM_028.jpg
549.85	1.87	correct	regulate	Run1	regulate/STIM_029.jpg
555.694	1.412	correct	regulate	Run1	regulate/STIM_029.jpg
560.22	1.823	correct	regulate	Run1	regulate/STIM_029.jpg
564.647	2.402	correct	regulate	Run1	regulate/STIM_029.jpg
569.308	1.152	correct	observe	Run1	observe/STIM_000.jpg
574.385	1.216	correct	observe	Run1	observe/STIM_000.jpg
578.18	0.709	correct	observe	Run1	observe/STIM_000.jpg
581.146	1.004	incorrect	observe	Run1	observe/STIM_000.jpg
586.148	1.088	correct	observe	Run1	observe/STIM_001.jpg
590.374	0.949	correct	observe	Run1	observe/STIM_001.jpg
594.883	1.269	correct	observe	Run1	observe/STIM_001.jpg
598.343	1.271	correct	observe	Run1	observe/STIM_001.jpg
601.656	0.938	correct	observe	Run1	observe/STIM_002.jpg
606.149	1.277	correct	observe	Run1	observe/STIM_002.jpg
609.567	0.784	correct	observe	Run1	observe/STIM_002.jpg
613.839	1.283	correct	observe	Run1	observe/STIM_002.jpg
617.44	1.161	correct	observe	Run1	observe/STIM_003.jpg
622.25	1.252	correct	observe	Run1	observe/STIM_003.jpg
626.319	1.172	correct	observe	Run1	observe/STIM_003.jpg
629.846	1.108	correct	observe	Run1	observe/STIM_003.jpg
633.225	1.101	correct	observe	Run1	observe/STIM_004.jpg
638.257	1.262	correct	observe	Run1	observe/STIM_004.jpg
641.679	1.073	correct	observe	Run1	observe/STIM_004.jpg
644.791	1.234	correct	observe	Run1	observe/STIM_004.jpg
649.399	0.745	correct	observe	Run1	observe/STIM_005.jpg
652.168	0.906	correct	observe	Run1	observe/STIM_005.jpg
655.305	1.223	correct	observe	Run1	observe/STIM_005.jpg
658.601	0.937	correct	observe	Run1	observe/STIM_005.jpg
662.673	0.789	correct	observe	Run1	observe/STIM_006.jpg
667.239	1.205	correct	observe	Run1	observe/STIM_006.jpg
671.106	1.117	correct	observe	Run1	observe/STIM_006.jpg
674.332	1.188	correct	observe	Run1	observe/STIM_006.jpg
679.015	1.231	correct	observe	Run1	observe/STIM_007.jpg
682.481	1.271	correct	observe	Run1	observe/STIM_007.jpg
686.64	0.778	correct	observe	Run1	observe/STIM_007.jpg
690.111	0.795	correct	observe	Run1	observe/STIM_007.jpg
694.54	0.928	correct	observe	Run1	observe/STIM_008.jpg
699.138	0.934	correct	observe	Run1	observe/STIM_008.jpg
702.716	1.175	correct	observe	Run1	observe/STIM_008.jpg
706.517	0.775	correct	observe	Run1	observe/STIM_008.jpg
709.924	0.922	correct	observe	Run1	observe/STIM_009.jpg
713.059	0.686	correct	observe	Run1	observe/STIM_009.jpg
717.314	0.9	correct	observe	Run1	observe/STIM_009.jpg
720.44	0.889	correct	observe	Run1	observe/STIM_009.jpg
724.052	0.804	correct	observe	Run1	observe/STIM_010.jpg
727.293	0.872	correct	observe	Run1	observe/STIM_010.jpg
731.442	1.016	correct	observe	Run1	observe/STIM_010.jpg
736.212	1.106	correct	observe	Run1	observe/STIM_010.jpg
739.404	1.168	correct	observe	Run1	observe/STIM_011.jpg
743.752	1.179	correct	observe	Run1	observe/STIM_011.jpg
747.553	0.704	incorrect	observe	Run1	observe/STIM_011.jpg
751.487	0.928	correct	observe	Run1	observe/STIM_011.jpg
755.409	0.726	correct	observe	Run1	observe/STIM_012.jpg
758.793	0.758	correct	observe	Run1	observe/STIM_012.jpg
762.152	0.822	correct	observe	Run1	observe/STIM_012.jpg
765.457	1.237	correct	observe	Run1	observe/STIM_012.jpg
768.968	0.746	correct	observe	Run1	observe/STIM_013.jpg
771.922	1.039	correct	observe	Run1	observe/STIM_013.jpg
776.536	1.184	correct	observe	Run1	observe/STIM_013.jpg
779.855	1.09	correct	observe	Run1	observe/STIM_013.jpg
784.302	0.655	correct	observe	Run1	observe/STIM_014.jpg
787.035	1.27	correct	observe	Run1	observe/STIM_014.jpg
792.233	0.923	correct	observe	Run1	observe/STIM_014.jpg
796.205	1.094	correct	observe	Run1	observe/STIM_014.jpg
799.69	1.229	correct	observe	Run1	observe/STIM_015.jpg
803.903	0.754	correct	observe	Run1	observe/STIM_015.jpg
808.419	1.101	correct	observe	Run1	observe/STIM_015.jpg
812.888	1.034	correct	observe	Run1	observe/STIM_015.jpg
817.069	0.69	correct	observe	Run1	observe/STIM_016.jpg
819.762	0.751	correct	observe	Run1	observe/STIM_016.jpg
823.287	0.808	correct	observe	Run1	observe/STIM_016.jpg
827.222	0.97	correct	observe	Run1	observe/STIM_016.jpg
830.854	1.11	correct	observe	Run1	observe/STIM_017.jpg
835.708	0.806	correct	observe	Run1	observe/STIM_017.jpg
840.184	0.783	correct	observe	Run1	observe/STIM_017.jpg
844.76	1.148	correct	observe	Run1	observe/STIM_017.jpg
849.871	1.004	correct	observe	Run1	observe/STIM_018.jpg
853.383	0.922	correct	observe	Run1	observe/STIM_018.jpg
858.062	1.232	correct	observe	Run1	observe/STIM_018.jpg
863.018	0.66	correct	observe	Run1	observe/STIM_018.jpg
867.518	1.104	correct	observe	Run1	observe/STIM_019.jpg
872.529	0.709	correct	observe	Run1	observe/STIM_019.jpg
876.608	0.772	correct	observe	Run1	observe/STIM_019.jpg
880.431	1.216	correct	observe	Run1	observe/STIM_019.jpg
884.829	1.915	correct	regulate	Run2	regulate/STIM_000.jpg
889.961	1.635	correct	regulate	Run2	regulate/STIM_000.jpg
893.718	1.114	correct	regulate	Run2	regulate/STIM_000.jpg
897.131	1.264	correct	regulate	Run2	regulate/STIM_000.jpg
900.477	1.26	correct	regulate	Run2	regulate/STIM_001.jpg
904.159	1.382	correct	regulate	Run2	regulate/STIM_001.jpg
907.783	1.915	correct	regulate	Run2	regulate/STIM_001.jpg
911.767	1.428	correct	regulate	Run2	regulate/STIM_001.jpg
915.721	1.774	correct	regulate	Run2	regulate/STIM_002.jpg
919.996	1.338	correct	regulate	Run2	regulate/STIM_002.jpg
925.023	1.296	correct	regulate	Run2	regulate/STIM_002.jpg
928.377	1.204	correct	regulate	Run2	regulate/STIM_002.jpg
932.462	1.787	correct	regulate	Run2	regulate/STIM_003.jpg
936.971	1.854	correct	regulate	Run2	regulate/STIM_003.jpg
941.248	2.109	correct	regulate	Run2	regulate/STIM_003.jpg
946.808	1.458	correct	regulate	Run2	regulate/STIM_003.jpg
951.618	1.41	correct	regulate	Run2	regulate/STIM_004.jpg
955.464	1.84	correct	regulate	Run2	regulate/STIM_004.jpg
960.821	1.549	correct	regulate	Run2	regulate/STIM_004.jpg
965.397	1.879	correct	regulate	Run2	regulate/STIM_004.jpg
970.131	1.786	correct	regulate	Run2	regulate/STIM_005.jpg
975.047	1.62	correct	regulate	Run2	regulate/STIM_005.jpg
979.612	1.07	correct	regulate	Run2	regulate/STIM_005.jpg
983.501	1.231	correct	regulate	Run2	regulate/STIM_005.jpg
987.761	1.79	incorrect	regulate	Run2	regulate/STIM_006.jpg
992.934	1.32	correct	regulate	Run2	regulate/STIM_006.jpg
996.603	1.123	correct	regulate	Run2	regulate/STIM_006.jpg
1000.109	1.132	correct	regulate	Run2	regulate/STIM_006.jpg
1003.746	1.897	correct	regulate	Run2	regulate/STIM_007.jpg
1009.049	1.47	correct	regulate	Run2	regulate/STIM_007.jpg
1013.582	1.333	correct	regulate	Run2	regulate/STIM_007.jpg
1017.916	0.933	correct	regulate	Run2	regulate/STIM_007.jpg
1022.169	1.8	correct	regulate	Run2	regulate/STIM_008.jpg
1026.627	1.562	correct	regulate	Run2	regulate/STIM_008.jpg
1031.058	1.076	correct	regulate	Run2	regulate/STIM_008.jpg
1035.643	1.856	correct	regulate	Run2	regulate/STIM_008.jpg
1041.193	1.524	correct	regulate	Run2	regulate/STIM_009.jpg
1045.982	1.338	correct	regulate	Run2	regulate/STIM_009.jpg
1049.487	1.378	correct	regulate	Run2	regulate/STIM_009.jpg
1054.318	1.274	correct	regulate	Run2	regulate/STIM_009.jpg
1057.772	2.073	correct	regulate	Run2	regulate/STIM_010.jpg
1063.315	1.658	incorrect	regulate	Run2	regulate/STIM_010.jpg
1067.948	1.858	correct	regulate	Run2	regulate/STIM_010.jpg
1071.984	1.609	correct	regulate	Run2	regulate/STIM_010.jpg
1076.591	2.231	correct	regulate	Run2	regulate/STIM_011.jpg
1082.768	1.386	correct	regulate	Run2	regulate/STIM_011.jpg
1087.133	1.04	correct	regulate	Run2	regulate/STIM_011.jpg
1091.715	0.963	correct	regulate	Run2	regulate/STIM_011.jpg
1095.543	2.35	correct	regulate	Run2	regulate/STIM_012.jpg
1100.321	1.971	incorrect	regulate	Run2	regulate/STIM_012.jpg
1104.496	1.753	correct	regulate	Run2	regulate/STIM_012.jpg
1108.505	1.495	correct	regulate	Run2	regulate/STIM_012.jpg
1113.717	2.052	correct	regulate	Run2	regulate/STIM_013.jpg
1118.478	1.613	correct	regulate	Run2	regulate/STIM_013.jpg
1123.701	1.143	correct	regulate	Run2	regulate/STIM_013.jpg
1128.038	1.914	correct	regulate	Run2	regulate/STIM_013.jpg
1133.466	1.385	correct	regulate	Run2	regulate/STIM_014.jpg
1137.377	1.533	correct	regulate	Run2	regulate/STIM_014.jpg
1141.787	1.17	correct	regulate	Run2	regulate/STIM_014.jpg
1146.197	1.153	correct	regulate	Run2	regulate/STIM_014.jpg
1150.312	2.118	correct	regulate	Run2	regulate/STIM_015.jpg
1156.175	1.136	correct	regulate	Run2	regulate/STIM_015.jpg
1161.047	0.944	correct	regulate	Run2	regulate/STIM_015.jpg
1165.319	0.958	correct	regulate	Run2	regulate/STIM_015.jpg
1169.129	1.896	correct	regulate	Run2	regulate/STIM_016.jpg
1173.827	1.214	correct	regulate	Run2	regulate/STIM_016.jpg
1177.131	1.355	correct	regulate	Run2	regulate/STIM_016.jpg
1181.319	1.076	correct	regulate	Run2	regulate/STIM_016.jpg
1186.138	1.07	correct	regulate	Run2	regulate/STIM_017.jpg
1190.566	1.628	correct	regulate	Run2	regulate/STIM_017.jpg
1195.726	2.117	correct	regulate	Run2	regulate/STIM_017.jpg
1201.535	1.457	correct	regulate	Run2	regulate/STIM_017.jpg
1206.447	1.167	correct	regulate	Run2	regulate/STIM_018.jpg
1210.713	1.774	correct	regulate	Run2	regulate/STIM_018.jpg
1214.571	1.001	correct	regulate	Run2	regulate/STIM_018.jpg
1218.049	1.09	correct	regulate	Run2	regulate/STIM_018.jpg
1222.668	1.868	correct	regulate	Run2	regulate/STIM_019.jpg
1227.612	1.285	correct	regulate	Run2	regulate/STIM_019.jpg
1231.237	2.109	correct	regulate	Run2	regulate/STIM_019.jpg
1235.536	1.679	correct	regulate	Run2	regulate/STIM_019.jpg
1239.381	1.89	correct	regulate	Run2	regulate/STIM_020.jpg
1244.777	2.04	correct	regulate	Run2	regulate/STIM_020.jpg
1249.393	1.72	correct	regulate	Run2	regulate/STIM_020.jpg
1254.918	1.255	correct	regulate	Run2	regulate/STIM_020.jpg
1260.107	1.142	correct	regulate	Run2	regulate/STIM_021.jpg
1263.544	2.195	correct	regulate	Run2	regulate/STIM_021.jpg
1268.375	1.627	correct	regulate	Run2	regulate/STIM_021.jpg
1272.494	1.626	correct	regulate	Run2	regulate/STIM_021.jpg
1277.589	1.272	correct	regulate	Run2	regulate/STIM_022.jpg
1281.104	1.401	correct	regulate	Run2	regulate/STIM_022.jpg
1286.319	1.559	correct	regulate	Run2	regulate/STIM_022.jpg
1291.43	1.609	correct	regulate	Run2	regulate/STIM_022.jpg
1296.772	1.57	correct	regulate	Run2	regulate/STIM_023.jpg
1302.277	1.021	incorrect	regulate	Run2	regulate/STIM_023.jpg
1305.492	1.421	correct	regulate	Run2	regulate/STIM_023.jpg
1309.599	1.553	correct	regulate	Run2	regulate/STIM_023.jpg
1315.117	1.115	correct	regulate	Run2	regulate/STIM_024.jpg
1318.966	1.143	correct	regulate	Run2	regulate/STIM_024.jpg
1323.717	1.567	correct	regulate	Run2	regulate/STIM_024.jpg
1329.074	1.66	correct	regulate	Run2	regulate/STIM_024.jpg
1333.121	1.969	correct	regulate	Run2	regulate/STIM_025.jpg
1338.983	1.843	correct	regulate	Run2	regulate/STIM_025.jpg
1343.725	1.158	correct	regulate	Run2	regulate/STIM_025.jpg
1348.421	1.754	correct	regulate	Run2	regulate/STIM_025.jpg
1353.038	1.087	correct	regulate	Run2	regulate/STIM_026.jpg
1356.747	1.466	correct	regulate	Run2	regulate/STIM_026.jpg
1362.199	1.875	correct	regulate	Run2	regulate/STIM_026.jpg
1367.27	1.693	correct	regulate	Run2	regulate/STIM_026.jpg
1372.43	1.067	correct	regulate	Run2	regulate/STIM_027.jpg
1375.996	1.391	correct	regulate	Run2	regulate/STIM_027.jpg
1381.164	1.152	correct	regulate	Run2	regulate/STIM_027.jpg
1384.843	1.673	correct	regulate	Run2	regulate/STIM_027.jpg
1388.561	1.327	correct	regulate	Run2	regulate/STIM_028.jpg
1392.224	1.752	correct	regulate	Run2	regulate/STIM_028.jpg
1397.69	1.071	correct	regulate	Run2	regulate/STIM_028.jpg
1402.618	1.035	correct	regulate	Run2	regulate/STIM_028.jpg
1406.681	2.134	correct	regulate	Run2	regulate/STIM_029.jpg
1411.343	1.705	correct	regulate	Run2	regulate/STIM_029.jpg
1416.466	1.307	correct	regulate	Run2	regulate/STIM_029.jpg
1420.726	1.929	correct	regulate	Run2	regulate/STIM_029.jpg
1425.028	1.009	correct	observe	Run2	observe/STIM_000.jpg
1429.24	0.988	correct	observe	Run2	observe/STIM_000.jpg
1432.564	0.674	correct	observe	Run2	observe/STIM_000.jpg
1436.192	1.167	correct	observe	Run2	observe/STIM_000.jpg
1439.746	0.968	correct	observe	Run2	observe/STIM_001.jpg
1443.892	1.273	correct	observe	Run2	observe/STIM_001.jpg
1447.77	1.156	correct	observe	Run2	observe/STIM_001.jpg
1451.08	0.716	correct	observe	Run2	observe/STIM_001.jpg
1454.82	1.034	correct	observe	Run2	observe/STIM_002.jpg
1458.149	0.846	correct	observe	Run2	observe/STIM_002.jpg
1462.102	0.673	correct	observe	Run2	observe/STIM_002.jpg
1465.441	1.208	correct	observe	Run2	observe/STIM_002.jpg
1469.889	0.87	correct	observe	Run2	observe/STIM_003.jpg
1473.184	1.08	correct	observe	Run2	observe/STIM_003.jpg
1476.476	0.801	correct	observe	Run2	observe/STIM_003.jpg
1481.149	1.201	correct	observe	Run2	observe/STIM_003.jpg
1486.339	0.99	correct	observe	Run2	observe/STIM_004.jpg
1491.007	1.036	correct	observe	Run2	observe/STIM_004.jpg
1495.085	0.786	correct	observe	Run2	observe/STIM_004.jpg
1498.342	1.198	correct	observe	Run2	observe/STIM_004.jpg
1503.193	1.123	correct	observe	Run2	observe/STIM_005.jpg
1508.306	0.918	correct	observe	Run2	observe/STIM_005.jpg
1511.57	0.87	correct	observe	Run2	observe/STIM_005.jpg
1515.365	0.723	correct	observe	Run2	observe/STIM_005.jpg
1519.116	1.181	correct	observe	Run2	observe/STIM_006.jpg
1522.424	1.288	correct	observe	Run2	observe/STIM_006.jpg
1527.36	0.802	correct	observe	Run2	observe/STIM_006.jpg
1531.362	0.851	correct	observe	Run2	observe/STIM_006.jpg
1534.928	0.815	correct	observe	Run2	observe/STIM_007.jpg
1539.437	1.16	correct	observe	Run2	observe/STIM_007.jpg
1544.02	1.233	correct	observe	Run2	observe/STIM_007.jpg
1548.066	0.649	correct	observe	Run2	observe/STIM_007.jpg
1551.34	0.728	correct	observe	Run2	observe/STIM_008.jpg
1555.23	0.729	correct	observe	Run2	observe/STIM_008.jpg
1559.282	0.842	correct	observe	Run2	observe/STIM_008.jpg
1562.889	0.888	correct	observe	Run2	observe/STIM_008.jpg
1566.923	0.691	correct	observe	Run2	observe/STIM_009.jpg
1569.896	0.721	correct	observe	Run2	observe/STIM_009.jpg
1573.944	0.91	correct	observe	Run2	observe/STIM_009.jpg
1577.251	1.23	correct	observe	Run2	observe/STIM_009.jpg
1582.097	0.812	correct	observe	Run2	observe/STIM_010.jpg
1586.05	1.127	correct	observe	Run2	observe/STIM_010.jpg
1591.042	0.952	correct	observe	Run2	observe/STIM_010.jpg
1595.902	1.255	correct	observe	Run2	observe/STIM_010.jpg
1599.428	1.137	correct	observe	Run2	observe/STIM_011.jpg
1603.456	1.141	correct	observe	Run2	observe/STIM_011.jpg
1607.16	1.068	correct	observe	Run2	observe/STIM_011.jpg
1610.281	1.276	correct	observe	Run2	observe/STIM_011.jpg
1614.297	0.725	incorrect	observe	Run2	observe/STIM_012.jpg
1618.051	0.915	correct	observe	Run2	observe/STIM_012.jpg
1621.255	0.682	correct	observe	Run2	observe/STIM_012.jpg
1624.017	1.225	correct	observe	Run2	observe/STIM_012.jpg
1627.995	1.247	correct	observe	Run2	observe/STIM_013.jpg
1633.071	0.778	correct	observe	Run2	observe/STIM_013.jpg
1636.278	0.856	correct	observe	Run2	observe/STIM_013.jpg
1641.069	1.12	correct	observe	Run2	observe/STIM_013.jpg
1645.661	0.848	correct	observe	Run2	observe/STIM_014.jpg
1648.623	0.664	correct	observe	Run2	observe/STIM_014.jpg
1651.934	0.706	correct	observe	Run2	observe/STIM_014.jpg
1655.614	1.285	correct	observe	Run2	observe/STIM_014.jpg
1660.403	0.914	correct	observe	Run2	observe/STIM_015.jpg
1664.608	0.665	correct	observe	Run2	observe/STIM_015.jpg
1667.55	1.049	correct	observe	Run2	observe/STIM_015.jpg
1670.87	0.795	correct	observe	Run2	observe/STIM_015.jpg
1674.788	1.103	correct	observe	Run2	observe/STIM_016.jpg
1678.282	1.209	correct	observe	Run2	observe/STIM_016.jpg
1681.825	1.159	correct	observe	Run2	observe/STIM_016.jpg
1685.434	1.168	correct	observe	Run2	observe/STIM_016.jpg
1690.583	1.25	correct	observe	Run2	observe/STIM_017.jpg
1695.369	1.119	correct	observe	Run2	observe/STIM_017.jpg
1698.861	1.013	correct	observe	Run2	observe/STIM_017.jpg
1703.589	0.862	correct	observe	Run2	observe/STIM_017.jpg
1706.841	1.196	correct	observe	Run2	observe/STIM_018.jpg
1711.558	1.141	correct	observe	Run2	observe/STIM_018.jpg
1715.539	0.97	correct	observe	Run2	observe/STIM_018.jpg
1719.971	0.866	correct	observe	Run2	observe/STIM_018.jpg
1724.654	0.932	correct	observe	Run2	observe/STIM_019.jpg
1728.363	1.177	correct	observe	Run2	observe/STIM_019.jpg
1733.51	1.25	correct	observe	Run2	observe/STIM_019.jpg
1736.768	1.284	incorrect	observe	Run2	observe/STIM_019.jpg
1740.176	1.117	correct	regulate	Run3	regulate/STIM_000.jpg
1744.69	1.056	correct	regulate	Run3	regulate/STIM_000.jpg
1749.284	1.712	correct	regulate	Run3	regulate/STIM_000.jpg
1753.068	1.399	correct	regulate	Run3	regulate/STIM_000.jpg
1757.872	1.549	incorrect	regulate	Run3	regulate/STIM_001.jpg
1762.033	1.05	correct	regulate	Run3	regulate/STIM_001.jpg
1766.708	1.605	correct	regulate	Run3	regulate/STIM_001.jpg
1770.495	1.123	correct	regulate	Run3	regulate/STIM_001.jpg
1775.477	0.932	correct	regulate	Run3	regulate/STIM_002.jpg
1780.034	1.351	correct	regulate	Run3	regulate/STIM_002.jpg
1784.688	1.499	correct	regulate	Run3	regulate/STIM_002.jpg
1788.773	1.961	correct	regulate	Run3	regulate/STIM_002.jpg
1793.0	1.946	correct	regulate	Run3	regulate/STIM_003.jpg
1797.201	1.951	correct	regulate	Run3	regulate/STIM_003.jpg
1802.78	1.129	correct	regulate	Run3	regulate/STIM_003.jpg
1807.357	1.786	correct	regulate	Run3	regulate/STIM_003.jpg
1812.361	1.171	correct	regulate	Run3	regulate/STIM_004.jpg
1816.839	1.874	correct	regulate	Run3	regulate/STIM_004.jpg
1822.588	1.771	correct	regulate	Run3	regulate/STIM_004.jpg
1827.246	1.367	correct	regulate	Run3	regulate/STIM_004.jpg
1832.24	1.492	correct	regulate	Run3	regulate/STIM_005.jpg
1836.259	1.114	correct	regulate	Run3	regulate/STIM_005.jpg
1841.122	1.925	correct	regulate	Run3	regulate/STIM_005.jpg
1846.183	1.902	correct	regulate	Run3	regulate/STIM_005.jpg
1850.678	1.096	correct	regulate	Run3	regulate/STIM_006.jpg
1855.029	1.62	correct	regulate	Run3	regulate/STIM_006.jpg
1860.046	1.156	incorrect	regulate	Run3	regulate/STIM_006.jpg
1864.164	1.442	correct	regulate	Run3	regulate/STIM_006.jpg
1868.767	1.8	correct	regulate	Run3	regulate/STIM_007.jpg
1873.054	1.91	correct	regulate	Run3	regulate/STIM_007.jpg
1878.762	1.768	correct	regulate	Run3	regulate/STIM_007.jpg
1883.202	1.511	correct	regulate	Run3	regulate/STIM_007.jpg
1886.98	1.155	correct	regulate	Run3	regulate/STIM_008.jpg
1891.265	1.449	correct	regulate	Run3	regulate/STIM_008.jpg
1895.479	1.041	correct	regulate	Run3	regulate/STIM_008.jpg
1900.107	1.874	correct	regulate	Run3	regulate/STIM_008.jpg
1905.141	1.155	correct	regulate	Run3	regulate/STIM_009.jpg
1908.747	1.644	correct	regulate	Run3	regulate/STIM_009.jpg
1913.632	1.391	correct	regulate	Run3	regulate/STIM_009.jpg
1918.327	1.799	correct	regulate	Run3	regulate/STIM_009.jpg
1922.196	1.82	correct	regulate	Run3	regulate/STIM_010.jpg
1927.135	1.947	correct	regulate	Run3	regulate/STIM_010.jpg
1931.336	1.482	correct	regulate	Run3	regulate/STIM_010.jpg
1935.176	1.724	correct	regulate	Run3	regulate/STIM_010.jpg
1940.138	0.885	correct	regulate	Run3	regulate/STIM_011.jpg
1944.002	1.812	correct	regulate	Run3	regulate/STIM_011.jpg
1949.197	1.968	correct	regulate	Run3	regulate/STIM_011.jpg
1953.192	0.954	correct	regulate	Run3	regulate/STIM_011.jpg
1958.137	0.966	correct	regulate	Run3	regulate/STIM_012.jpg
1962.458	1.09	correct	regulate	Run3	regulate/STIM_012.jpg
1966.743	1.21	correct	regulate	Run3	regulate/STIM_012.jpg
1971.288	1.665	correct	regulate	Run3	regulate/STIM_012.jpg
1975.994	1.869	correct	regulate	Run3	regulate/STIM_013.jpg
1980.407	1.057	correct	regulate	Run3	regulate/STIM_013.jpg
1984.399	1.591	correct	regulate	Run3	regulate/STIM_013.jpg
1988.369	0.96	correct	regulate	Run3	regulate/STIM_013.jpg
1992.747	1.062	correct	regulate	Run3	regulate/STIM_014.jpg
1997.329	0.978	correct	regulate	Run3	regulate/STIM_014.jpg
2001.775	1.44	correct	regulate	Run3	regulate/STIM_014.jpg
2006.6	1.624	correct	regulate	Run3	regulate/STIM_014.jpg
2011.664	0.97	correct	regulate	Run3	regulate/STIM_015.jpg
2015.565	1.795	correct	regulate	Run3	regulate/STIM_015.jpg
2020.824	0.866	correct	regulate	Run3	regulate/STIM_015.jpg
2025.036	1.337	correct	regulate	Run3	regulate/STIM_015.jpg
2029.543	0.886	correct	regulate	Run3	regulate/STIM_016.jpg
2033.447	1.541	correct	regulate	Run3	regulate/STIM_016.jpg
2038.432	1.748	correct	regulate	Run3	regulate/STIM_016.jpg
2042.501	0.87	correct	regulate	Run3	regulate/STIM_016.jpg
2047.353	1.012	correct	regulate	Run3	regulate/STIM_017.jpg
2050.826	0.932	correct	regulate	Run3	regulate/STIM_017.jpg
2054.54	1.136	correct	regulate	Run3	regulate/STIM_017.jpg
2058.792	1.685	correct	regulate	Run3	regulate/STIM_017.jpg
2063.151	1.289	correct	regulate	Run3	regulate/STIM_018.jpg
2066.544	0.927	correct	regulate	Run3	regulate/STIM_018.jpg
2070.113	1.617	correct	regulate	Run3	regulate/STIM_018.jpg
2074.191	1.957	correct	regulate	Run3	regulate/STIM_018.jpg
2078.189	1.135	correct	regulate	Run3	regulate/STIM_019.jpg
2081.776	1.39	correct	regulate	Run3	regulate/STIM_019.jpg
2085.591	1.234	correct	regulate	Run3	regulate/STIM_019.jpg
2089.275	1.081	correct	regulate	Run3	regulate/STIM_019.jpg
2094.202	1.879	correct	regulate	Run3	regulate/STIM_020.jpg
2098.46	1.541	correct	regulate	Run3	regulate/STIM_020.jpg
2103.291	1.907	correct	regulate	Run3	regulate/STIM_020.jpg
2107.701	0.896	correct	regulate	Run3	regulate/STIM_020.jpg
2111.997	1.274	correct	regulate	Run3	regulate/STIM_021.jpg
2116.535	1.595	correct	regulate	Run3	regulate/STIM_021.jpg
2121.644	1.456	correct	regulate	Run3	regulate/STIM_021.jpg
2126.954	1.975	correct	regulate	Run3	regulate/STIM_021.jpg
2131.625	1.486	correct	regulate	Run3	regulate/STIM_022.jpg
2137.107	1.193	correct	regulate	Run3	regulate/STIM_022.jpg
2140.344	1.102	correct	regulate	Run3	regulate/STIM_022.jpg
2145.414	1.781	correct	regulate	Run3	regulate/STIM_022.jpg
2150.608	0.929	correct	regulate	Run3	regulate/STIM_023.jpg
2155.065	1.446	correct	regulate	Run3	regulate/STIM_023.jpg
2159.922	1.142	correct	regulate	Run3	regulate/STIM_023.jpg
2163.62	1.466	correct	regulate	Run3	regulate/STIM_023.jpg
2168.56	1.029	correct	regulate	Run3	regulate/STIM_024.jpg
2173.373	1.736	correct	regulate	Run3	regulate/STIM_024.jpg
2178.649	1.014	correct	regulate	Run3	regulate/STIM_024.jpg
2183.444	1.75	correct	regulate	Run3	regulate/STIM_024.jpg
2188.142	1.17	correct	regulate	Run3	regulate/STIM_025.jpg
2192.894	1.072	correct	regulate	Run3	regulate/STIM_025.jpg
2196.318	1.56	correct	regulate	Run3	regulate/STIM_025.jpg
2200.506	0.953	correct	regulate	Run3	regulate/STIM_025.jpg
2205.081	1.133	correct	regulate	Run3	regulate/STIM_026.jpg
2209.396	1.526	correct	regulate	Run3	regulate/STIM_026.jpg
2214.669	1.296	correct	regulate	Run3	regulate/STIM_026.jpg
2218.69	1.677	correct	regulate	Run3	regulate/STIM_026.jpg
2224.033	1.169	correct	regulate	Run3	regulate/STIM_027.jpg
2227.216	1.43	correct	regulate	Run3	regulate/STIM_027.jpg
2232.107	0.961	correct	regulate	Run3	regulate/STIM_027.jpg
2236.469	1.909	correct	regulate	Run3	regulate/STIM_027.jpg
2242.373	1.617	correct	regulate	Run3	regulate/STIM_028.jpg
2246.116	1.074	correct	regulate	Run3	regulate/STIM_028.jpg
2251.148	0.937	correct	regulate	Run3	regulate/STIM_028.jpg
2255.437	1.413	correct	regulate	Run3	regulate/STIM_028.jpg
2259.716	1.252	correct	regulate	Run3	regulate/STIM_029.jpg
2263.373	1.068	correct	regulate	Run3	regulate/STIM_029.jpg
2266.97	1.514	correct	regulate	Run3	regulate/STIM_029.jpg
2270.599	1.582	correct	regulate	Run3	regulate/STIM_029.jpg
2274.587	1.202	correct	observe	Run3	observe/STIM_000.jpg
2279.071	1.057	correct	observe	Run3	observe/STIM_000.jpg
2283.587	1.171	correct	observe	Run3	observe/STIM_000.jpg
2287.447	1.003	correct	observe	Run3	observe/STIM_000.jpg
2291.038	0.826	correct	observe	Run3	observe/STIM_001.jpg
2294.586	0.903	correct	observe	Run3	observe/STIM_001.jpg
2298.94	0.878	correct	observe	Run3	observe/STIM_001.jpg
2302.452	0.777	correct	observe	Run3	observe/STIM_001.jpg
2305.3	0.774	correct	observe	Run3	observe/STIM_002.jpg
2308.706	0.752	correct	observe	Run3	observe/STIM_002.jpg
2312.241	1.251	correct	observe	Run3	observe/STIM_002.jpg
2316.758	1.084	correct	observe	Run3	observe/STIM_002.jpg
2320.68	1.048	correct	observe	Run3	observe/STIM_003.jpg
2324.97	1.252	correct	observe	Run3	observe/STIM_003.jpg
2328.602	0.653	correct	observe	Run3	observe/STIM_003.jpg
2333.034	0.787	correct	observe	Run3	observe/STIM_003.jpg
2337.134	0.865	correct	observe	Run3	observe/STIM_004.jpg
2340.189	0.712	correct	observe	Run3	observe/STIM_004.jpg
2344.333	1.161	correct	observe	Run3	observe/STIM_004.jpg
2348.307	0.876	correct	observe	Run3	observe/STIM_004.jpg
2352.578	1.27	incorrect	observe	Run3	observe/STIM_005.jpg
2357.672	0.828	correct	observe	Run3	observe/STIM_005.jpg
2362.139	1.249	correct	observe	Run3	observe/STIM_005.jpg
2366.514	1.193	correct	observe	Run3	observe/STIM_005.jpg
2370.551	0.656	correct	observe	Run3	observe/STIM_006.jpg
2373.336	1.058	correct	observe	Run3	observe/STIM_006.jpg
2377.51	1.153	correct	observe	Run3	observe/STIM_006.jpg
2380.833	0.723	correct	observe	Run3	observe/STIM_006.jpg
2385.309	1.13	correct	observe	Run3	observe/STIM_007.jpg
2388.481	0.913	correct	observe	Run3	observe/STIM_007.jpg
2392.937	1.03	correct	observe	Run3	observe/STIM_007.jpg
2396.816	1.222	correct	observe	Run3	observe/STIM_007.jpg
2401.935	0.906	correct	observe	Run3	observe/STIM_008.jpg
2404.879	0.867	correct	observe	Run3	observe/STIM_008.jpg
2407.932	1.035	correct	observe	Run3	observe/STIM_008.jpg
2411.905	0.933	correct	observe	Run3	observe/STIM_008.jpg
2416.825	0.867	correct	observe	Run3	observe/STIM_009.jpg
2421.53	1.172	correct	observe	Run3	observe/STIM_009.jpg
2425.923	0.71	correct	observe	Run3	observe/STIM_009.jpg
2430.598	0.777	correct	observe	Run3	observe/STIM_009.jpg
2433.914	0.985	correct	observe	Run3	observe/STIM_010.jpg
2438.238	0.984	correct	observe	Run3	observe/STIM_010.jpg
2442.082	0.758	correct	observe	Run3	observe/STIM_010.jpg
2446.258	1.145	correct	observe	Run3	observe/STIM_010.jpg
2450.9	0.765	correct	observe	Run3	observe/STIM_011.jpg
2454.01	0.801	correct	observe	Run3	observe/STIM_011.jpg
2458.788	1.062	correct	observe	Run3	observe/STIM_011.jpg
2461.954	0.939	correct	observe	Run3	observe/STIM_011.jpg
2465.405	0.85	correct	observe	Run3	observe/STIM_012.jpg
2470.026	0.946	correct	observe	Run3	observe/STIM_012.jpg
2473.908	1.057	correct	observe	Run3	observe/STIM_012.jpg
2477.517	0.842	correct	observe	Run3	observe/STIM_012.jpg
2481.121	1.226	correct	observe	Run3	observe/STIM_013.jpg
2486.267	1.134	correct	observe	Run3	observe/STIM_013.jpg
2489.416	0.75	correct	observe	Run3	observe/STIM_013.jpg
2493.286	0.953	correct	observe	Run3	observe/STIM_013.jpg
2498.092	1.218	correct	observe	Run3	observe/STIM_014.jpg
2503.197	0.81	correct	observe	Run3	observe/STIM_014.jpg
2507.163	1.287	correct	observe	Run3	observe/STIM_014.jpg
2511.684	0.654	correct	observe	Run3	observe/STIM_014.jpg
2516.147	1.1	correct	observe	Run3	observe/STIM_015.jpg
2519.409	0.76	correct	observe	Run3	observe/STIM_015.jpg
2523.063	0.669	correct	observe	Run3	observe/STIM_015.jpg
2527.161	0.941	correct	observe	Run3	observe/STIM_015.jpg
2531.435	1.068	correct	observe	Run3	observe/STIM_016.jpg
2536.266	1.206	correct	observe	Run3	observe/STIM_016.jpg
2539.652	0.733	correct	observe	Run3	observe/STIM_016.jpg
2544.233	1.074	correct	observe	Run3	observe/STIM_016.jpg
2548.276	1.269	correct	observe	Run3	observe/STIM_017.jpg
2553.037	0.797	correct	observe	Run3	observe/STIM_017.jpg
2556.392	0.814	correct	observe	Run3	observe/STIM_017.jpg
2559.31	1.257	correct	observe	Run3	observe/STIM_017.jpg
2563.054	1.01	correct	observe	Run3	observe/STIM_018.jpg
2567.274	0.876	correct	observe	Run3	observe/STIM_018.jpg
2571.054	1.179	correct	observe	Run3	observe/STIM_018.jpg
2576.116	1.037	correct	observe	Run3	observe/STIM_018.jpg
2579.464	0.83	correct	observe	Run3	observe/STIM_019.jpg
2582.43	1.062	correct	observe	Run3	observe/STIM_019.jpg
2587.003	0.98	correct	observe	Run3	observe/STIM_019.jpg
2591.264	1.186	correct	observe	Run3	observe/STIM_019.jpg
