onset	duration	accuracy	trial_type	learning_stage	stimulus
0.0	2.49	correct	regulate	Run1	regulate/STIM_000.jpg
4.365	2.552	correct	regulate	Run1	regulate/STIM_000.jpg
9.229	1.553	correct	regulate	Run1	regulate/STIM_000.jpg
13.711	2.661	correct	regulate	Run1	regulate/STIM_000.jpg
18.545	1.965	correct	regulate	Run1	regulate/STIM_001.jpg
23.765	2.031	incorrect	regulate	Run1	regulate/STIM_001.jpg
28.673	3.236	correct	regulate	Run1	regulate/STIM_001.jpg
34.911	2.67	correct	regulate	Run1	regulate/STIM_001.jpg
40.823	2.359	correct	regulate	Run1	regulate/STIM_002.jpg
45.92	1.73	correct	regulate	Run1	regulate/STIM_002.jpg
50.351	2.939	incorrect	regulate	Run1	regulate/STIM_002.jpg
55.389	3.269	correct	regulate	Run1	regulate/STIM_002.jpg
61.935	3.55	correct	regulate	Run1	regulate/STIM_003.jpg
68.79	2.012	correct	regulate	Run1	regulate/STIM_003.jpg
73.791	2.164	correct	regulate	Run1	regulate/STIM_003.jpg
78.992	2.397	correct	regulate	Run1	regulate/STIM_003.jpg
83.563	3.328	correct	regulate	Run1	regulate/STIM_004.jpg
90.2	2.044	correct	regulate	Run1	regulate/STIM_004.jpg
94.683	2.124	incorrect	regulate	Run1	regulate/STIM_004.jpg
98.63	3.2	correct	regulate	Run1	regulate/STIM_004.jpg
105.262	2.257	incorrect	regulate	Run1	regulate/STIM_005.jpg
110.01	1.927	incorrect	regulate	Run1	regulate/STIM_005.jpg
114.928	2.349	correct	regulate	Run1	regulate/STIM_005.jpg
120.114	2.329	incorrect	regulate	Run1	regulate/STIM_005.jpg
125.891	2.887	correct	regulate	Run1	regulate/STIM_006.jpg
131.172	3.496	correct	regulate	Run1	regulate/STIM_006.jpg
136.973	1.808	correct	regulate	Run1	regulate/STIM_006.jpg
142.336	3.138	correct	regulate	Run1	regulate/STIM_006.jpg
147.23	2.646	incorrect	regulate	Run1	regulate/STIM_007.jpg
153.471	1.93	correct	regulate	Run1	regulate/STIM_007.jpg
158.829	2.492	incorrect	regulate	Run1	regulate/STIM_007.jpg
163.857	2.732	incorrect	regulate	Run1	regulate/STIM_007.jpg
169.739	2.766	incorrect	regulate	Run1	regulate/STIM_008.jpg
174.697	1.818	incorrect	regulate	Run1	regulate/STIM_008.jpg
179.336	2.812	incorrect	regulate	Run1	regulate/STIM_008.jpg
183.947	2.719	incorrect	regulate	Run1	regulate/STIM_008.jpg
189.503	2.044	correct	regulate	Run1	regulate/STIM_009.jpg
193.974	3.453	correct	regulate	Run1	regulate/STIM_009.jpg
199.468	3.422	incorrect	regulate	Run1	regulate/STIM_009.jpg
205.356	1.901	correct	regulate	Run1	regulate/STIM_009.jpg
210.321	3.632	incorrect	regulate	Run1	regulate/STIM_010.jpg
216.372	3.57	incorrect	regulate	Run1	regulate/STIM_010.jpg
222.007	3.414	correct	regulate	Run1	regulate/STIM_010.jpg
228.022	1.526	correct	regulate	Run1	regulate/STIM_010.jpg
233.401	2.155	correct	regulate	Run1	regulate/STIM_011.jpg
237.498	2.843	correct	regulate	Run1	regulate/STIM_011.jpg
242.941	1.767	correct	regulate	Run1	regulate/STIM_011.jpg
248.01	2.3	correct	regulate	Run1	regulate/STIM_011.jpg
252.502	2.17	correct	regulate	Run1	regulate/STIM_012.jpg
257.562	1.718	correct	regulate	Run1	regulate/STIM_012.jpg
262.809	3.27	correct	regulate	Run1	regulate/STIM_012.jpg
267.925	2.277	correct	regulate	Run1	regulate/STIM_012.jpg
273.433	3.306	correct	regulate	Run1	regulate/STIM_013.jpg
279.756	3.349	correct	regulate	Run1	regulate/STIM_013.jpg
285.73	2.714	correct	regulate	Run1	regulate/STIM_013.jpg
291.513	1.68	correct	regulate	Run1	regulate/STIM_013.jpg
296.59	3.169	correct	regulate	Run1	regulate/STIM_014.jpg
301.641	2.522	correct	regulate	Run1	regulate/STIM_014.jpg
306.087	2.559	correct	regulate	Run1	regulate/STIM_014.jpg
310.581	2.021	correct	regulate	Run1	regulate/STIM_014.jpg
315.038	2.248	correct	regulate	Run1	regulate/STIM_015.jpg
320.49	1.652	correct	regulate	Run1	regulate/STIM_015.jpg
324.03	2.981	correct	regulate	Run1	regulate/STIM_015.jpg
330.336	1.42	incorrect	regulate	Run1	regulate/STIM_015.jpg
333.868	2.888	correct	regulate	Run1	regulate/STIM_016.jpg
339.595	3.517	correct	regulate	Run1	regulate/STIM_016.jpg
346.56	1.824	correct	regulate	Run1	regulate/STIM_016.jpg
350.4	1.713	correct	regulate	Run1	regulate/STIM_016.jpg
355.941	1.918	incorrect	regulate	Run1	regulate/STIM_017.jpg
360.26	2.57	correct	regulate	Run1	regulate/STIM_017.jpg
365.08	3.327	correct	regulate	Run1	regulate/STIM_017.jpg
371.004	2.504	correct	regulate	Run1	regulate/STIM_017.jpg
377.089	1.821	correct	regulate	Run1	regulate/STIM_018.jpg
380.939	3.527	incorrect	regulate	Run1	regulate/STIM_018.jpg
386.667	1.963	correct	regulate	Run1	regulate/STIM_018.jpg
391.829	1.768	correct	regulate	Run1	regulate/STIM_018.jpg
395.778	3.284	correct	regulate	Run1	regulate/STIM_019.jpg
402.381	2.424	correct	regulate	Run1	regulate/STIM_019.jpg
406.846	1.734	correct	regulate	Run1	regulate/STIM_019.jpg
410.438	1.617	incorrect	regulate	Run1	regulate/STIM_019.jpg
414.599	1.835	correct	regulate	Run1	regulate/STIM_020.jpg
418.458	2.086	correct	regulate	Run1	regulate/STIM_020.jpg
423.359	3.003	correct	regulate	Run1	regulate/STIM_020.jpg
428.616	3.036	correct	regulate	Run1	regulate/STIM_020.jpg
433.562	2.998	correct	regulate	Run1	regulate/STIM_021.jpg
439.815	2.569	correct	regulate	Run1	regulate/STIM_021.jpg
446.012	3.195	correct	regulate	Run1	regulate/STIM_021.jpg
451.264	3.066	correct	regulate	Run1	regulate/STIM_021.jpg
456.999	2.094	correct	regulate	Run1	regulate/STIM_022.jpg
461.16	3.414	correct	regulate	Run1	regulate/STIM_022.jpg
467.38	1.892	incorrect	regulate	Run1	regulate/STIM_022.jpg
472.616	2.517	correct	regulate	Run1	regulate/STIM_022.jpg
478.45	3.404	correct	regulate	Run1	regulate/STIM_023.jpg
483.558	2.73	correct	regulate	Run1	regulate/STIM_023.jpg
489.006	2.72	correct	regulate	Run1	regulate/STIM_023.jpg
495.091	2.176	incorrect	regulate	Run1	regulate/STIM_023.jpg
500.165	3.209	correct	regulate	Run1	regulate/STIM_024.jpg
505.428	3.063	correct	regulate	Run1	regulate/STIM_024.jpg
512.126	2.119	correct	regulate	Run1	regulate/STIM_024.jpg
517.275	2.16	correct	regulate	Run1	regulate/STIM_024.jpg
522.735	2.54	correct	regulate	Run1	regulate/STIM_025.jpg
528.698	1.827	correct	regulate	Run1	regulate/STIM_025.jpg
533.455	2.546	incorrect	regulate	Run1	regulate/STIM_025.jpg
539.484	1.873	correct	regulate	Run1	regulate/STIM_025.jpg
544.71	3.138	incorrect	regulate	Run1	regulate/STIM_026.jpg
550.111	1.576	correct	regulate	Run1	regulate/STIM_026.jpg
555.024	2.831	incorrect	regulate	Run1	regulate/STIM_026.jpg
560.754	2.25	correct	regulate	Run1	regulate/STIM_026.jpg
566.639	2.54	correct	regulate	Run1	regulate/STIM_027.jpg
571.325	3.338	correct	regulate	Run1	regulate/STIM_027.jpg
577.789	2.607	correct	regulate	Run1	regulate/STIM_027.jpg
583.571	1.885	correct	regulate	Run1	regulate/STIM_027.jpg
588.638	2.786	correct	regulate	Run1	regulate/STIM_028.jpg
593.259	3.634	correct	regulate	Run1	regulate/STIM_028.jpg
600.111	2.482	correct	regulate	Run1	regulate/STIM_028.jpg
606.291	2.018	correct	regulate	Run1	regulate/STIM_028.jpg
611.187	2.88	incorrect	regulate	Run1	regulate/STIM_029.jpg
617.412	3.278	correct	regulate	Run1	regulate/STIM_029.jpg
623.945	2.961	correct	regulate	Run1	regulate/STIM_029.jpg
628.725	1.511	correct	regulate	Run1	regulate/STIM_029.jpg
633.447	0.903	correct	observe	Run1	observe/STIM_000.jpg
637.432	1.36	correct	observe	Run1	observe/STIM_000.jpg
641.52	1.686	correct	observe	Run1	observe/STIM_000.jpg
645.412	1.54	incorrect	observe	Run1	observe/STIM_000.jpg
648.974	1.402	correct	observe	Run1	observe/STIM_001.jpg
652.683	1.69	correct	observe	Run1	observe/STIM_001.jpg
658.109	1.657	correct	observe	Run1	observe/STIM_001.jpg
663.557	1.725	correct	observe	Run1	observe/STIM_001.jpg
667.651	1.23	incorrect	observe	Run1	observe/STIM_002.jpg
671.923	1.041	correct	observe	Run1	observe/STIM_002.jpg
674.908	1.451	correct	observe	Run1	observe/STIM_002.jpg
678.885	1.54	incorrect	observe	Run1	observe/STIM_002.jpg
682.945	1.517	incorrect	observe	Run1	observe/STIM_003.jpg
687.298	1.016	correct	observe	Run1	observe/STIM_003.jpg
691.467	1.216	correct	observe	Run1	observe/STIM_003.jpg
696.023	1.565	correct	observe	Run1	observe/STIM_003.jpg
700.734	1.646	correct	observe	Run1	observe/STIM_004.jpg
705.245	0.908	correct	observe	Run1	observe/STIM_004.jpg
708.597	1.036	correct	observe	Run1	observe/STIM_004.jpg
712.858	1.454	correct	observe	Run1	observe/STIM_004.jpg
716.334	1.103	correct	observe	Run1	observe/STIM_005.jpg
720.592	1.29	incorrect	observe	Run1	observe/STIM_005.jpg
725.636	1.236	correct	observe	Run1	observe/STIM_005.jpg
729.238	1.635	correct	observe	Run1	observe/STIM_005.jpg
734.504	1.369	correct	observe	Run1	observe/STIM_006.jpg
738.097	1.64	correct	observe	Run1	observe/STIM_006.jpg
741.686	1.105	correct	observe	Run1	observe/STIM_006.jpg
744.946	1.212	correct	observe	Run1	observe/STIM_006.jpg
749.287	1.511	correct	observe	Run1	observe/STIM_007.jpg
752.816	1.728	incorrect	observe	Run1	observe/STIM_007.jpg
757.087	1.594	correct	observe	Run1	observe/STIM_007.jpg
760.658	1.283	correct	observe	Run1	observe/STIM_007.jpg
764.484	1.683	correct	observe	Run1	observe/STIM_008.jpg
768.39	1.053	correct	observe	Run1	observe/STIM_008.jpg
772.476	1.411	correct	observe	Run1	observe/STIM_008.jpg
777.199	1.303	correct	observe	Run1	observe/STIM_008.jpg
780.525	1.205	correct	observe	Run1	observe/STIM_009.jpg
785.043	1.304	correct	observe	Run1	observe/STIM_009.jpg
790.057	1.621	correct	observe	Run1	observe/STIM_009.jpg
793.857	1.728	correct	observe	Run1	observe/STIM_009.jpg
798.179	1.185	correct	observe	Run1	observe/STIM_010.jpg
801.789	1.35	correct	observe	Run1	observe/STIM_010.jpg
805.48	1.257	correct	observe	Run1	observe/STIM_010.jpg
809.689	1.38	correct	observe	Run1	observe/STIM_010.jpg
813.987	1.725	correct	observe	Run1	observe/STIM_011.jpg
817.733	1.142	correct	observe	Run1	observe/STIM_011.jpg
822.668	0.995	incorrect	observe	Run1	observe/STIM_011.jpg
826.378	1.697	correct	observe	Run1	observe/STIM_011.jpg
830.268	1.213	correct	observe	Run1	observe/STIM_012.jpg
834.039	1.505	correct	observe	Run1	observe/STIM_012.jpg
839.14	1.335	correct	observe	Run1	observe/STIM_012.jpg
843.633	1.746	incorrect	observe	Run1	observe/STIM_012.jpg
848.968	1.584	correct	observe	Run1	observe/STIM_013.jpg
852.576	1.194	correct	observe	Run1	observe/STIM_013.jpg
857.542	1.599	correct	observe	Run1	observe/STIM_013.jpg
861.377	1.125	incorrect	observe	Run1	observe/STIM_013.jpg
865.312	0.966	correct	observe	Run1	observe/STIM_014.jpg
868.412	1.304	correct	observe	Run1	observe/STIM_014.jpg
871.948	1.108	correct	observe	Run1	observe/STIM_014.jpg
874.985	0.903	correct	observe	Run1	observe/STIM_014.jpg
879.259	1.621	correct	observe	Run1	observe/STIM_015.jpg
883.81	1.343	correct	observe	Run1	observe/STIM_015.jpg
887.095	1.041	correct	observe	Run1	observe/STIM_015.jpg
890.709	1.511	correct	observe	Run1	observe/STIM_015.jpg
894.7	1.699	correct	observe	Run1	observe/STIM_016.jpg
899.548	0.906	incorrect	observe	Run1	observe/STIM_016.jpg
902.938	1.204	correct	observe	Run1	observe/STIM_016.jpg
907.138	1.451	correct	observe	Run1	observe/STIM_016.jpg
911.56	1.382	correct	observe	Run1	observe/STIM_017.jpg
915.727	1.151	correct	observe	Run1	observe/STIM_017.jpg
920.341	0.988	correct	observe	Run1	observe/STIM_017.jpg
923.92	1.078	correct	observe	Run1	observe/STIM_017.jpg
927.054	1.174	correct	observe	Run1	observe/STIM_018.jpg
931.264	1.122	correct	observe	Run1	observe/STIM_018.jpg
936.237	0.913	correct	observe	Run1	observe/STIM_018.jpg
940.149	1.46	correct	observe	Run1	observe/STIM_018.jpg
944.492	1.471	correct	observe	Run1	observe/STIM_019.jpg
948.166	1.513	incorrect	observe	Run1	observe/STIM_019.jpg
951.575	1.75	incorrect	observe	Run1	observe/STIM_019.jpg
956.936	1.144	correct	observe	Run1	observe/STIM_019.jpg
961.451	2.859	correct	regulate	Run2	regulate/STIM_000.jpg
966.488	1.708	correct	regulate	Run2	regulate/STIM_000.jpg
970.688	2.358	correct	regulate	Run2	regulate/STIM_000.jpg
975.003	2.197	correct	regulate	Run2	regulate/STIM_000.jpg
979.81	2.998	correct	regulate	Run2	regulate/STIM_001.jpg
985.517	2.192	correct	regulate	Run2	regulate/STIM_001.jpg
989.597	1.27	correct	regulate	Run2	regulate/STIM_001.jpg
993.466	2.217	correct	regulate	Run2	regulate/STIM_001.jpg
997.497	3.149	correct	regulate	Run2	regulate/STIM_002.jpg
1004.082	1.725	correct	regulate	Run2	regulate/STIM_002.jpg
1009.044	2.759	correct	regulate	Run2	regulate/STIM_002.jpg
1014.268	1.977	correct	regulate	Run2	regulate/STIM_002.jpg
1019.984	2.865	correct	regulate	Run2	regulate/STIM_003.jpg
1025.195	2.959	correct	regulate	Run2	regulate/STIM_003.jpg
1031.097	2.086	correct	regulate	Run2	regulate/STIM_003.jpg
1035.788	2.34	correct	regulate	Run2	regulate/STIM_003.jpg
1041.205	2.245	correct	regulate	Run2	regulate/STIM_004.jpg
1045.997	2.404	correct	regulate	Run2	regulate/STIM_004.jpg
1051.027	2.456	correct	regulate	Run2	regulate/STIM_004.jpg
1056.44	2.025	correct	regulate	Run2	regulate/STIM_004.jpg
1061.019	1.877	correct	regulate	Run2	regulate/STIM_005.jpg
1065.842	1.501	correct	regulate	Run2	regulate/STIM_005.jpg
1069.525	2.643	correct	regulate	Run2	regulate/STIM_005.jpg
1075.168	2.606	correct	regulate	Run2	regulate/STIM_005.jpg
1080.688	3.195	incorrect	regulate	Run2	regulate/STIM_006.jpg
1087.335	1.97	correct	regulate	Run2	regulate/STIM_006.jpg
1092.607	1.382	correct	regulate	Run2	regulate/STIM_006.jpg
1096.507	2.416	correct	regulate	Run2	regulate/STIM_006.jpg
1102.015	2.191	incorrect	regulate	Run2	regulate/STIM_007.jpg
1106.886	2.874	correct	regulate	Run2	regulate/STIM_007.jpg
1113.336	1.248	correct	regulate	Run2	regulate/STIM_007.jpg
1116.974	1.521	correct	regulate	Run2	regulate/STIM_007.jpg
1121.045	1.942	incorrect	regulate	Run2	regulate/STIM_008.jpg
1126.131	2.478	correct	regulate	Run2	regulate/STIM_008.jpg
1131.295	2.412	correct	regulate	Run2	regulate/STIM_008.jpg
1137.045	1.433	correct	regulate	Run2	regulate/STIM_008.jpg
1141.351	2.434	correct	regulate	Run2	regulate/STIM_009.jpg
1146.712	3.065	correct	regulate	Run2	regulate/STIM_009.jpg
1151.603	2.473	correct	regulate	Run2	regulate/STIM_009.jpg
1157.467	2.574	correct	regulate	Run2	regulate/STIM_009.jpg
1163.504	2.31	correct	regulate	Run2	regulate/STIM_010.jpg
1168.829	2.24	incorrect	regulate	Run2	regulate/STIM_010.jpg
1174.454	2.456	correct	regulate	Run2	regulate/STIM_010.jpg
1180.014	1.286	correct	regulate	Run2	regulate/STIM_010.jpg
1183.62	1.53	correct	regulate	Run2	regulate/STIM_011.jpg
1187.137	1.36	correct	regulate	Run2	regulate/STIM_011.jpg
1190.41	2.425	correct	regulate	Run2	regulate/STIM_011.jpg
1195.041	2.515	correct	regulate	Run2	regulate/STIM_011.jpg
1199.677	1.769	correct	regulate	Run2	regulate/STIM_012.jpg
1203.405	1.89	incorrect	regulate	Run2	regulate/STIM_012.jpg
1208.936	1.785	correct	regulate	Run2	regulate/STIM_012.jpg
1214.354	2.501	correct	regulate	Run2	regulate/STIM_012.jpg
1219.353	1.572	correct	regulate	Run2	regulate/STIM_013.jpg
1224.578	2.773	correct	regulate	Run2	regulate/STIM_013.jpg
1229.59	1.712	correct	regulate	Run2	regulate/STIM_013.jpg
1233.864	2.528	correct	regulate	Run2	regulate/STIM_013.jpg
1239.882	2.642	correct	regulate	Run2	regulate/STIM_014.jpg
1245.71	1.408	correct	regulate	Run2	regulate/STIM_014.jpg
1249.907	2.815	correct	regulate	Run2	regulate/STIM_014.jpg
1255.272	1.286	correct	regulate	Run2	regulate/STIM_014.jpg
1258.726	2.503	correct	regulate	Run2	regulate/STIM_015.jpg
1264.38	1.962	correct	regulate	Run2	regulate/STIM_015.jpg
1268.193	1.587	correct	regulate	Run2	regulate/STIM_015.jpg
1272.618	1.625	correct	regulate	Run2	regulate/STIM_015.jpg
1277.281	1.855	incorrect	regulate	Run2	regulate/STIM_016.jpg
1281.954	2.709	correct	regulate	Run2	regulate/STIM_016.jpg
1286.419	2.474	correct	regulate	Run2	regulate/STIM_016.jpg
1291.105	2.508	correct	regulate	Run2	regulate/STIM_016.jpg
1297.305	2.245	correct	regulate	Run2	regulate/STIM_017.jpg
1302.717	2.325	correct	regulate	Run2	regulate/STIM_017.jpg
1307.337	1.509	correct	regulate	Run2	regulate/STIM_017.jpg
1312.586	2.118	correct	regulate	Run2	regulate/STIM_017.jpg
1318.078	1.695	correct	regulate	Run2	regulate/STIM_018.jpg
1323.13	2.405	correct	regulate	Run2	regulate/STIM_018.jpg
1327.764	1.647	correct	regulate	Run2	regulate/STIM_018.jpg
1331.953	2.48	correct	regulate	Run2	regulate/STIM_018.jpg
1337.76	2.461	correct	regulate	Run2	regulate/STIM_019.jpg
1343.765	1.668	correct	regulate	Run2	regulate/STIM_019.jpg
1347.821	1.725	correct	regulate	Run2	regulate/STIM_019.jpg
1353.334	1.97	incorrect	regulate	Run2	regulate/STIM_019.jpg
1358.007	1.838	correct	regulate	Run2	regulate/STIM_020.jpg
1361.907	1.456	correct	regulate	Run2	regulate/STIM_020.jpg
1366.56	2.777	correct	regulate	Run2	regulate/STIM_020.jpg
1372.534	2.414	correct	regulate	Run2	regulate/STIM_020.jpg
1377.345	2.433	incorrect	regulate	Run2	regulate/STIM_021.jpg
1382.442	1.458	correct	regulate	Run2	regulate/STIM_021.jpg
1387.499	1.413	correct	regulate	Run2	regulate/STIM_021.jpg
1392.474	2.583	incorrect	regulate	Run2	regulate/STIM_021.jpg
1397.248	2.843	correct	regulate	Run2	regulate/STIM_022.jpg
1402.47	2.943	correct	regulate	Run2	regulate/STIM_022.jpg
1408.986	1.74	incorrect	regulate	Run2	regulate/STIM_022.jpg
1414.42	1.411	correct	regulate	Run2	regulate/STIM_022.jpg
1418.123	2.422	correct	regulate	Run2	regulate/STIM_023.jpg
1423.246	2.203	incorrect	regulate	Run2	regulate/STIM_023.jpg
1427.597	2.871	correct	regulate	Run2	regulate/STIM_023.jpg
1432.975	2.385	correct	regulate	Run2	regulate/STIM_023.jpg
1439.11	3.254	correct	regulate	Run2	regulate/STIM_024.jpg
1445.201	2.468	correct	regulate	Run2	regulate/STIM_024.jpg
1449.932	1.993	correct	regulate	Run2	regulate/STIM_024.jpg
1455.714	1.351	correct	regulate	Run2	regulate/STIM_024.jpg
1459.295	1.557	correct	regulate	Run2	regulate/STIM_025.jpg
1463.137	2.398	correct	regulate	Run2	regulate/STIM_025.jpg
1467.679	1.959	correct	regulate	Run2	regulate/STIM_025.jpg
1472.997	1.803	correct	regulate	Run2	regulate/STIM_025.jpg
1476.859	1.994	incorrect	regulate	Run2	regulate/STIM_026.jpg
1480.721	1.55	correct	regulate	Run2	regulate/STIM_026.jpg
1485.024	2.638	correct	regulate	Run2	regulate/STIM_026.jpg
1490.871	1.443	correct	regulate	Run2	regulate/STIM_026.jpg
1495.668	3.267	correct	regulate	Run2	regulate/STIM_027.jpg
1502.124	2.521	correct	regulate	Run2	regulate/STIM_027.jpg
1507.508	1.928	correct	regulate	Run2	regulate/STIM_027.jpg
1511.546	2.031	correct	regulate	Run2	regulate/STIM_027.jpg
1516.703	1.703	correct	regulate	Run2	regulate/STIM_028.jpg
1521.175	1.348	correct	regulate	Run2	regulate/STIM_028.jpg
1525.565	2.196	correct	regulate	Run2	regulate/STIM_028.jpg
1529.593	1.83	incorrect	regulate	Run2	regulate/STIM_028.jpg
1534.852	1.728	correct	regulate	Run2	regulate/STIM_029.jpg
1539.091	2.522	correct	regulate	Run2	regulate/STIM_029.jpg
1544.195	2.339	correct	regulate	Run2	regulate/STIM_029.jpg
1548.323	2.392	incorrect	regulate	Run2	regulate/STIM_029.jpg
1554.402	1.062	correct	observe	Run2	observe/STIM_000.jpg
1558.58	1.161	correct	observe	Run2	observe/STIM_000.jpg
1562.426	1.282	correct	observe	Run2	observe/STIM_000.jpg
1567.046	1.004	correct	observe	Run2	observe/STIM_000.jpg
1570.445	1.615	correct	observe	Run2	observe/STIM_001.jpg
1574.54	1.47	correct	observe	Run2	observe/STIM_001.jpg
1579.081	1.159	correct	observe	Run2	observe/STIM_001.jpg
1583.996	1.712	correct	observe	Run2	observe/STIM_001.jpg
1588.985	1.568	incorrect	observe	Run2	observe/STIM_002.jpg
1594.183	1.714	incorrect	observe	Run2	observe/STIM_002.jpg
1598.316	1.045	correct	observe	Run2	observe/STIM_002.jpg
1602.617	1.498	correct	observe	Run2	observe/STIM_002.jpg
1607.531	1.274	correct	observe	Run2	observe/STIM_003.jpg
1611.734	1.165	correct	observe	Run2	observe/STIM_003.jpg
1615.669	1.76	correct	observe	Run2	observe/STIM_003.jpg
1620.913	1.488	correct	observe	Run2	observe/STIM_003.jpg
1625.533	1.533	correct	observe	Run2	observe/STIM_004.jpg
1630.878	0.905	correct	observe	Run2	observe/STIM_004.jpg
1634.937	1.109	correct	observe	Run2	observe/STIM_004.jpg
1638.406	1.615	incorrect	observe	Run2	observe/STIM_004.jpg
1643.269	1.576	correct	observe	Run2	observe/STIM_005.jpg
1647.449	1.042	correct	observe	Run2	observe/STIM_005.jpg
1652.044	1.733	correct	observe	Run2	observe/STIM_005.jpg
1655.896	1.015	incorrect	observe	Run2	observe/STIM_005.jpg
1659.809	1.038	correct	observe	Run2	observe/STIM_006.jpg
1663.552	1.043	correct	observe	Run2	observe/STIM_006.jpg
1667.008	1.32	correct	observe	Run2	observe/STIM_006.jpg
1672.017	1.309	correct	observe	Run2	observe/STIM_006.jpg
1675.758	1.315	correct	observe	Run2	observe/STIM_007.jpg
1680.849	1.738	correct	observe	Run2	observe/STIM_007.jpg
1685.475	1.397	correct	observe	Run2	observe/STIM_007.jpg
1689.872	1.408	correct	observe	Run2	observe/STIM_007.jpg
1693.865	1.452	correct	observe	Run2	observe/STIM_008.jpg
1697.6	1.41	correct	observe	Run2	observe/STIM_008.jpg
1702.277	1.478	correct	observe	Run2	observe/STIM_008.jpg
1707.287	1.72	correct	observe	Run2	observe/STIM_008.jpg
1712.517	1.54	correct	observe	Run2	observe/STIM_009.jpg
1716.079	1.188	correct	observe	Run2	observe/STIM_009.jpg
1719.574	1.334	correct	observe	Run2	observe/STIM_009.jpg
1723.736	1.102	correct	observe	Run2	observe/STIM_009.jpg
1728.495	1.606	correct	observe	Run2	observe/STIM_010.jpg
1733.428	1.507	correct	observe	Run2	observe/STIM_010.jpg
1736.99	0.98	correct	observe	Run2	observe/STIM_010.jpg
1741.672	1.532	correct	observe	Run2	observe/STIM_010.jpg
1747.048	1.708	correct	observe	Run2	observe/STIM_011.jpg
1751.571	1.094	correct	observe	Run2	observe/STIM_011.jpg
1756.004	1.262	correct	observe	Run2	observe/STIM_011.jpg
1759.918	0.909	correct	observe	Run2	observe/STIM_011.jpg
1763.341	1.089	incorrect	observe	Run2	observe/STIM_012.jpg
1767.957	1.383	incorrect	observe	Run2	observe/STIM_012.jpg
1772.07	1.63	incorrect	observe	Run2	observe/STIM_012.jpg
1777.194	1.737	incorrect	observe	Run2	observe/STIM_012.jpg
1782.655	1.069	correct	observe	Run2	observe/STIM_013.jpg
1786.851	1.62	correct	observe	Run2	observe/STIM_013.jpg
1792.267	1.409	correct	observe	Run2	observe/STIM_013.jpg
1796.421	1.482	correct	observe	Run2	observe/STIM_013.jpg
1800.879	1.729	incorrect	observe	Run2	observe/STIM_014.jpg
1806.182	1.653	correct	observe	Run2	observe/STIM_014.jpg
1811.233	1.536	correct	observe	Run2	observe/STIM_014.jpg
1815.246	1.493	correct	observe	Run2	observe/STIM_014.jpg
1819.648	0.922	correct	observe	Run2	observe/STIM_015.jpg
1823.294	1.72	correct	observe	Run2	observe/STIM_015.jpg
1828.142	1.391	correct	observe	Run2	observe/STIM_015.jpg
1832.741	1.303	correct	observe	Run2	observe/STIM_015.jpg
1837.307	1.361	correct	observe	Run2	observe/STIM_016.jpg
1842.378	1.498	correct	observe	Run2	observe/STIM_016.jpg
1847.565	1.012	correct	observe	Run2	observe/STIM_016.jpg
1852.397	1.211	correct	observe	Run2	observe/STIM_016.jpg
1856.937	1.165	correct	observe	Run2	observe/STIM_017.jpg
1860.856	1.526	correct	observe	Run2	observe/STIM_017.jpg
1864.387	1.459	correct	observe	Run2	observe/STIM_017.jpg
1867.823	1.426	correct	observe	Run2	observe/STIM_017.jpg
1872.586	1.371	correct	observe	Run2	observe/STIM_018.jpg
1876.438	1.246	correct	observe	Run2	observe/STIM_018.jpg
1881.182	1.758	correct	observe	Run2	observe/STIM_018.jpg
1884.818	1.354	incorrect	observe	Run2	observe/STIM_018.jpg
1888.492	1.128	incorrect	observe	Run2	observe/STIM_019.jpg
1891.749	1.486	incorrect	observe	Run2	observe/STIM_019.jpg
1896.654	1.272	correct	observe	Run2	observe/STIM_019.jpg
1900.096	1.102	incorrect	observe	Run2	observe/STIM_019.jpg
1903.947	2.033	correct	regulate	Run3	regulate/STIM_000.jpg
1909.276	1.376	correct	regulate	Run3	regulate/STIM_000.jpg
1912.881	1.707	correct	regulate	Run3	regulate/STIM_000.jpg
1916.443	2.013	correct	regulate	Run3	regulate/STIM_000.jpg
1920.66	1.158	incorrect	regulate	Run3	regulate/STIM_001.jpg
1924.148	1.978	correct	regulate	Run3	regulate/STIM_001.jpg
1929.267	1.659	correct	regulate	Run3	regulate/STIM_001.jpg
1933.024	1.722	correct	regulate	Run3	regulate/STIM_001.jpg
1936.936	1.694	correct	regulate	Run3	regulate/STIM_002.jpg
1941.409	2.373	correct	regulate	Run3	regulate/STIM_002.jpg
1945.828	2.369	correct	regulate	Run3	regulate/STIM_002.jpg
1950.149	2.495	correct	regulate	Run3	regulate/STIM_002.jpg
1955.099	2.003	correct	regulate	Run3	regulate/STIM_003.jpg
1960.917	2.007	correct	regulate	Run3	regulate/STIM_003.jpg
1966.318	1.283	correct	regulate	Run3	regulate/STIM_003.jpg
1969.821	1.7	correct	regulate	Run3	regulate/STIM_003.jpg
1974.599	1.21	correct	regulate	Run3	regulate/STIM_004.jpg
1979.662	1.271	correct	regulate	Run3	regulate/STIM_004.jpg
1982.92	1.383	correct	regulate	Run3	regulate/STIM_004.jpg
1987.219	1.247	correct	regulate	Run3	regulate/STIM_004.jpg
1991.543	1.468	correct	regulate	Run3	regulate/STIM_005.jpg
1996.704	1.282	correct	regulate	Run3	regulate/STIM_005.jpg
2000.625	2.445	correct	regulate	Run3	regulate/STIM_005.jpg
2005.156	2.431	correct	regulate	Run3	regulate/STIM_005.jpg
2010.342	2.046	correct	regulate	Run3	regulate/STIM_006.jpg
2015.543	2.47	correct	regulate	Run3	regulate/STIM_006.jpg
2021.439	1.743	incorrect	regulate	Run3	regulate/STIM_006.jpg
2025.159	1.499	correct	regulate	Run3	regulate/STIM_006.jpg
2028.757	2.663	correct	regulate	Run3	regulate/STIM_007.jpg
2033.718	1.306	correct	regulate	Run3	regulate/STIM_007.jpg
2038.75	2.585	correct	regulate	Run3	regulate/STIM_007.jpg
2044.266	2.262	correct	regulate	Run3	regulate/STIM_007.jpg
2049.207	1.183	correct	regulate	Run3	regulate/STIM_008.jpg
2053.656	1.699	correct	regulate	Run3	regulate/STIM_008.jpg
2057.92	1.442	correct	regulate	Run3	regulate/STIM_008.jpg
2061.923	1.363	correct	regulate	Run3	regulate/STIM_008.jpg
2066.106	2.583	correct	regulate	Run3	regulate/STIM_009.jpg
2070.788	2.063	correct	regulate	Run3	regulate/STIM_009.jpg
2075.079	1.953	correct	regulate	Run3	regulate/STIM_009.jpg
2080.549	2.149	correct	regulate	Run3	regulate/STIM_009.jpg
2085.949	1.458	correct	regulate	Run3	regulate/STIM_010.jpg
2091.252	2.462	correct	regulate	Run3	regulate/STIM_010.jpg
2096.876	2.047	correct	regulate	Run3	regulate/STIM_010.jpg
2101.249	1.953	correct	regulate	Run3	regulate/STIM_010.jpg
2106.607	1.488	correct	regulate	Run3	regulate/STIM_011.jpg
2110.966	2.034	correct	regulate	Run3	regulate/STIM_011.jpg
2116.637	2.192	correct	regulate	Run3	regulate/STIM_011.jpg
2121.687	2.396	correct	regulate	Run3	regulate/STIM_011.jpg
2126.26	1.298	incorrect	regulate	Run3	regulate/STIM_012.jpg
2129.837	2.499	correct	regulate	Run3	regulate/STIM_012.jpg
2134.718	2.174	correct	regulate	Run3	regulate/STIM_012.jpg
2140.466	1.768	correct	regulate	Run3	regulate/STIM_012.jpg
2144.181	2.078	correct	regulate	Run3	regulate/STIM_013.jpg
2148.353	1.252	correct	regulate	Run3	regulate/STIM_013.jpg
2153.148	2.494	correct	regulate	Run3	regulate/STIM_013.jpg
2158.411	2.513	correct	regulate	Run3	regulate/STIM_013.jpg
2163.347	2.546	correct	regulate	Run3	regulate/STIM_014.jpg
2169.029	1.679	correct	regulate	Run3	regulate/STIM_014.jpg
2173.529	1.318	correct	regulate	Run3	regulate/STIM_014.jpg
2177.74	2.105	correct	regulate	Run3	regulate/STIM_014.jpg
2182.511	1.625	correct	regulate	Run3	regulate/STIM_015.jpg
2187.278	2.473	correct	regulate	Run3	regulate/STIM_015.jpg
2192.512	1.81	correct	regulate	Run3	regulate/STIM_015.jpg
2196.912	1.827	correct	regulate	Run3	regulate/STIM_015.jpg
2202.119	2.088	correct	regulate	Run3	regulate/STIM_016.jpg
2207.812	1.381	correct	regulate	Run3	regulate/STIM_016.jpg
2212.654	1.84	correct	regulate	Run3	regulate/STIM_016.jpg
2216.969	1.696	correct	regulate	Run3	regulate/STIM_016.jpg
2220.879	1.635	correct	regulate	Run3	regulate/STIM_017.jpg
2225.373	1.591	correct	regulate	Run3	regulate/STIM_017.jpg
2229.643	2.095	correct	regulate	Run3	regulate/STIM_017.jpg
2235.495	2.663	correct	regulate	Run3	regulate/STIM_017.jpg
2240.401	2.541	correct	regulate	Run3	regulate/STIM_018.jpg
2244.813	2.396	correct	regulate	Run3	regulate/STIM_018.jpg
2250.088	2.084	correct	regulate	Run3	regulate/STIM_018.jpg
2255.124	1.167	correct	regulate	Run3	regulate/STIM_018.jpg
2259.507	2.431	incorrect	regulate	Run3	regulate/STIM_019.jpg
2264.132	2.193	correct	regulate	Run3	regulate/STIM_019.jpg
2268.192	1.61	correct	regulate	Run3	regulate/STIM_019.jpg
2273.568	2.386	correct	regulate	Run3	regulate/STIM_019.jpg
2278.371	1.861	correct	regulate	Run3	regulate/STIM_020.jpg
2282.643	1.471	correct	regulate	Run3	regulate/STIM_020.jpg
2287.041	1.661	correct	regulate	Run3	regulate/STIM_020.jpg
2290.879	1.338	correct	regulate	Run3	regulate/STIM_020.jpg
2295.509	2.646	correct	regulate	Run3	regulate/STIM_021.jpg
2301.544	2.078	correct	regulate	Run3	regulate/STIM_021.jpg
2307.308	2.653	correct	regulate	Run3	regulate/STIM_021.jpg
2312.72	1.383	correct	regulate	Run3	regulate/STIM_021.jpg
2317.049	1.679	correct	regulate	Run3	regulate/STIM_022.jpg
2322.339	2.502	correct	regulate	Run3	regulate/STIM_022.jpg
2327.652	1.757	correct	regulate	Run3	regulate/STIM_022.jpg
2332.733	2.335	correct	regulate	Run3	regulate/STIM_022.jpg
2338.061	2.659	correct	regulate	Run3	regulate/STIM_023.jpg
2344.468	2.176	correct	regulate	Run3	regulate/STIM_023.jpg
2350.173	2.374	correct	regulate	Run3	regulate/STIM_023.jpg
2354.556	2.236	correct	regulate	Run3	regulate/STIM_023.jpg
2359.46	2.15	correct	regulate	Run3	regulate/STIM_024.jpg
2364.487	1.691	correct	regulate	Run3	regulate/STIM_024.jpg
2369.688	2.452	correct	regulate	Run3	regulate/STIM_024.jpg
2374.917	2.206	correct	regulate	Run3	regulate/STIM_024.jpg
2380.735	1.863	correct	regulate	Run3	regulate/STIM_025.jpg
2386.167	1.503	correct	regulate	Run3	regulate/STIM_025.jpg
2390.843	1.402	correct	regulate	Run3	regulate/STIM_025.jpg
2395.06	1.299	correct	regulate	Run3	regulate/STIM_025.jpg
2398.488	2.573	correct	regulate	Run3	regulate/STIM_026.jpg
2404.771	1.626	incorrect	regulate	Run3	regulate/STIM_026.jpg
2409.815	2.238	correct	regulate	Run3	regulate/STIM_026.jpg
2415.41	1.517	correct	regulate	Run3	regulate/STIM_026.jpg
2420.433	2.683	correct	regulate	Run3	regulate/STIM_027.jpg
2426.674	1.772	correct	regulate	Run3	regulate/STIM_027.jpg
2431.092	2.626	correct	regulate	Run3	regulate/STIM_027.jpg
2437.414	1.179	correct	regulate	Run3	regulate/STIM_027.jpg
2441.141	1.307	correct	regulate	Run3	regulate/STIM_028.jpg
2444.42	1.981	correct	regulate	Run3	regulate/STIM_028.jpg
2449.221	2.534	correct	regulate	Run3	regulate/STIM_028.jpg
2454.874	1.654	correct	regulate	Run3	regulate/STIM_028.jpg
2458.392	1.958	correct	regulate	Run3	regulate/STIM_029.jpg
2463.894	2.388	correct	regulate	Run3	regulate/STIM_029.jpg
2470.009	2.352	correct	regulate	Run3	regulate/STIM_029.jpg
2476.061	2.635	correct	regulate	Run3	regulate/STIM_029.jpg
2480.997	1.674	correct	observe	Run3	observe/STIM_000.jpg
2485.848	1.236	incorrect	observe	Run3	observe/STIM_000.jpg
2489.573	1.65	incorrect	observe	Run3	observe/STIM_000.jpg
2493.412	1.122	correct	observe	Run3	observe/STIM_000.jpg
2497.751	1.687	correct	observe	Run3	observe/STIM_001.jpg
2501.552	1.72	correct	observe	Run3	observe/STIM_001.jpg
2506.522	1.641	correct	observe	Run3	observe/STIM_001.jpg
2511.7	1.666	correct	observe	Run3	observe/STIM_001.jpg
2516.806	1.515	correct	observe	Run3	observe/STIM_002.jpg
2521.053	1.52	correct	observe	Run3	observe/STIM_002.jpg
2526.425	1.381	correct	observe	Run3	observe/STIM_002.jpg
2530.907	1.514	correct	observe	Run3	observe/STIM_002.jpg
2536.257	1.022	correct	observe	Run3	observe/STIM_003.jpg
2540.443	1.561	correct	observe	Run3	observe/STIM_003.jpg
2544.203	1.083	correct	observe	Run3	observe/STIM_003.jpg
2547.972	1.214	correct	observe	Run3	observe/STIM_003.jpg
2551.23	1.571	correct	observe	Run3	observe/STIM_004.jpg
2556.102	1.222	incorrect	observe	Run3	observe/STIM_004.jpg
2560.758	1.052	correct	observe	Run3	observe/STIM_004.jpg
2565.467	1.013	incorrect	observe	Run3	observe/STIM_004.jpg
2570.361	1.729	incorrect	observe	Run3	observe/STIM_005.jpg
2575.351	1.492	correct	observe	Run3	observe/STIM_005.jpg
2580.483	1.502	correct	observe	Run3	observe/STIM_005.jpg
2584.651	1.431	correct	observe	Run3	observe/STIM_005.jpg
2589.169	1.508	correct	observe	Run3	observe/STIM_006.jpg
2592.645	1.296	correct	observe	Run3	observe/STIM_006.jpg
2596.314	1.122	correct	observe	Run3	observe/STIM_006.jpg
2601.3	1.14	correct	observe	Run3	observe/STIM_006.jpg
2605.322	1.12	correct	observe	Run3	observe/STIM_007.jpg
2609.948	1.345	correct	observe	Run3	observe/STIM_007.jpg
2614.411	0.957	correct	observe	Run3	observe/STIM_007.jpg
2618.816	1.429	correct	observe	Run3	observe/STIM_007.jpg
2623.494	1.117	correct	observe	Run3	observe/STIM_008.jpg
2628.2	1.268	correct	observe	Run3	observe/STIM_008.jpg
2632.134	1.537	incorrect	observe	Run3	observe/STIM_008.jpg
2636.559	1.558	incorrect	observe	Run3	observe/STIM_008.jpg
2640.551	1.492	correct	observe	Run3	observe/STIM_009.jpg
2644.229	1.268	correct	observe	Run3	observe/STIM_009.jpg
2647.416	1.023	correct	observe	Run3	observe/STIM_009.jpg
2650.998	1.679	correct	observe	Run3	observe/STIM_009.jpg
2655.76	1.311	correct	observe	Run3	observe/STIM_010.jpg
2659.343	1.26	correct	observe	Run3	observe/STIM_010.jpg
2663.565	0.997	correct	observe	Run3	observe/STIM_010.jpg
2666.691	1.237	correct	observe	Run3	observe/STIM_010.jpg
2669.826	1.515	correct	observe	Run3	observe/STIM_011.jpg
2673.653	0.994	incorrect	observe	Run3	observe/STIM_011.jpg
2676.751	1.336	correct	observe	Run3	observe/STIM_011.jpg
2681.427	1.249	incorrect	observe	Run3	observe/STIM_011.jpg
2686.379	1.137	correct	observe	Run3	observe/STIM_012.jpg
2689.862	1.236	correct	observe	Run3	observe/STIM_012.jpg
2694.148	1.724	correct	observe	Run3	observe/STIM_012.jpg
2698.116	1.391	correct	observe	Run3	observe/STIM_012.jpg
2701.506	1.717	correct	observe	Run3	observe/STIM_013.jpg
2705.518	1.66	correct	observe	Run3	observe/STIM_013.jpg
2709.027	1.328	correct	observe	Run3	observe/STIM_013.jpg
2713.559	1.015	correct	observe	Run3	observe/STIM_013.jpg
2718.231	1.107	correct	observe	Run3	observe/STIM_014.jpg
2722.736	1.552	correct	observe	Run3	observe/STIM_014.jpg
2727.79	1.567	correct	observe	Run3	observe/STIM_014.jpg
2732.163	1.113	correct	observe	Run3	observe/STIM_014.jpg
2736.724	0.987	correct	observe	Run3	observe/STIM_015.jpg
2741.183	1.092	correct	observe	Run3	observe/STIM_015.jpg
2745.23	1.041	correct	observe	Run3	observe/STIM_015.jpg
2749.78	1.444	correct	observe	Run3	observe/STIM_015.jpg
2755.012	1.149	correct	observe	Run3	observe/STIM_016.jpg
2759.938	1.066	correct	observe	Run3	observe/STIM_016.jpg
2764.798	0.973	correct	observe	Run3	observe/STIM_016.jpg
2767.974	1.039	correct	observe	Run3	observe/STIM_016.jpg
2772.389	0.965	correct	observe	Run3	observe/STIM_017.jpg
2776.875	0.93	incorrect	observe	Run3	observe/STIM_017.jpg
2781.177	1.21	correct	observe	Run3	observe/STIM_017.jpg
2785.844	1.694	correct	observe	Run3	observe/STIM_017.jpg
2790.995	1.318	correct	observe	Run3	observe/STIM_018.jpg
2796.038	1.617	correct	observe	Run3	observe/STIM_018.jpg
2799.886	1.036	correct	observe	Run3	observe/STIM_018.jpg
2804.537	1.201	correct	observe	Run3	observe/STIM_018.jpg
2808.333	1.564	correct	observe	Run3	observe/STIM_019.jpg
2812.202	1.735	correct	observe	Run3	observe/STIM_019.jpg
2816.531	1.441	incorrect	observe	Run3	observe/STIM_019.jpg
2820.6	0.934	correct	observe	Run3	observe/STIM_019.jpg
