onset	duration	response_time_ms	trial_type	learning_stage	stimulus	response_port
0.0	1.908	1907.7	regulate	Run1	regulate/STIM_000.jpg	100
3.987	2.112	2112.1	regulate	Run1	regulate/STIM_000.jpg	100
9.657	1.546	1546.4	regulate	Run1	regulate/STIM_000.jpg	99
14.111	1.341	1340.6	regulate	Run1	regulate/STIM_000.jpg	99
19.378	2.34	2340.0	regulate	Run1	regulate/STIM_001.jpg	99
24.542	2.857	2856.8	regulate	Run1	regulate/STIM_001.jpg	100
29.834	2.937	2936.6	regulate	Run1	regulate/STIM_001.jpg	100
35.613	2.216	2215.7	regulate	Run1	regulate/STIM_001.jpg	100
41.562	2.293	2292.9	regulate	Run1	regulate/STIM_002.jpg	100
46.488	2.263	2263.4	regulate	Run1	regulate/STIM_002.jpg	99
52.496	2.425	2425.4	regulate	Run1	regulate/STIM_002.jpg	99
58.647	2.238	2238.2	regulate	Run1	regulate/STIM_002.jpg	99
63.761	3.023	3023.2	regulate	Run1	regulate/STIM_003.jpg	99
69.901	1.969	1969.0	regulate	Run1	regulate/STIM_003.jpg	100
75.524	2.638	2638.5	regulate	Run1	regulate/STIM_003.jpg	99
80.813	1.948	1948.2	regulate	Run1	regulate/STIM_003.jpg	99
85.973	2.476	2475.9	regulate	Run1	regulate/STIM_004.jpg	100
91.524	2.291	2291.1	regulate	Run1	regulate/STIM_004.jpg	100
96.213	1.482	1482.2	regulate	Run1	regulate/STIM_004.jpg	100
100.796	2.461	2461.3	regulate	Run1	regulate/STIM_004.jpg	100
106.771	2.116	2116.0	regulate	Run1	regulate/STIM_005.jpg	99
112.019	1.643	1643.0	regulate	Run1	regulate/STIM_005.jpg	100
117.009	2.164	2163.8	regulate	Run1	regulate/STIM_005.jpg	99
122.808	2.108	2108.3	regulate	Run1	regulate/STIM_005.jpg	99
127.274	2.889	2889.2	regulate	Run1	regulate/STIM_006.jpg	100
132.41	3.241	3240.8	regulate	Run1	regulate/STIM_006.jpg	100
139.225	2.976	2976.1	regulate	Run1	regulate/STIM_006.jpg	99
145.204	2.126	2125.9	regulate	Run1	regulate/STIM_006.jpg	99
151.374	3.323	3323.0	regulate	Run1	regulate/STIM_007.jpg	99
156.69	3.033	3033.0	regulate	Run1	regulate/STIM_007.jpg	100
163.425	1.6	1599.6	regulate	Run1	regulate/STIM_007.jpg	100
168.789	2.006	2005.6	regulate	Run1	regulate/STIM_007.jpg	100
174.282	3.021	3020.7	regulate	Run1	regulate/STIM_008.jpg	99
179.592	1.854	1853.8	regulate	Run1	regulate/STIM_008.jpg	100
184.167	1.7	1699.6	regulate	Run1	regulate/STIM_008.jpg	100
188.387	2.084	2084.5	regulate	Run1	regulate/STIM_008.jpg	100
194.27	2.279	2279.3	regulate	Run1	regulate/STIM_009.jpg	99
198.997	3.041	3041.2	regulate	Run1	regulate/STIM_009.jpg	99
205.618	2.687	2687.2	regulate	Run1	regulate/STIM_009.jpg	100
210.465	2.791	2790.9	regulate	Run1	regulate/STIM_009.jpg	99
216.074	3.269	3268.9	regulate	Run1	regulate/STIM_010.jpg	100
221.862	1.57	1569.5	regulate	Run1	regulate/STIM_010.jpg	100
225.63	1.7	1699.6	regulate	Run1	regulate/STIM_010.jpg	100
230.72	2.454	2454.4	regulate	Run1	regulate/STIM_010.jpg	99
237.018	2.797	2797.2	regulate	Run1	regulate/STIM_011.jpg	99
242.651	2.011	2010.9	regulate	Run1	regulate/STIM_011.jpg	100
248.154	2.251	2251.1	regulate	Run1	regulate/STIM_011.jpg	100
252.363	2.773	2773.1	regulate	Run1	regulate/STIM_011.jpg	100
257.286	3.103	3102.9	regulate	Run1	regulate/STIM_012.jpg	100
262.691	1.812	1812.0	regulate	Run1	regulate/STIM_012.jpg	100
268.348	3.12	3119.7	regulate	Run1	regulate/STIM_012.jpg	99
275.248	2.086	2085.8	regulate	Run1	regulate/STIM_012.jpg	100
280.413	1.78	1779.5	regulate	Run1	regulate/STIM_013.jpg	100
285.52	1.689	1688.6	regulate	Run1	regulate/STIM_013.jpg	99
289.54	2.654	2654.1	regulate	Run1	regulate/STIM_013.jpg	100
295.423	2.191	2191.0	regulate	Run1	regulate/STIM_013.jpg	99
299.727	2.722	2722.3	regulate	Run1	regulate/STIM_014.jpg	100
306.09	2.34	2340.3	regulate	Run1	regulate/STIM_014.jpg	100
311.107	3.152	3151.6	regulate	Run1	regulate/STIM_014.jpg	100
316.374	2.953	2952.6	regulate	Run1	regulate/STIM_014.jpg	100
321.837	1.911	1910.9	regulate	Run1	regulate/STIM_015.jpg	99
326.881	2.171	2170.7	regulate	Run1	regulate/STIM_015.jpg	99
332.254	2.756	2756.3	regulate	Run1	regulate/STIM_015.jpg	99
337.504	2.084	2084.0	regulate	Run1	regulate/STIM_015.jpg	100
342.584	3.319	3318.8	regulate	Run1	regulate/STIM_016.jpg	99
349.594	2.193	2192.6	regulate	Run1	regulate/STIM_016.jpg	100
353.75	2.88	2879.5	regulate	Run1	regulate/STIM_016.jpg	100
359.656	1.507	1506.6	regulate	Run1	regulate/STIM_016.jpg	99
364.591	3.256	3256.3	regulate	Run1	regulate/STIM_017.jpg	99
371.071	3.179	3179.0	regulate	Run1	regulate/STIM_017.jpg	100
376.334	1.889	1889.1	regulate	Run1	regulate/STIM_017.jpg	100
380.778	2.173	2173.0	regulate	Run1	regulate/STIM_017.jpg	99
386.442	2.167	2167.4	regulate	Run1	regulate/STIM_018.jpg	100
390.509	1.795	1794.8	regulate	Run1	regulate/STIM_018.jpg	100
395.668	2.346	2345.9	regulate	Run1	regulate/STIM_018.jpg	99
400.314	1.508	1508.4	regulate	Run1	regulate/STIM_018.jpg	99
404.378	3.175	3175.4	regulate	Run1	regulate/STIM_019.jpg	99
409.975	1.699	1699.1	regulate	Run1	regulate/STIM_019.jpg	99
414.801	1.852	1851.6	regulate	Run1	regulate/STIM_019.jpg	99
419.763	2.281	2280.7	regulate	Run1	regulate/STIM_019.jpg	99
425.305	2.747	2746.7	regulate	Run1	regulate/STIM_020.jpg	99
431.029	2.349	2349.0	regulate	Run1	regulate/STIM_020.jpg	99
437.196	1.973	1972.7	regulate	Run1	regulate/STIM_020.jpg	99
442.584	2.627	2627.4	regulate	Run1	regulate/STIM_020.jpg	100
448.91	2.482	2482.4	regulate	Run1	regulate/STIM_021.jpg	100
455.067	1.548	1548.2	regulate	Run1	regulate/STIM_021.jpg	100
460.487	2.494	2494.5	regulate	Run1	regulate/STIM_021.jpg	100
466.739	2.966	2966.4	regulate	Run1	regulate/STIM_021.jpg	100
471.629	3.036	3035.8	regulate	Run1	regulate/STIM_022.jpg	99
477.457	3.218	3218.1	regulate	Run1	regulate/STIM_022.jpg	100
483.687	2.536	2536.2	regulate	Run1	regulate/STIM_022.jpg	99
488.392	2.105	2105.3	regulate	Run1	regulate/STIM_022.jpg	99
493.404	2.845	2844.6	regulate	Run1	regulate/STIM_023.jpg	99
499.956	2.001	2001.0	regulate	Run1	regulate/STIM_023.jpg	100
505.661	1.755	1755.3	regulate	Run1	regulate/STIM_023.jpg	100
509.58	2.167	2167.2	regulate	Run1	regulate/STIM_023.jpg	99
513.96	3.474	3473.5	regulate	Run1	regulate/STIM_024.jpg	100
519.903	2.997	2997.4	regulate	Run1	regulate/STIM_024.jpg	100
526.601	2.411	2410.9	regulate	Run1	regulate/STIM_024.jpg	100
532.029	1.562	1562.3	regulate	Run1	regulate/STIM_024.jpg	99
536.823	3.117	3117.2	regulate	Run1	regulate/STIM_025.jpg	99
543.06	2.217	2217.1	regulate	Run1	regulate/STIM_025.jpg	100
549.189	2.528	2528.0	regulate	Run1	regulate/STIM_025.jpg	100
555.049	2.208	2207.6	regulate	Run1	regulate/STIM_025.jpg	100
560.815	2.135	2134.6	regulate	Run1	regulate/STIM_026.jpg	99
566.246	1.697	1696.9	regulate	Run1	regulate/STIM_026.jpg	100
571.771	2.937	2937.2	regulate	Run1	regulate/STIM_026.jpg	100
578.402	2.969	2968.9	regulate	Run1	regulate/STIM_026.jpg	99
584.568	1.602	1602.3	regulate	Run1	regulate/STIM_027.jpg	100
588.807	2.226	2226.5	regulate	Run1	regulate/STIM_027.jpg	100
593.085	1.796	1795.6	regulate	Run1	regulate/STIM_027.jpg	100
597.713	2.442	2442.4	regulate	Run1	regulate/STIM_027.jpg	99
603.079	2.565	2565.2	regulate	Run1	regulate/STIM_028.jpg	99
609.216	2.764	2763.8	regulate	Run1	regulate/STIM_028.jpg	100
615.563	2.844	2844.1	regulate	Run1	regulate/STIM_028.jpg	100
620.512	2.991	2990.6	regulate	Run1	regulate/STIM_028.jpg	100
626.504	1.947	1946.9	regulate	Run1	regulate/STIM_029.jpg	100
630.634	3.029	3028.6	regulate	Run1	regulate/STIM_029.jpg	100
636.411	1.714	1713.8	regulate	Run1	regulate/STIM_029.jpg	100
640.901	2.754	2753.9	regulate	Run1	regulate/STIM_029.jpg	99
647.392	1.166	1166.0	observe	Run1	observe/STIM_000.jpg	99
650.859	0.979	979.0	observe	Run1	observe/STIM_000.jpg	100
655.697	0.935	935.3	observe	Run1	observe/STIM_000.jpg	100
659.457	0.936	936.4	observe	Run1	observe/STIM_000.jpg	100
662.562	0.973	972.6	observe	Run1	observe/STIM_001.jpg	100
667.407	1.274	1274.3	observe	Run1	observe/STIM_001.jpg	99
671.701	1.369	1369.3	observe	Run1	observe/STIM_001.jpg	99
676.734	1.26	1260.2	observe	Run1	observe/STIM_001.jpg	100
680.941	1.261	1261.4	observe	Run1	observe/STIM_002.jpg	100
686.152	1.478	1478.1	observe	Run1	observe/STIM_002.jpg	99
689.783	1.291	1290.9	observe	Run1	observe/STIM_002.jpg	99
693.615	1.084	1084.1	observe	Run1	observe/STIM_002.jpg	99
698.19	1.575	1575.0	observe	Run1	observe/STIM_003.jpg	99
702.687	1.078	1078.5	observe	Run1	observe/STIM_003.jpg	99
706.788	1.121	1121.1	observe	Run1	observe/STIM_003.jpg	100
710.838	1.176	1175.9	observe	Run1	observe/STIM_003.jpg	99
715.112	1.034	1034.2	observe	Run1	observe/STIM_004.jpg	99
718.927	1.654	1653.9	observe	Run1	observe/STIM_004.jpg	99
724.245	1.015	1014.8	observe	Run1	observe/STIM_004.jpg	100
727.731	1.35	1349.7	observe	Run1	observe/STIM_004.jpg	99
732.856	0.957	956.8	observe	Run1	observe/STIM_005.jpg	99
737.298	0.899	899.4	observe	Run1	observe/STIM_005.jpg	99
740.359	1.425	1425.2	observe	Run1	observe/STIM_005.jpg	99
744.697	1.381	1381.0	observe	Run1	observe/STIM_005.jpg	99
748.814	1.292	1292.5	observe	Run1	observe/STIM_006.jpg	100
752.555	1.105	1105.3	observe	Run1	observe/STIM_006.jpg	100
756.957	1.644	1644.1	observe	Run1	observe/STIM_006.jpg	99
761.13	1.443	1442.6	observe	Run1	observe/STIM_006.jpg	99
764.902	0.993	992.6	observe	Run1	observe/STIM_007.jpg	99
768.767	1.382	1382.5	observe	Run1	observe/STIM_007.jpg	100
772.894	1.247	1246.6	observe	Run1	observe/STIM_007.jpg	100
778.0	1.193	1192.7	observe	Run1	observe/STIM_007.jpg	100
782.794	0.798	797.8	observe	Run1	observe/STIM_008.jpg	100
786.382	0.989	988.6	observe	Run1	observe/STIM_008.jpg	99
791.378	1.235	1234.8	observe	Run1	observe/STIM_008.jpg	99
796.513	1.338	1337.8	observe	Run1	observe/STIM_008.jpg	99
800.299	1.186	1186.2	observe	Run1	observe/STIM_009.jpg	100
803.586	1.09	1090.3	observe	Run1	observe/STIM_009.jpg	99
807.441	1.363	1362.7	observe	Run1	observe/STIM_009.jpg	100
812.619	1.389	1389.1	observe	Run1	observe/STIM_009.jpg	99
817.442	0.781	781.0	observe	Run1	observe/STIM_010.jpg	99
820.464	0.935	935.0	observe	Run1	observe/STIM_010.jpg	99
824.364	1.007	1006.9	observe	Run1	observe/STIM_010.jpg	99
827.862	1.124	1124.2	observe	Run1	observe/STIM_010.jpg	100
832.672	1.319	1318.7	observe	Run1	observe/STIM_011.jpg	99
836.373	1.293	1292.9	observe	Run1	observe/STIM_011.jpg	99
840.604	1.23	1230.3	observe	Run1	observe/STIM_011.jpg	99
844.787	1.334	1334.2	observe	Run1	observe/STIM_011.jpg	99
849.928	1.332	1331.6	observe	Run1	observe/STIM_012.jpg	100
853.624	1.395	1394.8	observe	Run1	observe/STIM_012.jpg	99
858.548	1.457	1456.7	observe	Run1	observe/STIM_012.jpg	100
862.053	1.363	1362.8	observe	Run1	observe/STIM_012.jpg	99
867.191	1.621	1621.1	observe	Run1	observe/STIM_013.jpg	99
872.339	1.142	1141.5	observe	Run1	observe/STIM_013.jpg	100
876.718	0.892	891.6	observe	Run1	observe/STIM_013.jpg	99
880.113	1.482	1482.3	observe	Run1	observe/STIM_013.jpg	100
884.437	1.355	1355.0	observe	Run1	observe/STIM_014.jpg	99
888.85	1.139	1138.6	observe	Run1	observe/STIM_014.jpg	100
892.538	1.347	1346.8	observe	Run1	observe/STIM_014.jpg	100
895.89	1.003	1002.8	observe	Run1	observe/STIM_014.jpg	99
898.856	0.968	968.1	observe	Run1	observe/STIM_015.jpg	100
902.48	1.268	1268.3	observe	Run1	observe/STIM_015.jpg	99
907.265	0.829	828.6	observe	Run1	observe/STIM_015.jpg	99
911.386	1.158	1157.5	observe	Run1	observe/STIM_015.jpg	100
915.078	1.159	1159.4	observe	Run1	observe/STIM_016.jpg	99
919.633	1.681	1680.8	observe	Run1	observe/STIM_016.jpg	99
925.013	0.95	950.2	observe	Run1	observe/STIM_016.jpg	100
928.031	1.077	1077.4	observe	Run1	observe/STIM_016.jpg	100
931.595	1.065	1065.0	observe	Run1	observe/STIM_017.jpg	100
936.083	1.564	1564.2	observe	Run1	observe/STIM_017.jpg	99
941.196	0.982	981.8	observe	Run1	observe/STIM_017.jpg	99
945.379	1.348	1347.8	observe	Run1	observe/STIM_017.jpg	99
949.88	1.507	1507.0	observe	Run1	observe/STIM_018.jpg	100
954.614	1.061	1061.0	observe	Run1	observe/STIM_018.jpg	100
957.921	1.084	1083.7	observe	Run1	observe/STIM_018.jpg	99
962.344	1.248	1248.2	observe	Run1	observe/STIM_018.jpg	99
965.965	1.13	1129.5	observe	Run1	observe/STIM_019.jpg	100
970.915	1.378	1378.5	observe	Run1	observe/STIM_019.jpg	100
974.335	1.265	1265.3	observe	Run1	observe/STIM_019.jpg	100
979.59	1.127	1127.1	observe	Run1	observe/STIM_019.jpg	99
983.516	2.653	2652.7	regulate	Run2	regulate/STIM_000.jpg	100
989.267	2.395	2394.9	regulate	Run2	regulate/STIM_000.jpg	100
994.107	2.138	2138.1	regulate	Run2	regulate/STIM_000.jpg	99
999.6	2.315	2314.9	regulate	Run2	regulate/STIM_000.jpg	99
1005.592	2.98	2980.1	regulate	Run2	regulate/STIM_001.jpg	99
1012.204	2.473	2472.6	regulate	Run2	regulate/STIM_001.jpg	99
1016.749	2.566	2566.3	regulate	Run2	regulate/STIM_001.jpg	100
1021.471	1.68	1680.2	regulate	Run2	regulate/STIM_001.jpg	100
1026.814	2.031	2030.6	regulate	Run2	regulate/STIM_002.jpg	100
1030.879	2.536	2536.2	regulate	Run2	regulate/STIM_002.jpg	100
1035.602	1.595	1594.7	regulate	Run2	regulate/STIM_002.jpg	99
1039.467	1.277	1276.6	regulate	Run2	regulate/STIM_002.jpg	99
1043.025	2.098	2098.2	regulate	Run2	regulate/STIM_003.jpg	99
1047.458	1.192	1191.9	regulate	Run2	regulate/STIM_003.jpg	100
1052.462	1.607	1607.3	regulate	Run2	regulate/STIM_003.jpg	100
1057.329	1.927	1927.3	regulate	Run2	regulate/STIM_003.jpg	100
1061.593	2.744	2744.2	regulate	Run2	regulate/STIM_004.jpg	99
1066.896	1.774	1773.9	regulate	Run2	regulate/STIM_004.jpg	100
1071.53	2.027	2026.6	regulate	Run2	regulate/STIM_004.jpg	100
1076.323	1.884	1884.1	regulate	Run2	regulate/STIM_004.jpg	99
1081.807	2.455	2455.1	regulate	Run2	regulate/STIM_005.jpg	100
1086.784	1.724	1724.1	regulate	Run2	regulate/STIM_005.jpg	99
1090.943	2.337	2336.7	regulate	Run2	regulate/STIM_005.jpg	100
1096.605	2.262	2262.4	regulate	Run2	regulate/STIM_005.jpg	99
1101.535	1.515	1514.9	regulate	Run2	regulate/STIM_006.jpg	99
1106.435	1.447	1447.1	regulate	Run2	regulate/STIM_006.jpg	99
1110.299	1.696	1696.4	regulate	Run2	regulate/STIM_006.jpg	99
1114.143	1.732	1731.7	regulate	Run2	regulate/STIM_006.jpg	99
1118.418	2.823	2823.3	regulate	Run2	regulate/STIM_007.jpg	99
1124.579	1.986	1986.1	regulate	Run2	regulate/STIM_007.jpg	99
1128.7	1.526	1525.6	regulate	Run2	regulate/STIM_007.jpg	100
1133.304	1.498	1498.4	regulate	Run2	regulate/STIM_007.jpg	99
1137.973	2.145	2145.2	regulate	Run2	regulate/STIM_008.jpg	100
1143.99	2.055	2055.3	regulate	Run2	regulate/STIM_008.jpg	100
1148.887	2.592	2592.0	regulate	Run2	regulate/STIM_008.jpg	99
1154.572	1.413	1413.3	regulate	Run2	regulate/STIM_008.jpg	100
1158.571	1.988	1988.0	regulate	Run2	regulate/STIM_009.jpg	100
1164.422	1.778	1777.9	regulate	Run2	regulate/STIM_009.jpg	99
1168.642	1.845	1844.8	regulate	Run2	regulate/STIM_009.jpg	100
1173.842	2.065	2065.3	regulate	Run2	regulate/STIM_009.jpg	100
1179.807	1.378	1378.1	regulate	Run2	regulate/STIM_010.jpg	100
1184.714	1.665	1665.3	regulate	Run2	regulate/STIM_010.jpg	99
1188.447	1.797	1797.0	regulate	Run2	regulate/STIM_010.jpg	99
1192.843	2.352	2352.5	regulate	Run2	regulate/STIM_010.jpg	99
1198.588	1.498	1497.7	regulate	Run2	regulate/STIM_011.jpg	100
1203.971	1.383	1382.7	regulate	Run2	regulate/STIM_011.jpg	99
1207.958	1.2	1199.6	regulate	Run2	regulate/STIM_011.jpg	99
1211.199	1.376	1376.5	regulate	Run2	regulate/STIM_011.jpg	100
1216.216	2.488	2487.6	regulate	Run2	regulate/STIM_012.jpg	99
1221.537	2.301	2300.7	regulate	Run2	regulate/STIM_012.jpg	99
1227.661	2.113	2113.0	regulate	Run2	regulate/STIM_012.jpg	100
1233.345	1.851	1850.8	regulate	Run2	regulate/STIM_012.jpg	99
1237.846	2.054	2053.5	regulate	Run2	regulate/STIM_013.jpg	99
1242.068	1.839	1839.0	regulate	Run2	regulate/STIM_013.jpg	99
1246.84	2.523	2522.7	regulate	Run2	regulate/STIM_013.jpg	100
1252.185	1.994	1994.1	regulate	Run2	regulate/STIM_013.jpg	99
1257.414	1.891	1890.7	regulate	Run2	regulate/STIM_014.jpg	99
1261.762	1.988	1988.3	regulate	Run2	regulate/STIM_014.jpg	100
1266.109	2.208	2208.1	regulate	Run2	regulate/STIM_014.jpg	99
1271.494	1.872	1872.5	regulate	Run2	regulate/STIM_014.jpg	99
1275.495	2.546	2546.2	regulate	Run2	regulate/STIM_015.jpg	99
1280.343	1.808	1808.2	regulate	Run2	regulate/STIM_015.jpg	100
1286.022	1.836	1835.7	regulate	Run2	regulate/STIM_015.jpg	100
1290.84	2.262	2261.9	regulate	Run2	regulate/STIM_015.jpg	100
1296.442	2.059	2059.2	regulate	Run2	regulate/STIM_016.jpg	100
1300.813	2.151	2151.3	regulate	Run2	regulate/STIM_016.jpg	99
1305.772	2.383	2383.4	regulate	Run2	regulate/STIM_016.jpg	99
1310.954	1.643	1643.4	regulate	Run2	regulate/STIM_016.jpg	100
1316.155	2.427	2427.4	regulate	Run2	regulate/STIM_017.jpg	99
1322.228	2.245	2245.2	regulate	Run2	regulate/STIM_017.jpg	99
1326.757	2.18	2180.3	regulate	Run2	regulate/STIM_017.jpg	99
1332.43	1.952	1952.0	regulate	Run2	regulate/STIM_017.jpg	100
1337.433	2.384	2383.7	regulate	Run2	regulate/STIM_018.jpg	99
1342.712	1.395	1395.3	regulate	Run2	regulate/STIM_018.jpg	99
1346.588	2.208	2207.7	regulate	Run2	regulate/STIM_018.jpg	100
1351.396	1.264	1264.3	regulate	Run2	regulate/STIM_018.jpg	100
1356.528	1.486	1486.4	regulate	Run2	regulate/STIM_019.jpg	99
1360.88	2.039	2039.5	regulate	Run2	regulate/STIM_019.jpg	99
1366.901	2.04	2040.1	regulate	Run2	regulate/STIM_019.jpg	100
1372.051	1.708	1707.9	regulate	Run2	regulate/STIM_019.jpg	99
1376.861	1.731	1730.7	regulate	Run2	regulate/STIM_020.jpg	99
1381.337	2.708	2707.5	regulate	Run2	regulate/STIM_020.jpg	100
1387.244	1.278	1278.3	regulate	Run2	regulate/STIM_020.jpg	100
1392.406	1.423	1423.4	regulate	Run2	regulate/STIM_020.jpg	100
1397.279	1.699	1699.2	regulate	Run2	regulate/STIM_021.jpg	100
1402.062	1.807	1807.2	regulate	Run2	regulate/STIM_021.jpg	100
1406.674	2.58	2579.8	regulate	Run2	regulate/STIM_021.jpg	100
1412.434	1.997	1996.9	regulate	Run2	regulate/STIM_021.jpg	100
1417.707	2.756	2756.4	regulate	Run2	regulate/STIM_022.jpg	100
1424.222	1.507	1507.3	regulate	Run2	regulate/STIM_022.jpg	99
1429.082	2.502	2502.3	regulate	Run2	regulate/STIM_022.jpg	99
1435.048	2.026	2026.5	regulate	Run2	regulate/STIM_022.jpg	99
1440.437	2.096	2096.0	regulate	Run2	regulate/STIM_023.jpg	100
1446.439	1.963	1963.0	regulate	Run2	regulate/STIM_023.jpg	99
1451.839	2.435	2435.3	regulate	Run2	regulate/STIM_023.jpg	100
1457.346	2.201	2200.7	regulate	Run2	regulate/STIM_023.jpg	99
1461.881	2.112	2112.1	regulate	Run2	regulate/STIM_024.jpg	100
1467.059	1.626	1625.6	regulate	Run2	regulate/STIM_024.jpg	99
1470.778	2.541	2541.1	regulate	Run2	regulate/STIM_024.jpg	100
1476.878	1.295	1294.7	regulate	Run2	regulate/STIM_024.jpg	99
1480.871	1.524	1523.8	regulate	Run2	regulate/STIM_025.jpg	99
1484.671	2.064	2064.3	regulate	Run2	regulate/STIM_025.jpg	99
1489.021	1.342	1341.9	regulate	Run2	regulate/STIM_025.jpg	99
1494.088	2.278	2278.4	regulate	Run2	regulate/STIM_025.jpg	100
1498.395	1.643	1643.2	regulate	Run2	regulate/STIM_026.jpg	99
1502.539	1.749	1749.2	regulate	Run2	regulate/STIM_026.jpg	99
1506.364	2.628	2627.5	regulate	Run2	regulate/STIM_026.jpg	100
1511.455	2.283	2283.3	regulate	Run2	regulate/STIM_026.jpg	99
1516.12	2.365	2365.4	regulate	Run2	regulate/STIM_027.jpg	100
1521.476	2.908	2908.1	regulate	Run2	regulate/STIM_027.jpg	100
1526.523	1.35	1349.5	regulate	Run2	regulate/STIM_027.jpg	99
1531.208	1.398	1397.8	regulate	Run2	regulate/STIM_027.jpg	99
1536.472	2.274	2274.5	regulate	Run2	regulate/STIM_028.jpg	99
1540.757	2.519	2518.9	regulate	Run2	regulate/STIM_028.jpg	100
1546.767	2.372	2371.8	regulate	Run2	regulate/STIM_028.jpg	100
1552.098	1.406	1406.1	regulate	Run2	regulate/STIM_028.jpg	100
1556.868	2.788	2787.9	regulate	Run2	regulate/STIM_029.jpg	99
1563.632	1.736	1736.1	regulate	Run2	regulate/STIM_029.jpg	99
1568.773	1.311	1310.9	regulate	Run2	regulate/STIM_029.jpg	100
1573.902	2.345	2344.7	regulate	Run2	regulate/STIM_029.jpg	99
1579.193	1.527	1527.0	observe	Run2	observe/STIM_000.jpg	99
1583.031	0.844	844.2	observe	Run2	observe/STIM_000.jpg	100
1587.401	0.784	784.4	observe	Run2	observe/STIM_000.jpg	99
1590.96	1.014	1013.7	observe	Run2	observe/STIM_000.jpg	100
1594.292	1.67	1669.5	observe	Run2	observe/STIM_001.jpg	99
1598.282	1.404	1404.4	observe	Run2	observe/STIM_001.jpg	100
1603.027	1.456	1456.4	observe	Run2	observe/STIM_001.jpg	99
1607.124	1.066	1066.2	observe	Run2	observe/STIM_001.jpg	100
1611.789	1.028	1027.8	observe	Run2	observe/STIM_002.jpg	100
1616.763	1.05	1049.6	observe	Run2	observe/STIM_002.jpg	100
1621.541	1.28	1279.8	observe	Run2	observe/STIM_002.jpg	99
1626.473	1.522	1521.9	observe	Run2	observe/STIM_002.jpg	100
1630.675	1.068	1067.5	observe	Run2	observe/STIM_003.jpg	99
1635.033	1.561	1561.0	observe	Run2	observe/STIM_003.jpg	99
1639.791	1.096	1096.2	observe	Run2	observe/STIM_003.jpg	99
1644.466	0.878	878.0	observe	Run2	observe/STIM_003.jpg	100
1648.543	1.536	1535.5	observe	Run2	observe/STIM_004.jpg	100
1652.618	1.354	1354.1	observe	Run2	observe/STIM_004.jpg	100
1656.863	1.475	1475.0	observe	Run2	observe/STIM_004.jpg	100
1660.385	1.547	1547.2	observe	Run2	observe/STIM_004.jpg	99
1664.109	1.035	1035.1	observe	Run2	observe/STIM_005.jpg	100
1668.618	1.399	1399.2	observe	Run2	observe/STIM_005.jpg	100
1672.463	1.333	1333.3	observe	Run2	observe/STIM_005.jpg	99
1676.688	1.252	1251.8	observe	Run2	observe/STIM_005.jpg	100
1680.634	1.618	1617.8	observe	Run2	observe/STIM_006.jpg	100
1685.17	1.035	1034.9	observe	Run2	observe/STIM_006.jpg	100
1689.83	0.993	992.7	observe	Run2	observe/STIM_006.jpg	100
1693.721	1.539	1539.3	observe	Run2	observe/STIM_006.jpg	99
1698.885	1.231	1230.9	observe	Run2	observe/STIM_007.jpg	100
1704.068	1.417	1417.3	observe	Run2	observe/STIM_007.jpg	100
1709.018	0.921	920.9	observe	Run2	observe/STIM_007.jpg	100
1712.505	0.828	828.3	observe	Run2	observe/STIM_007.jpg	100
1715.379	1.478	1477.9	observe	Run2	observe/STIM_008.jpg	99
1719.228	1.382	1382.2	observe	Run2	observe/STIM_008.jpg	99
1722.891	1.472	1471.8	observe	Run2	observe/STIM_008.jpg	100
1727.276	1.186	1185.5	observe	Run2	observe/STIM_008.jpg	99
1730.744	0.968	967.6	observe	Run2	observe/STIM_009.jpg	100
1733.74	0.927	927.0	observe	Run2	observe/STIM_009.jpg	99
1738.371	1.171	1170.8	observe	Run2	observe/STIM_009.jpg	99
1742.749	1.055	1054.9	observe	Run2	observe/STIM_009.jpg	99
1747.475	1.415	1415.4	observe	Run2	observe/STIM_010.jpg	100
1752.639	1.058	1057.5	observe	Run2	observe/STIM_010.jpg	99
1755.648	1.109	1108.8	observe	Run2	observe/STIM_010.jpg	100
1759.125	0.948	948.4	observe	Run2	observe/STIM_010.jpg	99
1763.758	1.155	1154.8	observe	Run2	observe/STIM_011.jpg	99
1768.84	1.496	1495.8	observe	Run2	observe/STIM_011.jpg	100
1772.909	1.448	1447.7	observe	Run2	observe/STIM_011.jpg	99
1778.182	0.905	904.7	observe	Run2	observe/STIM_011.jpg	100
1781.791	1.292	1291.9	observe	Run2	observe/STIM_012.jpg	100
1786.775	1.548	1547.5	observe	Run2	observe/STIM_012.jpg	99
1791.876	1.545	1545.3	observe	Run2	observe/STIM_012.jpg	100
1797.202	1.488	1487.9	observe	Run2	observe/STIM_012.jpg	100
1801.384	1.367	1366.7	observe	Run2	observe/STIM_013.jpg	100
1805.556	1.411	1411.3	observe	Run2	observe/STIM_013.jpg	99
1810.769	1.248	1248.2	observe	Run2	observe/STIM_013.jpg	99
1815.429	1.137	1136.8	observe	Run2	observe/STIM_013.jpg	99
1820.447	1.034	1033.9	observe	Run2	observe/STIM_014.jpg	99
1823.7	1.348	1348.1	observe	Run2	observe/STIM_014.jpg	99
1827.131	1.297	1297.4	observe	Run2	observe/STIM_014.jpg	99
1831.906	1.09	1090.3	observe	Run2	observe/STIM_014.jpg	99
1835.414	1.263	1263.1	observe	Run2	observe/STIM_015.jpg	99
1838.861	0.977	977.4	observe	Run2	observe/STIM_015.jpg	100
1842.236	1.414	1414.2	observe	Run2	observe/STIM_015.jpg	99
1846.325	1.167	1167.4	observe	Run2	observe/STIM_015.jpg	99
1851.257	0.886	886.4	observe	Run2	observe/STIM_016.jpg	100
1854.482	1.231	1231.1	observe	Run2	observe/STIM_016.jpg	99
1858.078	1.067	1066.7	observe	Run2	observe/STIM_016.jpg	99
1861.391	0.84	840.4	observe	Run2	observe/STIM_016.jpg	100
1864.372	1.228	1228.5	observe	Run2	observe/STIM_017.jpg	99
1867.676	1.308	1308.4	observe	Run2	observe/STIM_017.jpg	100
1871.46	0.918	918.5	observe	Run2	observe/STIM_017.jpg	99
1875.046	0.961	960.6	observe	Run2	observe/STIM_017.jpg	99
1878.164	1.032	1032.3	observe	Run2	observe/STIM_018.jpg	100
1882.853	0.852	852.4	observe	Run2	observe/STIM_018.jpg	99
1885.815	1.142	1141.5	observe	Run2	observe/STIM_018.jpg	100
1890.855	1.074	1073.8	observe	Run2	observe/STIM_018.jpg	100
1894.476	1.371	1371.3	observe	Run2	observe/STIM_019.jpg	99
1899.051	0.83	830.2	observe	Run2	observe/STIM_019.jpg	99
1903.581	1.166	1166.0	observe	Run2	observe/STIM_019.jpg	100
1908.707	1.37	1370.0	observe	Run2	observe/STIM_019.jpg	99
1913.791	2.003	2003.0	regulate	Run3	regulate/STIM_000.jpg	99
1918.796	1.212	1212.1	regulate	Run3	regulate/STIM_000.jpg	100
1923.228	1.22	1219.5	regulate	Run3	regulate/STIM_000.jpg	99
1927.439	1.405	1404.9	regulate	Run3	regulate/STIM_000.jpg	100
1930.983	1.784	1783.9	regulate	Run3	regulate/STIM_001.jpg	99
1935.608	1.903	1902.6	regulate	Run3	regulate/STIM_001.jpg	99
1940.846	1.364	1363.6	regulate	Run3	regulate/STIM_001.jpg	99
1944.56	2.002	2002.1	regulate	Run3	regulate/STIM_001.jpg	99
1950.485	1.607	1607.0	regulate	Run3	regulate/STIM_002.jpg	99
1954.508	1.724	1723.7	regulate	Run3	regulate/STIM_002.jpg	99
1959.047	2.324	2323.9	regulate	Run3	regulate/STIM_002.jpg	100
1963.638	1.607	1607.0	regulate	Run3	regulate/STIM_002.jpg	100
1967.778	1.968	1967.8	regulate	Run3	regulate/STIM_003.jpg	100
1973.587	2.257	2257.3	regulate	Run3	regulate/STIM_003.jpg	100
1978.981	1.909	1909.2	regulate	Run3	regulate/STIM_003.jpg	100
1983.156	2.27	2270.0	regulate	Run3	regulate/STIM_003.jpg	99
1988.487	2.141	2140.8	regulate	Run3	regulate/STIM_004.jpg	100
1992.895	1.104	1104.3	regulate	Run3	regulate/STIM_004.jpg	99
1997.262	1.923	1923.2	regulate	Run3	regulate/STIM_004.jpg	99
2003.092	2.137	2136.8	regulate	Run3	regulate/STIM_004.jpg	100
2007.744	1.546	1546.4	regulate	Run3	regulate/STIM_005.jpg	100
2012.159	1.368	1368.2	regulate	Run3	regulate/STIM_005.jpg	99
2017.019	2.231	2230.6	regulate	Run3	regulate/STIM_005.jpg	99
2023.193	1.659	1659.0	regulate	Run3	regulate/STIM_005.jpg	100
2026.992	2.264	2264.4	regulate	Run3	regulate/STIM_006.jpg	100
2032.688	1.64	1640.5	regulate	Run3	regulate/STIM_006.jpg	100
2037.268	1.062	1061.8	regulate	Run3	regulate/STIM_006.jpg	99
2040.67	2.061	2061.0	regulate	Run3	regulate/STIM_006.jpg	100
2044.821	1.127	1126.6	regulate	Run3	regulate/STIM_007.jpg	100
2049.68	1.45	1450.1	regulate	Run3	regulate/STIM_007.jpg	99
2054.287	1.801	1801.1	regulate	Run3	regulate/STIM_007.jpg	99
2058.877	1.242	1242.3	regulate	Run3	regulate/STIM_007.jpg	99
2062.093	2.001	2001.1	regulate	Run3	regulate/STIM_008.jpg	99
2067.696	1.261	1261.1	regulate	Run3	regulate/STIM_008.jpg	99
2072.433	1.279	1278.7	regulate	Run3	regulate/STIM_008.jpg	99
2077.556	2.331	2331.0	regulate	Run3	regulate/STIM_008.jpg	100
2082.486	1.145	1145.1	regulate	Run3	regulate/STIM_009.jpg	100
2087.059	2.114	2113.8	regulate	Run3	regulate/STIM_009.jpg	100
2092.676	1.458	1458.4	regulate	Run3	regulate/STIM_009.jpg	100
2096.296	2.485	2485.0	regulate	Run3	regulate/STIM_009.jpg	99
2101.248	2.504	2503.6	regulate	Run3	regulate/STIM_010.jpg	99
2106.583	1.158	1158.4	regulate	Run3	regulate/STIM_010.jpg	99
2111.215	2.068	2068.4	regulate	Run3	regulate/STIM_010.jpg	99
2116.27	1.574	1574.0	regulate	Run3	regulate/STIM_010.jpg	99
2121.193	2.09	2090.0	regulate	Run3	regulate/STIM_011.jpg	100
2126.733	1.533	1532.7	regulate	Run3	regulate/STIM_011.jpg	99
2130.289	2.46	2460.5	regulate	Run3	regulate/STIM_011.jpg	100
2134.859	1.946	1946.5	regulate	Run3	regulate/STIM_011.jpg	100
2140.284	2.294	2293.5	regulate	Run3	regulate/STIM_012.jpg	99
2145.044	1.368	1368.5	regulate	Run3	regulate/STIM_012.jpg	99
2149.06	1.42	1420.3	regulate	Run3	regulate/STIM_012.jpg	100
2154.266	1.278	1277.8	regulate	Run3	regulate/STIM_012.jpg	100
2158.305	2.123	2123.1	regulate	Run3	regulate/STIM_013.jpg	99
2163.813	1.56	1559.8	regulate	Run3	regulate/STIM_013.jpg	99
2167.552	1.247	1246.6	regulate	Run3	regulate/STIM_013.jpg	100
2172.214	1.778	1778.5	regulate	Run3	regulate/STIM_013.jpg	100
2176.457	2.259	2258.6	regulate	Run3	regulate/STIM_014.jpg	99
2180.825	2.224	2224.2	regulate	Run3	regulate/STIM_014.jpg	100
2186.672	1.184	1184.5	regulate	Run3	regulate/STIM_014.jpg	99
2190.01	1.975	1975.4	regulate	Run3	regulate/STIM_014.jpg	99
2194.164	1.271	1271.2	regulate	Run3	regulate/STIM_015.jpg	100
2198.922	2.232	2231.5	regulate	Run3	regulate/STIM_015.jpg	100
2204.695	1.923	1922.9	regulate	Run3	regulate/STIM_015.jpg	99
2208.844	1.363	1363.2	regulate	Run3	regulate/STIM_015.jpg	100
2213.038	1.777	1777.0	regulate	Run3	regulate/STIM_016.jpg	100
2217.629	1.485	1484.7	regulate	Run3	regulate/STIM_016.jpg	100
2222.053	2.377	2377.1	regulate	Run3	regulate/STIM_016.jpg	99
2228.294	2.24	2240.4	regulate	Run3	regulate/STIM_016.jpg	100
2234.043	1.889	1888.9	regulate	Run3	regulate/STIM_017.jpg	99
2238.343	1.158	1157.6	regulate	Run3	regulate/STIM_017.jpg	99
2241.61	1.248	1248.3	regulate	Run3	regulate/STIM_017.jpg	99
2245.171	1.664	1664.4	regulate	Run3	regulate/STIM_017.jpg	99
2250.439	1.714	1714.2	regulate	Run3	regulate/STIM_018.jpg	99
2254.495	2.097	2097.4	regulate	Run3	regulate/STIM_018.jpg	100
2260.377	1.837	1837.2	regulate	Run3	regulate/STIM_018.jpg	100
2265.738	1.714	1713.5	regulate	Run3	regulate/STIM_018.jpg	100
2270.248	1.854	1854.2	regulate	Run3	regulate/STIM_019.jpg	100
2275.848	1.99	1990.4	regulate	Run3	regulate/STIM_019.jpg	99
2280.222	1.531	1531.0	regulate	Run3	regulate/STIM_019.jpg	100
2284.857	1.969	1969.3	regulate	Run3	regulate/STIM_019.jpg	99
2290.656	1.683	1683.2	regulate	Run3	regulate/STIM_020.jpg	99
2295.212	1.9	1900.4	regulate	Run3	regulate/STIM_020.jpg	100
2300.614	2.279	2279.0	regulate	Run3	regulate/STIM_020.jpg	99
2306.88	2.372	2371.9	regulate	Run3	regulate/STIM_020.jpg	100
2311.223	1.966	1966.4	regulate	Run3	regulate/STIM_021.jpg	99
2316.86	2.25	2249.6	regulate	Run3	regulate/STIM_021.jpg	99
2322.721	2.129	2129.2	regulate	Run3	regulate/STIM_021.jpg	99
2328.615	1.742	1742.1	regulate	Run3	regulate/STIM_021.jpg	100
2333.596	1.446	1445.5	regulate	Run3	regulate/STIM_022.jpg	99
2338.847	2.432	2432.0	regulate	Run3	regulate/STIM_022.jpg	100
2344.57	1.557	1556.6	regulate	Run3	regulate/STIM_022.jpg	99
2349.337	2.522	2521.8	regulate	Run3	regulate/STIM_022.jpg	100
2354.63	2.3	2300.2	regulate	Run3	regulate/STIM_023.jpg	99
2360.147	2.527	2526.6	regulate	Run3	regulate/STIM_023.jpg	99
2366.579	1.563	1563.3	regulate	Run3	regulate/STIM_023.jpg	100
2371.739	1.925	1925.0	regulate	Run3	regulate/STIM_023.jpg	100
2375.853	2.178	2178.5	regulate	Run3	regulate/STIM_024.jpg	100
2381.008	1.649	1649.1	regulate	Run3	regulate/STIM_024.jpg	100
2385.366	2.247	2246.9	regulate	Run3	regulate/STIM_024.jpg	100
2390.758	1.747	1746.8	regulate	Run3	regulate/STIM_024.jpg	100
2396.282	2.474	2474.4	regulate	Run3	regulate/STIM_025.jpg	99
2402.337	1.966	1965.8	regulate	Run3	regulate/STIM_025.jpg	99
2407.216	1.827	1827.1	regulate	Run3	regulate/STIM_025.jpg	100
2412.505	1.641	1641.1	regulate	Run3	regulate/STIM_025.jpg	99
2416.52	1.96	1959.5	regulate	Run3	regulate/STIM_026.jpg	100
2420.554	2.317	2317.3	regulate	Run3	regulate/STIM_026.jpg	100
2426.381	1.438	1438.0	regulate	Run3	regulate/STIM_026.jpg	99
2430.74	1.566	1565.9	regulate	Run3	regulate/STIM_026.jpg	100
2434.417	2.179	2178.7	regulate	Run3	regulate/STIM_027.jpg	99
2438.976	1.526	1526.5	regulate	Run3	regulate/STIM_027.jpg	100
2443.598	2.264	2264.4	regulate	Run3	regulate/STIM_027.jpg	99
2448.772	2.432	2432.4	regulate	Run3	regulate/STIM_027.jpg	99
2453.579	1.431	1430.9	regulate	Run3	regulate/STIM_028.jpg	100
2458.122	2.143	2143.4	regulate	Run3	regulate/STIM_028.jpg	99
2462.663	2.416	2416.1	regulate	Run3	regulate/STIM_028.jpg	100
2467.78	1.872	1872.1	regulate	Run3	regulate/STIM_028.jpg	100
2472.956	1.842	1842.5	regulate	Run3	regulate/STIM_029.jpg	100
2476.829	1.822	1821.6	regulate	Run3	regulate/STIM_029.jpg	100
2482.655	2.381	2381.3	regulate	Run3	regulate/STIM_029.jpg	99
2487.784	1.165	1165.1	regulate	Run3	regulate/STIM_029.jpg	100
2491.141	1.291	1291.3	observe	Run3	observe/STIM_000.jpg	100
2494.972	1.536	1535.8	observe	Run3	observe/STIM_000.jpg	100
2500.067	1.692	1691.8	observe	Run3	observe/STIM_000.jpg	100
2503.86	1.547	1546.6	observe	Run3	observe/STIM_000.jpg	99
2509.149	1.261	1261.4	observe	Run3	observe/STIM_001.jpg	100
2513.004	1.159	1159.3	observe	Run3	observe/STIM_001.jpg	100
2516.522	1.669	1668.8	observe	Run3	observe/STIM_001.jpg	99
2521.473	1.463	1463.2	observe	Run3	observe/STIM_001.jpg	100
2526.832	0.892	891.8	observe	Run3	observe/STIM_002.jpg	100
2531.248	1.037	1037.4	observe	Run3	observe/STIM_002.jpg	99
2536.258	1.614	1614.5	observe	Run3	observe/STIM_002.jpg	100
2541.717	1.058	1058.2	observe	Run3	observe/STIM_002.jpg	99
2545.495	1.016	1016.2	observe	Run3	observe/STIM_003.jpg	99
2549.093	1.276	1276.0	observe	Run3	observe/STIM_003.jpg	100
2553.449	1.01	1009.6	observe	Run3	observe/STIM_003.jpg	100
2558.021	1.19	1189.8	observe	Run3	observe/STIM_003.jpg	100
2561.544	1.251	1250.9	observe	Run3	observe/STIM_004.jpg	100
2565.758	0.945	945.3	observe	Run3	observe/STIM_004.jpg	100
2569.893	1.158	1157.9	observe	Run3	observe/STIM_004.jpg	99
2574.666	1.422	1422.1	observe	Run3	observe/STIM_004.jpg	100
2579.923	0.88	879.5	observe	Run3	observe/STIM_005.jpg	99
2583.1	0.837	836.6	observe	Run3	observe/STIM_005.jpg	99
2586.6	1.606	1606.4	observe	Run3	observe/STIM_005.jpg	100
2590.948	1.435	1434.7	observe	Run3	observe/STIM_005.jpg	99
2595.946	0.928	928.3	observe	Run3	observe/STIM_006.jpg	99
2600.364	0.905	904.7	observe	Run3	observe/STIM_006.jpg	99
2603.261	1.536	1536.0	observe	Run3	observe/STIM_006.jpg	100
2607.126	1.079	1079.2	observe	Run3	observe/STIM_006.jpg	99
2611.719	1.329	1328.9	observe	Run3	observe/STIM_007.jpg	99
2616.432	0.847	846.6	observe	Run3	observe/STIM_007.jpg	100
2620.49	0.899	898.9	observe	Run3	observe/STIM_007.jpg	99
2624.973	1.285	1285.1	observe	Run3	observe/STIM_007.jpg	100
2629.487	0.816	815.8	observe	Run3	observe/STIM_008.jpg	99
2633.547	0.966	965.7	observe	Run3	observe/STIM_008.jpg	100
2636.902	0.902	901.7	observe	Run3	observe/STIM_008.jpg	100
2641.54	1.546	1546.4	observe	Run3	observe/STIM_008.jpg	100
2646.784	1.519	1518.8	observe	Run3	observe/STIM_009.jpg	99
2650.905	1.395	1394.7	observe	Run3	observe/STIM_009.jpg	100
2654.826	1.366	1366.1	observe	Run3	observe/STIM_009.jpg	99
2658.509	0.718	717.5	observe	Run3	observe/STIM_009.jpg	99
2662.266	1.363	1363.3	observe	Run3	observe/STIM_010.jpg	100
2666.398	1.48	1479.7	observe	Run3	observe/STIM_010.jpg	99
2670.587	1.528	1528.5	observe	Run3	observe/STIM_010.jpg	100
2674.571	1.403	1403.4	observe	Run3	observe/STIM_010.jpg	99
2678.635	1.341	1341.1	observe	Run3	observe/STIM_011.jpg	99
2683.96	1.31	1309.5	observe	Run3	observe/STIM_011.jpg	100
2687.908	1.188	1187.8	observe	Run3	observe/STIM_011.jpg	100
2691.862	1.352	1351.9	observe	Run3	observe/STIM_011.jpg	99
2695.784	0.888	888.4	observe	Run3	observe/STIM_012.jpg	100
2700.431	1.448	1448.4	observe	Run3	observe/STIM_012.jpg	99
2704.087	1.271	1270.6	observe	Run3	observe/STIM_012.jpg	99
2709.264	1.336	1336.1	observe	Run3	observe/STIM_012.jpg	99
2713.253	1.604	1604.4	observe	Run3	observe/STIM_013.jpg	99
2717.514	1.012	1012.0	observe	Run3	observe/STIM_013.jpg	99
2721.346	1.653	1652.8	observe	Run3	observe/STIM_013.jpg	99
2725.757	1.217	1216.6	observe	Run3	observe/STIM_013.jpg	99
2730.484	1.142	1141.5	observe	Run3	observe/STIM_014.jpg	100
2733.636	0.993	992.9	observe	Run3	observe/STIM_014.jpg	99
2737.424	1.54	1539.6	observe	Run3	observe/STIM_014.jpg	99
2741.007	0.807	806.9	observe	Run3	observe/STIM_014.jpg	99
2744.994	1.089	1089.4	observe	Run3	observe/STIM_015.jpg	99
2749.729	1.364	1364.1	observe	Run3	observe/STIM_015.jpg	99
2754.753	0.835	834.7	observe	Run3	observe/STIM_015.jpg	100
2758.848	1.287	1286.7	observe	Run3	observe/STIM_015.jpg	99
2762.744	1.561	1560.9	observe	Run3	observe/STIM_016.jpg	100
2767.229	1.136	1136.5	observe	Run3	observe/STIM_016.jpg	100
2770.575	1.332	1331.9	observe	Run3	observe/STIM_016.jpg	99
2773.966	1.055	1055.3	observe	Run3	observe/STIM_016.jpg	100
2778.371	1.313	1312.8	observe	Run3	observe/STIM_017.jpg	100
2781.905	1.491	1491.3	observe	Run3	observe/STIM_017.jpg	99
2787.188	1.494	1494.3	observe	Run3	observe/STIM_017.jpg	99
2791.951	1.522	1522.2	observe	Run3	observe/STIM_017.jpg	100
2797.096	1.293	1293.3	observe	Run3	observe/STIM_018.jpg	99
2800.501	1.339	1339.1	observe	Run3	observe/STIM_018.jpg	100
2805.331	1.369	1368.9	observe	Run3	observe/STIM_018.jpg	100
2810.558	1.506	1505.5	observe	Run3	observe/STIM_018.jpg	100
2815.564	0.929	929.2	observe	Run3	observe/STIM_019.jpg	100
2819.589	1.575	1575.1	observe	Run3	observe/STIM_019.jpg	100
2823.697	0.95	950.3	observe	Run3	observe/STIM_019.jpg	99
2827.364	1.158	1157.8	observe	Run3	observe/STIM_019.jpg	100
