onset	duration	response_time_ms	trial_type	learning_stage	stimulus	response_port
0.0	2.298	2298.3	regulate	Run1	regulate/STIM_000.jpg	100
4.361	1.398	1398.3	regulate	Run1	regulate/STIM_000.jpg	100
9.365	2.024	2024.0	regulate	Run1	regulate/STIM_000.jpg	99
15.231	1.888	1887.9	regulate	Run1	regulate/STIM_000.jpg	99
19.877	2.786	2786.1	regulate	Run1	regulate/STIM_001.jpg	99
25.926	3.175	3175.4	regulate	Run1	regulate/STIM_001.jpg	100
32.367	1.815	1815.3	regulate	Run1	regulate/STIM_001.jpg	100
36.753	1.84	1840.0	regulate	Run1	regulate/STIM_001.jpg	100
41.585	1.926	1926.3	regulate	Run1	regulate/STIM_002.jpg	100
46.459	1.924	1924.2	regulate	Run1	regulate/STIM_002.jpg	99
50.666	1.34	1339.8	regulate	Run1	regulate/STIM_002.jpg	99
54.171	2.761	2761.1	regulate	Run1	regulate/STIM_002.jpg	99
60.494	3.187	3186.6	regulate	Run1	regulate/STIM_003.jpg	99
66.703	2.549	2549.0	regulate	Run1	regulate/STIM_003.jpg	100
72.926	1.782	1782.2	regulate	Run1	regulate/STIM_003.jpg	99
77.933	1.282	1282.0	regulate	Run1	regulate/STIM_003.jpg	99
82.534	2.564	2564.3	regulate	Run1	regulate/STIM_004.jpg	100
88.774	2.716	2716.5	regulate	Run1	regulate/STIM_004.jpg	100
94.685	2.026	2025.6	regulate	Run1	regulate/STIM_004.jpg	100
100.46	1.987	1986.6	regulate	Run1	regulate/STIM_004.jpg	100
105.246	1.675	1675.3	regulate	Run1	regulate/STIM_005.jpg	99
110.632	1.41	1409.9	regulate	Run1	regulate/STIM_005.jpg	100
115.552	1.378	1378.4	regulate	Run1	regulate/STIM_005.jpg	99
119.572	2.778	2778.2	regulate	Run1	regulate/STIM_005.jpg	99
125.68	2.785	2785.3	regulate	Run1	regulate/STIM_006.jpg	100
131.817	3.079	3078.9	regulate	Run1	regulate/STIM_006.jpg	100
137.724	2.955	2954.6	regulate	Run1	regulate/STIM_006.jpg	99
144.556	1.91	1910.4	regulate	Run1	regulate/STIM_006.jpg	99
149.161	2.391	2390.9	regulate	Run1	regulate/STIM_007.jpg	99
154.655	2.052	2052.2	regulate	Run1	regulate/STIM_007.jpg	100
160.593	1.333	1333.3	regulate	Run1	regulate/STIM_007.jpg	100
164.368	2.431	2431.4	regulate	Run1	regulate/STIM_007.jpg	100
170.035	2.836	2835.8	regulate	Run1	regulate/STIM_008.jpg	99
176.589	3.024	3023.8	regulate	Run1	regulate/STIM_008.jpg	100
183.393	1.689	1689.3	regulate	Run1	regulate/STIM_008.jpg	100
188.854	1.894	1893.8	regulate	Run1	regulate/STIM_008.jpg	100
194.253	2.202	2202.1	regulate	Run1	regulate/STIM_009.jpg	99
198.51	2.662	2661.5	regulate	Run1	regulate/STIM_009.jpg	99
204.504	2.872	2871.7	regulate	Run1	regulate/STIM_009.jpg	100
211.286	2.042	2042.0	regulate	Run1	regulate/STIM_009.jpg	99
216.479	3.303	3303.2	regulate	Run1	regulate/STIM_010.jpg	100
222.062	1.922	1921.7	regulate	Run1	regulate/STIM_010.jpg	100
226.707	1.886	1886.5	regulate	Run1	regulate/STIM_010.jpg	100
232.378	2.219	2219.1	regulate	Run1	regulate/STIM_010.jpg	99
238.124	3.232	3231.8	regulate	Run1	regulate/STIM_011.jpg	99
243.666	3.121	3120.8	regulate	Run1	regulate/STIM_011.jpg	100
250.722	2.413	2412.6	regulate	Run1	regulate/STIM_011.jpg	100
256.416	2.044	2044.0	regulate	Run1	regulate/STIM_011.jpg	100
260.482	2.382	2382.1	regulate	Run1	regulate/STIM_012.jpg	100
266.504	2.071	2070.7	regulate	Run1	regulate/STIM_012.jpg	100
271.074	2.156	2156.5	regulate	Run1	regulate/STIM_012.jpg	99
276.797	1.826	1825.7	regulate	Run1	regulate/STIM_012.jpg	100
282.21	2.068	2067.9	regulate	Run1	regulate/STIM_013.jpg	100
288.058	2.747	2747.0	regulate	Run1	regulate/STIM_013.jpg	99
294.257	2.429	2429.1	regulate	Run1	regulate/STIM_013.jpg	100
299.621	1.939	1938.7	regulate	Run1	regulate/STIM_013.jpg	99
304.246	3.124	3124.4	regulate	Run1	regulate/STIM_014.jpg	100
311.225	2.83	2829.8	regulate	Run1	regulate/STIM_014.jpg	100
317.038	1.792	1791.8	regulate	Run1	regulate/STIM_014.jpg	100
322.64	1.886	1886.1	regulate	Run1	regulate/STIM_014.jpg	100
328.216	2.546	2545.7	regulate	Run1	regulate/STIM_015.jpg	99
332.934	2.028	2028.0	regulate	Run1	regulate/STIM_015.jpg	99
337.308	2.498	2498.2	regulate	Run1	regulate/STIM_015.jpg	99
342.756	1.722	1722.4	regulate	Run1	regulate/STIM_015.jpg	100
348.357	2.941	2940.9	regulate	Run1	regulate/STIM_016.jpg	99
354.87	1.418	1417.5	regulate	Run1	regulate/STIM_016.jpg	100
359.776	2.929	2929.1	regulate	Run1	regulate/STIM_016.jpg	100
365.4	2.759	2758.9	regulate	Run1	regulate/STIM_016.jpg	99
371.607	2.555	2555.1	regulate	Run1	regulate/STIM_017.jpg	99
377.475	3.094	3094.3	regulate	Run1	regulate/STIM_017.jpg	100
383.858	2.572	2572.1	regulate	Run1	regulate/STIM_017.jpg	100
389.929	1.824	1824.4	regulate	Run1	regulate/STIM_017.jpg	99
394.989	3.079	3078.9	regulate	Run1	regulate/STIM_018.jpg	100
400.613	2.913	2912.9	regulate	Run1	regulate/STIM_018.jpg	100
407.136	1.823	1822.8	regulate	Run1	regulate/STIM_018.jpg	99
411.83	1.723	1723.2	regulate	Run1	regulate/STIM_018.jpg	99
417.453	1.844	1844.0	regulate	Run1	regulate/STIM_019.jpg	99
422.705	2.84	2840.5	regulate	Run1	regulate/STIM_019.jpg	99
428.217	2.754	2754.2	regulate	Run1	regulate/STIM_019.jpg	99
434.201	2.362	2362.2	regulate	Run1	regulate/STIM_019.jpg	99
440.212	1.674	1674.4	regulate	Run1	regulate/STIM_020.jpg	99
443.913	2.276	2275.5	regulate	Run1	regulate/STIM_020.jpg	99
449.887	1.93	1929.8	regulate	Run1	regulate/STIM_020.jpg	99
454.752	1.762	1762.5	regulate	Run1	regulate/STIM_020.jpg	100
459.191	2.613	2613.1	regulate	Run1	regulate/STIM_021.jpg	100
464.828	2.476	2476.0	regulate	Run1	regulate/STIM_021.jpg	100
471.222	1.435	1435.2	regulate	Run1	regulate/STIM_021.jpg	100
476.254	1.376	1376.5	regulate	Run1	regulate/STIM_021.jpg	100
481.39	2.071	2070.8	regulate	Run1	regulate/STIM_022.jpg	99
487.008	2.384	2384.5	regulate	Run1	regulate/STIM_022.jpg	100
491.915	2.223	2222.6	regulate	Run1	regulate/STIM_022.jpg	99
496.537	1.974	1974.5	regulate	Run1	regulate/STIM_022.jpg	99
501.336	2.044	2044.1	regulate	Run1	regulate/STIM_023.jpg	99
506.333	2.876	2875.8	regulate	Run1	regulate/STIM_023.jpg	100
511.299	2.228	2227.8	regulate	Run1	regulate/STIM_023.jpg	100
516.856	1.36	1360.2	regulate	Run1	regulate/STIM_023.jpg	99
520.762	2.344	2344.1	regulate	Run1	regulate/STIM_024.jpg	100
525.662	2.084	2083.7	regulate	Run1	regulate/STIM_024.jpg	100
531.114	1.785	1784.7	regulate	Run1	regulate/STIM_024.jpg	100
536.172	2.782	2781.9	regulate	Run1	regulate/STIM_024.jpg	99
541.159	1.618	1618.4	regulate	Run1	regulate/STIM_025.jpg	99
545.133	2.16	2159.8	regulate	Run1	regulate/STIM_025.jpg	100
549.914	2.694	2693.7	regulate	Run1	regulate/STIM_025.jpg	100
555.77	1.957	1957.4	regulate	Run1	regulate/STIM_025.jpg	100
560.765	1.859	1859.1	regulate	Run1	regulate/STIM_026.jpg	99
565.827	2.916	2916.5	regulate	Run1	regulate/STIM_026.jpg	100
571.751	1.504	1504.5	regulate	Run1	regulate/STIM_026.jpg	100
576.695	1.763	1763.4	regulate	Run1	regulate/STIM_026.jpg	99
581.663	1.657	1656.8	regulate	Run1	regulate/STIM_027.jpg	100
586.526	2.437	2437.2	regulate	Run1	regulate/STIM_027.jpg	100
592.052	1.391	1391.4	regulate	Run1	regulate/STIM_027.jpg	100
595.597	1.815	1815.3	regulate	Run1	regulate/STIM_027.jpg	99
599.477	1.478	1478.0	regulate	Run1	regulate/STIM_028.jpg	99
604.569	1.596	1595.9	regulate	Run1	regulate/STIM_028.jpg	100
609.838	2.35	2350.2	regulate	Run1	regulate/STIM_028.jpg	100
615.813	1.505	1504.7	regulate	Run1	regulate/STIM_028.jpg	100
619.986	3.136	3135.6	regulate	Run1	regulate/STIM_029.jpg	100
626.18	2.849	2849.2	regulate	Run1	regulate/STIM_029.jpg	100
632.534	2.061	2061.0	regulate	Run1	regulate/STIM_029.jpg	100
636.831	1.825	1825.1	regulate	Run1	regulate/STIM_029.jpg	99
641.16	0.981	981.0	observe	Run1	observe/STIM_000.jpg	99
646.094	1.515	1515.0	observe	Run1	observe/STIM_000.jpg	100
649.906	1.158	1158.0	observe	Run1	observe/STIM_000.jpg	100
653.704	1.55	1550.0	observe	Run1	observe/STIM_000.jpg	100
657.261	1.52	1519.7	observe	Run1	observe/STIM_001.jpg	100
661.646	1.297	1297.1	observe	Run1	observe/STIM_001.jpg	99
666.089	0.883	883.1	observe	Run1	observe/STIM_001.jpg	99
669.909	1.453	1453.1	observe	Run1	observe/STIM_001.jpg	100
674.272	1.279	1279.0	observe	Run1	observe/STIM_002.jpg	100
679.132	1.447	1447.1	observe	Run1	observe/STIM_002.jpg	99
683.432	0.82	819.7	observe	Run1	observe/STIM_002.jpg	99
687.537	1.158	1158.2	observe	Run1	observe/STIM_002.jpg	99
692.267	0.859	859.3	observe	Run1	observe/STIM_003.jpg	99
697.022	1.173	1172.8	observe	Run1	observe/STIM_003.jpg	99
700.644	1.108	1107.9	observe	Run1	observe/STIM_003.jpg	100
704.317	1.165	1165.3	observe	Run1	observe/STIM_003.jpg	99
708.217	1.262	1261.5	observe	Run1	observe/STIM_004.jpg	99
713.446	1.087	1086.6	observe	Run1	observe/STIM_004.jpg	99
718.002	1.32	1319.6	observe	Run1	observe/STIM_004.jpg	100
722.081	1.264	1263.7	observe	Run1	observe/STIM_004.jpg	99
726.348	1.258	1257.9	observe	Run1	observe/STIM_005.jpg	99
729.662	0.796	796.0	observe	Run1	observe/STIM_005.jpg	99
733.672	1.128	1128.1	observe	Run1	observe/STIM_005.jpg	99
738.702	1.248	1248.1	observe	Run1	observe/STIM_005.jpg	99
742.035	1.169	1169.1	observe	Run1	observe/STIM_006.jpg	100
746.445	1.019	1018.9	observe	Run1	observe/STIM_006.jpg	100
751.238	1.296	1296.3	observe	Run1	observe/STIM_006.jpg	99
755.151	1.312	1312.1	observe	Run1	observe/STIM_006.jpg	99
759.005	1.312	1311.5	observe	Run1	observe/STIM_007.jpg	99
764.167	1.454	1454.3	observe	Run1	observe/STIM_007.jpg	100
769.333	1.467	1466.9	observe	Run1	observe/STIM_007.jpg	100
773.758	0.942	942.4	observe	Run1	observe/STIM_007.jpg	100
777.888	1.292	1291.9	observe	Run1	observe/STIM_008.jpg	100
781.44	0.954	954.0	observe	Run1	observe/STIM_008.jpg	99
785.438	1.534	1533.9	observe	Run1	observe/STIM_008.jpg	99
789.785	1.458	1458.4	observe	Run1	observe/STIM_008.jpg	99
793.652	0.969	968.7	observe	Run1	observe/STIM_009.jpg	100
796.771	0.844	843.9	observe	Run1	observe/STIM_009.jpg	99
801.366	1.463	1462.6	observe	Run1	observe/STIM_009.jpg	100
806.78	1.354	1353.8	observe	Run1	observe/STIM_009.jpg	99
810.196	0.921	921.0	observe	Run1	observe/STIM_010.jpg	99
813.464	1.417	1416.9	observe	Run1	observe/STIM_010.jpg	99
818.082	0.908	908.0	observe	Run1	observe/STIM_010.jpg	99
822.649	1.532	1531.5	observe	Run1	observe/STIM_010.jpg	100
827.518	1.161	1161.1	observe	Run1	observe/STIM_011.jpg	99
831.15	0.832	831.6	observe	Run1	observe/STIM_011.jpg	99
834.688	0.883	882.6	observe	Run1	observe/STIM_011.jpg	99
839.393	1.003	1002.7	observe	Run1	observe/STIM_011.jpg	99
843.863	0.995	995.1	observe	Run1	observe/STIM_012.jpg	100
847.645	0.794	794.1	observe	Run1	observe/STIM_012.jpg	99
851.439	1.418	1418.0	observe	Run1	observe/STIM_012.jpg	100
855.109	0.85	850.4	observe	Run1	observe/STIM_012.jpg	99
859.855	1.383	1383.1	observe	Run1	observe/STIM_013.jpg	99
864.456	1.328	1327.9	observe	Run1	observe/STIM_013.jpg	100
869.198	1.412	1411.6	observe	Run1	observe/STIM_013.jpg	99
873.872	0.84	839.8	observe	Run1	observe/STIM_013.jpg	100
878.277	0.852	851.7	observe	Run1	observe/STIM_014.jpg	99
881.652	1.182	1181.5	observe	Run1	observe/STIM_014.jpg	100
885.511	1.393	1393.0	observe	Run1	observe/STIM_014.jpg	100
889.315	0.887	886.8	observe	Run1	observe/STIM_014.jpg	99
892.652	1.512	1511.9	observe	Run1	observe/STIM_015.jpg	100
898.005	0.828	827.7	observe	Run1	observe/STIM_015.jpg	99
901.119	1.197	1196.6	observe	Run1	observe/STIM_015.jpg	99
906.197	0.865	865.4	observe	Run1	observe/STIM_015.jpg	100
910.941	1.474	1473.7	observe	Run1	observe/STIM_016.jpg	99
916.061	1.005	1004.8	observe	Run1	observe/STIM_016.jpg	99
920.839	1.115	1115.4	observe	Run1	observe/STIM_016.jpg	100
924.797	0.935	934.8	observe	Run1	observe/STIM_016.jpg	100
928.174	1.167	1167.3	observe	Run1	observe/STIM_017.jpg	100
932.288	0.809	809.1	observe	Run1	observe/STIM_017.jpg	99
935.136	0.836	836.2	observe	Run1	observe/STIM_017.jpg	99
938.477	1.099	1099.0	observe	Run1	observe/STIM_017.jpg	99
943.473	1.411	1411.0	observe	Run1	observe/STIM_018.jpg	100
947.234	1.521	1520.9	observe	Run1	observe/STIM_018.jpg	100
951.233	0.979	979.1	observe	Run1	observe/STIM_018.jpg	99
954.762	1.329	1329.1	observe	Run1	observe/STIM_018.jpg	99
959.082	0.82	820.1	observe	Run1	observe/STIM_019.jpg	100
963.159	1.006	1006.3	observe	Run1	observe/STIM_019.jpg	100
967.776	1.094	1094.0	observe	Run1	observe/STIM_019.jpg	100
972.494	1.216	1216.2	observe	Run1	observe/STIM_019.jpg	99
976.577	1.303	1303.1	regulate	Run2	regulate/STIM_000.jpg	100
981.573	1.562	1562.0	regulate	Run2	regulate/STIM_000.jpg	100
985.878	1.978	1978.4	regulate	Run2	regulate/STIM_000.jpg	99
990.11	2.057	2057.0	regulate	Run2	regulate/STIM_000.jpg	99
995.146	2.276	2275.5	regulate	Run2	regulate/STIM_001.jpg	99
999.79	1.908	1907.7	regulate	Run2	regulate/STIM_001.jpg	99
1005.565	2.489	2488.8	regulate	Run2	regulate/STIM_001.jpg	100
1010.757	2.065	2065.0	regulate	Run2	regulate/STIM_001.jpg	100
1015.985	2.582	2581.5	regulate	Run2	regulate/STIM_002.jpg	100
1020.993	1.382	1382.2	regulate	Run2	regulate/STIM_002.jpg	100
1024.916	1.216	1216.3	regulate	Run2	regulate/STIM_002.jpg	99
1028.89	1.032	1031.5	regulate	Run2	regulate/STIM_002.jpg	99
1032.898	2.914	2913.5	regulate	Run2	regulate/STIM_003.jpg	99
1039.003	2.566	2566.3	regulate	Run2	regulate/STIM_003.jpg	100
1045.126	1.782	1781.6	regulate	Run2	regulate/STIM_003.jpg	100
1049.441	1.876	1876.0	regulate	Run2	regulate/STIM_003.jpg	100
1054.628	2.783	2783.2	regulate	Run2	regulate/STIM_004.jpg	99
1059.794	1.276	1276.4	regulate	Run2	regulate/STIM_004.jpg	100
1063.281	1.285	1285.4	regulate	Run2	regulate/STIM_004.jpg	100
1067.109	2.399	2399.0	regulate	Run2	regulate/STIM_004.jpg	99
1073.052	2.173	2173.0	regulate	Run2	regulate/STIM_005.jpg	100
1078.611	2.49	2490.4	regulate	Run2	regulate/STIM_005.jpg	99
1084.761	1.182	1182.3	regulate	Run2	regulate/STIM_005.jpg	100
1088.365	1.585	1584.8	regulate	Run2	regulate/STIM_005.jpg	99
1093.32	1.74	1739.6	regulate	Run2	regulate/STIM_006.jpg	99
1098.029	1.4	1399.6	regulate	Run2	regulate/STIM_006.jpg	99
1102.558	1.629	1628.8	regulate	Run2	regulate/STIM_006.jpg	99
1107.608	1.436	1436.4	regulate	Run2	regulate/STIM_006.jpg	99
1112.762	2.068	2067.6	regulate	Run2	regulate/STIM_007.jpg	99
1117.061	2.434	2433.8	regulate	Run2	regulate/STIM_007.jpg	99
1121.537	1.394	1393.6	regulate	Run2	regulate/STIM_007.jpg	100
1126.282	1.307	1306.8	regulate	Run2	regulate/STIM_007.jpg	99
1131.429	2.282	2281.6	regulate	Run2	regulate/STIM_008.jpg	100
1136.026	1.41	1409.5	regulate	Run2	regulate/STIM_008.jpg	100
1141.102	2.288	2288.0	regulate	Run2	regulate/STIM_008.jpg	99
1146.377	1.529	1529.3	regulate	Run2	regulate/STIM_008.jpg	100
1151.14	1.783	1782.6	regulate	Run2	regulate/STIM_009.jpg	100
1155.153	1.758	1757.6	regulate	Run2	regulate/STIM_009.jpg	99
1160.556	2.207	2206.7	regulate	Run2	regulate/STIM_009.jpg	100
1166.004	1.719	1718.8	regulate	Run2	regulate/STIM_009.jpg	100
1170.488	2.587	2587.1	regulate	Run2	regulate/STIM_010.jpg	100
1176.868	1.425	1424.6	regulate	Run2	regulate/STIM_010.jpg	99
1181.755	1.145	1145.1	regulate	Run2	regulate/STIM_010.jpg	99
1185.642	1.932	1931.9	regulate	Run2	regulate/STIM_010.jpg	99
1190.576	1.327	1327.4	regulate	Run2	regulate/STIM_011.jpg	100
1195.718	1.307	1307.3	regulate	Run2	regulate/STIM_011.jpg	99
1200.438	1.66	1659.9	regulate	Run2	regulate/STIM_011.jpg	99
1205.673	1.851	1851.2	regulate	Run2	regulate/STIM_011.jpg	100
1211.304	1.621	1621.0	regulate	Run2	regulate/STIM_012.jpg	99
1215.392	1.184	1183.5	regulate	Run2	regulate/STIM_012.jpg	99
1220.434	2.539	2538.6	regulate	Run2	regulate/STIM_012.jpg	100
1226.684	2.213	2213.4	regulate	Run2	regulate/STIM_012.jpg	99
1231.903	1.981	1981.1	regulate	Run2	regulate/STIM_013.jpg	99
1237.061	2.573	2572.7	regulate	Run2	regulate/STIM_013.jpg	99
1243.304	2.143	2143.2	regulate	Run2	regulate/STIM_013.jpg	100
1247.764	1.351	1350.7	regulate	Run2	regulate/STIM_013.jpg	99
1252.574	2.19	2189.9	regulate	Run2	regulate/STIM_014.jpg	99
1257.375	1.339	1339.0	regulate	Run2	regulate/STIM_014.jpg	100
1262.076	1.242	1242.5	regulate	Run2	regulate/STIM_014.jpg	99
1267.244	1.667	1666.6	regulate	Run2	regulate/STIM_014.jpg	99
1272.732	1.554	1554.3	regulate	Run2	regulate/STIM_015.jpg	99
1277.782	2.363	2362.9	regulate	Run2	regulate/STIM_015.jpg	100
1284.04	1.164	1164.1	regulate	Run2	regulate/STIM_015.jpg	100
1288.714	1.082	1082.0	regulate	Run2	regulate/STIM_015.jpg	100
1293.161	2.341	2341.3	regulate	Run2	regulate/STIM_016.jpg	100
1298.377	2.7	2699.6	regulate	Run2	regulate/STIM_016.jpg	99
1304.597	2.36	2359.7	regulate	Run2	regulate/STIM_016.jpg	99
1309.19	2.187	2187.1	regulate	Run2	regulate/STIM_016.jpg	100
1313.759	1.567	1566.6	regulate	Run2	regulate/STIM_017.jpg	99
1318.389	2.637	2636.8	regulate	Run2	regulate/STIM_017.jpg	99
1323.485	2.428	2428.4	regulate	Run2	regulate/STIM_017.jpg	99
1329.082	1.398	1397.8	regulate	Run2	regulate/STIM_017.jpg	100
1332.957	1.671	1670.7	regulate	Run2	regulate/STIM_018.jpg	99
1337.873	2.465	2464.9	regulate	Run2	regulate/STIM_018.jpg	99
1342.93	2.416	2416.3	regulate	Run2	regulate/STIM_018.jpg	100
1347.536	2.023	2023.0	regulate	Run2	regulate/STIM_018.jpg	100
1352.676	2.501	2500.8	regulate	Run2	regulate/STIM_019.jpg	99
1358.843	1.195	1195.0	regulate	Run2	regulate/STIM_019.jpg	99
1362.292	1.929	1928.8	regulate	Run2	regulate/STIM_019.jpg	100
1366.295	1.95	1949.8	regulate	Run2	regulate/STIM_019.jpg	99
1371.975	1.525	1524.6	regulate	Run2	regulate/STIM_020.jpg	99
1376.765	1.842	1842.5	regulate	Run2	regulate/STIM_020.jpg	100
1382.322	1.215	1214.9	regulate	Run2	regulate/STIM_020.jpg	100
1386.869	2.356	2355.8	regulate	Run2	regulate/STIM_020.jpg	100
1391.601	2.558	2558.4	regulate	Run2	regulate/STIM_021.jpg	100
1398.148	1.485	1485.4	regulate	Run2	regulate/STIM_021.jpg	100
1403.446	2.236	2236.3	regulate	Run2	regulate/STIM_021.jpg	100
1408.852	1.398	1398.4	regulate	Run2	regulate/STIM_021.jpg	100
1413.494	2.298	2298.5	regulate	Run2	regulate/STIM_022.jpg	100
1419.043	1.567	1566.9	regulate	Run2	regulate/STIM_022.jpg	99
1424.294	1.494	1493.6	regulate	Run2	regulate/STIM_022.jpg	99
1429.644	1.089	1088.6	regulate	Run2	regulate/STIM_022.jpg	99
1434.161	2.782	2782.4	regulate	Run2	regulate/STIM_023.jpg	100
1440.244	1.412	1412.2	regulate	Run2	regulate/STIM_023.jpg	99
1445.577	2.167	2166.7	regulate	Run2	regulate/STIM_023.jpg	100
1449.916	2.034	2033.6	regulate	Run2	regulate/STIM_023.jpg	99
1455.427	1.525	1525.2	regulate	Run2	regulate/STIM_024.jpg	100
1459.685	1.468	1467.8	regulate	Run2	regulate/STIM_024.jpg	99
1463.939	2.23	2230.1	regulate	Run2	regulate/STIM_024.jpg	100
1468.553	1.826	1825.8	regulate	Run2	regulate/STIM_024.jpg	99
1474.311	2.54	2539.9	regulate	Run2	regulate/STIM_025.jpg	99
1479.199	1.957	1957.0	regulate	Run2	regulate/STIM_025.jpg	99
1484.986	1.937	1936.9	regulate	Run2	regulate/STIM_025.jpg	99
1490.385	1.354	1354.2	regulate	Run2	regulate/STIM_025.jpg	100
1495.587	2.12	2119.8	regulate	Run2	regulate/STIM_026.jpg	99
1500.977	1.204	1204.2	regulate	Run2	regulate/STIM_026.jpg	99
1505.533	1.488	1488.2	regulate	Run2	regulate/STIM_026.jpg	100
1510.505	1.647	1646.8	regulate	Run2	regulate/STIM_026.jpg	99
1515.703	1.452	1452.4	regulate	Run2	regulate/STIM_027.jpg	100
1520.937	1.425	1424.7	regulate	Run2	regulate/STIM_027.jpg	100
1526.361	1.36	1360.5	regulate	Run2	regulate/STIM_027.jpg	99
1530.179	1.624	1624.0	regulate	Run2	regulate/STIM_027.jpg	99
1534.692	2.638	2638.5	regulate	Run2	regulate/STIM_028.jpg	99
1539.875	1.472	1472.2	regulate	Run2	regulate/STIM_028.jpg	100
1544.437	2.217	2216.8	regulate	Run2	regulate/STIM_028.jpg	100
1550.017	1.356	1355.6	regulate	Run2	regulate/STIM_028.jpg	100
1554.347	1.36	1360.0	regulate	Run2	regulate/STIM_029.jpg	99
1559.108	2.052	2052.0	regulate	Run2	regulate/STIM_029.jpg	99
1563.346	1.546	1545.5	regulate	Run2	regulate/STIM_029.jpg	100
1568.567	1.951	1950.6	regulate	Run2	regulate/STIM_029.jpg	99
1574.35	1.557	1556.9	observe	Run2	observe/STIM_000.jpg	99
1579.151	0.799	798.7	observe	Run2	observe/STIM_000.jpg	100
1582.474	1.436	1435.9	observe	Run2	observe/STIM_000.jpg	99
1586.159	1.348	1347.9	observe	Run2	observe/STIM_000.jpg	100
1591.094	1.266	1265.6	observe	Run2	observe/STIM_001.jpg	99
1595.655	1.489	1488.8	observe	Run2	observe/STIM_001.jpg	100
1599.908	1.304	1303.5	observe	Run2	observe/STIM_001.jpg	99
1604.074	1.041	1040.8	observe	Run2	observe/STIM_001.jpg	100
1608.606	1.307	1306.8	observe	Run2	observe/STIM_002.jpg	100
1612.908	0.946	945.9	observe	Run2	observe/STIM_002.jpg	100
1617.84	1.49	1490.1	observe	Run2	observe/STIM_002.jpg	99
1621.877	1.566	1566.5	observe	Run2	observe/STIM_002.jpg	100
1625.664	1.493	1493.1	observe	Run2	observe/STIM_003.jpg	99
1630.555	1.326	1325.9	observe	Run2	observe/STIM_003.jpg	99
1635.276	1.543	1543.3	observe	Run2	observe/STIM_003.jpg	99
1639.132	1.219	1218.9	observe	Run2	observe/STIM_003.jpg	100
1644.171	1.123	1123.4	observe	Run2	observe/STIM_004.jpg	100
1647.582	1.468	1468.1	observe	Run2	observe/STIM_004.jpg	100
1651.089	1.1	1099.8	observe	Run2	observe/STIM_004.jpg	100
1655.418	1.498	1497.9	observe	Run2	observe/STIM_004.jpg	99
1659.409	1.037	1036.9	observe	Run2	observe/STIM_005.jpg	100
1662.594	1.494	1493.6	observe	Run2	observe/STIM_005.jpg	100
1666.86	1.051	1050.8	observe	Run2	observe/STIM_005.jpg	99
1669.916	0.963	962.9	observe	Run2	observe/STIM_005.jpg	100
1672.985	1.328	1327.9	observe	Run2	observe/STIM_006.jpg	100
1676.927	1.201	1200.8	observe	Run2	observe/STIM_006.jpg	100
1680.278	1.461	1460.8	observe	Run2	observe/STIM_006.jpg	100
1684.207	0.876	875.8	observe	Run2	observe/STIM_006.jpg	99
1689.066	0.98	979.5	observe	Run2	observe/STIM_007.jpg	100
1692.479	1.344	1344.3	observe	Run2	observe/STIM_007.jpg	100
1697.391	1.382	1382.0	observe	Run2	observe/STIM_007.jpg	100
1701.843	1.3	1299.7	observe	Run2	observe/STIM_007.jpg	100
1705.541	0.961	961.0	observe	Run2	observe/STIM_008.jpg	99
1710.204	1.552	1552.2	observe	Run2	observe/STIM_008.jpg	99
1715.718	1.11	1110.3	observe	Run2	observe/STIM_008.jpg	100
1719.569	1.002	1002.0	observe	Run2	observe/STIM_008.jpg	99
1724.182	1.146	1145.8	observe	Run2	observe/STIM_009.jpg	100
1727.561	1.324	1323.7	observe	Run2	observe/STIM_009.jpg	99
1731.154	1.063	1062.8	observe	Run2	observe/STIM_009.jpg	99
1736.113	1.523	1523.4	observe	Run2	observe/STIM_009.jpg	99
1740.495	1.112	1112.2	observe	Run2	observe/STIM_010.jpg	100
1745.449	1.34	1339.7	observe	Run2	observe/STIM_010.jpg	99
1749.453	0.946	946.2	observe	Run2	observe/STIM_010.jpg	100
1753.196	1.249	1248.6	observe	Run2	observe/STIM_010.jpg	99
1758.405	1.069	1068.9	observe	Run2	observe/STIM_011.jpg	99
1762.271	1.501	1501.3	observe	Run2	observe/STIM_011.jpg	100
1766.272	1.254	1254.2	observe	Run2	observe/STIM_011.jpg	99
1769.628	0.848	847.8	observe	Run2	observe/STIM_011.jpg	100
1773.853	1.424	1424.1	observe	Run2	observe/STIM_012.jpg	100
1779.225	0.942	942.2	observe	Run2	observe/STIM_012.jpg	99
1783.604	1.074	1074.2	observe	Run2	observe/STIM_012.jpg	100
1788.366	1.041	1040.6	observe	Run2	observe/STIM_012.jpg	100
1791.963	1.344	1343.5	observe	Run2	observe/STIM_013.jpg	100
1795.832	1.454	1454.2	observe	Run2	observe/STIM_013.jpg	99
1800.236	0.837	837.4	observe	Run2	observe/STIM_013.jpg	99
1804.659	0.793	793.4	observe	Run2	observe/STIM_013.jpg	99
1809.095	1.508	1508.4	observe	Run2	observe/STIM_014.jpg	99
1813.828	0.987	987.0	observe	Run2	observe/STIM_014.jpg	99
1817.041	1.407	1406.8	observe	Run2	observe/STIM_014.jpg	99
1822.316	1.414	1414.2	observe	Run2	observe/STIM_014.jpg	99
1826.879	1.196	1195.7	observe	Run2	observe/STIM_015.jpg	99
1830.119	1.481	1480.8	observe	Run2	observe/STIM_015.jpg	100
1833.85	0.828	828.2	observe	Run2	observe/STIM_015.jpg	99
1837.731	1.003	1003.0	observe	Run2	observe/STIM_015.jpg	99
1840.985	0.848	848.0	observe	Run2	observe/STIM_016.jpg	100
1845.631	0.839	839.3	observe	Run2	observe/STIM_016.jpg	99
1849.959	0.85	849.9	observe	Run2	observe/STIM_016.jpg	99
1853.756	1.294	1294.5	observe	Run2	observe/STIM_016.jpg	100
1857.059	0.984	983.8	observe	Run2	observe/STIM_017.jpg	99
1860.7	1.024	1024.2	observe	Run2	observe/STIM_017.jpg	100
1865.071	1.21	1209.6	observe	Run2	observe/STIM_017.jpg	99
1868.718	1.099	1098.8	observe	Run2	observe/STIM_017.jpg	99
1873.008	1.56	1560.1	observe	Run2	observe/STIM_018.jpg	100
1878.169	1.201	1201.1	observe	Run2	observe/STIM_018.jpg	99
1881.901	1.2	1199.9	observe	Run2	observe/STIM_018.jpg	100
1885.747	1.195	1195.0	observe	Run2	observe/STIM_018.jpg	100
1889.66	1.063	1063.4	observe	Run2	observe/STIM_019.jpg	99
1893.059	1.088	1088.1	observe	Run2	observe/STIM_019.jpg	99
1897.865	1.033	1032.7	observe	Run2	observe/STIM_019.jpg	100
1901.38	1.272	1272.4	observe	Run2	observe/STIM_019.jpg	99
1905.013	1.232	1231.8	regulate	Run3	regulate/STIM_000.jpg	99
1908.525	1.38	1379.7	regulate	Run3	regulate/STIM_000.jpg	100
1912.773	2.157	2157.1	regulate	Run3	regulate/STIM_000.jpg	99
1918.56	2.268	2268.1	regulate	Run3	regulate/STIM_000.jpg	100
1923.694	1.387	1386.8	regulate	Run3	regulate/STIM_001.jpg	99
1927.886	1.531	1530.6	regulate	Run3	regulate/STIM_001.jpg	99
1933.001	1.446	1445.6	regulate	Run3	regulate/STIM_001.jpg	99
1937.031	1.751	1751.4	regulate	Run3	regulate/STIM_001.jpg	99
1942.757	2.208	2208.2	regulate	Run3	regulate/STIM_002.jpg	99
1948.512	1.185	1184.7	regulate	Run3	regulate/STIM_002.jpg	99
1952.662	1.635	1635.4	regulate	Run3	regulate/STIM_002.jpg	100
1958.265	1.367	1366.9	regulate	Run3	regulate/STIM_002.jpg	100
1962.952	2.248	2247.9	regulate	Run3	regulate/STIM_003.jpg	100
1967.337	1.462	1461.5	regulate	Run3	regulate/STIM_003.jpg	100
1972.656	1.536	1535.8	regulate	Run3	regulate/STIM_003.jpg	100
1977.678	1.688	1688.0	regulate	Run3	regulate/STIM_003.jpg	99
1982.417	1.911	1911.0	regulate	Run3	regulate/STIM_004.jpg	100
1986.992	1.356	1355.7	regulate	Run3	regulate/STIM_004.jpg	99
1991.468	1.214	1214.3	regulate	Run3	regulate/STIM_004.jpg	99
1996.009	1.888	1887.9	regulate	Run3	regulate/STIM_004.jpg	100
2000.619	1.815	1815.1	regulate	Run3	regulate/STIM_005.jpg	100
2004.473	1.153	1152.8	regulate	Run3	regulate/STIM_005.jpg	99
2009.521	1.98	1980.2	regulate	Run3	regulate/STIM_005.jpg	99
2013.763	2.198	2198.3	regulate	Run3	regulate/STIM_005.jpg	100
2018.329	2.4	2400.0	regulate	Run3	regulate/STIM_006.jpg	100
2022.73	1.314	1313.6	regulate	Run3	regulate/STIM_006.jpg	100
2027.759	2.164	2163.6	regulate	Run3	regulate/STIM_006.jpg	99
2032.623	1.252	1251.6	regulate	Run3	regulate/STIM_006.jpg	100
2037.693	1.561	1561.2	regulate	Run3	regulate/STIM_007.jpg	100
2041.578	1.631	1631.1	regulate	Run3	regulate/STIM_007.jpg	99
2045.718	1.047	1046.7	regulate	Run3	regulate/STIM_007.jpg	99
2050.094	1.663	1662.6	regulate	Run3	regulate/STIM_007.jpg	99
2055.373	2.274	2274.3	regulate	Run3	regulate/STIM_008.jpg	99
2060.868	2.05	2050.2	regulate	Run3	regulate/STIM_008.jpg	99
2066.135	2.235	2235.3	regulate	Run3	regulate/STIM_008.jpg	99
2070.661	2.076	2076.1	regulate	Run3	regulate/STIM_008.jpg	100
2076.091	1.852	1852.1	regulate	Run3	regulate/STIM_009.jpg	100
2080.798	1.841	1840.7	regulate	Run3	regulate/STIM_009.jpg	100
2085.373	2.292	2291.9	regulate	Run3	regulate/STIM_009.jpg	100
2091.37	1.499	1498.7	regulate	Run3	regulate/STIM_009.jpg	99
2096.185	1.49	1490.0	regulate	Run3	regulate/STIM_010.jpg	99
2100.942	1.396	1395.6	regulate	Run3	regulate/STIM_010.jpg	99
2104.818	1.22	1220.4	regulate	Run3	regulate/STIM_010.jpg	99
2108.415	2.0	2000.4	regulate	Run3	regulate/STIM_010.jpg	99
2113.681	1.418	1418.3	regulate	Run3	regulate/STIM_011.jpg	100
2118.156	2.035	2035.1	regulate	Run3	regulate/STIM_011.jpg	99
2123.396	2.135	2135.3	regulate	Run3	regulate/STIM_011.jpg	100
2128.283	1.248	1247.8	regulate	Run3	regulate/STIM_011.jpg	100
2132.477	2.345	2344.9	regulate	Run3	regulate/STIM_012.jpg	99
2138.372	2.227	2227.1	regulate	Run3	regulate/STIM_012.jpg	99
2142.737	1.962	1962.1	regulate	Run3	regulate/STIM_012.jpg	100
2147.708	2.046	2046.2	regulate	Run3	regulate/STIM_012.jpg	100
2152.342	1.653	1653.4	regulate	Run3	regulate/STIM_013.jpg	99
2156.261	1.088	1088.4	regulate	Run3	regulate/STIM_013.jpg	99
2160.943	1.367	1367.2	regulate	Run3	regulate/STIM_013.jpg	100
2165.089	1.317	1316.6	regulate	Run3	regulate/STIM_013.jpg	100
2169.375	2.014	2013.7	regulate	Run3	regulate/STIM_014.jpg	99
2174.595	1.853	1853.2	regulate	Run3	regulate/STIM_014.jpg	100
2179.1	1.894	1893.9	regulate	Run3	regulate/STIM_014.jpg	99
2184.837	1.9	1899.6	regulate	Run3	regulate/STIM_014.jpg	99
2189.352	1.353	1353.1	regulate	Run3	regulate/STIM_015.jpg	100
2193.63	1.558	1558.3	regulate	Run3	regulate/STIM_015.jpg	100
2197.538	1.192	1192.1	regulate	Run3	regulate/STIM_015.jpg	99
2201.489	1.536	1535.6	regulate	Run3	regulate/STIM_015.jpg	100
2205.253	2.071	2071.4	regulate	Run3	regulate/STIM_016.jpg	100
2209.445	1.731	1731.1	regulate	Run3	regulate/STIM_016.jpg	100
2213.546	2.376	2375.7	regulate	Run3	regulate/STIM_016.jpg	99
2218.039	1.63	1630.3	regulate	Run3	regulate/STIM_016.jpg	100
2222.035	1.482	1482.0	regulate	Run3	regulate/STIM_017.jpg	99
2226.534	1.919	1919.0	regulate	Run3	regulate/STIM_017.jpg	99
2231.465	1.118	1117.8	regulate	Run3	regulate/STIM_017.jpg	99
2235.987	1.283	1283.0	regulate	Run3	regulate/STIM_017.jpg	99
2240.632	1.558	1557.6	regulate	Run3	regulate/STIM_018.jpg	99
2245.229	2.038	2037.6	regulate	Run3	regulate/STIM_018.jpg	100
2251.068	2.149	2149.2	regulate	Run3	regulate/STIM_018.jpg	100
2255.76	2.33	2330.1	regulate	Run3	regulate/STIM_018.jpg	100
2261.327	2.047	2047.5	regulate	Run3	regulate/STIM_019.jpg	100
2265.586	1.312	1312.2	regulate	Run3	regulate/STIM_019.jpg	99
2269.118	2.115	2115.4	regulate	Run3	regulate/STIM_019.jpg	100
2273.637	1.659	1659.0	regulate	Run3	regulate/STIM_019.jpg	99
2278.917	1.373	1373.0	regulate	Run3	regulate/STIM_020.jpg	99
2283.954	1.998	1997.8	regulate	Run3	regulate/STIM_020.jpg	100
2288.499	2.305	2305.4	regulate	Run3	regulate/STIM_020.jpg	99
2293.955	2.09	2089.6	regulate	Run3	regulate/STIM_020.jpg	100
2298.047	2.389	2388.7	regulate	Run3	regulate/STIM_021.jpg	99
2304.073	1.622	1622.4	regulate	Run3	regulate/STIM_021.jpg	99
2308.03	1.704	1704.1	regulate	Run3	regulate/STIM_021.jpg	99
2312.84	1.215	1214.7	regulate	Run3	regulate/STIM_021.jpg	100
2317.537	1.143	1143.4	regulate	Run3	regulate/STIM_022.jpg	99
2321.943	1.978	1977.6	regulate	Run3	regulate/STIM_022.jpg	100
2327.86	1.85	1849.7	regulate	Run3	regulate/STIM_022.jpg	99
2332.347	1.776	1775.6	regulate	Run3	regulate/STIM_022.jpg	100
2337.464	1.265	1265.2	regulate	Run3	regulate/STIM_023.jpg	99
2341.669	1.707	1706.7	regulate	Run3	regulate/STIM_023.jpg	99
2347.261	2.0	1999.9	regulate	Run3	regulate/STIM_023.jpg	100
2352.505	2.394	2394.5	regulate	Run3	regulate/STIM_023.jpg	100
2358.059	1.942	1941.7	regulate	Run3	regulate/STIM_024.jpg	100
2362.888	2.033	2032.7	regulate	Run3	regulate/STIM_024.jpg	100
2368.912	1.949	1949.3	regulate	Run3	regulate/STIM_024.jpg	100
2373.427	1.214	1213.6	regulate	Run3	regulate/STIM_024.jpg	100
2377.448	2.245	2244.7	regulate	Run3	regulate/STIM_025.jpg	99
2383.25	2.361	2361.1	regulate	Run3	regulate/STIM_025.jpg	99
2388.186	1.276	1276.3	regulate	Run3	regulate/STIM_025.jpg	100
2391.614	2.07	2070.3	regulate	Run3	regulate/STIM_025.jpg	99
2397.242	1.628	1628.2	regulate	Run3	regulate/STIM_026.jpg	100
2401.172	1.352	1351.9	regulate	Run3	regulate/STIM_026.jpg	100
2405.803	1.966	1965.8	regulate	Run3	regulate/STIM_026.jpg	99
2410.842	1.519	1518.6	regulate	Run3	regulate/STIM_026.jpg	100
2414.549	2.045	2044.7	regulate	Run3	regulate/STIM_027.jpg	99
2419.942	1.521	1520.7	regulate	Run3	regulate/STIM_027.jpg	100
2424.519	1.788	1787.6	regulate	Run3	regulate/STIM_027.jpg	99
2429.109	1.612	1611.6	regulate	Run3	regulate/STIM_027.jpg	99
2434.27	2.204	2203.7	regulate	Run3	regulate/STIM_028.jpg	100
2440.453	1.187	1187.1	regulate	Run3	regulate/STIM_028.jpg	99
2444.736	2.266	2266.2	regulate	Run3	regulate/STIM_028.jpg	100
2449.027	1.778	1778.1	regulate	Run3	regulate/STIM_028.jpg	100
2454.427	2.287	2286.9	regulate	Run3	regulate/STIM_029.jpg	100
2460.611	1.802	1802.2	regulate	Run3	regulate/STIM_029.jpg	100
2464.792	1.464	1464.4	regulate	Run3	regulate/STIM_029.jpg	99
2468.503	1.717	1716.7	regulate	Run3	regulate/STIM_029.jpg	100
2472.402	1.376	1376.3	observe	Run3	observe/STIM_000.jpg	100
2476.839	0.938	937.5	observe	Run3	observe/STIM_000.jpg	100
2481.552	0.963	963.3	observe	Run3	observe/STIM_000.jpg	100
2485.757	0.985	985.4	observe	Run3	observe/STIM_000.jpg	99
2489.385	1.099	1099.4	observe	Run3	observe/STIM_001.jpg	100
2493.15	0.913	913.3	observe	Run3	observe/STIM_001.jpg	100
2498.042	0.826	825.6	observe	Run3	observe/STIM_001.jpg	99
2501.888	1.42	1419.6	observe	Run3	observe/STIM_001.jpg	100
2505.969	0.809	809.0	observe	Run3	observe/STIM_002.jpg	100
2509.305	1.319	1319.1	observe	Run3	observe/STIM_002.jpg	99
2513.511	1.278	1277.6	observe	Run3	observe/STIM_002.jpg	100
2518.301	1.223	1223.1	observe	Run3	observe/STIM_002.jpg	99
2522.935	0.892	892.1	observe	Run3	observe/STIM_003.jpg	99
2526.906	1.319	1319.3	observe	Run3	observe/STIM_003.jpg	100
2531.73	1.394	1394.1	observe	Run3	observe/STIM_003.jpg	100
2537.108	1.033	1033.4	observe	Run3	observe/STIM_003.jpg	100
2540.916	1.481	1481.1	observe	Run3	observe/STIM_004.jpg	100
2546.236	1.064	1063.8	observe	Run3	observe/STIM_004.jpg	100
2549.606	0.942	942.4	observe	Run3	observe/STIM_004.jpg	99
2553.44	1.263	1263.3	observe	Run3	observe/STIM_004.jpg	100
2557.279	0.853	852.9	observe	Run3	observe/STIM_005.jpg	99
2561.16	1.078	1078.3	observe	Run3	observe/STIM_005.jpg	99
2564.632	1.4	1400.4	observe	Run3	observe/STIM_005.jpg	100
2568.96	1.068	1068.2	observe	Run3	observe/STIM_005.jpg	99
2572.647	0.942	942.5	observe	Run3	observe/STIM_006.jpg	99
2576.106	1.564	1564.1	observe	Run3	observe/STIM_006.jpg	99
2580.988	1.225	1225.2	observe	Run3	observe/STIM_006.jpg	100
2584.739	1.519	1518.9	observe	Run3	observe/STIM_006.jpg	99
2589.233	1.195	1195.3	observe	Run3	observe/STIM_007.jpg	99
2592.727	1.38	1379.7	observe	Run3	observe/STIM_007.jpg	100
2597.763	1.294	1294.3	observe	Run3	observe/STIM_007.jpg	99
2601.146	1.476	1476.3	observe	Run3	observe/STIM_007.jpg	100
2605.235	0.825	824.8	observe	Run3	observe/STIM_008.jpg	99
2609.889	1.032	1032.1	observe	Run3	observe/STIM_008.jpg	100
2613.913	1.26	1259.9	observe	Run3	observe/STIM_008.jpg	100
2617.305	1.232	1232.0	observe	Run3	observe/STIM_008.jpg	100
2621.511	1.07	1070.2	observe	Run3	observe/STIM_009.jpg	99
2626.321	1.262	1262.3	observe	Run3	observe/STIM_009.jpg	100
2630.322	1.067	1066.9	observe	Run3	observe/STIM_009.jpg	99
2635.175	1.217	1217.0	observe	Run3	observe/STIM_009.jpg	99
2639.413	1.343	1343.1	observe	Run3	observe/STIM_010.jpg	100
2643.304	1.264	1264.0	observe	Run3	observe/STIM_010.jpg	99
2647.63	1.532	1532.4	observe	Run3	observe/STIM_010.jpg	100
2652.835	0.995	994.6	observe	Run3	observe/STIM_010.jpg	99
2657.457	0.97	970.1	observe	Run3	observe/STIM_011.jpg	99
2661.621	1.298	1298.1	observe	Run3	observe/STIM_011.jpg	100
2664.969	0.926	926.0	observe	Run3	observe/STIM_011.jpg	100
2668.99	0.872	872.1	observe	Run3	observe/STIM_011.jpg	99
2673.721	1.367	1367.4	observe	Run3	observe/STIM_012.jpg	100
2678.444	1.361	1361.3	observe	Run3	observe/STIM_012.jpg	99
2682.875	0.786	785.6	observe	Run3	observe/STIM_012.jpg	99
2685.989	1.231	1230.6	observe	Run3	observe/STIM_012.jpg	99
2689.356	0.806	805.8	observe	Run3	observe/STIM_013.jpg	99
2693.013	1.136	1135.6	observe	Run3	observe/STIM_013.jpg	99
2698.116	1.179	1178.9	observe	Run3	observe/STIM_013.jpg	99
2703.02	1.264	1264.4	observe	Run3	observe/STIM_013.jpg	99
2706.387	1.399	1399.0	observe	Run3	observe/STIM_014.jpg	100
2711.372	1.012	1012.4	observe	Run3	observe/STIM_014.jpg	99
2714.409	1.56	1560.4	observe	Run3	observe/STIM_014.jpg	99
2719.495	1.165	1165.0	observe	Run3	observe/STIM_014.jpg	99
2724.623	1.366	1366.3	observe	Run3	observe/STIM_015.jpg	99
2729.169	1.535	1534.6	observe	Run3	observe/STIM_015.jpg	99
2733.599	0.844	844.5	observe	Run3	observe/STIM_015.jpg	100
2736.735	1.52	1519.9	observe	Run3	observe/STIM_015.jpg	99
2740.757	1.313	1313.2	observe	Run3	observe/STIM_016.jpg	100
2744.357	1.469	1469.4	observe	Run3	observe/STIM_016.jpg	100
2748.086	1.18	1180.5	observe	Run3	observe/STIM_016.jpg	99
2752.8	1.31	1310.5	observe	Run3	observe/STIM_016.jpg	100
2757.435	0.816	816.5	observe	Run3	observe/STIM_017.jpg	100
2761.035	1.277	1276.8	observe	Run3	observe/STIM_017.jpg	99
2765.427	1.384	1384.5	observe	Run3	observe/STIM_017.jpg	99
2770.038	1.519	1519.4	observe	Run3	observe/STIM_017.jpg	100
2774.136	1.494	1494.5	observe	Run3	observe/STIM_018.jpg	99
2778.822	0.801	800.8	observe	Run3	observe/STIM_018.jpg	100
2783.063	0.804	804.3	observe	Run3	observe/STIM_018.jpg	100
2786.438	1.102	1102.5	observe	Run3	observe/STIM_018.jpg	100
2790.926	1.497	1497.4	observe	Run3	observe/STIM_019.jpg	100
2795.95	0.934	934.2	observe	Run3	observe/STIM_019.jpg	100
2800.532	1.424	1423.8	observe	Run3	observe/STIM_019.jpg	99
2804.03	1.116	1115.8	observe	Run3	observe/STIM_019.jpg	100
