onset	duration	accuracy_binary	trial_type	learning_stage	stimulus
0.0	2.298	1	regulate	Run1	regulate/STIM_000.jpg
4.361	1.398	1	regulate	Run1	regulate/STIM_000.jpg
9.365	2.024	1	regulate	Run1	regulate/STIM_000.jpg
15.231	1.888	1	regulate	Run1	regulate/STIM_000.jpg
19.877	2.786	1	regulate	Run1	regulate/STIM_001.jpg
25.926	3.175	1	regulate	Run1	regulate/STIM_001.jpg
32.367	1.815	1	regulate	Run1	regulate/STIM_001.jpg
36.753	1.84	1	regulate	Run1	regulate/STIM_001.jpg
41.585	1.926	1	regulate	Run1	regulate/STIM_002.jpg
46.459	1.924	0	regulate	Run1	regulate/STIM_002.jpg
50.666	1.34	1	regulate	Run1	regulate/STIM_002.jpg
54.171	2.761	1	regulate	Run1	regulate/STIM_002.jpg
60.494	3.187	1	regulate	Run1	regulate/STIM_003.jpg
66.703	2.549	1	regulate	Run1	regulate/STIM_003.jpg
72.926	1.782	0	regulate	Run1	regulate/STIM_003.jpg
77.933	1.282	1	regulate	Run1	regulate/STIM_003.jpg
82.534	2.564	1	regulate	Run1	regulate/STIM_004.jpg
88.774	2.716	1	regulate	Run1	regulate/STIM_004.jpg
94.685	2.026	1	regulate	Run1	regulate/STIM_004.jpg
100.46	1.987	1	regulate	Run1	regulate/STIM_004.jpg
105.246	1.675	0	regulate	Run1	regulate/STIM_005.jpg
110.632	1.41	1	regulate	Run1	regulate/STIM_005.jpg
115.552	1.378	1	regulate	Run1	regulate/STIM_005.jpg
119.572	2.778	0	regulate	Run1	regulate/STIM_005.jpg
125.68	2.785	1	regulate	Run1	regulate/STIM_006.jpg
131.817	3.079	1	regulate	Run1	regulate/STIM_006.jpg
137.724	2.955	1	regulate	Run1	regulate/STIM_006.jpg
144.556	1.91	1	regulate	Run1	regulate/STIM_006.jpg
149.161	2.391	1	regulate	Run1	regulate/STIM_007.jpg
154.655	2.052	0	regulate	Run1	regulate/STIM_007.jpg
160.593	1.333	1	regulate	Run1	regulate/STIM_007.jpg
164.368	2.431	1	regulate	Run1	regulate/STIM_007.jpg
170.035	2.836	0	regulate	Run1	regulate/STIM_008.jpg
176.589	3.024	1	regulate	Run1	regulate/STIM_008.jpg
183.393	1.689	1	regulate	Run1	regulate/STIM_008.jpg
188.854	1.894	1	regulate	Run1	regulate/STIM_008.jpg
194.253	2.202	0	regulate	Run1	regulate/STIM_009.jpg
198.51	2.662	1	regulate	Run1	regulate/STIM_009.jpg
204.504	2.872	1	regulate	Run1	regulate/STIM_009.jpg
211.286	2.042	1	regulate	Run1	regulate/STIM_009.jpg
216.479	3.303	1	regulate	Run1	regulate/STIM_010.jpg
222.062	1.922	0	regulate	Run1	regulate/STIM_010.jpg
226.707	1.886	0	regulate	Run1	regulate/STIM_010.jpg
232.378	2.219	0	regulate	Run1	regulate/STIM_010.jpg
238.124	3.232	1	regulate	Run1	regulate/STIM_011.jpg
243.666	3.121	1	regulate	Run1	regulate/STIM_011.jpg
250.722	2.413	1	regulate	Run1	regulate/STIM_011.jpg
256.416	2.044	0	regulate	Run1	regulate/STIM_011.jpg
260.482	2.382	0	regulate	Run1	regulate/STIM_012.jpg
266.504	2.071	1	regulate	Run1	regulate/STIM_012.jpg
271.074	2.156	1	regulate	Run1	regulate/STIM_012.jpg
276.797	1.826	0	regulate	Run1	regulate/STIM_012.jpg
282.21	2.068	0	regulate	Run1	regulate/STIM_013.jpg
288.058	2.747	1	regulate	Run1	regulate/STIM_013.jpg
294.257	2.429	1	regulate	Run1	regulate/STIM_013.jpg
299.621	1.939	0	regulate	Run1	regulate/STIM_013.jpg
304.246	3.124	1	regulate	Run1	regulate/STIM_014.jpg
311.225	2.83	0	regulate	Run1	regulate/STIM_014.jpg
317.038	1.792	0	regulate	Run1	regulate/STIM_014.jpg
322.64	1.886	0	regulate	Run1	regulate/STIM_014.jpg
328.216	2.546	1	regulate	Run1	regulate/STIM_015.jpg
332.934	2.028	0	regulate	Run1	regulate/STIM_015.jpg
337.308	2.498	1	regulate	Run1	regulate/STIM_015.jpg
342.756	1.722	1	regulate	Run1	regulate/STIM_015.jpg
348.357	2.941	1	regulate	Run1	regulate/STIM_016.jpg
354.87	1.418	1	regulate	Run1	regulate/STIM_016.jpg
359.776	2.929	1	regulate	Run1	regulate/STIM_016.jpg
365.4	2.759	1	regulate	Run1	regulate/STIM_016.jpg
371.607	2.555	1	regulate	Run1	regulate/STIM_017.jpg
377.475	3.094	1	regulate	Run1	regulate/STIM_017.jpg
383.858	2.572	1	regulate	Run1	regulate/STIM_017.jpg
389.929	1.824	1	regulate	Run1	regulate/STIM_017.jpg
394.989	3.079	1	regulate	Run1	regulate/STIM_018.jpg
400.613	2.913	1	regulate	Run1	regulate/STIM_018.jpg
407.136	1.823	1	regulate	Run1	regulate/STIM_018.jpg
411.83	1.723	1	regulate	Run1	regulate/STIM_018.jpg
417.453	1.844	1	regulate	Run1	regulate/STIM_019.jpg
422.705	2.84	1	regulate	Run1	regulate/STIM_019.jpg
428.217	2.754	1	regulate	Run1	regulate/STIM_019.jpg
434.201	2.362	1	regulate	Run1	regulate/STIM_019.jpg
440.212	1.674	1	regulate	Run1	regulate/STIM_020.jpg
443.913	2.276	1	regulate	Run1	regulate/STIM_020.jpg
449.887	1.93	1	regulate	Run1	regulate/STIM_020.jpg
454.752	1.762	1	regulate	Run1	regulate/STIM_020.jpg
459.191	2.613	1	regulate	Run1	regulate/STIM_021.jpg
464.828	2.476	1	regulate	Run1	regulate/STIM_021.jpg
471.222	1.435	1	regulate	Run1	regulate/STIM_021.jpg
476.254	1.376	1	regulate	Run1	regulate/STIM_021.jpg
481.39	2.071	1	regulate	Run1	regulate/STIM_022.jpg
487.008	2.384	1	regulate	Run1	regulate/STIM_022.jpg
491.915	2.223	1	regulate	Run1	regulate/STIM_022.jpg
496.537	1.974	1	regulate	Run1	regulate/STIM_022.jpg
501.336	2.044	0	regulate	Run1	regulate/STIM_023.jpg
506.333	2.876	1	regulate	Run1	regulate/STIM_023.jpg
511.299	2.228	1	regulate	Run1	regulate/STIM_023.jpg
516.856	1.36	1	regulate	Run1	regulate/STIM_023.jpg
520.762	2.344	0	regulate	Run1	regulate/STIM_024.jpg
525.662	2.084	0	regulate	Run1	regulate/STIM_024.jpg
531.114	1.785	1	regulate	Run1	regulate/STIM_024.jpg
536.172	2.782	0	regulate	Run1	regulate/STIM_024.jpg
541.159	1.618	0	regulate	Run1	regulate/STIM_025.jpg
545.133	2.16	1	regulate	Run1	regulate/STIM_025.jpg
549.914	2.694	1	regulate	Run1	regulate/STIM_025.jpg
555.77	1.957	0	regulate	Run1	regulate/STIM_025.jpg
560.765	1.859	1	regulate	Run1	regulate/STIM_026.jpg
565.827	2.916	0	regulate	Run1	regulate/STIM_026.jpg
571.751	1.504	0	regulate	Run1	regulate/STIM_026.jpg
576.695	1.763	1	regulate	Run1	regulate/STIM_026.jpg
581.663	1.657	1	regulate	Run1	regulate/STIM_027.jpg
586.526	2.437	1	regulate	Run1	regulate/STIM_027.jpg
592.052	1.391	1	regulate	Run1	regulate/STIM_027.jpg
595.597	1.815	1	regulate	Run1	regulate/STIM_027.jpg
599.477	1.478	1	regulate	Run1	regulate/STIM_028.jpg
604.569	1.596	1	regulate	Run1	regulate/STIM_028.jpg
609.838	2.35	1	regulate	Run1	regulate/STIM_028.jpg
615.813	1.505	0	regulate	Run1	regulate/STIM_028.jpg
619.986	3.136	1	regulate	Run1	regulate/STIM_029.jpg
626.18	2.849	1	regulate	Run1	regulate/STIM_029.jpg
632.534	2.061	0	regulate	Run1	regulate/STIM_029.jpg
636.831	1.825	1	regulate	Run1	regulate/STIM_029.jpg
641.16	0.981	1	observe	Run1	observe/STIM_000.jpg
646.094	1.515	0	observe	Run1	observe/STIM_000.jpg
649.906	1.158	0	observe	Run1	observe/STIM_000.jpg
653.704	1.55	1	observe	Run1	observe/STIM_000.jpg
657.261	1.52	1	observe	Run1	observe/STIM_001.jpg
661.646	1.297	1	observe	Run1	observe/STIM_001.jpg
666.089	0.883	1	observe	Run1	observe/STIM_001.jpg
669.909	1.453	1	observe	Run1	observe/STIM_001.jpg
674.272	1.279	1	observe	Run1	observe/STIM_002.jpg
679.132	1.447	1	observe	Run1	observe/STIM_002.jpg
683.432	0.82	1	observe	Run1	observe/STIM_002.jpg
687.537	1.158	1	observe	Run1	observe/STIM_002.jpg
692.267	0.859	1	observe	Run1	observe/STIM_003.jpg
697.022	1.173	1	observe	Run1	observe/STIM_003.jpg
700.644	1.108	1	observe	Run1	observe/STIM_003.jpg
704.317	1.165	1	observe	Run1	observe/STIM_003.jpg
708.217	1.262	1	observe	Run1	observe/STIM_004.jpg
713.446	1.087	1	observe	Run1	observe/STIM_004.jpg
718.002	1.32	1	observe	Run1	observe/STIM_004.jpg
722.081	1.264	1	observe	Run1	observe/STIM_004.jpg
726.348	1.258	0	observe	Run1	observe/STIM_005.jpg
729.662	0.796	1	observe	Run1	observe/STIM_005.jpg
733.672	1.128	1	observe	Run1	observe/STIM_005.jpg
738.702	1.248	1	observe	Run1	observe/STIM_005.jpg
742.035	1.169	1	observe	Run1	observe/STIM_006.jpg
746.445	1.019	1	observe	Run1	observe/STIM_006.jpg
751.238	1.296	1	observe	Run1	observe/STIM_006.jpg
755.151	1.312	1	observe	Run1	observe/STIM_006.jpg
759.005	1.312	1	observe	Run1	observe/STIM_007.jpg
764.167	1.454	1	observe	Run1	observe/STIM_007.jpg
769.333	1.467	1	observe	Run1	observe/STIM_007.jpg
773.758	0.942	1	observe	Run1	observe/STIM_007.jpg
777.888	1.292	1	observe	Run1	observe/STIM_008.jpg
781.44	0.954	0	observe	Run1	observe/STIM_008.jpg
785.438	1.534	1	observe	Run1	observe/STIM_008.jpg
789.785	1.458	0	observe	Run1	observe/STIM_008.jpg
793.652	0.969	1	observe	Run1	observe/STIM_009.jpg
796.771	0.844	1	observe	Run1	observe/STIM_009.jpg
801.366	1.463	1	observe	Run1	observe/STIM_009.jpg
806.78	1.354	1	observe	Run1	observe/STIM_009.jpg
810.196	0.921	1	observe	Run1	observe/STIM_010.jpg
813.464	1.417	1	observe	Run1	observe/STIM_010.jpg
818.082	0.908	1	observe	Run1	observe/STIM_010.jpg
822.649	1.532	1	observe	Run1	observe/STIM_010.jpg
827.518	1.161	1	observe	Run1	observe/STIM_011.jpg
831.15	0.832	1	observe	Run1	observe/STIM_011.jpg
834.688	0.883	1	observe	Run1	observe/STIM_011.jpg
839.393	1.003	1	observe	Run1	observe/STIM_011.jpg
843.863	0.995	1	observe	Run1	observe/STIM_012.jpg
847.645	0.794	1	observe	Run1	observe/STIM_012.jpg
851.439	1.418	1	observe	Run1	observe/STIM_012.jpg
855.109	0.85	1	observe	Run1	observe/STIM_012.jpg
859.855	1.383	1	observe	Run1	observe/STIM_013.jpg
864.456	1.328	0	observe	Run1	observe/STIM_013.jpg
869.198	1.412	1	observe	Run1	observe/STIM_013.jpg
873.872	0.84	1	observe	Run1	observe/STIM_013.jpg
878.277	0.852	1	observe	Run1	observe/STIM_014.jpg
881.652	1.182	1	observe	Run1	observe/STIM_014.jpg
885.511	1.393	1	observe	Run1	observe/STIM_014.jpg
889.315	0.887	1	observe	Run1	observe/STIM_014.jpg
892.652	1.512	1	observe	Run1	observe/STIM_015.jpg
898.005	0.828	1	observe	Run1	observe/STIM_015.jpg
901.119	1.197	1	observe	Run1	observe/STIM_015.jpg
906.197	0.865	1	observe	Run1	observe/STIM_015.jpg
910.941	1.474	1	observe	Run1	observe/STIM_016.jpg
916.061	1.005	1	observe	Run1	observe/STIM_016.jpg
920.839	1.115	1	observe	Run1	observe/STIM_016.jpg
924.797	0.935	0	observe	Run1	observe/STIM_016.jpg
928.174	1.167	1	observe	Run1	observe/STIM_017.jpg
932.288	0.809	0	observe	Run1	observe/STIM_017.jpg
935.136	0.836	1	observe	Run1	observe/STIM_017.jpg
938.477	1.099	1	observe	Run1	observe/STIM_017.jpg
943.473	1.411	1	observe	Run1	observe/STIM_018.jpg
947.234	1.521	1	observe	Run1	observe/STIM_018.jpg
951.233	0.979	1	observe	Run1	observe/STIM_018.jpg
954.762	1.329	1	observe	Run1	observe/STIM_018.jpg
959.082	0.82	1	observe	Run1	observe/STIM_019.jpg
963.159	1.006	1	observe	Run1	observe/STIM_019.jpg
967.776	1.094	1	observe	Run1	observe/STIM_019.jpg
972.494	1.216	1	observe	Run1	observe/STIM_019.jpg
976.577	1.303	1	regulate	Run2	regulate/STIM_000.jpg
981.573	1.562	0	regulate	Run2	regulate/STIM_000.jpg
985.878	1.978	1	regulate	Run2	regulate/STIM_000.jpg
990.11	2.057	1	regulate	Run2	regulate/STIM_000.jpg
995.146	2.276	1	regulate	Run2	regulate/STIM_001.jpg
999.79	1.908	1	regulate	Run2	regulate/STIM_001.jpg
1005.565	2.489	1	regulate	Run2	regulate/STIM_001.jpg
1010.757	2.065	1	regulate	Run2	regulate/STIM_001.jpg
1015.985	2.582	1	regulate	Run2	regulate/STIM_002.jpg
1020.993	1.382	1	regulate	Run2	regulate/STIM_002.jpg
1024.916	1.216	1	regulate	Run2	regulate/STIM_002.jpg
1028.89	1.032	1	regulate	Run2	regulate/STIM_002.jpg
1032.898	2.914	1	regulate	Run2	regulate/STIM_003.jpg
1039.003	2.566	1	regulate	Run2	regulate/STIM_003.jpg
1045.126	1.782	1	regulate	Run2	regulate/STIM_003.jpg
1049.441	1.876	1	regulate	Run2	regulate/STIM_003.jpg
1054.628	2.783	1	regulate	Run2	regulate/STIM_004.jpg
1059.794	1.276	1	regulate	Run2	regulate/STIM_004.jpg
1063.281	1.285	1	regulate	Run2	regulate/STIM_004.jpg
1067.109	2.399	1	regulate	Run2	regulate/STIM_004.jpg
1073.052	2.173	0	regulate	Run2	regulate/STIM_005.jpg
1078.611	2.49	1	regulate	Run2	regulate/STIM_005.jpg
1084.761	1.182	1	regulate	Run2	regulate/STIM_005.jpg
1088.365	1.585	1	regulate	Run2	regulate/STIM_005.jpg
1093.32	1.74	1	regulate	Run2	regulate/STIM_006.jpg
1098.029	1.4	1	regulate	Run2	regulate/STIM_006.jpg
1102.558	1.629	1	regulate	Run2	regulate/STIM_006.jpg
1107.608	1.436	0	regulate	Run2	regulate/STIM_006.jpg
1112.762	2.068	1	regulate	Run2	regulate/STIM_007.jpg
1117.061	2.434	1	regulate	Run2	regulate/STIM_007.jpg
1121.537	1.394	1	regulate	Run2	regulate/STIM_007.jpg
1126.282	1.307	1	regulate	Run2	regulate/STIM_007.jpg
1131.429	2.282	0	regulate	Run2	regulate/STIM_008.jpg
1136.026	1.41	0	regulate	Run2	regulate/STIM_008.jpg
1141.102	2.288	1	regulate	Run2	regulate/STIM_008.jpg
1146.377	1.529	1	regulate	Run2	regulate/STIM_008.jpg
1151.14	1.783	1	regulate	Run2	regulate/STIM_009.jpg
1155.153	1.758	1	regulate	Run2	regulate/STIM_009.jpg
1160.556	2.207	1	regulate	Run2	regulate/STIM_009.jpg
1166.004	1.719	1	regulate	Run2	regulate/STIM_009.jpg
1170.488	2.587	1	regulate	Run2	regulate/STIM_010.jpg
1176.868	1.425	1	regulate	Run2	regulate/STIM_010.jpg
1181.755	1.145	1	regulate	Run2	regulate/STIM_010.jpg
1185.642	1.932	1	regulate	Run2	regulate/STIM_010.jpg
1190.576	1.327	1	regulate	Run2	regulate/STIM_011.jpg
1195.718	1.307	0	regulate	Run2	regulate/STIM_011.jpg
1200.438	1.66	1	regulate	Run2	regulate/STIM_011.jpg
1205.673	1.851	1	regulate	Run2	regulate/STIM_011.jpg
1211.304	1.621	1	regulate	Run2	regulate/STIM_012.jpg
1215.392	1.184	1	regulate	Run2	regulate/STIM_012.jpg
1220.434	2.539	0	regulate	Run2	regulate/STIM_012.jpg
1226.684	2.213	1	regulate	Run2	regulate/STIM_012.jpg
1231.903	1.981	1	regulate	Run2	regulate/STIM_013.jpg
1237.061	2.573	1	regulate	Run2	regulate/STIM_013.jpg
1243.304	2.143	1	regulate	Run2	regulate/STIM_013.jpg
1247.764	1.351	1	regulate	Run2	regulate/STIM_013.jpg
1252.574	2.19	1	regulate	Run2	regulate/STIM_014.jpg
1257.375	1.339	1	regulate	Run2	regulate/STIM_014.jpg
1262.076	1.242	1	regulate	Run2	regulate/STIM_014.jpg
1267.244	1.667	0	regulate	Run2	regulate/STIM_014.jpg
1272.732	1.554	1	regulate	Run2	regulate/STIM_015.jpg
1277.782	2.363	1	regulate	Run2	regulate/STIM_015.jpg
1284.04	1.164	1	regulate	Run2	regulate/STIM_015.jpg
1288.714	1.082	1	regulate	Run2	regulate/STIM_015.jpg
1293.161	2.341	1	regulate	Run2	regulate/STIM_016.jpg
1298.377	2.7	1	regulate	Run2	regulate/STIM_016.jpg
1304.597	2.36	1	regulate	Run2	regulate/STIM_016.jpg
1309.19	2.187	1	regulate	Run2	regulate/STIM_016.jpg
1313.759	1.567	1	regulate	Run2	regulate/STIM_017.jpg
1318.389	2.637	1	regulate	Run2	regulate/STIM_017.jpg
1323.485	2.428	0	regulate	Run2	regulate/STIM_017.jpg
1329.082	1.398	1	regulate	Run2	regulate/STIM_017.jpg
1332.957	1.671	0	regulate	Run2	regulate/STIM_018.jpg
1337.873	2.465	1	regulate	Run2	regulate/STIM_018.jpg
1342.93	2.416	1	regulate	Run2	regulate/STIM_018.jpg
1347.536	2.023	0	regulate	Run2	regulate/STIM_018.jpg
1352.676	2.501	1	regulate	Run2	regulate/STIM_019.jpg
1358.843	1.195	0	regulate	Run2	regulate/STIM_019.jpg
1362.292	1.929	1	regulate	Run2	regulate/STIM_019.jpg
1366.295	1.95	1	regulate	Run2	regulate/STIM_019.jpg
1371.975	1.525	1	regulate	Run2	regulate/STIM_020.jpg
1376.765	1.842	1	regulate	Run2	regulate/STIM_020.jpg
1382.322	1.215	1	regulate	Run2	regulate/STIM_020.jpg
1386.869	2.356	1	regulate	Run2	regulate/STIM_020.jpg
1391.601	2.558	1	regulate	Run2	regulate/STIM_021.jpg
1398.148	1.485	1	regulate	Run2	regulate/STIM_021.jpg
1403.446	2.236	1	regulate	Run2	regulate/STIM_021.jpg
1408.852	1.398	1	regulate	Run2	regulate/STIM_021.jpg
1413.494	2.298	1	regulate	Run2	regulate/STIM_022.jpg
1419.043	1.567	1	regulate	Run2	regulate/STIM_022.jpg
1424.294	1.494	1	regulate	Run2	regulate/STIM_022.jpg
1429.644	1.089	1	regulate	Run2	regulate/STIM_022.jpg
1434.161	2.782	1	regulate	Run2	regulate/STIM_023.jpg
1440.244	1.412	0	regulate	Run2	regulate/STIM_023.jpg
1445.577	2.167	1	regulate	Run2	regulate/STIM_023.jpg
1449.916	2.034	1	regulate	Run2	regulate/STIM_023.jpg
1455.427	1.525	1	regulate	Run2	regulate/STIM_024.jpg
1459.685	1.468	1	regulate	Run2	regulate/STIM_024.jpg
1463.939	2.23	1	regulate	Run2	regulate/STIM_024.jpg
1468.553	1.826	1	regulate	Run2	regulate/STIM_024.jpg
1474.311	2.54	1	regulate	Run2	regulate/STIM_025.jpg
1479.199	1.957	1	regulate	Run2	regulate/STIM_025.jpg
1484.986	1.937	1	regulate	Run2	regulate/STIM_025.jpg
1490.385	1.354	1	regulate	Run2	regulate/STIM_025.jpg
1495.587	2.12	1	regulate	Run2	regulate/STIM_026.jpg
1500.977	1.204	1	regulate	Run2	regulate/STIM_026.jpg
1505.533	1.488	1	regulate	Run2	regulate/STIM_026.jpg
1510.505	1.647	1	regulate	Run2	regulate/STIM_026.jpg
1515.703	1.452	0	regulate	Run2	regulate/STIM_027.jpg
1520.937	1.425	1	regulate	Run2	regulate/STIM_027.jpg
1526.361	1.36	1	regulate	Run2	regulate/STIM_027.jpg
1530.179	1.624	1	regulate	Run2	regulate/STIM_027.jpg
1534.692	2.638	1	regulate	Run2	regulate/STIM_028.jpg
1539.875	1.472	1	regulate	Run2	regulate/STIM_028.jpg
1544.437	2.217	1	regulate	Run2	regulate/STIM_028.jpg
1550.017	1.356	1	regulate	Run2	regulate/STIM_028.jpg
1554.347	1.36	1	regulate	Run2	regulate/STIM_029.jpg
1559.108	2.052	0	regulate	Run2	regulate/STIM_029.jpg
1563.346	1.546	1	regulate	Run2	regulate/STIM_029.jpg
1568.567	1.951	1	regulate	Run2	regulate/STIM_029.jpg
1574.35	1.557	1	observe	Run2	observe/STIM_000.jpg
1579.151	0.799	1	observe	Run2	observe/STIM_000.jpg
1582.474	1.436	1	observe	Run2	observe/STIM_000.jpg
1586.159	1.348	1	observe	Run2	observe/STIM_000.jpg
1591.094	1.266	0	observe	Run2	observe/STIM_001.jpg
1595.655	1.489	1	observe	Run2	observe/STIM_001.jpg
1599.908	1.304	1	observe	Run2	observe/STIM_001.jpg
1604.074	1.041	1	observe	Run2	observe/STIM_001.jpg
1608.606	1.307	1	observe	Run2	observe/STIM_002.jpg
1612.908	0.946	1	observe	Run2	observe/STIM_002.jpg
1617.84	1.49	1	observe	Run2	observe/STIM_002.jpg
1621.877	1.566	1	observe	Run2	observe/STIM_002.jpg
1625.664	1.493	1	observe	Run2	observe/STIM_003.jpg
1630.555	1.326	1	observe	Run2	observe/STIM_003.jpg
1635.276	1.543	0	observe	Run2	observe/STIM_003.jpg
1639.132	1.219	1	observe	Run2	observe/STIM_003.jpg
1644.171	1.123	1	observe	Run2	observe/STIM_004.jpg
1647.582	1.468	1	observe	Run2	observe/STIM_004.jpg
1651.089	1.1	1	observe	Run2	observe/STIM_004.jpg
1655.418	1.498	1	observe	Run2	observe/STIM_004.jpg
1659.409	1.037	1	observe	Run2	observe/STIM_005.jpg
1662.594	1.494	1	observe	Run2	observe/STIM_005.jpg
1666.86	1.051	1	observe	Run2	observe/STIM_005.jpg
1669.916	0.963	1	observe	Run2	observe/STIM_005.jpg
1672.985	1.328	1	observe	Run2	observe/STIM_006.jpg
1676.927	1.201	1	observe	Run2	observe/STIM_006.jpg
1680.278	1.461	0	observe	Run2	observe/STIM_006.jpg
1684.207	0.876	1	observe	Run2	observe/STIM_006.jpg
1689.066	0.98	1	observe	Run2	observe/STIM_007.jpg
1692.479	1.344	1	observe	Run2	observe/STIM_007.jpg
1697.391	1.382	1	observe	Run2	observe/STIM_007.jpg
1701.843	1.3	1	observe	Run2	observe/STIM_007.jpg
1705.541	0.961	1	observe	Run2	observe/STIM_008.jpg
1710.204	1.552	1	observe	Run2	observe/STIM_008.jpg
1715.718	1.11	1	observe	Run2	observe/STIM_008.jpg
1719.569	1.002	1	observe	Run2	observe/STIM_008.jpg
1724.182	1.146	0	observe	Run2	observe/STIM_009.jpg
1727.561	1.324	1	observe	Run2	observe/STIM_009.jpg
1731.154	1.063	0	observe	Run2	observe/STIM_009.jpg
1736.113	1.523	1	observe	Run2	observe/STIM_009.jpg
1740.495	1.112	0	observe	Run2	observe/STIM_010.jpg
1745.449	1.34	1	observe	Run2	observe/STIM_010.jpg
1749.453	0.946	0	observe	Run2	observe/STIM_010.jpg
1753.196	1.249	1	observe	Run2	observe/STIM_010.jpg
1758.405	1.069	1	observe	Run2	observe/STIM_011.jpg
1762.271	1.501	1	observe	Run2	observe/STIM_011.jpg
1766.272	1.254	1	observe	Run2	observe/STIM_011.jpg
1769.628	0.848	0	observe	Run2	observe/STIM_011.jpg
1773.853	1.424	1	observe	Run2	observe/STIM_012.jpg
1779.225	0.942	1	observe	Run2	observe/STIM_012.jpg
1783.604	1.074	1	observe	Run2	observe/STIM_012.jpg
1788.366	1.041	1	observe	Run2	observe/STIM_012.jpg
1791.963	1.344	1	observe	Run2	observe/STIM_013.jpg
1795.832	1.454	0	observe	Run2	observe/STIM_013.jpg
1800.236	0.837	1	observe	Run2	observe/STIM_013.jpg
1804.659	0.793	0	observe	Run2	observe/STIM_013.jpg
1809.095	1.508	1	observe	Run2	observe/STIM_014.jpg
1813.828	0.987	1	observe	Run2	observe/STIM_014.jpg
1817.041	1.407	0	observe	Run2	observe/STIM_014.jpg
1822.316	1.414	1	observe	Run2	observe/STIM_014.jpg
1826.879	1.196	1	observe	Run2	observe/STIM_015.jpg
1830.119	1.481	1	observe	Run2	observe/STIM_015.jpg
1833.85	0.828	1	observe	Run2	observe/STIM_015.jpg
1837.731	1.003	1	observe	Run2	observe/STIM_015.jpg
1840.985	0.848	1	observe	Run2	observe/STIM_016.jpg
1845.631	0.839	0	observe	Run2	observe/STIM_016.jpg
1849.959	0.85	1	observe	Run2	observe/STIM_016.jpg
1853.756	1.294	0	observe	Run2	observe/STIM_016.jpg
1857.059	0.984	1	observe	Run2	observe/STIM_017.jpg
1860.7	1.024	1	observe	Run2	observe/STIM_017.jpg
1865.071	1.21	1	observe	Run2	observe/STIM_017.jpg
1868.718	1.099	1	observe	Run2	observe/STIM_017.jpg
1873.008	1.56	1	observe	Run2	observe/STIM_018.jpg
1878.169	1.201	1	observe	Run2	observe/STIM_018.jpg
1881.901	1.2	1	observe	Run2	observe/STIM_018.jpg
1885.747	1.195	1	observe	Run2	observe/STIM_018.jpg
1889.66	1.063	1	observe	Run2	observe/STIM_019.jpg
1893.059	1.088	1	observe	Run2	observe/STIM_019.jpg
1897.865	1.033	1	observe	Run2	observe/STIM_019.jpg
1901.38	1.272	1	observe	Run2	observe/STIM_019.jpg
1905.013	1.232	1	regulate	Run3	regulate/STIM_000.jpg
1908.525	1.38	1	regulate	Run3	regulate/STIM_000.jpg
1912.773	2.157	0	regulate	Run3	regulate/STIM_000.jpg
1918.56	2.268	1	regulate	Run3	regulate/STIM_000.jpg
1923.694	1.387	1	regulate	Run3	regulate/STIM_001.jpg
1927.886	1.531	1	regulate	Run3	regulate/STIM_001.jpg
1933.001	1.446	1	regulate	Run3	regulate/STIM_001.jpg
1937.031	1.751	1	regulate	Run3	regulate/STIM_001.jpg
1942.757	2.208	1	regulate	Run3	regulate/STIM_002.jpg
1948.512	1.185	1	regulate	Run3	regulate/STIM_002.jpg
1952.662	1.635	1	regulate	Run3	regulate/STIM_002.jpg
1958.265	1.367	1	regulate	Run3	regulate/STIM_002.jpg
1962.952	2.248	1	regulate	Run3	regulate/STIM_003.jpg
1967.337	1.462	1	regulate	Run3	regulate/STIM_003.jpg
1972.656	1.536	0	regulate	Run3	regulate/STIM_003.jpg
1977.678	1.688	1	regulate	Run3	regulate/STIM_003.jpg
1982.417	1.911	1	regulate	Run3	regulate/STIM_004.jpg
1986.992	1.356	1	regulate	Run3	regulate/STIM_004.jpg
1991.468	1.214	1	regulate	Run3	regulate/STIM_004.jpg
1996.009	1.888	1	regulate	Run3	regulate/STIM_004.jpg
2000.619	1.815	1	regulate	Run3	regulate/STIM_005.jpg
2004.473	1.153	1	regulate	Run3	regulate/STIM_005.jpg
2009.521	1.98	1	regulate	Run3	regulate/STIM_005.jpg
2013.763	2.198	1	regulate	Run3	regulate/STIM_005.jpg
2018.329	2.4	0	regulate	Run3	regulate/STIM_006.jpg
2022.73	1.314	1	regulate	Run3	regulate/STIM_006.jpg
2027.759	2.164	1	regulate	Run3	regulate/STIM_006.jpg
2032.623	1.252	1	regulate	Run3	regulate/STIM_006.jpg
2037.693	1.561	1	regulate	Run3	regulate/STIM_007.jpg
2041.578	1.631	1	regulate	Run3	regulate/STIM_007.jpg
2045.718	1.047	1	regulate	Run3	regulate/STIM_007.jpg
2050.094	1.663	0	regulate	Run3	regulate/STIM_007.jpg
2055.373	2.274	0	regulate	Run3	regulate/STIM_008.jpg
2060.868	2.05	1	regulate	Run3	regulate/STIM_008.jpg
2066.135	2.235	1	regulate	Run3	regulate/STIM_008.jpg
2070.661	2.076	1	regulate	Run3	regulate/STIM_008.jpg
2076.091	1.852	1	regulate	Run3	regulate/STIM_009.jpg
2080.798	1.841	1	regulate	Run3	regulate/STIM_009.jpg
2085.373	2.292	1	regulate	Run3	regulate/STIM_009.jpg
2091.37	1.499	1	regulate	Run3	regulate/STIM_009.jpg
2096.185	1.49	1	regulate	Run3	regulate/STIM_010.jpg
2100.942	1.396	1	regulate	Run3	regulate/STIM_010.jpg
2104.818	1.22	1	regulate	Run3	regulate/STIM_010.jpg
2108.415	2.0	1	regulate	Run3	regulate/STIM_010.jpg
2113.681	1.418	1	regulate	Run3	regulate/STIM_011.jpg
2118.156	2.035	1	regulate	Run3	regulate/STIM_011.jpg
2123.396	2.135	1	regulate	Run3	regulate/STIM_011.jpg
2128.283	1.248	1	regulate	Run3	regulate/STIM_011.jpg
2132.477	2.345	1	regulate	Run3	regulate/STIM_012.jpg
2138.372	2.227	1	regulate	Run3	regulate/STIM_012.jpg
2142.737	1.962	1	regulate	Run3	regulate/STIM_012.jpg
2147.708	2.046	1	regulate	Run3	regulate/STIM_012.jpg
2152.342	1.653	1	regulate	Run3	regulate/STIM_013.jpg
2156.261	1.088	1	regulate	Run3	regulate/STIM_013.jpg
2160.943	1.367	1	regulate	Run3	regulate/STIM_013.jpg
2165.089	1.317	1	regulate	Run3	regulate/STIM_013.jpg
2169.375	2.014	1	regulate	Run3	regulate/STIM_014.jpg
2174.595	1.853	0	regulate	Run3	regulate/STIM_014.jpg
2179.1	1.894	1	regulate	Run3	regulate/STIM_014.jpg
2184.837	1.9	1	regulate	Run3	regulate/STIM_014.jpg
2189.352	1.353	1	regulate	Run3	regulate/STIM_015.jpg
2193.63	1.558	1	regulate	Run3	regulate/STIM_015.jpg
2197.538	1.192	1	regulate	Run3	regulate/STIM_015.jpg
2201.489	1.536	1	regulate	Run3	regulate/STIM_015.jpg
2205.253	2.071	1	regulate	Run3	regulate/STIM_016.jpg
2209.445	1.731	1	regulate	Run3	regulate/STIM_016.jpg
2213.546	2.376	1	regulate	Run3	regulate/STIM_016.jpg
2218.039	1.63	1	regulate	Run3	regulate/STIM_016.jpg
2222.035	1.482	1	regulate	Run3	regulate/STIM_017.jpg
2226.534	1.919	1	regulate	Run3	regulate/STIM_017.jpg
2231.465	1.118	1	regulate	Run3	regulate/STIM_017.jpg
2235.987	1.283	1	regulate	Run3	regulate/STIM_017.jpg
2240.632	1.558	1	regulate	Run3	regulate/STIM_018.jpg
2245.229	2.038	1	regulate	Run3	regulate/STIM_018.jpg
2251.068	2.149	1	regulate	Run3	regulate/STIM_018.jpg
2255.76	2.33	1	regulate	Run3	regulate/STIM_018.jpg
2261.327	2.047	1	regulate	Run3	regulate/STIM_019.jpg
2265.586	1.312	1	regulate	Run3	regulate/STIM_019.jpg
2269.118	2.115	1	regulate	Run3	regulate/STIM_019.jpg
2273.637	1.659	1	regulate	Run3	regulate/STIM_019.jpg
2278.917	1.373	1	regulate	Run3	regulate/STIM_020.jpg
2283.954	1.998	1	regulate	Run3	regulate/STIM_020.jpg
2288.499	2.305	1	regulate	Run3	regulate/STIM_020.jpg
2293.955	2.09	1	regulate	Run3	regulate/STIM_020.jpg
2298.047	2.389	1	regulate	Run3	regulate/STIM_021.jpg
2304.073	1.622	1	regulate	Run3	regulate/STIM_021.jpg
2308.03	1.704	1	regulate	Run3	regulate/STIM_021.jpg
2312.84	1.215	1	regulate	Run3	regulate/STIM_021.jpg
2317.537	1.143	1	regulate	Run3	regulate/STIM_022.jpg
2321.943	1.978	1	regulate	Run3	regulate/STIM_022.jpg
2327.86	1.85	1	regulate	Run3	regulate/STIM_022.jpg
2332.347	1.776	1	regulate	Run3	regulate/STIM_022.jpg
2337.464	1.265	1	regulate	Run3	regulate/STIM_023.jpg
2341.669	1.707	1	regulate	Run3	regulate/STIM_023.jpg
2347.261	2.0	1	regulate	Run3	regulate/STIM_023.jpg
2352.505	2.394	1	regulate	Run3	regulate/STIM_023.jpg
2358.059	1.942	1	regulate	Run3	regulate/STIM_024.jpg
2362.888	2.033	1	regulate	Run3	regulate/STIM_024.jpg
2368.912	1.949	1	regulate	Run3	regulate/STIM_024.jpg
2373.427	1.214	1	regulate	Run3	regulate/STIM_024.jpg
2377.448	2.245	1	regulate	Run3	regulate/STIM_025.jpg
2383.25	2.361	1	regulate	Run3	regulate/STIM_025.jpg
2388.186	1.276	1	regulate	Run3	regulate/STIM_025.jpg
2391.614	2.07	1	regulate	Run3	regulate/STIM_025.jpg
2397.242	1.628	1	regulate	Run3	regulate/STIM_026.jpg
2401.172	1.352	1	regulate	Run3	regulate/STIM_026.jpg
2405.803	1.966	1	regulate	Run3	regulate/STIM_026.jpg
2410.842	1.519	1	regulate	Run3	regulate/STIM_026.jpg
2414.549	2.045	1	regulate	Run3	regulate/STIM_027.jpg
2419.942	1.521	1	regulate	Run3	regulate/STIM_027.jpg
2424.519	1.788	1	regulate	Run3	regulate/STIM_027.jpg
2429.109	1.612	1	regulate	Run3	regulate/STIM_027.jpg
2434.27	2.204	0	regulate	Run3	regulate/STIM_028.jpg
2440.453	1.187	1	regulate	Run3	regulate/STIM_028.jpg
2444.736	2.266	1	regulate	Run3	regulate/STIM_028.jpg
2449.027	1.778	1	regulate	Run3	regulate/STIM_028.jpg
2454.427	2.287	1	regulate	Run3	regulate/STIM_029.jpg
2460.611	1.802	1	regulate	Run3	regulate/STIM_029.jpg
2464.792	1.464	0	regulate	Run3	regulate/STIM_029.jpg
2468.503	1.717	1	regulate	Run3	regulate/STIM_029.jpg
2472.402	1.376	1	observe	Run3	observe/STIM_000.jpg
2476.839	0.938	1	observe	Run3	observe/STIM_000.jpg
2481.552	0.963	1	observe	Run3	observe/STIM_000.jpg
2485.757	0.985	1	observe	Run3	observe/STIM_000.jpg
2489.385	1.099	1	observe	Run3	observe/STIM_001.jpg
2493.15	0.913	0	observe	Run3	observe/STIM_001.jpg
2498.042	0.826	1	observe	Run3	observe/STIM_001.jpg
2501.888	1.42	1	observe	Run3	observe/STIM_001.jpg
2505.969	0.809	1	observe	Run3	observe/STIM_002.jpg
2509.305	1.319	1	observe	Run3	observe/STIM_002.jpg
2513.511	1.278	1	observe	Run3	observe/STIM_002.jpg
2518.301	1.223	1	observe	Run3	observe/STIM_002.jpg
2522.935	0.892	0	observe	Run3	observe/STIM_003.jpg
2526.906	1.319	1	observe	Run3	observe/STIM_003.jpg
2531.73	1.394	1	observe	Run3	observe/STIM_003.jpg
2537.108	1.033	1	observe	Run3	observe/STIM_003.jpg
2540.916	1.481	1	observe	Run3	observe/STIM_004.jpg
2546.236	1.064	1	observe	Run3	observe/STIM_004.jpg
2549.606	0.942	1	observe	Run3	observe/STIM_004.jpg
2553.44	1.263	1	observe	Run3	observe/STIM_004.jpg
2557.279	0.853	1	observe	Run3	observe/STIM_005.jpg
2561.16	1.078	1	observe	Run3	observe/STIM_005.jpg
2564.632	1.4	1	observe	Run3	observe/STIM_005.jpg
2568.96	1.068	1	observe	Run3	observe/STIM_005.jpg
2572.647	0.942	0	observe	Run3	observe/STIM_006.jpg
2576.106	1.564	1	observe	Run3	observe/STIM_006.jpg
2580.988	1.225	1	observe	Run3	observe/STIM_006.jpg
2584.739	1.519	1	observe	Run3	observe/STIM_006.jpg
2589.233	1.195	1	observe	Run3	observe/STIM_007.jpg
2592.727	1.38	1	observe	Run3	observe/STIM_007.jpg
2597.763	1.294	1	observe	Run3	observe/STIM_007.jpg
2601.146	1.476	1	observe	Run3	observe/STIM_007.jpg
2605.235	0.825	1	observe	Run3	observe/STIM_008.jpg
2609.889	1.032	1	observe	Run3	observe/STIM_008.jpg
2613.913	1.26	1	observe	Run3	observe/STIM_008.jpg
2617.305	1.232	1	observe	Run3	observe/STIM_008.jpg
2621.511	1.07	1	observe	Run3	observe/STIM_009.jpg
2626.321	1.262	1	observe	Run3	observe/STIM_009.jpg
2630.322	1.067	1	observe	Run3	observe/STIM_009.jpg
2635.175	1.217	1	observe	Run3	observe/STIM_009.jpg
2639.413	1.343	1	observe	Run3	observe/STIM_010.jpg
2643.304	1.264	1	observe	Run3	observe/STIM_010.jpg
2647.63	1.532	1	observe	Run3	observe/STIM_010.jpg
2652.835	0.995	1	observe	Run3	observe/STIM_010.jpg
2657.457	0.97	1	observe	Run3	observe/STIM_011.jpg
2661.621	1.298	1	observe	Run3	observe/STIM_011.jpg
2664.969	0.926	1	observe	Run3	observe/STIM_011.jpg
2668.99	0.872	1	observe	Run3	observe/STIM_011.jpg
2673.721	1.367	1	observe	Run3	observe/STIM_012.jpg
2678.444	1.361	1	observe	Run3	observe/STIM_012.jpg
2682.875	0.786	0	observe	Run3	observe/STIM_012.jpg
2685.989	1.231	1	observe	Run3	observe/STIM_012.jpg
2689.356	0.806	1	observe	Run3	observe/STIM_013.jpg
2693.013	1.136	1	observe	Run3	observe/STIM_013.jpg
2698.116	1.179	1	observe	Run3	observe/STIM_013.jpg
2703.02	1.264	1	observe	Run3	observe/STIM_013.jpg
2706.387	1.399	1	observe	Run3	observe/STIM_014.jpg
2711.372	1.012	1	observe	Run3	observe/STIM_014.jpg
2714.409	1.56	1	observe	Run3	observe/STIM_014.jpg
2719.495	1.165	1	observe	Run3	observe/STIM_014.jpg
2724.623	1.366	1	observe	Run3	observe/STIM_015.jpg
2729.169	1.535	1	observe	Run3	observe/STIM_015.jpg
2733.599	0.844	1	observe	Run3	observe/STIM_015.jpg
2736.735	1.52	0	observe	Run3	observe/STIM_015.jpg
2740.757	1.313	1	observe	Run3	observe/STIM_016.jpg
2744.357	1.469	1	observe	Run3	observe/STIM_016.jpg
2748.086	1.18	0	observe	Run3	observe/STIM_016.jpg
2752.8	1.31	0	observe	Run3	observe/STIM_016.jpg
2757.435	0.816	1	observe	Run3	observe/STIM_017.jpg
2761.035	1.277	1	observe	Run3	observe/STIM_017.jpg
2765.427	1.384	1	observe	Run3	observe/STIM_017.jpg
2770.038	1.519	1	observe	Run3	observe/STIM_017.jpg
2774.136	1.494	1	observe	Run3	observe/STIM_018.jpg
2778.822	0.801	1	observe	Run3	observe/STIM_018.jpg
2783.063	0.804	1	observe	Run3	observe/STIM_018.jpg
2786.438	1.102	1	observe	Run3	observe/STIM_018.jpg
2790.926	1.497	1	observe	Run3	observe/STIM_019.jpg
2795.95	0.934	1	observe	Run3	observe/STIM_019.jpg
2800.532	1.424	1	observe	Run3	observe/STIM_019.jpg
2804.03	1.116	0	observe	Run3	observe/STIM_019.jpg
