onset	duration	accuracy	trial_type	learning_stage	stimulus
0.0	2.298	correct	regulate	Run1	regulate/STIM_000.jpg
4.361	1.398	correct	regulate	Run1	regulate/STIM_000.jpg
9.365	2.024	correct	regulate	Run1	regulate/STIM_000.jpg
15.231	1.888	correct	regulate	Run1	regulate/STIM_000.jpg
19.877	2.786	correct	regulate	Run1	regulate/STIM_001.jpg
25.926	3.175	correct	regulate	Run1	regulate/STIM_001.jpg
32.367	1.815	correct	regulate	Run1	regulate/STIM_001.jpg
36.753	1.84	correct	regulate	Run1	regulate/STIM_001.jpg
41.585	1.926	correct	regulate	Run1	regulate/STIM_002.jpg
46.459	1.924	incorrect	regulate	Run1	regulate/STIM_002.jpg
50.666	1.34	correct	regulate	Run1	regulate/STIM_002.jpg
54.171	2.761	correct	regulate	Run1	regulate/STIM_002.jpg
60.494	3.187	correct	regulate	Run1	regulate/STIM_003.jpg
66.703	2.549	correct	regulate	Run1	regulate/STIM_003.jpg
72.926	1.782	incorrect	regulate	Run1	regulate/STIM_003.jpg
77.933	1.282	correct	regulate	Run1	regulate/STIM_003.jpg
82.534	2.564	correct	regulate	Run1	regulate/STIM_004.jpg
88.774	2.716	correct	regulate	Run1	regulate/STIM_004.jpg
94.685	2.026	correct	regulate	Run1	regulate/STIM_004.jpg
100.46	1.987	correct	regulate	Run1	regulate/STIM_004.jpg
105.246	1.675	incorrect	regulate	Run1	regulate/STIM_005.jpg
110.632	1.41	correct	regulate	Run1	regulate/STIM_005.jpg
115.552	1.378	correct	regulate	Run1	regulate/STIM_005.jpg
119.572	2.778	incorrect	regulate	Run1	regulate/STIM_005.jpg
125.68	2.785	correct	regulate	Run1	regulate/STIM_006.jpg
131.817	3.079	correct	regulate	Run1	regulate/STIM_006.jpg
137.724	2.955	correct	regulate	Run1	regulate/STIM_006.jpg
144.556	1.91	correct	regulate	Run1	regulate/STIM_006.jpg
149.161	2.391	correct	regulate	Run1	regulate/STIM_007.jpg
154.655	2.052	incorrect	regulate	Run1	regulate/STIM_007.jpg
160.593	1.333	correct	regulate	Run1	regulate/STIM_007.jpg
164.368	2.431	correct	regulate	Run1	regulate/STIM_007.jpg
170.035	2.836	incorrect	regulate	Run1	regulate/STIM_008.jpg
176.589	3.024	correct	regulate	Run1	regulate/STIM_008.jpg
183.393	1.689	correct	regulate	Run1	regulate/STIM_008.jpg
188.854	1.894	correct	regulate	Run1	regulate/STIM_008.jpg
194.253	2.202	incorrect	regulate	Run1	regulate/STIM_009.jpg
198.51	2.662	correct	regulate	Run1	regulate/STIM_009.jpg
204.504	2.872	correct	regulate	Run1	regulate/STIM_009.jpg
211.286	2.042	correct	regulate	Run1	regulate/STIM_009.jpg
216.479	3.303	correct	regulate	Run1	regulate/STIM_010.jpg
222.062	1.922	incorrect	regulate	Run1	regulate/STIM_010.jpg
226.707	1.886	incorrect	regulate	Run1	regulate/STIM_010.jpg
232.378	2.219	incorrect	regulate	Run1	regulate/STIM_010.jpg
238.124	3.232	correct	regulate	Run1	regulate/STIM_011.jpg
243.666	3.121	correct	regulate	Run1	regulate/STIM_011.jpg
250.722	2.413	correct	regulate	Run1	regulate/STIM_011.jpg
256.416	2.044	incorrect	regulate	Run1	regulate/STIM_011.jpg
260.482	2.382	incorrect	regulate	Run1	regulate/STIM_012.jpg
266.504	2.071	correct	regulate	Run1	regulate/STIM_012.jpg
271.074	2.156	correct	regulate	Run1	regulate/STIM_012.jpg
276.797	1.826	incorrect	regulate	Run1	regulate/STIM_012.jpg
282.21	2.068	incorrect	regulate	Run1	regulate/STIM_013.jpg
288.058	2.747	correct	regulate	Run1	regulate/STIM_013.jpg
294.257	2.429	correct	regulate	Run1	regulate/STIM_013.jpg
299.621	1.939	incorrect	regulate	Run1	regulate/STIM_013.jpg
304.246	3.124	correct	regulate	Run1	regulate/STIM_014.jpg
311.225	2.83	incorrect	regulate	Run1	regulate/STIM_014.jpg
317.038	1.792	incorrect	regulate	Run1	regulate/STIM_014.jpg
322.64	1.886	incorrect	regulate	Run1	regulate/STIM_014.jpg
328.216	2.546	correct	regulate	Run1	regulate/STIM_015.jpg
332.934	2.028	incorrect	regulate	Run1	regulate/STIM_015.jpg
337.308	2.498	correct	regulate	Run1	regulate/STIM_015.jpg
342.756	1.722	correct	regulate	Run1	regulate/STIM_015.jpg
348.357	2.941	correct	regulate	Run1	regulate/STIM_016.jpg
354.87	1.418	correct	regulate	Run1	regulate/STIM_016.jpg
359.776	2.929	correct	regulate	Run1	regulate/STIM_016.jpg
365.4	2.759	correct	regulate	Run1	regulate/STIM_016.jpg
371.607	2.555	correct	regulate	Run1	regulate/STIM_017.jpg
377.475	3.094	correct	regulate	Run1	regulate/STIM_017.jpg
383.858	2.572	correct	regulate	Run1	regulate/STIM_017.jpg
389.929	1.824	correct	regulate	Run1	regulate/STIM_017.jpg
394.989	3.079	correct	regulate	Run1	regulate/STIM_018.jpg
400.613	2.913	correct	regulate	Run1	regulate/STIM_018.jpg
407.136	1.823	correct	regulate	Run1	regulate/STIM_018.jpg
411.83	1.723	correct	regulate	Run1	regulate/STIM_018.jpg
417.453	1.844	correct	regulate	Run1	regulate/STIM_019.jpg
422.705	2.84	correct	regulate	Run1	regulate/STIM_019.jpg
428.217	2.754	correct	regulate	Run1	regulate/STIM_019.jpg
434.201	2.362	correct	regulate	Run1	regulate/STIM_019.jpg
440.212	1.674	correct	regulate	Run1	regulate/STIM_020.jpg
443.913	2.276	correct	regulate	Run1	regulate/STIM_020.jpg
449.887	1.93	correct	regulate	Run1	regulate/STIM_020.jpg
454.752	1.762	correct	regulate	Run1	regulate/STIM_020.jpg
459.191	2.613	correct	regulate	Run1	regulate/STIM_021.jpg
464.828	2.476	correct	regulate	Run1	regulate/STIM_021.jpg
471.222	1.435	correct	regulate	Run1	regulate/STIM_021.jpg
476.254	1.376	correct	regulate	Run1	regulate/STIM_021.jpg
481.39	2.071	correct	regulate	Run1	regulate/STIM_022.jpg
487.008	2.384	correct	regulate	Run1	regulate/STIM_022.jpg
491.915	2.223	correct	regulate	Run1	regulate/STIM_022.jpg
496.537	1.974	correct	regulate	Run1	regulate/STIM_022.jpg
501.336	2.044	incorrect	regulate	Run1	regulate/STIM_023.jpg
506.333	2.876	correct	regulate	Run1	regulate/STIM_023.jpg
511.299	2.228	correct	regulate	Run1	regulate/STIM_023.jpg
516.856	1.36	correct	regulate	Run1	regulate/STIM_023.jpg
520.762	2.344	incorrect	regulate	Run1	regulate/STIM_024.jpg
525.662	2.084	incorrect	regulate	Run1	regulate/STIM_024.jpg
531.114	1.785	correct	regulate	Run1	regulate/STIM_024.jpg
536.172	2.782	incorrect	regulate	Run1	regulate/STIM_024.jpg
541.159	1.618	incorrect	regulate	Run1	regulate/STIM_025.jpg
545.133	2.16	correct	regulate	Run1	regulate/STIM_025.jpg
549.914	2.694	correct	regulate	Run1	regulate/STIM_025.jpg
555.77	1.957	incorrect	regulate	Run1	regulate/STIM_025.jpg
560.765	1.859	correct	regulate	Run1	regulate/STIM_026.jpg
565.827	2.916	incorrect	regulate	Run1	regulate/STIM_026.jpg
571.751	1.504	incorrect	regulate	Run1	regulate/STIM_026.jpg
576.695	1.763	correct	regulate	Run1	regulate/STIM_026.jpg
581.663	1.657	correct	regulate	Run1	regulate/STIM_027.jpg
586.526	2.437	correct	regulate	Run1	regulate/STIM_027.jpg
592.052	1.391	correct	regulate	Run1	regulate/STIM_027.jpg
595.597	1.815	correct	regulate	Run1	regulate/STIM_027.jpg
599.477	1.478	correct	regulate	Run1	regulate/STIM_028.jpg
604.569	1.596	correct	regulate	Run1	regulate/STIM_028.jpg
609.838	2.35	correct	regulate	Run1	regulate/STIM_028.jpg
615.813	1.505	incorrect	regulate	Run1	regulate/STIM_028.jpg
619.986	3.136	correct	regulate	Run1	regulate/STIM_029.jpg
626.18	2.849	correct	regulate	Run1	regulate/STIM_029.jpg
632.534	2.061	incorrect	regulate	Run1	regulate/STIM_029.jpg
636.831	1.825	correct	regulate	Run1	regulate/STIM_029.jpg
641.16	0.981	correct	observe	Run1	observe/STIM_000.jpg
646.094	1.515	incorrect	observe	Run1	observe/STIM_000.jpg
649.906	1.158	incorrect	observe	Run1	observe/STIM_000.jpg
653.704	1.55	correct	observe	Run1	observe/STIM_000.jpg
657.261	1.52	correct	observe	Run1	observe/STIM_001.jpg
661.646	1.297	correct	observe	Run1	observe/STIM_001.jpg
666.089	0.883	correct	observe	Run1	observe/STIM_001.jpg
669.909	1.453	correct	observe	Run1	observe/STIM_001.jpg
674.272	1.279	correct	observe	Run1	observe/STIM_002.jpg
679.132	1.447	correct	observe	Run1	observe/STIM_002.jpg
683.432	0.82	correct	observe	Run1	observe/STIM_002.jpg
687.537	1.158	correct	observe	Run1	observe/STIM_002.jpg
692.267	0.859	correct	observe	Run1	observe/STIM_003.jpg
697.022	1.173	correct	observe	Run1	observe/STIM_003.jpg
700.644	1.108	correct	observe	Run1	observe/STIM_003.jpg
704.317	1.165	correct	observe	Run1	observe/STIM_003.jpg
708.217	1.262	correct	observe	Run1	observe/STIM_004.jpg
713.446	1.087	correct	observe	Run1	observe/STIM_004.jpg
718.002	1.32	correct	observe	Run1	observe/STIM_004.jpg
722.081	1.264	correct	observe	Run1	observe/STIM_004.jpg
726.348	1.258	incorrect	observe	Run1	observe/STIM_005.jpg
729.662	0.796	correct	observe	Run1	observe/STIM_005.jpg
733.672	1.128	correct	observe	Run1	observe/STIM_005.jpg
738.702	1.248	correct	observe	Run1	observe/STIM_005.jpg
742.035	1.169	correct	observe	Run1	observe/STIM_006.jpg
746.445	1.019	correct	observe	Run1	observe/STIM_006.jpg
751.238	1.296	correct	observe	Run1	observe/STIM_006.jpg
755.151	1.312	correct	observe	Run1	observe/STIM_006.jpg
759.005	1.312	correct	observe	Run1	observe/STIM_007.jpg
764.167	1.454	correct	observe	Run1	observe/STIM_007.jpg
769.333	1.467	correct	observe	Run1	observe/STIM_007.jpg
773.758	0.942	correct	observe	Run1	observe/STIM_007.jpg
777.888	1.292	correct	observe	Run1	observe/STIM_008.jpg
781.44	0.954	incorrect	observe	Run1	observe/STIM_008.jpg
785.438	1.534	correct	observe	Run1	observe/STIM_008.jpg
789.785	1.458	incorrect	observe	Run1	observe/STIM_008.jpg
793.652	0.969	correct	observe	Run1	observe/STIM_009.jpg
796.771	0.844	correct	observe	Run1	observe/STIM_009.jpg
801.366	1.463	correct	observe	Run1	observe/STIM_009.jpg
806.78	1.354	correct	observe	Run1	observe/STIM_009.jpg
810.196	0.921	correct	observe	Run1	observe/STIM_010.jpg
813.464	1.417	correct	observe	Run1	observe/STIM_010.jpg
818.082	0.908	correct	observe	Run1	observe/STIM_010.jpg
822.649	1.532	correct	observe	Run1	observe/STIM_010.jpg
827.518	1.161	correct	observe	Run1	observe/STIM_011.jpg
831.15	0.832	correct	observe	Run1	observe/STIM_011.jpg
834.688	0.883	correct	observe	Run1	observe/STIM_011.jpg
839.393	1.003	correct	observe	Run1	observe/STIM_011.jpg
843.863	0.995	correct	observe	Run1	observe/STIM_012.jpg
847.645	0.794	correct	observe	Run1	observe/STIM_012.jpg
851.439	1.418	correct	observe	Run1	observe/STIM_012.jpg
855.109	0.85	correct	observe	Run1	observe/STIM_012.jpg
859.855	1.383	correct	observe	Run1	observe/STIM_013.jpg
864.456	1.328	incorrect	observe	Run1	observe/STIM_013.jpg
869.198	1.412	correct	observe	Run1	observe/STIM_013.jpg
873.872	0.84	correct	observe	Run1	observe/STIM_013.jpg
878.277	0.852	correct	observe	Run1	observe/STIM_014.jpg
881.652	1.182	correct	observe	Run1	observe/STIM_014.jpg
885.511	1.393	correct	observe	Run1	observe/STIM_014.jpg
889.315	0.887	correct	observe	Run1	observe/STIM_014.jpg
892.652	1.512	correct	observe	Run1	observe/STIM_015.jpg
898.005	0.828	correct	observe	Run1	observe/STIM_015.jpg
901.119	1.197	correct	observe	Run1	observe/STIM_015.jpg
906.197	0.865	correct	observe	Run1	observe/STIM_015.jpg
910.941	1.474	correct	observe	Run1	observe/STIM_016.jpg
916.061	1.005	correct	observe	Run1	observe/STIM_016.jpg
920.839	1.115	correct	observe	Run1	observe/STIM_016.jpg
924.797	0.935	incorrect	observe	Run1	observe/STIM_016.jpg
928.174	1.167	correct	observe	Run1	observe/STIM_017.jpg
932.288	0.809	incorrect	observe	Run1	observe/STIM_017.jpg
935.136	0.836	correct	observe	Run1	observe/STIM_017.jpg
938.477	1.099	correct	observe	Run1	observe/STIM_017.jpg
943.473	1.411	correct	observe	Run1	observe/STIM_018.jpg
947.234	1.521	correct	observe	Run1	observe/STIM_018.jpg
951.233	0.979	correct	observe	Run1	observe/STIM_018.jpg
954.762	1.329	correct	observe	Run1	observe/STIM_018.jpg
959.082	0.82	correct	observe	Run1	observe/STIM_019.jpg
963.159	1.006	correct	observe	Run1	observe/STIM_019.jpg
967.776	1.094	correct	observe	Run1	observe/STIM_019.jpg
972.494	1.216	correct	observe	Run1	observe/STIM_019.jpg
976.577	1.303	correct	regulate	Run2	regulate/STIM_000.jpg
981.573	1.562	incorrect	regulate	Run2	regulate/STIM_000.jpg
985.878	1.978	correct	regulate	Run2	regulate/STIM_000.jpg
990.11	2.057	correct	regulate	Run2	regulate/STIM_000.jpg
995.146	2.276	correct	regulate	Run2	regulate/STIM_001.jpg
999.79	1.908	correct	regulate	Run2	regulate/STIM_001.jpg
1005.565	2.489	correct	regulate	Run2	regulate/STIM_001.jpg
1010.757	2.065	correct	regulate	Run2	regulate/STIM_001.jpg
1015.985	2.582	correct	regulate	Run2	regulate/STIM_002.jpg
1020.993	1.382	correct	regulate	Run2	regulate/STIM_002.jpg
1024.916	1.216	correct	regulate	Run2	regulate/STIM_002.jpg
1028.89	1.032	correct	regulate	Run2	regulate/STIM_002.jpg
1032.898	2.914	correct	regulate	Run2	regulate/STIM_003.jpg
1039.003	2.566	correct	regulate	Run2	regulate/STIM_003.jpg
1045.126	1.782	correct	regulate	Run2	regulate/STIM_003.jpg
1049.441	1.876	correct	regulate	Run2	regulate/STIM_003.jpg
1054.628	2.783	correct	regulate	Run2	regulate/STIM_004.jpg
1059.794	1.276	correct	regulate	Run2	regulate/STIM_004.jpg
1063.281	1.285	correct	regulate	Run2	regulate/STIM_004.jpg
1067.109	2.399	correct	regulate	Run2	regulate/STIM_004.jpg
1073.052	2.173	incorrect	regulate	Run2	regulate/STIM_005.jpg
1078.611	2.49	correct	regulate	Run2	regulate/STIM_005.jpg
1084.761	1.182	correct	regulate	Run2	regulate/STIM_005.jpg
1088.365	1.585	correct	regulate	Run2	regulate/STIM_005.jpg
1093.32	1.74	correct	regulate	Run2	regulate/STIM_006.jpg
1098.029	1.4	correct	regulate	Run2	regulate/STIM_006.jpg
1102.558	1.629	correct	regulate	Run2	regulate/STIM_006.jpg
1107.608	1.436	incorrect	regulate	Run2	regulate/STIM_006.jpg
1112.762	2.068	correct	regulate	Run2	regulate/STIM_007.jpg
1117.061	2.434	correct	regulate	Run2	regulate/STIM_007.jpg
1121.537	1.394	correct	regulate	Run2	regulate/STIM_007.jpg
1126.282	1.307	correct	regulate	Run2	regulate/STIM_007.jpg
1131.429	2.282	incorrect	regulate	Run2	regulate/STIM_008.jpg
1136.026	1.41	incorrect	regulate	Run2	regulate/STIM_008.jpg
1141.102	2.288	correct	regulate	Run2	regulate/STIM_008.jpg
1146.377	1.529	correct	regulate	Run2	regulate/STIM_008.jpg
1151.14	1.783	correct	regulate	Run2	regulate/STIM_009.jpg
1155.153	1.758	correct	regulate	Run2	regulate/STIM_009.jpg
1160.556	2.207	correct	regulate	Run2	regulate/STIM_009.jpg
1166.004	1.719	correct	regulate	Run2	regulate/STIM_009.jpg
1170.488	2.587	correct	regulate	Run2	regulate/STIM_010.jpg
1176.868	1.425	correct	regulate	Run2	regulate/STIM_010.jpg
1181.755	1.145	correct	regulate	Run2	regulate/STIM_010.jpg
1185.642	1.932	correct	regulate	Run2	regulate/STIM_010.jpg
1190.576	1.327	correct	regulate	Run2	regulate/STIM_011.jpg
1195.718	1.307	incorrect	regulate	Run2	regulate/STIM_011.jpg
1200.438	1.66	correct	regulate	Run2	regulate/STIM_011.jpg
1205.673	1.851	correct	regulate	Run2	regulate/STIM_011.jpg
1211.304	1.621	correct	regulate	Run2	regulate/STIM_012.jpg
1215.392	1.184	correct	regulate	Run2	regulate/STIM_012.jpg
1220.434	2.539	incorrect	regulate	Run2	regulate/STIM_012.jpg
1226.684	2.213	correct	regulate	Run2	regulate/STIM_012.jpg
1231.903	1.981	correct	regulate	Run2	regulate/STIM_013.jpg
1237.061	2.573	correct	regulate	Run2	regulate/STIM_013.jpg
1243.304	2.143	correct	regulate	Run2	regulate/STIM_013.jpg
1247.764	1.351	correct	regulate	Run2	regulate/STIM_013.jpg
1252.574	2.19	correct	regulate	Run2	regulate/STIM_014.jpg
1257.375	1.339	correct	regulate	Run2	regulate/STIM_014.jpg
1262.076	1.242	correct	regulate	Run2	regulate/STIM_014.jpg
1267.244	1.667	incorrect	regulate	Run2	regulate/STIM_014.jpg
1272.732	1.554	correct	regulate	Run2	regulate/STIM_015.jpg
1277.782	2.363	correct	regulate	Run2	regulate/STIM_015.jpg
1284.04	1.164	correct	regulate	Run2	regulate/STIM_015.jpg
1288.714	1.082	correct	regulate	Run2	regulate/STIM_015.jpg
1293.161	2.341	correct	regulate	Run2	regulate/STIM_016.jpg
1298.377	2.7	correct	regulate	Run2	regulate/STIM_016.jpg
1304.597	2.36	correct	regulate	Run2	regulate/STIM_016.jpg
1309.19	2.187	correct	regulate	Run2	regulate/STIM_016.jpg
1313.759	1.567	correct	regulate	Run2	regulate/STIM_017.jpg
1318.389	2.637	correct	regulate	Run2	regulate/STIM_017.jpg
1323.485	2.428	incorrect	regulate	Run2	regulate/STIM_017.jpg
1329.082	1.398	correct	regulate	Run2	regulate/STIM_017.jpg
1332.957	1.671	incorrect	regulate	Run2	regulate/STIM_018.jpg
1337.873	2.465	correct	regulate	Run2	regulate/STIM_018.jpg
1342.93	2.416	correct	regulate	Run2	regulate/STIM_018.jpg
1347.536	2.023	incorrect	regulate	Run2	regulate/STIM_018.jpg
1352.676	2.501	correct	regulate	Run2	regulate/STIM_019.jpg
1358.843	1.195	incorrect	regulate	Run2	regulate/STIM_019.jpg
1362.292	1.929	correct	regulate	Run2	regulate/STIM_019.jpg
1366.295	1.95	correct	regulate	Run2	regulate/STIM_019.jpg
1371.975	1.525	correct	regulate	Run2	regulate/STIM_020.jpg
1376.765	1.842	correct	regulate	Run2	regulate/STIM_020.jpg
1382.322	1.215	correct	regulate	Run2	regulate/STIM_020.jpg
1386.869	2.356	correct	regulate	Run2	regulate/STIM_020.jpg
1391.601	2.558	correct	regulate	Run2	regulate/STIM_021.jpg
1398.148	1.485	correct	regulate	Run2	regulate/STIM_021.jpg
1403.446	2.236	correct	regulate	Run2	regulate/STIM_021.jpg
1408.852	1.398	correct	regulate	Run2	regulate/STIM_021.jpg
1413.494	2.298	correct	regulate	Run2	regulate/STIM_022.jpg
1419.043	1.567	correct	regulate	Run2	regulate/STIM_022.jpg
1424.294	1.494	correct	regulate	Run2	regulate/STIM_022.jpg
1429.644	1.089	correct	regulate	Run2	regulate/STIM_022.jpg
1434.161	2.782	correct	regulate	Run2	regulate/STIM_023.jpg
1440.244	1.412	incorrect	regulate	Run2	regulate/STIM_023.jpg
1445.577	2.167	correct	regulate	Run2	regulate/STIM_023.jpg
1449.916	2.034	correct	regulate	Run2	regulate/STIM_023.jpg
1455.427	1.525	correct	regulate	Run2	regulate/STIM_024.jpg
1459.685	1.468	correct	regulate	Run2	regulate/STIM_024.jpg
1463.939	2.23	correct	regulate	Run2	regulate/STIM_024.jpg
1468.553	1.826	correct	regulate	Run2	regulate/STIM_024.jpg
1474.311	2.54	correct	regulate	Run2	regulate/STIM_025.jpg
1479.199	1.957	correct	regulate	Run2	regulate/STIM_025.jpg
1484.986	1.937	correct	regulate	Run2	regulate/STIM_025.jpg
1490.385	1.354	correct	regulate	Run2	regulate/STIM_025.jpg
1495.587	2.12	correct	regulate	Run2	regulate/STIM_026.jpg
1500.977	1.204	correct	regulate	Run2	regulate/STIM_026.jpg
1505.533	1.488	correct	regulate	Run2	regulate/STIM_026.jpg
1510.505	1.647	correct	regulate	Run2	regulate/STIM_026.jpg
1515.703	1.452	incorrect	regulate	Run2	regulate/STIM_027.jpg
1520.937	1.425	correct	regulate	Run2	regulate/STIM_027.jpg
1526.361	1.36	correct	regulate	Run2	regulate/STIM_027.jpg
1530.179	1.624	correct	regulate	Run2	regulate/STIM_027.jpg
1534.692	2.638	correct	regulate	Run2	regulate/STIM_028.jpg
1539.875	1.472	correct	regulate	Run2	regulate/STIM_028.jpg
1544.437	2.217	correct	regulate	Run2	regulate/STIM_028.jpg
1550.017	1.356	correct	regulate	Run2	regulate/STIM_028.jpg
1554.347	1.36	correct	regulate	Run2	regulate/STIM_029.jpg
1559.108	2.052	incorrect	regulate	Run2	regulate/STIM_029.jpg
1563.346	1.546	correct	regulate	Run2	regulate/STIM_029.jpg
1568.567	1.951	correct	regulate	Run2	regulate/STIM_029.jpg
1574.35	1.557	correct	observe	Run2	observe/STIM_000.jpg
1579.151	0.799	correct	observe	Run2	observe/STIM_000.jpg
1582.474	1.436	correct	observe	Run2	observe/STIM_000.jpg
1586.159	1.348	correct	observe	Run2	observe/STIM_000.jpg
1591.094	1.266	incorrect	observe	Run2	observe/STIM_001.jpg
1595.655	1.489	correct	observe	Run2	observe/STIM_001.jpg
1599.908	1.304	correct	observe	Run2	observe/STIM_001.jpg
1604.074	1.041	correct	observe	Run2	observe/STIM_001.jpg
1608.606	1.307	correct	observe	Run2	observe/STIM_002.jpg
1612.908	0.946	correct	observe	Run2	observe/STIM_002.jpg
1617.84	1.49	correct	observe	Run2	observe/STIM_002.jpg
1621.877	1.566	correct	observe	Run2	observe/STIM_002.jpg
1625.664	1.493	correct	observe	Run2	observe/STIM_003.jpg
1630.555	1.326	correct	observe	Run2	observe/STIM_003.jpg
1635.276	1.543	incorrect	observe	Run2	observe/STIM_003.jpg
1639.132	1.219	correct	observe	Run2	observe/STIM_003.jpg
1644.171	1.123	correct	observe	Run2	observe/STIM_004.jpg
1647.582	1.468	correct	observe	Run2	observe/STIM_004.jpg
1651.089	1.1	correct	observe	Run2	observe/STIM_004.jpg
1655.418	1.498	correct	observe	Run2	observe/STIM_004.jpg
1659.409	1.037	correct	observe	Run2	observe/STIM_005.jpg
1662.594	1.494	correct	observe	Run2	observe/STIM_005.jpg
1666.86	1.051	correct	observe	Run2	observe/STIM_005.jpg
1669.916	0.963	correct	observe	Run2	observe/STIM_005.jpg
1672.985	1.328	correct	observe	Run2	observe/STIM_006.jpg
1676.927	1.201	correct	observe	Run2	observe/STIM_006.jpg
1680.278	1.461	incorrect	observe	Run2	observe/STIM_006.jpg
1684.207	0.876	correct	observe	Run2	observe/STIM_006.jpg
1689.066	0.98	correct	observe	Run2	observe/STIM_007.jpg
1692.479	1.344	correct	observe	Run2	observe/STIM_007.jpg
1697.391	1.382	correct	observe	Run2	observe/STIM_007.jpg
1701.843	1.3	correct	observe	Run2	observe/STIM_007.jpg
1705.541	0.961	correct	observe	Run2	observe/STIM_008.jpg
1710.204	1.552	correct	observe	Run2	observe/STIM_008.jpg
1715.718	1.11	correct	observe	Run2	observe/STIM_008.jpg
1719.569	1.002	correct	observe	Run2	observe/STIM_008.jpg
1724.182	1.146	incorrect	observe	Run2	observe/STIM_009.jpg
1727.561	1.324	correct	observe	Run2	observe/STIM_009.jpg
1731.154	1.063	incorrect	observe	Run2	observe/STIM_009.jpg
1736.113	1.523	correct	observe	Run2	observe/STIM_009.jpg
1740.495	1.112	incorrect	observe	Run2	observe/STIM_010.jpg
1745.449	1.34	correct	observe	Run2	observe/STIM_010.jpg
1749.453	0.946	incorrect	observe	Run2	observe/STIM_010.jpg
1753.196	1.249	correct	observe	Run2	observe/STIM_010.jpg
1758.405	1.069	correct	observe	Run2	observe/STIM_011.jpg
1762.271	1.501	correct	observe	Run2	observe/STIM_011.jpg
1766.272	1.254	correct	observe	Run2	observe/STIM_011.jpg
1769.628	0.848	incorrect	observe	Run2	observe/STIM_011.jpg
1773.853	1.424	correct	observe	Run2	observe/STIM_012.jpg
1779.225	0.942	correct	observe	Run2	observe/STIM_012.jpg
1783.604	1.074	correct	observe	Run2	observe/STIM_012.jpg
1788.366	1.041	correct	observe	Run2	observe/STIM_012.jpg
1791.963	1.344	correct	observe	Run2	observe/STIM_013.jpg
1795.832	1.454	incorrect	observe	Run2	observe/STIM_013.jpg
1800.236	0.837	correct	observe	Run2	observe/STIM_013.jpg
1804.659	0.793	incorrect	observe	Run2	observe/STIM_013.jpg
1809.095	1.508	correct	observe	Run2	observe/STIM_014.jpg
1813.828	0.987	correct	observe	Run2	observe/STIM_014.jpg
1817.041	1.407	incorrect	observe	Run2	observe/STIM_014.jpg
1822.316	1.414	correct	observe	Run2	observe/STIM_014.jpg
1826.879	1.196	correct	observe	Run2	observe/STIM_015.jpg
1830.119	1.481	correct	observe	Run2	observe/STIM_015.jpg
1833.85	0.828	correct	observe	Run2	observe/STIM_015.jpg
1837.731	1.003	correct	observe	Run2	observe/STIM_015.jpg
1840.985	0.848	correct	observe	Run2	observe/STIM_016.jpg
1845.631	0.839	incorrect	observe	Run2	observe/STIM_016.jpg
1849.959	0.85	correct	observe	Run2	observe/STIM_016.jpg
1853.756	1.294	incorrect	observe	Run2	observe/STIM_016.jpg
1857.059	0.984	correct	observe	Run2	observe/STIM_017.jpg
1860.7	1.024	correct	observe	Run2	observe/STIM_017.jpg
1865.071	1.21	correct	observe	Run2	observe/STIM_017.jpg
1868.718	1.099	correct	observe	Run2	observe/STIM_017.jpg
1873.008	1.56	correct	observe	Run2	observe/STIM_018.jpg
1878.169	1.201	correct	observe	Run2	observe/STIM_018.jpg
1881.901	1.2	correct	observe	Run2	observe/STIM_018.jpg
1885.747	1.195	correct	observe	Run2	observe/STIM_018.jpg
1889.66	1.063	correct	observe	Run2	observe/STIM_019.jpg
1893.059	1.088	correct	observe	Run2	observe/STIM_019.jpg
1897.865	1.033	correct	observe	Run2	observe/STIM_019.jpg
1901.38	1.272	correct	observe	Run2	observe/STIM_019.jpg
1905.013	1.232	correct	regulate	Run3	regulate/STIM_000.jpg
1908.525	1.38	correct	regulate	Run3	regulate/STIM_000.jpg
1912.773	2.157	incorrect	regulate	Run3	regulate/STIM_000.jpg
1918.56	2.268	correct	regulate	Run3	regulate/STIM_000.jpg
1923.694	1.387	correct	regulate	Run3	regulate/STIM_001.jpg
1927.886	1.531	correct	regulate	Run3	regulate/STIM_001.jpg
1933.001	1.446	correct	regulate	Run3	regulate/STIM_001.jpg
1937.031	1.751	correct	regulate	Run3	regulate/STIM_001.jpg
1942.757	2.208	correct	regulate	Run3	regulate/STIM_002.jpg
1948.512	1.185	correct	regulate	Run3	regulate/STIM_002.jpg
1952.662	1.635	correct	regulate	Run3	regulate/STIM_002.jpg
1958.265	1.367	correct	regulate	Run3	regulate/STIM_002.jpg
1962.952	2.248	correct	regulate	Run3	regulate/STIM_003.jpg
1967.337	1.462	correct	regulate	Run3	regulate/STIM_003.jpg
1972.656	1.536	incorrect	regulate	Run3	regulate/STIM_003.jpg
1977.678	1.688	correct	regulate	Run3	regulate/STIM_003.jpg
1982.417	1.911	correct	regulate	Run3	regulate/STIM_004.jpg
1986.992	1.356	correct	regulate	Run3	regulate/STIM_004.jpg
1991.468	1.214	correct	regulate	Run3	regulate/STIM_004.jpg
1996.009	1.888	correct	regulate	Run3	regulate/STIM_004.jpg
2000.619	1.815	correct	regulate	Run3	regulate/STIM_005.jpg
2004.473	1.153	correct	regulate	Run3	regulate/STIM_005.jpg
2009.521	1.98	correct	regulate	Run3	regulate/STIM_005.jpg
2013.763	2.198	correct	regulate	Run3	regulate/STIM_005.jpg
2018.329	2.4	incorrect	regulate	Run3	regulate/STIM_006.jpg
2022.73	1.314	correct	regulate	Run3	regulate/STIM_006.jpg
2027.759	2.164	correct	regulate	Run3	regulate/STIM_006.jpg
2032.623	1.252	correct	regulate	Run3	regulate/STIM_006.jpg
2037.693	1.561	correct	regulate	Run3	regulate/STIM_007.jpg
2041.578	1.631	correct	regulate	Run3	regulate/STIM_007.jpg
2045.718	1.047	correct	regulate	Run3	regulate/STIM_007.jpg
2050.094	1.663	incorrect	regulate	Run3	regulate/STIM_007.jpg
2055.373	2.274	incorrect	regulate	Run3	regulate/STIM_008.jpg
2060.868	2.05	correct	regulate	Run3	regulate/STIM_008.jpg
2066.135	2.235	correct	regulate	Run3	regulate/STIM_008.jpg
2070.661	2.076	correct	regulate	Run3	regulate/STIM_008.jpg
2076.091	1.852	correct	regulate	Run3	regulate/STIM_009.jpg
2080.798	1.841	correct	regulate	Run3	regulate/STIM_009.jpg
2085.373	2.292	correct	regulate	Run3	regulate/STIM_009.jpg
2091.37	1.499	correct	regulate	Run3	regulate/STIM_009.jpg
2096.185	1.49	correct	regulate	Run3	regulate/STIM_010.jpg
2100.942	1.396	correct	regulate	Run3	regulate/STIM_010.jpg
2104.818	1.22	correct	regulate	Run3	regulate/STIM_010.jpg
2108.415	2.0	correct	regulate	Run3	regulate/STIM_010.jpg
2113.681	1.418	correct	regulate	Run3	regulate/STIM_011.jpg
2118.156	2.035	correct	regulate	Run3	regulate/STIM_011.jpg
2123.396	2.135	correct	regulate	Run3	regulate/STIM_011.jpg
2128.283	1.248	correct	regulate	Run3	regulate/STIM_011.jpg
2132.477	2.345	correct	regulate	Run3	regulate/STIM_012.jpg
2138.372	2.227	correct	regulate	Run3	regulate/STIM_012.jpg
2142.737	1.962	correct	regulate	Run3	regulate/STIM_012.jpg
2147.708	2.046	correct	regulate	Run3	regulate/STIM_012.jpg
2152.342	1.653	correct	regulate	Run3	regulate/STIM_013.jpg
2156.261	1.088	correct	regulate	Run3	regulate/STIM_013.jpg
2160.943	1.367	correct	regulate	Run3	regulate/STIM_013.jpg
2165.089	1.317	correct	regulate	Run3	regulate/STIM_013.jpg
2169.375	2.014	correct	regulate	Run3	regulate/STIM_014.jpg
2174.595	1.853	incorrect	regulate	Run3	regulate/STIM_014.jpg
2179.1	1.894	correct	regulate	Run3	regulate/STIM_014.jpg
2184.837	1.9	correct	regulate	Run3	regulate/STIM_014.jpg
2189.352	1.353	correct	regulate	Run3	regulate/STIM_015.jpg
2193.63	1.558	correct	regulate	Run3	regulate/STIM_015.jpg
2197.538	1.192	correct	regulate	Run3	regulate/STIM_015.jpg
2201.489	1.536	correct	regulate	Run3	regulate/STIM_015.jpg
2205.253	2.071	correct	regulate	Run3	regulate/STIM_016.jpg
2209.445	1.731	correct	regulate	Run3	regulate/STIM_016.jpg
2213.546	2.376	correct	regulate	Run3	regulate/STIM_016.jpg
2218.039	1.63	correct	regulate	Run3	regulate/STIM_016.jpg
2222.035	1.482	correct	regulate	Run3	regulate/STIM_017.jpg
2226.534	1.919	correct	regulate	Run3	regulate/STIM_017.jpg
2231.465	1.118	correct	regulate	Run3	regulate/STIM_017.jpg
2235.987	1.283	correct	regulate	Run3	regulate/STIM_017.jpg
2240.632	1.558	correct	regulate	Run3	regulate/STIM_018.jpg
2245.229	2.038	correct	regulate	Run3	regulate/STIM_018.jpg
2251.068	2.149	correct	regulate	Run3	regulate/STIM_018.jpg
2255.76	2.33	correct	regulate	Run3	regulate/STIM_018.jpg
2261.327	2.047	correct	regulate	Run3	regulate/STIM_019.jpg
2265.586	1.312	correct	regulate	Run3	regulate/STIM_019.jpg
2269.118	2.115	correct	regulate	Run3	regulate/STIM_019.jpg
2273.637	1.659	correct	regulate	Run3	regulate/STIM_019.jpg
2278.917	1.373	correct	regulate	Run3	regulate/STIM_020.jpg
2283.954	1.998	correct	regulate	Run3	regulate/STIM_020.jpg
2288.499	2.305	correct	regulate	Run3	regulate/STIM_020.jpg
2293.955	2.09	correct	regulate	Run3	regulate/STIM_020.jpg
2298.047	2.389	correct	regulate	Run3	regulate/STIM_021.jpg
2304.073	1.622	correct	regulate	Run3	regulate/STIM_021.jpg
2308.03	1.704	correct	regulate	Run3	regulate/STIM_021.jpg
2312.84	1.215	correct	regulate	Run3	regulate/STIM_021.jpg
2317.537	1.143	correct	regulate	Run3	regulate/STIM_022.jpg
2321.943	1.978	correct	regulate	Run3	regulate/STIM_022.jpg
2327.86	1.85	correct	regulate	Run3	regulate/STIM_022.jpg
2332.347	1.776	correct	regulate	Run3	regulate/STIM_022.jpg
2337.464	1.265	correct	regulate	Run3	regulate/STIM_023.jpg
2341.669	1.707	correct	regulate	Run3	regulate/STIM_023.jpg
2347.261	2.0	correct	regulate	Run3	regulate/STIM_023.jpg
2352.505	2.394	correct	regulate	Run3	regulate/STIM_023.jpg
2358.059	1.942	correct	regulate	Run3	regulate/STIM_024.jpg
2362.888	2.033	correct	regulate	Run3	regulate/STIM_024.jpg
2368.912	1.949	correct	regulate	Run3	regulate/STIM_024.jpg
2373.427	1.214	correct	regulate	Run3	regulate/STIM_024.jpg
2377.448	2.245	correct	regulate	Run3	regulate/STIM_025.jpg
2383.25	2.361	correct	regulate	Run3	regulate/STIM_025.jpg
2388.186	1.276	correct	regulate	Run3	regulate/STIM_025.jpg
2391.614	2.07	correct	regulate	Run3	regulate/STIM_025.jpg
2397.242	1.628	correct	regulate	Run3	regulate/STIM_026.jpg
2401.172	1.352	correct	regulate	Run3	regulate/STIM_026.jpg
2405.803	1.966	correct	regulate	Run3	regulate/STIM_026.jpg
2410.842	1.519	correct	regulate	Run3	regulate/STIM_026.jpg
2414.549	2.045	correct	regulate	Run3	regulate/STIM_027.jpg
2419.942	1.521	correct	regulate	Run3	regulate/STIM_027.jpg
2424.519	1.788	correct	regulate	Run3	regulate/STIM_027.jpg
2429.109	1.612	correct	regulate	Run3	regulate/STIM_027.jpg
2434.27	2.204	incorrect	regulate	Run3	regulate/STIM_028.jpg
2440.453	1.187	correct	regulate	Run3	regulate/STIM_028.jpg
2444.736	2.266	correct	regulate	Run3	regulate/STIM_028.jpg
2449.027	1.778	correct	regulate	Run3	regulate/STIM_028.jpg
2454.427	2.287	correct	regulate	Run3	regulate/STIM_029.jpg
2460.611	1.802	correct	regulate	Run3	regulate/STIM_029.jpg
2464.792	1.464	incorrect	regulate	Run3	regulate/STIM_029.jpg
2468.503	1.717	correct	regulate	Run3	regulate/STIM_029.jpg
2472.402	1.376	correct	observe	Run3	observe/STIM_000.jpg
2476.839	0.938	correct	observe	Run3	observe/STIM_000.jpg
2481.552	0.963	correct	observe	Run3	observe/STIM_000.jpg
2485.757	0.985	correct	observe	Run3	observe/STIM_000.jpg
2489.385	1.099	correct	observe	Run3	observe/STIM_001.jpg
2493.15	0.913	incorrect	observe	Run3	observe/STIM_001.jpg
2498.042	0.826	correct	observe	Run3	observe/STIM_001.jpg
2501.888	1.42	correct	observe	Run3	observe/STIM_001.jpg
2505.969	0.809	correct	observe	Run3	observe/STIM_002.jpg
2509.305	1.319	correct	observe	Run3	observe/STIM_002.jpg
2513.511	1.278	correct	observe	Run3	observe/STIM_002.jpg
2518.301	1.223	correct	observe	Run3	observe/STIM_002.jpg
2522.935	0.892	incorrect	observe	Run3	observe/STIM_003.jpg
2526.906	1.319	correct	observe	Run3	observe/STIM_003.jpg
2531.73	1.394	correct	observe	Run3	observe/STIM_003.jpg
2537.108	1.033	correct	observe	Run3	observe/STIM_003.jpg
2540.916	1.481	correct	observe	Run3	observe/STIM_004.jpg
2546.236	1.064	correct	observe	Run3	observe/STIM_004.jpg
2549.606	0.942	correct	observe	Run3	observe/STIM_004.jpg
2553.44	1.263	correct	observe	Run3	observe/STIM_004.jpg
2557.279	0.853	correct	observe	Run3	observe/STIM_005.jpg
2561.16	1.078	correct	observe	Run3	observe/STIM_005.jpg
2564.632	1.4	correct	observe	Run3	observe/STIM_005.jpg
2568.96	1.068	correct	observe	Run3	observe/STIM_005.jpg
2572.647	0.942	incorrect	observe	Run3	observe/STIM_006.jpg
2576.106	1.564	correct	observe	Run3	observe/STIM_006.jpg
2580.988	1.225	correct	observe	Run3	observe/STIM_006.jpg
2584.739	1.519	correct	observe	Run3	observe/STIM_006.jpg
2589.233	1.195	correct	observe	Run3	observe/STIM_007.jpg
2592.727	1.38	correct	observe	Run3	observe/STIM_007.jpg
2597.763	1.294	correct	observe	Run3	observe/STIM_007.jpg
2601.146	1.476	correct	observe	Run3	observe/STIM_007.jpg
2605.235	0.825	correct	observe	Run3	observe/STIM_008.jpg
2609.889	1.032	correct	observe	Run3	observe/STIM_008.jpg
2613.913	1.26	correct	observe	Run3	observe/STIM_008.jpg
2617.305	1.232	correct	observe	Run3	observe/STIM_008.jpg
2621.511	1.07	correct	observe	Run3	observe/STIM_009.jpg
2626.321	1.262	correct	observe	Run3	observe/STIM_009.jpg
2630.322	1.067	correct	observe	Run3	observe/STIM_009.jpg
2635.175	1.217	correct	observe	Run3	observe/STIM_009.jpg
2639.413	1.343	correct	observe	Run3	observe/STIM_010.jpg
2643.304	1.264	correct	observe	Run3	observe/STIM_010.jpg
2647.63	1.532	correct	observe	Run3	observe/STIM_010.jpg
2652.835	0.995	correct	observe	Run3	observe/STIM_010.jpg
2657.457	0.97	correct	observe	Run3	observe/STIM_011.jpg
2661.621	1.298	correct	observe	Run3	observe/STIM_011.jpg
2664.969	0.926	correct	observe	Run3	observe/STIM_011.jpg
2668.99	0.872	correct	observe	Run3	observe/STIM_011.jpg
2673.721	1.367	correct	observe	Run3	observe/STIM_012.jpg
2678.444	1.361	correct	observe	Run3	observe/STIM_012.jpg
2682.875	0.786	incorrect	observe	Run3	observe/STIM_012.jpg
2685.989	1.231	correct	observe	Run3	observe/STIM_012.jpg
2689.356	0.806	correct	observe	Run3	observe/STIM_013.jpg
2693.013	1.136	correct	observe	Run3	observe/STIM_013.jpg
2698.116	1.179	correct	observe	Run3	observe/STIM_013.jpg
2703.02	1.264	correct	observe	Run3	observe/STIM_013.jpg
2706.387	1.399	correct	observe	Run3	observe/STIM_014.jpg
2711.372	1.012	correct	observe	Run3	observe/STIM_014.jpg
2714.409	1.56	correct	observe	Run3	observe/STIM_014.jpg
2719.495	1.165	correct	observe	Run3	observe/STIM_014.jpg
2724.623	1.366	correct	observe	Run3	observe/STIM_015.jpg
2729.169	1.535	correct	observe	Run3	observe/STIM_015.jpg
2733.599	0.844	correct	observe	Run3	observe/STIM_015.jpg
2736.735	1.52	incorrect	observe	Run3	observe/STIM_015.jpg
2740.757	1.313	correct	observe	Run3	observe/STIM_016.jpg
2744.357	1.469	correct	observe	Run3	observe/STIM_016.jpg
2748.086	1.18	incorrect	observe	Run3	observe/STIM_016.jpg
2752.8	1.31	incorrect	observe	Run3	observe/STIM_016.jpg
2757.435	0.816	correct	observe	Run3	observe/STIM_017.jpg
2761.035	1.277	correct	observe	Run3	observe/STIM_017.jpg
2765.427	1.384	correct	observe	Run3	observe/STIM_017.jpg
2770.038	1.519	correct	observe	Run3	observe/STIM_017.jpg
2774.136	1.494	correct	observe	Run3	observe/STIM_018.jpg
2778.822	0.801	correct	observe	Run3	observe/STIM_018.jpg
2783.063	0.804	correct	observe	Run3	observe/STIM_018.jpg
2786.438	1.102	correct	observe	Run3	observe/STIM_018.jpg
2790.926	1.497	correct	observe	Run3	observe/STIM_019.jpg
2795.95	0.934	correct	observe	Run3	observe/STIM_019.jpg
2800.532	1.424	correct	observe	Run3	observe/STIM_019.jpg
2804.03	1.116	incorrect	observe	Run3	observe/STIM_019.jpg
