onset	duration	accuracy	trial_type	learning_stage	stimulus
0.0	1.49	correct	generate	Run1	generate/STIM_000.jpg
3.685	1.727	correct	generate	Run1	generate/STIM_000.jpg
9.365	1.366	correct	generate	Run1	generate/STIM_000.jpg
14.076	2.116	correct	generate	Run1	generate/STIM_000.jpg
18.77	1.076	correct	generate	Run1	generate/STIM_000.jpg
22.37	1.627	correct	generate	Run1	generate/STIM_001.jpg
26.468	1.812	correct	generate	Run1	generate/STIM_001.jpg
31.361	1.619	correct	generate	Run1	generate/STIM_001.jpg
36.554	2.1	correct	generate	Run1	generate/STIM_001.jpg
41.52	2.03	correct	generate	Run1	generate/STIM_001.jpg
47.19	2.014	correct	generate	Run1	generate/STIM_002.jpg
52.249	1.948	correct	generate	Run1	generate/STIM_002.jpg
57.963	1.237	incorrect	generate	Run1	generate/STIM_002.jpg
62.156	1.458	correct	generate	Run1	generate/STIM_002.jpg
67.551	1.222	correct	generate	Run1	generate/STIM_002.jpg
72.519	2.702	correct	generate	Run1	generate/STIM_003.jpg
78.212	2.453	correct	generate	Run1	generate/STIM_003.jpg
83.497	2.23	correct	generate	Run1	generate/STIM_003.jpg
87.946	2.399	correct	generate	Run1	generate/STIM_003.jpg
92.601	2.163	correct	generate	Run1	generate/STIM_003.jpg
98.34	2.597	correct	generate	Run1	generate/STIM_004.jpg
104.531	1.952	correct	generate	Run1	generate/STIM_004.jpg
110.102	1.883	correct	generate	Run1	generate/STIM_004.jpg
115.689	1.612	correct	generate	Run1	generate/STIM_004.jpg
121.048	1.208	correct	generate	Run1	generate/STIM_004.jpg
124.457	2.598	correct	generate	Run1	generate/STIM_005.jpg
130.436	1.977	correct	generate	Run1	generate/STIM_005.jpg
135.751	1.908	correct	generate	Run1	generate/STIM_005.jpg
140.133	1.334	incorrect	generate	Run1	generate/STIM_005.jpg
144.19	2.204	correct	generate	Run1	generate/STIM_005.jpg
149.745	2.156	incorrect	generate	Run1	generate/STIM_006.jpg
154.552	2.476	correct	generate	Run1	generate/STIM_006.jpg
159.279	1.67	correct	generate	Run1	generate/STIM_006.jpg
164.659	2.394	correct	generate	Run1	generate/STIM_006.jpg
170.768	2.205	correct	generate	Run1	generate/STIM_006.jpg
176.295	1.396	incorrect	generate	Run1	generate/STIM_007.jpg
181.182	1.633	incorrect	generate	Run1	generate/STIM_007.jpg
186.292	1.433	incorrect	generate	Run1	generate/STIM_007.jpg
190.214	1.614	correct	generate	Run1	generate/STIM_007.jpg
195.242	2.176	correct	generate	Run1	generate/STIM_007.jpg
200.189	2.717	correct	generate	Run1	generate/STIM_008.jpg
206.84	2.102	correct	generate	Run1	generate/STIM_008.jpg
212.582	2.647	correct	generate	Run1	generate/STIM_008.jpg
218.927	2.536	correct	generate	Run1	generate/STIM_008.jpg
223.619	1.225	correct	generate	Run1	generate/STIM_008.jpg
227.497	1.403	correct	generate	Run1	generate/STIM_009.jpg
232.104	2.647	incorrect	generate	Run1	generate/STIM_009.jpg
237.485	1.768	correct	generate	Run1	generate/STIM_009.jpg
243.016	1.792	correct	generate	Run1	generate/STIM_009.jpg
248.787	1.423	correct	generate	Run1	generate/STIM_009.jpg
252.753	1.303	correct	generate	Run1	generate/STIM_010.jpg
256.694	2.903	correct	generate	Run1	generate/STIM_010.jpg
262.721	2.184	correct	generate	Run1	generate/STIM_010.jpg
267.474	1.901	correct	generate	Run1	generate/STIM_010.jpg
271.501	1.504	correct	generate	Run1	generate/STIM_010.jpg
276.449	1.682	correct	generate	Run1	generate/STIM_011.jpg
281.421	1.329	incorrect	generate	Run1	generate/STIM_011.jpg
286.129	2.231	correct	generate	Run1	generate/STIM_011.jpg
291.878	1.666	correct	generate	Run1	generate/STIM_011.jpg
297.324	1.774	incorrect	generate	Run1	generate/STIM_011.jpg
302.01	2.794	incorrect	generate	Run1	generate/STIM_012.jpg
308.444	1.392	correct	generate	Run1	generate/STIM_012.jpg
313.632	2.015	correct	generate	Run1	generate/STIM_012.jpg
318.25	1.224	correct	generate	Run1	generate/STIM_012.jpg
322.973	1.132	correct	generate	Run1	generate/STIM_012.jpg
326.366	1.864	correct	generate	Run1	generate/STIM_013.jpg
331.171	1.215	correct	generate	Run1	generate/STIM_013.jpg
335.413	2.345	correct	generate	Run1	generate/STIM_013.jpg
339.889	1.401	correct	generate	Run1	generate/STIM_013.jpg
343.587	1.906	correct	generate	Run1	generate/STIM_013.jpg
347.67	1.27	correct	generate	Run1	generate/STIM_014.jpg
351.422	2.741	correct	generate	Run1	generate/STIM_014.jpg
356.834	1.243	correct	generate	Run1	generate/STIM_014.jpg
361.437	1.584	correct	generate	Run1	generate/STIM_014.jpg
366.746	1.813	correct	generate	Run1	generate/STIM_014.jpg
371.796	2.712	incorrect	generate	Run1	generate/STIM_015.jpg
377.962	1.887	correct	generate	Run1	generate/STIM_015.jpg
382.566	2.53	correct	generate	Run1	generate/STIM_015.jpg
388.1	1.838	correct	generate	Run1	generate/STIM_015.jpg
392.897	1.999	correct	generate	Run1	generate/STIM_015.jpg
397.102	2.356	correct	generate	Run1	generate/STIM_016.jpg
401.974	2.49	correct	generate	Run1	generate/STIM_016.jpg
407.406	2.739	incorrect	generate	Run1	generate/STIM_016.jpg
413.576	1.66	correct	generate	Run1	generate/STIM_016.jpg
417.845	1.557	correct	generate	Run1	generate/STIM_016.jpg
422.295	2.098	correct	generate	Run1	generate/STIM_017.jpg
427.237	1.326	correct	generate	Run1	generate/STIM_017.jpg
432.543	2.205	correct	generate	Run1	generate/STIM_017.jpg
437.738	1.141	correct	generate	Run1	generate/STIM_017.jpg
442.662	2.415	correct	generate	Run1	generate/STIM_017.jpg
447.401	2.172	correct	generate	Run1	generate/STIM_018.jpg
453.229	2.723	correct	generate	Run1	generate/STIM_018.jpg
458.944	2.554	correct	generate	Run1	generate/STIM_018.jpg
465.413	1.714	correct	generate	Run1	generate/STIM_018.jpg
470.865	1.392	correct	generate	Run1	generate/STIM_018.jpg
475.751	1.783	incorrect	generate	Run1	generate/STIM_019.jpg
480.902	1.422	correct	generate	Run1	generate/STIM_019.jpg
484.599	2.097	correct	generate	Run1	generate/STIM_019.jpg
490.044	1.634	correct	generate	Run1	generate/STIM_019.jpg
493.735	2.008	correct	generate	Run1	generate/STIM_019.jpg
498.352	1.955	incorrect	generate	Run1	generate/STIM_020.jpg
502.652	2.698	correct	generate	Run1	generate/STIM_020.jpg
507.816	1.222	correct	generate	Run1	generate/STIM_020.jpg
512.292	1.47	incorrect	generate	Run1	generate/STIM_020.jpg
516.207	2.09	correct	generate	Run1	generate/STIM_020.jpg
521.816	1.708	correct	generate	Run1	generate/STIM_021.jpg
526.038	2.584	correct	generate	Run1	generate/STIM_021.jpg
532.419	2.583	correct	generate	Run1	generate/STIM_021.jpg
538.476	1.638	correct	generate	Run1	generate/STIM_021.jpg
542.129	1.113	correct	generate	Run1	generate/STIM_021.jpg
546.798	2.404	incorrect	generate	Run1	generate/STIM_022.jpg
553.015	2.734	correct	generate	Run1	generate/STIM_022.jpg
558.319	2.344	correct	generate	Run1	generate/STIM_022.jpg
564.195	2.15	correct	generate	Run1	generate/STIM_022.jpg
568.629	1.427	correct	generate	Run1	generate/STIM_022.jpg
572.95	1.307	correct	generate	Run1	generate/STIM_023.jpg
578.15	2.899	correct	generate	Run1	generate/STIM_023.jpg
584.91	2.025	correct	generate	Run1	generate/STIM_023.jpg
590.557	1.828	correct	generate	Run1	generate/STIM_023.jpg
596.086	1.738	correct	generate	Run1	generate/STIM_023.jpg
599.825	2.914	correct	generate	Run1	generate/STIM_024.jpg
605.138	2.687	correct	generate	Run1	generate/STIM_024.jpg
610.401	2.139	correct	generate	Run1	generate/STIM_024.jpg
615.873	2.068	correct	generate	Run1	generate/STIM_024.jpg
621.156	1.514	correct	generate	Run1	generate/STIM_024.jpg
626.645	0.976	correct	repeat	Run1	repeat/STIM_000.jpg
630.545	0.656	correct	repeat	Run1	repeat/STIM_000.jpg
634.876	0.548	correct	repeat	Run1	repeat/STIM_000.jpg
638.175	0.529	correct	repeat	Run1	repeat/STIM_000.jpg
642.658	0.874	correct	repeat	Run1	repeat/STIM_000.jpg
647.066	0.658	correct	repeat	Run1	repeat/STIM_001.jpg
650.526	0.538	correct	repeat	Run1	repeat/STIM_001.jpg
653.564	0.942	correct	repeat	Run1	repeat/STIM_001.jpg
658.486	0.57	correct	repeat	Run1	repeat/STIM_001.jpg
662.547	0.525	incorrect	repeat	Run1	repeat/STIM_001.jpg
665.073	0.799	correct	repeat	Run1	repeat/STIM_002.jpg
668.518	0.748	correct	repeat	Run1	repeat/STIM_002.jpg
671.389	0.822	correct	repeat	Run1	repeat/STIM_002.jpg
675.788	0.808	correct	repeat	Run1	repeat/STIM_002.jpg
678.965	0.625	correct	repeat	Run1	repeat/STIM_002.jpg
682.896	0.954	correct	repeat	Run1	repeat/STIM_003.jpg
686.876	0.542	correct	repeat	Run1	repeat/STIM_003.jpg
689.903	0.944	correct	repeat	Run1	repeat/STIM_003.jpg
693.167	0.526	correct	repeat	Run1	repeat/STIM_003.jpg
697.096	0.543	correct	repeat	Run1	repeat/STIM_003.jpg
699.754	0.864	correct	repeat	Run1	repeat/STIM_004.jpg
703.184	0.697	correct	repeat	Run1	repeat/STIM_004.jpg
706.931	0.953	correct	repeat	Run1	repeat/STIM_004.jpg
711.043	0.524	correct	repeat	Run1	repeat/STIM_004.jpg
714.112	0.787	correct	repeat	Run1	repeat/STIM_004.jpg
718.001	0.864	correct	repeat	Run1	repeat/STIM_005.jpg
722.134	0.651	correct	repeat	Run1	repeat/STIM_005.jpg
725.415	0.864	correct	repeat	Run1	repeat/STIM_005.jpg
728.942	0.696	correct	repeat	Run1	repeat/STIM_005.jpg
732.57	0.792	correct	repeat	Run1	repeat/STIM_005.jpg
735.939	0.804	correct	repeat	Run1	repeat/STIM_006.jpg
739.728	0.547	correct	repeat	Run1	repeat/STIM_006.jpg
743.223	0.807	correct	repeat	Run1	repeat/STIM_006.jpg
747.038	0.952	correct	repeat	Run1	repeat/STIM_006.jpg
751.974	0.632	correct	repeat	Run1	repeat/STIM_006.jpg
756.544	0.682	correct	repeat	Run1	repeat/STIM_007.jpg
760.543	0.758	correct	repeat	Run1	repeat/STIM_007.jpg
764.219	0.863	correct	repeat	Run1	repeat/STIM_007.jpg
767.27	0.674	correct	repeat	Run1	repeat/STIM_007.jpg
771.927	0.903	correct	repeat	Run1	repeat/STIM_007.jpg
776.189	0.61	correct	repeat	Run1	repeat/STIM_008.jpg
778.99	0.977	correct	repeat	Run1	repeat/STIM_008.jpg
783.64	0.632	correct	repeat	Run1	repeat/STIM_008.jpg
787.491	0.536	correct	repeat	Run1	repeat/STIM_008.jpg
791.77	0.574	correct	repeat	Run1	repeat/STIM_008.jpg
795.583	0.849	correct	repeat	Run1	repeat/STIM_009.jpg
798.569	0.976	correct	repeat	Run1	repeat/STIM_009.jpg
801.746	0.845	correct	repeat	Run1	repeat/STIM_009.jpg
805.142	0.675	correct	repeat	Run1	repeat/STIM_009.jpg
807.836	0.916	correct	repeat	Run1	repeat/STIM_009.jpg
811.055	0.607	correct	repeat	Run1	repeat/STIM_010.jpg
815.391	0.901	correct	repeat	Run1	repeat/STIM_010.jpg
818.703	0.71	correct	repeat	Run1	repeat/STIM_010.jpg
823.373	0.961	correct	repeat	Run1	repeat/STIM_010.jpg
828.263	0.944	correct	repeat	Run1	repeat/STIM_010.jpg
831.472	0.929	correct	repeat	Run1	repeat/STIM_011.jpg
834.735	0.568	correct	repeat	Run1	repeat/STIM_011.jpg
838.179	0.955	correct	repeat	Run1	repeat/STIM_011.jpg
841.189	0.755	correct	repeat	Run1	repeat/STIM_011.jpg
844.284	0.559	correct	repeat	Run1	repeat/STIM_011.jpg
847.931	0.947	correct	repeat	Run1	repeat/STIM_012.jpg
851.768	0.755	correct	repeat	Run1	repeat/STIM_012.jpg
856.472	1.006	correct	repeat	Run1	repeat/STIM_012.jpg
860.422	0.656	correct	repeat	Run1	repeat/STIM_012.jpg
864.481	0.808	correct	repeat	Run1	repeat/STIM_012.jpg
867.304	0.756	correct	repeat	Run1	repeat/STIM_013.jpg
870.322	0.516	incorrect	repeat	Run1	repeat/STIM_013.jpg
872.918	0.568	correct	repeat	Run1	repeat/STIM_013.jpg
876.607	0.931	correct	repeat	Run1	repeat/STIM_013.jpg
880.998	0.994	correct	repeat	Run1	repeat/STIM_013.jpg
884.395	0.704	correct	repeat	Run1	repeat/STIM_014.jpg
887.377	0.798	correct	repeat	Run1	repeat/STIM_014.jpg
890.511	0.519	correct	repeat	Run1	repeat/STIM_014.jpg
893.393	0.792	correct	repeat	Run1	repeat/STIM_014.jpg
897.693	0.768	correct	repeat	Run1	repeat/STIM_014.jpg
902.443	2.247	correct	generate	Run2	generate/STIM_000.jpg
907.196	1.011	correct	generate	Run2	generate/STIM_000.jpg
911.436	1.289	correct	generate	Run2	generate/STIM_000.jpg
915.414	1.581	correct	generate	Run2	generate/STIM_000.jpg
919.745	1.263	correct	generate	Run2	generate/STIM_000.jpg
924.133	2.523	correct	generate	Run2	generate/STIM_001.jpg
930.373	2.321	correct	generate	Run2	generate/STIM_001.jpg
935.198	2.273	incorrect	generate	Run2	generate/STIM_001.jpg
940.408	1.078	correct	generate	Run2	generate/STIM_001.jpg
944.557	1.164	incorrect	generate	Run2	generate/STIM_001.jpg
949.571	2.262	correct	generate	Run2	generate/STIM_002.jpg
954.091	1.283	correct	generate	Run2	generate/STIM_002.jpg
958.126	1.645	correct	generate	Run2	generate/STIM_002.jpg
963.284	1.804	correct	generate	Run2	generate/STIM_002.jpg
968.622	1.01	correct	generate	Run2	generate/STIM_002.jpg
972.335	2.244	correct	generate	Run2	generate/STIM_003.jpg
977.385	1.875	correct	generate	Run2	generate/STIM_003.jpg
983.129	1.043	correct	generate	Run2	generate/STIM_003.jpg
986.476	2.106	correct	generate	Run2	generate/STIM_003.jpg
991.119	0.873	correct	generate	Run2	generate/STIM_003.jpg
994.53	2.333	correct	generate	Run2	generate/STIM_004.jpg
999.957	1.642	correct	generate	Run2	generate/STIM_004.jpg
1004.552	1.554	correct	generate	Run2	generate/STIM_004.jpg
1008.516	1.229	correct	generate	Run2	generate/STIM_004.jpg
1012.181	1.132	correct	generate	Run2	generate/STIM_004.jpg
1016.288	1.869	correct	generate	Run2	generate/STIM_005.jpg
1021.001	1.74	correct	generate	Run2	generate/STIM_005.jpg
1025.24	1.896	correct	generate	Run2	generate/STIM_005.jpg
1030.173	1.462	correct	generate	Run2	generate/STIM_005.jpg
1033.835	1.2	correct	generate	Run2	generate/STIM_005.jpg
1038.514	1.612	correct	generate	Run2	generate/STIM_006.jpg
1043.342	1.801	correct	generate	Run2	generate/STIM_006.jpg
1047.359	1.074	correct	generate	Run2	generate/STIM_006.jpg
1051.816	1.604	correct	generate	Run2	generate/STIM_006.jpg
1055.865	1.501	correct	generate	Run2	generate/STIM_006.jpg
1060.855	2.418	correct	generate	Run2	generate/STIM_007.jpg
1066.265	2.207	correct	generate	Run2	generate/STIM_007.jpg
1071.417	1.277	correct	generate	Run2	generate/STIM_007.jpg
1074.785	1.251	correct	generate	Run2	generate/STIM_007.jpg
1078.295	1.059	correct	generate	Run2	generate/STIM_007.jpg
1082.947	2.24	correct	generate	Run2	generate/STIM_008.jpg
1088.91	1.692	correct	generate	Run2	generate/STIM_008.jpg
1092.955	0.942	correct	generate	Run2	generate/STIM_008.jpg
1096.013	0.967	correct	generate	Run2	generate/STIM_008.jpg
1100.482	1.73	correct	generate	Run2	generate/STIM_008.jpg
1104.686	2.273	correct	generate	Run2	generate/STIM_009.jpg
1109.761	1.782	correct	generate	Run2	generate/STIM_009.jpg
1113.746	1.53	correct	generate	Run2	generate/STIM_009.jpg
1117.961	1.355	correct	generate	Run2	generate/STIM_009.jpg
1122.635	2.023	correct	generate	Run2	generate/STIM_009.jpg
1128.23	2.475	correct	generate	Run2	generate/STIM_010.jpg
1134.212	1.031	correct	generate	Run2	generate/STIM_010.jpg
1138.958	1.962	correct	generate	Run2	generate/STIM_010.jpg
1143.75	1.829	correct	generate	Run2	generate/STIM_010.jpg
1147.889	1.28	correct	generate	Run2	generate/STIM_010.jpg
1152.241	1.369	correct	generate	Run2	generate/STIM_011.jpg
1156.724	0.995	correct	generate	Run2	generate/STIM_011.jpg
1161.108	1.496	correct	generate	Run2	generate/STIM_011.jpg
1165.889	1.359	correct	generate	Run2	generate/STIM_011.jpg
1170.326	1.082	correct	generate	Run2	generate/STIM_011.jpg
1174.588	1.367	correct	generate	Run2	generate/STIM_012.jpg
1179.405	2.359	correct	generate	Run2	generate/STIM_012.jpg
1183.981	1.475	correct	generate	Run2	generate/STIM_012.jpg
1188.111	2.034	correct	generate	Run2	generate/STIM_012.jpg
1192.631	1.852	correct	generate	Run2	generate/STIM_012.jpg
1197.624	1.437	correct	generate	Run2	generate/STIM_013.jpg
1202.966	2.262	correct	generate	Run2	generate/STIM_013.jpg
1207.732	1.711	incorrect	generate	Run2	generate/STIM_013.jpg
1212.734	1.723	correct	generate	Run2	generate/STIM_013.jpg
1216.719	0.91	correct	generate	Run2	generate/STIM_013.jpg
1220.827	1.84	correct	generate	Run2	generate/STIM_014.jpg
1225.557	1.213	correct	generate	Run2	generate/STIM_014.jpg
1230.564	1.879	correct	generate	Run2	generate/STIM_014.jpg
1235.343	0.975	correct	generate	Run2	generate/STIM_014.jpg
1239.826	1.599	correct	generate	Run2	generate/STIM_014.jpg
1244.438	1.729	correct	generate	Run2	generate/STIM_015.jpg
1248.289	1.39	correct	generate	Run2	generate/STIM_015.jpg
1252.886	1.092	correct	generate	Run2	generate/STIM_015.jpg
1257.658	1.494	correct	generate	Run2	generate/STIM_015.jpg
1263.115	1.077	correct	generate	Run2	generate/STIM_015.jpg
1267.831	2.476	correct	generate	Run2	generate/STIM_016.jpg
1274.035	1.293	incorrect	generate	Run2	generate/STIM_016.jpg
1277.521	1.377	correct	generate	Run2	generate/STIM_016.jpg
1281.86	1.825	correct	generate	Run2	generate/STIM_016.jpg
1287.019	1.18	correct	generate	Run2	generate/STIM_016.jpg
1291.321	2.332	correct	generate	Run2	generate/STIM_017.jpg
1296.183	1.497	correct	generate	Run2	generate/STIM_017.jpg
1300.686	1.765	correct	generate	Run2	generate/STIM_017.jpg
1305.431	1.742	correct	generate	Run2	generate/STIM_017.jpg
1310.107	1.736	correct	generate	Run2	generate/STIM_017.jpg
1314.832	1.58	correct	generate	Run2	generate/STIM_018.jpg
1318.973	1.558	correct	generate	Run2	generate/STIM_018.jpg
1323.07	1.64	correct	generate	Run2	generate/STIM_018.jpg
1327.95	1.924	correct	generate	Run2	generate/STIM_018.jpg
1333.618	1.586	correct	generate	Run2	generate/STIM_018.jpg
1337.69	1.584	correct	generate	Run2	generate/STIM_019.jpg
1342.033	1.15	correct	generate	Run2	generate/STIM_019.jpg
1345.504	1.445	correct	generate	Run2	generate/STIM_019.jpg
1349.793	0.99	correct	generate	Run2	generate/STIM_019.jpg
1352.99	1.492	correct	generate	Run2	generate/STIM_019.jpg
1356.965	1.726	correct	generate	Run2	generate/STIM_020.jpg
1361.626	1.539	correct	generate	Run2	generate/STIM_020.jpg
1366.865	1.02	correct	generate	Run2	generate/STIM_020.jpg
1370.01	2.075	correct	generate	Run2	generate/STIM_020.jpg
1375.3	1.094	correct	generate	Run2	generate/STIM_020.jpg
1378.471	1.886	correct	generate	Run2	generate/STIM_021.jpg
1383.04	1.648	correct	generate	Run2	generate/STIM_021.jpg
1387.814	1.476	correct	generate	Run2	generate/STIM_021.jpg
1392.265	1.232	correct	generate	Run2	generate/STIM_021.jpg
1396.701	1.292	correct	generate	Run2	generate/STIM_021.jpg
1401.012	1.537	incorrect	generate	Run2	generate/STIM_022.jpg
1405.014	1.364	correct	generate	Run2	generate/STIM_022.jpg
1409.62	1.399	correct	generate	Run2	generate/STIM_022.jpg
1415.017	1.602	correct	generate	Run2	generate/STIM_022.jpg
1420.511	1.361	correct	generate	Run2	generate/STIM_022.jpg
1424.336	2.083	correct	generate	Run2	generate/STIM_023.jpg
1430.02	1.872	correct	generate	Run2	generate/STIM_023.jpg
1435.511	1.962	correct	generate	Run2	generate/STIM_023.jpg
1440.26	2.096	correct	generate	Run2	generate/STIM_023.jpg
1446.217	1.649	correct	generate	Run2	generate/STIM_023.jpg
1451.583	1.72	correct	generate	Run2	generate/STIM_024.jpg
1456.094	1.171	correct	generate	Run2	generate/STIM_024.jpg
1461.213	1.717	correct	generate	Run2	generate/STIM_024.jpg
1466.036	1.269	correct	generate	Run2	generate/STIM_024.jpg
1470.592	1.577	correct	generate	Run2	generate/STIM_024.jpg
1475.268	0.732	correct	repeat	Run2	repeat/STIM_000.jpg
1479.803	0.825	correct	repeat	Run2	repeat/STIM_000.jpg
1483.798	0.981	correct	repeat	Run2	repeat/STIM_000.jpg
1487.904	0.847	correct	repeat	Run2	repeat/STIM_000.jpg
1491.469	0.763	correct	repeat	Run2	repeat/STIM_000.jpg
1494.875	0.516	correct	repeat	Run2	repeat/STIM_001.jpg
1498.894	0.922	correct	repeat	Run2	repeat/STIM_001.jpg
1503.178	0.512	correct	repeat	Run2	repeat/STIM_001.jpg
1507.669	0.986	correct	repeat	Run2	repeat/STIM_001.jpg
1511.44	0.569	correct	repeat	Run2	repeat/STIM_001.jpg
1515.235	0.96	correct	repeat	Run2	repeat/STIM_002.jpg
1519.45	0.876	correct	repeat	Run2	repeat/STIM_002.jpg
1522.33	0.57	correct	repeat	Run2	repeat/STIM_002.jpg
1525.688	0.767	correct	repeat	Run2	repeat/STIM_002.jpg
1530.329	0.917	correct	repeat	Run2	repeat/STIM_002.jpg
1533.497	0.533	correct	repeat	Run2	repeat/STIM_003.jpg
1536.112	0.74	correct	repeat	Run2	repeat/STIM_003.jpg
1538.916	0.864	correct	repeat	Run2	repeat/STIM_003.jpg
1543.165	0.954	correct	repeat	Run2	repeat/STIM_003.jpg
1547.92	0.604	correct	repeat	Run2	repeat/STIM_003.jpg
1552.087	0.627	correct	repeat	Run2	repeat/STIM_004.jpg
1555.451	0.656	correct	repeat	Run2	repeat/STIM_004.jpg
1559.563	1.012	correct	repeat	Run2	repeat/STIM_004.jpg
1564.315	0.521	correct	repeat	Run2	repeat/STIM_004.jpg
1566.992	0.675	correct	repeat	Run2	repeat/STIM_004.jpg
1571.661	0.876	correct	repeat	Run2	repeat/STIM_005.jpg
1574.58	0.59	correct	repeat	Run2	repeat/STIM_005.jpg
1578.903	0.764	correct	repeat	Run2	repeat/STIM_005.jpg
1583.063	0.513	correct	repeat	Run2	repeat/STIM_005.jpg
1586.341	0.584	correct	repeat	Run2	repeat/STIM_005.jpg
1589.23	1.013	correct	repeat	Run2	repeat/STIM_006.jpg
1592.51	0.881	correct	repeat	Run2	repeat/STIM_006.jpg
1596.965	0.618	correct	repeat	Run2	repeat/STIM_006.jpg
1600.447	0.778	correct	repeat	Run2	repeat/STIM_006.jpg
1605.046	0.55	correct	repeat	Run2	repeat/STIM_006.jpg
1608.057	0.996	correct	repeat	Run2	repeat/STIM_007.jpg
1612.417	0.556	correct	repeat	Run2	repeat/STIM_007.jpg
1615.594	0.919	correct	repeat	Run2	repeat/STIM_007.jpg
1620.434	0.823	correct	repeat	Run2	repeat/STIM_007.jpg
1624.571	0.88	correct	repeat	Run2	repeat/STIM_007.jpg
1628.654	1.016	correct	repeat	Run2	repeat/STIM_008.jpg
1632.183	0.694	correct	repeat	Run2	repeat/STIM_008.jpg
1635.117	0.935	correct	repeat	Run2	repeat/STIM_008.jpg
1639.231	0.571	correct	repeat	Run2	repeat/STIM_008.jpg
1642.277	0.848	correct	repeat	Run2	repeat/STIM_008.jpg
1645.703	0.947	correct	repeat	Run2	repeat/STIM_009.jpg
1649.788	0.54	correct	repeat	Run2	repeat/STIM_009.jpg
1654.316	0.982	correct	repeat	Run2	repeat/STIM_009.jpg
1657.859	0.692	correct	repeat	Run2	repeat/STIM_009.jpg
1661.313	0.859	correct	repeat	Run2	repeat/STIM_009.jpg
1664.814	0.852	correct	repeat	Run2	repeat/STIM_010.jpg
1668.852	0.817	correct	repeat	Run2	repeat/STIM_010.jpg
1673.449	0.845	correct	repeat	Run2	repeat/STIM_010.jpg
1677.146	1.007	correct	repeat	Run2	repeat/STIM_010.jpg
1681.996	0.928	correct	repeat	Run2	repeat/STIM_010.jpg
1686.622	0.777	correct	repeat	Run2	repeat/STIM_011.jpg
1691.01	0.93	correct	repeat	Run2	repeat/STIM_011.jpg
1695.424	0.8	correct	repeat	Run2	repeat/STIM_011.jpg
1699.467	1.018	correct	repeat	Run2	repeat/STIM_011.jpg
1704.248	0.747	correct	repeat	Run2	repeat/STIM_011.jpg
1708.072	0.809	correct	repeat	Run2	repeat/STIM_012.jpg
1711.955	0.86	correct	repeat	Run2	repeat/STIM_012.jpg
1715.564	0.546	correct	repeat	Run2	repeat/STIM_012.jpg
1718.468	0.717	correct	repeat	Run2	repeat/STIM_012.jpg
1722.763	0.822	correct	repeat	Run2	repeat/STIM_012.jpg
1727.386	0.907	correct	repeat	Run2	repeat/STIM_013.jpg
1731.531	0.629	correct	repeat	Run2	repeat/STIM_013.jpg
1735.739	0.575	correct	repeat	Run2	repeat/STIM_013.jpg
1738.662	0.513	correct	repeat	Run2	repeat/STIM_013.jpg
1741.312	0.679	correct	repeat	Run2	repeat/STIM_013.jpg
1744.824	0.779	correct	repeat	Run2	repeat/STIM_014.jpg
1748.698	0.896	correct	repeat	Run2	repeat/STIM_014.jpg
1751.694	0.851	correct	repeat	Run2	repeat/STIM_014.jpg
1754.952	0.553	correct	repeat	Run2	repeat/STIM_014.jpg
1758.987	0.733	correct	repeat	Run2	repeat/STIM_014.jpg
1762.362	0.959	correct	generate	Run3	generate/STIM_000.jpg
1767.19	1.893	correct	generate	Run3	generate/STIM_000.jpg
1771.406	1.746	correct	generate	Run3	generate/STIM_000.jpg
1775.507	1.183	correct	generate	Run3	generate/STIM_000.jpg
1779.422	1.523	correct	generate	Run3	generate/STIM_000.jpg
1782.945	0.937	correct	generate	Run3	generate/STIM_001.jpg
1786.857	1.894	correct	generate	Run3	generate/STIM_001.jpg
1791.194	1.294	correct	generate	Run3	generate/STIM_001.jpg
1794.546	1.647	correct	generate	Run3	generate/STIM_001.jpg
1799.99	0.885	correct	generate	Run3	generate/STIM_001.jpg
1803.317	0.916	correct	generate	Run3	generate/STIM_002.jpg
1807.42	1.799	correct	generate	Run3	generate/STIM_002.jpg
1813.023	1.597	correct	generate	Run3	generate/STIM_002.jpg
1817.723	2.037	correct	generate	Run3	generate/STIM_002.jpg
1823.548	1.631	correct	generate	Run3	generate/STIM_002.jpg
1828.621	1.422	correct	generate	Run3	generate/STIM_003.jpg
1832.818	2.081	correct	generate	Run3	generate/STIM_003.jpg
1837.049	0.913	correct	generate	Run3	generate/STIM_003.jpg
1840.073	2.089	correct	generate	Run3	generate/STIM_003.jpg
1846.065	1.082	correct	generate	Run3	generate/STIM_003.jpg
1850.373	2.099	correct	generate	Run3	generate/STIM_004.jpg
1854.778	1.838	correct	generate	Run3	generate/STIM_004.jpg
1859.059	1.996	correct	generate	Run3	generate/STIM_004.jpg
1865.003	1.121	correct	generate	Run3	generate/STIM_004.jpg
1869.014	1.748	correct	generate	Run3	generate/STIM_004.jpg
1873.915	1.56	correct	generate	Run3	generate/STIM_005.jpg
1879.18	0.958	correct	generate	Run3	generate/STIM_005.jpg
1882.934	1.097	correct	generate	Run3	generate/STIM_005.jpg
1887.956	0.905	correct	generate	Run3	generate/STIM_005.jpg
1891.284	1.215	correct	generate	Run3	generate/STIM_005.jpg
1894.58	1.154	correct	generate	Run3	generate/STIM_006.jpg
1898.848	1.941	correct	generate	Run3	generate/STIM_006.jpg
1903.388	1.99	correct	generate	Run3	generate/STIM_006.jpg
1909.217	0.959	correct	generate	Run3	generate/STIM_006.jpg
1912.846	1.667	correct	generate	Run3	generate/STIM_006.jpg
1916.912	1.467	correct	generate	Run3	generate/STIM_007.jpg
1921.47	1.721	correct	generate	Run3	generate/STIM_007.jpg
1925.197	1.25	correct	generate	Run3	generate/STIM_007.jpg
1929.163	1.766	correct	generate	Run3	generate/STIM_007.jpg
1933.961	0.99	correct	generate	Run3	generate/STIM_007.jpg
1937.63	1.6	correct	generate	Run3	generate/STIM_008.jpg
1943.134	1.624	correct	generate	Run3	generate/STIM_008.jpg
1947.918	1.943	correct	generate	Run3	generate/STIM_008.jpg
1953.37	0.91	correct	generate	Run3	generate/STIM_008.jpg
1957.645	1.474	correct	generate	Run3	generate/STIM_008.jpg
1962.857	1.963	correct	generate	Run3	generate/STIM_009.jpg
1968.221	0.881	correct	generate	Run3	generate/STIM_009.jpg
1972.083	1.346	correct	generate	Run3	generate/STIM_009.jpg
1975.961	1.591	correct	generate	Run3	generate/STIM_009.jpg
1981.174	1.418	correct	generate	Run3	generate/STIM_009.jpg
1986.318	1.128	correct	generate	Run3	generate/STIM_010.jpg
1989.786	1.017	correct	generate	Run3	generate/STIM_010.jpg
1992.975	1.549	correct	generate	Run3	generate/STIM_010.jpg
1996.993	1.97	correct	generate	Run3	generate/STIM_010.jpg
2001.101	1.16	correct	generate	Run3	generate/STIM_010.jpg
2005.409	1.624	correct	generate	Run3	generate/STIM_011.jpg
2010.247	1.622	correct	generate	Run3	generate/STIM_011.jpg
2015.402	1.335	correct	generate	Run3	generate/STIM_011.jpg
2019.899	2.036	correct	generate	Run3	generate/STIM_011.jpg
2024.021	1.594	correct	generate	Run3	generate/STIM_011.jpg
2028.326	1.585	correct	generate	Run3	generate/STIM_012.jpg
2032.443	1.016	correct	generate	Run3	generate/STIM_012.jpg
2036.557	1.975	correct	generate	Run3	generate/STIM_012.jpg
2040.657	0.912	correct	generate	Run3	generate/STIM_012.jpg
2044.501	1.136	correct	generate	Run3	generate/STIM_012.jpg
2048.951	1.726	correct	generate	Run3	generate/STIM_013.jpg
2052.684	1.769	correct	generate	Run3	generate/STIM_013.jpg
2058.068	1.917	correct	generate	Run3	generate/STIM_013.jpg
2062.067	1.195	correct	generate	Run3	generate/STIM_013.jpg
2066.366	1.722	correct	generate	Run3	generate/STIM_013.jpg
2071.474	2.001	correct	generate	Run3	generate/STIM_014.jpg
2077.135	1.172	correct	generate	Run3	generate/STIM_014.jpg
2082.291	1.278	correct	generate	Run3	generate/STIM_014.jpg
2087.191	1.618	correct	generate	Run3	generate/STIM_014.jpg
2091.814	1.954	correct	generate	Run3	generate/STIM_014.jpg
2097.336	0.884	correct	generate	Run3	generate/STIM_015.jpg
2101.85	1.211	correct	generate	Run3	generate/STIM_015.jpg
2106.281	1.745	correct	generate	Run3	generate/STIM_015.jpg
2111.957	1.546	correct	generate	Run3	generate/STIM_015.jpg
2116.873	1.655	correct	generate	Run3	generate/STIM_015.jpg
2120.625	0.97	correct	generate	Run3	generate/STIM_016.jpg
2123.721	1.484	correct	generate	Run3	generate/STIM_016.jpg
2127.343	1.366	correct	generate	Run3	generate/STIM_016.jpg
2132.355	1.186	correct	generate	Run3	generate/STIM_016.jpg
2136.68	2.136	correct	generate	Run3	generate/STIM_016.jpg
2141.105	1.418	correct	generate	Run3	generate/STIM_017.jpg
2144.692	1.29	correct	generate	Run3	generate/STIM_017.jpg
2149.783	2.1	correct	generate	Run3	generate/STIM_017.jpg
2155.754	1.693	correct	generate	Run3	generate/STIM_017.jpg
2160.24	2.13	correct	generate	Run3	generate/STIM_017.jpg
2165.422	1.138	correct	generate	Run3	generate/STIM_018.jpg
2169.99	2.001	correct	generate	Run3	generate/STIM_018.jpg
2175.484	0.921	correct	generate	Run3	generate/STIM_018.jpg
2179.082	1.093	correct	generate	Run3	generate/STIM_018.jpg
2182.85	1.578	correct	generate	Run3	generate/STIM_018.jpg
2187.898	1.878	correct	generate	Run3	generate/STIM_019.jpg
2192.737	1.658	incorrect	generate	Run3	generate/STIM_019.jpg
2197.486	2.05	correct	generate	Run3	generate/STIM_019.jpg
2202.719	1.328	correct	generate	Run3	generate/STIM_019.jpg
2206.398	1.116	correct	generate	Run3	generate/STIM_019.jpg
2210.889	1.63	correct	generate	Run3	generate/STIM_020.jpg
2215.973	1.217	correct	generate	Run3	generate/STIM_020.jpg
2220.415	1.129	correct	generate	Run3	generate/STIM_020.jpg
2224.031	1.167	correct	generate	Run3	generate/STIM_020.jpg
2228.812	0.928	correct	generate	Run3	generate/STIM_020.jpg
2232.689	1.498	correct	generate	Run3	generate/STIM_021.jpg
2236.441	1.644	correct	generate	Run3	generate/STIM_021.jpg
2241.07	2.039	correct	generate	Run3	generate/STIM_021.jpg
2246.336	1.46	correct	generate	Run3	generate/STIM_021.jpg
2250.31	1.813	correct	generate	Run3	generate/STIM_021.jpg
2255.228	1.209	correct	generate	Run3	generate/STIM_022.jpg
2259.591	1.195	correct	generate	Run3	generate/STIM_022.jpg
2263.891	1.525	correct	generate	Run3	generate/STIM_022.jpg
2268.272	1.122	correct	generate	Run3	generate/STIM_022.jpg
2272.978	1.076	correct	generate	Run3	generate/STIM_022.jpg
2277.819	1.538	correct	generate	Run3	generate/STIM_023.jpg
2282.989	1.814	correct	generate	Run3	generate/STIM_023.jpg
2287.75	1.901	correct	generate	Run3	generate/STIM_023.jpg
2292.827	1.433	correct	generate	Run3	generate/STIM_023.jpg
2296.949	0.863	correct	generate	Run3	generate/STIM_023.jpg
2301.384	2.059	correct	generate	Run3	generate/STIM_024.jpg
2306.514	2.007	correct	generate	Run3	generate/STIM_024.jpg
2312.415	1.835	correct	generate	Run3	generate/STIM_024.jpg
2316.592	1.706	correct	generate	Run3	generate/STIM_024.jpg
2321.696	1.35	correct	generate	Run3	generate/STIM_024.jpg
2326.552	0.649	correct	repeat	Run3	repeat/STIM_000.jpg
2329.565	0.743	correct	repeat	Run3	repeat/STIM_000.jpg
2333.004	0.565	correct	repeat	Run3	repeat/STIM_000.jpg
2335.732	0.612	correct	repeat	Run3	repeat/STIM_000.jpg
2339.022	0.608	correct	repeat	Run3	repeat/STIM_000.jpg
2343.61	0.809	correct	repeat	Run3	repeat/STIM_001.jpg
2347.499	0.976	correct	repeat	Run3	repeat/STIM_001.jpg
2352.308	0.863	correct	repeat	Run3	repeat/STIM_001.jpg
2355.652	0.833	correct	repeat	Run3	repeat/STIM_001.jpg
2358.952	0.971	correct	repeat	Run3	repeat/STIM_001.jpg
2362.642	0.61	correct	repeat	Run3	repeat/STIM_002.jpg
2365.894	0.733	correct	repeat	Run3	repeat/STIM_002.jpg
2370.402	0.631	correct	repeat	Run3	repeat/STIM_002.jpg
2373.455	0.651	correct	repeat	Run3	repeat/STIM_002.jpg
2377.563	0.696	correct	repeat	Run3	repeat/STIM_002.jpg
2381.105	0.825	correct	repeat	Run3	repeat/STIM_003.jpg
2385.701	0.581	correct	repeat	Run3	repeat/STIM_003.jpg
2388.373	0.643	correct	repeat	Run3	repeat/STIM_003.jpg
2392.572	0.571	correct	repeat	Run3	repeat/STIM_003.jpg
2396.831	0.972	correct	repeat	Run3	repeat/STIM_003.jpg
2401.301	0.676	correct	repeat	Run3	repeat/STIM_004.jpg
2404.15	0.761	correct	repeat	Run3	repeat/STIM_004.jpg
2408.649	0.918	correct	repeat	Run3	repeat/STIM_004.jpg
2413.302	0.694	correct	repeat	Run3	repeat/STIM_004.jpg
2416.374	0.612	correct	repeat	Run3	repeat/STIM_004.jpg
2420.684	0.636	correct	repeat	Run3	repeat/STIM_005.jpg
2425.226	0.834	correct	repeat	Run3	repeat/STIM_005.jpg
2429.247	0.731	correct	repeat	Run3	repeat/STIM_005.jpg
2433.193	0.957	correct	repeat	Run3	repeat/STIM_005.jpg
2437.264	0.844	correct	repeat	Run3	repeat/STIM_005.jpg
2440.248	0.87	correct	repeat	Run3	repeat/STIM_006.jpg
2443.496	0.879	correct	repeat	Run3	repeat/STIM_006.jpg
2447.465	0.747	correct	repeat	Run3	repeat/STIM_006.jpg
2452.168	0.946	correct	repeat	Run3	repeat/STIM_006.jpg
2455.743	0.936	correct	repeat	Run3	repeat/STIM_006.jpg
2458.843	0.698	correct	repeat	Run3	repeat/STIM_007.jpg
2462.357	0.585	correct	repeat	Run3	repeat/STIM_007.jpg
2466.763	0.925	correct	repeat	Run3	repeat/STIM_007.jpg
2469.78	0.898	incorrect	repeat	Run3	repeat/STIM_007.jpg
2474.533	0.67	correct	repeat	Run3	repeat/STIM_007.jpg
2479.094	0.845	correct	repeat	Run3	repeat/STIM_008.jpg
2482.458	0.662	correct	repeat	Run3	repeat/STIM_008.jpg
2485.906	0.638	correct	repeat	Run3	repeat/STIM_008.jpg
2488.931	0.751	correct	repeat	Run3	repeat/STIM_008.jpg
2491.79	0.9	correct	repeat	Run3	repeat/STIM_008.jpg
2494.794	0.674	correct	repeat	Run3	repeat/STIM_009.jpg
2498.083	0.66	correct	repeat	Run3	repeat/STIM_009.jpg
2501.513	0.759	correct	repeat	Run3	repeat/STIM_009.jpg
2506.265	0.751	correct	repeat	Run3	repeat/STIM_009.jpg
2510.698	0.89	correct	repeat	Run3	repeat/STIM_009.jpg
2515.07	0.732	correct	repeat	Run3	repeat/STIM_010.jpg
2517.992	1.006	correct	repeat	Run3	repeat/STIM_010.jpg
2522.36	0.774	correct	repeat	Run3	repeat/STIM_010.jpg
2526.995	0.761	correct	repeat	Run3	repeat/STIM_010.jpg
2531.559	0.561	correct	repeat	Run3	repeat/STIM_010.jpg
2535.884	0.583	correct	repeat	Run3	repeat/STIM_011.jpg
2539.336	0.555	correct	repeat	Run3	repeat/STIM_011.jpg
2542.915	0.744	correct	repeat	Run3	repeat/STIM_011.jpg
2547.537	0.875	correct	repeat	Run3	repeat/STIM_011.jpg
2551.72	0.6	correct	repeat	Run3	repeat/STIM_011.jpg
2554.839	0.936	correct	repeat	Run3	repeat/STIM_012.jpg
2558.092	0.637	correct	repeat	Run3	repeat/STIM_012.jpg
2561.563	0.952	correct	repeat	Run3	repeat/STIM_012.jpg
2564.846	0.778	correct	repeat	Run3	repeat/STIM_012.jpg
2568.192	0.706	correct	repeat	Run3	repeat/STIM_012.jpg
2571.047	0.735	correct	repeat	Run3	repeat/STIM_013.jpg
2574.747	0.879	correct	repeat	Run3	repeat/STIM_013.jpg
2579.615	0.847	correct	repeat	Run3	repeat/STIM_013.jpg
2583.573	0.779	correct	repeat	Run3	repeat/STIM_013.jpg
2586.626	0.823	correct	repeat	Run3	repeat/STIM_013.jpg
2590.765	0.862	correct	repeat	Run3	repeat/STIM_014.jpg
2595.604	0.923	correct	repeat	Run3	repeat/STIM_014.jpg
2599.768	0.664	correct	repeat	Run3	repeat/STIM_014.jpg
2603.439	0.588	correct	repeat	Run3	repeat/STIM_014.jpg
2607.749	0.713	correct	repeat	Run3	repeat/STIM_014.jpg
2611.313	1.534	correct	generate	Run4	generate/STIM_000.jpg
2615.072	0.953	correct	generate	Run4	generate/STIM_000.jpg
2618.266	1.98	correct	generate	Run4	generate/STIM_000.jpg
2623.773	1.594	correct	generate	Run4	generate/STIM_000.jpg
2627.565	1.242	correct	generate	Run4	generate/STIM_000.jpg
2631.216	2.064	correct	generate	Run4	generate/STIM_001.jpg
2636.15	1.892	correct	generate	Run4	generate/STIM_001.jpg
2640.07	1.108	correct	generate	Run4	generate/STIM_001.jpg
2644.382	1.616	incorrect	generate	Run4	generate/STIM_001.jpg
2649.932	1.71	correct	generate	Run4	generate/STIM_001.jpg
2655.084	2.057	correct	generate	Run4	generate/STIM_002.jpg
2659.35	2.063	correct	generate	Run4	generate/STIM_002.jpg
2665.131	2.041	correct	generate	Run4	generate/STIM_002.jpg
2670.01	1.622	correct	generate	Run4	generate/STIM_002.jpg
2675.186	1.241	correct	generate	Run4	generate/STIM_002.jpg
2679.352	1.807	correct	generate	Run4	generate/STIM_003.jpg
2684.675	1.655	correct	generate	Run4	generate/STIM_003.jpg
2688.833	1.305	correct	generate	Run4	generate/STIM_003.jpg
2692.456	2.039	correct	generate	Run4	generate/STIM_003.jpg
2696.744	1.3	correct	generate	Run4	generate/STIM_003.jpg
2701.694	1.184	correct	generate	Run4	generate/STIM_004.jpg
2705.496	2.023	correct	generate	Run4	generate/STIM_004.jpg
2711.153	1.593	correct	generate	Run4	generate/STIM_004.jpg
2715.541	1.454	correct	generate	Run4	generate/STIM_004.jpg
2719.784	1.605	correct	generate	Run4	generate/STIM_004.jpg
2723.441	1.076	correct	generate	Run4	generate/STIM_005.jpg
2726.868	0.878	correct	generate	Run4	generate/STIM_005.jpg
2731.053	1.715	correct	generate	Run4	generate/STIM_005.jpg
2734.871	2.049	correct	generate	Run4	generate/STIM_005.jpg
2739.633	2.139	correct	generate	Run4	generate/STIM_005.jpg
2744.706	2.124	correct	generate	Run4	generate/STIM_006.jpg
2750.657	1.136	correct	generate	Run4	generate/STIM_006.jpg
2755.461	1.355	correct	generate	Run4	generate/STIM_006.jpg
2760.152	1.542	correct	generate	Run4	generate/STIM_006.jpg
2765.464	1.716	correct	generate	Run4	generate/STIM_006.jpg
2770.952	1.614	correct	generate	Run4	generate/STIM_007.jpg
2775.601	1.756	correct	generate	Run4	generate/STIM_007.jpg
2780.841	1.346	correct	generate	Run4	generate/STIM_007.jpg
2784.759	1.938	correct	generate	Run4	generate/STIM_007.jpg
2790.377	2.003	correct	generate	Run4	generate/STIM_007.jpg
2794.518	1.727	correct	generate	Run4	generate/STIM_008.jpg
2800.013	0.99	correct	generate	Run4	generate/STIM_008.jpg
2803.219	1.222	incorrect	generate	Run4	generate/STIM_008.jpg
2808.322	1.284	correct	generate	Run4	generate/STIM_008.jpg
2812.715	1.813	correct	generate	Run4	generate/STIM_008.jpg
2817.774	1.62	correct	generate	Run4	generate/STIM_009.jpg
2822.184	1.987	correct	generate	Run4	generate/STIM_009.jpg
2826.235	1.248	correct	generate	Run4	generate/STIM_009.jpg
2831.13	2.036	correct	generate	Run4	generate/STIM_009.jpg
2835.535	1.41	correct	generate	Run4	generate/STIM_009.jpg
2840.08	1.944	correct	generate	Run4	generate/STIM_010.jpg
2844.467	1.923	correct	generate	Run4	generate/STIM_010.jpg
2850.23	1.888	correct	generate	Run4	generate/STIM_010.jpg
2854.43	1.791	correct	generate	Run4	generate/STIM_010.jpg
2859.274	1.754	correct	generate	Run4	generate/STIM_010.jpg
2863.969	1.437	correct	generate	Run4	generate/STIM_011.jpg
2869.132	1.085	correct	generate	Run4	generate/STIM_011.jpg
2874.185	0.858	correct	generate	Run4	generate/STIM_011.jpg
2877.661	1.069	incorrect	generate	Run4	generate/STIM_011.jpg
2880.978	1.483	correct	generate	Run4	generate/STIM_011.jpg
2884.808	0.984	correct	generate	Run4	generate/STIM_012.jpg
2888.701	1.183	correct	generate	Run4	generate/STIM_012.jpg
2893.3	1.678	correct	generate	Run4	generate/STIM_012.jpg
2898.554	2.008	correct	generate	Run4	generate/STIM_012.jpg
2904.232	0.937	correct	generate	Run4	generate/STIM_012.jpg
2909.062	0.875	correct	generate	Run4	generate/STIM_013.jpg
2911.941	2.067	correct	generate	Run4	generate/STIM_013.jpg
2916.685	1.755	correct	generate	Run4	generate/STIM_013.jpg
2920.855	1.755	correct	generate	Run4	generate/STIM_013.jpg
2925.964	1.57	correct	generate	Run4	generate/STIM_013.jpg
2931.372	1.61	correct	generate	Run4	generate/STIM_014.jpg
2935.883	0.978	correct	generate	Run4	generate/STIM_014.jpg
2939.205	1.936	correct	generate	Run4	generate/STIM_014.jpg
2944.362	1.567	correct	generate	Run4	generate/STIM_014.jpg
2949.448	1.846	correct	generate	Run4	generate/STIM_014.jpg
2953.587	2.03	correct	generate	Run4	generate/STIM_015.jpg
2958.911	1.596	correct	generate	Run4	generate/STIM_015.jpg
2963.778	1.806	correct	generate	Run4	generate/STIM_015.jpg
2968.532	0.993	correct	generate	Run4	generate/STIM_015.jpg
2972.948	2.028	correct	generate	Run4	generate/STIM_015.jpg
2977.643	1.686	correct	generate	Run4	generate/STIM_016.jpg
2982.242	1.154	correct	generate	Run4	generate/STIM_016.jpg
2986.271	1.522	incorrect	generate	Run4	generate/STIM_016.jpg
2990.742	1.912	correct	generate	Run4	generate/STIM_016.jpg
2996.279	1.72	correct	generate	Run4	generate/STIM_016.jpg
3001.856	1.818	correct	generate	Run4	generate/STIM_017.jpg
3006.976	1.359	correct	generate	Run4	generate/STIM_017.jpg
3011.888	1.531	correct	generate	Run4	generate/STIM_017.jpg
3015.688	1.02	correct	generate	Run4	generate/STIM_017.jpg
3020.287	1.819	correct	generate	Run4	generate/STIM_017.jpg
3025.245	1.938	correct	generate	Run4	generate/STIM_018.jpg
3030.185	0.922	correct	generate	Run4	generate/STIM_018.jpg
3033.263	1.876	correct	generate	Run4	generate/STIM_018.jpg
3037.357	1.271	correct	generate	Run4	generate/STIM_018.jpg
3041.879	1.235	correct	generate	Run4	generate/STIM_018.jpg
3046.687	0.977	correct	generate	Run4	generate/STIM_019.jpg
3050.719	1.628	correct	generate	Run4	generate/STIM_019.jpg
3056.012	2.063	correct	generate	Run4	generate/STIM_019.jpg
3062.075	1.4	correct	generate	Run4	generate/STIM_019.jpg
3065.986	1.477	correct	generate	Run4	generate/STIM_019.jpg
3070.181	0.867	correct	generate	Run4	generate/STIM_020.jpg
3074.249	1.553	correct	generate	Run4	generate/STIM_020.jpg
3079.505	1.39	correct	generate	Run4	generate/STIM_020.jpg
3083.635	1.798	correct	generate	Run4	generate/STIM_020.jpg
3089.268	1.173	correct	generate	Run4	generate/STIM_020.jpg
3094.207	1.956	correct	generate	Run4	generate/STIM_021.jpg
3100.104	0.917	correct	generate	Run4	generate/STIM_021.jpg
3105.014	1.957	correct	generate	Run4	generate/STIM_021.jpg
3109.863	1.312	correct	generate	Run4	generate/STIM_021.jpg
3114.146	0.988	correct	generate	Run4	generate/STIM_021.jpg
3117.56	1.35	correct	generate	Run4	generate/STIM_022.jpg
3122.511	1.791	correct	generate	Run4	generate/STIM_022.jpg
3127.407	1.299	correct	generate	Run4	generate/STIM_022.jpg
3131.637	1.843	correct	generate	Run4	generate/STIM_022.jpg
3136.741	1.36	correct	generate	Run4	generate/STIM_022.jpg
3141.855	1.682	correct	generate	Run4	generate/STIM_023.jpg
3146.242	1.423	correct	generate	Run4	generate/STIM_023.jpg
3150.22	2.049	correct	generate	Run4	generate/STIM_023.jpg
3154.407	1.778	correct	generate	Run4	generate/STIM_023.jpg
3159.249	1.414	correct	generate	Run4	generate/STIM_023.jpg
3164.119	1.613	correct	generate	Run4	generate/STIM_024.jpg
3168.543	1.75	correct	generate	Run4	generate/STIM_024.jpg
3174.054	1.092	correct	generate	Run4	generate/STIM_024.jpg
3178.73	1.776	correct	generate	Run4	generate/STIM_024.jpg
3183.671	0.976	correct	generate	Run4	generate/STIM_024.jpg
3188.345	0.604	correct	repeat	Run4	repeat/STIM_000.jpg
3192.533	0.895	correct	repeat	Run4	repeat/STIM_000.jpg
3197.39	0.987	correct	repeat	Run4	repeat/STIM_000.jpg
3200.389	0.777	correct	repeat	Run4	repeat/STIM_000.jpg
3203.651	0.53	correct	repeat	Run4	repeat/STIM_000.jpg
3206.944	0.685	correct	repeat	Run4	repeat/STIM_001.jpg
3211.344	1.01	correct	repeat	Run4	repeat/STIM_001.jpg
3214.814	0.616	correct	repeat	Run4	repeat/STIM_001.jpg
3218.287	0.961	correct	repeat	Run4	repeat/STIM_001.jpg
3222.808	0.578	correct	repeat	Run4	repeat/STIM_001.jpg
3227.182	0.826	correct	repeat	Run4	repeat/STIM_002.jpg
3231.009	0.977	correct	repeat	Run4	repeat/STIM_002.jpg
3234.629	0.915	correct	repeat	Run4	repeat/STIM_002.jpg
3238.206	0.526	correct	repeat	Run4	repeat/STIM_002.jpg
3240.741	0.908	correct	repeat	Run4	repeat/STIM_002.jpg
3245.587	0.547	correct	repeat	Run4	repeat/STIM_003.jpg
3248.636	0.703	correct	repeat	Run4	repeat/STIM_003.jpg
3252.183	0.639	correct	repeat	Run4	repeat/STIM_003.jpg
3255.836	0.963	correct	repeat	Run4	repeat/STIM_003.jpg
3259.881	0.812	correct	repeat	Run4	repeat/STIM_003.jpg
3263.622	0.956	correct	repeat	Run4	repeat/STIM_004.jpg
3268.544	0.718	correct	repeat	Run4	repeat/STIM_004.jpg
3271.668	0.838	correct	repeat	Run4	repeat/STIM_004.jpg
3276.29	0.536	correct	repeat	Run4	repeat/STIM_004.jpg
3279.165	0.839	correct	repeat	Run4	repeat/STIM_004.jpg
3283.907	0.684	correct	repeat	Run4	repeat/STIM_005.jpg
3286.758	1.0	correct	repeat	Run4	repeat/STIM_005.jpg
3290.062	0.568	correct	repeat	Run4	repeat/STIM_005.jpg
3292.957	0.82	correct	repeat	Run4	repeat/STIM_005.jpg
3295.99	0.515	correct	repeat	Run4	repeat/STIM_005.jpg
3299.653	0.754	correct	repeat	Run4	repeat/STIM_006.jpg
3302.943	0.81	correct	repeat	Run4	repeat/STIM_006.jpg
3306.619	0.568	correct	repeat	Run4	repeat/STIM_006.jpg
3309.191	0.702	correct	repeat	Run4	repeat/STIM_006.jpg
3313.595	0.583	correct	repeat	Run4	repeat/STIM_006.jpg
3316.458	0.564	correct	repeat	Run4	repeat/STIM_007.jpg
3319.372	0.537	correct	repeat	Run4	repeat/STIM_007.jpg
3322.217	0.999	correct	repeat	Run4	repeat/STIM_007.jpg
3325.723	0.938	correct	repeat	Run4	repeat/STIM_007.jpg
3329.536	0.59	correct	repeat	Run4	repeat/STIM_007.jpg
3332.328	0.827	correct	repeat	Run4	repeat/STIM_008.jpg
3335.494	0.676	correct	repeat	Run4	repeat/STIM_008.jpg
3338.222	0.741	correct	repeat	Run4	repeat/STIM_008.jpg
3341.221	0.811	correct	repeat	Run4	repeat/STIM_008.jpg
3345.14	0.738	incorrect	repeat	Run4	repeat/STIM_008.jpg
3348.875	0.74	correct	repeat	Run4	repeat/STIM_009.jpg
3352.941	0.9	correct	repeat	Run4	repeat/STIM_009.jpg
3357.718	1.004	correct	repeat	Run4	repeat/STIM_009.jpg
3361.905	0.546	correct	repeat	Run4	repeat/STIM_009.jpg
3364.779	1.013	correct	repeat	Run4	repeat/STIM_009.jpg
3368.643	0.943	correct	repeat	Run4	repeat/STIM_010.jpg
3372.383	0.714	correct	repeat	Run4	repeat/STIM_010.jpg
3376.511	0.854	correct	repeat	Run4	repeat/STIM_010.jpg
3379.805	0.929	correct	repeat	Run4	repeat/STIM_010.jpg
3384.159	0.897	correct	repeat	Run4	repeat/STIM_010.jpg
3387.888	0.847	correct	repeat	Run4	repeat/STIM_011.jpg
3392.431	0.932	correct	repeat	Run4	repeat/STIM_011.jpg
3395.958	0.794	correct	repeat	Run4	repeat/STIM_011.jpg
3399.026	0.814	correct	repeat	Run4	repeat/STIM_011.jpg
3402.283	0.672	correct	repeat	Run4	repeat/STIM_011.jpg
3405.306	0.524	correct	repeat	Run4	repeat/STIM_012.jpg
3408.207	0.812	correct	repeat	Run4	repeat/STIM_012.jpg
3412.667	0.807	correct	repeat	Run4	repeat/STIM_012.jpg
3416.404	0.528	correct	repeat	Run4	repeat/STIM_012.jpg
3420.098	0.902	correct	repeat	Run4	repeat/STIM_012.jpg
3424.266	0.999	correct	repeat	Run4	repeat/STIM_013.jpg
3428.781	0.717	correct	repeat	Run4	repeat/STIM_013.jpg
3432.472	0.902	correct	repeat	Run4	repeat/STIM_013.jpg
3435.814	0.733	correct	repeat	Run4	repeat/STIM_013.jpg
3438.578	0.656	correct	repeat	Run4	repeat/STIM_013.jpg
3442.066	0.568	correct	repeat	Run4	repeat/STIM_014.jpg
3445.766	0.912	correct	repeat	Run4	repeat/STIM_014.jpg
3449.064	0.988	correct	repeat	Run4	repeat/STIM_014.jpg
3453.935	0.954	correct	repeat	Run4	repeat/STIM_014.jpg
3458.683	0.985	correct	repeat	Run4	repeat/STIM_014.jpg
