onset	duration	response_time_ms	trial_type	learning_stage	stimulus	response_port
0.0	1.261	1260.7	generate	Run1	generate/STIM_000.jpg	100
4.46	1.633	1633.1	generate	Run1	generate/STIM_000.jpg	99
8.839	1.548	1547.9	generate	Run1	generate/STIM_000.jpg	99
13.739	1.382	1381.9	generate	Run1	generate/STIM_000.jpg	99
17.775	1.169	1168.8	generate	Run1	generate/STIM_000.jpg	100
21.276	2.941	2940.7	generate	Run1	generate/STIM_001.jpg	100
26.501	2.371	2371.4	generate	Run1	generate/STIM_001.jpg	99
31.989	1.704	1703.6	generate	Run1	generate/STIM_001.jpg	100
36.979	1.226	1226.4	generate	Run1	generate/STIM_001.jpg	99
41.254	2.315	2315.2	generate	Run1	generate/STIM_001.jpg	99
47.524	2.281	2280.9	generate	Run1	generate/STIM_002.jpg	100
51.843	2.987	2987.3	generate	Run1	generate/STIM_002.jpg	100
57.174	2.294	2293.5	generate	Run1	generate/STIM_002.jpg	100
61.627	1.628	1628.0	generate	Run1	generate/STIM_002.jpg	100
65.942	2.323	2323.0	generate	Run1	generate/STIM_002.jpg	100
71.679	2.634	2633.9	generate	Run1	generate/STIM_003.jpg	99
77.968	2.174	2174.3	generate	Run1	generate/STIM_003.jpg	100
83.715	2.282	2282.1	generate	Run1	generate/STIM_003.jpg	99
88.369	2.15	2149.9	generate	Run1	generate/STIM_003.jpg	99
93.355	1.101	1100.7	generate	Run1	generate/STIM_003.jpg	100
97.105	2.183	2183.2	generate	Run1	generate/STIM_004.jpg	100
102.186	2.035	2035.4	generate	Run1	generate/STIM_004.jpg	100
107.184	2.868	2868.1	generate	Run1	generate/STIM_004.jpg	100
113.044	1.944	1943.8	generate	Run1	generate/STIM_004.jpg	100
117.177	2.234	2233.7	generate	Run1	generate/STIM_004.jpg	100
123.24	1.641	1640.9	generate	Run1	generate/STIM_005.jpg	99
128.761	1.513	1512.6	generate	Run1	generate/STIM_005.jpg	100
133.904	1.484	1483.5	generate	Run1	generate/STIM_005.jpg	100
139.039	2.66	2660.1	generate	Run1	generate/STIM_005.jpg	99
145.479	2.087	2087.0	generate	Run1	generate/STIM_005.jpg	99
149.907	1.775	1774.9	generate	Run1	generate/STIM_006.jpg	100
153.69	1.44	1440.0	generate	Run1	generate/STIM_006.jpg	100
157.77	1.471	1470.7	generate	Run1	generate/STIM_006.jpg	100
161.457	2.321	2321.1	generate	Run1	generate/STIM_006.jpg	100
166.303	1.018	1017.8	generate	Run1	generate/STIM_006.jpg	100
170.015	1.36	1359.6	generate	Run1	generate/STIM_007.jpg	100
174.485	1.583	1582.8	generate	Run1	generate/STIM_007.jpg	99
179.439	1.217	1217.3	generate	Run1	generate/STIM_007.jpg	100
183.197	2.354	2354.5	generate	Run1	generate/STIM_007.jpg	100
187.916	1.097	1097.3	generate	Run1	generate/STIM_007.jpg	99
191.204	1.531	1530.9	generate	Run1	generate/STIM_008.jpg	99
194.634	2.539	2539.2	generate	Run1	generate/STIM_008.jpg	99
200.208	1.86	1860.1	generate	Run1	generate/STIM_008.jpg	99
205.305	1.253	1252.9	generate	Run1	generate/STIM_008.jpg	99
210.354	2.054	2053.6	generate	Run1	generate/STIM_008.jpg	100
214.528	2.269	2269.3	generate	Run1	generate/STIM_009.jpg	100
219.139	2.024	2023.7	generate	Run1	generate/STIM_009.jpg	99
223.738	2.166	2165.9	generate	Run1	generate/STIM_009.jpg	99
228.609	2.274	2274.0	generate	Run1	generate/STIM_009.jpg	100
234.323	1.554	1554.0	generate	Run1	generate/STIM_009.jpg	100
238.513	1.947	1947.0	generate	Run1	generate/STIM_010.jpg	100
242.889	1.178	1177.5	generate	Run1	generate/STIM_010.jpg	100
246.231	1.567	1566.8	generate	Run1	generate/STIM_010.jpg	100
251.139	1.848	1848.3	generate	Run1	generate/STIM_010.jpg	100
256.461	1.158	1158.4	generate	Run1	generate/STIM_010.jpg	100
260.831	1.319	1319.2	generate	Run1	generate/STIM_011.jpg	99
265.721	2.182	2182.4	generate	Run1	generate/STIM_011.jpg	100
270.214	2.574	2574.1	generate	Run1	generate/STIM_011.jpg	100
276.056	1.382	1382.4	generate	Run1	generate/STIM_011.jpg	99
280.034	1.639	1638.9	generate	Run1	generate/STIM_011.jpg	100
284.18	1.446	1445.7	generate	Run1	generate/STIM_012.jpg	99
288.734	2.695	2695.4	generate	Run1	generate/STIM_012.jpg	100
293.99	2.342	2342.0	generate	Run1	generate/STIM_012.jpg	99
299.671	2.024	2024.4	generate	Run1	generate/STIM_012.jpg	99
303.985	2.331	2331.1	generate	Run1	generate/STIM_012.jpg	100
308.763	2.333	2332.8	generate	Run1	generate/STIM_013.jpg	99
313.976	2.215	2214.6	generate	Run1	generate/STIM_013.jpg	100
319.856	1.272	1272.5	generate	Run1	generate/STIM_013.jpg	99
325.003	2.14	2140.0	generate	Run1	generate/STIM_013.jpg	100
330.784	2.176	2175.9	generate	Run1	generate/STIM_013.jpg	99
336.847	1.387	1387.0	generate	Run1	generate/STIM_014.jpg	100
341.693	1.502	1502.5	generate	Run1	generate/STIM_014.jpg	99
346.913	2.196	2196.2	generate	Run1	generate/STIM_014.jpg	99
352.0	1.162	1161.7	generate	Run1	generate/STIM_014.jpg	99
356.096	2.086	2086.3	generate	Run1	generate/STIM_014.jpg	99
361.711	2.984	2983.9	generate	Run1	generate/STIM_015.jpg	100
368.468	1.454	1453.7	generate	Run1	generate/STIM_015.jpg	100
372.702	1.407	1406.7	generate	Run1	generate/STIM_015.jpg	100
376.256	1.832	1832.1	generate	Run1	generate/STIM_015.jpg	100
380.876	1.157	1156.9	generate	Run1	generate/STIM_015.jpg	100
384.604	1.346	1346.1	generate	Run1	generate/STIM_016.jpg	99
389.888	1.255	1254.6	generate	Run1	generate/STIM_016.jpg	100
394.934	2.654	2654.4	generate	Run1	generate/STIM_016.jpg	100
399.637	2.336	2335.8	generate	Run1	generate/STIM_016.jpg	100
405.466	1.082	1082.5	generate	Run1	generate/STIM_016.jpg	99
408.72	1.337	1336.8	generate	Run1	generate/STIM_017.jpg	100
412.333	2.825	2824.9	generate	Run1	generate/STIM_017.jpg	100
417.663	2.052	2052.3	generate	Run1	generate/STIM_017.jpg	99
423.243	1.929	1929.4	generate	Run1	generate/STIM_017.jpg	100
427.775	1.978	1977.5	generate	Run1	generate/STIM_017.jpg	100
431.65	2.325	2324.9	generate	Run1	generate/STIM_018.jpg	99
437.069	1.625	1625.0	generate	Run1	generate/STIM_018.jpg	99
440.802	1.894	1893.7	generate	Run1	generate/STIM_018.jpg	100
445.319	2.177	2176.6	generate	Run1	generate/STIM_018.jpg	99
449.385	1.129	1129.4	generate	Run1	generate/STIM_018.jpg	100
453.552	2.037	2036.8	generate	Run1	generate/STIM_019.jpg	99
457.911	2.025	2024.8	generate	Run1	generate/STIM_019.jpg	99
462.719	2.037	2036.7	generate	Run1	generate/STIM_019.jpg	99
467.409	2.0	1999.7	generate	Run1	generate/STIM_019.jpg	99
473.253	1.794	1793.9	generate	Run1	generate/STIM_019.jpg	99
477.874	2.082	2082.3	generate	Run1	generate/STIM_020.jpg	99
482.896	2.15	2150.4	generate	Run1	generate/STIM_020.jpg	99
488.19	1.812	1811.5	generate	Run1	generate/STIM_020.jpg	100
492.741	2.465	2465.3	generate	Run1	generate/STIM_020.jpg	100
499.074	1.305	1305.2	generate	Run1	generate/STIM_020.jpg	100
503.481	2.111	2110.9	generate	Run1	generate/STIM_021.jpg	100
508.154	2.539	2538.9	generate	Run1	generate/STIM_021.jpg	100
514.278	2.68	2680.3	generate	Run1	generate/STIM_021.jpg	100
520.305	2.312	2312.5	generate	Run1	generate/STIM_021.jpg	99
524.56	2.271	2271.2	generate	Run1	generate/STIM_021.jpg	100
530.532	2.392	2392.2	generate	Run1	generate/STIM_022.jpg	99
535.529	2.678	2677.9	generate	Run1	generate/STIM_022.jpg	99
541.914	2.806	2806.0	generate	Run1	generate/STIM_022.jpg	100
548.56	2.408	2407.9	generate	Run1	generate/STIM_022.jpg	99
554.019	2.247	2246.8	generate	Run1	generate/STIM_022.jpg	100
559.298	1.59	1589.6	generate	Run1	generate/STIM_023.jpg	100
564.08	1.469	1468.6	generate	Run1	generate/STIM_023.jpg	100
569.067	1.595	1594.7	generate	Run1	generate/STIM_023.jpg	99
572.964	1.565	1565.0	generate	Run1	generate/STIM_023.jpg	99
577.296	1.649	1648.9	generate	Run1	generate/STIM_023.jpg	100
582.631	1.619	1619.2	generate	Run1	generate/STIM_024.jpg	99
586.259	1.562	1562.4	generate	Run1	generate/STIM_024.jpg	99
590.441	2.327	2326.6	generate	Run1	generate/STIM_024.jpg	99
595.9	2.625	2624.8	generate	Run1	generate/STIM_024.jpg	99
602.209	2.51	2510.0	generate	Run1	generate/STIM_024.jpg	100
607.154	0.524	524.4	repeat	Run1	repeat/STIM_000.jpg	99
611.191	0.907	906.9	repeat	Run1	repeat/STIM_000.jpg	99
616.043	0.685	685.3	repeat	Run1	repeat/STIM_000.jpg	100
619.768	0.618	618.1	repeat	Run1	repeat/STIM_000.jpg	99
623.731	0.968	967.5	repeat	Run1	repeat/STIM_000.jpg	99
628.534	0.756	756.5	repeat	Run1	repeat/STIM_001.jpg	100
632.937	0.891	891.2	repeat	Run1	repeat/STIM_001.jpg	100
635.779	0.65	649.6	repeat	Run1	repeat/STIM_001.jpg	100
640.244	0.772	771.6	repeat	Run1	repeat/STIM_001.jpg	100
644.968	0.731	731.1	repeat	Run1	repeat/STIM_001.jpg	100
648.682	0.806	806.1	repeat	Run1	repeat/STIM_002.jpg	99
651.823	0.845	845.1	repeat	Run1	repeat/STIM_002.jpg	99
655.125	0.818	818.5	repeat	Run1	repeat/STIM_002.jpg	100
658.05	0.667	667.2	repeat	Run1	repeat/STIM_002.jpg	100
661.416	0.893	892.9	repeat	Run1	repeat/STIM_002.jpg	100
665.478	0.483	483.1	repeat	Run1	repeat/STIM_003.jpg	99
669.267	0.713	712.8	repeat	Run1	repeat/STIM_003.jpg	100
673.42	0.757	757.4	repeat	Run1	repeat/STIM_003.jpg	100
677.099	0.984	984.0	repeat	Run1	repeat/STIM_003.jpg	99
680.747	0.952	952.5	repeat	Run1	repeat/STIM_003.jpg	100
684.259	0.886	886.4	repeat	Run1	repeat/STIM_004.jpg	100
687.23	0.658	658.2	repeat	Run1	repeat/STIM_004.jpg	99
690.888	0.663	662.8	repeat	Run1	repeat/STIM_004.jpg	100
695.321	0.998	998.3	repeat	Run1	repeat/STIM_004.jpg	99
699.971	0.55	550.0	repeat	Run1	repeat/STIM_004.jpg	99
704.45	0.879	879.3	repeat	Run1	repeat/STIM_005.jpg	100
708.352	0.652	652.1	repeat	Run1	repeat/STIM_005.jpg	100
712.496	0.848	848.4	repeat	Run1	repeat/STIM_005.jpg	100
715.75	0.558	558.5	repeat	Run1	repeat/STIM_005.jpg	100
720.297	0.674	673.5	repeat	Run1	repeat/STIM_005.jpg	100
724.169	0.938	938.3	repeat	Run1	repeat/STIM_006.jpg	99
728.48	0.904	904.2	repeat	Run1	repeat/STIM_006.jpg	99
731.611	0.778	778.3	repeat	Run1	repeat/STIM_006.jpg	99
735.726	0.604	604.5	repeat	Run1	repeat/STIM_006.jpg	100
739.928	0.699	698.7	repeat	Run1	repeat/STIM_006.jpg	99
743.069	0.72	720.2	repeat	Run1	repeat/STIM_007.jpg	100
747.103	1.087	1086.8	repeat	Run1	repeat/STIM_007.jpg	100
750.537	0.99	989.9	repeat	Run1	repeat/STIM_007.jpg	100
754.319	0.677	676.8	repeat	Run1	repeat/STIM_007.jpg	99
758.245	0.754	753.7	repeat	Run1	repeat/STIM_007.jpg	100
762.172	0.876	876.2	repeat	Run1	repeat/STIM_008.jpg	99
765.306	0.787	787.3	repeat	Run1	repeat/STIM_008.jpg	100
768.215	0.743	743.1	repeat	Run1	repeat/STIM_008.jpg	100
772.119	0.614	613.9	repeat	Run1	repeat/STIM_008.jpg	99
775.836	0.801	801.2	repeat	Run1	repeat/STIM_008.jpg	99
779.507	0.743	743.3	repeat	Run1	repeat/STIM_009.jpg	100
782.799	0.586	586.1	repeat	Run1	repeat/STIM_009.jpg	99
786.062	1.034	1033.8	repeat	Run1	repeat/STIM_009.jpg	99
790.603	0.69	689.5	repeat	Run1	repeat/STIM_009.jpg	99
794.238	0.855	855.3	repeat	Run1	repeat/STIM_009.jpg	100
797.215	0.682	681.6	repeat	Run1	repeat/STIM_010.jpg	100
799.917	0.771	770.9	repeat	Run1	repeat/STIM_010.jpg	100
802.823	0.598	598.2	repeat	Run1	repeat/STIM_010.jpg	100
806.076	0.869	869.0	repeat	Run1	repeat/STIM_010.jpg	100
810.378	0.611	610.6	repeat	Run1	repeat/STIM_010.jpg	99
814.205	0.933	933.0	repeat	Run1	repeat/STIM_011.jpg	99
817.657	0.91	909.6	repeat	Run1	repeat/STIM_011.jpg	100
821.868	0.542	542.2	repeat	Run1	repeat/STIM_011.jpg	99
826.224	0.491	490.9	repeat	Run1	repeat/STIM_011.jpg	100
829.007	0.751	750.6	repeat	Run1	repeat/STIM_011.jpg	100
833.12	0.928	928.1	repeat	Run1	repeat/STIM_012.jpg	100
836.638	0.54	539.7	repeat	Run1	repeat/STIM_012.jpg	99
839.311	0.517	517.1	repeat	Run1	repeat/STIM_012.jpg	100
842.317	0.621	620.9	repeat	Run1	repeat/STIM_012.jpg	99
845.926	0.812	811.8	repeat	Run1	repeat/STIM_012.jpg	100
848.946	0.916	916.1	repeat	Run1	repeat/STIM_013.jpg	100
853.452	0.693	693.0	repeat	Run1	repeat/STIM_013.jpg	100
856.823	0.796	795.7	repeat	Run1	repeat/STIM_013.jpg	100
859.745	0.907	906.9	repeat	Run1	repeat/STIM_013.jpg	99
864.155	0.731	731.3	repeat	Run1	repeat/STIM_013.jpg	100
866.954	0.639	638.7	repeat	Run1	repeat/STIM_014.jpg	100
869.88	0.792	791.7	repeat	Run1	repeat/STIM_014.jpg	100
874.614	0.788	788.0	repeat	Run1	repeat/STIM_014.jpg	100
878.04	0.877	876.6	repeat	Run1	repeat/STIM_014.jpg	99
882.647	0.543	543.0	repeat	Run1	repeat/STIM_014.jpg	100
886.537	1.13	1130.2	generate	Run2	generate/STIM_000.jpg	99
891.371	1.082	1081.5	generate	Run2	generate/STIM_000.jpg	99
895.35	1.446	1446.3	generate	Run2	generate/STIM_000.jpg	99
899.711	2.064	2064.3	generate	Run2	generate/STIM_000.jpg	100
904.397	1.976	1975.8	generate	Run2	generate/STIM_000.jpg	99
910.219	1.837	1836.7	generate	Run2	generate/STIM_001.jpg	99
915.602	2.191	2191.0	generate	Run2	generate/STIM_001.jpg	100
920.182	1.464	1464.2	generate	Run2	generate/STIM_001.jpg	99
923.818	1.015	1015.2	generate	Run2	generate/STIM_001.jpg	100
927.913	1.355	1354.7	generate	Run2	generate/STIM_001.jpg	100
931.821	1.127	1126.6	generate	Run2	generate/STIM_002.jpg	99
935.639	1.886	1885.9	generate	Run2	generate/STIM_002.jpg	100
940.117	2.338	2338.3	generate	Run2	generate/STIM_002.jpg	100
944.758	1.365	1365.0	generate	Run2	generate/STIM_002.jpg	100
948.602	2.068	2068.5	generate	Run2	generate/STIM_002.jpg	99
953.222	1.911	1910.8	generate	Run2	generate/STIM_003.jpg	100
958.535	1.278	1277.6	generate	Run2	generate/STIM_003.jpg	99
963.448	1.809	1809.1	generate	Run2	generate/STIM_003.jpg	100
968.745	1.963	1963.4	generate	Run2	generate/STIM_003.jpg	99
973.953	0.986	986.3	generate	Run2	generate/STIM_003.jpg	99
976.886	2.351	2350.6	generate	Run2	generate/STIM_004.jpg	99
982.98	2.506	2506.0	generate	Run2	generate/STIM_004.jpg	99
987.92	1.904	1903.7	generate	Run2	generate/STIM_004.jpg	99
993.021	1.93	1929.9	generate	Run2	generate/STIM_004.jpg	99
997.335	2.13	2130.3	generate	Run2	generate/STIM_004.jpg	99
1003.335	2.349	2349.2	generate	Run2	generate/STIM_005.jpg	100
1007.909	2.446	2445.5	generate	Run2	generate/STIM_005.jpg	99
1012.68	1.554	1554.3	generate	Run2	generate/STIM_005.jpg	99
1017.787	1.463	1463.4	generate	Run2	generate/STIM_005.jpg	100
1021.96	1.302	1301.5	generate	Run2	generate/STIM_005.jpg	99
1026.085	2.196	2195.5	generate	Run2	generate/STIM_006.jpg	99
1031.77	1.468	1468.1	generate	Run2	generate/STIM_006.jpg	100
1036.461	1.232	1232.3	generate	Run2	generate/STIM_006.jpg	100
1040.025	0.877	877.2	generate	Run2	generate/STIM_006.jpg	99
1043.475	1.664	1664.3	generate	Run2	generate/STIM_006.jpg	99
1047.253	1.751	1750.6	generate	Run2	generate/STIM_007.jpg	100
1052.678	1.857	1857.3	generate	Run2	generate/STIM_007.jpg	100
1057.42	2.202	2202.2	generate	Run2	generate/STIM_007.jpg	100
1062.72	1.587	1586.8	generate	Run2	generate/STIM_007.jpg	99
1067.766	2.139	2139.2	generate	Run2	generate/STIM_007.jpg	100
1072.41	2.35	2350.4	generate	Run2	generate/STIM_008.jpg	99
1078.361	1.821	1820.7	generate	Run2	generate/STIM_008.jpg	100
1083.691	2.208	2208.4	generate	Run2	generate/STIM_008.jpg	100
1087.782	1.758	1757.7	generate	Run2	generate/STIM_008.jpg	99
1091.809	1.139	1139.0	generate	Run2	generate/STIM_008.jpg	100
1094.991	2.576	2575.9	generate	Run2	generate/STIM_009.jpg	100
1100.129	1.82	1819.8	generate	Run2	generate/STIM_009.jpg	100
1104.955	1.955	1955.0	generate	Run2	generate/STIM_009.jpg	100
1109.498	2.06	2059.6	generate	Run2	generate/STIM_009.jpg	99
1114.718	1.642	1641.6	generate	Run2	generate/STIM_009.jpg	99
1119.784	1.701	1700.8	generate	Run2	generate/STIM_010.jpg	99
1123.804	1.679	1679.0	generate	Run2	generate/STIM_010.jpg	99
1128.933	1.191	1191.4	generate	Run2	generate/STIM_010.jpg	99
1132.552	1.998	1998.1	generate	Run2	generate/STIM_010.jpg	100
1137.944	1.64	1639.9	generate	Run2	generate/STIM_010.jpg	99
1143.125	1.884	1884.5	generate	Run2	generate/STIM_011.jpg	100
1147.846	2.398	2398.0	generate	Run2	generate/STIM_011.jpg	99
1152.799	1.184	1183.5	generate	Run2	generate/STIM_011.jpg	99
1157.431	1.068	1067.9	generate	Run2	generate/STIM_011.jpg	99
1160.651	2.117	2117.1	generate	Run2	generate/STIM_011.jpg	99
1165.526	2.321	2321.3	generate	Run2	generate/STIM_012.jpg	99
1171.137	1.77	1770.3	generate	Run2	generate/STIM_012.jpg	99
1175.423	2.061	2060.6	generate	Run2	generate/STIM_012.jpg	100
1180.065	1.88	1880.3	generate	Run2	generate/STIM_012.jpg	100
1185.361	1.59	1590.1	generate	Run2	generate/STIM_012.jpg	99
1190.031	2.012	2012.3	generate	Run2	generate/STIM_013.jpg	100
1195.369	1.328	1328.1	generate	Run2	generate/STIM_013.jpg	100
1200.33	1.564	1563.8	generate	Run2	generate/STIM_013.jpg	100
1203.948	1.397	1396.9	generate	Run2	generate/STIM_013.jpg	100
1209.302	1.116	1116.3	generate	Run2	generate/STIM_013.jpg	100
1213.15	1.704	1704.3	generate	Run2	generate/STIM_014.jpg	99
1218.318	1.898	1897.5	generate	Run2	generate/STIM_014.jpg	99
1223.606	1.15	1149.7	generate	Run2	generate/STIM_014.jpg	99
1228.357	1.098	1098.5	generate	Run2	generate/STIM_014.jpg	99
1233.222	1.061	1060.6	generate	Run2	generate/STIM_014.jpg	100
1236.877	2.115	2115.1	generate	Run2	generate/STIM_015.jpg	99
1242.887	1.382	1381.7	generate	Run2	generate/STIM_015.jpg	100
1247.936	1.77	1770.3	generate	Run2	generate/STIM_015.jpg	99
1252.672	1.496	1495.6	generate	Run2	generate/STIM_015.jpg	100
1256.379	1.142	1141.9	generate	Run2	generate/STIM_015.jpg	99
1259.722	1.756	1756.3	generate	Run2	generate/STIM_016.jpg	99
1265.09	1.488	1487.7	generate	Run2	generate/STIM_016.jpg	99
1269.868	2.008	2008.1	generate	Run2	generate/STIM_016.jpg	99
1274.932	1.128	1128.2	generate	Run2	generate/STIM_016.jpg	99
1279.295	1.599	1598.8	generate	Run2	generate/STIM_016.jpg	99
1283.006	1.691	1691.2	generate	Run2	generate/STIM_017.jpg	100
1286.852	1.902	1901.6	generate	Run2	generate/STIM_017.jpg	99
1290.958	1.811	1810.8	generate	Run2	generate/STIM_017.jpg	100
1296.215	1.447	1446.9	generate	Run2	generate/STIM_017.jpg	99
1300.041	1.331	1330.6	generate	Run2	generate/STIM_017.jpg	100
1303.423	2.406	2406.4	generate	Run2	generate/STIM_018.jpg	100
1309.548	1.392	1392.5	generate	Run2	generate/STIM_018.jpg	100
1314.321	1.693	1692.9	generate	Run2	generate/STIM_018.jpg	100
1318.642	1.274	1273.8	generate	Run2	generate/STIM_018.jpg	99
1321.94	1.284	1283.9	generate	Run2	generate/STIM_018.jpg	100
1326.3	1.501	1501.3	generate	Run2	generate/STIM_019.jpg	99
1330.96	1.882	1882.3	generate	Run2	generate/STIM_019.jpg	99
1336.384	2.125	2124.6	generate	Run2	generate/STIM_019.jpg	100
1341.903	1.455	1454.7	generate	Run2	generate/STIM_019.jpg	99
1346.354	1.572	1572.5	generate	Run2	generate/STIM_019.jpg	100
1350.259	2.062	2061.5	generate	Run2	generate/STIM_020.jpg	99
1355.502	1.274	1273.7	generate	Run2	generate/STIM_020.jpg	100
1358.782	1.145	1144.7	generate	Run2	generate/STIM_020.jpg	100
1362.912	1.804	1804.0	generate	Run2	generate/STIM_020.jpg	99
1368.054	1.78	1780.5	generate	Run2	generate/STIM_020.jpg	100
1372.884	1.465	1464.9	generate	Run2	generate/STIM_021.jpg	100
1377.292	2.51	2509.9	generate	Run2	generate/STIM_021.jpg	99
1383.19	2.159	2159.1	generate	Run2	generate/STIM_021.jpg	99
1387.392	1.796	1795.6	generate	Run2	generate/STIM_021.jpg	99
1392.897	1.732	1731.7	generate	Run2	generate/STIM_021.jpg	100
1397.177	2.334	2334.0	generate	Run2	generate/STIM_022.jpg	99
1401.535	1.016	1016.0	generate	Run2	generate/STIM_022.jpg	100
1404.673	1.615	1614.6	generate	Run2	generate/STIM_022.jpg	99
1409.478	1.56	1559.6	generate	Run2	generate/STIM_022.jpg	99
1413.978	1.77	1770.3	generate	Run2	generate/STIM_022.jpg	99
1418.389	1.243	1243.4	generate	Run2	generate/STIM_023.jpg	100
1422.319	1.561	1561.1	generate	Run2	generate/STIM_023.jpg	100
1426.977	1.37	1369.7	generate	Run2	generate/STIM_023.jpg	100
1430.78	1.217	1217.3	generate	Run2	generate/STIM_023.jpg	100
1435.14	1.2	1200.2	generate	Run2	generate/STIM_023.jpg	99
1439.836	2.548	2548.2	generate	Run2	generate/STIM_024.jpg	99
1445.73	1.761	1761.0	generate	Run2	generate/STIM_024.jpg	100
1449.518	1.373	1372.8	generate	Run2	generate/STIM_024.jpg	100
1454.77	1.332	1332.2	generate	Run2	generate/STIM_024.jpg	99
1458.193	2.161	2160.8	generate	Run2	generate/STIM_024.jpg	99
1462.487	0.69	689.6	repeat	Run2	repeat/STIM_000.jpg	100
1466.322	0.962	962.1	repeat	Run2	repeat/STIM_000.jpg	100
1470.385	0.85	850.1	repeat	Run2	repeat/STIM_000.jpg	100
1473.928	0.804	804.2	repeat	Run2	repeat/STIM_000.jpg	99
1477.411	0.974	974.5	repeat	Run2	repeat/STIM_000.jpg	100
1481.374	0.706	706.0	repeat	Run2	repeat/STIM_001.jpg	99
1484.877	0.693	693.2	repeat	Run2	repeat/STIM_001.jpg	99
1487.929	0.946	946.4	repeat	Run2	repeat/STIM_001.jpg	99
1491.123	0.966	966.3	repeat	Run2	repeat/STIM_001.jpg	99
1495.785	0.966	966.3	repeat	Run2	repeat/STIM_001.jpg	100
1500.031	0.974	974.3	repeat	Run2	repeat/STIM_002.jpg	100
1502.96	0.952	951.5	repeat	Run2	repeat/STIM_002.jpg	99
1506.877	0.93	930.2	repeat	Run2	repeat/STIM_002.jpg	99
1510.333	0.722	722.2	repeat	Run2	repeat/STIM_002.jpg	99
1514.258	0.498	498.4	repeat	Run2	repeat/STIM_002.jpg	100
1517.517	0.848	848.3	repeat	Run2	repeat/STIM_003.jpg	100
1520.729	0.747	746.7	repeat	Run2	repeat/STIM_003.jpg	99
1523.643	0.469	469.3	repeat	Run2	repeat/STIM_003.jpg	99
1527.461	0.723	723.2	repeat	Run2	repeat/STIM_003.jpg	99
1531.916	0.724	723.7	repeat	Run2	repeat/STIM_003.jpg	100
1534.784	0.649	649.3	repeat	Run2	repeat/STIM_004.jpg	100
1537.438	0.595	594.9	repeat	Run2	repeat/STIM_004.jpg	100
1541.595	0.605	605.2	repeat	Run2	repeat/STIM_004.jpg	100
1545.146	0.745	744.7	repeat	Run2	repeat/STIM_004.jpg	99
1549.866	0.986	985.9	repeat	Run2	repeat/STIM_004.jpg	99
1554.102	0.569	568.8	repeat	Run2	repeat/STIM_005.jpg	99
1558.203	0.568	568.3	repeat	Run2	repeat/STIM_005.jpg	100
1561.684	1.057	1057.4	repeat	Run2	repeat/STIM_005.jpg	100
1565.662	0.952	952.3	repeat	Run2	repeat/STIM_005.jpg	99
1568.936	0.547	547.0	repeat	Run2	repeat/STIM_005.jpg	99
1571.622	0.767	767.2	repeat	Run2	repeat/STIM_006.jpg	99
1575.257	0.785	784.9	repeat	Run2	repeat/STIM_006.jpg	99
1579.259	0.94	939.9	repeat	Run2	repeat/STIM_006.jpg	100
1582.254	0.765	765.1	repeat	Run2	repeat/STIM_006.jpg	100
1585.635	0.817	816.7	repeat	Run2	repeat/STIM_006.jpg	100
1589.335	0.835	834.9	repeat	Run2	repeat/STIM_007.jpg	99
1592.495	0.602	602.4	repeat	Run2	repeat/STIM_007.jpg	99
1595.809	0.942	941.6	repeat	Run2	repeat/STIM_007.jpg	99
1600.414	0.562	561.6	repeat	Run2	repeat/STIM_007.jpg	99
1603.112	0.929	929.4	repeat	Run2	repeat/STIM_007.jpg	99
1606.134	0.619	619.3	repeat	Run2	repeat/STIM_008.jpg	99
1609.301	0.577	576.6	repeat	Run2	repeat/STIM_008.jpg	99
1612.697	0.882	882.5	repeat	Run2	repeat/STIM_008.jpg	100
1616.922	0.633	632.9	repeat	Run2	repeat/STIM_008.jpg	99
1620.305	0.532	532.0	repeat	Run2	repeat/STIM_008.jpg	100
1623.396	0.948	947.7	repeat	Run2	repeat/STIM_009.jpg	99
1626.463	0.944	944.3	repeat	Run2	repeat/STIM_009.jpg	100
1630.387	0.769	768.9	repeat	Run2	repeat/STIM_009.jpg	99
1635.078	0.696	696.2	repeat	Run2	repeat/STIM_009.jpg	99
1639.211	0.898	898.3	repeat	Run2	repeat/STIM_009.jpg	100
1643.21	0.929	929.0	repeat	Run2	repeat/STIM_010.jpg	99
1647.497	0.87	870.4	repeat	Run2	repeat/STIM_010.jpg	100
1651.262	0.743	743.1	repeat	Run2	repeat/STIM_010.jpg	99
1654.632	0.664	664.1	repeat	Run2	repeat/STIM_010.jpg	100
1658.194	0.796	795.5	repeat	Run2	repeat/STIM_010.jpg	99
1661.81	0.751	751.1	repeat	Run2	repeat/STIM_011.jpg	100
1665.402	0.819	818.9	repeat	Run2	repeat/STIM_011.jpg	100
1668.585	0.794	794.2	repeat	Run2	repeat/STIM_011.jpg	100
1672.432	0.524	523.9	repeat	Run2	repeat/STIM_011.jpg	99
1675.081	0.923	923.4	repeat	Run2	repeat/STIM_011.jpg	99
1678.329	0.709	708.7	repeat	Run2	repeat/STIM_012.jpg	99
1681.662	1.145	1144.8	repeat	Run2	repeat/STIM_012.jpg	100
1685.478	0.764	764.4	repeat	Run2	repeat/STIM_012.jpg	99
1688.498	0.926	925.9	repeat	Run2	repeat/STIM_012.jpg	100
1691.561	0.959	959.2	repeat	Run2	repeat/STIM_012.jpg	99
1695.178	0.618	617.8	repeat	Run2	repeat/STIM_013.jpg	100
1698.575	0.527	526.6	repeat	Run2	repeat/STIM_013.jpg	99
1701.806	1.044	1043.6	repeat	Run2	repeat/STIM_013.jpg	99
1705.783	1.07	1069.6	repeat	Run2	repeat/STIM_013.jpg	100
1709.203	0.839	838.8	repeat	Run2	repeat/STIM_013.jpg	99
1712.019	0.973	973.2	repeat	Run2	repeat/STIM_014.jpg	99
1715.513	0.879	879.1	repeat	Run2	repeat/STIM_014.jpg	100
1720.223	1.077	1077.3	repeat	Run2	repeat/STIM_014.jpg	100
1725.192	0.608	608.4	repeat	Run2	repeat/STIM_014.jpg	100
1729.587	0.709	709.2	repeat	Run2	repeat/STIM_014.jpg	99
1733.332	1.738	1738.5	generate	Run3	generate/STIM_000.jpg	99
1738.222	0.854	854.1	generate	Run3	generate/STIM_000.jpg	100
1741.802	1.715	1714.8	generate	Run3	generate/STIM_000.jpg	100
1747.273	1.323	1322.8	generate	Run3	generate/STIM_000.jpg	99
1751.938	1.32	1319.9	generate	Run3	generate/STIM_000.jpg	100
1756.901	1.898	1897.6	generate	Run3	generate/STIM_001.jpg	100
1762.509	1.534	1534.3	generate	Run3	generate/STIM_001.jpg	99
1767.395	1.586	1585.5	generate	Run3	generate/STIM_001.jpg	100
1772.096	1.824	1824.2	generate	Run3	generate/STIM_001.jpg	99
1776.459	1.778	1777.7	generate	Run3	generate/STIM_001.jpg	100
1780.226	1.803	1803.0	generate	Run3	generate/STIM_002.jpg	100
1785.714	1.498	1497.8	generate	Run3	generate/STIM_002.jpg	99
1789.202	1.112	1111.8	generate	Run3	generate/STIM_002.jpg	100
1792.889	0.972	971.8	generate	Run3	generate/STIM_002.jpg	99
1797.37	1.178	1177.8	generate	Run3	generate/STIM_002.jpg	99
1802.379	0.984	984.0	generate	Run3	generate/STIM_003.jpg	100
1805.616	1.007	1006.8	generate	Run3	generate/STIM_003.jpg	99
1810.418	1.475	1475.0	generate	Run3	generate/STIM_003.jpg	100
1814.253	2.242	2242.1	generate	Run3	generate/STIM_003.jpg	99
1820.194	1.327	1327.2	generate	Run3	generate/STIM_003.jpg	99
1824.766	1.599	1599.3	generate	Run3	generate/STIM_004.jpg	100
1829.644	1.991	1991.0	generate	Run3	generate/STIM_004.jpg	99
1835.406	1.913	1912.9	generate	Run3	generate/STIM_004.jpg	100
1840.003	1.839	1839.3	generate	Run3	generate/STIM_004.jpg	99
1845.518	2.061	2061.3	generate	Run3	generate/STIM_004.jpg	99
1851.339	1.426	1426.0	generate	Run3	generate/STIM_005.jpg	100
1855.969	1.361	1361.2	generate	Run3	generate/STIM_005.jpg	99
1860.95	1.017	1017.1	generate	Run3	generate/STIM_005.jpg	100
1864.029	1.094	1094.5	generate	Run3	generate/STIM_005.jpg	99
1867.872	0.93	930.5	generate	Run3	generate/STIM_005.jpg	99
1871.711	1.323	1322.9	generate	Run3	generate/STIM_006.jpg	100
1875.588	2.012	2012.0	generate	Run3	generate/STIM_006.jpg	99
1879.904	1.595	1594.9	generate	Run3	generate/STIM_006.jpg	99
1884.748	2.126	2125.7	generate	Run3	generate/STIM_006.jpg	100
1888.844	1.777	1777.3	generate	Run3	generate/STIM_006.jpg	100
1893.443	1.316	1316.5	generate	Run3	generate/STIM_007.jpg	100
1897.788	1.398	1397.9	generate	Run3	generate/STIM_007.jpg	99
1902.935	1.48	1480.5	generate	Run3	generate/STIM_007.jpg	99
1906.697	1.525	1525.1	generate	Run3	generate/STIM_007.jpg	99
1912.051	0.805	805.3	generate	Run3	generate/STIM_007.jpg	99
1915.203	1.032	1032.5	generate	Run3	generate/STIM_008.jpg	100
1918.831	1.126	1125.5	generate	Run3	generate/STIM_008.jpg	100
1922.784	1.506	1506.2	generate	Run3	generate/STIM_008.jpg	99
1926.565	1.347	1346.7	generate	Run3	generate/STIM_008.jpg	99
1930.155	0.956	956.4	generate	Run3	generate/STIM_008.jpg	99
1933.153	2.093	2092.6	generate	Run3	generate/STIM_009.jpg	99
1937.909	1.702	1701.7	generate	Run3	generate/STIM_009.jpg	100
1942.358	1.377	1376.6	generate	Run3	generate/STIM_009.jpg	100
1946.531	1.654	1654.0	generate	Run3	generate/STIM_009.jpg	100
1950.891	1.097	1097.1	generate	Run3	generate/STIM_009.jpg	100
1955.129	1.2	1199.8	generate	Run3	generate/STIM_010.jpg	100
1958.334	0.851	851.3	generate	Run3	generate/STIM_010.jpg	100
1962.723	0.993	993.4	generate	Run3	generate/STIM_010.jpg	100
1966.744	1.273	1273.0	generate	Run3	generate/STIM_010.jpg	100
1970.873	1.563	1563.1	generate	Run3	generate/STIM_010.jpg	100
1975.52	1.374	1374.0	generate	Run3	generate/STIM_011.jpg	100
1980.629	1.002	1001.9	generate	Run3	generate/STIM_011.jpg	100
1984.813	1.991	1990.9	generate	Run3	generate/STIM_011.jpg	100
1990.764	1.525	1524.8	generate	Run3	generate/STIM_011.jpg	99
1995.49	0.927	926.7	generate	Run3	generate/STIM_011.jpg	100
1999.777	1.614	1614.4	generate	Run3	generate/STIM_012.jpg	99
2003.921	1.952	1951.6	generate	Run3	generate/STIM_012.jpg	100
2009.708	1.197	1197.2	generate	Run3	generate/STIM_012.jpg	100
2013.342	1.163	1163.0	generate	Run3	generate/STIM_012.jpg	99
2016.81	1.856	1856.5	generate	Run3	generate/STIM_012.jpg	99
2020.698	1.181	1180.8	generate	Run3	generate/STIM_013.jpg	100
2025.4	1.52	1520.3	generate	Run3	generate/STIM_013.jpg	100
2029.387	1.939	1939.3	generate	Run3	generate/STIM_013.jpg	100
2033.527	0.908	907.5	generate	Run3	generate/STIM_013.jpg	100
2037.199	1.54	1539.5	generate	Run3	generate/STIM_013.jpg	100
2041.03	2.011	2011.0	generate	Run3	generate/STIM_014.jpg	100
2045.919	1.586	1585.5	generate	Run3	generate/STIM_014.jpg	100
2049.5	1.837	1837.2	generate	Run3	generate/STIM_014.jpg	99
2054.546	1.088	1088.2	generate	Run3	generate/STIM_014.jpg	99
2057.605	1.361	1360.8	generate	Run3	generate/STIM_014.jpg	100
2062.319	1.862	1861.6	generate	Run3	generate/STIM_015.jpg	100
2067.403	1.198	1198.0	generate	Run3	generate/STIM_015.jpg	100
2071.145	1.26	1260.0	generate	Run3	generate/STIM_015.jpg	100
2075.42	1.976	1976.2	generate	Run3	generate/STIM_015.jpg	100
2079.787	2.117	2117.2	generate	Run3	generate/STIM_015.jpg	100
2085.703	2.199	2198.9	generate	Run3	generate/STIM_016.jpg	99
2090.126	1.376	1375.7	generate	Run3	generate/STIM_016.jpg	100
2094.274	1.298	1297.9	generate	Run3	generate/STIM_016.jpg	99
2099.376	1.297	1297.2	generate	Run3	generate/STIM_016.jpg	99
2102.995	1.012	1011.5	generate	Run3	generate/STIM_016.jpg	100
2106.189	1.206	1206.4	generate	Run3	generate/STIM_017.jpg	100
2109.826	1.767	1766.8	generate	Run3	generate/STIM_017.jpg	99
2114.246	2.024	2024.0	generate	Run3	generate/STIM_017.jpg	100
2119.036	1.922	1922.2	generate	Run3	generate/STIM_017.jpg	100
2123.585	1.292	1291.8	generate	Run3	generate/STIM_017.jpg	99
2128.18	1.754	1754.0	generate	Run3	generate/STIM_018.jpg	100
2133.676	1.74	1740.0	generate	Run3	generate/STIM_018.jpg	100
2137.859	1.724	1723.9	generate	Run3	generate/STIM_018.jpg	99
2141.914	1.247	1247.3	generate	Run3	generate/STIM_018.jpg	100
2145.616	1.77	1769.5	generate	Run3	generate/STIM_018.jpg	99
2149.781	2.202	2201.7	generate	Run3	generate/STIM_019.jpg	100
2155.668	2.071	2071.2	generate	Run3	generate/STIM_019.jpg	99
2160.538	1.869	1868.7	generate	Run3	generate/STIM_019.jpg	99
2164.529	1.271	1271.2	generate	Run3	generate/STIM_019.jpg	100
2168.817	1.829	1828.8	generate	Run3	generate/STIM_019.jpg	99
2172.994	1.541	1541.1	generate	Run3	generate/STIM_020.jpg	99
2176.704	2.028	2028.2	generate	Run3	generate/STIM_020.jpg	100
2182.132	1.685	1685.2	generate	Run3	generate/STIM_020.jpg	99
2186.669	0.98	980.0	generate	Run3	generate/STIM_020.jpg	99
2191.128	1.408	1407.7	generate	Run3	generate/STIM_020.jpg	100
2194.878	1.472	1472.1	generate	Run3	generate/STIM_021.jpg	100
2199.712	1.962	1961.6	generate	Run3	generate/STIM_021.jpg	99
2204.349	0.836	835.9	generate	Run3	generate/STIM_021.jpg	99
2209.054	1.468	1468.4	generate	Run3	generate/STIM_021.jpg	99
2213.962	1.078	1077.6	generate	Run3	generate/STIM_021.jpg	100
2217.622	1.375	1374.9	generate	Run3	generate/STIM_022.jpg	100
2221.205	1.034	1033.5	generate	Run3	generate/STIM_022.jpg	99
2224.284	1.124	1123.5	generate	Run3	generate/STIM_022.jpg	99
2228.981	1.566	1566.0	generate	Run3	generate/STIM_022.jpg	99
2232.572	1.764	1764.1	generate	Run3	generate/STIM_022.jpg	100
2236.566	1.067	1066.9	generate	Run3	generate/STIM_023.jpg	100
2239.708	1.614	1614.4	generate	Run3	generate/STIM_023.jpg	99
2244.504	1.882	1881.7	generate	Run3	generate/STIM_023.jpg	100
2248.361	1.303	1303.0	generate	Run3	generate/STIM_023.jpg	99
2251.694	0.973	972.7	generate	Run3	generate/STIM_023.jpg	99
2255.771	1.592	1592.1	generate	Run3	generate/STIM_024.jpg	99
2261.21	1.627	1626.6	generate	Run3	generate/STIM_024.jpg	100
2266.452	0.927	927.4	generate	Run3	generate/STIM_024.jpg	100
2269.751	1.447	1447.4	generate	Run3	generate/STIM_024.jpg	100
2274.129	1.582	1581.7	generate	Run3	generate/STIM_024.jpg	99
2278.745	0.59	590.1	repeat	Run3	repeat/STIM_000.jpg	100
2282.71	0.792	792.0	repeat	Run3	repeat/STIM_000.jpg	99
2286.019	0.531	531.1	repeat	Run3	repeat/STIM_000.jpg	99
2290.162	0.749	748.8	repeat	Run3	repeat/STIM_000.jpg	99
2294.352	0.63	630.3	repeat	Run3	repeat/STIM_000.jpg	100
2297.408	0.564	564.0	repeat	Run3	repeat/STIM_001.jpg	99
2300.608	0.786	786.0	repeat	Run3	repeat/STIM_001.jpg	99
2304.519	0.634	633.6	repeat	Run3	repeat/STIM_001.jpg	99
2308.114	0.812	811.8	repeat	Run3	repeat/STIM_001.jpg	100
2311.128	0.898	898.4	repeat	Run3	repeat/STIM_001.jpg	100
2315.635	0.883	883.0	repeat	Run3	repeat/STIM_002.jpg	99
2320.294	0.784	784.5	repeat	Run3	repeat/STIM_002.jpg	99
2324.531	0.897	897.0	repeat	Run3	repeat/STIM_002.jpg	99
2328.932	0.855	854.9	repeat	Run3	repeat/STIM_002.jpg	100
2333.34	0.688	688.2	repeat	Run3	repeat/STIM_002.jpg	100
2337.208	0.692	691.5	repeat	Run3	repeat/STIM_003.jpg	99
2341.343	0.887	887.4	repeat	Run3	repeat/STIM_003.jpg	99
2345.951	0.624	623.6	repeat	Run3	repeat/STIM_003.jpg	99
2349.238	0.561	561.1	repeat	Run3	repeat/STIM_003.jpg	99
2352.118	0.542	542.4	repeat	Run3	repeat/STIM_003.jpg	99
2356.677	0.768	768.3	repeat	Run3	repeat/STIM_004.jpg	99
2360.821	0.613	613.3	repeat	Run3	repeat/STIM_004.jpg	99
2365.308	0.827	826.7	repeat	Run3	repeat/STIM_004.jpg	99
2369.289	0.558	558.0	repeat	Run3	repeat/STIM_004.jpg	99
2373.163	0.704	703.9	repeat	Run3	repeat/STIM_004.jpg	100
2376.389	0.655	654.7	repeat	Run3	repeat/STIM_005.jpg	99
2379.623	0.649	649.1	repeat	Run3	repeat/STIM_005.jpg	100
2384.091	0.84	839.8	repeat	Run3	repeat/STIM_005.jpg	99
2386.952	0.942	941.9	repeat	Run3	repeat/STIM_005.jpg	99
2390.195	0.872	871.5	repeat	Run3	repeat/STIM_005.jpg	99
2394.426	0.82	819.9	repeat	Run3	repeat/STIM_006.jpg	99
2398.03	0.877	877.3	repeat	Run3	repeat/STIM_006.jpg	100
2400.923	0.617	617.0	repeat	Run3	repeat/STIM_006.jpg	99
2404.014	0.593	593.0	repeat	Run3	repeat/STIM_006.jpg	99
2407.143	0.681	680.9	repeat	Run3	repeat/STIM_006.jpg	100
2410.756	1.09	1090.2	repeat	Run3	repeat/STIM_007.jpg	100
2414.044	0.91	909.9	repeat	Run3	repeat/STIM_007.jpg	99
2417.562	0.616	615.5	repeat	Run3	repeat/STIM_007.jpg	99
2421.918	0.778	777.9	repeat	Run3	repeat/STIM_007.jpg	100
2425.191	0.85	849.6	repeat	Run3	repeat/STIM_007.jpg	100
2428.509	1.031	1030.9	repeat	Run3	repeat/STIM_008.jpg	99
2432.859	0.802	801.6	repeat	Run3	repeat/STIM_008.jpg	99
2436.812	0.679	679.3	repeat	Run3	repeat/STIM_008.jpg	100
2440.803	0.947	947.2	repeat	Run3	repeat/STIM_008.jpg	100
2445.569	0.873	873.1	repeat	Run3	repeat/STIM_008.jpg	100
2450.157	0.468	467.9	repeat	Run3	repeat/STIM_009.jpg	99
2452.887	0.698	697.5	repeat	Run3	repeat/STIM_009.jpg	100
2456.111	0.614	614.5	repeat	Run3	repeat/STIM_009.jpg	100
2459.593	0.929	929.1	repeat	Run3	repeat/STIM_009.jpg	100
2463.61	0.922	922.2	repeat	Run3	repeat/STIM_009.jpg	100
2466.621	0.89	889.5	repeat	Run3	repeat/STIM_010.jpg	100
2471.436	0.792	791.5	repeat	Run3	repeat/STIM_010.jpg	100
2474.943	0.53	530.3	repeat	Run3	repeat/STIM_010.jpg	100
2478.938	0.951	950.9	repeat	Run3	repeat/STIM_010.jpg	100
2482.672	0.986	985.6	repeat	Run3	repeat/STIM_010.jpg	99
2486.035	0.725	724.7	repeat	Run3	repeat/STIM_011.jpg	100
2490.345	0.82	819.9	repeat	Run3	repeat/STIM_011.jpg	100
2493.378	0.737	736.6	repeat	Run3	repeat/STIM_011.jpg	100
2497.536	0.455	454.7	repeat	Run3	repeat/STIM_011.jpg	99
2500.428	0.827	827.2	repeat	Run3	repeat/STIM_011.jpg	100
2504.258	0.65	650.2	repeat	Run3	repeat/STIM_012.jpg	100
2507.708	0.859	858.7	repeat	Run3	repeat/STIM_012.jpg	99
2510.619	0.588	587.8	repeat	Run3	repeat/STIM_012.jpg	99
2513.834	0.811	810.8	repeat	Run3	repeat/STIM_012.jpg	99
2517.653	0.528	527.9	repeat	Run3	repeat/STIM_012.jpg	99
2520.308	0.719	719.2	repeat	Run3	repeat/STIM_013.jpg	100
2523.241	0.837	836.6	repeat	Run3	repeat/STIM_013.jpg	100
2527.029	0.821	821.1	repeat	Run3	repeat/STIM_013.jpg	100
2530.37	0.985	985.0	repeat	Run3	repeat/STIM_013.jpg	99
2533.498	0.693	693.3	repeat	Run3	repeat/STIM_013.jpg	100
2537.234	0.538	537.5	repeat	Run3	repeat/STIM_014.jpg	99
2541.493	0.657	657.1	repeat	Run3	repeat/STIM_014.jpg	99
2545.217	0.686	686.3	repeat	Run3	repeat/STIM_014.jpg	99
2549.67	0.635	634.8	repeat	Run3	repeat/STIM_014.jpg	99
2553.851	0.996	995.6	repeat	Run3	repeat/STIM_014.jpg	100
2557.588	1.732	1731.8	generate	Run4	generate/STIM_000.jpg	100
2562.914	1.413	1412.8	generate	Run4	generate/STIM_000.jpg	99
2566.758	0.845	845.4	generate	Run4	generate/STIM_000.jpg	100
2571.054	1.875	1874.6	generate	Run4	generate/STIM_000.jpg	99
2576.891	1.165	1165.4	generate	Run4	generate/STIM_000.jpg	99
2581.283	1.395	1395.0	generate	Run4	generate/STIM_001.jpg	100
2586.478	1.395	1394.6	generate	Run4	generate/STIM_001.jpg	100
2591.744	1.216	1215.6	generate	Run4	generate/STIM_001.jpg	100
2596.658	1.673	1672.9	generate	Run4	generate/STIM_001.jpg	99
2601.972	1.515	1515.1	generate	Run4	generate/STIM_001.jpg	100
2606.849	1.134	1134.3	generate	Run4	generate/STIM_002.jpg	100
2610.909	1.9	1900.0	generate	Run4	generate/STIM_002.jpg	100
2614.907	1.218	1217.9	generate	Run4	generate/STIM_002.jpg	100
2619.585	1.638	1638.0	generate	Run4	generate/STIM_002.jpg	100
2625.161	1.692	1691.9	generate	Run4	generate/STIM_002.jpg	100
2628.797	2.04	2039.6	generate	Run4	generate/STIM_003.jpg	99
2634.571	1.152	1152.0	generate	Run4	generate/STIM_003.jpg	100
2639.175	1.036	1036.2	generate	Run4	generate/STIM_003.jpg	99
2642.811	1.591	1591.1	generate	Run4	generate/STIM_003.jpg	100
2647.079	1.736	1735.7	generate	Run4	generate/STIM_003.jpg	99
2650.884	0.861	861.1	generate	Run4	generate/STIM_004.jpg	99
2655.295	0.974	974.1	generate	Run4	generate/STIM_004.jpg	100
2659.537	1.052	1052.4	generate	Run4	generate/STIM_004.jpg	100
2664.142	0.967	967.2	generate	Run4	generate/STIM_004.jpg	100
2668.791	1.401	1400.7	generate	Run4	generate/STIM_004.jpg	99
2672.891	1.66	1659.7	generate	Run4	generate/STIM_005.jpg	100
2678.428	1.941	1940.6	generate	Run4	generate/STIM_005.jpg	100
2683.484	1.971	1971.1	generate	Run4	generate/STIM_005.jpg	100
2687.989	1.691	1691.2	generate	Run4	generate/STIM_005.jpg	99
2692.729	1.282	1282.3	generate	Run4	generate/STIM_005.jpg	100
2696.442	1.702	1701.8	generate	Run4	generate/STIM_006.jpg	100
2701.898	1.354	1353.6	generate	Run4	generate/STIM_006.jpg	100
2705.52	1.113	1113.3	generate	Run4	generate/STIM_006.jpg	99
2709.645	1.293	1293.3	generate	Run4	generate/STIM_006.jpg	99
2713.945	2.157	2157.3	generate	Run4	generate/STIM_006.jpg	99
2719.274	1.282	1282.3	generate	Run4	generate/STIM_007.jpg	99
2723.961	1.305	1304.8	generate	Run4	generate/STIM_007.jpg	99
2728.796	1.137	1136.8	generate	Run4	generate/STIM_007.jpg	100
2733.844	1.917	1916.9	generate	Run4	generate/STIM_007.jpg	99
2739.456	1.794	1793.6	generate	Run4	generate/STIM_007.jpg	100
2745.073	2.026	2026.3	generate	Run4	generate/STIM_008.jpg	100
2750.262	1.765	1764.7	generate	Run4	generate/STIM_008.jpg	100
2755.87	1.471	1471.1	generate	Run4	generate/STIM_008.jpg	100
2760.544	2.111	2111.4	generate	Run4	generate/STIM_008.jpg	100
2766.293	2.035	2034.7	generate	Run4	generate/STIM_008.jpg	100
2770.702	1.755	1754.6	generate	Run4	generate/STIM_009.jpg	99
2776.156	1.6	1600.4	generate	Run4	generate/STIM_009.jpg	99
2781.587	1.082	1081.7	generate	Run4	generate/STIM_009.jpg	99
2785.033	1.446	1446.2	generate	Run4	generate/STIM_009.jpg	99
2789.325	2.018	2017.9	generate	Run4	generate/STIM_009.jpg	100
2795.089	1.791	1790.7	generate	Run4	generate/STIM_010.jpg	100
2800.589	2.094	2094.0	generate	Run4	generate/STIM_010.jpg	99
2804.728	1.422	1421.6	generate	Run4	generate/STIM_010.jpg	99
2810.053	1.791	1790.6	generate	Run4	generate/STIM_010.jpg	100
2814.657	0.9	899.7	generate	Run4	generate/STIM_010.jpg	100
2818.202	1.251	1251.1	generate	Run4	generate/STIM_011.jpg	99
2821.748	1.8	1799.5	generate	Run4	generate/STIM_011.jpg	99
2826.087	1.756	1756.2	generate	Run4	generate/STIM_011.jpg	99
2831.749	1.095	1095.4	generate	Run4	generate/STIM_011.jpg	100
2836.107	1.772	1772.3	generate	Run4	generate/STIM_011.jpg	99
2840.935	1.568	1568.3	generate	Run4	generate/STIM_012.jpg	99
2845.212	2.094	2094.3	generate	Run4	generate/STIM_012.jpg	99
2850.108	2.096	2096.2	generate	Run4	generate/STIM_012.jpg	99
2855.786	1.647	1646.7	generate	Run4	generate/STIM_012.jpg	99
2861.251	1.621	1620.9	generate	Run4	generate/STIM_012.jpg	100
2866.275	2.022	2022.2	generate	Run4	generate/STIM_013.jpg	99
2871.141	1.064	1064.2	generate	Run4	generate/STIM_013.jpg	100
2876.234	0.98	980.3	generate	Run4	generate/STIM_013.jpg	100
2880.026	1.323	1322.6	generate	Run4	generate/STIM_013.jpg	100
2883.587	0.988	988.2	generate	Run4	generate/STIM_013.jpg	100
2888.41	0.997	997.2	generate	Run4	generate/STIM_014.jpg	100
2892.641	1.397	1397.2	generate	Run4	generate/STIM_014.jpg	99
2896.609	1.595	1594.7	generate	Run4	generate/STIM_014.jpg	100
2900.473	0.866	866.0	generate	Run4	generate/STIM_014.jpg	100
2905.113	1.813	1813.1	generate	Run4	generate/STIM_014.jpg	100
2910.627	1.362	1361.5	generate	Run4	generate/STIM_015.jpg	100
2914.724	1.319	1319.1	generate	Run4	generate/STIM_015.jpg	99
2919.564	1.077	1077.4	generate	Run4	generate/STIM_015.jpg	99
2922.863	1.245	1244.9	generate	Run4	generate/STIM_015.jpg	99
2927.577	1.053	1053.1	generate	Run4	generate/STIM_015.jpg	100
2932.034	1.543	1542.6	generate	Run4	generate/STIM_016.jpg	99
2937.148	2.072	2071.7	generate	Run4	generate/STIM_016.jpg	100
2943.058	2.156	2156.5	generate	Run4	generate/STIM_016.jpg	100
2947.596	1.45	1450.4	generate	Run4	generate/STIM_016.jpg	100
2952.119	1.873	1872.8	generate	Run4	generate/STIM_016.jpg	100
2956.77	1.85	1849.9	generate	Run4	generate/STIM_017.jpg	100
2960.821	2.091	2090.9	generate	Run4	generate/STIM_017.jpg	100
2966.573	1.556	1555.5	generate	Run4	generate/STIM_017.jpg	99
2971.211	2.181	2180.8	generate	Run4	generate/STIM_017.jpg	100
2975.415	1.606	1606.1	generate	Run4	generate/STIM_017.jpg	99
2980.112	1.445	1444.6	generate	Run4	generate/STIM_018.jpg	99
2984.058	1.124	1123.6	generate	Run4	generate/STIM_018.jpg	100
2988.988	1.16	1159.5	generate	Run4	generate/STIM_018.jpg	100
2992.121	1.841	1840.6	generate	Run4	generate/STIM_018.jpg	100
2996.611	1.564	1564.2	generate	Run4	generate/STIM_018.jpg	100
3001.403	1.418	1418.5	generate	Run4	generate/STIM_019.jpg	100
3006.749	1.249	1249.4	generate	Run4	generate/STIM_019.jpg	100
3011.124	0.958	958.1	generate	Run4	generate/STIM_019.jpg	99
3015.76	1.413	1413.3	generate	Run4	generate/STIM_019.jpg	99
3020.383	1.455	1454.8	generate	Run4	generate/STIM_019.jpg	100
3024.47	1.824	1823.6	generate	Run4	generate/STIM_020.jpg	99
3030.007	2.204	2203.8	generate	Run4	generate/STIM_020.jpg	99
3034.594	0.912	911.9	generate	Run4	generate/STIM_020.jpg	100
3038.799	1.643	1643.2	generate	Run4	generate/STIM_020.jpg	100
3042.693	1.15	1150.1	generate	Run4	generate/STIM_020.jpg	100
3046.043	1.728	1728.2	generate	Run4	generate/STIM_021.jpg	100
3050.518	0.849	849.4	generate	Run4	generate/STIM_021.jpg	100
3053.701	0.98	980.5	generate	Run4	generate/STIM_021.jpg	100
3058.298	1.495	1494.9	generate	Run4	generate/STIM_021.jpg	99
3063.067	2.128	2128.1	generate	Run4	generate/STIM_021.jpg	99
3067.24	1.164	1164.2	generate	Run4	generate/STIM_022.jpg	99
3071.491	1.058	1057.6	generate	Run4	generate/STIM_022.jpg	99
3075.509	2.165	2164.8	generate	Run4	generate/STIM_022.jpg	99
3079.979	1.795	1794.8	generate	Run4	generate/STIM_022.jpg	100
3085.177	2.176	2175.7	generate	Run4	generate/STIM_022.jpg	100
3090.8	1.844	1843.7	generate	Run4	generate/STIM_023.jpg	100
3095.196	1.841	1841.1	generate	Run4	generate/STIM_023.jpg	99
3100.558	1.037	1036.8	generate	Run4	generate/STIM_023.jpg	99
3105.491	1.882	1882.4	generate	Run4	generate/STIM_023.jpg	100
3110.534	1.071	1070.7	generate	Run4	generate/STIM_023.jpg	99
3114.427	1.116	1116.2	generate	Run4	generate/STIM_024.jpg	100
3119.474	1.073	1073.0	generate	Run4	generate/STIM_024.jpg	99
3123.199	1.28	1279.9	generate	Run4	generate/STIM_024.jpg	99
3127.9	1.568	1568.5	generate	Run4	generate/STIM_024.jpg	99
3131.479	1.909	1909.2	generate	Run4	generate/STIM_024.jpg	99
3135.858	0.655	655.4	repeat	Run4	repeat/STIM_000.jpg	100
3139.76	0.581	581.1	repeat	Run4	repeat/STIM_000.jpg	100
3143.861	0.979	978.9	repeat	Run4	repeat/STIM_000.jpg	99
3148.306	0.657	657.3	repeat	Run4	repeat/STIM_000.jpg	100
3152.302	0.681	681.2	repeat	Run4	repeat/STIM_000.jpg	99
3155.43	0.652	652.1	repeat	Run4	repeat/STIM_001.jpg	100
3159.862	1.084	1083.5	repeat	Run4	repeat/STIM_001.jpg	99
3162.861	0.98	980.1	repeat	Run4	repeat/STIM_001.jpg	99
3166.692	0.768	767.7	repeat	Run4	repeat/STIM_001.jpg	100
3171.089	0.927	927.2	repeat	Run4	repeat/STIM_001.jpg	99
3175.225	0.948	948.2	repeat	Run4	repeat/STIM_002.jpg	99
3179.345	0.983	982.8	repeat	Run4	repeat/STIM_002.jpg	99
3182.411	0.717	716.6	repeat	Run4	repeat/STIM_002.jpg	99
3185.369	0.849	849.0	repeat	Run4	repeat/STIM_002.jpg	100
3189.898	0.711	710.8	repeat	Run4	repeat/STIM_002.jpg	99
3193.198	0.622	621.8	repeat	Run4	repeat/STIM_003.jpg	99
3197.674	0.732	732.4	repeat	Run4	repeat/STIM_003.jpg	99
3201.16	0.412	412.2	repeat	Run4	repeat/STIM_003.jpg	100
3203.713	0.842	842.2	repeat	Run4	repeat/STIM_003.jpg	100
3206.688	0.88	880.4	repeat	Run4	repeat/STIM_003.jpg	99
3211.162	0.806	806.2	repeat	Run4	repeat/STIM_004.jpg	100
3215.497	0.75	750.5	repeat	Run4	repeat/STIM_004.jpg	100
3218.789	0.658	657.7	repeat	Run4	repeat/STIM_004.jpg	99
3221.572	1.006	1005.7	repeat	Run4	repeat/STIM_004.jpg	100
3225.32	0.674	673.9	repeat	Run4	repeat/STIM_004.jpg	99
3229.312	0.643	643.1	repeat	Run4	repeat/STIM_005.jpg	99
3233.577	0.702	702.5	repeat	Run4	repeat/STIM_005.jpg	100
3236.268	0.974	973.6	repeat	Run4	repeat/STIM_005.jpg	100
3239.505	1.082	1082.4	repeat	Run4	repeat/STIM_005.jpg	100
3244.196	0.842	841.8	repeat	Run4	repeat/STIM_005.jpg	100
3247.991	0.517	516.8	repeat	Run4	repeat/STIM_006.jpg	99
3251.195	1.009	1009.4	repeat	Run4	repeat/STIM_006.jpg	99
3254.998	0.737	737.0	repeat	Run4	repeat/STIM_006.jpg	99
3257.99	0.652	651.9	repeat	Run4	repeat/STIM_006.jpg	100
3262.473	0.705	705.3	repeat	Run4	repeat/STIM_006.jpg	99
3266.735	0.574	574.2	repeat	Run4	repeat/STIM_007.jpg	100
3269.861	0.855	855.2	repeat	Run4	repeat/STIM_007.jpg	100
3273.309	0.75	750.3	repeat	Run4	repeat/STIM_007.jpg	100
3276.872	0.86	860.2	repeat	Run4	repeat/STIM_007.jpg	99
3280.323	0.686	685.7	repeat	Run4	repeat/STIM_007.jpg	99
3283.387	0.632	631.5	repeat	Run4	repeat/STIM_008.jpg	99
3287.871	0.931	931.3	repeat	Run4	repeat/STIM_008.jpg	99
3291.098	0.901	901.0	repeat	Run4	repeat/STIM_008.jpg	100
3295.667	1.066	1065.6	repeat	Run4	repeat/STIM_008.jpg	99
3298.678	0.58	579.8	repeat	Run4	repeat/STIM_008.jpg	100
3302.977	0.854	853.8	repeat	Run4	repeat/STIM_009.jpg	100
3305.917	0.813	812.7	repeat	Run4	repeat/STIM_009.jpg	99
3309.218	0.593	592.7	repeat	Run4	repeat/STIM_009.jpg	100
3312.537	0.771	771.0	repeat	Run4	repeat/STIM_009.jpg	99
3315.609	1.115	1114.7	repeat	Run4	repeat/STIM_009.jpg	100
3320.5	0.472	472.1	repeat	Run4	repeat/STIM_010.jpg	100
3324.16	0.869	868.6	repeat	Run4	repeat/STIM_010.jpg	100
3327.942	0.587	586.9	repeat	Run4	repeat/STIM_010.jpg	100
3332.435	0.948	948.1	repeat	Run4	repeat/STIM_010.jpg	99
3337.21	0.842	842.2	repeat	Run4	repeat/STIM_010.jpg	100
3342.013	0.793	793.1	repeat	Run4	repeat/STIM_011.jpg	100
3345.746	0.811	811.1	repeat	Run4	repeat/STIM_011.jpg	100
3349.537	0.859	859.4	repeat	Run4	repeat/STIM_011.jpg	99
3352.439	0.724	723.9	repeat	Run4	repeat/STIM_011.jpg	100
3356.124	0.505	505.1	repeat	Run4	repeat/STIM_011.jpg	100
3359.265	0.938	938.1	repeat	Run4	repeat/STIM_012.jpg	99
3363.825	0.604	604.5	repeat	Run4	repeat/STIM_012.jpg	99
3366.935	0.506	505.7	repeat	Run4	repeat/STIM_012.jpg	100
3370.817	0.887	886.8	repeat	Run4	repeat/STIM_012.jpg	99
3373.92	1.054	1054.3	repeat	Run4	repeat/STIM_012.jpg	99
3377.119	0.813	813.4	repeat	Run4	repeat/STIM_013.jpg	100
3380.601	0.586	585.9	repeat	Run4	repeat/STIM_013.jpg	100
3383.66	0.818	818.1	repeat	Run4	repeat/STIM_013.jpg	100
3387.448	0.796	796.5	repeat	Run4	repeat/STIM_013.jpg	99
3390.848	0.618	617.6	repeat	Run4	repeat/STIM_013.jpg	100
3393.593	0.843	842.8	repeat	Run4	repeat/STIM_014.jpg	99
3398.143	0.566	566.3	repeat	Run4	repeat/STIM_014.jpg	100
3402.153	1.09	1089.8	repeat	Run4	repeat/STIM_014.jpg	99
3406.149	0.935	934.7	repeat	Run4	repeat/STIM_014.jpg	99
3410.711	0.944	943.7	repeat	Run4	repeat/STIM_014.jpg	100
