onset	duration	accuracy	trial_type	learning_stage	stimulus
0.0	1.261	incorrect	generate	Run1	generate/STIM_000.jpg
4.46	1.633	correct	generate	Run1	generate/STIM_000.jpg
8.839	1.548	correct	generate	Run1	generate/STIM_000.jpg
13.739	1.382	correct	generate	Run1	generate/STIM_000.jpg
17.775	1.169	correct	generate	Run1	generate/STIM_000.jpg
21.276	2.941	correct	generate	Run1	generate/STIM_001.jpg
26.501	2.371	correct	generate	Run1	generate/STIM_001.jpg
31.989	1.704	correct	generate	Run1	generate/STIM_001.jpg
36.979	1.226	correct	generate	Run1	generate/STIM_001.jpg
41.254	2.315	correct	generate	Run1	generate/STIM_001.jpg
47.524	2.281	correct	generate	Run1	generate/STIM_002.jpg
51.843	2.987	correct	generate	Run1	generate/STIM_002.jpg
57.174	2.294	incorrect	generate	Run1	generate/STIM_002.jpg
61.627	1.628	correct	generate	Run1	generate/STIM_002.jpg
65.942	2.323	correct	generate	Run1	generate/STIM_002.jpg
71.679	2.634	correct	generate	Run1	generate/STIM_003.jpg
77.968	2.174	correct	generate	Run1	generate/STIM_003.jpg
83.715	2.282	correct	generate	Run1	generate/STIM_003.jpg
88.369	2.15	correct	generate	Run1	generate/STIM_003.jpg
93.355	1.101	correct	generate	Run1	generate/STIM_003.jpg
97.105	2.183	correct	generate	Run1	generate/STIM_004.jpg
102.186	2.035	incorrect	generate	Run1	generate/STIM_004.jpg
107.184	2.868	correct	generate	Run1	generate/STIM_004.jpg
113.044	1.944	correct	generate	Run1	generate/STIM_004.jpg
117.177	2.234	correct	generate	Run1	generate/STIM_004.jpg
123.24	1.641	incorrect	generate	Run1	generate/STIM_005.jpg
128.761	1.513	correct	generate	Run1	generate/STIM_005.jpg
133.904	1.484	correct	generate	Run1	generate/STIM_005.jpg
139.039	2.66	incorrect	generate	Run1	generate/STIM_005.jpg
145.479	2.087	correct	generate	Run1	generate/STIM_005.jpg
149.907	1.775	incorrect	generate	Run1	generate/STIM_006.jpg
153.69	1.44	correct	generate	Run1	generate/STIM_006.jpg
157.77	1.471	correct	generate	Run1	generate/STIM_006.jpg
161.457	2.321	correct	generate	Run1	generate/STIM_006.jpg
166.303	1.018	correct	generate	Run1	generate/STIM_006.jpg
170.015	1.36	incorrect	generate	Run1	generate/STIM_007.jpg
174.485	1.583	incorrect	generate	Run1	generate/STIM_007.jpg
179.439	1.217	incorrect	generate	Run1	generate/STIM_007.jpg
183.197	2.354	correct	generate	Run1	generate/STIM_007.jpg
187.916	1.097	correct	generate	Run1	generate/STIM_007.jpg
191.204	1.531	correct	generate	Run1	generate/STIM_008.jpg
194.634	2.539	correct	generate	Run1	generate/STIM_008.jpg
200.208	1.86	correct	generate	Run1	generate/STIM_008.jpg
205.305	1.253	correct	generate	Run1	generate/STIM_008.jpg
210.354	2.054	incorrect	generate	Run1	generate/STIM_008.jpg
214.528	2.269	correct	generate	Run1	generate/STIM_009.jpg
219.139	2.024	incorrect	generate	Run1	generate/STIM_009.jpg
223.738	2.166	correct	generate	Run1	generate/STIM_009.jpg
228.609	2.274	incorrect	generate	Run1	generate/STIM_009.jpg
234.323	1.554	correct	generate	Run1	generate/STIM_009.jpg
238.513	1.947	correct	generate	Run1	generate/STIM_010.jpg
242.889	1.178	correct	generate	Run1	generate/STIM_010.jpg
246.231	1.567	correct	generate	Run1	generate/STIM_010.jpg
251.139	1.848	correct	generate	Run1	generate/STIM_010.jpg
256.461	1.158	correct	generate	Run1	generate/STIM_010.jpg
260.831	1.319	correct	generate	Run1	generate/STIM_011.jpg
265.721	2.182	incorrect	generate	Run1	generate/STIM_011.jpg
270.214	2.574	incorrect	generate	Run1	generate/STIM_011.jpg
276.056	1.382	correct	generate	Run1	generate/STIM_011.jpg
280.034	1.639	incorrect	generate	Run1	generate/STIM_011.jpg
284.18	1.446	incorrect	generate	Run1	generate/STIM_012.jpg
288.734	2.695	correct	generate	Run1	generate/STIM_012.jpg
293.99	2.342	correct	generate	Run1	generate/STIM_012.jpg
299.671	2.024	correct	generate	Run1	generate/STIM_012.jpg
303.985	2.331	correct	generate	Run1	generate/STIM_012.jpg
308.763	2.333	correct	generate	Run1	generate/STIM_013.jpg
313.976	2.215	correct	generate	Run1	generate/STIM_013.jpg
319.856	1.272	correct	generate	Run1	generate/STIM_013.jpg
325.003	2.14	correct	generate	Run1	generate/STIM_013.jpg
330.784	2.176	correct	generate	Run1	generate/STIM_013.jpg
336.847	1.387	correct	generate	Run1	generate/STIM_014.jpg
341.693	1.502	incorrect	generate	Run1	generate/STIM_014.jpg
346.913	2.196	incorrect	generate	Run1	generate/STIM_014.jpg
352.0	1.162	correct	generate	Run1	generate/STIM_014.jpg
356.096	2.086	correct	generate	Run1	generate/STIM_014.jpg
361.711	2.984	incorrect	generate	Run1	generate/STIM_015.jpg
368.468	1.454	correct	generate	Run1	generate/STIM_015.jpg
372.702	1.407	incorrect	generate	Run1	generate/STIM_015.jpg
376.256	1.832	correct	generate	Run1	generate/STIM_015.jpg
380.876	1.157	correct	generate	Run1	generate/STIM_015.jpg
384.604	1.346	correct	generate	Run1	generate/STIM_016.jpg
389.888	1.255	correct	generate	Run1	generate/STIM_016.jpg
394.934	2.654	incorrect	generate	Run1	generate/STIM_016.jpg
399.637	2.336	correct	generate	Run1	generate/STIM_016.jpg
405.466	1.082	correct	generate	Run1	generate/STIM_016.jpg
408.72	1.337	incorrect	generate	Run1	generate/STIM_017.jpg
412.333	2.825	correct	generate	Run1	generate/STIM_017.jpg
417.663	2.052	correct	generate	Run1	generate/STIM_017.jpg
423.243	1.929	incorrect	generate	Run1	generate/STIM_017.jpg
427.775	1.978	correct	generate	Run1	generate/STIM_017.jpg
431.65	2.325	correct	generate	Run1	generate/STIM_018.jpg
437.069	1.625	correct	generate	Run1	generate/STIM_018.jpg
440.802	1.894	correct	generate	Run1	generate/STIM_018.jpg
445.319	2.177	correct	generate	Run1	generate/STIM_018.jpg
449.385	1.129	incorrect	generate	Run1	generate/STIM_018.jpg
453.552	2.037	incorrect	generate	Run1	generate/STIM_019.jpg
457.911	2.025	correct	generate	Run1	generate/STIM_019.jpg
462.719	2.037	correct	generate	Run1	generate/STIM_019.jpg
467.409	2.0	correct	generate	Run1	generate/STIM_019.jpg
473.253	1.794	correct	generate	Run1	generate/STIM_019.jpg
477.874	2.082	incorrect	generate	Run1	generate/STIM_020.jpg
482.896	2.15	correct	generate	Run1	generate/STIM_020.jpg
488.19	1.812	correct	generate	Run1	generate/STIM_020.jpg
492.741	2.465	incorrect	generate	Run1	generate/STIM_020.jpg
499.074	1.305	correct	generate	Run1	generate/STIM_020.jpg
503.481	2.111	correct	generate	Run1	generate/STIM_021.jpg
508.154	2.539	correct	generate	Run1	generate/STIM_021.jpg
514.278	2.68	correct	generate	Run1	generate/STIM_021.jpg
520.305	2.312	correct	generate	Run1	generate/STIM_021.jpg
524.56	2.271	correct	generate	Run1	generate/STIM_021.jpg
530.532	2.392	incorrect	generate	Run1	generate/STIM_022.jpg
535.529	2.678	correct	generate	Run1	generate/STIM_022.jpg
541.914	2.806	correct	generate	Run1	generate/STIM_022.jpg
548.56	2.408	incorrect	generate	Run1	generate/STIM_022.jpg
554.019	2.247	correct	generate	Run1	generate/STIM_022.jpg
559.298	1.59	correct	generate	Run1	generate/STIM_023.jpg
564.08	1.469	correct	generate	Run1	generate/STIM_023.jpg
569.067	1.595	correct	generate	Run1	generate/STIM_023.jpg
572.964	1.565	correct	generate	Run1	generate/STIM_023.jpg
577.296	1.649	correct	generate	Run1	generate/STIM_023.jpg
582.631	1.619	correct	generate	Run1	generate/STIM_024.jpg
586.259	1.562	incorrect	generate	Run1	generate/STIM_024.jpg
590.441	2.327	correct	generate	Run1	generate/STIM_024.jpg
595.9	2.625	correct	generate	Run1	generate/STIM_024.jpg
602.209	2.51	correct	generate	Run1	generate/STIM_024.jpg
607.154	0.524	correct	repeat	Run1	repeat/STIM_000.jpg
611.191	0.907	correct	repeat	Run1	repeat/STIM_000.jpg
616.043	0.685	correct	repeat	Run1	repeat/STIM_000.jpg
619.768	0.618	correct	repeat	Run1	repeat/STIM_000.jpg
623.731	0.968	correct	repeat	Run1	repeat/STIM_000.jpg
628.534	0.756	correct	repeat	Run1	repeat/STIM_001.jpg
632.937	0.891	correct	repeat	Run1	repeat/STIM_001.jpg
635.779	0.65	correct	repeat	Run1	repeat/STIM_001.jpg
640.244	0.772	correct	repeat	Run1	repeat/STIM_001.jpg
644.968	0.731	incorrect	repeat	Run1	repeat/STIM_001.jpg
648.682	0.806	correct	repeat	Run1	repeat/STIM_002.jpg
651.823	0.845	correct	repeat	Run1	repeat/STIM_002.jpg
655.125	0.818	correct	repeat	Run1	repeat/STIM_002.jpg
658.05	0.667	correct	repeat	Run1	repeat/STIM_002.jpg
661.416	0.893	correct	repeat	Run1	repeat/STIM_002.jpg
665.478	0.483	correct	repeat	Run1	repeat/STIM_003.jpg
669.267	0.713	correct	repeat	Run1	repeat/STIM_003.jpg
673.42	0.757	correct	repeat	Run1	repeat/STIM_003.jpg
677.099	0.984	correct	repeat	Run1	repeat/STIM_003.jpg
680.747	0.952	correct	repeat	Run1	repeat/STIM_003.jpg
684.259	0.886	correct	repeat	Run1	repeat/STIM_004.jpg
687.23	0.658	correct	repeat	Run1	repeat/STIM_004.jpg
690.888	0.663	correct	repeat	Run1	repeat/STIM_004.jpg
695.321	0.998	correct	repeat	Run1	repeat/STIM_004.jpg
699.971	0.55	correct	repeat	Run1	repeat/STIM_004.jpg
704.45	0.879	correct	repeat	Run1	repeat/STIM_005.jpg
708.352	0.652	correct	repeat	Run1	repeat/STIM_005.jpg
712.496	0.848	correct	repeat	Run1	repeat/STIM_005.jpg
715.75	0.558	correct	repeat	Run1	repeat/STIM_005.jpg
720.297	0.674	incorrect	repeat	Run1	repeat/STIM_005.jpg
724.169	0.938	correct	repeat	Run1	repeat/STIM_006.jpg
728.48	0.904	correct	repeat	Run1	repeat/STIM_006.jpg
731.611	0.778	correct	repeat	Run1	repeat/STIM_006.jpg
735.726	0.604	correct	repeat	Run1	repeat/STIM_006.jpg
739.928	0.699	correct	repeat	Run1	repeat/STIM_006.jpg
743.069	0.72	correct	repeat	Run1	repeat/STIM_007.jpg
747.103	1.087	correct	repeat	Run1	repeat/STIM_007.jpg
750.537	0.99	correct	repeat	Run1	repeat/STIM_007.jpg
754.319	0.677	correct	repeat	Run1	repeat/STIM_007.jpg
758.245	0.754	correct	repeat	Run1	repeat/STIM_007.jpg
762.172	0.876	correct	repeat	Run1	repeat/STIM_008.jpg
765.306	0.787	correct	repeat	Run1	repeat/STIM_008.jpg
768.215	0.743	correct	repeat	Run1	repeat/STIM_008.jpg
772.119	0.614	correct	repeat	Run1	repeat/STIM_008.jpg
775.836	0.801	correct	repeat	Run1	repeat/STIM_008.jpg
779.507	0.743	correct	repeat	Run1	repeat/STIM_009.jpg
782.799	0.586	correct	repeat	Run1	repeat/STIM_009.jpg
786.062	1.034	correct	repeat	Run1	repeat/STIM_009.jpg
790.603	0.69	correct	repeat	Run1	repeat/STIM_009.jpg
794.238	0.855	correct	repeat	Run1	repeat/STIM_009.jpg
797.215	0.682	correct	repeat	Run1	repeat/STIM_010.jpg
799.917	0.771	correct	repeat	Run1	repeat/STIM_010.jpg
802.823	0.598	correct	repeat	Run1	repeat/STIM_010.jpg
806.076	0.869	correct	repeat	Run1	repeat/STIM_010.jpg
810.378	0.611	correct	repeat	Run1	repeat/STIM_010.jpg
814.205	0.933	correct	repeat	Run1	repeat/STIM_011.jpg
817.657	0.91	correct	repeat	Run1	repeat/STIM_011.jpg
821.868	0.542	correct	repeat	Run1	repeat/STIM_011.jpg
826.224	0.491	correct	repeat	Run1	repeat/STIM_011.jpg
829.007	0.751	correct	repeat	Run1	repeat/STIM_011.jpg
833.12	0.928	correct	repeat	Run1	repeat/STIM_012.jpg
836.638	0.54	correct	repeat	Run1	repeat/STIM_012.jpg
839.311	0.517	correct	repeat	Run1	repeat/STIM_012.jpg
842.317	0.621	correct	repeat	Run1	repeat/STIM_012.jpg
845.926	0.812	correct	repeat	Run1	repeat/STIM_012.jpg
848.946	0.916	correct	repeat	Run1	repeat/STIM_013.jpg
853.452	0.693	incorrect	repeat	Run1	repeat/STIM_013.jpg
856.823	0.796	correct	repeat	Run1	repeat/STIM_013.jpg
859.745	0.907	correct	repeat	Run1	repeat/STIM_013.jpg
864.155	0.731	correct	repeat	Run1	repeat/STIM_013.jpg
866.954	0.639	correct	repeat	Run1	repeat/STIM_014.jpg
869.88	0.792	correct	repeat	Run1	repeat/STIM_014.jpg
874.614	0.788	correct	repeat	Run1	repeat/STIM_014.jpg
878.04	0.877	correct	repeat	Run1	repeat/STIM_014.jpg
882.647	0.543	correct	repeat	Run1	repeat/STIM_014.jpg
886.537	1.13	correct	generate	Run2	generate/STIM_000.jpg
891.371	1.082	correct	generate	Run2	generate/STIM_000.jpg
895.35	1.446	correct	generate	Run2	generate/STIM_000.jpg
899.711	2.064	correct	generate	Run2	generate/STIM_000.jpg
904.397	1.976	correct	generate	Run2	generate/STIM_000.jpg
910.219	1.837	correct	generate	Run2	generate/STIM_001.jpg
915.602	2.191	incorrect	generate	Run2	generate/STIM_001.jpg
920.182	1.464	incorrect	generate	Run2	generate/STIM_001.jpg
923.818	1.015	correct	generate	Run2	generate/STIM_001.jpg
927.913	1.355	correct	generate	Run2	generate/STIM_001.jpg
931.821	1.127	correct	generate	Run2	generate/STIM_002.jpg
935.639	1.886	correct	generate	Run2	generate/STIM_002.jpg
940.117	2.338	incorrect	generate	Run2	generate/STIM_002.jpg
944.758	1.365	correct	generate	Run2	generate/STIM_002.jpg
948.602	2.068	correct	generate	Run2	generate/STIM_002.jpg
953.222	1.911	correct	generate	Run2	generate/STIM_003.jpg
958.535	1.278	correct	generate	Run2	generate/STIM_003.jpg
963.448	1.809	correct	generate	Run2	generate/STIM_003.jpg
968.745	1.963	correct	generate	Run2	generate/STIM_003.jpg
973.953	0.986	correct	generate	Run2	generate/STIM_003.jpg
976.886	2.351	correct	generate	Run2	generate/STIM_004.jpg
982.98	2.506	correct	generate	Run2	generate/STIM_004.jpg
987.92	1.904	incorrect	generate	Run2	generate/STIM_004.jpg
993.021	1.93	correct	generate	Run2	generate/STIM_004.jpg
997.335	2.13	correct	generate	Run2	generate/STIM_004.jpg
1003.335	2.349	correct	generate	Run2	generate/STIM_005.jpg
1007.909	2.446	correct	generate	Run2	generate/STIM_005.jpg
1012.68	1.554	correct	generate	Run2	generate/STIM_005.jpg
1017.787	1.463	correct	generate	Run2	generate/STIM_005.jpg
1021.96	1.302	correct	generate	Run2	generate/STIM_005.jpg
1026.085	2.196	correct	generate	Run2	generate/STIM_006.jpg
1031.77	1.468	correct	generate	Run2	generate/STIM_006.jpg
1036.461	1.232	correct	generate	Run2	generate/STIM_006.jpg
1040.025	0.877	correct	generate	Run2	generate/STIM_006.jpg
1043.475	1.664	correct	generate	Run2	generate/STIM_006.jpg
1047.253	1.751	correct	generate	Run2	generate/STIM_007.jpg
1052.678	1.857	correct	generate	Run2	generate/STIM_007.jpg
1057.42	2.202	correct	generate	Run2	generate/STIM_007.jpg
1062.72	1.587	correct	generate	Run2	generate/STIM_007.jpg
1067.766	2.139	correct	generate	Run2	generate/STIM_007.jpg
1072.41	2.35	correct	generate	Run2	generate/STIM_008.jpg
1078.361	1.821	correct	generate	Run2	generate/STIM_008.jpg
1083.691	2.208	correct	generate	Run2	generate/STIM_008.jpg
1087.782	1.758	correct	generate	Run2	generate/STIM_008.jpg
1091.809	1.139	correct	generate	Run2	generate/STIM_008.jpg
1094.991	2.576	correct	generate	Run2	generate/STIM_009.jpg
1100.129	1.82	incorrect	generate	Run2	generate/STIM_009.jpg
1104.955	1.955	incorrect	generate	Run2	generate/STIM_009.jpg
1109.498	2.06	correct	generate	Run2	generate/STIM_009.jpg
1114.718	1.642	correct	generate	Run2	generate/STIM_009.jpg
1119.784	1.701	correct	generate	Run2	generate/STIM_010.jpg
1123.804	1.679	correct	generate	Run2	generate/STIM_010.jpg
1128.933	1.191	correct	generate	Run2	generate/STIM_010.jpg
1132.552	1.998	incorrect	generate	Run2	generate/STIM_010.jpg
1137.944	1.64	correct	generate	Run2	generate/STIM_010.jpg
1143.125	1.884	correct	generate	Run2	generate/STIM_011.jpg
1147.846	2.398	correct	generate	Run2	generate/STIM_011.jpg
1152.799	1.184	correct	generate	Run2	generate/STIM_011.jpg
1157.431	1.068	correct	generate	Run2	generate/STIM_011.jpg
1160.651	2.117	correct	generate	Run2	generate/STIM_011.jpg
1165.526	2.321	correct	generate	Run2	generate/STIM_012.jpg
1171.137	1.77	correct	generate	Run2	generate/STIM_012.jpg
1175.423	2.061	correct	generate	Run2	generate/STIM_012.jpg
1180.065	1.88	correct	generate	Run2	generate/STIM_012.jpg
1185.361	1.59	incorrect	generate	Run2	generate/STIM_012.jpg
1190.031	2.012	correct	generate	Run2	generate/STIM_013.jpg
1195.369	1.328	correct	generate	Run2	generate/STIM_013.jpg
1200.33	1.564	incorrect	generate	Run2	generate/STIM_013.jpg
1203.948	1.397	correct	generate	Run2	generate/STIM_013.jpg
1209.302	1.116	correct	generate	Run2	generate/STIM_013.jpg
1213.15	1.704	correct	generate	Run2	generate/STIM_014.jpg
1218.318	1.898	correct	generate	Run2	generate/STIM_014.jpg
1223.606	1.15	correct	generate	Run2	generate/STIM_014.jpg
1228.357	1.098	correct	generate	Run2	generate/STIM_014.jpg
1233.222	1.061	correct	generate	Run2	generate/STIM_014.jpg
1236.877	2.115	incorrect	generate	Run2	generate/STIM_015.jpg
1242.887	1.382	correct	generate	Run2	generate/STIM_015.jpg
1247.936	1.77	correct	generate	Run2	generate/STIM_015.jpg
1252.672	1.496	correct	generate	Run2	generate/STIM_015.jpg
1256.379	1.142	correct	generate	Run2	generate/STIM_015.jpg
1259.722	1.756	correct	generate	Run2	generate/STIM_016.jpg
1265.09	1.488	incorrect	generate	Run2	generate/STIM_016.jpg
1269.868	2.008	correct	generate	Run2	generate/STIM_016.jpg
1274.932	1.128	correct	generate	Run2	generate/STIM_016.jpg
1279.295	1.599	correct	generate	Run2	generate/STIM_016.jpg
1283.006	1.691	correct	generate	Run2	generate/STIM_017.jpg
1286.852	1.902	correct	generate	Run2	generate/STIM_017.jpg
1290.958	1.811	correct	generate	Run2	generate/STIM_017.jpg
1296.215	1.447	correct	generate	Run2	generate/STIM_017.jpg
1300.041	1.331	correct	generate	Run2	generate/STIM_017.jpg
1303.423	2.406	incorrect	generate	Run2	generate/STIM_018.jpg
1309.548	1.392	correct	generate	Run2	generate/STIM_018.jpg
1314.321	1.693	correct	generate	Run2	generate/STIM_018.jpg
1318.642	1.274	correct	generate	Run2	generate/STIM_018.jpg
1321.94	1.284	correct	generate	Run2	generate/STIM_018.jpg
1326.3	1.501	correct	generate	Run2	generate/STIM_019.jpg
1330.96	1.882	incorrect	generate	Run2	generate/STIM_019.jpg
1336.384	2.125	correct	generate	Run2	generate/STIM_019.jpg
1341.903	1.455	correct	generate	Run2	generate/STIM_019.jpg
1346.354	1.572	incorrect	generate	Run2	generate/STIM_019.jpg
1350.259	2.062	correct	generate	Run2	generate/STIM_020.jpg
1355.502	1.274	incorrect	generate	Run2	generate/STIM_020.jpg
1358.782	1.145	correct	generate	Run2	generate/STIM_020.jpg
1362.912	1.804	correct	generate	Run2	generate/STIM_020.jpg
1368.054	1.78	correct	generate	Run2	generate/STIM_020.jpg
1372.884	1.465	correct	generate	Run2	generate/STIM_021.jpg
1377.292	2.51	correct	generate	Run2	generate/STIM_021.jpg
1383.19	2.159	correct	generate	Run2	generate/STIM_021.jpg
1387.392	1.796	correct	generate	Run2	generate/STIM_021.jpg
1392.897	1.732	correct	generate	Run2	generate/STIM_021.jpg
1397.177	2.334	incorrect	generate	Run2	generate/STIM_022.jpg
1401.535	1.016	correct	generate	Run2	generate/STIM_022.jpg
1404.673	1.615	correct	generate	Run2	generate/STIM_022.jpg
1409.478	1.56	correct	generate	Run2	generate/STIM_022.jpg
1413.978	1.77	correct	generate	Run2	generate/STIM_022.jpg
1418.389	1.243	incorrect	generate	Run2	generate/STIM_023.jpg
1422.319	1.561	incorrect	generate	Run2	generate/STIM_023.jpg
1426.977	1.37	correct	generate	Run2	generate/STIM_023.jpg
1430.78	1.217	correct	generate	Run2	generate/STIM_023.jpg
1435.14	1.2	correct	generate	Run2	generate/STIM_023.jpg
1439.836	2.548	incorrect	generate	Run2	generate/STIM_024.jpg
1445.73	1.761	correct	generate	Run2	generate/STIM_024.jpg
1449.518	1.373	correct	generate	Run2	generate/STIM_024.jpg
1454.77	1.332	correct	generate	Run2	generate/STIM_024.jpg
1458.193	2.161	correct	generate	Run2	generate/STIM_024.jpg
1462.487	0.69	correct	repeat	Run2	repeat/STIM_000.jpg
1466.322	0.962	correct	repeat	Run2	repeat/STIM_000.jpg
1470.385	0.85	correct	repeat	Run2	repeat/STIM_000.jpg
1473.928	0.804	correct	repeat	Run2	repeat/STIM_000.jpg
1477.411	0.974	correct	repeat	Run2	repeat/STIM_000.jpg
1481.374	0.706	correct	repeat	Run2	repeat/STIM_001.jpg
1484.877	0.693	correct	repeat	Run2	repeat/STIM_001.jpg
1487.929	0.946	correct	repeat	Run2	repeat/STIM_001.jpg
1491.123	0.966	correct	repeat	Run2	repeat/STIM_001.jpg
1495.785	0.966	correct	repeat	Run2	repeat/STIM_001.jpg
1500.031	0.974	correct	repeat	Run2	repeat/STIM_002.jpg
1502.96	0.952	correct	repeat	Run2	repeat/STIM_002.jpg
1506.877	0.93	correct	repeat	Run2	repeat/STIM_002.jpg
1510.333	0.722	correct	repeat	Run2	repeat/STIM_002.jpg
1514.258	0.498	correct	repeat	Run2	repeat/STIM_002.jpg
1517.517	0.848	incorrect	repeat	Run2	repeat/STIM_003.jpg
1520.729	0.747	correct	repeat	Run2	repeat/STIM_003.jpg
1523.643	0.469	correct	repeat	Run2	repeat/STIM_003.jpg
1527.461	0.723	correct	repeat	Run2	repeat/STIM_003.jpg
1531.916	0.724	correct	repeat	Run2	repeat/STIM_003.jpg
1534.784	0.649	correct	repeat	Run2	repeat/STIM_004.jpg
1537.438	0.595	correct	repeat	Run2	repeat/STIM_004.jpg
1541.595	0.605	correct	repeat	Run2	repeat/STIM_004.jpg
1545.146	0.745	correct	repeat	Run2	repeat/STIM_004.jpg
1549.866	0.986	correct	repeat	Run2	repeat/STIM_004.jpg
1554.102	0.569	correct	repeat	Run2	repeat/STIM_005.jpg
1558.203	0.568	correct	repeat	Run2	repeat/STIM_005.jpg
1561.684	1.057	correct	repeat	Run2	repeat/STIM_005.jpg
1565.662	0.952	correct	repeat	Run2	repeat/STIM_005.jpg
1568.936	0.547	correct	repeat	Run2	repeat/STIM_005.jpg
1571.622	0.767	incorrect	repeat	Run2	repeat/STIM_006.jpg
1575.257	0.785	correct	repeat	Run2	repeat/STIM_006.jpg
1579.259	0.94	correct	repeat	Run2	repeat/STIM_006.jpg
1582.254	0.765	correct	repeat	Run2	repeat/STIM_006.jpg
1585.635	0.817	correct	repeat	Run2	repeat/STIM_006.jpg
1589.335	0.835	correct	repeat	Run2	repeat/STIM_007.jpg
1592.495	0.602	correct	repeat	Run2	repeat/STIM_007.jpg
1595.809	0.942	correct	repeat	Run2	repeat/STIM_007.jpg
1600.414	0.562	correct	repeat	Run2	repeat/STIM_007.jpg
1603.112	0.929	correct	repeat	Run2	repeat/STIM_007.jpg
1606.134	0.619	correct	repeat	Run2	repeat/STIM_008.jpg
1609.301	0.577	correct	repeat	Run2	repeat/STIM_008.jpg
1612.697	0.882	correct	repeat	Run2	repeat/STIM_008.jpg
1616.922	0.633	correct	repeat	Run2	repeat/STIM_008.jpg
1620.305	0.532	correct	repeat	Run2	repeat/STIM_008.jpg
1623.396	0.948	correct	repeat	Run2	repeat/STIM_009.jpg
1626.463	0.944	correct	repeat	Run2	repeat/STIM_009.jpg
1630.387	0.769	correct	repeat	Run2	repeat/STIM_009.jpg
1635.078	0.696	correct	repeat	Run2	repeat/STIM_009.jpg
1639.211	0.898	correct	repeat	Run2	repeat/STIM_009.jpg
1643.21	0.929	incorrect	repeat	Run2	repeat/STIM_010.jpg
1647.497	0.87	correct	repeat	Run2	repeat/STIM_010.jpg
1651.262	0.743	correct	repeat	Run2	repeat/STIM_010.jpg
1654.632	0.664	correct	repeat	Run2	repeat/STIM_010.jpg
1658.194	0.796	correct	repeat	Run2	repeat/STIM_010.jpg
1661.81	0.751	correct	repeat	Run2	repeat/STIM_011.jpg
1665.402	0.819	correct	repeat	Run2	repeat/STIM_011.jpg
1668.585	0.794	correct	repeat	Run2	repeat/STIM_011.jpg
1672.432	0.524	correct	repeat	Run2	repeat/STIM_011.jpg
1675.081	0.923	correct	repeat	Run2	repeat/STIM_011.jpg
1678.329	0.709	correct	repeat	Run2	repeat/STIM_012.jpg
1681.662	1.145	correct	repeat	Run2	repeat/STIM_012.jpg
1685.478	0.764	correct	repeat	Run2	repeat/STIM_012.jpg
1688.498	0.926	correct	repeat	Run2	repeat/STIM_012.jpg
1691.561	0.959	correct	repeat	Run2	repeat/STIM_012.jpg
1695.178	0.618	correct	repeat	Run2	repeat/STIM_013.jpg
1698.575	0.527	correct	repeat	Run2	repeat/STIM_013.jpg
1701.806	1.044	correct	repeat	Run2	repeat/STIM_013.jpg
1705.783	1.07	correct	repeat	Run2	repeat/STIM_013.jpg
1709.203	0.839	correct	repeat	Run2	repeat/STIM_013.jpg
1712.019	0.973	correct	repeat	Run2	repeat/STIM_014.jpg
1715.513	0.879	correct	repeat	Run2	repeat/STIM_014.jpg
1720.223	1.077	correct	repeat	Run2	repeat/STIM_014.jpg
1725.192	0.608	correct	repeat	Run2	repeat/STIM_014.jpg
1729.587	0.709	correct	repeat	Run2	repeat/STIM_014.jpg
1733.332	1.738	correct	generate	Run3	generate/STIM_000.jpg
1738.222	0.854	correct	generate	Run3	generate/STIM_000.jpg
1741.802	1.715	incorrect	generate	Run3	generate/STIM_000.jpg
1747.273	1.323	correct	generate	Run3	generate/STIM_000.jpg
1751.938	1.32	correct	generate	Run3	generate/STIM_000.jpg
1756.901	1.898	correct	generate	Run3	generate/STIM_001.jpg
1762.509	1.534	correct	generate	Run3	generate/STIM_001.jpg
1767.395	1.586	correct	generate	Run3	generate/STIM_001.jpg
1772.096	1.824	correct	generate	Run3	generate/STIM_001.jpg
1776.459	1.778	correct	generate	Run3	generate/STIM_001.jpg
1780.226	1.803	correct	generate	Run3	generate/STIM_002.jpg
1785.714	1.498	correct	generate	Run3	generate/STIM_002.jpg
1789.202	1.112	correct	generate	Run3	generate/STIM_002.jpg
1792.889	0.972	correct	generate	Run3	generate/STIM_002.jpg
1797.37	1.178	correct	generate	Run3	generate/STIM_002.jpg
1802.379	0.984	correct	generate	Run3	generate/STIM_003.jpg
1805.616	1.007	correct	generate	Run3	generate/STIM_003.jpg
1810.418	1.475	correct	generate	Run3	generate/STIM_003.jpg
1814.253	2.242	correct	generate	Run3	generate/STIM_003.jpg
1820.194	1.327	correct	generate	Run3	generate/STIM_003.jpg
1824.766	1.599	incorrect	generate	Run3	generate/STIM_004.jpg
1829.644	1.991	correct	generate	Run3	generate/STIM_004.jpg
1835.406	1.913	incorrect	generate	Run3	generate/STIM_004.jpg
1840.003	1.839	correct	generate	Run3	generate/STIM_004.jpg
1845.518	2.061	correct	generate	Run3	generate/STIM_004.jpg
1851.339	1.426	correct	generate	Run3	generate/STIM_005.jpg
1855.969	1.361	correct	generate	Run3	generate/STIM_005.jpg
1860.95	1.017	correct	generate	Run3	generate/STIM_005.jpg
1864.029	1.094	incorrect	generate	Run3	generate/STIM_005.jpg
1867.872	0.93	correct	generate	Run3	generate/STIM_005.jpg
1871.711	1.323	correct	generate	Run3	generate/STIM_006.jpg
1875.588	2.012	correct	generate	Run3	generate/STIM_006.jpg
1879.904	1.595	correct	generate	Run3	generate/STIM_006.jpg
1884.748	2.126	correct	generate	Run3	generate/STIM_006.jpg
1888.844	1.777	correct	generate	Run3	generate/STIM_006.jpg
1893.443	1.316	correct	generate	Run3	generate/STIM_007.jpg
1897.788	1.398	correct	generate	Run3	generate/STIM_007.jpg
1902.935	1.48	correct	generate	Run3	generate/STIM_007.jpg
1906.697	1.525	correct	generate	Run3	generate/STIM_007.jpg
1912.051	0.805	correct	generate	Run3	generate/STIM_007.jpg
1915.203	1.032	correct	generate	Run3	generate/STIM_008.jpg
1918.831	1.126	correct	generate	Run3	generate/STIM_008.jpg
1922.784	1.506	correct	generate	Run3	generate/STIM_008.jpg
1926.565	1.347	correct	generate	Run3	generate/STIM_008.jpg
1930.155	0.956	correct	generate	Run3	generate/STIM_008.jpg
1933.153	2.093	incorrect	generate	Run3	generate/STIM_009.jpg
1937.909	1.702	correct	generate	Run3	generate/STIM_009.jpg
1942.358	1.377	correct	generate	Run3	generate/STIM_009.jpg
1946.531	1.654	correct	generate	Run3	generate/STIM_009.jpg
1950.891	1.097	correct	generate	Run3	generate/STIM_009.jpg
1955.129	1.2	correct	generate	Run3	generate/STIM_010.jpg
1958.334	0.851	correct	generate	Run3	generate/STIM_010.jpg
1962.723	0.993	correct	generate	Run3	generate/STIM_010.jpg
1966.744	1.273	correct	generate	Run3	generate/STIM_010.jpg
1970.873	1.563	correct	generate	Run3	generate/STIM_010.jpg
1975.52	1.374	correct	generate	Run3	generate/STIM_011.jpg
1980.629	1.002	incorrect	generate	Run3	generate/STIM_011.jpg
1984.813	1.991	correct	generate	Run3	generate/STIM_011.jpg
1990.764	1.525	correct	generate	Run3	generate/STIM_011.jpg
1995.49	0.927	correct	generate	Run3	generate/STIM_011.jpg
1999.777	1.614	correct	generate	Run3	generate/STIM_012.jpg
2003.921	1.952	incorrect	generate	Run3	generate/STIM_012.jpg
2009.708	1.197	correct	generate	Run3	generate/STIM_012.jpg
2013.342	1.163	correct	generate	Run3	generate/STIM_012.jpg
2016.81	1.856	incorrect	generate	Run3	generate/STIM_012.jpg
2020.698	1.181	correct	generate	Run3	generate/STIM_013.jpg
2025.4	1.52	incorrect	generate	Run3	generate/STIM_013.jpg
2029.387	1.939	correct	generate	Run3	generate/STIM_013.jpg
2033.527	0.908	correct	generate	Run3	generate/STIM_013.jpg
2037.199	1.54	correct	generate	Run3	generate/STIM_013.jpg
2041.03	2.011	correct	generate	Run3	generate/STIM_014.jpg
2045.919	1.586	correct	generate	Run3	generate/STIM_014.jpg
2049.5	1.837	correct	generate	Run3	generate/STIM_014.jpg
2054.546	1.088	correct	generate	Run3	generate/STIM_014.jpg
2057.605	1.361	correct	generate	Run3	generate/STIM_014.jpg
2062.319	1.862	correct	generate	Run3	generate/STIM_015.jpg
2067.403	1.198	correct	generate	Run3	generate/STIM_015.jpg
2071.145	1.26	correct	generate	Run3	generate/STIM_015.jpg
2075.42	1.976	correct	generate	Run3	generate/STIM_015.jpg
2079.787	2.117	correct	generate	Run3	generate/STIM_015.jpg
2085.703	2.199	correct	generate	Run3	generate/STIM_016.jpg
2090.126	1.376	correct	generate	Run3	generate/STIM_016.jpg
2094.274	1.298	correct	generate	Run3	generate/STIM_016.jpg
2099.376	1.297	correct	generate	Run3	generate/STIM_016.jpg
2102.995	1.012	correct	generate	Run3	generate/STIM_016.jpg
2106.189	1.206	incorrect	generate	Run3	generate/STIM_017.jpg
2109.826	1.767	correct	generate	Run3	generate/STIM_017.jpg
2114.246	2.024	correct	generate	Run3	generate/STIM_017.jpg
2119.036	1.922	correct	generate	Run3	generate/STIM_017.jpg
2123.585	1.292	correct	generate	Run3	generate/STIM_017.jpg
2128.18	1.754	correct	generate	Run3	generate/STIM_018.jpg
2133.676	1.74	correct	generate	Run3	generate/STIM_018.jpg
2137.859	1.724	correct	generate	Run3	generate/STIM_018.jpg
2141.914	1.247	correct	generate	Run3	generate/STIM_018.jpg
2145.616	1.77	correct	generate	Run3	generate/STIM_018.jpg
2149.781	2.202	correct	generate	Run3	generate/STIM_019.jpg
2155.668	2.071	incorrect	generate	Run3	generate/STIM_019.jpg
2160.538	1.869	correct	generate	Run3	generate/STIM_019.jpg
2164.529	1.271	correct	generate	Run3	generate/STIM_019.jpg
2168.817	1.829	correct	generate	Run3	generate/STIM_019.jpg
2172.994	1.541	correct	generate	Run3	generate/STIM_020.jpg
2176.704	2.028	correct	generate	Run3	generate/STIM_020.jpg
2182.132	1.685	correct	generate	Run3	generate/STIM_020.jpg
2186.669	0.98	incorrect	generate	Run3	generate/STIM_020.jpg
2191.128	1.408	correct	generate	Run3	generate/STIM_020.jpg
2194.878	1.472	correct	generate	Run3	generate/STIM_021.jpg
2199.712	1.962	correct	generate	Run3	generate/STIM_021.jpg
2204.349	0.836	correct	generate	Run3	generate/STIM_021.jpg
2209.054	1.468	correct	generate	Run3	generate/STIM_021.jpg
2213.962	1.078	correct	generate	Run3	generate/STIM_021.jpg
2217.622	1.375	incorrect	generate	Run3	generate/STIM_022.jpg
2221.205	1.034	correct	generate	Run3	generate/STIM_022.jpg
2224.284	1.124	correct	generate	Run3	generate/STIM_022.jpg
2228.981	1.566	incorrect	generate	Run3	generate/STIM_022.jpg
2232.572	1.764	correct	generate	Run3	generate/STIM_022.jpg
2236.566	1.067	correct	generate	Run3	generate/STIM_023.jpg
2239.708	1.614	correct	generate	Run3	generate/STIM_023.jpg
2244.504	1.882	correct	generate	Run3	generate/STIM_023.jpg
2248.361	1.303	correct	generate	Run3	generate/STIM_023.jpg
2251.694	0.973	correct	generate	Run3	generate/STIM_023.jpg
2255.771	1.592	correct	generate	Run3	generate/STIM_024.jpg
2261.21	1.627	correct	generate	Run3	generate/STIM_024.jpg
2266.452	0.927	correct	generate	Run3	generate/STIM_024.jpg
2269.751	1.447	correct	generate	Run3	generate/STIM_024.jpg
2274.129	1.582	correct	generate	Run3	generate/STIM_024.jpg
2278.745	0.59	correct	repeat	Run3	repeat/STIM_000.jpg
2282.71	0.792	correct	repeat	Run3	repeat/STIM_000.jpg
2286.019	0.531	correct	repeat	Run3	repeat/STIM_000.jpg
2290.162	0.749	correct	repeat	Run3	repeat/STIM_000.jpg
2294.352	0.63	correct	repeat	Run3	repeat/STIM_000.jpg
2297.408	0.564	correct	repeat	Run3	repeat/STIM_001.jpg
2300.608	0.786	correct	repeat	Run3	repeat/STIM_001.jpg
2304.519	0.634	correct	repeat	Run3	repeat/STIM_001.jpg
2308.114	0.812	correct	repeat	Run3	repeat/STIM_001.jpg
2311.128	0.898	correct	repeat	Run3	repeat/STIM_001.jpg
2315.635	0.883	correct	repeat	Run3	repeat/STIM_002.jpg
2320.294	0.784	correct	repeat	Run3	repeat/STIM_002.jpg
2324.531	0.897	correct	repeat	Run3	repeat/STIM_002.jpg
2328.932	0.855	correct	repeat	Run3	repeat/STIM_002.jpg
2333.34	0.688	correct	repeat	Run3	repeat/STIM_002.jpg
2337.208	0.692	correct	repeat	Run3	repeat/STIM_003.jpg
2341.343	0.887	correct	repeat	Run3	repeat/STIM_003.jpg
2345.951	0.624	correct	repeat	Run3	repeat/STIM_003.jpg
2349.238	0.561	correct	repeat	Run3	repeat/STIM_003.jpg
2352.118	0.542	correct	repeat	Run3	repeat/STIM_003.jpg
2356.677	0.768	correct	repeat	Run3	repeat/STIM_004.jpg
2360.821	0.613	correct	repeat	Run3	repeat/STIM_004.jpg
2365.308	0.827	correct	repeat	Run3	repeat/STIM_004.jpg
2369.289	0.558	correct	repeat	Run3	repeat/STIM_004.jpg
2373.163	0.704	correct	repeat	Run3	repeat/STIM_004.jpg
2376.389	0.655	correct	repeat	Run3	repeat/STIM_005.jpg
2379.623	0.649	correct	repeat	Run3	repeat/STIM_005.jpg
2384.091	0.84	correct	repeat	Run3	repeat/STIM_005.jpg
2386.952	0.942	correct	repeat	Run3	repeat/STIM_005.jpg
2390.195	0.872	correct	repeat	Run3	repeat/STIM_005.jpg
2394.426	0.82	correct	repeat	Run3	repeat/STIM_006.jpg
2398.03	0.877	correct	repeat	Run3	repeat/STIM_006.jpg
2400.923	0.617	correct	repeat	Run3	repeat/STIM_006.jpg
2404.014	0.593	incorrect	repeat	Run3	repeat/STIM_006.jpg
2407.143	0.681	correct	repeat	Run3	repeat/STIM_006.jpg
2410.756	1.09	correct	repeat	Run3	repeat/STIM_007.jpg
2414.044	0.91	correct	repeat	Run3	repeat/STIM_007.jpg
2417.562	0.616	correct	repeat	Run3	repeat/STIM_007.jpg
2421.918	0.778	incorrect	repeat	Run3	repeat/STIM_007.jpg
2425.191	0.85	correct	repeat	Run3	repeat/STIM_007.jpg
2428.509	1.031	correct	repeat	Run3	repeat/STIM_008.jpg
2432.859	0.802	correct	repeat	Run3	repeat/STIM_008.jpg
2436.812	0.679	correct	repeat	Run3	repeat/STIM_008.jpg
2440.803	0.947	correct	repeat	Run3	repeat/STIM_008.jpg
2445.569	0.873	correct	repeat	Run3	repeat/STIM_008.jpg
2450.157	0.468	correct	repeat	Run3	repeat/STIM_009.jpg
2452.887	0.698	correct	repeat	Run3	repeat/STIM_009.jpg
2456.111	0.614	correct	repeat	Run3	repeat/STIM_009.jpg
2459.593	0.929	correct	repeat	Run3	repeat/STIM_009.jpg
2463.61	0.922	correct	repeat	Run3	repeat/STIM_009.jpg
2466.621	0.89	correct	repeat	Run3	repeat/STIM_010.jpg
2471.436	0.792	correct	repeat	Run3	repeat/STIM_010.jpg
2474.943	0.53	correct	repeat	Run3	repeat/STIM_010.jpg
2478.938	0.951	correct	repeat	Run3	repeat/STIM_010.jpg
2482.672	0.986	correct	repeat	Run3	repeat/STIM_010.jpg
2486.035	0.725	correct	repeat	Run3	repeat/STIM_011.jpg
2490.345	0.82	correct	repeat	Run3	repeat/STIM_011.jpg
2493.378	0.737	correct	repeat	Run3	repeat/STIM_011.jpg
2497.536	0.455	correct	repeat	Run3	repeat/STIM_011.jpg
2500.428	0.827	correct	repeat	Run3	repeat/STIM_011.jpg
2504.258	0.65	correct	repeat	Run3	repeat/STIM_012.jpg
2507.708	0.859	correct	repeat	Run3	repeat/STIM_012.jpg
2510.619	0.588	incorrect	repeat	Run3	repeat/STIM_012.jpg
2513.834	0.811	correct	repeat	Run3	repeat/STIM_012.jpg
2517.653	0.528	correct	repeat	Run3	repeat/STIM_012.jpg
2520.308	0.719	correct	repeat	Run3	repeat/STIM_013.jpg
2523.241	0.837	correct	repeat	Run3	repeat/STIM_013.jpg
2527.029	0.821	correct	repeat	Run3	repeat/STIM_013.jpg
2530.37	0.985	correct	repeat	Run3	repeat/STIM_013.jpg
2533.498	0.693	correct	repeat	Run3	repeat/STIM_013.jpg
2537.234	0.538	correct	repeat	Run3	repeat/STIM_014.jpg
2541.493	0.657	correct	repeat	Run3	repeat/STIM_014.jpg
2545.217	0.686	correct	repeat	Run3	repeat/STIM_014.jpg
2549.67	0.635	correct	repeat	Run3	repeat/STIM_014.jpg
2553.851	0.996	correct	repeat	Run3	repeat/STIM_014.jpg
2557.588	1.732	correct	generate	Run4	generate/STIM_000.jpg
2562.914	1.413	correct	generate	Run4	generate/STIM_000.jpg
2566.758	0.845	correct	generate	Run4	generate/STIM_000.jpg
2571.054	1.875	incorrect	generate	Run4	generate/STIM_000.jpg
2576.891	1.165	correct	generate	Run4	generate/STIM_000.jpg
2581.283	1.395	correct	generate	Run4	generate/STIM_001.jpg
2586.478	1.395	correct	generate	Run4	generate/STIM_001.jpg
2591.744	1.216	correct	generate	Run4	generate/STIM_001.jpg
2596.658	1.673	incorrect	generate	Run4	generate/STIM_001.jpg
2601.972	1.515	correct	generate	Run4	generate/STIM_001.jpg
2606.849	1.134	correct	generate	Run4	generate/STIM_002.jpg
2610.909	1.9	correct	generate	Run4	generate/STIM_002.jpg
2614.907	1.218	correct	generate	Run4	generate/STIM_002.jpg
2619.585	1.638	correct	generate	Run4	generate/STIM_002.jpg
2625.161	1.692	correct	generate	Run4	generate/STIM_002.jpg
2628.797	2.04	correct	generate	Run4	generate/STIM_003.jpg
2634.571	1.152	correct	generate	Run4	generate/STIM_003.jpg
2639.175	1.036	correct	generate	Run4	generate/STIM_003.jpg
2642.811	1.591	correct	generate	Run4	generate/STIM_003.jpg
2647.079	1.736	correct	generate	Run4	generate/STIM_003.jpg
2650.884	0.861	correct	generate	Run4	generate/STIM_004.jpg
2655.295	0.974	correct	generate	Run4	generate/STIM_004.jpg
2659.537	1.052	correct	generate	Run4	generate/STIM_004.jpg
2664.142	0.967	correct	generate	Run4	generate/STIM_004.jpg
2668.791	1.401	correct	generate	Run4	generate/STIM_004.jpg
2672.891	1.66	correct	generate	Run4	generate/STIM_005.jpg
2678.428	1.941	correct	generate	Run4	generate/STIM_005.jpg
2683.484	1.971	correct	generate	Run4	generate/STIM_005.jpg
2687.989	1.691	correct	generate	Run4	generate/STIM_005.jpg
2692.729	1.282	correct	generate	Run4	generate/STIM_005.jpg
2696.442	1.702	correct	generate	Run4	generate/STIM_006.jpg
2701.898	1.354	correct	generate	Run4	generate/STIM_006.jpg
2705.52	1.113	correct	generate	Run4	generate/STIM_006.jpg
2709.645	1.293	correct	generate	Run4	generate/STIM_006.jpg
2713.945	2.157	correct	generate	Run4	generate/STIM_006.jpg
2719.274	1.282	correct	generate	Run4	generate/STIM_007.jpg
2723.961	1.305	correct	generate	Run4	generate/STIM_007.jpg
2728.796	1.137	correct	generate	Run4	generate/STIM_007.jpg
2733.844	1.917	correct	generate	Run4	generate/STIM_007.jpg
2739.456	1.794	correct	generate	Run4	generate/STIM_007.jpg
2745.073	2.026	correct	generate	Run4	generate/STIM_008.jpg
2750.262	1.765	correct	generate	Run4	generate/STIM_008.jpg
2755.87	1.471	incorrect	generate	Run4	generate/STIM_008.jpg
2760.544	2.111	correct	generate	Run4	generate/STIM_008.jpg
2766.293	2.035	correct	generate	Run4	generate/STIM_008.jpg
2770.702	1.755	correct	generate	Run4	generate/STIM_009.jpg
2776.156	1.6	correct	generate	Run4	generate/STIM_009.jpg
2781.587	1.082	correct	generate	Run4	generate/STIM_009.jpg
2785.033	1.446	correct	generate	Run4	generate/STIM_009.jpg
2789.325	2.018	correct	generate	Run4	generate/STIM_009.jpg
2795.089	1.791	correct	generate	Run4	generate/STIM_010.jpg
2800.589	2.094	correct	generate	Run4	generate/STIM_010.jpg
2804.728	1.422	correct	generate	Run4	generate/STIM_010.jpg
2810.053	1.791	correct	generate	Run4	generate/STIM_010.jpg
2814.657	0.9	correct	generate	Run4	generate/STIM_010.jpg
2818.202	1.251	correct	generate	Run4	generate/STIM_011.jpg
2821.748	1.8	correct	generate	Run4	generate/STIM_011.jpg
2826.087	1.756	correct	generate	Run4	generate/STIM_011.jpg
2831.749	1.095	incorrect	generate	Run4	generate/STIM_011.jpg
2836.107	1.772	correct	generate	Run4	generate/STIM_011.jpg
2840.935	1.568	correct	generate	Run4	generate/STIM_012.jpg
2845.212	2.094	correct	generate	Run4	generate/STIM_012.jpg
2850.108	2.096	correct	generate	Run4	generate/STIM_012.jpg
2855.786	1.647	correct	generate	Run4	generate/STIM_012.jpg
2861.251	1.621	correct	generate	Run4	generate/STIM_012.jpg
2866.275	2.022	correct	generate	Run4	generate/STIM_013.jpg
2871.141	1.064	correct	generate	Run4	generate/STIM_013.jpg
2876.234	0.98	correct	generate	Run4	generate/STIM_013.jpg
2880.026	1.323	correct	generate	Run4	generate/STIM_013.jpg
2883.587	0.988	correct	generate	Run4	generate/STIM_013.jpg
2888.41	0.997	correct	generate	Run4	generate/STIM_014.jpg
2892.641	1.397	correct	generate	Run4	generate/STIM_014.jpg
2896.609	1.595	correct	generate	Run4	generate/STIM_014.jpg
2900.473	0.866	correct	generate	Run4	generate/STIM_014.jpg
2905.113	1.813	correct	generate	Run4	generate/STIM_014.jpg
2910.627	1.362	correct	generate	Run4	generate/STIM_015.jpg
2914.724	1.319	correct	generate	Run4	generate/STIM_015.jpg
2919.564	1.077	correct	generate	Run4	generate/STIM_015.jpg
2922.863	1.245	correct	generate	Run4	generate/STIM_015.jpg
2927.577	1.053	correct	generate	Run4	generate/STIM_015.jpg
2932.034	1.543	correct	generate	Run4	generate/STIM_016.jpg
2937.148	2.072	correct	generate	Run4	generate/STIM_016.jpg
2943.058	2.156	incorrect	generate	Run4	generate/STIM_016.jpg
2947.596	1.45	correct	generate	Run4	generate/STIM_016.jpg
2952.119	1.873	correct	generate	Run4	generate/STIM_016.jpg
2956.77	1.85	correct	generate	Run4	generate/STIM_017.jpg
2960.821	2.091	correct	generate	Run4	generate/STIM_017.jpg
2966.573	1.556	correct	generate	Run4	generate/STIM_017.jpg
2971.211	2.181	correct	generate	Run4	generate/STIM_017.jpg
2975.415	1.606	correct	generate	Run4	generate/STIM_017.jpg
2980.112	1.445	correct	generate	Run4	generate/STIM_018.jpg
2984.058	1.124	correct	generate	Run4	generate/STIM_018.jpg
2988.988	1.16	incorrect	generate	Run4	generate/STIM_018.jpg
2992.121	1.841	correct	generate	Run4	generate/STIM_018.jpg
2996.611	1.564	correct	generate	Run4	generate/STIM_018.jpg
3001.403	1.418	correct	generate	Run4	generate/STIM_019.jpg
3006.749	1.249	correct	generate	Run4	generate/STIM_019.jpg
3011.124	0.958	correct	generate	Run4	generate/STIM_019.jpg
3015.76	1.413	correct	generate	Run4	generate/STIM_019.jpg
3020.383	1.455	correct	generate	Run4	generate/STIM_019.jpg
3024.47	1.824	correct	generate	Run4	generate/STIM_020.jpg
3030.007	2.204	correct	generate	Run4	generate/STIM_020.jpg
3034.594	0.912	correct	generate	Run4	generate/STIM_020.jpg
3038.799	1.643	correct	generate	Run4	generate/STIM_020.jpg
3042.693	1.15	correct	generate	Run4	generate/STIM_020.jpg
3046.043	1.728	correct	generate	Run4	generate/STIM_021.jpg
3050.518	0.849	correct	generate	Run4	generate/STIM_021.jpg
3053.701	0.98	correct	generate	Run4	generate/STIM_021.jpg
3058.298	1.495	correct	generate	Run4	generate/STIM_021.jpg
3063.067	2.128	correct	generate	Run4	generate/STIM_021.jpg
3067.24	1.164	correct	generate	Run4	generate/STIM_022.jpg
3071.491	1.058	correct	generate	Run4	generate/STIM_022.jpg
3075.509	2.165	correct	generate	Run4	generate/STIM_022.jpg
3079.979	1.795	correct	generate	Run4	generate/STIM_022.jpg
3085.177	2.176	correct	generate	Run4	generate/STIM_022.jpg
3090.8	1.844	incorrect	generate	Run4	generate/STIM_023.jpg
3095.196	1.841	correct	generate	Run4	generate/STIM_023.jpg
3100.558	1.037	correct	generate	Run4	generate/STIM_023.jpg
3105.491	1.882	correct	generate	Run4	generate/STIM_023.jpg
3110.534	1.071	correct	generate	Run4	generate/STIM_023.jpg
3114.427	1.116	correct	generate	Run4	generate/STIM_024.jpg
3119.474	1.073	correct	generate	Run4	generate/STIM_024.jpg
3123.199	1.28	correct	generate	Run4	generate/STIM_024.jpg
3127.9	1.568	correct	generate	Run4	generate/STIM_024.jpg
3131.479	1.909	correct	generate	Run4	generate/STIM_024.jpg
3135.858	0.655	correct	repeat	Run4	repeat/STIM_000.jpg
3139.76	0.581	correct	repeat	Run4	repeat/STIM_000.jpg
3143.861	0.979	correct	repeat	Run4	repeat/STIM_000.jpg
3148.306	0.657	correct	repeat	Run4	repeat/STIM_000.jpg
3152.302	0.681	correct	repeat	Run4	repeat/STIM_000.jpg
3155.43	0.652	correct	repeat	Run4	repeat/STIM_001.jpg
3159.862	1.084	correct	repeat	Run4	repeat/STIM_001.jpg
3162.861	0.98	correct	repeat	Run4	repeat/STIM_001.jpg
3166.692	0.768	correct	repeat	Run4	repeat/STIM_001.jpg
3171.089	0.927	correct	repeat	Run4	repeat/STIM_001.jpg
3175.225	0.948	correct	repeat	Run4	repeat/STIM_002.jpg
3179.345	0.983	correct	repeat	Run4	repeat/STIM_002.jpg
3182.411	0.717	correct	repeat	Run4	repeat/STIM_002.jpg
3185.369	0.849	correct	repeat	Run4	repeat/STIM_002.jpg
3189.898	0.711	correct	repeat	Run4	repeat/STIM_002.jpg
3193.198	0.622	correct	repeat	Run4	repeat/STIM_003.jpg
3197.674	0.732	correct	repeat	Run4	repeat/STIM_003.jpg
3201.16	0.412	correct	repeat	Run4	repeat/STIM_003.jpg
3203.713	0.842	correct	repeat	Run4	repeat/STIM_003.jpg
3206.688	0.88	correct	repeat	Run4	repeat/STIM_003.jpg
3211.162	0.806	correct	repeat	Run4	repeat/STIM_004.jpg
3215.497	0.75	correct	repeat	Run4	repeat/STIM_004.jpg
3218.789	0.658	correct	repeat	Run4	repeat/STIM_004.jpg
3221.572	1.006	correct	repeat	Run4	repeat/STIM_004.jpg
3225.32	0.674	correct	repeat	Run4	repeat/STIM_004.jpg
3229.312	0.643	correct	repeat	Run4	repeat/STIM_005.jpg
3233.577	0.702	correct	repeat	Run4	repeat/STIM_005.jpg
3236.268	0.974	correct	repeat	Run4	repeat/STIM_005.jpg
3239.505	1.082	correct	repeat	Run4	repeat/STIM_005.jpg
3244.196	0.842	correct	repeat	Run4	repeat/STIM_005.jpg
3247.991	0.517	correct	repeat	Run4	repeat/STIM_006.jpg
3251.195	1.009	correct	repeat	Run4	repeat/STIM_006.jpg
3254.998	0.737	correct	repeat	Run4	repeat/STIM_006.jpg
3257.99	0.652	correct	repeat	Run4	repeat/STIM_006.jpg
3262.473	0.705	correct	repeat	Run4	repeat/STIM_006.jpg
3266.735	0.574	correct	repeat	Run4	repeat/STIM_007.jpg
3269.861	0.855	correct	repeat	Run4	repeat/STIM_007.jpg
3273.309	0.75	correct	repeat	Run4	repeat/STIM_007.jpg
3276.872	0.86	incorrect	repeat	Run4	repeat/STIM_007.jpg
3280.323	0.686	correct	repeat	Run4	repeat/STIM_007.jpg
3283.387	0.632	correct	repeat	Run4	repeat/STIM_008.jpg
3287.871	0.931	correct	repeat	Run4	repeat/STIM_008.jpg
3291.098	0.901	correct	repeat	Run4	repeat/STIM_008.jpg
3295.667	1.066	correct	repeat	Run4	repeat/STIM_008.jpg
3298.678	0.58	incorrect	repeat	Run4	repeat/STIM_008.jpg
3302.977	0.854	correct	repeat	Run4	repeat/STIM_009.jpg
3305.917	0.813	correct	repeat	Run4	repeat/STIM_009.jpg
3309.218	0.593	correct	repeat	Run4	repeat/STIM_009.jpg
3312.537	0.771	correct	repeat	Run4	repeat/STIM_009.jpg
3315.609	1.115	incorrect	repeat	Run4	repeat/STIM_009.jpg
3320.5	0.472	correct	repeat	Run4	repeat/STIM_010.jpg
3324.16	0.869	correct	repeat	Run4	repeat/STIM_010.jpg
3327.942	0.587	correct	repeat	Run4	repeat/STIM_010.jpg
3332.435	0.948	correct	repeat	Run4	repeat/STIM_010.jpg
3337.21	0.842	correct	repeat	Run4	repeat/STIM_010.jpg
3342.013	0.793	correct	repeat	Run4	repeat/STIM_011.jpg
3345.746	0.811	correct	repeat	Run4	repeat/STIM_011.jpg
3349.537	0.859	correct	repeat	Run4	repeat/STIM_011.jpg
3352.439	0.724	correct	repeat	Run4	repeat/STIM_011.jpg
3356.124	0.505	correct	repeat	Run4	repeat/STIM_011.jpg
3359.265	0.938	correct	repeat	Run4	repeat/STIM_012.jpg
3363.825	0.604	correct	repeat	Run4	repeat/STIM_012.jpg
3366.935	0.506	correct	repeat	Run4	repeat/STIM_012.jpg
3370.817	0.887	correct	repeat	Run4	repeat/STIM_012.jpg
3373.92	1.054	correct	repeat	Run4	repeat/STIM_012.jpg
3377.119	0.813	correct	repeat	Run4	repeat/STIM_013.jpg
3380.601	0.586	correct	repeat	Run4	repeat/STIM_013.jpg
3383.66	0.818	correct	repeat	Run4	repeat/STIM_013.jpg
3387.448	0.796	correct	repeat	Run4	repeat/STIM_013.jpg
3390.848	0.618	correct	repeat	Run4	repeat/STIM_013.jpg
3393.593	0.843	correct	repeat	Run4	repeat/STIM_014.jpg
3398.143	0.566	correct	repeat	Run4	repeat/STIM_014.jpg
3402.153	1.09	correct	repeat	Run4	repeat/STIM_014.jpg
3406.149	0.935	correct	repeat	Run4	repeat/STIM_014.jpg
3410.711	0.944	correct	repeat	Run4	repeat/STIM_014.jpg
