onset	duration	accuracy_binary	trial_type	learning_stage	stimulus
0.0	0.558	1	2back	Block1	2back/STIM_000.jpg
3.704	0.555	1	2back	Block1	2back/STIM_000.jpg
7.345	0.327	1	2back	Block1	2back/STIM_000.jpg
9.928	0.437	1	2back	Block1	2back/STIM_001.jpg
12.439	0.447	1	2back	Block1	2back/STIM_001.jpg
15.954	0.673	1	2back	Block1	2back/STIM_001.jpg
20.28	0.736	1	2back	Block1	2back/STIM_002.jpg
23.582	0.601	1	2back	Block1	2back/STIM_002.jpg
27.66	0.506	1	2back	Block1	2back/STIM_002.jpg
30.207	0.738	1	2back	Block1	2back/STIM_003.jpg
34.577	0.472	1	2back	Block1	2back/STIM_003.jpg
38.429	0.758	1	2back	Block1	2back/STIM_003.jpg
41.583	0.728	1	2back	Block1	2back/STIM_004.jpg
44.79	0.693	1	2back	Block1	2back/STIM_004.jpg
48.964	0.745	1	2back	Block1	2back/STIM_004.jpg
53.312	0.715	1	2back	Block1	2back/STIM_005.jpg
57.958	0.787	1	2back	Block1	2back/STIM_005.jpg
61.495	0.506	1	2back	Block1	2back/STIM_005.jpg
64.694	0.505	1	2back	Block1	2back/STIM_006.jpg
68.292	0.524	1	2back	Block1	2back/STIM_006.jpg
72.011	0.533	1	2back	Block1	2back/STIM_006.jpg
76.13	0.536	1	2back	Block1	2back/STIM_007.jpg
80.546	0.348	1	2back	Block1	2back/STIM_007.jpg
83.797	0.387	1	2back	Block1	2back/STIM_007.jpg
86.188	0.402	1	2back	Block1	2back/STIM_008.jpg
90.374	0.574	1	2back	Block1	2back/STIM_008.jpg
93.6	0.395	1	2back	Block1	2back/STIM_008.jpg
97.597	0.54	1	2back	Block1	2back/STIM_009.jpg
102.07	0.413	1	2back	Block1	2back/STIM_009.jpg
105.147	0.458	1	2back	Block1	2back/STIM_009.jpg
109.047	0.71	1	2back	Block1	2back/STIM_010.jpg
113.06	0.462	1	2back	Block1	2back/STIM_010.jpg
116.664	0.741	1	2back	Block1	2back/STIM_010.jpg
120.077	0.633	1	2back	Block1	2back/STIM_011.jpg
122.791	0.633	1	2back	Block1	2back/STIM_011.jpg
125.745	0.436	1	2back	Block1	2back/STIM_011.jpg
128.209	0.529	0	2back	Block1	2back/STIM_012.jpg
132.485	0.39	1	2back	Block1	2back/STIM_012.jpg
136.006	0.627	1	2back	Block1	2back/STIM_012.jpg
139.46	0.848	1	2back	Block1	2back/STIM_013.jpg
143.277	0.422	1	2back	Block1	2back/STIM_013.jpg
145.724	0.693	1	2back	Block1	2back/STIM_013.jpg
150.148	0.589	1	2back	Block1	2back/STIM_014.jpg
153.519	0.473	1	2back	Block1	2back/STIM_014.jpg
156.486	0.462	1	2back	Block1	2back/STIM_014.jpg
160.798	0.489	1	2back	Block1	2back/STIM_015.jpg
164.613	0.38	1	2back	Block1	2back/STIM_015.jpg
167.214	0.368	1	2back	Block1	2back/STIM_015.jpg
170.085	0.566	1	2back	Block1	2back/STIM_016.jpg
173.88	0.398	1	2back	Block1	2back/STIM_016.jpg
176.475	0.386	1	2back	Block1	2back/STIM_016.jpg
180.1	0.376	1	2back	Block1	2back/STIM_017.jpg
183.958	0.496	1	2back	Block1	2back/STIM_017.jpg
188.157	0.559	1	2back	Block1	2back/STIM_017.jpg
191.028	0.579	0	2back	Block1	2back/STIM_018.jpg
194.095	0.388	1	2back	Block1	2back/STIM_018.jpg
196.6	0.499	1	2back	Block1	2back/STIM_018.jpg
199.197	0.707	1	2back	Block1	2back/STIM_019.jpg
203.191	0.713	1	2back	Block1	2back/STIM_019.jpg
206.791	0.403	1	2back	Block1	2back/STIM_019.jpg
210.558	0.717	1	2back	Block1	2back/STIM_020.jpg
214.541	0.462	1	2back	Block1	2back/STIM_020.jpg
218.308	0.342	1	2back	Block1	2back/STIM_020.jpg
221.723	0.491	1	2back	Block1	2back/STIM_021.jpg
225.066	0.357	1	2back	Block1	2back/STIM_021.jpg
227.679	0.396	1	2back	Block1	2back/STIM_021.jpg
231.248	0.482	0	2back	Block1	2back/STIM_022.jpg
233.976	0.472	1	2back	Block1	2back/STIM_022.jpg
238.23	0.502	0	2back	Block1	2back/STIM_022.jpg
241.641	0.472	1	2back	Block1	2back/STIM_023.jpg
245.06	0.603	1	2back	Block1	2back/STIM_023.jpg
247.938	0.606	1	2back	Block1	2back/STIM_023.jpg
251.845	0.652	1	2back	Block1	2back/STIM_024.jpg
256.087	0.523	1	2back	Block1	2back/STIM_024.jpg
258.921	0.711	1	2back	Block1	2back/STIM_024.jpg
262.319	0.754	1	2back	Block1	2back/STIM_025.jpg
266.502	0.442	1	2back	Block1	2back/STIM_025.jpg
270.29	0.708	1	2back	Block1	2back/STIM_025.jpg
274.151	0.603	1	2back	Block1	2back/STIM_026.jpg
277.146	0.712	1	2back	Block1	2back/STIM_026.jpg
280.732	0.563	1	2back	Block1	2back/STIM_026.jpg
283.845	0.755	1	2back	Block1	2back/STIM_027.jpg
288.283	0.475	1	2back	Block1	2back/STIM_027.jpg
292.303	0.628	1	2back	Block1	2back/STIM_027.jpg
295.373	0.506	1	2back	Block1	2back/STIM_028.jpg
298.445	0.79	1	2back	Block1	2back/STIM_028.jpg
302.981	0.678	1	2back	Block1	2back/STIM_028.jpg
305.741	0.775	1	2back	Block1	2back/STIM_029.jpg
308.856	0.444	1	2back	Block1	2back/STIM_029.jpg
312.548	0.596	1	2back	Block1	2back/STIM_029.jpg
316.914	0.407	0	2back	Block1	2back/STIM_030.jpg
320.1	0.573	0	2back	Block1	2back/STIM_030.jpg
323.025	0.754	1	2back	Block1	2back/STIM_030.jpg
327.027	0.662	0	2back	Block1	2back/STIM_031.jpg
331.478	0.675	1	2back	Block1	2back/STIM_031.jpg
335.654	0.392	1	2back	Block1	2back/STIM_031.jpg
339.27	0.818	1	2back	Block1	2back/STIM_032.jpg
342.198	0.595	1	2back	Block1	2back/STIM_032.jpg
346.333	0.347	1	2back	Block1	2back/STIM_032.jpg
350.652	0.732	1	2back	Block1	2back/STIM_033.jpg
354.871	0.776	1	2back	Block1	2back/STIM_033.jpg
359.496	0.693	1	2back	Block1	2back/STIM_033.jpg
363.836	0.427	1	2back	Block1	2back/STIM_034.jpg
367.337	0.365	1	2back	Block1	2back/STIM_034.jpg
370.499	0.667	1	2back	Block1	2back/STIM_034.jpg
373.423	0.384	1	2back	Block1	2back/STIM_035.jpg
377.621	0.601	1	2back	Block1	2back/STIM_035.jpg
381.647	0.521	1	2back	Block1	2back/STIM_035.jpg
386.096	0.793	1	2back	Block1	2back/STIM_036.jpg
389.462	0.694	1	2back	Block1	2back/STIM_036.jpg
393.55	0.376	1	2back	Block1	2back/STIM_036.jpg
396.548	0.847	1	2back	Block1	2back/STIM_037.jpg
399.424	0.544	1	2back	Block1	2back/STIM_037.jpg
403.767	0.579	1	2back	Block1	2back/STIM_037.jpg
407.378	0.838	1	2back	Block1	2back/STIM_038.jpg
410.855	0.787	1	2back	Block1	2back/STIM_038.jpg
415.405	0.462	1	2back	Block1	2back/STIM_038.jpg
418.686	0.56	1	2back	Block1	2back/STIM_039.jpg
421.987	0.607	1	2back	Block1	2back/STIM_039.jpg
425.624	0.517	1	2back	Block1	2back/STIM_039.jpg
428.476	0.428	1	0back	Block1	0back/STIM_000.jpg
431.313	0.295	1	0back	Block1	0back/STIM_000.jpg
435.279	0.27	1	0back	Block1	0back/STIM_000.jpg
439.353	0.288	1	0back	Block1	0back/STIM_001.jpg
442.041	0.478	1	0back	Block1	0back/STIM_001.jpg
445.574	0.334	1	0back	Block1	0back/STIM_001.jpg
449.875	0.4	1	0back	Block1	0back/STIM_002.jpg
452.625	0.318	1	0back	Block1	0back/STIM_002.jpg
455.675	0.445	1	0back	Block1	0back/STIM_002.jpg
458.308	0.373	1	0back	Block1	0back/STIM_003.jpg
462.005	0.479	1	0back	Block1	0back/STIM_003.jpg
466.369	0.331	1	0back	Block1	0back/STIM_003.jpg
468.939	0.39	1	0back	Block1	0back/STIM_004.jpg
472.357	0.343	1	0back	Block1	0back/STIM_004.jpg
474.715	0.441	1	0back	Block1	0back/STIM_004.jpg
478.463	0.458	1	0back	Block1	0back/STIM_005.jpg
482.225	0.401	1	0back	Block1	0back/STIM_005.jpg
485.19	0.249	1	0back	Block1	0back/STIM_005.jpg
487.639	0.284	1	0back	Block1	0back/STIM_006.jpg
491.088	0.294	1	0back	Block1	0back/STIM_006.jpg
494.045	0.34	1	0back	Block1	0back/STIM_006.jpg
497.732	0.253	0	0back	Block1	0back/STIM_007.jpg
500.704	0.261	1	0back	Block1	0back/STIM_007.jpg
504.342	0.399	1	0back	Block1	0back/STIM_007.jpg
507.648	0.271	1	0back	Block1	0back/STIM_008.jpg
510.739	0.257	1	0back	Block1	0back/STIM_008.jpg
514.769	0.456	1	0back	Block1	0back/STIM_008.jpg
519.048	0.471	1	0back	Block1	0back/STIM_009.jpg
521.797	0.376	1	0back	Block1	0back/STIM_009.jpg
524.449	0.298	1	0back	Block1	0back/STIM_009.jpg
528.683	0.406	1	0back	Block1	0back/STIM_010.jpg
532.866	0.414	1	0back	Block1	0back/STIM_010.jpg
536.798	0.376	1	0back	Block1	0back/STIM_010.jpg
540.375	0.413	1	0back	Block1	0back/STIM_011.jpg
544.238	0.477	1	0back	Block1	0back/STIM_011.jpg
547.267	0.366	1	0back	Block1	0back/STIM_011.jpg
549.666	0.364	0	0back	Block1	0back/STIM_012.jpg
553.431	0.39	1	0back	Block1	0back/STIM_012.jpg
557.314	0.33	1	0back	Block1	0back/STIM_012.jpg
561.133	0.468	1	0back	Block1	0back/STIM_013.jpg
563.834	0.295	1	0back	Block1	0back/STIM_013.jpg
566.552	0.479	1	0back	Block1	0back/STIM_013.jpg
570.761	0.369	1	0back	Block1	0back/STIM_014.jpg
575.072	0.325	1	0back	Block1	0back/STIM_014.jpg
578.603	0.302	1	0back	Block1	0back/STIM_014.jpg
580.958	0.413	1	0back	Block1	0back/STIM_015.jpg
585.172	0.453	1	0back	Block1	0back/STIM_015.jpg
588.803	0.448	1	0back	Block1	0back/STIM_015.jpg
593.108	0.41	1	0back	Block1	0back/STIM_016.jpg
596.909	0.32	1	0back	Block1	0back/STIM_016.jpg
599.626	0.327	1	0back	Block1	0back/STIM_016.jpg
602.452	0.379	1	0back	Block1	0back/STIM_017.jpg
606.022	0.311	1	0back	Block1	0back/STIM_017.jpg
608.608	0.324	1	0back	Block1	0back/STIM_017.jpg
612.55	0.47	1	0back	Block1	0back/STIM_018.jpg
615.832	0.42	1	0back	Block1	0back/STIM_018.jpg
619.004	0.345	1	0back	Block1	0back/STIM_018.jpg
622.277	0.4	1	0back	Block1	0back/STIM_019.jpg
625.65	0.27	1	0back	Block1	0back/STIM_019.jpg
628.297	0.449	1	0back	Block1	0back/STIM_019.jpg
632.152	0.373	0	2back	Block2	2back/STIM_000.jpg
634.725	0.546	1	2back	Block2	2back/STIM_000.jpg
639.007	0.46	1	2back	Block2	2back/STIM_000.jpg
641.595	0.616	1	2back	Block2	2back/STIM_001.jpg
644.912	0.38	1	2back	Block2	2back/STIM_001.jpg
649.212	0.313	1	2back	Block2	2back/STIM_001.jpg
651.625	0.594	1	2back	Block2	2back/STIM_002.jpg
654.843	0.502	1	2back	Block2	2back/STIM_002.jpg
657.481	0.3	1	2back	Block2	2back/STIM_002.jpg
661.166	0.622	0	2back	Block2	2back/STIM_003.jpg
664.965	0.558	1	2back	Block2	2back/STIM_003.jpg
669.523	0.621	1	2back	Block2	2back/STIM_003.jpg
674.007	0.396	1	2back	Block2	2back/STIM_004.jpg
678.133	0.666	1	2back	Block2	2back/STIM_004.jpg
682.28	0.317	1	2back	Block2	2back/STIM_004.jpg
686.093	0.421	1	2back	Block2	2back/STIM_005.jpg
689.73	0.436	1	2back	Block2	2back/STIM_005.jpg
694.08	0.364	1	2back	Block2	2back/STIM_005.jpg
696.897	0.457	1	2back	Block2	2back/STIM_006.jpg
700.126	0.632	1	2back	Block2	2back/STIM_006.jpg
704.51	0.535	1	2back	Block2	2back/STIM_006.jpg
707.429	0.525	1	2back	Block2	2back/STIM_007.jpg
711.531	0.434	1	2back	Block2	2back/STIM_007.jpg
714.84	0.447	1	2back	Block2	2back/STIM_007.jpg
718.829	0.6	0	2back	Block2	2back/STIM_008.jpg
722.69	0.396	1	2back	Block2	2back/STIM_008.jpg
726.056	0.294	1	2back	Block2	2back/STIM_008.jpg
728.561	0.688	1	2back	Block2	2back/STIM_009.jpg
733.03	0.438	1	2back	Block2	2back/STIM_009.jpg
736.419	0.497	1	2back	Block2	2back/STIM_009.jpg
739.883	0.547	1	2back	Block2	2back/STIM_010.jpg
742.696	0.307	1	2back	Block2	2back/STIM_010.jpg
745.68	0.329	1	2back	Block2	2back/STIM_010.jpg
749.952	0.404	1	2back	Block2	2back/STIM_011.jpg
753.974	0.567	1	2back	Block2	2back/STIM_011.jpg
758.092	0.358	0	2back	Block2	2back/STIM_011.jpg
760.969	0.566	1	2back	Block2	2back/STIM_012.jpg
764.536	0.581	1	2back	Block2	2back/STIM_012.jpg
767.25	0.397	1	2back	Block2	2back/STIM_012.jpg
771.257	0.603	1	2back	Block2	2back/STIM_013.jpg
774.429	0.667	1	2back	Block2	2back/STIM_013.jpg
778.67	0.428	1	2back	Block2	2back/STIM_013.jpg
781.676	0.633	1	2back	Block2	2back/STIM_014.jpg
784.964	0.515	1	2back	Block2	2back/STIM_014.jpg
789.44	0.496	1	2back	Block2	2back/STIM_014.jpg
792.632	0.599	1	2back	Block2	2back/STIM_015.jpg
796.86	0.363	1	2back	Block2	2back/STIM_015.jpg
801.184	0.32	1	2back	Block2	2back/STIM_015.jpg
804.1	0.669	1	2back	Block2	2back/STIM_016.jpg
808.037	0.575	1	2back	Block2	2back/STIM_016.jpg
810.795	0.591	0	2back	Block2	2back/STIM_016.jpg
814.212	0.353	1	2back	Block2	2back/STIM_017.jpg
817.439	0.613	1	2back	Block2	2back/STIM_017.jpg
821.892	0.422	1	2back	Block2	2back/STIM_017.jpg
825.463	0.503	1	2back	Block2	2back/STIM_018.jpg
829.394	0.382	1	2back	Block2	2back/STIM_018.jpg
832.995	0.5	1	2back	Block2	2back/STIM_018.jpg
835.826	0.675	1	2back	Block2	2back/STIM_019.jpg
839.786	0.668	1	2back	Block2	2back/STIM_019.jpg
844.096	0.422	1	2back	Block2	2back/STIM_019.jpg
848.063	0.573	1	2back	Block2	2back/STIM_020.jpg
851.558	0.36	1	2back	Block2	2back/STIM_020.jpg
854.759	0.498	1	2back	Block2	2back/STIM_020.jpg
857.735	0.616	1	2back	Block2	2back/STIM_021.jpg
861.719	0.532	1	2back	Block2	2back/STIM_021.jpg
865.252	0.515	1	2back	Block2	2back/STIM_021.jpg
868.157	0.646	1	2back	Block2	2back/STIM_022.jpg
872.055	0.568	1	2back	Block2	2back/STIM_022.jpg
874.825	0.444	1	2back	Block2	2back/STIM_022.jpg
877.72	0.636	1	2back	Block2	2back/STIM_023.jpg
880.912	0.494	1	2back	Block2	2back/STIM_023.jpg
883.503	0.348	1	2back	Block2	2back/STIM_023.jpg
886.657	0.465	0	2back	Block2	2back/STIM_024.jpg
889.489	0.402	1	2back	Block2	2back/STIM_024.jpg
892.192	0.548	1	2back	Block2	2back/STIM_024.jpg
895.595	0.617	1	2back	Block2	2back/STIM_025.jpg
898.694	0.425	1	2back	Block2	2back/STIM_025.jpg
901.479	0.475	1	2back	Block2	2back/STIM_025.jpg
905.816	0.396	1	2back	Block2	2back/STIM_026.jpg
909.942	0.546	1	2back	Block2	2back/STIM_026.jpg
914.004	0.389	1	2back	Block2	2back/STIM_026.jpg
916.5	0.454	1	2back	Block2	2back/STIM_027.jpg
919.98	0.363	1	2back	Block2	2back/STIM_027.jpg
923.223	0.284	1	2back	Block2	2back/STIM_027.jpg
925.693	0.573	1	2back	Block2	2back/STIM_028.jpg
930.235	0.504	1	2back	Block2	2back/STIM_028.jpg
932.882	0.342	1	2back	Block2	2back/STIM_028.jpg
936.134	0.326	1	2back	Block2	2back/STIM_029.jpg
940.382	0.482	1	2back	Block2	2back/STIM_029.jpg
944.522	0.435	1	2back	Block2	2back/STIM_029.jpg
947.395	0.365	0	2back	Block2	2back/STIM_030.jpg
949.929	0.447	1	2back	Block2	2back/STIM_030.jpg
952.692	0.487	1	2back	Block2	2back/STIM_030.jpg
956.32	0.477	1	2back	Block2	2back/STIM_031.jpg
960.697	0.538	1	2back	Block2	2back/STIM_031.jpg
963.984	0.589	1	2back	Block2	2back/STIM_031.jpg
967.691	0.592	1	2back	Block2	2back/STIM_032.jpg
970.371	0.562	1	2back	Block2	2back/STIM_032.jpg
973.12	0.301	1	2back	Block2	2back/STIM_032.jpg
976.24	0.536	1	2back	Block2	2back/STIM_033.jpg
979.752	0.537	1	2back	Block2	2back/STIM_033.jpg
982.543	0.609	1	2back	Block2	2back/STIM_033.jpg
986.208	0.592	1	2back	Block2	2back/STIM_034.jpg
989.959	0.513	1	2back	Block2	2back/STIM_034.jpg
992.818	0.466	1	2back	Block2	2back/STIM_034.jpg
996.23	0.454	1	2back	Block2	2back/STIM_035.jpg
998.886	0.557	1	2back	Block2	2back/STIM_035.jpg
1002.39	0.608	1	2back	Block2	2back/STIM_035.jpg
1006.267	0.321	0	2back	Block2	2back/STIM_036.jpg
1009.989	0.57	0	2back	Block2	2back/STIM_036.jpg
1013.917	0.435	1	2back	Block2	2back/STIM_036.jpg
1016.631	0.343	1	2back	Block2	2back/STIM_037.jpg
1020.033	0.533	1	2back	Block2	2back/STIM_037.jpg
1024.411	0.485	1	2back	Block2	2back/STIM_037.jpg
1028.042	0.374	1	2back	Block2	2back/STIM_038.jpg
1030.992	0.379	1	2back	Block2	2back/STIM_038.jpg
1035.111	0.516	1	2back	Block2	2back/STIM_038.jpg
1038.724	0.542	1	2back	Block2	2back/STIM_039.jpg
1042.468	0.581	1	2back	Block2	2back/STIM_039.jpg
1045.133	0.476	1	2back	Block2	2back/STIM_039.jpg
1049.081	0.406	1	0back	Block2	0back/STIM_000.jpg
1052.913	0.455	1	0back	Block2	0back/STIM_000.jpg
1055.585	0.326	1	0back	Block2	0back/STIM_000.jpg
1059.23	0.452	1	0back	Block2	0back/STIM_001.jpg
1062.997	0.388	1	0back	Block2	0back/STIM_001.jpg
1065.589	0.3	1	0back	Block2	0back/STIM_001.jpg
1067.952	0.48	1	0back	Block2	0back/STIM_002.jpg
1071.013	0.409	1	0back	Block2	0back/STIM_002.jpg
1073.998	0.277	1	0back	Block2	0back/STIM_002.jpg
1077.126	0.484	1	0back	Block2	0back/STIM_003.jpg
1081.565	0.349	1	0back	Block2	0back/STIM_003.jpg
1085.351	0.406	1	0back	Block2	0back/STIM_003.jpg
1088.759	0.319	1	0back	Block2	0back/STIM_004.jpg
1092.121	0.445	1	0back	Block2	0back/STIM_004.jpg
1095.23	0.436	1	0back	Block2	0back/STIM_004.jpg
1098.521	0.245	1	0back	Block2	0back/STIM_005.jpg
1101.22	0.404	1	0back	Block2	0back/STIM_005.jpg
1105.325	0.341	1	0back	Block2	0back/STIM_005.jpg
1108.336	0.256	1	0back	Block2	0back/STIM_006.jpg
1111.284	0.438	1	0back	Block2	0back/STIM_006.jpg
1115.145	0.354	1	0back	Block2	0back/STIM_006.jpg
1117.676	0.464	1	0back	Block2	0back/STIM_007.jpg
1121.372	0.41	1	0back	Block2	0back/STIM_007.jpg
1124.497	0.287	1	0back	Block2	0back/STIM_007.jpg
1127.626	0.426	1	0back	Block2	0back/STIM_008.jpg
1131.958	0.427	1	0back	Block2	0back/STIM_008.jpg
1135.551	0.254	1	0back	Block2	0back/STIM_008.jpg
1138.21	0.396	1	0back	Block2	0back/STIM_009.jpg
1142.162	0.455	1	0back	Block2	0back/STIM_009.jpg
1144.827	0.246	1	0back	Block2	0back/STIM_009.jpg
1148.318	0.476	1	0back	Block2	0back/STIM_010.jpg
1151.738	0.339	1	0back	Block2	0back/STIM_010.jpg
1154.873	0.404	1	0back	Block2	0back/STIM_010.jpg
1158.538	0.282	1	0back	Block2	0back/STIM_011.jpg
1162.023	0.294	1	0back	Block2	0back/STIM_011.jpg
1165.426	0.371	1	0back	Block2	0back/STIM_011.jpg
1168.598	0.433	1	0back	Block2	0back/STIM_012.jpg
1171.637	0.249	1	0back	Block2	0back/STIM_012.jpg
1174.556	0.414	1	0back	Block2	0back/STIM_012.jpg
1177.577	0.37	1	0back	Block2	0back/STIM_013.jpg
1181.05	0.421	1	0back	Block2	0back/STIM_013.jpg
1185.373	0.353	1	0back	Block2	0back/STIM_013.jpg
1188.721	0.444	1	0back	Block2	0back/STIM_014.jpg
1191.506	0.409	1	0back	Block2	0back/STIM_014.jpg
1194.998	0.294	1	0back	Block2	0back/STIM_014.jpg
1198.97	0.454	1	0back	Block2	0back/STIM_015.jpg
1202.746	0.312	1	0back	Block2	0back/STIM_015.jpg
1206.118	0.271	1	0back	Block2	0back/STIM_015.jpg
1209.531	0.459	1	0back	Block2	0back/STIM_016.jpg
1213.076	0.287	1	0back	Block2	0back/STIM_016.jpg
1215.668	0.44	1	0back	Block2	0back/STIM_016.jpg
1219.818	0.277	1	0back	Block2	0back/STIM_017.jpg
1222.144	0.262	1	0back	Block2	0back/STIM_017.jpg
1225.66	0.426	1	0back	Block2	0back/STIM_017.jpg
1230.071	0.47	1	0back	Block2	0back/STIM_018.jpg
1234.433	0.35	1	0back	Block2	0back/STIM_018.jpg
1237.146	0.471	1	0back	Block2	0back/STIM_018.jpg
1241.306	0.269	1	0back	Block2	0back/STIM_019.jpg
1244.089	0.318	1	0back	Block2	0back/STIM_019.jpg
1248.262	0.345	1	0back	Block2	0back/STIM_019.jpg
1252.595	0.4	1	2back	Block3	2back/STIM_000.jpg
1255.909	0.338	1	2back	Block3	2back/STIM_000.jpg
1259.073	0.411	1	2back	Block3	2back/STIM_000.jpg
1262.923	0.386	1	2back	Block3	2back/STIM_001.jpg
1266.598	0.514	1	2back	Block3	2back/STIM_001.jpg
1271.104	0.41	1	2back	Block3	2back/STIM_001.jpg
1275.071	0.574	1	2back	Block3	2back/STIM_002.jpg
1278.204	0.376	1	2back	Block3	2back/STIM_002.jpg
1281.929	0.383	1	2back	Block3	2back/STIM_002.jpg
1284.571	0.272	1	2back	Block3	2back/STIM_003.jpg
1288.354	0.395	1	2back	Block3	2back/STIM_003.jpg
1292.049	0.525	1	2back	Block3	2back/STIM_003.jpg
1296.513	0.34	1	2back	Block3	2back/STIM_004.jpg
1300.787	0.454	1	2back	Block3	2back/STIM_004.jpg
1304.749	0.373	1	2back	Block3	2back/STIM_004.jpg
1309.046	0.426	1	2back	Block3	2back/STIM_005.jpg
1312.408	0.558	1	2back	Block3	2back/STIM_005.jpg
1316.106	0.416	1	2back	Block3	2back/STIM_005.jpg
1318.811	0.312	1	2back	Block3	2back/STIM_006.jpg
1321.489	0.343	1	2back	Block3	2back/STIM_006.jpg
1324.812	0.36	1	2back	Block3	2back/STIM_006.jpg
1328.749	0.28	1	2back	Block3	2back/STIM_007.jpg
1331.093	0.544	1	2back	Block3	2back/STIM_007.jpg
1334.523	0.548	1	2back	Block3	2back/STIM_007.jpg
1337.887	0.557	0	2back	Block3	2back/STIM_008.jpg
1340.646	0.309	1	2back	Block3	2back/STIM_008.jpg
1343.232	0.354	1	2back	Block3	2back/STIM_008.jpg
1347.538	0.471	1	2back	Block3	2back/STIM_009.jpg
1350.355	0.331	1	2back	Block3	2back/STIM_009.jpg
1353.201	0.439	1	2back	Block3	2back/STIM_009.jpg
1356.411	0.415	1	2back	Block3	2back/STIM_010.jpg
1359.432	0.348	1	2back	Block3	2back/STIM_010.jpg
1363.148	0.358	1	2back	Block3	2back/STIM_010.jpg
1365.945	0.52	1	2back	Block3	2back/STIM_011.jpg
1368.526	0.288	1	2back	Block3	2back/STIM_011.jpg
1371.046	0.394	1	2back	Block3	2back/STIM_011.jpg
1374.559	0.42	1	2back	Block3	2back/STIM_012.jpg
1378.299	0.547	1	2back	Block3	2back/STIM_012.jpg
1381.656	0.533	1	2back	Block3	2back/STIM_012.jpg
1385.517	0.334	1	2back	Block3	2back/STIM_013.jpg
1388.613	0.547	1	2back	Block3	2back/STIM_013.jpg
1392.056	0.255	1	2back	Block3	2back/STIM_013.jpg
1396.205	0.547	1	2back	Block3	2back/STIM_014.jpg
1399.833	0.411	1	2back	Block3	2back/STIM_014.jpg
1403.623	0.435	1	2back	Block3	2back/STIM_014.jpg
1406.878	0.349	1	2back	Block3	2back/STIM_015.jpg
1409.853	0.378	1	2back	Block3	2back/STIM_015.jpg
1413.841	0.299	1	2back	Block3	2back/STIM_015.jpg
1417.439	0.439	1	2back	Block3	2back/STIM_016.jpg
1420.694	0.413	1	2back	Block3	2back/STIM_016.jpg
1423.437	0.428	1	2back	Block3	2back/STIM_016.jpg
1427.312	0.442	1	2back	Block3	2back/STIM_017.jpg
1430.797	0.264	1	2back	Block3	2back/STIM_017.jpg
1434.752	0.569	1	2back	Block3	2back/STIM_017.jpg
1438.35	0.558	1	2back	Block3	2back/STIM_018.jpg
1441.969	0.276	0	2back	Block3	2back/STIM_018.jpg
1445.008	0.279	1	2back	Block3	2back/STIM_018.jpg
1447.865	0.365	1	2back	Block3	2back/STIM_019.jpg
1451.608	0.283	1	2back	Block3	2back/STIM_019.jpg
1455.86	0.428	1	2back	Block3	2back/STIM_019.jpg
1459.39	0.337	1	2back	Block3	2back/STIM_020.jpg
1463.349	0.337	1	2back	Block3	2back/STIM_020.jpg
1466.365	0.567	1	2back	Block3	2back/STIM_020.jpg
1470.744	0.542	1	2back	Block3	2back/STIM_021.jpg
1473.51	0.522	1	2back	Block3	2back/STIM_021.jpg
1477.29	0.572	1	2back	Block3	2back/STIM_021.jpg
1481.039	0.504	1	2back	Block3	2back/STIM_022.jpg
1484.541	0.406	1	2back	Block3	2back/STIM_022.jpg
1488.018	0.556	1	2back	Block3	2back/STIM_022.jpg
1492.467	0.391	1	2back	Block3	2back/STIM_023.jpg
1495.113	0.316	1	2back	Block3	2back/STIM_023.jpg
1498.188	0.54	1	2back	Block3	2back/STIM_023.jpg
1501.812	0.457	1	2back	Block3	2back/STIM_024.jpg
1505.955	0.43	1	2back	Block3	2back/STIM_024.jpg
1508.889	0.522	1	2back	Block3	2back/STIM_024.jpg
1513.185	0.338	1	2back	Block3	2back/STIM_025.jpg
1517.337	0.415	1	2back	Block3	2back/STIM_025.jpg
1521.515	0.274	1	2back	Block3	2back/STIM_025.jpg
1524.365	0.428	1	2back	Block3	2back/STIM_026.jpg
1527.274	0.341	1	2back	Block3	2back/STIM_026.jpg
1531.382	0.382	1	2back	Block3	2back/STIM_026.jpg
1534.218	0.565	1	2back	Block3	2back/STIM_027.jpg
1537.281	0.466	1	2back	Block3	2back/STIM_027.jpg
1539.898	0.561	1	2back	Block3	2back/STIM_027.jpg
1542.901	0.383	1	2back	Block3	2back/STIM_028.jpg
1546.826	0.511	1	2back	Block3	2back/STIM_028.jpg
1551.305	0.346	1	2back	Block3	2back/STIM_028.jpg
1555.504	0.368	1	2back	Block3	2back/STIM_029.jpg
1558.063	0.296	1	2back	Block3	2back/STIM_029.jpg
1561.348	0.5	1	2back	Block3	2back/STIM_029.jpg
1565.319	0.451	1	2back	Block3	2back/STIM_030.jpg
1569.168	0.502	1	2back	Block3	2back/STIM_030.jpg
1573.55	0.305	1	2back	Block3	2back/STIM_030.jpg
1577.277	0.325	1	2back	Block3	2back/STIM_031.jpg
1580.71	0.484	1	2back	Block3	2back/STIM_031.jpg
1584.293	0.276	1	2back	Block3	2back/STIM_031.jpg
1587.628	0.533	1	2back	Block3	2back/STIM_032.jpg
1591.504	0.421	1	2back	Block3	2back/STIM_032.jpg
1595.312	0.575	1	2back	Block3	2back/STIM_032.jpg
1599.597	0.572	1	2back	Block3	2back/STIM_033.jpg
1602.564	0.43	1	2back	Block3	2back/STIM_033.jpg
1606.653	0.386	1	2back	Block3	2back/STIM_033.jpg
1610.567	0.506	1	2back	Block3	2back/STIM_034.jpg
1613.454	0.361	1	2back	Block3	2back/STIM_034.jpg
1616.05	0.363	1	2back	Block3	2back/STIM_034.jpg
1618.663	0.558	1	2back	Block3	2back/STIM_035.jpg
1622.646	0.46	1	2back	Block3	2back/STIM_035.jpg
1626.972	0.587	1	2back	Block3	2back/STIM_035.jpg
1630.172	0.439	1	2back	Block3	2back/STIM_036.jpg
1633.392	0.328	1	2back	Block3	2back/STIM_036.jpg
1636.903	0.36	1	2back	Block3	2back/STIM_036.jpg
1639.773	0.278	1	2back	Block3	2back/STIM_037.jpg
1643.778	0.526	1	2back	Block3	2back/STIM_037.jpg
1646.508	0.299	1	2back	Block3	2back/STIM_037.jpg
1649.258	0.378	1	2back	Block3	2back/STIM_038.jpg
1651.804	0.361	1	2back	Block3	2back/STIM_038.jpg
1655.58	0.494	1	2back	Block3	2back/STIM_038.jpg
1659.418	0.522	1	2back	Block3	2back/STIM_039.jpg
1663.824	0.556	1	2back	Block3	2back/STIM_039.jpg
1666.415	0.573	0	2back	Block3	2back/STIM_039.jpg
1669.294	0.25	1	0back	Block3	0back/STIM_000.jpg
1673.505	0.378	1	0back	Block3	0back/STIM_000.jpg
1676.447	0.318	1	0back	Block3	0back/STIM_000.jpg
1680.327	0.294	1	0back	Block3	0back/STIM_001.jpg
1683.047	0.336	1	0back	Block3	0back/STIM_001.jpg
1686.604	0.449	1	0back	Block3	0back/STIM_001.jpg
1689.438	0.424	1	0back	Block3	0back/STIM_002.jpg
1692.899	0.445	1	0back	Block3	0back/STIM_002.jpg
1697.237	0.285	1	0back	Block3	0back/STIM_002.jpg
1701.213	0.284	1	0back	Block3	0back/STIM_003.jpg
1704.244	0.389	1	0back	Block3	0back/STIM_003.jpg
1707.888	0.265	0	0back	Block3	0back/STIM_003.jpg
1710.899	0.394	1	0back	Block3	0back/STIM_004.jpg
1713.768	0.272	1	0back	Block3	0back/STIM_004.jpg
1716.272	0.277	1	0back	Block3	0back/STIM_004.jpg
1719.058	0.283	1	0back	Block3	0back/STIM_005.jpg
1722.576	0.44	1	0back	Block3	0back/STIM_005.jpg
1725.362	0.468	1	0back	Block3	0back/STIM_005.jpg
1728.548	0.322	1	0back	Block3	0back/STIM_006.jpg
1731.781	0.378	1	0back	Block3	0back/STIM_006.jpg
1735.94	0.437	1	0back	Block3	0back/STIM_006.jpg
1739.839	0.425	1	0back	Block3	0back/STIM_007.jpg
1742.841	0.437	1	0back	Block3	0back/STIM_007.jpg
1747.264	0.448	1	0back	Block3	0back/STIM_007.jpg
1750.863	0.385	1	0back	Block3	0back/STIM_008.jpg
1754.756	0.245	1	0back	Block3	0back/STIM_008.jpg
1757.918	0.245	1	0back	Block3	0back/STIM_008.jpg
1761.867	0.368	1	0back	Block3	0back/STIM_009.jpg
1764.955	0.256	1	0back	Block3	0back/STIM_009.jpg
1769.043	0.266	1	0back	Block3	0back/STIM_009.jpg
1771.529	0.319	1	0back	Block3	0back/STIM_010.jpg
1773.889	0.244	1	0back	Block3	0back/STIM_010.jpg
1776.7	0.406	1	0back	Block3	0back/STIM_010.jpg
1779.383	0.262	1	0back	Block3	0back/STIM_011.jpg
1781.756	0.297	1	0back	Block3	0back/STIM_011.jpg
1785.552	0.328	1	0back	Block3	0back/STIM_011.jpg
1789.308	0.427	1	0back	Block3	0back/STIM_012.jpg
1793.172	0.418	1	0back	Block3	0back/STIM_012.jpg
1795.797	0.412	1	0back	Block3	0back/STIM_012.jpg
1799.427	0.423	1	0back	Block3	0back/STIM_013.jpg
1802.767	0.274	1	0back	Block3	0back/STIM_013.jpg
1805.948	0.367	1	0back	Block3	0back/STIM_013.jpg
1809.887	0.255	1	0back	Block3	0back/STIM_014.jpg
1812.762	0.41	1	0back	Block3	0back/STIM_014.jpg
1815.174	0.333	1	0back	Block3	0back/STIM_014.jpg
1818.696	0.425	1	0back	Block3	0back/STIM_015.jpg
1822.512	0.292	1	0back	Block3	0back/STIM_015.jpg
1826.578	0.431	1	0back	Block3	0back/STIM_015.jpg
1829.438	0.305	1	0back	Block3	0back/STIM_016.jpg
1833.19	0.39	1	0back	Block3	0back/STIM_016.jpg
1836.955	0.282	1	0back	Block3	0back/STIM_016.jpg
1839.298	0.316	1	0back	Block3	0back/STIM_017.jpg
1843.606	0.434	1	0back	Block3	0back/STIM_017.jpg
1847.242	0.305	1	0back	Block3	0back/STIM_017.jpg
1850.83	0.335	1	0back	Block3	0back/STIM_018.jpg
1853.476	0.361	1	0back	Block3	0back/STIM_018.jpg
1856.284	0.407	1	0back	Block3	0back/STIM_018.jpg
1859.349	0.372	1	0back	Block3	0back/STIM_019.jpg
1861.89	0.264	1	0back	Block3	0back/STIM_019.jpg
1865.035	0.298	1	0back	Block3	0back/STIM_019.jpg
1868.215	0.447	1	2back	Block4	2back/STIM_000.jpg
1871.117	0.406	1	2back	Block4	2back/STIM_000.jpg
1875.095	0.432	1	2back	Block4	2back/STIM_000.jpg
1877.55	0.506	1	2back	Block4	2back/STIM_001.jpg
1881.312	0.303	1	2back	Block4	2back/STIM_001.jpg
1884.128	0.526	1	2back	Block4	2back/STIM_001.jpg
1887.687	0.354	1	2back	Block4	2back/STIM_002.jpg
1891.642	0.519	1	2back	Block4	2back/STIM_002.jpg
1894.753	0.272	1	2back	Block4	2back/STIM_002.jpg
1898.349	0.571	1	2back	Block4	2back/STIM_003.jpg
1902.108	0.348	1	2back	Block4	2back/STIM_003.jpg
1905.258	0.289	1	2back	Block4	2back/STIM_003.jpg
1908.758	0.49	1	2back	Block4	2back/STIM_004.jpg
1911.841	0.333	1	2back	Block4	2back/STIM_004.jpg
1914.814	0.516	1	2back	Block4	2back/STIM_004.jpg
1918.842	0.48	1	2back	Block4	2back/STIM_005.jpg
1921.576	0.277	1	2back	Block4	2back/STIM_005.jpg
1925.087	0.552	1	2back	Block4	2back/STIM_005.jpg
1929.033	0.544	1	2back	Block4	2back/STIM_006.jpg
1933.079	0.318	1	2back	Block4	2back/STIM_006.jpg
1936.635	0.376	1	2back	Block4	2back/STIM_006.jpg
1940.545	0.507	1	2back	Block4	2back/STIM_007.jpg
1943.256	0.401	1	2back	Block4	2back/STIM_007.jpg
1947.579	0.279	1	2back	Block4	2back/STIM_007.jpg
1950.843	0.36	1	2back	Block4	2back/STIM_008.jpg
1954.461	0.368	1	2back	Block4	2back/STIM_008.jpg
1957.82	0.272	1	2back	Block4	2back/STIM_008.jpg
1962.06	0.316	1	2back	Block4	2back/STIM_009.jpg
1966.06	0.293	1	2back	Block4	2back/STIM_009.jpg
1968.496	0.502	1	2back	Block4	2back/STIM_009.jpg
1971.112	0.365	1	2back	Block4	2back/STIM_010.jpg
1974.493	0.344	1	2back	Block4	2back/STIM_010.jpg
1977.336	0.511	1	2back	Block4	2back/STIM_010.jpg
1980.248	0.523	1	2back	Block4	2back/STIM_011.jpg
1982.861	0.539	1	2back	Block4	2back/STIM_011.jpg
1986.646	0.271	1	2back	Block4	2back/STIM_011.jpg
1989.187	0.462	1	2back	Block4	2back/STIM_012.jpg
1992.658	0.404	1	2back	Block4	2back/STIM_012.jpg
1996.008	0.363	1	2back	Block4	2back/STIM_012.jpg
1998.931	0.451	1	2back	Block4	2back/STIM_013.jpg
2001.678	0.553	1	2back	Block4	2back/STIM_013.jpg
2005.802	0.458	1	2back	Block4	2back/STIM_013.jpg
2009.968	0.328	1	2back	Block4	2back/STIM_014.jpg
2013.624	0.494	1	2back	Block4	2back/STIM_014.jpg
2016.666	0.445	1	2back	Block4	2back/STIM_014.jpg
2019.526	0.262	1	2back	Block4	2back/STIM_015.jpg
2023.606	0.427	1	2back	Block4	2back/STIM_015.jpg
2027.931	0.45	1	2back	Block4	2back/STIM_015.jpg
2031.405	0.567	1	2back	Block4	2back/STIM_016.jpg
2034.757	0.502	1	2back	Block4	2back/STIM_016.jpg
2038.261	0.466	1	2back	Block4	2back/STIM_016.jpg
2042.172	0.517	1	2back	Block4	2back/STIM_017.jpg
2045.111	0.304	1	2back	Block4	2back/STIM_017.jpg
2048.976	0.533	1	2back	Block4	2back/STIM_017.jpg
2053.061	0.31	1	2back	Block4	2back/STIM_018.jpg
2056.816	0.446	1	2back	Block4	2back/STIM_018.jpg
2060.282	0.48	1	2back	Block4	2back/STIM_018.jpg
2063.488	0.49	1	2back	Block4	2back/STIM_019.jpg
2067.967	0.301	1	2back	Block4	2back/STIM_019.jpg
2071.727	0.472	1	2back	Block4	2back/STIM_019.jpg
2074.846	0.523	1	2back	Block4	2back/STIM_020.jpg
2077.515	0.363	1	2back	Block4	2back/STIM_020.jpg
2081.164	0.54	1	2back	Block4	2back/STIM_020.jpg
2083.894	0.302	1	2back	Block4	2back/STIM_021.jpg
2087.644	0.52	1	2back	Block4	2back/STIM_021.jpg
2091.625	0.577	1	2back	Block4	2back/STIM_021.jpg
2096.116	0.295	1	2back	Block4	2back/STIM_022.jpg
2098.996	0.391	1	2back	Block4	2back/STIM_022.jpg
2101.683	0.49	1	2back	Block4	2back/STIM_022.jpg
2105.26	0.369	1	2back	Block4	2back/STIM_023.jpg
2108.371	0.55	1	2back	Block4	2back/STIM_023.jpg
2112.021	0.282	1	2back	Block4	2back/STIM_023.jpg
2116.212	0.288	1	2back	Block4	2back/STIM_024.jpg
2119.515	0.564	1	2back	Block4	2back/STIM_024.jpg
2123.671	0.503	1	2back	Block4	2back/STIM_024.jpg
2126.427	0.485	1	2back	Block4	2back/STIM_025.jpg
2129.222	0.492	1	2back	Block4	2back/STIM_025.jpg
2133.118	0.369	1	2back	Block4	2back/STIM_025.jpg
2137.095	0.491	1	2back	Block4	2back/STIM_026.jpg
2140.281	0.586	1	2back	Block4	2back/STIM_026.jpg
2143.217	0.359	1	2back	Block4	2back/STIM_026.jpg
2146.048	0.278	1	2back	Block4	2back/STIM_027.jpg
2149.404	0.331	1	2back	Block4	2back/STIM_027.jpg
2153.24	0.352	1	2back	Block4	2back/STIM_027.jpg
2155.933	0.409	1	2back	Block4	2back/STIM_028.jpg
2158.559	0.263	1	2back	Block4	2back/STIM_028.jpg
2161.329	0.578	1	2back	Block4	2back/STIM_028.jpg
2164.586	0.587	1	2back	Block4	2back/STIM_029.jpg
2168.451	0.453	1	2back	Block4	2back/STIM_029.jpg
2171.231	0.309	1	2back	Block4	2back/STIM_029.jpg
2174.422	0.524	1	2back	Block4	2back/STIM_030.jpg
2178.432	0.3	1	2back	Block4	2back/STIM_030.jpg
2181.026	0.547	1	2back	Block4	2back/STIM_030.jpg
2183.637	0.396	1	2back	Block4	2back/STIM_031.jpg
2186.494	0.405	1	2back	Block4	2back/STIM_031.jpg
2190.815	0.33	1	2back	Block4	2back/STIM_031.jpg
2194.619	0.377	1	2back	Block4	2back/STIM_032.jpg
2197.508	0.269	1	2back	Block4	2back/STIM_032.jpg
2201.297	0.299	1	2back	Block4	2back/STIM_032.jpg
2204.006	0.413	1	2back	Block4	2back/STIM_033.jpg
2208.154	0.347	1	2back	Block4	2back/STIM_033.jpg
2211.905	0.523	1	2back	Block4	2back/STIM_033.jpg
2215.5	0.418	1	2back	Block4	2back/STIM_034.jpg
2218.769	0.373	1	2back	Block4	2back/STIM_034.jpg
2221.498	0.393	1	2back	Block4	2back/STIM_034.jpg
2224.629	0.36	1	2back	Block4	2back/STIM_035.jpg
2227.624	0.485	1	2back	Block4	2back/STIM_035.jpg
2232.001	0.516	1	2back	Block4	2back/STIM_035.jpg
2234.834	0.38	1	2back	Block4	2back/STIM_036.jpg
2238.454	0.421	1	2back	Block4	2back/STIM_036.jpg
2241.579	0.523	1	2back	Block4	2back/STIM_036.jpg
2244.995	0.405	1	2back	Block4	2back/STIM_037.jpg
2248.547	0.363	1	2back	Block4	2back/STIM_037.jpg
2251.118	0.501	1	2back	Block4	2back/STIM_037.jpg
2253.965	0.43	1	2back	Block4	2back/STIM_038.jpg
2256.912	0.379	1	2back	Block4	2back/STIM_038.jpg
2259.956	0.488	1	2back	Block4	2back/STIM_038.jpg
2264.369	0.585	1	2back	Block4	2back/STIM_039.jpg
2267.631	0.578	1	2back	Block4	2back/STIM_039.jpg
2270.863	0.404	1	2back	Block4	2back/STIM_039.jpg
2274.184	0.46	1	0back	Block4	0back/STIM_000.jpg
2277.643	0.259	1	0back	Block4	0back/STIM_000.jpg
2280.324	0.481	1	0back	Block4	0back/STIM_000.jpg
2283.87	0.389	1	0back	Block4	0back/STIM_001.jpg
2286.508	0.33	1	0back	Block4	0back/STIM_001.jpg
2290.567	0.43	1	0back	Block4	0back/STIM_001.jpg
2293.362	0.246	1	0back	Block4	0back/STIM_002.jpg
2296.977	0.47	1	0back	Block4	0back/STIM_002.jpg
2300.627	0.343	1	0back	Block4	0back/STIM_002.jpg
2304.083	0.256	1	0back	Block4	0back/STIM_003.jpg
2306.832	0.472	1	0back	Block4	0back/STIM_003.jpg
2311.188	0.253	1	0back	Block4	0back/STIM_003.jpg
2314.851	0.344	1	0back	Block4	0back/STIM_004.jpg
2319.184	0.388	1	0back	Block4	0back/STIM_004.jpg
2323.17	0.421	1	0back	Block4	0back/STIM_004.jpg
2325.795	0.327	1	0back	Block4	0back/STIM_005.jpg
2328.923	0.331	1	0back	Block4	0back/STIM_005.jpg
2331.624	0.429	1	0back	Block4	0back/STIM_005.jpg
2335.567	0.243	1	0back	Block4	0back/STIM_006.jpg
2339.529	0.438	1	0back	Block4	0back/STIM_006.jpg
2342.501	0.431	1	0back	Block4	0back/STIM_006.jpg
2345.026	0.418	1	0back	Block4	0back/STIM_007.jpg
2348.655	0.459	1	0back	Block4	0back/STIM_007.jpg
2352.131	0.322	1	0back	Block4	0back/STIM_007.jpg
2355.543	0.335	1	0back	Block4	0back/STIM_008.jpg
2358.777	0.316	1	0back	Block4	0back/STIM_008.jpg
2362.271	0.263	1	0back	Block4	0back/STIM_008.jpg
2366.233	0.25	1	0back	Block4	0back/STIM_009.jpg
2369.551	0.47	1	0back	Block4	0back/STIM_009.jpg
2372.082	0.268	0	0back	Block4	0back/STIM_009.jpg
2375.505	0.247	1	0back	Block4	0back/STIM_010.jpg
2379.054	0.454	1	0back	Block4	0back/STIM_010.jpg
2383.325	0.483	1	0back	Block4	0back/STIM_010.jpg
2386.583	0.299	0	0back	Block4	0back/STIM_011.jpg
2390.411	0.48	1	0back	Block4	0back/STIM_011.jpg
2394.646	0.366	1	0back	Block4	0back/STIM_011.jpg
2398.404	0.271	1	0back	Block4	0back/STIM_012.jpg
2401.134	0.37	1	0back	Block4	0back/STIM_012.jpg
2404.691	0.426	1	0back	Block4	0back/STIM_012.jpg
2408.021	0.347	1	0back	Block4	0back/STIM_013.jpg
2411.936	0.397	1	0back	Block4	0back/STIM_013.jpg
2414.775	0.48	1	0back	Block4	0back/STIM_013.jpg
2418.043	0.422	1	0back	Block4	0back/STIM_014.jpg
2421.025	0.274	1	0back	Block4	0back/STIM_014.jpg
2423.485	0.404	1	0back	Block4	0back/STIM_014.jpg
2427.235	0.243	1	0back	Block4	0back/STIM_015.jpg
2430.21	0.344	1	0back	Block4	0back/STIM_015.jpg
2434.32	0.401	1	0back	Block4	0back/STIM_015.jpg
2436.809	0.349	1	0back	Block4	0back/STIM_016.jpg
2439.299	0.351	1	0back	Block4	0back/STIM_016.jpg
2442.507	0.325	1	0back	Block4	0back/STIM_016.jpg
2445.018	0.368	1	0back	Block4	0back/STIM_017.jpg
2449.368	0.281	1	0back	Block4	0back/STIM_017.jpg
2452.279	0.332	1	0back	Block4	0back/STIM_017.jpg
2455.774	0.305	1	0back	Block4	0back/STIM_018.jpg
2459.831	0.337	1	0back	Block4	0back/STIM_018.jpg
2462.497	0.276	1	0back	Block4	0back/STIM_018.jpg
2464.879	0.373	1	0back	Block4	0back/STIM_019.jpg
2469.188	0.359	1	0back	Block4	0back/STIM_019.jpg
2472.247	0.338	1	0back	Block4	0back/STIM_019.jpg
