onset	duration	accuracy	trial_type	learning_stage	stimulus
0.0	0.688	correct	2back	Block1	2back/STIM_000.jpg
4.075	0.908	correct	2back	Block1	2back/STIM_000.jpg
7.332	0.829	correct	2back	Block1	2back/STIM_000.jpg
11.256	0.99	correct	2back	Block1	2back/STIM_001.jpg
15.899	1.019	correct	2back	Block1	2back/STIM_001.jpg
19.208	0.844	correct	2back	Block1	2back/STIM_001.jpg
23.265	0.954	correct	2back	Block1	2back/STIM_002.jpg
27.048	1.237	correct	2back	Block1	2back/STIM_002.jpg
31.286	0.615	correct	2back	Block1	2back/STIM_002.jpg
34.762	1.286	correct	2back	Block1	2back/STIM_003.jpg
39.645	1.162	incorrect	2back	Block1	2back/STIM_003.jpg
44.769	0.861	correct	2back	Block1	2back/STIM_003.jpg
48.62	1.419	correct	2back	Block1	2back/STIM_004.jpg
52.539	0.72	correct	2back	Block1	2back/STIM_004.jpg
55.476	0.998	correct	2back	Block1	2back/STIM_004.jpg
60.35	1.096	correct	2back	Block1	2back/STIM_005.jpg
64.868	1.321	correct	2back	Block1	2back/STIM_005.jpg
68.515	0.841	correct	2back	Block1	2back/STIM_005.jpg
72.14	1.321	correct	2back	Block1	2back/STIM_006.jpg
77.44	0.891	correct	2back	Block1	2back/STIM_006.jpg
80.832	1.104	correct	2back	Block1	2back/STIM_006.jpg
85.5	0.622	correct	2back	Block1	2back/STIM_007.jpg
89.039	1.298	correct	2back	Block1	2back/STIM_007.jpg
93.052	1.222	incorrect	2back	Block1	2back/STIM_007.jpg
96.636	0.834	correct	2back	Block1	2back/STIM_008.jpg
101.216	0.541	correct	2back	Block1	2back/STIM_008.jpg
103.959	0.926	correct	2back	Block1	2back/STIM_008.jpg
108.841	1.365	correct	2back	Block1	2back/STIM_009.jpg
113.621	1.354	correct	2back	Block1	2back/STIM_009.jpg
117.455	0.57	correct	2back	Block1	2back/STIM_009.jpg
122.074	1.014	correct	2back	Block1	2back/STIM_010.jpg
127.041	1.209	correct	2back	Block1	2back/STIM_010.jpg
131.493	0.73	correct	2back	Block1	2back/STIM_010.jpg
135.899	0.715	correct	2back	Block1	2back/STIM_011.jpg
139.993	0.799	correct	2back	Block1	2back/STIM_011.jpg
143.537	0.828	correct	2back	Block1	2back/STIM_011.jpg
146.916	1.324	incorrect	2back	Block1	2back/STIM_012.jpg
150.63	1.299	correct	2back	Block1	2back/STIM_012.jpg
155.743	0.967	correct	2back	Block1	2back/STIM_012.jpg
158.927	1.066	correct	2back	Block1	2back/STIM_013.jpg
162.379	1.188	correct	2back	Block1	2back/STIM_013.jpg
167.211	1.105	correct	2back	Block1	2back/STIM_013.jpg
171.865	0.581	correct	2back	Block1	2back/STIM_014.jpg
174.923	0.87	correct	2back	Block1	2back/STIM_014.jpg
178.521	0.942	correct	2back	Block1	2back/STIM_014.jpg
182.014	0.813	correct	2back	Block1	2back/STIM_015.jpg
185.925	0.742	correct	2back	Block1	2back/STIM_015.jpg
188.711	1.21	correct	2back	Block1	2back/STIM_015.jpg
193.735	1.241	correct	2back	Block1	2back/STIM_016.jpg
198.738	0.655	correct	2back	Block1	2back/STIM_016.jpg
201.44	0.719	correct	2back	Block1	2back/STIM_016.jpg
205.959	1.296	correct	2back	Block1	2back/STIM_017.jpg
210.678	1.219	correct	2back	Block1	2back/STIM_017.jpg
214.245	0.877	correct	2back	Block1	2back/STIM_017.jpg
217.931	1.122	incorrect	2back	Block1	2back/STIM_018.jpg
221.573	0.722	correct	2back	Block1	2back/STIM_018.jpg
225.367	0.566	correct	2back	Block1	2back/STIM_018.jpg
229.561	1.101	correct	2back	Block1	2back/STIM_019.jpg
234.472	0.816	correct	2back	Block1	2back/STIM_019.jpg
238.147	1.074	correct	2back	Block1	2back/STIM_019.jpg
241.832	0.976	correct	2back	Block1	2back/STIM_020.jpg
245.37	1.267	incorrect	2back	Block1	2back/STIM_020.jpg
249.534	0.976	correct	2back	Block1	2back/STIM_020.jpg
254.269	1.029	correct	2back	Block1	2back/STIM_021.jpg
257.354	0.811	correct	2back	Block1	2back/STIM_021.jpg
260.785	0.817	correct	2back	Block1	2back/STIM_021.jpg
265.528	1.249	incorrect	2back	Block1	2back/STIM_022.jpg
270.598	1.298	correct	2back	Block1	2back/STIM_022.jpg
275.609	1.053	incorrect	2back	Block1	2back/STIM_022.jpg
279.478	1.044	correct	2back	Block1	2back/STIM_023.jpg
283.501	0.987	correct	2back	Block1	2back/STIM_023.jpg
286.615	0.943	incorrect	2back	Block1	2back/STIM_023.jpg
291.476	0.756	correct	2back	Block1	2back/STIM_024.jpg
294.593	1.279	correct	2back	Block1	2back/STIM_024.jpg
298.668	0.613	correct	2back	Block1	2back/STIM_024.jpg
302.139	1.257	correct	2back	Block1	2back/STIM_025.jpg
305.615	1.04	correct	2back	Block1	2back/STIM_025.jpg
310.208	0.626	correct	2back	Block1	2back/STIM_025.jpg
313.486	0.904	correct	2back	Block1	2back/STIM_026.jpg
317.881	0.691	correct	2back	Block1	2back/STIM_026.jpg
320.721	0.831	correct	2back	Block1	2back/STIM_026.jpg
325.02	1.065	correct	2back	Block1	2back/STIM_027.jpg
329.664	1.222	correct	2back	Block1	2back/STIM_027.jpg
334.097	0.811	correct	2back	Block1	2back/STIM_027.jpg
338.582	1.051	correct	2back	Block1	2back/STIM_028.jpg
341.833	1.024	correct	2back	Block1	2back/STIM_028.jpg
346.469	1.193	correct	2back	Block1	2back/STIM_028.jpg
349.959	1.016	correct	2back	Block1	2back/STIM_029.jpg
354.598	0.785	correct	2back	Block1	2back/STIM_029.jpg
357.729	0.854	correct	2back	Block1	2back/STIM_029.jpg
360.709	1.127	incorrect	2back	Block1	2back/STIM_030.jpg
365.075	1.308	incorrect	2back	Block1	2back/STIM_030.jpg
368.591	0.748	correct	2back	Block1	2back/STIM_030.jpg
373.244	1.019	incorrect	2back	Block1	2back/STIM_031.jpg
376.516	1.197	correct	2back	Block1	2back/STIM_031.jpg
381.286	1.157	correct	2back	Block1	2back/STIM_031.jpg
384.75	1.262	correct	2back	Block1	2back/STIM_032.jpg
389.453	0.879	correct	2back	Block1	2back/STIM_032.jpg
393.183	0.637	correct	2back	Block1	2back/STIM_032.jpg
397.153	0.966	correct	2back	Block1	2back/STIM_033.jpg
400.866	0.88	correct	2back	Block1	2back/STIM_033.jpg
405.596	1.104	correct	2back	Block1	2back/STIM_033.jpg
409.326	0.966	incorrect	2back	Block1	2back/STIM_034.jpg
412.868	0.935	correct	2back	Block1	2back/STIM_034.jpg
417.314	1.072	correct	2back	Block1	2back/STIM_034.jpg
422.306	1.012	correct	2back	Block1	2back/STIM_035.jpg
426.925	1.314	correct	2back	Block1	2back/STIM_035.jpg
431.086	1.306	correct	2back	Block1	2back/STIM_035.jpg
436.266	0.637	incorrect	2back	Block1	2back/STIM_036.jpg
439.352	1.411	correct	2back	Block1	2back/STIM_036.jpg
442.858	0.528	correct	2back	Block1	2back/STIM_036.jpg
446.778	0.819	correct	2back	Block1	2back/STIM_037.jpg
449.702	1.036	correct	2back	Block1	2back/STIM_037.jpg
453.403	0.744	correct	2back	Block1	2back/STIM_037.jpg
456.415	0.868	correct	2back	Block1	2back/STIM_038.jpg
459.367	1.21	correct	2back	Block1	2back/STIM_038.jpg
463.864	1.124	correct	2back	Block1	2back/STIM_038.jpg
467.82	1.365	correct	2back	Block1	2back/STIM_039.jpg
471.637	0.832	correct	2back	Block1	2back/STIM_039.jpg
476.408	0.763	correct	2back	Block1	2back/STIM_039.jpg
479.281	0.714	correct	0back	Block1	0back/STIM_000.jpg
483.698	0.608	correct	0back	Block1	0back/STIM_000.jpg
487.502	0.462	correct	0back	Block1	0back/STIM_000.jpg
489.948	0.406	correct	0back	Block1	0back/STIM_001.jpg
492.779	0.755	correct	0back	Block1	0back/STIM_001.jpg
497.175	0.44	correct	0back	Block1	0back/STIM_001.jpg
500.266	0.699	correct	0back	Block1	0back/STIM_002.jpg
504.285	0.497	correct	0back	Block1	0back/STIM_002.jpg
508.839	0.862	correct	0back	Block1	0back/STIM_002.jpg
512.77	0.803	correct	0back	Block1	0back/STIM_003.jpg
516.482	0.608	correct	0back	Block1	0back/STIM_003.jpg
521.117	0.565	correct	0back	Block1	0back/STIM_003.jpg
524.276	0.7	correct	0back	Block1	0back/STIM_004.jpg
528.197	0.61	correct	0back	Block1	0back/STIM_004.jpg
531.641	0.481	correct	0back	Block1	0back/STIM_004.jpg
535.643	0.672	correct	0back	Block1	0back/STIM_005.jpg
540.019	0.523	correct	0back	Block1	0back/STIM_005.jpg
542.765	0.55	correct	0back	Block1	0back/STIM_005.jpg
547.168	0.6	correct	0back	Block1	0back/STIM_006.jpg
550.475	0.574	correct	0back	Block1	0back/STIM_006.jpg
554.758	0.755	correct	0back	Block1	0back/STIM_006.jpg
557.798	0.775	incorrect	0back	Block1	0back/STIM_007.jpg
560.914	0.485	correct	0back	Block1	0back/STIM_007.jpg
563.604	0.654	correct	0back	Block1	0back/STIM_007.jpg
566.572	0.656	correct	0back	Block1	0back/STIM_008.jpg
569.411	0.572	correct	0back	Block1	0back/STIM_008.jpg
572.002	0.781	correct	0back	Block1	0back/STIM_008.jpg
575.176	0.781	correct	0back	Block1	0back/STIM_009.jpg
578.987	0.555	correct	0back	Block1	0back/STIM_009.jpg
582.893	0.563	correct	0back	Block1	0back/STIM_009.jpg
586.613	0.764	correct	0back	Block1	0back/STIM_010.jpg
590.636	0.52	correct	0back	Block1	0back/STIM_010.jpg
593.179	0.477	correct	0back	Block1	0back/STIM_010.jpg
596.6	0.485	correct	0back	Block1	0back/STIM_011.jpg
600.827	0.772	correct	0back	Block1	0back/STIM_011.jpg
605.416	0.385	correct	0back	Block1	0back/STIM_011.jpg
607.993	0.483	incorrect	0back	Block1	0back/STIM_012.jpg
610.47	0.588	incorrect	0back	Block1	0back/STIM_012.jpg
613.421	0.821	correct	0back	Block1	0back/STIM_012.jpg
616.644	0.496	correct	0back	Block1	0back/STIM_013.jpg
620.144	0.568	correct	0back	Block1	0back/STIM_013.jpg
623.266	0.734	correct	0back	Block1	0back/STIM_013.jpg
625.976	0.77	correct	0back	Block1	0back/STIM_014.jpg
630.378	0.573	correct	0back	Block1	0back/STIM_014.jpg
634.728	0.529	correct	0back	Block1	0back/STIM_014.jpg
638.218	0.734	correct	0back	Block1	0back/STIM_015.jpg
642.768	0.675	correct	0back	Block1	0back/STIM_015.jpg
647.311	0.808	correct	0back	Block1	0back/STIM_015.jpg
651.147	0.549	correct	0back	Block1	0back/STIM_016.jpg
654.177	0.763	correct	0back	Block1	0back/STIM_016.jpg
658.291	0.685	correct	0back	Block1	0back/STIM_016.jpg
661.701	0.456	correct	0back	Block1	0back/STIM_017.jpg
665.044	0.408	correct	0back	Block1	0back/STIM_017.jpg
667.943	0.661	correct	0back	Block1	0back/STIM_017.jpg
671.449	0.668	correct	0back	Block1	0back/STIM_018.jpg
674.819	0.724	correct	0back	Block1	0back/STIM_018.jpg
679.337	0.436	correct	0back	Block1	0back/STIM_018.jpg
683.217	0.719	correct	0back	Block1	0back/STIM_019.jpg
687.796	0.799	correct	0back	Block1	0back/STIM_019.jpg
691.145	0.601	correct	0back	Block1	0back/STIM_019.jpg
694.944	0.804	incorrect	2back	Block2	2back/STIM_000.jpg
699.75	1.076	correct	2back	Block2	2back/STIM_000.jpg
704.113	0.976	correct	2back	Block2	2back/STIM_000.jpg
707.089	0.746	correct	2back	Block2	2back/STIM_001.jpg
711.167	0.889	correct	2back	Block2	2back/STIM_001.jpg
714.581	0.672	correct	2back	Block2	2back/STIM_001.jpg
719.079	1.14	correct	2back	Block2	2back/STIM_002.jpg
722.668	0.526	correct	2back	Block2	2back/STIM_002.jpg
726.757	0.534	correct	2back	Block2	2back/STIM_002.jpg
730.056	0.543	incorrect	2back	Block2	2back/STIM_003.jpg
734.294	0.718	correct	2back	Block2	2back/STIM_003.jpg
738.094	0.902	correct	2back	Block2	2back/STIM_003.jpg
742.049	1.236	correct	2back	Block2	2back/STIM_004.jpg
746.223	0.662	correct	2back	Block2	2back/STIM_004.jpg
750.375	0.643	correct	2back	Block2	2back/STIM_004.jpg
753.735	0.776	correct	2back	Block2	2back/STIM_005.jpg
757.714	0.707	correct	2back	Block2	2back/STIM_005.jpg
761.523	1.008	correct	2back	Block2	2back/STIM_005.jpg
765.771	1.076	correct	2back	Block2	2back/STIM_006.jpg
769.565	0.782	correct	2back	Block2	2back/STIM_006.jpg
772.645	0.98	correct	2back	Block2	2back/STIM_006.jpg
777.016	1.195	correct	2back	Block2	2back/STIM_007.jpg
781.628	0.995	correct	2back	Block2	2back/STIM_007.jpg
785.928	1.067	correct	2back	Block2	2back/STIM_007.jpg
789.069	0.883	correct	2back	Block2	2back/STIM_008.jpg
793.619	0.528	correct	2back	Block2	2back/STIM_008.jpg
798.069	0.804	correct	2back	Block2	2back/STIM_008.jpg
801.397	1.062	correct	2back	Block2	2back/STIM_009.jpg
805.972	0.735	correct	2back	Block2	2back/STIM_009.jpg
810.504	0.766	correct	2back	Block2	2back/STIM_009.jpg
814.681	1.027	correct	2back	Block2	2back/STIM_010.jpg
818.338	0.492	correct	2back	Block2	2back/STIM_010.jpg
822.692	0.613	correct	2back	Block2	2back/STIM_010.jpg
825.663	0.66	correct	2back	Block2	2back/STIM_011.jpg
830.282	1.04	correct	2back	Block2	2back/STIM_011.jpg
834.496	0.697	incorrect	2back	Block2	2back/STIM_011.jpg
838.203	0.663	correct	2back	Block2	2back/STIM_012.jpg
842.103	0.706	incorrect	2back	Block2	2back/STIM_012.jpg
845.183	0.479	correct	2back	Block2	2back/STIM_012.jpg
849.656	0.596	correct	2back	Block2	2back/STIM_013.jpg
853.707	0.696	correct	2back	Block2	2back/STIM_013.jpg
856.827	0.926	correct	2back	Block2	2back/STIM_013.jpg
859.753	0.871	correct	2back	Block2	2back/STIM_014.jpg
863.919	0.93	correct	2back	Block2	2back/STIM_014.jpg
867.205	0.93	correct	2back	Block2	2back/STIM_014.jpg
870.513	0.82	correct	2back	Block2	2back/STIM_015.jpg
874.483	0.643	correct	2back	Block2	2back/STIM_015.jpg
877.5	0.704	correct	2back	Block2	2back/STIM_015.jpg
881.207	0.987	correct	2back	Block2	2back/STIM_016.jpg
884.757	0.726	correct	2back	Block2	2back/STIM_016.jpg
888.652	1.012	incorrect	2back	Block2	2back/STIM_016.jpg
893.538	1.223	correct	2back	Block2	2back/STIM_017.jpg
897.932	1.126	correct	2back	Block2	2back/STIM_017.jpg
902.033	0.841	correct	2back	Block2	2back/STIM_017.jpg
906.725	1.051	correct	2back	Block2	2back/STIM_018.jpg
910.53	0.94	incorrect	2back	Block2	2back/STIM_018.jpg
915.009	0.824	correct	2back	Block2	2back/STIM_018.jpg
917.872	1.178	correct	2back	Block2	2back/STIM_019.jpg
921.19	0.523	correct	2back	Block2	2back/STIM_019.jpg
925.167	0.906	correct	2back	Block2	2back/STIM_019.jpg
928.67	0.88	correct	2back	Block2	2back/STIM_020.jpg
932.218	0.938	correct	2back	Block2	2back/STIM_020.jpg
936.178	1.08	incorrect	2back	Block2	2back/STIM_020.jpg
939.239	1.18	correct	2back	Block2	2back/STIM_021.jpg
942.945	0.594	correct	2back	Block2	2back/STIM_021.jpg
946.882	0.724	correct	2back	Block2	2back/STIM_021.jpg
951.04	0.659	correct	2back	Block2	2back/STIM_022.jpg
954.823	0.497	incorrect	2back	Block2	2back/STIM_022.jpg
957.862	0.55	correct	2back	Block2	2back/STIM_022.jpg
960.696	0.83	correct	2back	Block2	2back/STIM_023.jpg
965.536	0.763	incorrect	2back	Block2	2back/STIM_023.jpg
970.03	0.887	correct	2back	Block2	2back/STIM_023.jpg
974.599	0.636	incorrect	2back	Block2	2back/STIM_024.jpg
979.118	0.658	correct	2back	Block2	2back/STIM_024.jpg
982.021	0.877	correct	2back	Block2	2back/STIM_024.jpg
986.8	0.773	correct	2back	Block2	2back/STIM_025.jpg
990.428	0.79	correct	2back	Block2	2back/STIM_025.jpg
993.465	0.64	incorrect	2back	Block2	2back/STIM_025.jpg
997.18	0.863	correct	2back	Block2	2back/STIM_026.jpg
1000.829	1.145	correct	2back	Block2	2back/STIM_026.jpg
1004.835	0.883	correct	2back	Block2	2back/STIM_026.jpg
1008.44	0.578	correct	2back	Block2	2back/STIM_027.jpg
1011.798	0.919	correct	2back	Block2	2back/STIM_027.jpg
1014.897	0.52	correct	2back	Block2	2back/STIM_027.jpg
1019.148	1.111	correct	2back	Block2	2back/STIM_028.jpg
1024.0	0.992	correct	2back	Block2	2back/STIM_028.jpg
1027.402	0.937	correct	2back	Block2	2back/STIM_028.jpg
1031.237	1.112	correct	2back	Block2	2back/STIM_029.jpg
1035.875	0.741	correct	2back	Block2	2back/STIM_029.jpg
1040.056	0.539	correct	2back	Block2	2back/STIM_029.jpg
1042.879	0.566	incorrect	2back	Block2	2back/STIM_030.jpg
1045.544	1.01	correct	2back	Block2	2back/STIM_030.jpg
1048.877	0.494	incorrect	2back	Block2	2back/STIM_030.jpg
1051.735	0.873	correct	2back	Block2	2back/STIM_031.jpg
1055.021	0.824	correct	2back	Block2	2back/STIM_031.jpg
1058.737	0.328	correct	2back	Block2	2back/STIM_031.jpg
1061.702	1.147	correct	2back	Block2	2back/STIM_032.jpg
1065.953	0.575	correct	2back	Block2	2back/STIM_032.jpg
1069.873	0.968	correct	2back	Block2	2back/STIM_032.jpg
1073.385	0.646	correct	2back	Block2	2back/STIM_033.jpg
1076.344	0.974	correct	2back	Block2	2back/STIM_033.jpg
1080.547	1.044	correct	2back	Block2	2back/STIM_033.jpg
1083.901	0.725	correct	2back	Block2	2back/STIM_034.jpg
1087.774	0.697	correct	2back	Block2	2back/STIM_034.jpg
1091.177	0.947	correct	2back	Block2	2back/STIM_034.jpg
1094.983	0.939	correct	2back	Block2	2back/STIM_035.jpg
1098.179	0.684	correct	2back	Block2	2back/STIM_035.jpg
1102.521	0.527	correct	2back	Block2	2back/STIM_035.jpg
1105.54	0.84	correct	2back	Block2	2back/STIM_036.jpg
1109.253	0.594	correct	2back	Block2	2back/STIM_036.jpg
1113.602	0.867	correct	2back	Block2	2back/STIM_036.jpg
1117.867	0.977	correct	2back	Block2	2back/STIM_037.jpg
1121.316	1.044	correct	2back	Block2	2back/STIM_037.jpg
1124.959	0.433	correct	2back	Block2	2back/STIM_037.jpg
1128.465	0.943	correct	2back	Block2	2back/STIM_038.jpg
1132.445	0.879	correct	2back	Block2	2back/STIM_038.jpg
1136.267	1.006	correct	2back	Block2	2back/STIM_038.jpg
1139.681	0.782	correct	2back	Block2	2back/STIM_039.jpg
1142.86	1.071	correct	2back	Block2	2back/STIM_039.jpg
1147.647	0.94	correct	2back	Block2	2back/STIM_039.jpg
1150.995	0.655	correct	0back	Block2	0back/STIM_000.jpg
1155.166	0.536	correct	0back	Block2	0back/STIM_000.jpg
1158.649	0.531	correct	0back	Block2	0back/STIM_000.jpg
1162.04	0.557	correct	0back	Block2	0back/STIM_001.jpg
1164.73	0.722	correct	0back	Block2	0back/STIM_001.jpg
1167.725	0.389	correct	0back	Block2	0back/STIM_001.jpg
1171.056	0.502	correct	0back	Block2	0back/STIM_002.jpg
1173.84	0.516	correct	0back	Block2	0back/STIM_002.jpg
1177.242	0.539	correct	0back	Block2	0back/STIM_002.jpg
1180.803	0.665	correct	0back	Block2	0back/STIM_003.jpg
1183.994	0.613	correct	0back	Block2	0back/STIM_003.jpg
1186.697	0.472	correct	0back	Block2	0back/STIM_003.jpg
1189.662	0.554	correct	0back	Block2	0back/STIM_004.jpg
1192.299	0.675	incorrect	0back	Block2	0back/STIM_004.jpg
1195.413	0.584	correct	0back	Block2	0back/STIM_004.jpg
1198.378	0.688	correct	0back	Block2	0back/STIM_005.jpg
1202.368	0.416	correct	0back	Block2	0back/STIM_005.jpg
1205.245	0.565	correct	0back	Block2	0back/STIM_005.jpg
1208.022	0.548	correct	0back	Block2	0back/STIM_006.jpg
1210.886	0.632	correct	0back	Block2	0back/STIM_006.jpg
1215.133	0.417	correct	0back	Block2	0back/STIM_006.jpg
1219.196	0.765	correct	0back	Block2	0back/STIM_007.jpg
1223.033	0.636	correct	0back	Block2	0back/STIM_007.jpg
1227.709	0.608	correct	0back	Block2	0back/STIM_007.jpg
1231.411	0.475	correct	0back	Block2	0back/STIM_008.jpg
1233.864	0.772	correct	0back	Block2	0back/STIM_008.jpg
1237.08	0.513	correct	0back	Block2	0back/STIM_008.jpg
1239.664	0.7	correct	0back	Block2	0back/STIM_009.jpg
1243.318	0.672	correct	0back	Block2	0back/STIM_009.jpg
1246.584	0.719	correct	0back	Block2	0back/STIM_009.jpg
1250.754	0.675	correct	0back	Block2	0back/STIM_010.jpg
1254.21	0.584	correct	0back	Block2	0back/STIM_010.jpg
1257.963	0.62	correct	0back	Block2	0back/STIM_010.jpg
1262.093	0.565	correct	0back	Block2	0back/STIM_011.jpg
1265.525	0.592	correct	0back	Block2	0back/STIM_011.jpg
1269.259	0.547	correct	0back	Block2	0back/STIM_011.jpg
1272.244	0.835	correct	0back	Block2	0back/STIM_012.jpg
1275.302	0.628	correct	0back	Block2	0back/STIM_012.jpg
1279.852	0.794	correct	0back	Block2	0back/STIM_012.jpg
1284.368	0.388	correct	0back	Block2	0back/STIM_013.jpg
1288.646	0.653	correct	0back	Block2	0back/STIM_013.jpg
1292.856	0.671	correct	0back	Block2	0back/STIM_013.jpg
1296.022	0.638	correct	0back	Block2	0back/STIM_014.jpg
1299.09	0.675	correct	0back	Block2	0back/STIM_014.jpg
1302.436	0.707	correct	0back	Block2	0back/STIM_014.jpg
1305.259	0.63	correct	0back	Block2	0back/STIM_015.jpg
1309.002	0.783	correct	0back	Block2	0back/STIM_015.jpg
1312.437	0.708	correct	0back	Block2	0back/STIM_015.jpg
1316.076	0.396	correct	0back	Block2	0back/STIM_016.jpg
1319.106	0.647	correct	0back	Block2	0back/STIM_016.jpg
1323.404	0.815	correct	0back	Block2	0back/STIM_016.jpg
1327.568	0.459	correct	0back	Block2	0back/STIM_017.jpg
1331.449	0.559	correct	0back	Block2	0back/STIM_017.jpg
1335.826	0.78	correct	0back	Block2	0back/STIM_017.jpg
1339.59	0.643	correct	0back	Block2	0back/STIM_018.jpg
1343.646	0.578	correct	0back	Block2	0back/STIM_018.jpg
1346.868	0.636	correct	0back	Block2	0back/STIM_018.jpg
1350.464	0.579	correct	0back	Block2	0back/STIM_019.jpg
1354.627	0.549	correct	0back	Block2	0back/STIM_019.jpg
1358.792	0.723	correct	0back	Block2	0back/STIM_019.jpg
1362.675	0.519	correct	2back	Block3	2back/STIM_000.jpg
1366.064	0.413	correct	2back	Block3	2back/STIM_000.jpg
1370.254	0.668	correct	2back	Block3	2back/STIM_000.jpg
1373.37	0.896	correct	2back	Block3	2back/STIM_001.jpg
1376.547	0.557	correct	2back	Block3	2back/STIM_001.jpg
1379.668	0.9	correct	2back	Block3	2back/STIM_001.jpg
1383.527	0.711	correct	2back	Block3	2back/STIM_002.jpg
1387.87	0.938	correct	2back	Block3	2back/STIM_002.jpg
1391.88	0.713	correct	2back	Block3	2back/STIM_002.jpg
1394.677	0.77	correct	2back	Block3	2back/STIM_003.jpg
1398.155	0.549	correct	2back	Block3	2back/STIM_003.jpg
1401.325	0.78	correct	2back	Block3	2back/STIM_003.jpg
1404.758	0.599	correct	2back	Block3	2back/STIM_004.jpg
1408.128	0.766	correct	2back	Block3	2back/STIM_004.jpg
1411.563	0.574	correct	2back	Block3	2back/STIM_004.jpg
1415.327	0.664	correct	2back	Block3	2back/STIM_005.jpg
1418.997	0.849	correct	2back	Block3	2back/STIM_005.jpg
1422.963	0.633	correct	2back	Block3	2back/STIM_005.jpg
1426.372	0.513	correct	2back	Block3	2back/STIM_006.jpg
1428.924	0.945	correct	2back	Block3	2back/STIM_006.jpg
1432.341	0.675	correct	2back	Block3	2back/STIM_006.jpg
1436.367	0.878	correct	2back	Block3	2back/STIM_007.jpg
1441.046	0.818	correct	2back	Block3	2back/STIM_007.jpg
1444.149	0.681	correct	2back	Block3	2back/STIM_007.jpg
1447.05	0.534	incorrect	2back	Block3	2back/STIM_008.jpg
1449.697	0.486	correct	2back	Block3	2back/STIM_008.jpg
1453.237	0.418	correct	2back	Block3	2back/STIM_008.jpg
1456.844	0.709	correct	2back	Block3	2back/STIM_009.jpg
1460.93	0.442	correct	2back	Block3	2back/STIM_009.jpg
1463.517	0.501	correct	2back	Block3	2back/STIM_009.jpg
1466.143	0.787	correct	2back	Block3	2back/STIM_010.jpg
1469.735	0.532	correct	2back	Block3	2back/STIM_010.jpg
1473.094	0.603	correct	2back	Block3	2back/STIM_010.jpg
1476.361	0.434	correct	2back	Block3	2back/STIM_011.jpg
1480.817	0.968	correct	2back	Block3	2back/STIM_011.jpg
1485.556	0.541	correct	2back	Block3	2back/STIM_011.jpg
1488.224	0.566	correct	2back	Block3	2back/STIM_012.jpg
1491.44	0.608	correct	2back	Block3	2back/STIM_012.jpg
1495.587	0.902	correct	2back	Block3	2back/STIM_012.jpg
1498.798	0.762	correct	2back	Block3	2back/STIM_013.jpg
1502.477	0.796	correct	2back	Block3	2back/STIM_013.jpg
1507.136	0.892	correct	2back	Block3	2back/STIM_013.jpg
1511.355	0.51	correct	2back	Block3	2back/STIM_014.jpg
1514.426	0.808	correct	2back	Block3	2back/STIM_014.jpg
1518.553	0.628	correct	2back	Block3	2back/STIM_014.jpg
1522.749	0.41	correct	2back	Block3	2back/STIM_015.jpg
1525.555	0.866	correct	2back	Block3	2back/STIM_015.jpg
1529.765	0.602	correct	2back	Block3	2back/STIM_015.jpg
1534.294	0.772	correct	2back	Block3	2back/STIM_016.jpg
1538.0	0.616	correct	2back	Block3	2back/STIM_016.jpg
1542.441	0.812	correct	2back	Block3	2back/STIM_016.jpg
1546.389	0.756	correct	2back	Block3	2back/STIM_017.jpg
1549.898	0.368	correct	2back	Block3	2back/STIM_017.jpg
1552.597	0.741	correct	2back	Block3	2back/STIM_017.jpg
1556.12	0.666	correct	2back	Block3	2back/STIM_018.jpg
1559.673	0.795	incorrect	2back	Block3	2back/STIM_018.jpg
1564.356	0.762	correct	2back	Block3	2back/STIM_018.jpg
1568.775	0.715	correct	2back	Block3	2back/STIM_019.jpg
1573.178	0.407	correct	2back	Block3	2back/STIM_019.jpg
1576.595	0.545	correct	2back	Block3	2back/STIM_019.jpg
1580.541	0.844	correct	2back	Block3	2back/STIM_020.jpg
1585.176	1.016	correct	2back	Block3	2back/STIM_020.jpg
1589.102	0.396	correct	2back	Block3	2back/STIM_020.jpg
1592.597	0.687	correct	2back	Block3	2back/STIM_021.jpg
1595.56	0.944	correct	2back	Block3	2back/STIM_021.jpg
1598.78	0.515	correct	2back	Block3	2back/STIM_021.jpg
1603.169	0.735	correct	2back	Block3	2back/STIM_022.jpg
1606.198	0.446	correct	2back	Block3	2back/STIM_022.jpg
1608.994	0.829	correct	2back	Block3	2back/STIM_022.jpg
1613.277	0.703	correct	2back	Block3	2back/STIM_023.jpg
1617.396	0.696	correct	2back	Block3	2back/STIM_023.jpg
1620.007	0.945	correct	2back	Block3	2back/STIM_023.jpg
1623.705	0.778	correct	2back	Block3	2back/STIM_024.jpg
1627.552	0.74	correct	2back	Block3	2back/STIM_024.jpg
1631.795	0.945	correct	2back	Block3	2back/STIM_024.jpg
1635.962	0.83	correct	2back	Block3	2back/STIM_025.jpg
1639.937	0.508	correct	2back	Block3	2back/STIM_025.jpg
1644.333	0.683	correct	2back	Block3	2back/STIM_025.jpg
1647.407	0.83	correct	2back	Block3	2back/STIM_026.jpg
1651.893	0.924	correct	2back	Block3	2back/STIM_026.jpg
1655.468	0.585	correct	2back	Block3	2back/STIM_026.jpg
1659.244	0.465	correct	2back	Block3	2back/STIM_027.jpg
1662.12	0.518	correct	2back	Block3	2back/STIM_027.jpg
1666.228	0.779	correct	2back	Block3	2back/STIM_027.jpg
1670.331	0.919	correct	2back	Block3	2back/STIM_028.jpg
1674.271	0.446	correct	2back	Block3	2back/STIM_028.jpg
1676.847	0.757	correct	2back	Block3	2back/STIM_028.jpg
1680.748	0.764	correct	2back	Block3	2back/STIM_029.jpg
1684.83	0.728	correct	2back	Block3	2back/STIM_029.jpg
1689.453	0.844	correct	2back	Block3	2back/STIM_029.jpg
1693.099	0.376	correct	2back	Block3	2back/STIM_030.jpg
1696.391	0.695	correct	2back	Block3	2back/STIM_030.jpg
1700.852	0.769	correct	2back	Block3	2back/STIM_030.jpg
1703.591	0.731	correct	2back	Block3	2back/STIM_031.jpg
1706.81	0.818	correct	2back	Block3	2back/STIM_031.jpg
1710.432	0.584	correct	2back	Block3	2back/STIM_031.jpg
1714.046	0.663	correct	2back	Block3	2back/STIM_032.jpg
1716.828	0.91	correct	2back	Block3	2back/STIM_032.jpg
1720.726	0.91	correct	2back	Block3	2back/STIM_032.jpg
1725.389	0.772	correct	2back	Block3	2back/STIM_033.jpg
1729.674	0.728	correct	2back	Block3	2back/STIM_033.jpg
1734.07	0.685	correct	2back	Block3	2back/STIM_033.jpg
1737.112	0.576	correct	2back	Block3	2back/STIM_034.jpg
1740.664	0.767	correct	2back	Block3	2back/STIM_034.jpg
1743.472	0.86	correct	2back	Block3	2back/STIM_034.jpg
1748.168	0.877	correct	2back	Block3	2back/STIM_035.jpg
1751.583	0.704	correct	2back	Block3	2back/STIM_035.jpg
1755.69	0.744	correct	2back	Block3	2back/STIM_035.jpg
1759.267	0.775	correct	2back	Block3	2back/STIM_036.jpg
1763.566	0.844	correct	2back	Block3	2back/STIM_036.jpg
1766.617	0.648	correct	2back	Block3	2back/STIM_036.jpg
1769.347	0.445	correct	2back	Block3	2back/STIM_037.jpg
1773.283	0.838	correct	2back	Block3	2back/STIM_037.jpg
1777.217	0.591	correct	2back	Block3	2back/STIM_037.jpg
1781.526	0.569	correct	2back	Block3	2back/STIM_038.jpg
1785.38	0.431	correct	2back	Block3	2back/STIM_038.jpg
1788.906	0.569	correct	2back	Block3	2back/STIM_038.jpg
1792.811	0.722	correct	2back	Block3	2back/STIM_039.jpg
1795.928	0.915	correct	2back	Block3	2back/STIM_039.jpg
1800.501	0.428	incorrect	2back	Block3	2back/STIM_039.jpg
1804.298	0.477	correct	0back	Block3	0back/STIM_000.jpg
1807.34	0.386	correct	0back	Block3	0back/STIM_000.jpg
1809.898	0.821	correct	0back	Block3	0back/STIM_000.jpg
1813.934	0.689	correct	0back	Block3	0back/STIM_001.jpg
1816.975	0.622	correct	0back	Block3	0back/STIM_001.jpg
1820.26	0.573	correct	0back	Block3	0back/STIM_001.jpg
1823.479	0.752	correct	0back	Block3	0back/STIM_002.jpg
1827.332	0.858	correct	0back	Block3	0back/STIM_002.jpg
1832.022	0.442	correct	0back	Block3	0back/STIM_002.jpg
1835.299	0.778	correct	0back	Block3	0back/STIM_003.jpg
1838.136	0.47	correct	0back	Block3	0back/STIM_003.jpg
1840.719	0.522	incorrect	0back	Block3	0back/STIM_003.jpg
1844.942	0.448	correct	0back	Block3	0back/STIM_004.jpg
1847.97	0.623	correct	0back	Block3	0back/STIM_004.jpg
1852.498	0.715	correct	0back	Block3	0back/STIM_004.jpg
1855.647	0.744	correct	0back	Block3	0back/STIM_005.jpg
1859.021	0.808	correct	0back	Block3	0back/STIM_005.jpg
1862.359	0.615	correct	0back	Block3	0back/STIM_005.jpg
1866.187	0.713	correct	0back	Block3	0back/STIM_006.jpg
1869.647	0.657	correct	0back	Block3	0back/STIM_006.jpg
1874.334	0.566	correct	0back	Block3	0back/STIM_006.jpg
1878.834	0.557	correct	0back	Block3	0back/STIM_007.jpg
1881.524	0.512	correct	0back	Block3	0back/STIM_007.jpg
1885.108	0.555	correct	0back	Block3	0back/STIM_007.jpg
1888.858	0.731	correct	0back	Block3	0back/STIM_008.jpg
1891.933	0.687	correct	0back	Block3	0back/STIM_008.jpg
1895.025	0.581	correct	0back	Block3	0back/STIM_008.jpg
1899.258	0.715	correct	0back	Block3	0back/STIM_009.jpg
1902.637	0.623	correct	0back	Block3	0back/STIM_009.jpg
1906.291	0.709	correct	0back	Block3	0back/STIM_009.jpg
1911.008	0.413	correct	0back	Block3	0back/STIM_010.jpg
1915.156	0.522	correct	0back	Block3	0back/STIM_010.jpg
1919.086	0.756	correct	0back	Block3	0back/STIM_010.jpg
1922.818	0.54	correct	0back	Block3	0back/STIM_011.jpg
1926.732	0.85	correct	0back	Block3	0back/STIM_011.jpg
1930.485	0.427	correct	0back	Block3	0back/STIM_011.jpg
1933.985	0.741	correct	0back	Block3	0back/STIM_012.jpg
1937.141	0.711	correct	0back	Block3	0back/STIM_012.jpg
1940.767	0.762	correct	0back	Block3	0back/STIM_012.jpg
1945.072	0.745	correct	0back	Block3	0back/STIM_013.jpg
1948.71	0.773	correct	0back	Block3	0back/STIM_013.jpg
1951.974	0.39	correct	0back	Block3	0back/STIM_013.jpg
1955.888	0.75	correct	0back	Block3	0back/STIM_014.jpg
1959.214	0.691	correct	0back	Block3	0back/STIM_014.jpg
1962.482	0.647	correct	0back	Block3	0back/STIM_014.jpg
1965.28	0.685	correct	0back	Block3	0back/STIM_015.jpg
1968.066	0.625	correct	0back	Block3	0back/STIM_015.jpg
1971.003	0.75	correct	0back	Block3	0back/STIM_015.jpg
1974.824	0.504	correct	0back	Block3	0back/STIM_016.jpg
1977.679	0.497	correct	0back	Block3	0back/STIM_016.jpg
1980.809	0.666	correct	0back	Block3	0back/STIM_016.jpg
1984.574	0.565	correct	0back	Block3	0back/STIM_017.jpg
1988.479	0.458	correct	0back	Block3	0back/STIM_017.jpg
1991.346	0.69	correct	0back	Block3	0back/STIM_017.jpg
1994.112	0.48	correct	0back	Block3	0back/STIM_018.jpg
1998.392	0.739	correct	0back	Block3	0back/STIM_018.jpg
2001.239	0.65	correct	0back	Block3	0back/STIM_018.jpg
2004.361	0.807	correct	0back	Block3	0back/STIM_019.jpg
2007.989	0.578	correct	0back	Block3	0back/STIM_019.jpg
2011.11	0.523	correct	0back	Block3	0back/STIM_019.jpg
2015.548	0.538	correct	2back	Block4	2back/STIM_000.jpg
2018.693	0.468	correct	2back	Block4	2back/STIM_000.jpg
2021.446	0.665	correct	2back	Block4	2back/STIM_000.jpg
2024.672	0.799	correct	2back	Block4	2back/STIM_001.jpg
2027.828	0.892	correct	2back	Block4	2back/STIM_001.jpg
2030.806	0.965	correct	2back	Block4	2back/STIM_001.jpg
2034.566	0.465	correct	2back	Block4	2back/STIM_002.jpg
2037.216	0.601	correct	2back	Block4	2back/STIM_002.jpg
2040.686	0.566	correct	2back	Block4	2back/STIM_002.jpg
2044.175	0.977	correct	2back	Block4	2back/STIM_003.jpg
2047.949	0.923	correct	2back	Block4	2back/STIM_003.jpg
2051.836	0.957	correct	2back	Block4	2back/STIM_003.jpg
2055.08	0.896	correct	2back	Block4	2back/STIM_004.jpg
2058.908	0.545	correct	2back	Block4	2back/STIM_004.jpg
2061.59	0.656	correct	2back	Block4	2back/STIM_004.jpg
2064.447	0.909	correct	2back	Block4	2back/STIM_005.jpg
2069.272	0.488	correct	2back	Block4	2back/STIM_005.jpg
2072.866	0.516	correct	2back	Block4	2back/STIM_005.jpg
2076.836	0.901	correct	2back	Block4	2back/STIM_006.jpg
2080.886	0.878	correct	2back	Block4	2back/STIM_006.jpg
2084.66	0.862	correct	2back	Block4	2back/STIM_006.jpg
2089.172	0.736	correct	2back	Block4	2back/STIM_007.jpg
2092.491	0.858	correct	2back	Block4	2back/STIM_007.jpg
2097.047	0.939	correct	2back	Block4	2back/STIM_007.jpg
2101.853	0.579	correct	2back	Block4	2back/STIM_008.jpg
2105.609	0.854	correct	2back	Block4	2back/STIM_008.jpg
2108.699	0.941	correct	2back	Block4	2back/STIM_008.jpg
2112.018	0.708	correct	2back	Block4	2back/STIM_009.jpg
2116.539	0.744	correct	2back	Block4	2back/STIM_009.jpg
2121.127	0.599	correct	2back	Block4	2back/STIM_009.jpg
2125.044	0.69	correct	2back	Block4	2back/STIM_010.jpg
2128.537	0.736	correct	2back	Block4	2back/STIM_010.jpg
2131.514	0.879	correct	2back	Block4	2back/STIM_010.jpg
2135.117	0.635	correct	2back	Block4	2back/STIM_011.jpg
2139.018	0.875	correct	2back	Block4	2back/STIM_011.jpg
2143.394	0.658	correct	2back	Block4	2back/STIM_011.jpg
2147.331	0.862	correct	2back	Block4	2back/STIM_012.jpg
2150.795	0.529	correct	2back	Block4	2back/STIM_012.jpg
2153.544	0.792	correct	2back	Block4	2back/STIM_012.jpg
2157.004	0.818	correct	2back	Block4	2back/STIM_013.jpg
2161.084	0.959	correct	2back	Block4	2back/STIM_013.jpg
2165.938	0.573	correct	2back	Block4	2back/STIM_013.jpg
2170.132	0.615	correct	2back	Block4	2back/STIM_014.jpg
2174.655	0.327	correct	2back	Block4	2back/STIM_014.jpg
2177.104	0.726	correct	2back	Block4	2back/STIM_014.jpg
2180.071	0.87	correct	2back	Block4	2back/STIM_015.jpg
2184.141	0.423	correct	2back	Block4	2back/STIM_015.jpg
2187.697	0.883	correct	2back	Block4	2back/STIM_015.jpg
2192.304	0.808	correct	2back	Block4	2back/STIM_016.jpg
2197.062	0.822	correct	2back	Block4	2back/STIM_016.jpg
2201.503	0.634	correct	2back	Block4	2back/STIM_016.jpg
2204.276	0.787	correct	2back	Block4	2back/STIM_017.jpg
2208.412	0.557	correct	2back	Block4	2back/STIM_017.jpg
2212.803	0.544	correct	2back	Block4	2back/STIM_017.jpg
2216.534	0.63	correct	2back	Block4	2back/STIM_018.jpg
2220.024	0.559	correct	2back	Block4	2back/STIM_018.jpg
2223.903	0.742	correct	2back	Block4	2back/STIM_018.jpg
2227.616	0.459	correct	2back	Block4	2back/STIM_019.jpg
2230.63	0.559	correct	2back	Block4	2back/STIM_019.jpg
2235.152	0.544	correct	2back	Block4	2back/STIM_019.jpg
2238.115	0.952	correct	2back	Block4	2back/STIM_020.jpg
2242.102	0.915	correct	2back	Block4	2back/STIM_020.jpg
2245.102	0.601	correct	2back	Block4	2back/STIM_020.jpg
2248.548	0.913	correct	2back	Block4	2back/STIM_021.jpg
2251.724	0.982	correct	2back	Block4	2back/STIM_021.jpg
2256.434	0.784	correct	2back	Block4	2back/STIM_021.jpg
2260.239	0.844	correct	2back	Block4	2back/STIM_022.jpg
2263.424	0.779	correct	2back	Block4	2back/STIM_022.jpg
2266.858	0.921	correct	2back	Block4	2back/STIM_022.jpg
2271.193	0.88	correct	2back	Block4	2back/STIM_023.jpg
2274.267	0.824	correct	2back	Block4	2back/STIM_023.jpg
2278.195	0.816	correct	2back	Block4	2back/STIM_023.jpg
2281.876	0.561	correct	2back	Block4	2back/STIM_024.jpg
2286.281	0.768	correct	2back	Block4	2back/STIM_024.jpg
2289.31	0.608	correct	2back	Block4	2back/STIM_024.jpg
2293.466	0.615	correct	2back	Block4	2back/STIM_025.jpg
2297.774	0.591	correct	2back	Block4	2back/STIM_025.jpg
2301.334	0.661	correct	2back	Block4	2back/STIM_025.jpg
2304.054	0.579	correct	2back	Block4	2back/STIM_026.jpg
2306.772	0.706	correct	2back	Block4	2back/STIM_026.jpg
2311.231	0.856	correct	2back	Block4	2back/STIM_026.jpg
2315.233	0.442	correct	2back	Block4	2back/STIM_027.jpg
2318.286	0.766	correct	2back	Block4	2back/STIM_027.jpg
2321.721	0.712	correct	2back	Block4	2back/STIM_027.jpg
2326.05	0.899	correct	2back	Block4	2back/STIM_028.jpg
2329.681	0.789	correct	2back	Block4	2back/STIM_028.jpg
2333.824	0.982	correct	2back	Block4	2back/STIM_028.jpg
2337.106	0.87	correct	2back	Block4	2back/STIM_029.jpg
2341.916	0.916	correct	2back	Block4	2back/STIM_029.jpg
2346.006	0.567	correct	2back	Block4	2back/STIM_029.jpg
2348.927	0.505	correct	2back	Block4	2back/STIM_030.jpg
2352.659	0.773	correct	2back	Block4	2back/STIM_030.jpg
2356.603	0.539	correct	2back	Block4	2back/STIM_030.jpg
2360.164	0.531	correct	2back	Block4	2back/STIM_031.jpg
2364.453	0.728	correct	2back	Block4	2back/STIM_031.jpg
2368.734	0.732	correct	2back	Block4	2back/STIM_031.jpg
2373.339	0.773	correct	2back	Block4	2back/STIM_032.jpg
2377.589	0.667	correct	2back	Block4	2back/STIM_032.jpg
2381.007	0.923	correct	2back	Block4	2back/STIM_032.jpg
2385.329	0.48	correct	2back	Block4	2back/STIM_033.jpg
2387.884	0.84	correct	2back	Block4	2back/STIM_033.jpg
2391.741	0.717	correct	2back	Block4	2back/STIM_033.jpg
2395.478	0.467	correct	2back	Block4	2back/STIM_034.jpg
2398.732	0.782	correct	2back	Block4	2back/STIM_034.jpg
2402.848	0.472	correct	2back	Block4	2back/STIM_034.jpg
2405.709	0.822	correct	2back	Block4	2back/STIM_035.jpg
2409.521	0.653	correct	2back	Block4	2back/STIM_035.jpg
2412.321	0.743	correct	2back	Block4	2back/STIM_035.jpg
2416.903	0.965	correct	2back	Block4	2back/STIM_036.jpg
2421.322	0.856	correct	2back	Block4	2back/STIM_036.jpg
2425.621	0.784	correct	2back	Block4	2back/STIM_036.jpg
2429.2	0.581	correct	2back	Block4	2back/STIM_037.jpg
2431.897	0.536	correct	2back	Block4	2back/STIM_037.jpg
2434.659	0.556	correct	2back	Block4	2back/STIM_037.jpg
2438.819	0.621	correct	2back	Block4	2back/STIM_038.jpg
2442.935	0.73	correct	2back	Block4	2back/STIM_038.jpg
2447.288	0.79	correct	2back	Block4	2back/STIM_038.jpg
2451.677	0.56	correct	2back	Block4	2back/STIM_039.jpg
2454.372	0.466	correct	2back	Block4	2back/STIM_039.jpg
2456.966	0.933	correct	2back	Block4	2back/STIM_039.jpg
2461.365	0.453	incorrect	0back	Block4	0back/STIM_000.jpg
2463.856	0.588	correct	0back	Block4	0back/STIM_000.jpg
2466.987	0.457	correct	0back	Block4	0back/STIM_000.jpg
2471.232	0.48	correct	0back	Block4	0back/STIM_001.jpg
2473.974	0.726	correct	0back	Block4	0back/STIM_001.jpg
2478.213	0.447	correct	0back	Block4	0back/STIM_001.jpg
2481.338	0.529	correct	0back	Block4	0back/STIM_002.jpg
2485.47	0.521	correct	0back	Block4	0back/STIM_002.jpg
2488.973	0.683	correct	0back	Block4	0back/STIM_002.jpg
2493.361	0.485	correct	0back	Block4	0back/STIM_003.jpg
2496.39	0.536	correct	0back	Block4	0back/STIM_003.jpg
2499.812	0.343	correct	0back	Block4	0back/STIM_003.jpg
2504.086	0.526	correct	0back	Block4	0back/STIM_004.jpg
2507.077	0.645	correct	0back	Block4	0back/STIM_004.jpg
2510.17	0.548	correct	0back	Block4	0back/STIM_004.jpg
2514.445	0.924	correct	0back	Block4	0back/STIM_005.jpg
2517.352	0.764	correct	0back	Block4	0back/STIM_005.jpg
2521.646	0.622	correct	0back	Block4	0back/STIM_005.jpg
2525.578	0.794	correct	0back	Block4	0back/STIM_006.jpg
2529.784	0.72	correct	0back	Block4	0back/STIM_006.jpg
2534.239	0.621	correct	0back	Block4	0back/STIM_006.jpg
2537.529	0.717	correct	0back	Block4	0back/STIM_007.jpg
2541.693	0.421	correct	0back	Block4	0back/STIM_007.jpg
2544.612	0.592	correct	0back	Block4	0back/STIM_007.jpg
2547.421	0.815	correct	0back	Block4	0back/STIM_008.jpg
2552.113	0.513	correct	0back	Block4	0back/STIM_008.jpg
2555.451	0.664	correct	0back	Block4	0back/STIM_008.jpg
2559.97	0.711	correct	0back	Block4	0back/STIM_009.jpg
2564.447	0.781	correct	0back	Block4	0back/STIM_009.jpg
2568.07	0.724	incorrect	0back	Block4	0back/STIM_009.jpg
2572.695	0.593	correct	0back	Block4	0back/STIM_010.jpg
2576.964	0.711	correct	0back	Block4	0back/STIM_010.jpg
2581.041	0.553	correct	0back	Block4	0back/STIM_010.jpg
2583.717	0.549	correct	0back	Block4	0back/STIM_011.jpg
2588.131	0.78	correct	0back	Block4	0back/STIM_011.jpg
2592.411	0.494	correct	0back	Block4	0back/STIM_011.jpg
2596.413	0.42	incorrect	0back	Block4	0back/STIM_012.jpg
2600.084	0.614	incorrect	0back	Block4	0back/STIM_012.jpg
2602.895	0.827	correct	0back	Block4	0back/STIM_012.jpg
2607.236	0.405	correct	0back	Block4	0back/STIM_013.jpg
2610.595	0.434	correct	0back	Block4	0back/STIM_013.jpg
2613.984	0.601	correct	0back	Block4	0back/STIM_013.jpg
2617.396	0.589	correct	0back	Block4	0back/STIM_014.jpg
2620.39	0.853	correct	0back	Block4	0back/STIM_014.jpg
2624.669	0.629	correct	0back	Block4	0back/STIM_014.jpg
2627.535	0.518	correct	0back	Block4	0back/STIM_015.jpg
2632.001	0.78	correct	0back	Block4	0back/STIM_015.jpg
2635.208	0.749	correct	0back	Block4	0back/STIM_015.jpg
2639.52	0.763	incorrect	0back	Block4	0back/STIM_016.jpg
2642.785	0.644	correct	0back	Block4	0back/STIM_016.jpg
2646.862	0.556	correct	0back	Block4	0back/STIM_016.jpg
2651.237	0.644	correct	0back	Block4	0back/STIM_017.jpg
2654.023	0.841	correct	0back	Block4	0back/STIM_017.jpg
2658.487	0.526	correct	0back	Block4	0back/STIM_017.jpg
2662.762	0.528	correct	0back	Block4	0back/STIM_018.jpg
2666.843	0.567	incorrect	0back	Block4	0back/STIM_018.jpg
2670.666	0.638	correct	0back	Block4	0back/STIM_018.jpg
2673.792	0.49	correct	0back	Block4	0back/STIM_019.jpg
2677.496	0.757	correct	0back	Block4	0back/STIM_019.jpg
2681.436	0.489	correct	0back	Block4	0back/STIM_019.jpg
