onset	duration	accuracy_binary	trial_type	learning_stage	stimulus
0.0	0.73	1	2back	Block1	2back/STIM_000.jpg
4.347	0.781	1	2back	Block1	2back/STIM_000.jpg
8.163	0.717	1	2back	Block1	2back/STIM_000.jpg
11.206	0.901	1	2back	Block1	2back/STIM_001.jpg
15.06	0.982	1	2back	Block1	2back/STIM_001.jpg
19.588	0.869	0	2back	Block1	2back/STIM_001.jpg
23.85	0.854	1	2back	Block1	2back/STIM_002.jpg
27.714	1.084	1	2back	Block1	2back/STIM_002.jpg
31.981	0.885	1	2back	Block1	2back/STIM_002.jpg
36.699	0.943	1	2back	Block1	2back/STIM_003.jpg
41.06	1.142	1	2back	Block1	2back/STIM_003.jpg
44.922	0.707	1	2back	Block1	2back/STIM_003.jpg
47.734	0.942	1	2back	Block1	2back/STIM_004.jpg
51.172	1.119	1	2back	Block1	2back/STIM_004.jpg
55.387	0.804	1	2back	Block1	2back/STIM_004.jpg
58.842	1.424	1	2back	Block1	2back/STIM_005.jpg
63.949	1.253	0	2back	Block1	2back/STIM_005.jpg
67.883	0.673	1	2back	Block1	2back/STIM_005.jpg
70.758	0.936	0	2back	Block1	2back/STIM_006.jpg
73.899	1.124	1	2back	Block1	2back/STIM_006.jpg
77.205	1.042	1	2back	Block1	2back/STIM_006.jpg
81.492	1.102	1	2back	Block1	2back/STIM_007.jpg
84.612	1.09	1	2back	Block1	2back/STIM_007.jpg
88.023	0.837	1	2back	Block1	2back/STIM_007.jpg
92.668	1.298	1	2back	Block1	2back/STIM_008.jpg
97.172	1.209	1	2back	Block1	2back/STIM_008.jpg
100.737	0.949	1	2back	Block1	2back/STIM_008.jpg
104.064	0.632	1	2back	Block1	2back/STIM_009.jpg
108.307	1.294	1	2back	Block1	2back/STIM_009.jpg
113.426	0.716	1	2back	Block1	2back/STIM_009.jpg
117.262	0.889	1	2back	Block1	2back/STIM_010.jpg
120.64	0.772	1	2back	Block1	2back/STIM_010.jpg
124.755	0.872	1	2back	Block1	2back/STIM_010.jpg
127.777	1.34	1	2back	Block1	2back/STIM_011.jpg
132.31	0.62	1	2back	Block1	2back/STIM_011.jpg
136.541	0.591	1	2back	Block1	2back/STIM_011.jpg
139.163	0.864	1	2back	Block1	2back/STIM_012.jpg
143.182	1.14	1	2back	Block1	2back/STIM_012.jpg
147.835	0.792	1	2back	Block1	2back/STIM_012.jpg
151.577	0.827	1	2back	Block1	2back/STIM_013.jpg
156.315	1.049	1	2back	Block1	2back/STIM_013.jpg
160.747	1.277	1	2back	Block1	2back/STIM_013.jpg
165.675	1.293	1	2back	Block1	2back/STIM_014.jpg
169.355	0.653	1	2back	Block1	2back/STIM_014.jpg
172.982	0.744	1	2back	Block1	2back/STIM_014.jpg
176.133	0.676	1	2back	Block1	2back/STIM_015.jpg
180.544	0.644	1	2back	Block1	2back/STIM_015.jpg
183.375	0.655	1	2back	Block1	2back/STIM_015.jpg
187.682	0.898	1	2back	Block1	2back/STIM_016.jpg
191.943	1.385	1	2back	Block1	2back/STIM_016.jpg
195.594	0.654	1	2back	Block1	2back/STIM_016.jpg
198.526	1.214	1	2back	Block1	2back/STIM_017.jpg
203.695	1.179	1	2back	Block1	2back/STIM_017.jpg
206.953	1.145	1	2back	Block1	2back/STIM_017.jpg
210.389	1.054	1	2back	Block1	2back/STIM_018.jpg
214.27	1.015	1	2back	Block1	2back/STIM_018.jpg
217.824	0.564	1	2back	Block1	2back/STIM_018.jpg
221.282	1.286	1	2back	Block1	2back/STIM_019.jpg
225.533	1.245	1	2back	Block1	2back/STIM_019.jpg
229.737	0.84	1	2back	Block1	2back/STIM_019.jpg
232.754	0.759	1	2back	Block1	2back/STIM_020.jpg
237.06	0.739	1	2back	Block1	2back/STIM_020.jpg
241.095	0.567	1	2back	Block1	2back/STIM_020.jpg
245.013	0.694	1	2back	Block1	2back/STIM_021.jpg
248.954	1.178	1	2back	Block1	2back/STIM_021.jpg
253.163	1.202	1	2back	Block1	2back/STIM_021.jpg
257.581	0.91	1	2back	Block1	2back/STIM_022.jpg
261.662	1.312	0	2back	Block1	2back/STIM_022.jpg
265.163	1.001	1	2back	Block1	2back/STIM_022.jpg
268.294	0.886	1	2back	Block1	2back/STIM_023.jpg
272.741	1.346	1	2back	Block1	2back/STIM_023.jpg
276.834	1.187	1	2back	Block1	2back/STIM_023.jpg
281.445	1.268	0	2back	Block1	2back/STIM_024.jpg
284.857	1.015	1	2back	Block1	2back/STIM_024.jpg
289.526	0.952	1	2back	Block1	2back/STIM_024.jpg
294.044	1.455	1	2back	Block1	2back/STIM_025.jpg
298.03	1.325	1	2back	Block1	2back/STIM_025.jpg
301.831	0.794	1	2back	Block1	2back/STIM_025.jpg
305.522	0.639	1	2back	Block1	2back/STIM_026.jpg
309.585	0.712	1	2back	Block1	2back/STIM_026.jpg
312.568	0.853	1	2back	Block1	2back/STIM_026.jpg
316.121	0.979	1	2back	Block1	2back/STIM_027.jpg
319.104	0.924	1	2back	Block1	2back/STIM_027.jpg
322.376	0.822	1	2back	Block1	2back/STIM_027.jpg
325.653	0.931	1	2back	Block1	2back/STIM_028.jpg
330.045	0.712	1	2back	Block1	2back/STIM_028.jpg
333.061	0.771	1	2back	Block1	2back/STIM_028.jpg
337.645	0.641	1	2back	Block1	2back/STIM_029.jpg
340.491	1.072	1	2back	Block1	2back/STIM_029.jpg
343.69	1.04	1	2back	Block1	2back/STIM_029.jpg
347.9	0.975	1	2back	Block1	2back/STIM_030.jpg
352.214	0.819	1	2back	Block1	2back/STIM_030.jpg
355.468	0.952	1	2back	Block1	2back/STIM_030.jpg
359.272	0.959	1	2back	Block1	2back/STIM_031.jpg
362.857	1.334	1	2back	Block1	2back/STIM_031.jpg
367.07	0.583	1	2back	Block1	2back/STIM_031.jpg
369.85	1.12	1	2back	Block1	2back/STIM_032.jpg
373.58	0.786	0	2back	Block1	2back/STIM_032.jpg
377.161	0.775	1	2back	Block1	2back/STIM_032.jpg
380.712	1.181	1	2back	Block1	2back/STIM_033.jpg
384.05	0.748	1	2back	Block1	2back/STIM_033.jpg
388.057	0.579	1	2back	Block1	2back/STIM_033.jpg
390.755	0.669	1	2back	Block1	2back/STIM_034.jpg
395.166	0.836	1	2back	Block1	2back/STIM_034.jpg
398.065	0.788	1	2back	Block1	2back/STIM_034.jpg
402.101	0.734	1	2back	Block1	2back/STIM_035.jpg
405.786	1.082	1	2back	Block1	2back/STIM_035.jpg
409.011	1.094	1	2back	Block1	2back/STIM_035.jpg
413.221	1.038	1	2back	Block1	2back/STIM_036.jpg
416.879	0.956	1	2back	Block1	2back/STIM_036.jpg
420.439	0.62	1	2back	Block1	2back/STIM_036.jpg
424.835	1.107	1	2back	Block1	2back/STIM_037.jpg
428.5	1.368	1	2back	Block1	2back/STIM_037.jpg
432.635	0.77	1	2back	Block1	2back/STIM_037.jpg
436.914	1.331	1	2back	Block1	2back/STIM_038.jpg
441.296	0.618	1	2back	Block1	2back/STIM_038.jpg
445.489	0.807	1	2back	Block1	2back/STIM_038.jpg
448.998	1.292	1	2back	Block1	2back/STIM_039.jpg
454.092	0.802	1	2back	Block1	2back/STIM_039.jpg
458.757	0.905	1	2back	Block1	2back/STIM_039.jpg
462.496	0.604	1	0back	Block1	0back/STIM_000.jpg
466.804	0.447	1	0back	Block1	0back/STIM_000.jpg
469.446	0.593	1	0back	Block1	0back/STIM_000.jpg
473.534	0.778	0	0back	Block1	0back/STIM_001.jpg
477.639	0.712	1	0back	Block1	0back/STIM_001.jpg
481.442	0.53	1	0back	Block1	0back/STIM_001.jpg
485.191	0.478	0	0back	Block1	0back/STIM_002.jpg
487.741	0.46	1	0back	Block1	0back/STIM_002.jpg
491.382	0.668	1	0back	Block1	0back/STIM_002.jpg
495.133	0.83	1	0back	Block1	0back/STIM_003.jpg
498.087	0.715	1	0back	Block1	0back/STIM_003.jpg
501.545	0.697	1	0back	Block1	0back/STIM_003.jpg
505.718	0.696	1	0back	Block1	0back/STIM_004.jpg
508.773	0.631	1	0back	Block1	0back/STIM_004.jpg
513.321	0.57	1	0back	Block1	0back/STIM_004.jpg
516.619	0.788	1	0back	Block1	0back/STIM_005.jpg
521.09	0.685	1	0back	Block1	0back/STIM_005.jpg
524.615	0.616	1	0back	Block1	0back/STIM_005.jpg
528.733	0.448	1	0back	Block1	0back/STIM_006.jpg
532.595	0.469	1	0back	Block1	0back/STIM_006.jpg
536.467	0.607	1	0back	Block1	0back/STIM_006.jpg
540.37	0.632	1	0back	Block1	0back/STIM_007.jpg
544.79	0.728	1	0back	Block1	0back/STIM_007.jpg
548.621	0.652	1	0back	Block1	0back/STIM_007.jpg
551.688	0.515	1	0back	Block1	0back/STIM_008.jpg
556.03	0.768	1	0back	Block1	0back/STIM_008.jpg
560.533	0.715	1	0back	Block1	0back/STIM_008.jpg
564.701	0.65	1	0back	Block1	0back/STIM_009.jpg
568.202	0.768	1	0back	Block1	0back/STIM_009.jpg
572.611	0.571	1	0back	Block1	0back/STIM_009.jpg
577.149	0.507	1	0back	Block1	0back/STIM_010.jpg
580.518	0.682	1	0back	Block1	0back/STIM_010.jpg
584.425	0.508	1	0back	Block1	0back/STIM_010.jpg
587.953	0.523	1	0back	Block1	0back/STIM_011.jpg
592.072	0.538	1	0back	Block1	0back/STIM_011.jpg
594.99	0.675	1	0back	Block1	0back/STIM_011.jpg
599.361	0.54	1	0back	Block1	0back/STIM_012.jpg
603.481	0.761	1	0back	Block1	0back/STIM_012.jpg
606.533	0.462	1	0back	Block1	0back/STIM_012.jpg
609.022	0.722	1	0back	Block1	0back/STIM_013.jpg
612.565	0.604	1	0back	Block1	0back/STIM_013.jpg
615.9	0.606	1	0back	Block1	0back/STIM_013.jpg
619.939	0.47	1	0back	Block1	0back/STIM_014.jpg
622.731	0.46	1	0back	Block1	0back/STIM_014.jpg
626.254	0.767	1	0back	Block1	0back/STIM_014.jpg
630.585	0.744	1	0back	Block1	0back/STIM_015.jpg
634.015	0.568	1	0back	Block1	0back/STIM_015.jpg
636.741	0.672	1	0back	Block1	0back/STIM_015.jpg
640.112	0.449	0	0back	Block1	0back/STIM_016.jpg
642.857	0.654	1	0back	Block1	0back/STIM_016.jpg
646.095	0.617	1	0back	Block1	0back/STIM_016.jpg
650.674	0.626	1	0back	Block1	0back/STIM_017.jpg
654.152	0.483	1	0back	Block1	0back/STIM_017.jpg
658.361	0.689	1	0back	Block1	0back/STIM_017.jpg
662.887	0.693	1	0back	Block1	0back/STIM_018.jpg
666.734	0.591	1	0back	Block1	0back/STIM_018.jpg
669.691	0.708	1	0back	Block1	0back/STIM_018.jpg
673.131	0.424	1	0back	Block1	0back/STIM_019.jpg
677.219	0.554	1	0back	Block1	0back/STIM_019.jpg
681.304	0.504	1	0back	Block1	0back/STIM_019.jpg
684.136	0.853	1	2back	Block2	2back/STIM_000.jpg
687.477	0.749	1	2back	Block2	2back/STIM_000.jpg
690.391	0.896	1	2back	Block2	2back/STIM_000.jpg
693.464	1.055	1	2back	Block2	2back/STIM_001.jpg
697.299	0.881	1	2back	Block2	2back/STIM_001.jpg
702.146	0.853	1	2back	Block2	2back/STIM_001.jpg
706.361	0.62	1	2back	Block2	2back/STIM_002.jpg
709.965	1.071	1	2back	Block2	2back/STIM_002.jpg
713.387	0.507	1	2back	Block2	2back/STIM_002.jpg
716.397	0.961	1	2back	Block2	2back/STIM_003.jpg
719.99	0.725	1	2back	Block2	2back/STIM_003.jpg
722.75	0.767	1	2back	Block2	2back/STIM_003.jpg
727.102	0.579	1	2back	Block2	2back/STIM_004.jpg
730.812	0.693	1	2back	Block2	2back/STIM_004.jpg
733.663	1.05	1	2back	Block2	2back/STIM_004.jpg
737.256	0.72	1	2back	Block2	2back/STIM_005.jpg
740.59	0.632	1	2back	Block2	2back/STIM_005.jpg
744.984	0.542	1	2back	Block2	2back/STIM_005.jpg
748.059	1.104	1	2back	Block2	2back/STIM_006.jpg
751.813	0.808	1	2back	Block2	2back/STIM_006.jpg
756.481	0.848	1	2back	Block2	2back/STIM_006.jpg
760.035	1.0	1	2back	Block2	2back/STIM_007.jpg
764.957	0.633	1	2back	Block2	2back/STIM_007.jpg
769.505	1.029	1	2back	Block2	2back/STIM_007.jpg
774.485	1.04	1	2back	Block2	2back/STIM_008.jpg
779.176	0.78	1	2back	Block2	2back/STIM_008.jpg
782.496	0.621	1	2back	Block2	2back/STIM_008.jpg
785.217	0.804	1	2back	Block2	2back/STIM_009.jpg
788.275	0.934	1	2back	Block2	2back/STIM_009.jpg
792.338	1.072	1	2back	Block2	2back/STIM_009.jpg
795.813	0.981	1	2back	Block2	2back/STIM_010.jpg
800.0	0.724	1	2back	Block2	2back/STIM_010.jpg
804.228	0.948	1	2back	Block2	2back/STIM_010.jpg
807.6	0.743	1	2back	Block2	2back/STIM_011.jpg
810.759	0.502	1	2back	Block2	2back/STIM_011.jpg
813.75	0.78	1	2back	Block2	2back/STIM_011.jpg
818.397	0.905	1	2back	Block2	2back/STIM_012.jpg
822.04	0.925	1	2back	Block2	2back/STIM_012.jpg
826.889	0.846	1	2back	Block2	2back/STIM_012.jpg
831.226	1.137	1	2back	Block2	2back/STIM_013.jpg
835.153	0.991	1	2back	Block2	2back/STIM_013.jpg
839.315	0.56	1	2back	Block2	2back/STIM_013.jpg
842.969	0.927	1	2back	Block2	2back/STIM_014.jpg
846.012	0.617	1	2back	Block2	2back/STIM_014.jpg
850.154	0.698	1	2back	Block2	2back/STIM_014.jpg
853.249	0.959	1	2back	Block2	2back/STIM_015.jpg
857.18	1.141	1	2back	Block2	2back/STIM_015.jpg
861.144	0.912	1	2back	Block2	2back/STIM_015.jpg
865.472	1.066	1	2back	Block2	2back/STIM_016.jpg
870.303	0.844	1	2back	Block2	2back/STIM_016.jpg
874.753	0.54	1	2back	Block2	2back/STIM_016.jpg
878.267	0.61	1	2back	Block2	2back/STIM_017.jpg
881.472	0.856	1	2back	Block2	2back/STIM_017.jpg
885.185	1.047	1	2back	Block2	2back/STIM_017.jpg
888.395	1.007	1	2back	Block2	2back/STIM_018.jpg
892.128	0.761	1	2back	Block2	2back/STIM_018.jpg
896.462	0.568	1	2back	Block2	2back/STIM_018.jpg
899.603	1.148	1	2back	Block2	2back/STIM_019.jpg
903.276	1.045	1	2back	Block2	2back/STIM_019.jpg
906.746	0.584	1	2back	Block2	2back/STIM_019.jpg
910.077	1.136	1	2back	Block2	2back/STIM_020.jpg
915.009	0.69	1	2back	Block2	2back/STIM_020.jpg
918.832	0.829	1	2back	Block2	2back/STIM_020.jpg
922.209	0.823	1	2back	Block2	2back/STIM_021.jpg
925.917	0.781	1	2back	Block2	2back/STIM_021.jpg
929.606	0.7	1	2back	Block2	2back/STIM_021.jpg
932.532	1.227	1	2back	Block2	2back/STIM_022.jpg
936.942	1.088	1	2back	Block2	2back/STIM_022.jpg
941.432	0.518	1	2back	Block2	2back/STIM_022.jpg
945.499	0.581	1	2back	Block2	2back/STIM_023.jpg
949.632	0.992	1	2back	Block2	2back/STIM_023.jpg
953.274	0.809	1	2back	Block2	2back/STIM_023.jpg
956.423	0.866	0	2back	Block2	2back/STIM_024.jpg
959.991	0.724	1	2back	Block2	2back/STIM_024.jpg
963.907	0.716	1	2back	Block2	2back/STIM_024.jpg
968.183	0.624	1	2back	Block2	2back/STIM_025.jpg
972.457	0.756	1	2back	Block2	2back/STIM_025.jpg
976.536	0.972	0	2back	Block2	2back/STIM_025.jpg
979.666	0.77	1	2back	Block2	2back/STIM_026.jpg
983.438	1.127	1	2back	Block2	2back/STIM_026.jpg
987.487	0.968	1	2back	Block2	2back/STIM_026.jpg
991.475	1.009	1	2back	Block2	2back/STIM_027.jpg
994.77	0.787	1	2back	Block2	2back/STIM_027.jpg
997.587	0.731	1	2back	Block2	2back/STIM_027.jpg
1001.228	0.92	1	2back	Block2	2back/STIM_028.jpg
1005.663	0.77	1	2back	Block2	2back/STIM_028.jpg
1009.108	0.624	1	2back	Block2	2back/STIM_028.jpg
1012.143	0.761	1	2back	Block2	2back/STIM_029.jpg
1015.86	0.816	1	2back	Block2	2back/STIM_029.jpg
1019.583	0.698	1	2back	Block2	2back/STIM_029.jpg
1023.318	0.814	1	2back	Block2	2back/STIM_030.jpg
1027.31	1.028	1	2back	Block2	2back/STIM_030.jpg
1030.691	0.943	0	2back	Block2	2back/STIM_030.jpg
1033.843	0.828	1	2back	Block2	2back/STIM_031.jpg
1038.164	0.761	1	2back	Block2	2back/STIM_031.jpg
1041.184	0.849	1	2back	Block2	2back/STIM_031.jpg
1045.223	0.808	1	2back	Block2	2back/STIM_032.jpg
1048.099	0.765	1	2back	Block2	2back/STIM_032.jpg
1051.238	1.068	1	2back	Block2	2back/STIM_032.jpg
1056.284	0.655	1	2back	Block2	2back/STIM_033.jpg
1059.594	0.878	1	2back	Block2	2back/STIM_033.jpg
1063.785	0.664	1	2back	Block2	2back/STIM_033.jpg
1067.849	1.154	1	2back	Block2	2back/STIM_034.jpg
1071.676	1.039	1	2back	Block2	2back/STIM_034.jpg
1075.941	0.717	0	2back	Block2	2back/STIM_034.jpg
1080.035	0.688	1	2back	Block2	2back/STIM_035.jpg
1083.491	0.935	1	2back	Block2	2back/STIM_035.jpg
1086.532	0.761	1	2back	Block2	2back/STIM_035.jpg
1090.584	0.847	1	2back	Block2	2back/STIM_036.jpg
1094.676	0.87	1	2back	Block2	2back/STIM_036.jpg
1097.746	0.896	1	2back	Block2	2back/STIM_036.jpg
1102.401	0.786	1	2back	Block2	2back/STIM_037.jpg
1107.026	0.655	1	2back	Block2	2back/STIM_037.jpg
1110.009	0.94	1	2back	Block2	2back/STIM_037.jpg
1113.023	0.948	0	2back	Block2	2back/STIM_038.jpg
1116.801	1.016	1	2back	Block2	2back/STIM_038.jpg
1119.868	0.811	1	2back	Block2	2back/STIM_038.jpg
1124.671	0.853	1	2back	Block2	2back/STIM_039.jpg
1127.756	0.995	1	2back	Block2	2back/STIM_039.jpg
1132.193	0.733	1	2back	Block2	2back/STIM_039.jpg
1136.005	0.682	1	0back	Block2	0back/STIM_000.jpg
1138.795	0.83	1	0back	Block2	0back/STIM_000.jpg
1141.638	0.747	1	0back	Block2	0back/STIM_000.jpg
1145.757	0.599	1	0back	Block2	0back/STIM_001.jpg
1148.459	0.81	1	0back	Block2	0back/STIM_001.jpg
1151.306	0.669	1	0back	Block2	0back/STIM_001.jpg
1155.418	0.707	1	0back	Block2	0back/STIM_002.jpg
1158.436	0.459	1	0back	Block2	0back/STIM_002.jpg
1161.561	0.805	1	0back	Block2	0back/STIM_002.jpg
1164.454	0.509	1	0back	Block2	0back/STIM_003.jpg
1167.818	0.553	1	0back	Block2	0back/STIM_003.jpg
1170.744	0.719	1	0back	Block2	0back/STIM_003.jpg
1174.12	0.663	1	0back	Block2	0back/STIM_004.jpg
1178.562	0.563	1	0back	Block2	0back/STIM_004.jpg
1182.668	0.507	1	0back	Block2	0back/STIM_004.jpg
1186.52	0.49	1	0back	Block2	0back/STIM_005.jpg
1189.302	0.469	1	0back	Block2	0back/STIM_005.jpg
1193.003	0.834	1	0back	Block2	0back/STIM_005.jpg
1195.977	0.454	1	0back	Block2	0back/STIM_006.jpg
1199.468	0.828	1	0back	Block2	0back/STIM_006.jpg
1203.644	0.731	1	0back	Block2	0back/STIM_006.jpg
1207.07	0.523	1	0back	Block2	0back/STIM_007.jpg
1211.297	0.718	1	0back	Block2	0back/STIM_007.jpg
1214.266	0.675	0	0back	Block2	0back/STIM_007.jpg
1217.919	0.729	1	0back	Block2	0back/STIM_008.jpg
1221.688	0.747	1	0back	Block2	0back/STIM_008.jpg
1225.013	0.526	1	0back	Block2	0back/STIM_008.jpg
1228.232	0.643	1	0back	Block2	0back/STIM_009.jpg
1231.679	0.433	1	0back	Block2	0back/STIM_009.jpg
1235.564	0.628	1	0back	Block2	0back/STIM_009.jpg
1238.26	0.743	1	0back	Block2	0back/STIM_010.jpg
1242.679	0.499	1	0back	Block2	0back/STIM_010.jpg
1245.407	0.445	1	0back	Block2	0back/STIM_010.jpg
1249.607	0.481	1	0back	Block2	0back/STIM_011.jpg
1253.443	0.757	1	0back	Block2	0back/STIM_011.jpg
1257.837	0.749	1	0back	Block2	0back/STIM_011.jpg
1260.814	0.575	1	0back	Block2	0back/STIM_012.jpg
1263.728	0.734	1	0back	Block2	0back/STIM_012.jpg
1267.645	0.445	1	0back	Block2	0back/STIM_012.jpg
1271.877	0.432	1	0back	Block2	0back/STIM_013.jpg
1276.143	0.687	1	0back	Block2	0back/STIM_013.jpg
1279.769	0.814	1	0back	Block2	0back/STIM_013.jpg
1283.584	0.626	1	0back	Block2	0back/STIM_014.jpg
1287.737	0.536	1	0back	Block2	0back/STIM_014.jpg
1291.361	0.456	1	0back	Block2	0back/STIM_014.jpg
1294.496	0.46	1	0back	Block2	0back/STIM_015.jpg
1297.717	0.432	1	0back	Block2	0back/STIM_015.jpg
1300.443	0.615	1	0back	Block2	0back/STIM_015.jpg
1304.994	0.533	1	0back	Block2	0back/STIM_016.jpg
1309.505	0.737	1	0back	Block2	0back/STIM_016.jpg
1314.04	0.632	1	0back	Block2	0back/STIM_016.jpg
1317.192	0.623	1	0back	Block2	0back/STIM_017.jpg
1319.967	0.717	1	0back	Block2	0back/STIM_017.jpg
1323.006	0.818	1	0back	Block2	0back/STIM_017.jpg
1326.202	0.618	1	0back	Block2	0back/STIM_018.jpg
1330.116	0.793	1	0back	Block2	0back/STIM_018.jpg
1334.044	0.647	1	0back	Block2	0back/STIM_018.jpg
1338.37	0.809	1	0back	Block2	0back/STIM_019.jpg
1342.976	0.606	1	0back	Block2	0back/STIM_019.jpg
1347.317	0.562	1	0back	Block2	0back/STIM_019.jpg
1351.519	0.562	1	2back	Block3	2back/STIM_000.jpg
1354.662	0.737	1	2back	Block3	2back/STIM_000.jpg
1359.21	0.656	1	2back	Block3	2back/STIM_000.jpg
1361.951	0.485	1	2back	Block3	2back/STIM_001.jpg
1365.234	0.446	1	2back	Block3	2back/STIM_001.jpg
1368.293	0.578	1	2back	Block3	2back/STIM_001.jpg
1371.102	0.446	1	2back	Block3	2back/STIM_002.jpg
1375.184	0.678	1	2back	Block3	2back/STIM_002.jpg
1378.589	0.739	1	2back	Block3	2back/STIM_002.jpg
1382.832	0.624	1	2back	Block3	2back/STIM_003.jpg
1386.568	0.704	1	2back	Block3	2back/STIM_003.jpg
1391.097	0.824	1	2back	Block3	2back/STIM_003.jpg
1394.895	0.796	1	2back	Block3	2back/STIM_004.jpg
1399.008	0.584	1	2back	Block3	2back/STIM_004.jpg
1401.735	0.722	1	2back	Block3	2back/STIM_004.jpg
1406.157	0.794	1	2back	Block3	2back/STIM_005.jpg
1409.659	0.8	1	2back	Block3	2back/STIM_005.jpg
1412.743	0.758	1	2back	Block3	2back/STIM_005.jpg
1416.575	0.738	1	2back	Block3	2back/STIM_006.jpg
1421.124	0.675	1	2back	Block3	2back/STIM_006.jpg
1424.48	0.538	1	2back	Block3	2back/STIM_006.jpg
1427.919	0.832	1	2back	Block3	2back/STIM_007.jpg
1431.659	0.58	1	2back	Block3	2back/STIM_007.jpg
1434.593	0.582	1	2back	Block3	2back/STIM_007.jpg
1437.375	0.617	1	2back	Block3	2back/STIM_008.jpg
1441.81	0.705	1	2back	Block3	2back/STIM_008.jpg
1445.861	1.007	1	2back	Block3	2back/STIM_008.jpg
1450.137	0.671	1	2back	Block3	2back/STIM_009.jpg
1454.722	0.647	1	2back	Block3	2back/STIM_009.jpg
1457.432	0.491	1	2back	Block3	2back/STIM_009.jpg
1461.618	0.476	1	2back	Block3	2back/STIM_010.jpg
1465.733	0.795	1	2back	Block3	2back/STIM_010.jpg
1470.197	0.92	1	2back	Block3	2back/STIM_010.jpg
1474.517	0.916	1	2back	Block3	2back/STIM_011.jpg
1479.325	0.495	1	2back	Block3	2back/STIM_011.jpg
1482.479	0.514	1	2back	Block3	2back/STIM_011.jpg
1485.287	0.441	1	2back	Block3	2back/STIM_012.jpg
1489.512	0.766	1	2back	Block3	2back/STIM_012.jpg
1492.63	0.594	1	2back	Block3	2back/STIM_012.jpg
1496.37	0.461	1	2back	Block3	2back/STIM_013.jpg
1500.352	0.876	1	2back	Block3	2back/STIM_013.jpg
1503.806	0.748	1	2back	Block3	2back/STIM_013.jpg
1508.171	0.959	1	2back	Block3	2back/STIM_014.jpg
1512.6	0.79	1	2back	Block3	2back/STIM_014.jpg
1517.182	0.912	1	2back	Block3	2back/STIM_014.jpg
1521.759	0.758	0	2back	Block3	2back/STIM_015.jpg
1524.825	0.746	1	2back	Block3	2back/STIM_015.jpg
1529.113	0.776	1	2back	Block3	2back/STIM_015.jpg
1532.089	0.74	1	2back	Block3	2back/STIM_016.jpg
1536.363	0.994	1	2back	Block3	2back/STIM_016.jpg
1539.677	0.621	1	2back	Block3	2back/STIM_016.jpg
1543.886	0.914	1	2back	Block3	2back/STIM_017.jpg
1547.851	0.443	0	2back	Block3	2back/STIM_017.jpg
1552.075	0.863	1	2back	Block3	2back/STIM_017.jpg
1555.136	0.795	1	2back	Block3	2back/STIM_018.jpg
1559.905	0.588	1	2back	Block3	2back/STIM_018.jpg
1564.033	0.948	1	2back	Block3	2back/STIM_018.jpg
1568.195	0.571	1	2back	Block3	2back/STIM_019.jpg
1570.866	0.963	1	2back	Block3	2back/STIM_019.jpg
1575.417	0.822	1	2back	Block3	2back/STIM_019.jpg
1579.744	0.719	1	2back	Block3	2back/STIM_020.jpg
1583.452	0.759	1	2back	Block3	2back/STIM_020.jpg
1588.146	0.462	1	2back	Block3	2back/STIM_020.jpg
1591.043	0.783	1	2back	Block3	2back/STIM_021.jpg
1594.378	0.801	1	2back	Block3	2back/STIM_021.jpg
1597.755	0.979	1	2back	Block3	2back/STIM_021.jpg
1601.762	0.555	1	2back	Block3	2back/STIM_022.jpg
1604.849	0.934	1	2back	Block3	2back/STIM_022.jpg
1607.877	0.518	1	2back	Block3	2back/STIM_022.jpg
1611.957	0.6	1	2back	Block3	2back/STIM_023.jpg
1614.631	0.981	1	2back	Block3	2back/STIM_023.jpg
1617.719	0.468	1	2back	Block3	2back/STIM_023.jpg
1620.215	0.688	1	2back	Block3	2back/STIM_024.jpg
1624.213	0.945	1	2back	Block3	2back/STIM_024.jpg
1629.104	0.724	1	2back	Block3	2back/STIM_024.jpg
1633.697	0.805	1	2back	Block3	2back/STIM_025.jpg
1638.007	0.911	1	2back	Block3	2back/STIM_025.jpg
1642.125	0.862	1	2back	Block3	2back/STIM_025.jpg
1646.127	0.444	1	2back	Block3	2back/STIM_026.jpg
1649.425	0.709	1	2back	Block3	2back/STIM_026.jpg
1653.438	0.87	1	2back	Block3	2back/STIM_026.jpg
1656.693	1.012	1	2back	Block3	2back/STIM_027.jpg
1661.5	0.547	1	2back	Block3	2back/STIM_027.jpg
1665.168	0.978	1	2back	Block3	2back/STIM_027.jpg
1669.887	0.535	1	2back	Block3	2back/STIM_028.jpg
1672.65	0.562	1	2back	Block3	2back/STIM_028.jpg
1675.432	1.001	1	2back	Block3	2back/STIM_028.jpg
1678.726	0.812	1	2back	Block3	2back/STIM_029.jpg
1682.307	0.685	1	2back	Block3	2back/STIM_029.jpg
1686.047	0.928	1	2back	Block3	2back/STIM_029.jpg
1690.074	0.534	1	2back	Block3	2back/STIM_030.jpg
1694.38	0.93	1	2back	Block3	2back/STIM_030.jpg
1699.206	0.518	1	2back	Block3	2back/STIM_030.jpg
1702.314	0.74	1	2back	Block3	2back/STIM_031.jpg
1706.139	0.72	1	2back	Block3	2back/STIM_031.jpg
1710.082	0.462	1	2back	Block3	2back/STIM_031.jpg
1714.313	0.765	1	2back	Block3	2back/STIM_032.jpg
1717.62	0.596	1	2back	Block3	2back/STIM_032.jpg
1721.599	0.576	1	2back	Block3	2back/STIM_032.jpg
1724.282	0.874	1	2back	Block3	2back/STIM_033.jpg
1727.714	0.679	1	2back	Block3	2back/STIM_033.jpg
1732.251	0.799	1	2back	Block3	2back/STIM_033.jpg
1736.638	0.839	1	2back	Block3	2back/STIM_034.jpg
1740.751	0.646	1	2back	Block3	2back/STIM_034.jpg
1744.239	0.797	1	2back	Block3	2back/STIM_034.jpg
1748.537	0.972	1	2back	Block3	2back/STIM_035.jpg
1752.968	0.946	1	2back	Block3	2back/STIM_035.jpg
1755.969	0.588	1	2back	Block3	2back/STIM_035.jpg
1758.625	0.828	1	2back	Block3	2back/STIM_036.jpg
1761.798	0.595	1	2back	Block3	2back/STIM_036.jpg
1765.494	0.601	1	2back	Block3	2back/STIM_036.jpg
1769.779	0.518	1	2back	Block3	2back/STIM_037.jpg
1773.786	0.63	1	2back	Block3	2back/STIM_037.jpg
1777.516	0.466	1	2back	Block3	2back/STIM_037.jpg
1781.478	0.499	1	2back	Block3	2back/STIM_038.jpg
1784.729	0.984	1	2back	Block3	2back/STIM_038.jpg
1789.436	0.63	1	2back	Block3	2back/STIM_038.jpg
1793.933	0.913	1	2back	Block3	2back/STIM_039.jpg
1797.495	0.993	1	2back	Block3	2back/STIM_039.jpg
1801.433	0.764	1	2back	Block3	2back/STIM_039.jpg
1805.141	0.563	1	0back	Block3	0back/STIM_000.jpg
1808.944	0.609	1	0back	Block3	0back/STIM_000.jpg
1813.358	0.536	1	0back	Block3	0back/STIM_000.jpg
1816.277	0.578	1	0back	Block3	0back/STIM_001.jpg
1820.425	0.72	1	0back	Block3	0back/STIM_001.jpg
1823.448	0.449	1	0back	Block3	0back/STIM_001.jpg
1827.421	0.797	1	0back	Block3	0back/STIM_002.jpg
1830.563	0.598	1	0back	Block3	0back/STIM_002.jpg
1833.778	0.767	1	0back	Block3	0back/STIM_002.jpg
1836.77	0.432	1	0back	Block3	0back/STIM_003.jpg
1840.697	0.637	1	0back	Block3	0back/STIM_003.jpg
1844.386	0.561	1	0back	Block3	0back/STIM_003.jpg
1848.474	0.641	1	0back	Block3	0back/STIM_004.jpg
1851.268	0.486	1	0back	Block3	0back/STIM_004.jpg
1854.297	0.726	1	0back	Block3	0back/STIM_004.jpg
1857.199	0.455	1	0back	Block3	0back/STIM_005.jpg
1861.182	0.506	1	0back	Block3	0back/STIM_005.jpg
1863.95	0.46	1	0back	Block3	0back/STIM_005.jpg
1866.838	0.657	1	0back	Block3	0back/STIM_006.jpg
1870.871	0.808	1	0back	Block3	0back/STIM_006.jpg
1875.588	0.781	1	0back	Block3	0back/STIM_006.jpg
1878.577	0.452	1	0back	Block3	0back/STIM_007.jpg
1881.239	0.65	1	0back	Block3	0back/STIM_007.jpg
1885.09	0.562	1	0back	Block3	0back/STIM_007.jpg
1887.781	0.775	1	0back	Block3	0back/STIM_008.jpg
1890.614	0.427	1	0back	Block3	0back/STIM_008.jpg
1893.711	0.716	1	0back	Block3	0back/STIM_008.jpg
1896.444	0.499	1	0back	Block3	0back/STIM_009.jpg
1899.376	0.499	1	0back	Block3	0back/STIM_009.jpg
1903.341	0.421	1	0back	Block3	0back/STIM_009.jpg
1906.256	0.685	1	0back	Block3	0back/STIM_010.jpg
1909.944	0.833	1	0back	Block3	0back/STIM_010.jpg
1914.5	0.673	1	0back	Block3	0back/STIM_010.jpg
1917.301	0.635	1	0back	Block3	0back/STIM_011.jpg
1920.392	0.449	1	0back	Block3	0back/STIM_011.jpg
1924.132	0.735	1	0back	Block3	0back/STIM_011.jpg
1927.249	0.592	1	0back	Block3	0back/STIM_012.jpg
1931.286	0.505	1	0back	Block3	0back/STIM_012.jpg
1935.294	0.509	1	0back	Block3	0back/STIM_012.jpg
1939.687	0.82	1	0back	Block3	0back/STIM_013.jpg
1944.498	0.572	1	0back	Block3	0back/STIM_013.jpg
1948.042	0.524	1	0back	Block3	0back/STIM_013.jpg
1951.883	0.657	1	0back	Block3	0back/STIM_014.jpg
1954.83	0.765	1	0back	Block3	0back/STIM_014.jpg
1958.854	0.769	1	0back	Block3	0back/STIM_014.jpg
1963.164	0.712	1	0back	Block3	0back/STIM_015.jpg
1966.326	0.769	1	0back	Block3	0back/STIM_015.jpg
1970.601	0.811	1	0back	Block3	0back/STIM_015.jpg
1974.69	0.711	1	0back	Block3	0back/STIM_016.jpg
1979.022	0.454	1	0back	Block3	0back/STIM_016.jpg
1983.286	0.769	1	0back	Block3	0back/STIM_016.jpg
1986.382	0.824	1	0back	Block3	0back/STIM_017.jpg
1990.987	0.703	1	0back	Block3	0back/STIM_017.jpg
1993.933	0.586	1	0back	Block3	0back/STIM_017.jpg
1998.014	0.639	1	0back	Block3	0back/STIM_018.jpg
2001.074	0.617	1	0back	Block3	0back/STIM_018.jpg
2004.819	0.443	1	0back	Block3	0back/STIM_018.jpg
2007.353	0.485	1	0back	Block3	0back/STIM_019.jpg
2011.048	0.711	1	0back	Block3	0back/STIM_019.jpg
2014.246	0.627	1	0back	Block3	0back/STIM_019.jpg
2017.069	0.797	1	2back	Block4	2back/STIM_000.jpg
2020.963	0.899	1	2back	Block4	2back/STIM_000.jpg
2024.723	0.835	1	2back	Block4	2back/STIM_000.jpg
2028.156	0.607	1	2back	Block4	2back/STIM_001.jpg
2031.99	0.976	1	2back	Block4	2back/STIM_001.jpg
2035.633	0.63	1	2back	Block4	2back/STIM_001.jpg
2040.101	0.671	1	2back	Block4	2back/STIM_002.jpg
2043.366	0.462	1	2back	Block4	2back/STIM_002.jpg
2046.363	0.606	1	2back	Block4	2back/STIM_002.jpg
2049.546	0.468	1	2back	Block4	2back/STIM_003.jpg
2053.068	1.021	1	2back	Block4	2back/STIM_003.jpg
2057.488	0.52	1	2back	Block4	2back/STIM_003.jpg
2060.07	0.923	1	2back	Block4	2back/STIM_004.jpg
2063.232	0.861	1	2back	Block4	2back/STIM_004.jpg
2066.11	0.793	1	2back	Block4	2back/STIM_004.jpg
2069.323	0.608	1	2back	Block4	2back/STIM_005.jpg
2073.375	0.781	1	2back	Block4	2back/STIM_005.jpg
2077.832	0.866	1	2back	Block4	2back/STIM_005.jpg
2082.004	1.002	1	2back	Block4	2back/STIM_006.jpg
2086.119	0.896	0	2back	Block4	2back/STIM_006.jpg
2089.975	1.011	1	2back	Block4	2back/STIM_006.jpg
2093.008	0.599	1	2back	Block4	2back/STIM_007.jpg
2096.882	0.538	1	2back	Block4	2back/STIM_007.jpg
2099.965	0.544	1	2back	Block4	2back/STIM_007.jpg
2103.842	0.802	1	2back	Block4	2back/STIM_008.jpg
2106.846	0.942	1	2back	Block4	2back/STIM_008.jpg
2110.44	0.83	1	2back	Block4	2back/STIM_008.jpg
2114.182	0.45	1	2back	Block4	2back/STIM_009.jpg
2118.119	0.856	1	2back	Block4	2back/STIM_009.jpg
2122.378	0.505	1	2back	Block4	2back/STIM_009.jpg
2126.747	0.563	1	2back	Block4	2back/STIM_010.jpg
2129.571	0.463	1	2back	Block4	2back/STIM_010.jpg
2132.902	0.888	1	2back	Block4	2back/STIM_010.jpg
2137.056	0.578	1	2back	Block4	2back/STIM_011.jpg
2141.543	0.557	0	2back	Block4	2back/STIM_011.jpg
2144.326	0.468	1	2back	Block4	2back/STIM_011.jpg
2147.266	0.643	1	2back	Block4	2back/STIM_012.jpg
2151.526	0.688	1	2back	Block4	2back/STIM_012.jpg
2154.905	0.642	1	2back	Block4	2back/STIM_012.jpg
2158.734	0.77	1	2back	Block4	2back/STIM_013.jpg
2163.425	0.933	1	2back	Block4	2back/STIM_013.jpg
2166.646	0.652	1	2back	Block4	2back/STIM_013.jpg
2170.919	0.659	1	2back	Block4	2back/STIM_014.jpg
2173.608	0.464	1	2back	Block4	2back/STIM_014.jpg
2177.101	0.84	1	2back	Block4	2back/STIM_014.jpg
2180.993	0.641	1	2back	Block4	2back/STIM_015.jpg
2184.491	1.011	1	2back	Block4	2back/STIM_015.jpg
2188.516	1.005	1	2back	Block4	2back/STIM_015.jpg
2192.643	0.537	1	2back	Block4	2back/STIM_016.jpg
2196.234	0.786	1	2back	Block4	2back/STIM_016.jpg
2200.804	0.805	1	2back	Block4	2back/STIM_016.jpg
2205.245	0.455	1	2back	Block4	2back/STIM_017.jpg
2209.342	0.498	1	2back	Block4	2back/STIM_017.jpg
2213.439	0.822	1	2back	Block4	2back/STIM_017.jpg
2217.79	0.976	1	2back	Block4	2back/STIM_018.jpg
2220.942	0.564	1	2back	Block4	2back/STIM_018.jpg
2223.51	0.632	1	2back	Block4	2back/STIM_018.jpg
2227.289	0.948	1	2back	Block4	2back/STIM_019.jpg
2230.359	0.53	1	2back	Block4	2back/STIM_019.jpg
2234.773	0.507	1	2back	Block4	2back/STIM_019.jpg
2237.97	0.512	1	2back	Block4	2back/STIM_020.jpg
2242.005	0.653	1	2back	Block4	2back/STIM_020.jpg
2244.667	1.016	1	2back	Block4	2back/STIM_020.jpg
2247.819	0.573	1	2back	Block4	2back/STIM_021.jpg
2251.748	0.778	1	2back	Block4	2back/STIM_021.jpg
2255.21	0.769	1	2back	Block4	2back/STIM_021.jpg
2258.09	0.7	1	2back	Block4	2back/STIM_022.jpg
2260.942	1.011	1	2back	Block4	2back/STIM_022.jpg
2264.482	0.534	1	2back	Block4	2back/STIM_022.jpg
2267.281	0.806	1	2back	Block4	2back/STIM_023.jpg
2270.161	0.588	1	2back	Block4	2back/STIM_023.jpg
2274.604	0.494	1	2back	Block4	2back/STIM_023.jpg
2277.447	0.524	1	2back	Block4	2back/STIM_024.jpg
2281.307	0.81	1	2back	Block4	2back/STIM_024.jpg
2284.722	0.545	1	2back	Block4	2back/STIM_024.jpg
2288.876	0.544	1	2back	Block4	2back/STIM_025.jpg
2291.468	0.871	1	2back	Block4	2back/STIM_025.jpg
2295.905	0.507	1	2back	Block4	2back/STIM_025.jpg
2298.772	0.888	1	2back	Block4	2back/STIM_026.jpg
2303.542	0.626	1	2back	Block4	2back/STIM_026.jpg
2307.788	0.731	1	2back	Block4	2back/STIM_026.jpg
2312.354	0.678	1	2back	Block4	2back/STIM_027.jpg
2316.54	0.789	1	2back	Block4	2back/STIM_027.jpg
2321.024	0.591	1	2back	Block4	2back/STIM_027.jpg
2325.438	0.766	1	2back	Block4	2back/STIM_028.jpg
2330.099	0.818	1	2back	Block4	2back/STIM_028.jpg
2334.278	0.895	1	2back	Block4	2back/STIM_028.jpg
2337.376	0.581	1	2back	Block4	2back/STIM_029.jpg
2340.357	0.902	1	2back	Block4	2back/STIM_029.jpg
2344.291	0.923	1	2back	Block4	2back/STIM_029.jpg
2347.964	0.564	1	2back	Block4	2back/STIM_030.jpg
2351.672	0.634	1	2back	Block4	2back/STIM_030.jpg
2355.537	0.748	1	2back	Block4	2back/STIM_030.jpg
2359.416	0.796	1	2back	Block4	2back/STIM_031.jpg
2362.387	0.904	1	2back	Block4	2back/STIM_031.jpg
2366.965	0.924	1	2back	Block4	2back/STIM_031.jpg
2370.738	0.864	1	2back	Block4	2back/STIM_032.jpg
2374.68	0.462	1	2back	Block4	2back/STIM_032.jpg
2378.208	0.881	1	2back	Block4	2back/STIM_032.jpg
2382.782	0.783	1	2back	Block4	2back/STIM_033.jpg
2387.157	0.955	1	2back	Block4	2back/STIM_033.jpg
2391.635	0.655	1	2back	Block4	2back/STIM_033.jpg
2395.764	0.785	1	2back	Block4	2back/STIM_034.jpg
2398.96	0.967	1	2back	Block4	2back/STIM_034.jpg
2402.574	0.592	1	2back	Block4	2back/STIM_034.jpg
2406.901	0.966	1	2back	Block4	2back/STIM_035.jpg
2410.018	0.548	1	2back	Block4	2back/STIM_035.jpg
2414.291	0.533	1	2back	Block4	2back/STIM_035.jpg
2418.733	0.777	1	2back	Block4	2back/STIM_036.jpg
2423.098	0.802	1	2back	Block4	2back/STIM_036.jpg
2427.153	0.88	1	2back	Block4	2back/STIM_036.jpg
2430.095	0.566	1	2back	Block4	2back/STIM_037.jpg
2432.694	0.706	1	2back	Block4	2back/STIM_037.jpg
2435.833	0.691	1	2back	Block4	2back/STIM_037.jpg
2440.197	0.69	1	2back	Block4	2back/STIM_038.jpg
2443.914	0.869	1	2back	Block4	2back/STIM_038.jpg
2448.348	0.447	1	2back	Block4	2back/STIM_038.jpg
2452.569	0.495	1	2back	Block4	2back/STIM_039.jpg
2456.861	0.788	1	2back	Block4	2back/STIM_039.jpg
2460.989	0.509	1	2back	Block4	2back/STIM_039.jpg
2463.711	0.536	1	0back	Block4	0back/STIM_000.jpg
2466.784	0.709	1	0back	Block4	0back/STIM_000.jpg
2471.336	0.769	1	0back	Block4	0back/STIM_000.jpg
2474.284	0.53	1	0back	Block4	0back/STIM_001.jpg
2477.79	0.53	1	0back	Block4	0back/STIM_001.jpg
2482.009	0.418	1	0back	Block4	0back/STIM_001.jpg
2485.882	0.506	1	0back	Block4	0back/STIM_002.jpg
2489.61	0.66	1	0back	Block4	0back/STIM_002.jpg
2492.303	0.824	1	0back	Block4	0back/STIM_002.jpg
2495.426	0.418	1	0back	Block4	0back/STIM_003.jpg
2497.994	0.418	1	0back	Block4	0back/STIM_003.jpg
2501.539	0.594	1	0back	Block4	0back/STIM_003.jpg
2505.446	0.641	1	0back	Block4	0back/STIM_004.jpg
2508.426	0.819	1	0back	Block4	0back/STIM_004.jpg
2512.133	0.481	1	0back	Block4	0back/STIM_004.jpg
2515.759	0.664	1	0back	Block4	0back/STIM_005.jpg
2519.798	0.472	1	0back	Block4	0back/STIM_005.jpg
2523.202	0.822	1	0back	Block4	0back/STIM_005.jpg
2527.81	0.456	1	0back	Block4	0back/STIM_006.jpg
2532.237	0.664	1	0back	Block4	0back/STIM_006.jpg
2535.033	0.598	1	0back	Block4	0back/STIM_006.jpg
2538.815	0.636	1	0back	Block4	0back/STIM_007.jpg
2542.91	0.603	1	0back	Block4	0back/STIM_007.jpg
2546.141	0.454	1	0back	Block4	0back/STIM_007.jpg
2550.572	0.679	1	0back	Block4	0back/STIM_008.jpg
2554.935	0.798	1	0back	Block4	0back/STIM_008.jpg
2559.555	0.74	1	0back	Block4	0back/STIM_008.jpg
2563.159	0.447	1	0back	Block4	0back/STIM_009.jpg
2566.836	0.82	1	0back	Block4	0back/STIM_009.jpg
2570.774	0.499	1	0back	Block4	0back/STIM_009.jpg
2574.164	0.627	1	0back	Block4	0back/STIM_010.jpg
2578.086	0.821	1	0back	Block4	0back/STIM_010.jpg
2581.95	0.8	1	0back	Block4	0back/STIM_010.jpg
2585.188	0.558	1	0back	Block4	0back/STIM_011.jpg
2588.21	0.5	1	0back	Block4	0back/STIM_011.jpg
2591.375	0.523	1	0back	Block4	0back/STIM_011.jpg
2593.956	0.519	1	0back	Block4	0back/STIM_012.jpg
2598.035	0.524	1	0back	Block4	0back/STIM_012.jpg
2600.902	0.632	1	0back	Block4	0back/STIM_012.jpg
2605.198	0.495	1	0back	Block4	0back/STIM_013.jpg
2609.581	0.753	1	0back	Block4	0back/STIM_013.jpg
2612.508	0.651	1	0back	Block4	0back/STIM_013.jpg
2615.415	0.657	1	0back	Block4	0back/STIM_014.jpg
2619.042	0.454	1	0back	Block4	0back/STIM_014.jpg
2622.884	0.457	1	0back	Block4	0back/STIM_014.jpg
2625.63	0.712	1	0back	Block4	0back/STIM_015.jpg
2629.017	0.678	1	0back	Block4	0back/STIM_015.jpg
2632.207	0.609	1	0back	Block4	0back/STIM_015.jpg
2634.926	0.509	1	0back	Block4	0back/STIM_016.jpg
2639.125	0.699	1	0back	Block4	0back/STIM_016.jpg
2642.357	0.746	1	0back	Block4	0back/STIM_016.jpg
2645.681	0.784	1	0back	Block4	0back/STIM_017.jpg
2649.752	0.781	0	0back	Block4	0back/STIM_017.jpg
2653.555	0.432	1	0back	Block4	0back/STIM_017.jpg
2656.132	0.558	1	0back	Block4	0back/STIM_018.jpg
2658.703	0.72	1	0back	Block4	0back/STIM_018.jpg
2662.639	0.542	1	0back	Block4	0back/STIM_018.jpg
2665.299	0.816	1	0back	Block4	0back/STIM_019.jpg
2669.785	0.585	1	0back	Block4	0back/STIM_019.jpg
2674.178	0.696	1	0back	Block4	0back/STIM_019.jpg
