onset	duration	accuracy	trial_type	learning_stage	stimulus
0.0	1.209	correct	2back	Block1	2back/STIM_000.jpg
3.682	0.759	correct	2back	Block1	2back/STIM_000.jpg
6.613	0.889	correct	2back	Block1	2back/STIM_000.jpg
10.148	0.994	incorrect	2back	Block1	2back/STIM_001.jpg
15.052	0.874	correct	2back	Block1	2back/STIM_001.jpg
18.535	0.882	incorrect	2back	Block1	2back/STIM_001.jpg
22.931	1.239	correct	2back	Block1	2back/STIM_002.jpg
27.89	0.722	correct	2back	Block1	2back/STIM_002.jpg
31.36	0.88	correct	2back	Block1	2back/STIM_002.jpg
34.427	1.091	incorrect	2back	Block1	2back/STIM_003.jpg
38.198	0.704	correct	2back	Block1	2back/STIM_003.jpg
42.656	1.155	correct	2back	Block1	2back/STIM_003.jpg
47.114	1.132	correct	2back	Block1	2back/STIM_004.jpg
51.295	0.602	correct	2back	Block1	2back/STIM_004.jpg
55.751	0.624	correct	2back	Block1	2back/STIM_004.jpg
59.845	0.624	correct	2back	Block1	2back/STIM_005.jpg
62.798	1.05	correct	2back	Block1	2back/STIM_005.jpg
67.02	0.792	incorrect	2back	Block1	2back/STIM_005.jpg
70.576	0.599	incorrect	2back	Block1	2back/STIM_006.jpg
74.367	0.908	correct	2back	Block1	2back/STIM_006.jpg
79.267	1.145	correct	2back	Block1	2back/STIM_006.jpg
84.229	0.796	correct	2back	Block1	2back/STIM_007.jpg
88.078	1.012	correct	2back	Block1	2back/STIM_007.jpg
93.098	1.099	correct	2back	Block1	2back/STIM_007.jpg
96.731	1.163	correct	2back	Block1	2back/STIM_008.jpg
101.912	1.003	correct	2back	Block1	2back/STIM_008.jpg
105.403	0.759	correct	2back	Block1	2back/STIM_008.jpg
109.115	1.053	correct	2back	Block1	2back/STIM_009.jpg
112.358	1.128	correct	2back	Block1	2back/STIM_009.jpg
116.099	0.938	correct	2back	Block1	2back/STIM_009.jpg
120.121	0.666	correct	2back	Block1	2back/STIM_010.jpg
123.738	1.001	correct	2back	Block1	2back/STIM_010.jpg
127.502	0.92	correct	2back	Block1	2back/STIM_010.jpg
130.627	0.619	correct	2back	Block1	2back/STIM_011.jpg
133.72	1.062	correct	2back	Block1	2back/STIM_011.jpg
137.722	0.644	correct	2back	Block1	2back/STIM_011.jpg
140.929	0.898	correct	2back	Block1	2back/STIM_012.jpg
144.136	0.73	correct	2back	Block1	2back/STIM_012.jpg
147.664	0.927	correct	2back	Block1	2back/STIM_012.jpg
151.542	0.899	correct	2back	Block1	2back/STIM_013.jpg
155.381	0.815	correct	2back	Block1	2back/STIM_013.jpg
160.179	1.072	correct	2back	Block1	2back/STIM_013.jpg
163.553	1.196	correct	2back	Block1	2back/STIM_014.jpg
167.252	0.926	correct	2back	Block1	2back/STIM_014.jpg
170.928	0.836	correct	2back	Block1	2back/STIM_014.jpg
175.653	0.833	correct	2back	Block1	2back/STIM_015.jpg
179.568	1.165	correct	2back	Block1	2back/STIM_015.jpg
183.954	1.152	correct	2back	Block1	2back/STIM_015.jpg
187.205	0.919	correct	2back	Block1	2back/STIM_016.jpg
191.988	1.215	correct	2back	Block1	2back/STIM_016.jpg
195.943	1.059	correct	2back	Block1	2back/STIM_016.jpg
200.248	0.75	correct	2back	Block1	2back/STIM_017.jpg
204.926	0.978	correct	2back	Block1	2back/STIM_017.jpg
209.22	0.8	correct	2back	Block1	2back/STIM_017.jpg
212.749	1.215	correct	2back	Block1	2back/STIM_018.jpg
216.33	0.594	correct	2back	Block1	2back/STIM_018.jpg
219.655	0.984	correct	2back	Block1	2back/STIM_018.jpg
224.596	0.722	incorrect	2back	Block1	2back/STIM_019.jpg
227.756	1.024	correct	2back	Block1	2back/STIM_019.jpg
232.312	0.593	correct	2back	Block1	2back/STIM_019.jpg
236.215	0.936	correct	2back	Block1	2back/STIM_020.jpg
240.534	1.12	correct	2back	Block1	2back/STIM_020.jpg
244.349	1.038	correct	2back	Block1	2back/STIM_020.jpg
248.164	0.809	correct	2back	Block1	2back/STIM_021.jpg
251.154	0.83	correct	2back	Block1	2back/STIM_021.jpg
255.914	0.559	correct	2back	Block1	2back/STIM_021.jpg
259.899	0.637	correct	2back	Block1	2back/STIM_022.jpg
263.557	0.928	incorrect	2back	Block1	2back/STIM_022.jpg
266.688	0.567	correct	2back	Block1	2back/STIM_022.jpg
270.939	0.616	correct	2back	Block1	2back/STIM_023.jpg
273.615	1.02	correct	2back	Block1	2back/STIM_023.jpg
277.749	1.186	correct	2back	Block1	2back/STIM_023.jpg
281.171	0.893	incorrect	2back	Block1	2back/STIM_024.jpg
285.356	0.864	correct	2back	Block1	2back/STIM_024.jpg
288.802	0.889	incorrect	2back	Block1	2back/STIM_024.jpg
292.197	0.598	correct	2back	Block1	2back/STIM_025.jpg
295.383	0.868	correct	2back	Block1	2back/STIM_025.jpg
299.724	0.558	correct	2back	Block1	2back/STIM_025.jpg
303.609	0.668	incorrect	2back	Block1	2back/STIM_026.jpg
306.358	0.623	correct	2back	Block1	2back/STIM_026.jpg
309.904	0.61	correct	2back	Block1	2back/STIM_026.jpg
314.039	0.611	correct	2back	Block1	2back/STIM_027.jpg
317.485	0.73	correct	2back	Block1	2back/STIM_027.jpg
322.015	1.207	incorrect	2back	Block1	2back/STIM_027.jpg
326.744	0.866	correct	2back	Block1	2back/STIM_028.jpg
330.959	0.842	correct	2back	Block1	2back/STIM_028.jpg
334.784	0.794	correct	2back	Block1	2back/STIM_028.jpg
337.84	1.238	incorrect	2back	Block1	2back/STIM_029.jpg
342.549	1.05	correct	2back	Block1	2back/STIM_029.jpg
346.715	1.131	correct	2back	Block1	2back/STIM_029.jpg
351.616	0.823	correct	2back	Block1	2back/STIM_030.jpg
354.854	0.826	correct	2back	Block1	2back/STIM_030.jpg
359.044	0.641	correct	2back	Block1	2back/STIM_030.jpg
362.346	0.665	correct	2back	Block1	2back/STIM_031.jpg
366.775	0.841	correct	2back	Block1	2back/STIM_031.jpg
371.448	0.836	correct	2back	Block1	2back/STIM_031.jpg
374.944	0.579	correct	2back	Block1	2back/STIM_032.jpg
378.436	0.984	incorrect	2back	Block1	2back/STIM_032.jpg
383.447	1.17	correct	2back	Block1	2back/STIM_032.jpg
387.695	0.826	correct	2back	Block1	2back/STIM_033.jpg
391.256	0.569	correct	2back	Block1	2back/STIM_033.jpg
394.145	1.17	correct	2back	Block1	2back/STIM_033.jpg
397.8	0.805	correct	2back	Block1	2back/STIM_034.jpg
401.074	1.05	incorrect	2back	Block1	2back/STIM_034.jpg
405.392	0.959	correct	2back	Block1	2back/STIM_034.jpg
409.019	0.81	correct	2back	Block1	2back/STIM_035.jpg
412.873	0.738	correct	2back	Block1	2back/STIM_035.jpg
417.446	0.98	correct	2back	Block1	2back/STIM_035.jpg
420.929	0.802	correct	2back	Block1	2back/STIM_036.jpg
424.459	0.615	correct	2back	Block1	2back/STIM_036.jpg
428.434	0.783	correct	2back	Block1	2back/STIM_036.jpg
431.901	1.097	incorrect	2back	Block1	2back/STIM_037.jpg
436.643	0.75	correct	2back	Block1	2back/STIM_037.jpg
440.519	0.893	correct	2back	Block1	2back/STIM_037.jpg
444.895	1.258	correct	2back	Block1	2back/STIM_038.jpg
448.717	0.988	correct	2back	Block1	2back/STIM_038.jpg
453.663	0.708	correct	2back	Block1	2back/STIM_038.jpg
458.011	1.028	correct	2back	Block1	2back/STIM_039.jpg
462.475	1.026	incorrect	2back	Block1	2back/STIM_039.jpg
465.677	1.134	correct	2back	Block1	2back/STIM_039.jpg
469.973	0.749	correct	0back	Block1	0back/STIM_000.jpg
473.283	0.568	correct	0back	Block1	0back/STIM_000.jpg
477.042	0.474	correct	0back	Block1	0back/STIM_000.jpg
481.432	0.406	incorrect	0back	Block1	0back/STIM_001.jpg
485.48	0.466	incorrect	0back	Block1	0back/STIM_001.jpg
489.183	0.669	correct	0back	Block1	0back/STIM_001.jpg
492.934	0.637	incorrect	0back	Block1	0back/STIM_002.jpg
496.799	0.624	correct	0back	Block1	0back/STIM_002.jpg
499.506	0.649	correct	0back	Block1	0back/STIM_002.jpg
502.237	0.569	correct	0back	Block1	0back/STIM_003.jpg
506.672	0.518	correct	0back	Block1	0back/STIM_003.jpg
511.032	0.461	correct	0back	Block1	0back/STIM_003.jpg
514.547	0.549	correct	0back	Block1	0back/STIM_004.jpg
518.295	0.647	correct	0back	Block1	0back/STIM_004.jpg
521.109	0.62	correct	0back	Block1	0back/STIM_004.jpg
525.603	0.722	correct	0back	Block1	0back/STIM_005.jpg
529.666	0.436	correct	0back	Block1	0back/STIM_005.jpg
533.11	0.595	correct	0back	Block1	0back/STIM_005.jpg
536.974	0.492	correct	0back	Block1	0back/STIM_006.jpg
540.249	0.694	correct	0back	Block1	0back/STIM_006.jpg
544.831	0.724	correct	0back	Block1	0back/STIM_006.jpg
549.363	0.474	correct	0back	Block1	0back/STIM_007.jpg
553.3	0.426	correct	0back	Block1	0back/STIM_007.jpg
557.417	0.671	correct	0back	Block1	0back/STIM_007.jpg
561.611	0.505	correct	0back	Block1	0back/STIM_008.jpg
565.251	0.468	correct	0back	Block1	0back/STIM_008.jpg
568.867	0.727	correct	0back	Block1	0back/STIM_008.jpg
572.094	0.641	correct	0back	Block1	0back/STIM_009.jpg
576.596	0.589	correct	0back	Block1	0back/STIM_009.jpg
580.376	0.541	correct	0back	Block1	0back/STIM_009.jpg
583.45	0.559	correct	0back	Block1	0back/STIM_010.jpg
587.029	0.691	correct	0back	Block1	0back/STIM_010.jpg
591.472	0.624	correct	0back	Block1	0back/STIM_010.jpg
594.26	0.447	correct	0back	Block1	0back/STIM_011.jpg
596.985	0.427	correct	0back	Block1	0back/STIM_011.jpg
600.451	0.423	correct	0back	Block1	0back/STIM_011.jpg
604.466	0.76	correct	0back	Block1	0back/STIM_012.jpg
608.298	0.733	correct	0back	Block1	0back/STIM_012.jpg
612.018	0.553	correct	0back	Block1	0back/STIM_012.jpg
616.192	0.446	correct	0back	Block1	0back/STIM_013.jpg
620.178	0.611	correct	0back	Block1	0back/STIM_013.jpg
624.658	0.494	correct	0back	Block1	0back/STIM_013.jpg
627.306	0.508	correct	0back	Block1	0back/STIM_014.jpg
630.753	0.614	correct	0back	Block1	0back/STIM_014.jpg
633.401	0.418	correct	0back	Block1	0back/STIM_014.jpg
636.921	0.558	correct	0back	Block1	0back/STIM_015.jpg
641.291	0.719	correct	0back	Block1	0back/STIM_015.jpg
645.264	0.496	correct	0back	Block1	0back/STIM_015.jpg
649.397	0.451	incorrect	0back	Block1	0back/STIM_016.jpg
652.732	0.532	correct	0back	Block1	0back/STIM_016.jpg
656.203	0.554	correct	0back	Block1	0back/STIM_016.jpg
660.395	0.509	correct	0back	Block1	0back/STIM_017.jpg
664.732	0.733	correct	0back	Block1	0back/STIM_017.jpg
667.784	0.393	correct	0back	Block1	0back/STIM_017.jpg
670.251	0.508	correct	0back	Block1	0back/STIM_018.jpg
673.812	0.539	correct	0back	Block1	0back/STIM_018.jpg
677.144	0.416	correct	0back	Block1	0back/STIM_018.jpg
680.234	0.726	correct	0back	Block1	0back/STIM_019.jpg
684.229	0.499	correct	0back	Block1	0back/STIM_019.jpg
687.067	0.463	correct	0back	Block1	0back/STIM_019.jpg
689.562	0.681	correct	2back	Block2	2back/STIM_000.jpg
693.299	0.717	correct	2back	Block2	2back/STIM_000.jpg
696.142	0.48	correct	2back	Block2	2back/STIM_000.jpg
700.148	1.129	incorrect	2back	Block2	2back/STIM_001.jpg
704.423	0.466	correct	2back	Block2	2back/STIM_001.jpg
707.647	0.67	correct	2back	Block2	2back/STIM_001.jpg
711.039	0.633	correct	2back	Block2	2back/STIM_002.jpg
715.393	1.014	correct	2back	Block2	2back/STIM_002.jpg
719.561	0.735	correct	2back	Block2	2back/STIM_002.jpg
724.215	1.0	correct	2back	Block2	2back/STIM_003.jpg
728.127	0.821	correct	2back	Block2	2back/STIM_003.jpg
731.641	0.824	correct	2back	Block2	2back/STIM_003.jpg
736.4	1.004	correct	2back	Block2	2back/STIM_004.jpg
739.969	0.731	correct	2back	Block2	2back/STIM_004.jpg
742.761	0.623	correct	2back	Block2	2back/STIM_004.jpg
745.422	0.538	correct	2back	Block2	2back/STIM_005.jpg
749.948	0.521	incorrect	2back	Block2	2back/STIM_005.jpg
753.739	0.783	correct	2back	Block2	2back/STIM_005.jpg
758.473	0.75	correct	2back	Block2	2back/STIM_006.jpg
761.812	0.514	correct	2back	Block2	2back/STIM_006.jpg
765.195	0.483	correct	2back	Block2	2back/STIM_006.jpg
768.024	0.543	correct	2back	Block2	2back/STIM_007.jpg
770.88	0.648	correct	2back	Block2	2back/STIM_007.jpg
774.476	0.683	correct	2back	Block2	2back/STIM_007.jpg
777.767	1.082	incorrect	2back	Block2	2back/STIM_008.jpg
782.36	0.794	correct	2back	Block2	2back/STIM_008.jpg
785.537	0.539	correct	2back	Block2	2back/STIM_008.jpg
789.131	0.597	correct	2back	Block2	2back/STIM_009.jpg
792.936	0.792	correct	2back	Block2	2back/STIM_009.jpg
796.19	0.67	correct	2back	Block2	2back/STIM_009.jpg
799.53	0.512	correct	2back	Block2	2back/STIM_010.jpg
803.147	0.707	correct	2back	Block2	2back/STIM_010.jpg
807.783	0.984	correct	2back	Block2	2back/STIM_010.jpg
811.669	0.499	correct	2back	Block2	2back/STIM_011.jpg
816.061	0.649	correct	2back	Block2	2back/STIM_011.jpg
819.376	0.959	correct	2back	Block2	2back/STIM_011.jpg
823.324	0.898	correct	2back	Block2	2back/STIM_012.jpg
826.807	0.61	correct	2back	Block2	2back/STIM_012.jpg
830.999	0.874	correct	2back	Block2	2back/STIM_012.jpg
834.627	1.041	incorrect	2back	Block2	2back/STIM_013.jpg
839.71	0.657	correct	2back	Block2	2back/STIM_013.jpg
844.052	0.508	correct	2back	Block2	2back/STIM_013.jpg
846.885	0.602	correct	2back	Block2	2back/STIM_014.jpg
849.88	0.555	correct	2back	Block2	2back/STIM_014.jpg
853.338	0.859	correct	2back	Block2	2back/STIM_014.jpg
858.224	0.794	correct	2back	Block2	2back/STIM_015.jpg
862.771	1.006	correct	2back	Block2	2back/STIM_015.jpg
866.983	0.689	correct	2back	Block2	2back/STIM_015.jpg
869.983	0.543	correct	2back	Block2	2back/STIM_016.jpg
872.854	0.91	correct	2back	Block2	2back/STIM_016.jpg
876.044	0.88	correct	2back	Block2	2back/STIM_016.jpg
880.385	0.845	incorrect	2back	Block2	2back/STIM_017.jpg
883.928	0.75	correct	2back	Block2	2back/STIM_017.jpg
888.598	0.56	correct	2back	Block2	2back/STIM_017.jpg
891.376	0.588	correct	2back	Block2	2back/STIM_018.jpg
894.37	0.743	correct	2back	Block2	2back/STIM_018.jpg
898.601	0.937	correct	2back	Block2	2back/STIM_018.jpg
902.475	1.095	correct	2back	Block2	2back/STIM_019.jpg
905.715	0.61	incorrect	2back	Block2	2back/STIM_019.jpg
909.986	0.976	correct	2back	Block2	2back/STIM_019.jpg
914.534	0.842	incorrect	2back	Block2	2back/STIM_020.jpg
917.876	1.056	correct	2back	Block2	2back/STIM_020.jpg
921.321	0.441	correct	2back	Block2	2back/STIM_020.jpg
924.714	0.785	correct	2back	Block2	2back/STIM_021.jpg
929.435	0.685	incorrect	2back	Block2	2back/STIM_021.jpg
932.202	0.68	incorrect	2back	Block2	2back/STIM_021.jpg
936.885	0.857	correct	2back	Block2	2back/STIM_022.jpg
940.303	1.031	incorrect	2back	Block2	2back/STIM_022.jpg
943.567	0.535	correct	2back	Block2	2back/STIM_022.jpg
946.222	0.86	correct	2back	Block2	2back/STIM_023.jpg
951.053	0.958	correct	2back	Block2	2back/STIM_023.jpg
954.573	0.703	correct	2back	Block2	2back/STIM_023.jpg
958.127	0.68	incorrect	2back	Block2	2back/STIM_024.jpg
961.971	1.039	correct	2back	Block2	2back/STIM_024.jpg
966.078	0.865	correct	2back	Block2	2back/STIM_024.jpg
970.157	0.634	correct	2back	Block2	2back/STIM_025.jpg
974.601	0.774	correct	2back	Block2	2back/STIM_025.jpg
978.735	0.722	incorrect	2back	Block2	2back/STIM_025.jpg
982.821	0.609	correct	2back	Block2	2back/STIM_026.jpg
987.313	0.916	correct	2back	Block2	2back/STIM_026.jpg
990.332	0.682	correct	2back	Block2	2back/STIM_026.jpg
993.526	0.906	correct	2back	Block2	2back/STIM_027.jpg
998.18	0.604	correct	2back	Block2	2back/STIM_027.jpg
1001.57	0.887	incorrect	2back	Block2	2back/STIM_027.jpg
1006.154	1.131	correct	2back	Block2	2back/STIM_028.jpg
1010.979	0.597	correct	2back	Block2	2back/STIM_028.jpg
1015.4	0.833	correct	2back	Block2	2back/STIM_028.jpg
1018.515	0.793	correct	2back	Block2	2back/STIM_029.jpg
1022.678	0.755	correct	2back	Block2	2back/STIM_029.jpg
1027.097	0.865	correct	2back	Block2	2back/STIM_029.jpg
1031.482	0.663	correct	2back	Block2	2back/STIM_030.jpg
1035.679	1.007	correct	2back	Block2	2back/STIM_030.jpg
1039.481	0.475	incorrect	2back	Block2	2back/STIM_030.jpg
1042.356	0.587	correct	2back	Block2	2back/STIM_031.jpg
1046.317	0.836	correct	2back	Block2	2back/STIM_031.jpg
1050.583	0.604	correct	2back	Block2	2back/STIM_031.jpg
1054.66	0.681	correct	2back	Block2	2back/STIM_032.jpg
1058.763	0.746	correct	2back	Block2	2back/STIM_032.jpg
1063.093	0.772	correct	2back	Block2	2back/STIM_032.jpg
1067.455	0.613	correct	2back	Block2	2back/STIM_033.jpg
1070.57	0.538	incorrect	2back	Block2	2back/STIM_033.jpg
1074.396	0.742	correct	2back	Block2	2back/STIM_033.jpg
1077.279	1.063	correct	2back	Block2	2back/STIM_034.jpg
1080.579	1.053	correct	2back	Block2	2back/STIM_034.jpg
1084.757	0.972	correct	2back	Block2	2back/STIM_034.jpg
1089.762	0.872	correct	2back	Block2	2back/STIM_035.jpg
1094.489	0.537	correct	2back	Block2	2back/STIM_035.jpg
1097.827	0.69	correct	2back	Block2	2back/STIM_035.jpg
1101.229	0.567	correct	2back	Block2	2back/STIM_036.jpg
1105.153	0.721	correct	2back	Block2	2back/STIM_036.jpg
1108.032	0.806	correct	2back	Block2	2back/STIM_036.jpg
1112.662	0.838	correct	2back	Block2	2back/STIM_037.jpg
1117.235	0.586	correct	2back	Block2	2back/STIM_037.jpg
1121.721	1.006	incorrect	2back	Block2	2back/STIM_037.jpg
1125.128	1.032	correct	2back	Block2	2back/STIM_038.jpg
1130.203	0.461	correct	2back	Block2	2back/STIM_038.jpg
1134.374	0.731	correct	2back	Block2	2back/STIM_038.jpg
1138.34	0.735	correct	2back	Block2	2back/STIM_039.jpg
1141.198	0.474	correct	2back	Block2	2back/STIM_039.jpg
1144.479	0.926	correct	2back	Block2	2back/STIM_039.jpg
1148.103	0.41	correct	0back	Block2	0back/STIM_000.jpg
1152.07	0.734	correct	0back	Block2	0back/STIM_000.jpg
1156.228	0.527	correct	0back	Block2	0back/STIM_000.jpg
1158.931	0.591	correct	0back	Block2	0back/STIM_001.jpg
1163.464	0.722	correct	0back	Block2	0back/STIM_001.jpg
1167.979	0.429	correct	0back	Block2	0back/STIM_001.jpg
1171.582	0.711	correct	0back	Block2	0back/STIM_002.jpg
1176.119	0.533	correct	0back	Block2	0back/STIM_002.jpg
1180.111	0.686	correct	0back	Block2	0back/STIM_002.jpg
1183.277	0.586	correct	0back	Block2	0back/STIM_003.jpg
1187.033	0.672	correct	0back	Block2	0back/STIM_003.jpg
1189.843	0.436	correct	0back	Block2	0back/STIM_003.jpg
1193.278	0.5	correct	0back	Block2	0back/STIM_004.jpg
1195.939	0.398	correct	0back	Block2	0back/STIM_004.jpg
1199.05	0.457	correct	0back	Block2	0back/STIM_004.jpg
1203.301	0.409	correct	0back	Block2	0back/STIM_005.jpg
1206.843	0.735	correct	0back	Block2	0back/STIM_005.jpg
1210.56	0.618	correct	0back	Block2	0back/STIM_005.jpg
1214.438	0.558	correct	0back	Block2	0back/STIM_006.jpg
1217.723	0.51	correct	0back	Block2	0back/STIM_006.jpg
1221.158	0.427	correct	0back	Block2	0back/STIM_006.jpg
1223.72	0.72	correct	0back	Block2	0back/STIM_007.jpg
1227.439	0.432	correct	0back	Block2	0back/STIM_007.jpg
1230.741	0.391	incorrect	0back	Block2	0back/STIM_007.jpg
1234.269	0.529	correct	0back	Block2	0back/STIM_008.jpg
1238.099	0.465	correct	0back	Block2	0back/STIM_008.jpg
1241.257	0.486	correct	0back	Block2	0back/STIM_008.jpg
1243.919	0.683	incorrect	0back	Block2	0back/STIM_009.jpg
1247.211	0.768	correct	0back	Block2	0back/STIM_009.jpg
1251.154	0.56	correct	0back	Block2	0back/STIM_009.jpg
1255.217	0.463	correct	0back	Block2	0back/STIM_010.jpg
1258.75	0.687	correct	0back	Block2	0back/STIM_010.jpg
1262.901	0.436	correct	0back	Block2	0back/STIM_010.jpg
1266.231	0.562	correct	0back	Block2	0back/STIM_011.jpg
1269.024	0.505	correct	0back	Block2	0back/STIM_011.jpg
1271.644	0.648	correct	0back	Block2	0back/STIM_011.jpg
1275.991	0.407	correct	0back	Block2	0back/STIM_012.jpg
1280.255	0.688	correct	0back	Block2	0back/STIM_012.jpg
1284.824	0.524	correct	0back	Block2	0back/STIM_012.jpg
1289.356	0.7	correct	0back	Block2	0back/STIM_013.jpg
1292.565	0.618	correct	0back	Block2	0back/STIM_013.jpg
1296.059	0.565	correct	0back	Block2	0back/STIM_013.jpg
1300.567	0.537	correct	0back	Block2	0back/STIM_014.jpg
1304.815	0.493	correct	0back	Block2	0back/STIM_014.jpg
1308.308	0.443	correct	0back	Block2	0back/STIM_014.jpg
1312.702	0.575	correct	0back	Block2	0back/STIM_015.jpg
1315.934	0.762	correct	0back	Block2	0back/STIM_015.jpg
1320.018	0.552	correct	0back	Block2	0back/STIM_015.jpg
1324.001	0.442	correct	0back	Block2	0back/STIM_016.jpg
1326.827	0.704	correct	0back	Block2	0back/STIM_016.jpg
1330.498	0.733	correct	0back	Block2	0back/STIM_016.jpg
1334.707	0.655	correct	0back	Block2	0back/STIM_017.jpg
1338.977	0.598	correct	0back	Block2	0back/STIM_017.jpg
1342.664	0.463	correct	0back	Block2	0back/STIM_017.jpg
1346.057	0.702	correct	0back	Block2	0back/STIM_018.jpg
1348.93	0.744	correct	0back	Block2	0back/STIM_018.jpg
1352.596	0.562	correct	0back	Block2	0back/STIM_018.jpg
1355.376	0.392	correct	0back	Block2	0back/STIM_019.jpg
1359.351	0.608	correct	0back	Block2	0back/STIM_019.jpg
1362.957	0.69	correct	0back	Block2	0back/STIM_019.jpg
1367.273	0.602	correct	2back	Block3	2back/STIM_000.jpg
1371.173	0.642	correct	2back	Block3	2back/STIM_000.jpg
1375.516	0.909	correct	2back	Block3	2back/STIM_000.jpg
1379.493	0.654	correct	2back	Block3	2back/STIM_001.jpg
1384.04	0.915	correct	2back	Block3	2back/STIM_001.jpg
1388.307	0.754	correct	2back	Block3	2back/STIM_001.jpg
1391.484	0.811	correct	2back	Block3	2back/STIM_002.jpg
1394.882	0.663	correct	2back	Block3	2back/STIM_002.jpg
1397.902	0.445	correct	2back	Block3	2back/STIM_002.jpg
1401.956	0.683	correct	2back	Block3	2back/STIM_003.jpg
1405.007	0.808	correct	2back	Block3	2back/STIM_003.jpg
1408.36	0.468	correct	2back	Block3	2back/STIM_003.jpg
1412.271	0.547	correct	2back	Block3	2back/STIM_004.jpg
1415.133	0.626	correct	2back	Block3	2back/STIM_004.jpg
1418.261	0.882	correct	2back	Block3	2back/STIM_004.jpg
1422.373	0.919	correct	2back	Block3	2back/STIM_005.jpg
1425.523	0.806	correct	2back	Block3	2back/STIM_005.jpg
1429.315	0.72	correct	2back	Block3	2back/STIM_005.jpg
1433.531	0.446	correct	2back	Block3	2back/STIM_006.jpg
1437.71	0.684	correct	2back	Block3	2back/STIM_006.jpg
1441.007	0.873	correct	2back	Block3	2back/STIM_006.jpg
1444.435	0.527	correct	2back	Block3	2back/STIM_007.jpg
1448.336	0.506	correct	2back	Block3	2back/STIM_007.jpg
1451.353	0.545	correct	2back	Block3	2back/STIM_007.jpg
1455.342	0.483	correct	2back	Block3	2back/STIM_008.jpg
1458.852	0.624	incorrect	2back	Block3	2back/STIM_008.jpg
1462.784	0.502	correct	2back	Block3	2back/STIM_008.jpg
1465.493	0.504	correct	2back	Block3	2back/STIM_009.jpg
1468.126	0.515	correct	2back	Block3	2back/STIM_009.jpg
1472.614	0.797	correct	2back	Block3	2back/STIM_009.jpg
1476.063	0.865	correct	2back	Block3	2back/STIM_010.jpg
1480.595	0.477	correct	2back	Block3	2back/STIM_010.jpg
1483.435	0.775	correct	2back	Block3	2back/STIM_010.jpg
1487.733	0.759	correct	2back	Block3	2back/STIM_011.jpg
1491.915	0.577	correct	2back	Block3	2back/STIM_011.jpg
1495.061	0.445	correct	2back	Block3	2back/STIM_011.jpg
1498.817	0.551	correct	2back	Block3	2back/STIM_012.jpg
1502.923	0.594	correct	2back	Block3	2back/STIM_012.jpg
1505.961	0.789	correct	2back	Block3	2back/STIM_012.jpg
1510.312	0.464	correct	2back	Block3	2back/STIM_013.jpg
1514.164	0.658	correct	2back	Block3	2back/STIM_013.jpg
1518.595	0.863	correct	2back	Block3	2back/STIM_013.jpg
1522.195	0.876	correct	2back	Block3	2back/STIM_014.jpg
1526.878	0.466	correct	2back	Block3	2back/STIM_014.jpg
1530.511	0.695	correct	2back	Block3	2back/STIM_014.jpg
1534.884	0.576	incorrect	2back	Block3	2back/STIM_015.jpg
1538.778	0.869	correct	2back	Block3	2back/STIM_015.jpg
1542.187	0.786	correct	2back	Block3	2back/STIM_015.jpg
1545.581	0.928	correct	2back	Block3	2back/STIM_016.jpg
1550.039	0.799	correct	2back	Block3	2back/STIM_016.jpg
1554.329	0.641	correct	2back	Block3	2back/STIM_016.jpg
1558.153	0.73	correct	2back	Block3	2back/STIM_017.jpg
1562.537	0.821	incorrect	2back	Block3	2back/STIM_017.jpg
1567.196	0.522	correct	2back	Block3	2back/STIM_017.jpg
1570.91	0.93	correct	2back	Block3	2back/STIM_018.jpg
1574.972	0.889	correct	2back	Block3	2back/STIM_018.jpg
1579.51	0.686	correct	2back	Block3	2back/STIM_018.jpg
1583.292	0.642	correct	2back	Block3	2back/STIM_019.jpg
1587.261	0.836	correct	2back	Block3	2back/STIM_019.jpg
1591.855	0.625	correct	2back	Block3	2back/STIM_019.jpg
1594.636	0.603	correct	2back	Block3	2back/STIM_020.jpg
1597.933	0.681	correct	2back	Block3	2back/STIM_020.jpg
1600.718	0.677	correct	2back	Block3	2back/STIM_020.jpg
1603.646	0.697	correct	2back	Block3	2back/STIM_021.jpg
1607.294	0.516	correct	2back	Block3	2back/STIM_021.jpg
1611.589	0.804	correct	2back	Block3	2back/STIM_021.jpg
1616.006	0.49	correct	2back	Block3	2back/STIM_022.jpg
1619.668	0.408	correct	2back	Block3	2back/STIM_022.jpg
1622.631	0.603	correct	2back	Block3	2back/STIM_022.jpg
1626.409	0.771	correct	2back	Block3	2back/STIM_023.jpg
1630.086	0.473	correct	2back	Block3	2back/STIM_023.jpg
1632.918	0.606	correct	2back	Block3	2back/STIM_023.jpg
1635.795	0.699	correct	2back	Block3	2back/STIM_024.jpg
1640.165	0.424	correct	2back	Block3	2back/STIM_024.jpg
1642.941	0.861	correct	2back	Block3	2back/STIM_024.jpg
1647.543	0.495	correct	2back	Block3	2back/STIM_025.jpg
1650.241	0.588	correct	2back	Block3	2back/STIM_025.jpg
1654.36	0.677	correct	2back	Block3	2back/STIM_025.jpg
1657.944	0.49	correct	2back	Block3	2back/STIM_026.jpg
1662.029	0.469	correct	2back	Block3	2back/STIM_026.jpg
1665.567	0.829	correct	2back	Block3	2back/STIM_026.jpg
1669.696	0.746	correct	2back	Block3	2back/STIM_027.jpg
1672.656	0.913	correct	2back	Block3	2back/STIM_027.jpg
1677.498	0.417	correct	2back	Block3	2back/STIM_027.jpg
1680.482	0.653	correct	2back	Block3	2back/STIM_028.jpg
1683.256	0.628	correct	2back	Block3	2back/STIM_028.jpg
1686.471	0.41	correct	2back	Block3	2back/STIM_028.jpg
1690.599	0.621	correct	2back	Block3	2back/STIM_029.jpg
1694.977	0.576	correct	2back	Block3	2back/STIM_029.jpg
1697.817	0.882	correct	2back	Block3	2back/STIM_029.jpg
1701.639	0.432	correct	2back	Block3	2back/STIM_030.jpg
1704.997	0.452	correct	2back	Block3	2back/STIM_030.jpg
1709.236	0.42	correct	2back	Block3	2back/STIM_030.jpg
1713.072	0.599	correct	2back	Block3	2back/STIM_031.jpg
1717.399	0.692	correct	2back	Block3	2back/STIM_031.jpg
1721.129	0.882	correct	2back	Block3	2back/STIM_031.jpg
1724.574	0.586	correct	2back	Block3	2back/STIM_032.jpg
1728.912	0.564	correct	2back	Block3	2back/STIM_032.jpg
1731.518	0.732	correct	2back	Block3	2back/STIM_032.jpg
1735.309	0.773	correct	2back	Block3	2back/STIM_033.jpg
1739.752	0.8	correct	2back	Block3	2back/STIM_033.jpg
1742.727	0.833	correct	2back	Block3	2back/STIM_033.jpg
1745.734	0.427	correct	2back	Block3	2back/STIM_034.jpg
1748.693	0.874	correct	2back	Block3	2back/STIM_034.jpg
1753.58	0.935	correct	2back	Block3	2back/STIM_034.jpg
1756.954	0.435	correct	2back	Block3	2back/STIM_035.jpg
1761.053	0.923	correct	2back	Block3	2back/STIM_035.jpg
1764.056	0.616	correct	2back	Block3	2back/STIM_035.jpg
1768.048	0.579	correct	2back	Block3	2back/STIM_036.jpg
1772.47	0.498	correct	2back	Block3	2back/STIM_036.jpg
1775.66	0.604	correct	2back	Block3	2back/STIM_036.jpg
1779.747	0.714	correct	2back	Block3	2back/STIM_037.jpg
1782.873	0.661	correct	2back	Block3	2back/STIM_037.jpg
1786.339	0.49	correct	2back	Block3	2back/STIM_037.jpg
1789.179	0.87	correct	2back	Block3	2back/STIM_038.jpg
1792.658	0.761	correct	2back	Block3	2back/STIM_038.jpg
1797.176	0.726	incorrect	2back	Block3	2back/STIM_038.jpg
1801.689	0.801	correct	2back	Block3	2back/STIM_039.jpg
1805.204	0.803	correct	2back	Block3	2back/STIM_039.jpg
1808.98	0.76	correct	2back	Block3	2back/STIM_039.jpg
1813.247	0.472	incorrect	0back	Block3	0back/STIM_000.jpg
1816.767	0.401	incorrect	0back	Block3	0back/STIM_000.jpg
1819.239	0.517	correct	0back	Block3	0back/STIM_000.jpg
1822.315	0.47	correct	0back	Block3	0back/STIM_001.jpg
1825.83	0.422	correct	0back	Block3	0back/STIM_001.jpg
1830.172	0.75	correct	0back	Block3	0back/STIM_001.jpg
1834.827	0.672	correct	0back	Block3	0back/STIM_002.jpg
1838.573	0.68	correct	0back	Block3	0back/STIM_002.jpg
1842.449	0.523	correct	0back	Block3	0back/STIM_002.jpg
1845.492	0.728	correct	0back	Block3	0back/STIM_003.jpg
1848.411	0.646	correct	0back	Block3	0back/STIM_003.jpg
1851.998	0.454	correct	0back	Block3	0back/STIM_003.jpg
1854.697	0.444	correct	0back	Block3	0back/STIM_004.jpg
1859.114	0.606	correct	0back	Block3	0back/STIM_004.jpg
1862.05	0.516	correct	0back	Block3	0back/STIM_004.jpg
1865.342	0.525	correct	0back	Block3	0back/STIM_005.jpg
1868.941	0.619	correct	0back	Block3	0back/STIM_005.jpg
1872.494	0.749	correct	0back	Block3	0back/STIM_005.jpg
1875.447	0.491	correct	0back	Block3	0back/STIM_006.jpg
1878.716	0.433	correct	0back	Block3	0back/STIM_006.jpg
1882.926	0.506	correct	0back	Block3	0back/STIM_006.jpg
1887.397	0.669	correct	0back	Block3	0back/STIM_007.jpg
1891.627	0.584	correct	0back	Block3	0back/STIM_007.jpg
1896.173	0.71	correct	0back	Block3	0back/STIM_007.jpg
1899.858	0.562	correct	0back	Block3	0back/STIM_008.jpg
1903.015	0.402	incorrect	0back	Block3	0back/STIM_008.jpg
1906.079	0.594	correct	0back	Block3	0back/STIM_008.jpg
1909.724	0.563	correct	0back	Block3	0back/STIM_009.jpg
1913.521	0.763	correct	0back	Block3	0back/STIM_009.jpg
1916.356	0.494	correct	0back	Block3	0back/STIM_009.jpg
1919.73	0.628	correct	0back	Block3	0back/STIM_010.jpg
1922.425	0.586	correct	0back	Block3	0back/STIM_010.jpg
1926.738	0.678	correct	0back	Block3	0back/STIM_010.jpg
1929.562	0.394	correct	0back	Block3	0back/STIM_011.jpg
1933.451	0.64	correct	0back	Block3	0back/STIM_011.jpg
1937.548	0.491	correct	0back	Block3	0back/STIM_011.jpg
1940.421	0.624	correct	0back	Block3	0back/STIM_012.jpg
1943.175	0.507	correct	0back	Block3	0back/STIM_012.jpg
1947.386	0.478	correct	0back	Block3	0back/STIM_012.jpg
1951.06	0.689	correct	0back	Block3	0back/STIM_013.jpg
1954.597	0.552	correct	0back	Block3	0back/STIM_013.jpg
1957.366	0.564	correct	0back	Block3	0back/STIM_013.jpg
1960.672	0.751	correct	0back	Block3	0back/STIM_014.jpg
1963.555	0.386	correct	0back	Block3	0back/STIM_014.jpg
1966.217	0.454	correct	0back	Block3	0back/STIM_014.jpg
1970.495	0.581	correct	0back	Block3	0back/STIM_015.jpg
1973.784	0.486	correct	0back	Block3	0back/STIM_015.jpg
1978.125	0.432	correct	0back	Block3	0back/STIM_015.jpg
1982.462	0.517	correct	0back	Block3	0back/STIM_016.jpg
1985.991	0.586	correct	0back	Block3	0back/STIM_016.jpg
1989.745	0.558	correct	0back	Block3	0back/STIM_016.jpg
1993.406	0.753	correct	0back	Block3	0back/STIM_017.jpg
1996.65	0.557	correct	0back	Block3	0back/STIM_017.jpg
2001.015	0.488	correct	0back	Block3	0back/STIM_017.jpg
2003.638	0.564	correct	0back	Block3	0back/STIM_018.jpg
2008.0	0.615	correct	0back	Block3	0back/STIM_018.jpg
2010.944	0.533	correct	0back	Block3	0back/STIM_018.jpg
2013.978	0.749	correct	0back	Block3	0back/STIM_019.jpg
2017.08	0.664	correct	0back	Block3	0back/STIM_019.jpg
2020.095	0.752	correct	0back	Block3	0back/STIM_019.jpg
2024.11	0.542	correct	2back	Block4	2back/STIM_000.jpg
2028.301	0.778	correct	2back	Block4	2back/STIM_000.jpg
2031.558	0.606	correct	2back	Block4	2back/STIM_000.jpg
2034.278	0.908	correct	2back	Block4	2back/STIM_001.jpg
2038.609	0.742	correct	2back	Block4	2back/STIM_001.jpg
2042.633	0.921	correct	2back	Block4	2back/STIM_001.jpg
2045.669	0.586	correct	2back	Block4	2back/STIM_002.jpg
2050.008	0.443	correct	2back	Block4	2back/STIM_002.jpg
2052.932	0.411	correct	2back	Block4	2back/STIM_002.jpg
2056.823	0.566	correct	2back	Block4	2back/STIM_003.jpg
2060.283	0.644	correct	2back	Block4	2back/STIM_003.jpg
2063.01	0.509	correct	2back	Block4	2back/STIM_003.jpg
2067.381	0.91	correct	2back	Block4	2back/STIM_004.jpg
2071.353	0.591	correct	2back	Block4	2back/STIM_004.jpg
2075.551	0.772	correct	2back	Block4	2back/STIM_004.jpg
2078.961	0.866	correct	2back	Block4	2back/STIM_005.jpg
2082.596	0.407	correct	2back	Block4	2back/STIM_005.jpg
2086.876	0.768	correct	2back	Block4	2back/STIM_005.jpg
2090.471	0.575	correct	2back	Block4	2back/STIM_006.jpg
2094.349	0.512	incorrect	2back	Block4	2back/STIM_006.jpg
2098.124	0.678	correct	2back	Block4	2back/STIM_006.jpg
2101.118	0.5	correct	2back	Block4	2back/STIM_007.jpg
2104.463	0.469	correct	2back	Block4	2back/STIM_007.jpg
2107.663	0.74	correct	2back	Block4	2back/STIM_007.jpg
2112.328	0.407	correct	2back	Block4	2back/STIM_008.jpg
2115.376	0.445	correct	2back	Block4	2back/STIM_008.jpg
2118.216	0.46	correct	2back	Block4	2back/STIM_008.jpg
2121.138	0.808	correct	2back	Block4	2back/STIM_009.jpg
2125.928	0.595	correct	2back	Block4	2back/STIM_009.jpg
2129.337	0.445	correct	2back	Block4	2back/STIM_009.jpg
2132.815	0.886	correct	2back	Block4	2back/STIM_010.jpg
2137.306	0.512	correct	2back	Block4	2back/STIM_010.jpg
2139.847	0.407	correct	2back	Block4	2back/STIM_010.jpg
2143.652	0.616	correct	2back	Block4	2back/STIM_011.jpg
2148.019	0.612	incorrect	2back	Block4	2back/STIM_011.jpg
2151.721	0.555	correct	2back	Block4	2back/STIM_011.jpg
2154.887	0.775	correct	2back	Block4	2back/STIM_012.jpg
2159.355	0.905	correct	2back	Block4	2back/STIM_012.jpg
2162.364	0.912	correct	2back	Block4	2back/STIM_012.jpg
2165.44	0.599	correct	2back	Block4	2back/STIM_013.jpg
2169.566	0.565	correct	2back	Block4	2back/STIM_013.jpg
2172.601	0.588	correct	2back	Block4	2back/STIM_013.jpg
2177.038	0.818	correct	2back	Block4	2back/STIM_014.jpg
2181.171	0.93	correct	2back	Block4	2back/STIM_014.jpg
2185.123	0.536	correct	2back	Block4	2back/STIM_014.jpg
2187.702	0.897	correct	2back	Block4	2back/STIM_015.jpg
2191.627	0.46	correct	2back	Block4	2back/STIM_015.jpg
2195.376	0.543	correct	2back	Block4	2back/STIM_015.jpg
2198.509	0.598	correct	2back	Block4	2back/STIM_016.jpg
2202.064	0.711	correct	2back	Block4	2back/STIM_016.jpg
2206.034	0.429	correct	2back	Block4	2back/STIM_016.jpg
2209.572	0.633	correct	2back	Block4	2back/STIM_017.jpg
2214.117	0.523	correct	2back	Block4	2back/STIM_017.jpg
2218.126	0.872	correct	2back	Block4	2back/STIM_017.jpg
2222.491	0.565	correct	2back	Block4	2back/STIM_018.jpg
2225.311	0.865	correct	2back	Block4	2back/STIM_018.jpg
2229.059	0.861	correct	2back	Block4	2back/STIM_018.jpg
2232.437	0.886	correct	2back	Block4	2back/STIM_019.jpg
2236.392	0.638	correct	2back	Block4	2back/STIM_019.jpg
2240.955	0.448	correct	2back	Block4	2back/STIM_019.jpg
2243.835	0.711	correct	2back	Block4	2back/STIM_020.jpg
2247.674	0.504	correct	2back	Block4	2back/STIM_020.jpg
2251.673	0.796	correct	2back	Block4	2back/STIM_020.jpg
2254.657	0.844	correct	2back	Block4	2back/STIM_021.jpg
2258.862	0.58	correct	2back	Block4	2back/STIM_021.jpg
2262.422	0.717	correct	2back	Block4	2back/STIM_021.jpg
2266.464	0.559	correct	2back	Block4	2back/STIM_022.jpg
2269.284	0.553	correct	2back	Block4	2back/STIM_022.jpg
2272.791	0.917	correct	2back	Block4	2back/STIM_022.jpg
2277.494	0.529	correct	2back	Block4	2back/STIM_023.jpg
2281.263	0.553	correct	2back	Block4	2back/STIM_023.jpg
2283.921	0.5	correct	2back	Block4	2back/STIM_023.jpg
2286.629	0.878	correct	2back	Block4	2back/STIM_024.jpg
2289.997	0.805	correct	2back	Block4	2back/STIM_024.jpg
2292.998	0.659	correct	2back	Block4	2back/STIM_024.jpg
2296.705	0.524	correct	2back	Block4	2back/STIM_025.jpg
2300.403	0.576	correct	2back	Block4	2back/STIM_025.jpg
2304.122	0.76	correct	2back	Block4	2back/STIM_025.jpg
2307.145	0.414	correct	2back	Block4	2back/STIM_026.jpg
2310.381	0.824	correct	2back	Block4	2back/STIM_026.jpg
2314.91	0.771	correct	2back	Block4	2back/STIM_026.jpg
2318.564	0.751	correct	2back	Block4	2back/STIM_027.jpg
2323.148	0.639	correct	2back	Block4	2back/STIM_027.jpg
2325.949	0.505	correct	2back	Block4	2back/STIM_027.jpg
2328.892	0.714	correct	2back	Block4	2back/STIM_028.jpg
2332.969	0.927	correct	2back	Block4	2back/STIM_028.jpg
2336.453	0.787	correct	2back	Block4	2back/STIM_028.jpg
2340.092	0.519	correct	2back	Block4	2back/STIM_029.jpg
2342.843	0.874	correct	2back	Block4	2back/STIM_029.jpg
2347.707	0.507	correct	2back	Block4	2back/STIM_029.jpg
2351.89	0.623	correct	2back	Block4	2back/STIM_030.jpg
2356.363	0.784	correct	2back	Block4	2back/STIM_030.jpg
2359.284	0.52	correct	2back	Block4	2back/STIM_030.jpg
2362.656	0.876	correct	2back	Block4	2back/STIM_031.jpg
2365.629	0.627	correct	2back	Block4	2back/STIM_031.jpg
2368.779	0.653	correct	2back	Block4	2back/STIM_031.jpg
2372.147	0.853	correct	2back	Block4	2back/STIM_032.jpg
2375.246	0.729	correct	2back	Block4	2back/STIM_032.jpg
2378.954	0.59	correct	2back	Block4	2back/STIM_032.jpg
2383.511	0.427	correct	2back	Block4	2back/STIM_033.jpg
2386.125	0.408	correct	2back	Block4	2back/STIM_033.jpg
2389.035	0.802	correct	2back	Block4	2back/STIM_033.jpg
2393.583	0.483	correct	2back	Block4	2back/STIM_034.jpg
2397.647	0.747	correct	2back	Block4	2back/STIM_034.jpg
2400.633	0.815	correct	2back	Block4	2back/STIM_034.jpg
2403.494	0.816	correct	2back	Block4	2back/STIM_035.jpg
2407.635	0.889	correct	2back	Block4	2back/STIM_035.jpg
2410.91	0.616	correct	2back	Block4	2back/STIM_035.jpg
2414.445	0.442	correct	2back	Block4	2back/STIM_036.jpg
2418.477	0.935	correct	2back	Block4	2back/STIM_036.jpg
2422.055	0.797	correct	2back	Block4	2back/STIM_036.jpg
2426.23	0.618	correct	2back	Block4	2back/STIM_037.jpg
2429.334	0.701	correct	2back	Block4	2back/STIM_037.jpg
2433.921	0.743	correct	2back	Block4	2back/STIM_037.jpg
2438.131	0.881	correct	2back	Block4	2back/STIM_038.jpg
2442.556	0.624	correct	2back	Block4	2back/STIM_038.jpg
2446.286	0.619	correct	2back	Block4	2back/STIM_038.jpg
2449.691	0.622	correct	2back	Block4	2back/STIM_039.jpg
2453.599	0.532	correct	2back	Block4	2back/STIM_039.jpg
2457.862	0.52	correct	2back	Block4	2back/STIM_039.jpg
2461.434	0.726	correct	0back	Block4	0back/STIM_000.jpg
2465.106	0.723	correct	0back	Block4	0back/STIM_000.jpg
2468.785	0.445	correct	0back	Block4	0back/STIM_000.jpg
2471.505	0.485	correct	0back	Block4	0back/STIM_001.jpg
2474.678	0.398	correct	0back	Block4	0back/STIM_001.jpg
2477.792	0.447	correct	0back	Block4	0back/STIM_001.jpg
2481.481	0.604	correct	0back	Block4	0back/STIM_002.jpg
2484.76	0.7	correct	0back	Block4	0back/STIM_002.jpg
2488.957	0.699	correct	0back	Block4	0back/STIM_002.jpg
2492.715	0.607	correct	0back	Block4	0back/STIM_003.jpg
2495.365	0.401	correct	0back	Block4	0back/STIM_003.jpg
2498.49	0.636	correct	0back	Block4	0back/STIM_003.jpg
2502.436	0.392	correct	0back	Block4	0back/STIM_004.jpg
2506.804	0.665	correct	0back	Block4	0back/STIM_004.jpg
2510.617	0.416	correct	0back	Block4	0back/STIM_004.jpg
2513.995	0.471	correct	0back	Block4	0back/STIM_005.jpg
2518.23	0.452	correct	0back	Block4	0back/STIM_005.jpg
2521.73	0.666	correct	0back	Block4	0back/STIM_005.jpg
2525.418	0.574	correct	0back	Block4	0back/STIM_006.jpg
2528.545	0.42	correct	0back	Block4	0back/STIM_006.jpg
2531.4	0.485	correct	0back	Block4	0back/STIM_006.jpg
2535.85	0.433	correct	0back	Block4	0back/STIM_007.jpg
2538.818	0.63	correct	0back	Block4	0back/STIM_007.jpg
2541.842	0.692	correct	0back	Block4	0back/STIM_007.jpg
2546.076	0.697	correct	0back	Block4	0back/STIM_008.jpg
2550.541	0.667	correct	0back	Block4	0back/STIM_008.jpg
2554.647	0.629	correct	0back	Block4	0back/STIM_008.jpg
2557.432	0.587	correct	0back	Block4	0back/STIM_009.jpg
2561.481	0.554	correct	0back	Block4	0back/STIM_009.jpg
2564.544	0.434	correct	0back	Block4	0back/STIM_009.jpg
2568.047	0.76	correct	0back	Block4	0back/STIM_010.jpg
2572.536	0.581	correct	0back	Block4	0back/STIM_010.jpg
2575.442	0.751	incorrect	0back	Block4	0back/STIM_010.jpg
2579.276	0.485	correct	0back	Block4	0back/STIM_011.jpg
2582.632	0.544	correct	0back	Block4	0back/STIM_011.jpg
2585.367	0.575	correct	0back	Block4	0back/STIM_011.jpg
2588.652	0.455	correct	0back	Block4	0back/STIM_012.jpg
2592.191	0.473	incorrect	0back	Block4	0back/STIM_012.jpg
2594.712	0.488	correct	0back	Block4	0back/STIM_012.jpg
2598.041	0.748	correct	0back	Block4	0back/STIM_013.jpg
2601.534	0.701	correct	0back	Block4	0back/STIM_013.jpg
2606.19	0.657	correct	0back	Block4	0back/STIM_013.jpg
2608.923	0.409	correct	0back	Block4	0back/STIM_014.jpg
2612.726	0.619	incorrect	0back	Block4	0back/STIM_014.jpg
2616.597	0.638	correct	0back	Block4	0back/STIM_014.jpg
2620.689	0.567	correct	0back	Block4	0back/STIM_015.jpg
2623.818	0.549	correct	0back	Block4	0back/STIM_015.jpg
2627.897	0.472	correct	0back	Block4	0back/STIM_015.jpg
2631.939	0.766	correct	0back	Block4	0back/STIM_016.jpg
2635.09	0.523	correct	0back	Block4	0back/STIM_016.jpg
2639.01	0.625	correct	0back	Block4	0back/STIM_016.jpg
2642.084	0.573	correct	0back	Block4	0back/STIM_017.jpg
2645.422	0.476	incorrect	0back	Block4	0back/STIM_017.jpg
2648.903	0.668	correct	0back	Block4	0back/STIM_017.jpg
2651.949	0.616	correct	0back	Block4	0back/STIM_018.jpg
2654.754	0.406	correct	0back	Block4	0back/STIM_018.jpg
2658.396	0.397	correct	0back	Block4	0back/STIM_018.jpg
2661.991	0.582	correct	0back	Block4	0back/STIM_019.jpg
2666.467	0.695	correct	0back	Block4	0back/STIM_019.jpg
2669.989	0.724	correct	0back	Block4	0back/STIM_019.jpg
