onset	duration	accuracy	trial_type	learning_stage	stimulus
0.0	0.95	correct	incongruent	Block1	incongruent/STIM_000.jpg
4.334	1.048	correct	incongruent	Block1	incongruent/STIM_000.jpg
8.851	0.852	correct	incongruent	Block1	incongruent/STIM_000.jpg
13.333	0.985	correct	incongruent	Block1	incongruent/STIM_000.jpg
16.833	1.056	correct	incongruent	Block1	incongruent/STIM_000.jpg
20.515	1.059	correct	incongruent	Block1	incongruent/STIM_001.jpg
25.213	1.462	incorrect	incongruent	Block1	incongruent/STIM_001.jpg
30.077	1.334	correct	incongruent	Block1	incongruent/STIM_001.jpg
33.997	1.236	correct	incongruent	Block1	incongruent/STIM_001.jpg
38.682	0.941	incorrect	incongruent	Block1	incongruent/STIM_001.jpg
42.959	1.536	incorrect	incongruent	Block1	incongruent/STIM_002.jpg
46.827	1.286	correct	incongruent	Block1	incongruent/STIM_002.jpg
50.736	1.081	correct	incongruent	Block1	incongruent/STIM_002.jpg
55.456	1.187	correct	incongruent	Block1	incongruent/STIM_002.jpg
59.543	1.089	correct	incongruent	Block1	incongruent/STIM_002.jpg
63.625	1.111	correct	incongruent	Block1	incongruent/STIM_003.jpg
67.966	1.418	correct	incongruent	Block1	incongruent/STIM_003.jpg
72.712	1.38	incorrect	incongruent	Block1	incongruent/STIM_003.jpg
77.792	1.222	correct	incongruent	Block1	incongruent/STIM_003.jpg
82.826	1.223	correct	incongruent	Block1	incongruent/STIM_003.jpg
86.561	0.976	incorrect	incongruent	Block1	incongruent/STIM_004.jpg
90.75	0.935	incorrect	incongruent	Block1	incongruent/STIM_004.jpg
95.152	0.719	correct	incongruent	Block1	incongruent/STIM_004.jpg
99.645	1.142	correct	incongruent	Block1	incongruent/STIM_004.jpg
103.841	0.925	correct	incongruent	Block1	incongruent/STIM_004.jpg
107.481	1.379	correct	incongruent	Block1	incongruent/STIM_005.jpg
111.622	0.891	correct	incongruent	Block1	incongruent/STIM_005.jpg
115.689	0.785	correct	incongruent	Block1	incongruent/STIM_005.jpg
120.154	0.795	correct	incongruent	Block1	incongruent/STIM_005.jpg
123.238	0.759	correct	incongruent	Block1	incongruent/STIM_005.jpg
126.33	1.22	correct	incongruent	Block1	incongruent/STIM_006.jpg
130.596	1.014	incorrect	incongruent	Block1	incongruent/STIM_006.jpg
134.255	1.394	correct	incongruent	Block1	incongruent/STIM_006.jpg
138.682	1.239	correct	incongruent	Block1	incongruent/STIM_006.jpg
143.495	0.859	correct	incongruent	Block1	incongruent/STIM_006.jpg
147.58	1.225	correct	incongruent	Block1	incongruent/STIM_007.jpg
152.618	0.846	correct	incongruent	Block1	incongruent/STIM_007.jpg
156.047	1.31	correct	incongruent	Block1	incongruent/STIM_007.jpg
160.323	1.059	correct	incongruent	Block1	incongruent/STIM_007.jpg
164.466	0.827	correct	incongruent	Block1	incongruent/STIM_007.jpg
167.751	1.495	correct	incongruent	Block1	incongruent/STIM_008.jpg
172.581	0.83	correct	incongruent	Block1	incongruent/STIM_008.jpg
176.999	1.018	correct	incongruent	Block1	incongruent/STIM_008.jpg
181.316	1.368	incorrect	incongruent	Block1	incongruent/STIM_008.jpg
184.746	0.818	correct	incongruent	Block1	incongruent/STIM_008.jpg
188.265	0.849	incorrect	incongruent	Block1	incongruent/STIM_009.jpg
191.933	0.921	correct	incongruent	Block1	incongruent/STIM_009.jpg
195.434	1.432	correct	incongruent	Block1	incongruent/STIM_009.jpg
199.668	1.15	correct	incongruent	Block1	incongruent/STIM_009.jpg
203.103	1.212	incorrect	incongruent	Block1	incongruent/STIM_009.jpg
207.992	1.578	correct	incongruent	Block1	incongruent/STIM_010.jpg
211.765	1.146	incorrect	incongruent	Block1	incongruent/STIM_010.jpg
216.245	1.074	correct	incongruent	Block1	incongruent/STIM_010.jpg
219.759	0.863	correct	incongruent	Block1	incongruent/STIM_010.jpg
222.97	1.236	correct	incongruent	Block1	incongruent/STIM_010.jpg
227.368	0.956	incorrect	incongruent	Block1	incongruent/STIM_011.jpg
231.957	0.768	incorrect	incongruent	Block1	incongruent/STIM_011.jpg
235.639	0.686	correct	incongruent	Block1	incongruent/STIM_011.jpg
239.997	1.23	correct	incongruent	Block1	incongruent/STIM_011.jpg
244.41	1.079	correct	incongruent	Block1	incongruent/STIM_011.jpg
249.488	0.975	correct	incongruent	Block1	incongruent/STIM_012.jpg
253.586	1.306	incorrect	incongruent	Block1	incongruent/STIM_012.jpg
258.654	0.921	correct	incongruent	Block1	incongruent/STIM_012.jpg
263.319	1.115	correct	incongruent	Block1	incongruent/STIM_012.jpg
267.11	0.994	correct	incongruent	Block1	incongruent/STIM_012.jpg
270.722	1.097	incorrect	incongruent	Block1	incongruent/STIM_013.jpg
274.313	1.214	correct	incongruent	Block1	incongruent/STIM_013.jpg
278.141	1.331	correct	incongruent	Block1	incongruent/STIM_013.jpg
283.405	1.235	correct	incongruent	Block1	incongruent/STIM_013.jpg
288.623	0.782	correct	incongruent	Block1	incongruent/STIM_013.jpg
292.6	1.267	correct	incongruent	Block1	incongruent/STIM_014.jpg
296.195	1.018	correct	incongruent	Block1	incongruent/STIM_014.jpg
301.117	0.869	correct	incongruent	Block1	incongruent/STIM_014.jpg
304.905	1.324	correct	incongruent	Block1	incongruent/STIM_014.jpg
308.765	1.186	correct	incongruent	Block1	incongruent/STIM_014.jpg
311.99	1.479	correct	incongruent	Block1	incongruent/STIM_015.jpg
316.523	1.356	correct	incongruent	Block1	incongruent/STIM_015.jpg
319.937	1.096	correct	incongruent	Block1	incongruent/STIM_015.jpg
323.35	1.274	incorrect	incongruent	Block1	incongruent/STIM_015.jpg
327.821	0.769	correct	incongruent	Block1	incongruent/STIM_015.jpg
332.393	1.368	correct	incongruent	Block1	incongruent/STIM_016.jpg
336.076	1.101	correct	incongruent	Block1	incongruent/STIM_016.jpg
339.871	1.282	incorrect	incongruent	Block1	incongruent/STIM_016.jpg
343.922	1.098	correct	incongruent	Block1	incongruent/STIM_016.jpg
347.086	1.051	correct	incongruent	Block1	incongruent/STIM_016.jpg
351.309	1.089	incorrect	incongruent	Block1	incongruent/STIM_017.jpg
356.064	0.772	correct	incongruent	Block1	incongruent/STIM_017.jpg
359.367	0.886	correct	incongruent	Block1	incongruent/STIM_017.jpg
363.429	0.826	incorrect	incongruent	Block1	incongruent/STIM_017.jpg
366.504	1.125	correct	incongruent	Block1	incongruent/STIM_017.jpg
369.946	1.158	correct	incongruent	Block1	incongruent/STIM_018.jpg
373.724	1.2	incorrect	incongruent	Block1	incongruent/STIM_018.jpg
377.085	0.788	incorrect	incongruent	Block1	incongruent/STIM_018.jpg
380.232	0.827	correct	incongruent	Block1	incongruent/STIM_018.jpg
383.087	0.685	correct	incongruent	Block1	incongruent/STIM_018.jpg
386.586	0.841	correct	incongruent	Block1	incongruent/STIM_019.jpg
390.856	0.742	incorrect	incongruent	Block1	incongruent/STIM_019.jpg
395.548	0.863	correct	incongruent	Block1	incongruent/STIM_019.jpg
398.418	0.751	correct	incongruent	Block1	incongruent/STIM_019.jpg
402.533	0.651	correct	incongruent	Block1	incongruent/STIM_019.jpg
405.932	1.348	correct	incongruent	Block1	incongruent/STIM_020.jpg
411.138	1.411	correct	incongruent	Block1	incongruent/STIM_020.jpg
415.037	0.954	correct	incongruent	Block1	incongruent/STIM_020.jpg
419.435	0.834	correct	incongruent	Block1	incongruent/STIM_020.jpg
422.98	0.972	correct	incongruent	Block1	incongruent/STIM_020.jpg
427.942	1.044	correct	incongruent	Block1	incongruent/STIM_021.jpg
431.468	1.218	correct	incongruent	Block1	incongruent/STIM_021.jpg
435.899	1.214	correct	incongruent	Block1	incongruent/STIM_021.jpg
439.64	0.734	correct	incongruent	Block1	incongruent/STIM_021.jpg
443.855	0.814	correct	incongruent	Block1	incongruent/STIM_021.jpg
447.066	0.757	correct	incongruent	Block1	incongruent/STIM_022.jpg
451.191	1.401	correct	incongruent	Block1	incongruent/STIM_022.jpg
456.588	1.047	correct	incongruent	Block1	incongruent/STIM_022.jpg
460.031	0.781	incorrect	incongruent	Block1	incongruent/STIM_022.jpg
463.051	1.143	correct	incongruent	Block1	incongruent/STIM_022.jpg
467.128	1.361	correct	incongruent	Block1	incongruent/STIM_023.jpg
472.311	1.206	incorrect	incongruent	Block1	incongruent/STIM_023.jpg
476.675	0.721	correct	incongruent	Block1	incongruent/STIM_023.jpg
481.256	1.053	correct	incongruent	Block1	incongruent/STIM_023.jpg
484.631	1.246	incorrect	incongruent	Block1	incongruent/STIM_023.jpg
489.56	1.601	correct	incongruent	Block1	incongruent/STIM_024.jpg
494.191	0.937	incorrect	incongruent	Block1	incongruent/STIM_024.jpg
498.689	1.449	correct	incongruent	Block1	incongruent/STIM_024.jpg
503.82	1.203	correct	incongruent	Block1	incongruent/STIM_024.jpg
507.373	1.05	incorrect	incongruent	Block1	incongruent/STIM_024.jpg
512.228	0.851	correct	incongruent	Block1	incongruent/STIM_025.jpg
516.59	0.959	correct	incongruent	Block1	incongruent/STIM_025.jpg
520.222	1.437	correct	incongruent	Block1	incongruent/STIM_025.jpg
524.878	1.271	incorrect	incongruent	Block1	incongruent/STIM_025.jpg
528.985	1.285	correct	incongruent	Block1	incongruent/STIM_025.jpg
532.464	0.776	correct	incongruent	Block1	incongruent/STIM_026.jpg
536.756	1.464	correct	incongruent	Block1	incongruent/STIM_026.jpg
541.104	1.227	correct	incongruent	Block1	incongruent/STIM_026.jpg
545.313	1.081	correct	incongruent	Block1	incongruent/STIM_026.jpg
550.173	0.737	correct	incongruent	Block1	incongruent/STIM_026.jpg
552.979	1.28	correct	incongruent	Block1	incongruent/STIM_027.jpg
557.361	1.184	incorrect	incongruent	Block1	incongruent/STIM_027.jpg
561.298	1.061	correct	incongruent	Block1	incongruent/STIM_027.jpg
564.96	0.65	incorrect	incongruent	Block1	incongruent/STIM_027.jpg
569.39	1.201	incorrect	incongruent	Block1	incongruent/STIM_027.jpg
573.769	1.601	correct	incongruent	Block1	incongruent/STIM_028.jpg
579.129	1.455	correct	incongruent	Block1	incongruent/STIM_028.jpg
583.105	1.191	incorrect	incongruent	Block1	incongruent/STIM_028.jpg
586.594	0.74	correct	incongruent	Block1	incongruent/STIM_028.jpg
589.809	0.876	correct	incongruent	Block1	incongruent/STIM_028.jpg
593.969	1.091	correct	incongruent	Block1	incongruent/STIM_029.jpg
598.572	1.216	correct	incongruent	Block1	incongruent/STIM_029.jpg
603.596	1.147	correct	incongruent	Block1	incongruent/STIM_029.jpg
607.287	1.214	correct	incongruent	Block1	incongruent/STIM_029.jpg
612.003	1.241	correct	incongruent	Block1	incongruent/STIM_029.jpg
615.599	0.691	correct	congruent	Block1	congruent/STIM_000.jpg
618.521	0.594	correct	congruent	Block1	congruent/STIM_000.jpg
622.377	0.594	incorrect	congruent	Block1	congruent/STIM_000.jpg
625.826	0.88	correct	congruent	Block1	congruent/STIM_000.jpg
628.753	0.645	correct	congruent	Block1	congruent/STIM_000.jpg
632.855	0.571	correct	congruent	Block1	congruent/STIM_001.jpg
637.392	0.714	correct	congruent	Block1	congruent/STIM_001.jpg
640.815	0.6	correct	congruent	Block1	congruent/STIM_001.jpg
644.683	0.706	correct	congruent	Block1	congruent/STIM_001.jpg
648.365	0.854	correct	congruent	Block1	congruent/STIM_001.jpg
652.359	0.631	correct	congruent	Block1	congruent/STIM_002.jpg
656.3	0.956	correct	congruent	Block1	congruent/STIM_002.jpg
659.626	0.57	correct	congruent	Block1	congruent/STIM_002.jpg
663.074	0.829	correct	congruent	Block1	congruent/STIM_002.jpg
667.561	0.806	correct	congruent	Block1	congruent/STIM_002.jpg
672.006	0.584	correct	congruent	Block1	congruent/STIM_003.jpg
675.198	0.869	correct	congruent	Block1	congruent/STIM_003.jpg
678.412	0.75	correct	congruent	Block1	congruent/STIM_003.jpg
682.834	0.679	correct	congruent	Block1	congruent/STIM_003.jpg
686.185	0.562	correct	congruent	Block1	congruent/STIM_003.jpg
689.725	0.599	correct	congruent	Block1	congruent/STIM_004.jpg
694.264	0.655	correct	congruent	Block1	congruent/STIM_004.jpg
697.699	0.777	incorrect	congruent	Block1	congruent/STIM_004.jpg
701.208	0.953	correct	congruent	Block1	congruent/STIM_004.jpg
704.312	0.889	correct	congruent	Block1	congruent/STIM_004.jpg
707.401	0.761	correct	congruent	Block1	congruent/STIM_005.jpg
711.699	0.906	correct	congruent	Block1	congruent/STIM_005.jpg
715.028	0.897	correct	congruent	Block1	congruent/STIM_005.jpg
719.134	0.721	incorrect	congruent	Block1	congruent/STIM_005.jpg
722.633	0.828	correct	congruent	Block1	congruent/STIM_005.jpg
726.092	0.654	correct	congruent	Block1	congruent/STIM_006.jpg
729.776	0.631	correct	congruent	Block1	congruent/STIM_006.jpg
733.366	0.824	correct	congruent	Block1	congruent/STIM_006.jpg
737.096	0.64	correct	congruent	Block1	congruent/STIM_006.jpg
739.916	0.67	correct	congruent	Block1	congruent/STIM_006.jpg
743.354	0.817	correct	congruent	Block1	congruent/STIM_007.jpg
746.897	0.678	correct	congruent	Block1	congruent/STIM_007.jpg
749.98	0.684	correct	congruent	Block1	congruent/STIM_007.jpg
753.1	0.945	correct	congruent	Block1	congruent/STIM_007.jpg
756.777	0.61	correct	congruent	Block1	congruent/STIM_007.jpg
761.191	0.574	correct	congruent	Block1	congruent/STIM_008.jpg
764.136	0.919	incorrect	congruent	Block1	congruent/STIM_008.jpg
768.681	0.853	correct	congruent	Block1	congruent/STIM_008.jpg
772.298	0.721	correct	congruent	Block1	congruent/STIM_008.jpg
776.329	0.853	incorrect	congruent	Block1	congruent/STIM_008.jpg
779.67	0.567	correct	congruent	Block1	congruent/STIM_009.jpg
783.804	0.916	correct	congruent	Block1	congruent/STIM_009.jpg
787.966	0.728	correct	congruent	Block1	congruent/STIM_009.jpg
790.863	0.628	correct	congruent	Block1	congruent/STIM_009.jpg
793.935	0.828	correct	congruent	Block1	congruent/STIM_009.jpg
797.546	0.578	correct	congruent	Block1	congruent/STIM_010.jpg
800.796	0.643	correct	congruent	Block1	congruent/STIM_010.jpg
803.782	0.774	correct	congruent	Block1	congruent/STIM_010.jpg
806.722	0.89	correct	congruent	Block1	congruent/STIM_010.jpg
809.628	0.579	correct	congruent	Block1	congruent/STIM_010.jpg
813.127	0.616	correct	congruent	Block1	congruent/STIM_011.jpg
817.065	0.874	correct	congruent	Block1	congruent/STIM_011.jpg
821.354	0.858	incorrect	congruent	Block1	congruent/STIM_011.jpg
824.639	0.944	correct	congruent	Block1	congruent/STIM_011.jpg
828.942	0.851	correct	congruent	Block1	congruent/STIM_011.jpg
832.454	0.761	correct	congruent	Block1	congruent/STIM_012.jpg
836.523	0.88	correct	congruent	Block1	congruent/STIM_012.jpg
839.478	0.972	correct	congruent	Block1	congruent/STIM_012.jpg
843.076	0.56	correct	congruent	Block1	congruent/STIM_012.jpg
845.771	0.637	correct	congruent	Block1	congruent/STIM_012.jpg
848.578	0.811	correct	congruent	Block1	congruent/STIM_013.jpg
852.36	0.9	correct	congruent	Block1	congruent/STIM_013.jpg
855.477	0.659	correct	congruent	Block1	congruent/STIM_013.jpg
858.649	0.743	correct	congruent	Block1	congruent/STIM_013.jpg
862.625	0.725	incorrect	congruent	Block1	congruent/STIM_013.jpg
866.371	0.966	correct	congruent	Block1	congruent/STIM_014.jpg
870.557	0.631	correct	congruent	Block1	congruent/STIM_014.jpg
873.226	0.644	correct	congruent	Block1	congruent/STIM_014.jpg
876.404	0.646	correct	congruent	Block1	congruent/STIM_014.jpg
879.795	0.959	correct	congruent	Block1	congruent/STIM_014.jpg
882.979	0.705	correct	congruent	Block1	congruent/STIM_015.jpg
886.247	0.555	correct	congruent	Block1	congruent/STIM_015.jpg
889.126	0.876	incorrect	congruent	Block1	congruent/STIM_015.jpg
892.833	0.728	correct	congruent	Block1	congruent/STIM_015.jpg
895.938	0.594	incorrect	congruent	Block1	congruent/STIM_015.jpg
899.812	0.832	correct	congruent	Block1	congruent/STIM_016.jpg
903.768	0.868	correct	congruent	Block1	congruent/STIM_016.jpg
907.654	0.703	incorrect	congruent	Block1	congruent/STIM_016.jpg
910.86	0.878	correct	congruent	Block1	congruent/STIM_016.jpg
914.525	0.691	correct	congruent	Block1	congruent/STIM_016.jpg
919.144	0.873	correct	congruent	Block1	congruent/STIM_017.jpg
923.73	0.697	correct	congruent	Block1	congruent/STIM_017.jpg
927.131	0.774	correct	congruent	Block1	congruent/STIM_017.jpg
930.349	0.957	correct	congruent	Block1	congruent/STIM_017.jpg
934.729	0.877	correct	congruent	Block1	congruent/STIM_017.jpg
937.945	0.596	correct	congruent	Block1	congruent/STIM_018.jpg
940.947	0.925	correct	congruent	Block1	congruent/STIM_018.jpg
945.79	0.855	correct	congruent	Block1	congruent/STIM_018.jpg
950.165	0.862	correct	congruent	Block1	congruent/STIM_018.jpg
954.2	0.766	correct	congruent	Block1	congruent/STIM_018.jpg
957.318	0.704	correct	congruent	Block1	congruent/STIM_019.jpg
960.511	0.968	correct	congruent	Block1	congruent/STIM_019.jpg
964.688	0.954	correct	congruent	Block1	congruent/STIM_019.jpg
968.492	0.726	incorrect	congruent	Block1	congruent/STIM_019.jpg
973.182	0.831	correct	congruent	Block1	congruent/STIM_019.jpg
976.389	0.798	correct	congruent	Block1	congruent/STIM_020.jpg
980.554	0.864	correct	congruent	Block1	congruent/STIM_020.jpg
984.103	0.669	correct	congruent	Block1	congruent/STIM_020.jpg
987.066	0.683	incorrect	congruent	Block1	congruent/STIM_020.jpg
989.921	0.68	correct	congruent	Block1	congruent/STIM_020.jpg
993.215	0.578	correct	congruent	Block1	congruent/STIM_021.jpg
996.091	0.767	correct	congruent	Block1	congruent/STIM_021.jpg
1000.386	0.827	correct	congruent	Block1	congruent/STIM_021.jpg
1003.857	0.956	incorrect	congruent	Block1	congruent/STIM_021.jpg
1008.498	0.604	correct	congruent	Block1	congruent/STIM_021.jpg
1012.895	0.952	correct	congruent	Block1	congruent/STIM_022.jpg
1016.811	0.862	correct	congruent	Block1	congruent/STIM_022.jpg
1019.93	0.959	correct	congruent	Block1	congruent/STIM_022.jpg
1022.962	0.768	incorrect	congruent	Block1	congruent/STIM_022.jpg
1026.253	0.69	correct	congruent	Block1	congruent/STIM_022.jpg
1030.808	0.958	correct	congruent	Block1	congruent/STIM_023.jpg
1034.113	0.727	incorrect	congruent	Block1	congruent/STIM_023.jpg
1036.892	0.818	incorrect	congruent	Block1	congruent/STIM_023.jpg
1039.831	0.747	correct	congruent	Block1	congruent/STIM_023.jpg
1044.555	0.665	correct	congruent	Block1	congruent/STIM_023.jpg
1048.762	0.825	correct	congruent	Block1	congruent/STIM_024.jpg
1053.428	0.847	correct	congruent	Block1	congruent/STIM_024.jpg
1057.811	0.593	correct	congruent	Block1	congruent/STIM_024.jpg
1062.257	0.912	correct	congruent	Block1	congruent/STIM_024.jpg
1065.93	0.606	correct	congruent	Block1	congruent/STIM_024.jpg
1069.097	0.752	correct	congruent	Block1	congruent/STIM_025.jpg
1072.486	0.579	correct	congruent	Block1	congruent/STIM_025.jpg
1076.996	0.781	correct	congruent	Block1	congruent/STIM_025.jpg
1079.883	0.582	correct	congruent	Block1	congruent/STIM_025.jpg
1083.966	0.785	correct	congruent	Block1	congruent/STIM_025.jpg
1088.738	0.861	incorrect	congruent	Block1	congruent/STIM_026.jpg
1092.382	0.85	incorrect	congruent	Block1	congruent/STIM_026.jpg
1095.543	0.653	correct	congruent	Block1	congruent/STIM_026.jpg
1099.674	0.862	correct	congruent	Block1	congruent/STIM_026.jpg
1102.962	0.632	correct	congruent	Block1	congruent/STIM_026.jpg
1106.566	0.862	incorrect	congruent	Block1	congruent/STIM_027.jpg
1111.144	0.917	correct	congruent	Block1	congruent/STIM_027.jpg
1115.295	0.643	correct	congruent	Block1	congruent/STIM_027.jpg
1118.284	0.864	correct	congruent	Block1	congruent/STIM_027.jpg
1122.01	0.701	correct	congruent	Block1	congruent/STIM_027.jpg
1126.525	0.768	correct	congruent	Block1	congruent/STIM_028.jpg
1129.308	0.565	correct	congruent	Block1	congruent/STIM_028.jpg
1132.917	0.786	correct	congruent	Block1	congruent/STIM_028.jpg
1135.812	0.752	correct	congruent	Block1	congruent/STIM_028.jpg
1138.641	0.769	correct	congruent	Block1	congruent/STIM_028.jpg
1143.354	0.961	correct	congruent	Block1	congruent/STIM_029.jpg
1147.044	0.764	correct	congruent	Block1	congruent/STIM_029.jpg
1151.767	0.799	correct	congruent	Block1	congruent/STIM_029.jpg
1154.837	0.934	incorrect	congruent	Block1	congruent/STIM_029.jpg
1159.5	0.895	correct	congruent	Block1	congruent/STIM_029.jpg
1164.308	1.137	correct	incongruent	Block2	incongruent/STIM_000.jpg
1169.044	0.671	correct	incongruent	Block2	incongruent/STIM_000.jpg
1173.489	0.668	correct	incongruent	Block2	incongruent/STIM_000.jpg
1177.673	0.744	correct	incongruent	Block2	incongruent/STIM_000.jpg
1181.446	0.594	correct	incongruent	Block2	incongruent/STIM_000.jpg
1186.029	1.065	incorrect	incongruent	Block2	incongruent/STIM_001.jpg
1189.875	1.216	correct	incongruent	Block2	incongruent/STIM_001.jpg
1193.433	0.982	incorrect	incongruent	Block2	incongruent/STIM_001.jpg
1197.984	1.018	correct	incongruent	Block2	incongruent/STIM_001.jpg
1202.877	0.656	correct	incongruent	Block2	incongruent/STIM_001.jpg
1205.93	1.008	correct	incongruent	Block2	incongruent/STIM_002.jpg
1210.89	0.8	correct	incongruent	Block2	incongruent/STIM_002.jpg
1214.244	1.088	incorrect	incongruent	Block2	incongruent/STIM_002.jpg
1218.513	0.882	correct	incongruent	Block2	incongruent/STIM_002.jpg
1221.675	0.7	correct	incongruent	Block2	incongruent/STIM_002.jpg
1225.651	1.306	correct	incongruent	Block2	incongruent/STIM_003.jpg
1230.275	0.964	correct	incongruent	Block2	incongruent/STIM_003.jpg
1234.548	0.723	correct	incongruent	Block2	incongruent/STIM_003.jpg
1238.232	1.012	correct	incongruent	Block2	incongruent/STIM_003.jpg
1241.967	0.533	correct	incongruent	Block2	incongruent/STIM_003.jpg
1244.692	0.727	correct	incongruent	Block2	incongruent/STIM_004.jpg
1247.916	0.952	correct	incongruent	Block2	incongruent/STIM_004.jpg
1250.977	0.93	correct	incongruent	Block2	incongruent/STIM_004.jpg
1255.606	0.587	correct	incongruent	Block2	incongruent/STIM_004.jpg
1258.717	1.093	correct	incongruent	Block2	incongruent/STIM_004.jpg
1263.392	1.282	correct	incongruent	Block2	incongruent/STIM_005.jpg
1267.682	0.655	correct	incongruent	Block2	incongruent/STIM_005.jpg
1270.9	1.039	correct	incongruent	Block2	incongruent/STIM_005.jpg
1275.896	0.784	correct	incongruent	Block2	incongruent/STIM_005.jpg
1280.148	0.531	correct	incongruent	Block2	incongruent/STIM_005.jpg
1283.548	0.914	correct	incongruent	Block2	incongruent/STIM_006.jpg
1287.386	0.83	correct	incongruent	Block2	incongruent/STIM_006.jpg
1290.381	1.05	correct	incongruent	Block2	incongruent/STIM_006.jpg
1293.712	1.087	correct	incongruent	Block2	incongruent/STIM_006.jpg
1296.962	0.625	correct	incongruent	Block2	incongruent/STIM_006.jpg
1300.68	0.706	correct	incongruent	Block2	incongruent/STIM_007.jpg
1305.286	0.905	correct	incongruent	Block2	incongruent/STIM_007.jpg
1310.08	1.006	correct	incongruent	Block2	incongruent/STIM_007.jpg
1313.93	0.764	correct	incongruent	Block2	incongruent/STIM_007.jpg
1317.648	0.69	correct	incongruent	Block2	incongruent/STIM_007.jpg
1320.772	0.66	correct	incongruent	Block2	incongruent/STIM_008.jpg
1324.368	0.783	incorrect	incongruent	Block2	incongruent/STIM_008.jpg
1329.143	1.179	correct	incongruent	Block2	incongruent/STIM_008.jpg
1332.428	0.717	correct	incongruent	Block2	incongruent/STIM_008.jpg
1335.333	0.712	correct	incongruent	Block2	incongruent/STIM_008.jpg
1338.489	1.355	correct	incongruent	Block2	incongruent/STIM_009.jpg
1343.813	1.034	correct	incongruent	Block2	incongruent/STIM_009.jpg
1348.31	1.094	correct	incongruent	Block2	incongruent/STIM_009.jpg
1352.384	0.871	correct	incongruent	Block2	incongruent/STIM_009.jpg
1356.125	1.088	incorrect	incongruent	Block2	incongruent/STIM_009.jpg
1359.357	0.888	correct	incongruent	Block2	incongruent/STIM_010.jpg
1362.515	1.254	incorrect	incongruent	Block2	incongruent/STIM_010.jpg
1365.95	0.713	correct	incongruent	Block2	incongruent/STIM_010.jpg
1369.286	0.693	correct	incongruent	Block2	incongruent/STIM_010.jpg
1372.36	1.056	correct	incongruent	Block2	incongruent/STIM_010.jpg
1375.812	0.909	correct	incongruent	Block2	incongruent/STIM_011.jpg
1378.901	1.12	correct	incongruent	Block2	incongruent/STIM_011.jpg
1384.02	0.634	correct	incongruent	Block2	incongruent/STIM_011.jpg
1387.316	0.836	correct	incongruent	Block2	incongruent/STIM_011.jpg
1391.24	1.032	correct	incongruent	Block2	incongruent/STIM_011.jpg
1395.599	1.039	correct	incongruent	Block2	incongruent/STIM_012.jpg
1398.958	1.232	correct	incongruent	Block2	incongruent/STIM_012.jpg
1403.307	1.124	correct	incongruent	Block2	incongruent/STIM_012.jpg
1408.377	0.869	correct	incongruent	Block2	incongruent/STIM_012.jpg
1412.128	0.677	correct	incongruent	Block2	incongruent/STIM_012.jpg
1415.094	1.063	correct	incongruent	Block2	incongruent/STIM_013.jpg
1420.052	1.258	correct	incongruent	Block2	incongruent/STIM_013.jpg
1425.3	0.742	incorrect	incongruent	Block2	incongruent/STIM_013.jpg
1429.777	0.63	correct	incongruent	Block2	incongruent/STIM_013.jpg
1433.327	0.656	correct	incongruent	Block2	incongruent/STIM_013.jpg
1436.311	1.373	correct	incongruent	Block2	incongruent/STIM_014.jpg
1441.38	0.999	correct	incongruent	Block2	incongruent/STIM_014.jpg
1445.866	0.731	correct	incongruent	Block2	incongruent/STIM_014.jpg
1450.577	0.72	correct	incongruent	Block2	incongruent/STIM_014.jpg
1453.432	1.1	correct	incongruent	Block2	incongruent/STIM_014.jpg
1458.488	1.026	correct	incongruent	Block2	incongruent/STIM_015.jpg
1462.063	0.886	correct	incongruent	Block2	incongruent/STIM_015.jpg
1465.184	0.722	correct	incongruent	Block2	incongruent/STIM_015.jpg
1468.5	1.006	correct	incongruent	Block2	incongruent/STIM_015.jpg
1471.525	0.582	correct	incongruent	Block2	incongruent/STIM_015.jpg
1474.663	1.005	correct	incongruent	Block2	incongruent/STIM_016.jpg
1478.661	0.942	correct	incongruent	Block2	incongruent/STIM_016.jpg
1483.577	0.607	correct	incongruent	Block2	incongruent/STIM_016.jpg
1486.695	0.606	correct	incongruent	Block2	incongruent/STIM_016.jpg
1490.861	0.714	correct	incongruent	Block2	incongruent/STIM_016.jpg
1494.705	1.056	correct	incongruent	Block2	incongruent/STIM_017.jpg
1499.71	0.756	correct	incongruent	Block2	incongruent/STIM_017.jpg
1504.053	1.079	correct	incongruent	Block2	incongruent/STIM_017.jpg
1507.301	0.804	incorrect	incongruent	Block2	incongruent/STIM_017.jpg
1510.694	0.687	correct	incongruent	Block2	incongruent/STIM_017.jpg
1514.136	1.029	correct	incongruent	Block2	incongruent/STIM_018.jpg
1518.021	1.096	correct	incongruent	Block2	incongruent/STIM_018.jpg
1523.076	0.954	correct	incongruent	Block2	incongruent/STIM_018.jpg
1526.411	0.946	correct	incongruent	Block2	incongruent/STIM_018.jpg
1531.237	0.758	correct	incongruent	Block2	incongruent/STIM_018.jpg
1534.381	0.943	correct	incongruent	Block2	incongruent/STIM_019.jpg
1537.577	0.658	correct	incongruent	Block2	incongruent/STIM_019.jpg
1540.694	0.678	correct	incongruent	Block2	incongruent/STIM_019.jpg
1543.772	0.591	correct	incongruent	Block2	incongruent/STIM_019.jpg
1547.718	0.856	correct	incongruent	Block2	incongruent/STIM_019.jpg
1551.252	0.937	correct	incongruent	Block2	incongruent/STIM_020.jpg
1555.822	1.153	correct	incongruent	Block2	incongruent/STIM_020.jpg
1560.255	0.646	correct	incongruent	Block2	incongruent/STIM_020.jpg
1564.624	0.649	correct	incongruent	Block2	incongruent/STIM_020.jpg
1568.374	0.7	correct	incongruent	Block2	incongruent/STIM_020.jpg
1571.247	0.744	correct	incongruent	Block2	incongruent/STIM_021.jpg
1575.519	0.692	correct	incongruent	Block2	incongruent/STIM_021.jpg
1578.501	0.845	correct	incongruent	Block2	incongruent/STIM_021.jpg
1581.945	0.742	correct	incongruent	Block2	incongruent/STIM_021.jpg
1585.541	0.685	correct	incongruent	Block2	incongruent/STIM_021.jpg
1588.495	0.724	incorrect	incongruent	Block2	incongruent/STIM_022.jpg
1591.263	1.079	correct	incongruent	Block2	incongruent/STIM_022.jpg
1595.246	1.039	correct	incongruent	Block2	incongruent/STIM_022.jpg
1599.728	0.575	correct	incongruent	Block2	incongruent/STIM_022.jpg
1604.023	0.565	correct	incongruent	Block2	incongruent/STIM_022.jpg
1607.67	0.913	correct	incongruent	Block2	incongruent/STIM_023.jpg
1611.842	1.065	correct	incongruent	Block2	incongruent/STIM_023.jpg
1616.424	1.056	incorrect	incongruent	Block2	incongruent/STIM_023.jpg
1620.018	0.544	correct	incongruent	Block2	incongruent/STIM_023.jpg
1623.031	0.577	correct	incongruent	Block2	incongruent/STIM_023.jpg
1625.807	0.695	correct	incongruent	Block2	incongruent/STIM_024.jpg
1629.43	1.07	correct	incongruent	Block2	incongruent/STIM_024.jpg
1633.928	0.578	correct	incongruent	Block2	incongruent/STIM_024.jpg
1636.847	0.542	correct	incongruent	Block2	incongruent/STIM_024.jpg
1640.241	0.928	correct	incongruent	Block2	incongruent/STIM_024.jpg
1644.18	0.751	incorrect	incongruent	Block2	incongruent/STIM_025.jpg
1647.913	0.707	correct	incongruent	Block2	incongruent/STIM_025.jpg
1652.047	0.894	incorrect	incongruent	Block2	incongruent/STIM_025.jpg
1656.94	0.888	correct	incongruent	Block2	incongruent/STIM_025.jpg
1660.945	0.979	incorrect	incongruent	Block2	incongruent/STIM_025.jpg
1664.864	1.155	correct	incongruent	Block2	incongruent/STIM_026.jpg
1668.712	0.993	correct	incongruent	Block2	incongruent/STIM_026.jpg
1673.022	1.027	correct	incongruent	Block2	incongruent/STIM_026.jpg
1677.091	0.532	correct	incongruent	Block2	incongruent/STIM_026.jpg
1680.872	0.941	correct	incongruent	Block2	incongruent/STIM_026.jpg
1684.128	0.97	correct	incongruent	Block2	incongruent/STIM_027.jpg
1688.469	0.615	incorrect	incongruent	Block2	incongruent/STIM_027.jpg
1691.418	1.077	correct	incongruent	Block2	incongruent/STIM_027.jpg
1695.77	1.018	correct	incongruent	Block2	incongruent/STIM_027.jpg
1698.926	1.106	correct	incongruent	Block2	incongruent/STIM_027.jpg
1703.421	1.29	correct	incongruent	Block2	incongruent/STIM_028.jpg
1706.942	0.789	incorrect	incongruent	Block2	incongruent/STIM_028.jpg
1711.585	0.88	correct	incongruent	Block2	incongruent/STIM_028.jpg
1715.346	0.649	correct	incongruent	Block2	incongruent/STIM_028.jpg
1718.888	0.698	correct	incongruent	Block2	incongruent/STIM_028.jpg
1722.839	0.991	incorrect	incongruent	Block2	incongruent/STIM_029.jpg
1727.332	1.264	correct	incongruent	Block2	incongruent/STIM_029.jpg
1731.433	0.998	correct	incongruent	Block2	incongruent/STIM_029.jpg
1736.041	0.831	correct	incongruent	Block2	incongruent/STIM_029.jpg
1740.108	0.663	correct	incongruent	Block2	incongruent/STIM_029.jpg
1742.873	0.629	correct	congruent	Block2	congruent/STIM_000.jpg
1745.895	0.615	incorrect	congruent	Block2	congruent/STIM_000.jpg
1750.277	0.894	correct	congruent	Block2	congruent/STIM_000.jpg
1753.682	0.898	correct	congruent	Block2	congruent/STIM_000.jpg
1756.778	0.881	correct	congruent	Block2	congruent/STIM_000.jpg
1760.793	0.731	correct	congruent	Block2	congruent/STIM_001.jpg
1763.94	0.673	correct	congruent	Block2	congruent/STIM_001.jpg
1767.642	0.755	incorrect	congruent	Block2	congruent/STIM_001.jpg
1771.864	0.902	correct	congruent	Block2	congruent/STIM_001.jpg
1775.311	0.817	correct	congruent	Block2	congruent/STIM_001.jpg
1778.369	0.796	correct	congruent	Block2	congruent/STIM_002.jpg
1781.175	0.582	correct	congruent	Block2	congruent/STIM_002.jpg
1785.672	0.913	incorrect	congruent	Block2	congruent/STIM_002.jpg
1788.619	0.91	correct	congruent	Block2	congruent/STIM_002.jpg
1792.875	0.97	incorrect	congruent	Block2	congruent/STIM_002.jpg
1796.399	0.734	correct	congruent	Block2	congruent/STIM_003.jpg
1800.13	0.751	correct	congruent	Block2	congruent/STIM_003.jpg
1803.375	0.694	correct	congruent	Block2	congruent/STIM_003.jpg
1807.569	0.963	correct	congruent	Block2	congruent/STIM_003.jpg
1812.166	0.644	incorrect	congruent	Block2	congruent/STIM_003.jpg
1816.305	0.972	correct	congruent	Block2	congruent/STIM_004.jpg
1819.316	0.611	incorrect	congruent	Block2	congruent/STIM_004.jpg
1823.845	0.97	incorrect	congruent	Block2	congruent/STIM_004.jpg
1828.544	0.964	correct	congruent	Block2	congruent/STIM_004.jpg
1831.638	0.751	correct	congruent	Block2	congruent/STIM_004.jpg
1836.339	0.676	incorrect	congruent	Block2	congruent/STIM_005.jpg
1840.155	0.797	correct	congruent	Block2	congruent/STIM_005.jpg
1843.089	0.786	correct	congruent	Block2	congruent/STIM_005.jpg
1846.06	0.589	correct	congruent	Block2	congruent/STIM_005.jpg
1850.37	0.94	incorrect	congruent	Block2	congruent/STIM_005.jpg
1854.196	0.896	incorrect	congruent	Block2	congruent/STIM_006.jpg
1858.102	0.562	correct	congruent	Block2	congruent/STIM_006.jpg
1860.799	0.622	correct	congruent	Block2	congruent/STIM_006.jpg
1864.013	0.848	correct	congruent	Block2	congruent/STIM_006.jpg
1868.668	0.642	correct	congruent	Block2	congruent/STIM_006.jpg
1871.713	0.691	correct	congruent	Block2	congruent/STIM_007.jpg
1875.238	0.893	correct	congruent	Block2	congruent/STIM_007.jpg
1878.7	0.542	correct	congruent	Block2	congruent/STIM_007.jpg
1882.605	0.624	correct	congruent	Block2	congruent/STIM_007.jpg
1885.967	0.724	incorrect	congruent	Block2	congruent/STIM_007.jpg
1890.554	0.964	correct	congruent	Block2	congruent/STIM_008.jpg
1893.519	0.74	correct	congruent	Block2	congruent/STIM_008.jpg
1896.531	0.909	correct	congruent	Block2	congruent/STIM_008.jpg
1900.125	0.756	correct	congruent	Block2	congruent/STIM_008.jpg
1903.808	0.917	correct	congruent	Block2	congruent/STIM_008.jpg
1907.784	0.88	correct	congruent	Block2	congruent/STIM_009.jpg
1912.32	0.64	correct	congruent	Block2	congruent/STIM_009.jpg
1915.878	0.768	correct	congruent	Block2	congruent/STIM_009.jpg
1919.762	0.622	correct	congruent	Block2	congruent/STIM_009.jpg
1923.826	0.753	correct	congruent	Block2	congruent/STIM_009.jpg
1928.43	0.777	correct	congruent	Block2	congruent/STIM_010.jpg
1931.381	0.668	correct	congruent	Block2	congruent/STIM_010.jpg
1934.405	0.856	correct	congruent	Block2	congruent/STIM_010.jpg
1937.561	0.576	correct	congruent	Block2	congruent/STIM_010.jpg
1940.991	0.931	correct	congruent	Block2	congruent/STIM_010.jpg
1945.342	0.659	correct	congruent	Block2	congruent/STIM_011.jpg
1949.888	0.896	correct	congruent	Block2	congruent/STIM_011.jpg
1954.44	0.543	correct	congruent	Block2	congruent/STIM_011.jpg
1957.411	0.971	correct	congruent	Block2	congruent/STIM_011.jpg
1960.902	0.564	correct	congruent	Block2	congruent/STIM_011.jpg
1964.941	0.545	correct	congruent	Block2	congruent/STIM_012.jpg
1968.886	0.584	correct	congruent	Block2	congruent/STIM_012.jpg
1973.167	0.951	correct	congruent	Block2	congruent/STIM_012.jpg
1977.948	0.649	incorrect	congruent	Block2	congruent/STIM_012.jpg
1982.422	0.548	correct	congruent	Block2	congruent/STIM_012.jpg
1986.889	0.85	correct	congruent	Block2	congruent/STIM_013.jpg
1991.646	0.669	correct	congruent	Block2	congruent/STIM_013.jpg
1995.836	0.855	correct	congruent	Block2	congruent/STIM_013.jpg
1999.095	0.907	correct	congruent	Block2	congruent/STIM_013.jpg
2002.865	0.614	correct	congruent	Block2	congruent/STIM_013.jpg
2006.489	0.762	correct	congruent	Block2	congruent/STIM_014.jpg
2009.857	0.965	correct	congruent	Block2	congruent/STIM_014.jpg
2013.907	0.618	correct	congruent	Block2	congruent/STIM_014.jpg
2018.423	0.819	correct	congruent	Block2	congruent/STIM_014.jpg
2022.124	0.637	correct	congruent	Block2	congruent/STIM_014.jpg
2026.299	0.555	correct	congruent	Block2	congruent/STIM_015.jpg
2030.178	0.869	correct	congruent	Block2	congruent/STIM_015.jpg
2034.538	0.841	incorrect	congruent	Block2	congruent/STIM_015.jpg
2037.588	0.925	correct	congruent	Block2	congruent/STIM_015.jpg
2040.909	0.644	correct	congruent	Block2	congruent/STIM_015.jpg
2043.9	0.941	correct	congruent	Block2	congruent/STIM_016.jpg
2047.308	0.609	correct	congruent	Block2	congruent/STIM_016.jpg
2050.713	0.805	correct	congruent	Block2	congruent/STIM_016.jpg
2054.502	0.781	correct	congruent	Block2	congruent/STIM_016.jpg
2058.529	0.864	incorrect	congruent	Block2	congruent/STIM_016.jpg
2062.548	0.916	correct	congruent	Block2	congruent/STIM_017.jpg
2067.156	0.803	correct	congruent	Block2	congruent/STIM_017.jpg
2070.659	0.964	correct	congruent	Block2	congruent/STIM_017.jpg
2075.014	0.636	incorrect	congruent	Block2	congruent/STIM_017.jpg
2078.454	0.672	correct	congruent	Block2	congruent/STIM_017.jpg
2083.007	0.704	correct	congruent	Block2	congruent/STIM_018.jpg
2085.916	0.716	correct	congruent	Block2	congruent/STIM_018.jpg
2089.265	0.745	correct	congruent	Block2	congruent/STIM_018.jpg
2093.814	0.709	incorrect	congruent	Block2	congruent/STIM_018.jpg
2098.351	0.617	incorrect	congruent	Block2	congruent/STIM_018.jpg
2102.966	0.694	correct	congruent	Block2	congruent/STIM_019.jpg
2106.871	0.773	correct	congruent	Block2	congruent/STIM_019.jpg
2111.366	0.565	correct	congruent	Block2	congruent/STIM_019.jpg
2114.019	0.815	correct	congruent	Block2	congruent/STIM_019.jpg
2117.69	0.662	correct	congruent	Block2	congruent/STIM_019.jpg
2122.285	0.611	incorrect	congruent	Block2	congruent/STIM_020.jpg
2125.337	0.782	correct	congruent	Block2	congruent/STIM_020.jpg
2129.067	0.691	correct	congruent	Block2	congruent/STIM_020.jpg
2132.846	0.814	correct	congruent	Block2	congruent/STIM_020.jpg
2135.842	0.581	incorrect	congruent	Block2	congruent/STIM_020.jpg
2140.293	0.578	correct	congruent	Block2	congruent/STIM_021.jpg
2142.958	0.737	incorrect	congruent	Block2	congruent/STIM_021.jpg
2147.424	0.871	incorrect	congruent	Block2	congruent/STIM_021.jpg
2151.648	0.543	correct	congruent	Block2	congruent/STIM_021.jpg
2155.335	0.627	correct	congruent	Block2	congruent/STIM_021.jpg
2159.133	0.591	correct	congruent	Block2	congruent/STIM_022.jpg
2161.729	0.599	correct	congruent	Block2	congruent/STIM_022.jpg
2165.098	0.812	correct	congruent	Block2	congruent/STIM_022.jpg
2167.944	0.6	correct	congruent	Block2	congruent/STIM_022.jpg
2171.501	0.928	correct	congruent	Block2	congruent/STIM_022.jpg
2176.03	0.934	correct	congruent	Block2	congruent/STIM_023.jpg
2180.41	0.772	correct	congruent	Block2	congruent/STIM_023.jpg
2183.275	0.886	correct	congruent	Block2	congruent/STIM_023.jpg
2187.784	0.924	correct	congruent	Block2	congruent/STIM_023.jpg
2191.144	0.694	correct	congruent	Block2	congruent/STIM_023.jpg
2194.058	0.795	correct	congruent	Block2	congruent/STIM_024.jpg
2196.881	0.644	incorrect	congruent	Block2	congruent/STIM_024.jpg
2200.003	0.61	correct	congruent	Block2	congruent/STIM_024.jpg
2203.892	0.805	correct	congruent	Block2	congruent/STIM_024.jpg
2208.312	0.657	incorrect	congruent	Block2	congruent/STIM_024.jpg
2212.658	0.863	correct	congruent	Block2	congruent/STIM_025.jpg
2217.27	0.788	incorrect	congruent	Block2	congruent/STIM_025.jpg
2220.662	0.641	correct	congruent	Block2	congruent/STIM_025.jpg
2223.306	0.59	correct	congruent	Block2	congruent/STIM_025.jpg
2226.546	0.733	correct	congruent	Block2	congruent/STIM_025.jpg
2231.03	0.879	correct	congruent	Block2	congruent/STIM_026.jpg
2235.539	0.827	correct	congruent	Block2	congruent/STIM_026.jpg
2239.641	0.541	correct	congruent	Block2	congruent/STIM_026.jpg
2242.365	0.727	correct	congruent	Block2	congruent/STIM_026.jpg
2245.407	0.616	correct	congruent	Block2	congruent/STIM_026.jpg
2250.008	0.566	incorrect	congruent	Block2	congruent/STIM_027.jpg
2253.286	0.901	correct	congruent	Block2	congruent/STIM_027.jpg
2257.923	0.845	correct	congruent	Block2	congruent/STIM_027.jpg
2262.325	0.608	correct	congruent	Block2	congruent/STIM_027.jpg
2266.348	0.653	correct	congruent	Block2	congruent/STIM_027.jpg
2269.228	0.955	correct	congruent	Block2	congruent/STIM_028.jpg
2273.569	0.944	correct	congruent	Block2	congruent/STIM_028.jpg
2276.765	0.775	correct	congruent	Block2	congruent/STIM_028.jpg
2280.271	0.682	incorrect	congruent	Block2	congruent/STIM_028.jpg
2283.527	0.847	correct	congruent	Block2	congruent/STIM_028.jpg
2287.335	0.671	correct	congruent	Block2	congruent/STIM_029.jpg
2291.925	0.608	correct	congruent	Block2	congruent/STIM_029.jpg
2295.211	0.615	correct	congruent	Block2	congruent/STIM_029.jpg
2299.294	0.694	correct	congruent	Block2	congruent/STIM_029.jpg
2303.96	0.928	correct	congruent	Block2	congruent/STIM_029.jpg
2308.815	0.721	correct	incongruent	Block3	incongruent/STIM_000.jpg
2313.264	1.029	correct	incongruent	Block3	incongruent/STIM_000.jpg
2316.665	0.798	correct	incongruent	Block3	incongruent/STIM_000.jpg
2319.611	0.533	correct	incongruent	Block3	incongruent/STIM_000.jpg
2323.298	0.822	correct	incongruent	Block3	incongruent/STIM_000.jpg
2326.552	0.792	correct	incongruent	Block3	incongruent/STIM_001.jpg
2331.342	0.769	correct	incongruent	Block3	incongruent/STIM_001.jpg
2334.417	1.058	correct	incongruent	Block3	incongruent/STIM_001.jpg
2337.951	1.087	correct	incongruent	Block3	incongruent/STIM_001.jpg
2342.853	1.114	correct	incongruent	Block3	incongruent/STIM_001.jpg
2346.009	0.569	correct	incongruent	Block3	incongruent/STIM_002.jpg
2349.167	0.634	correct	incongruent	Block3	incongruent/STIM_002.jpg
2353.596	1.102	correct	incongruent	Block3	incongruent/STIM_002.jpg
2358.637	0.801	correct	incongruent	Block3	incongruent/STIM_002.jpg
2361.828	0.551	correct	incongruent	Block3	incongruent/STIM_002.jpg
2365.349	1.013	correct	incongruent	Block3	incongruent/STIM_003.jpg
2368.683	0.665	correct	incongruent	Block3	incongruent/STIM_003.jpg
2371.699	0.97	correct	incongruent	Block3	incongruent/STIM_003.jpg
2375.512	0.552	correct	incongruent	Block3	incongruent/STIM_003.jpg
2378.349	0.607	correct	incongruent	Block3	incongruent/STIM_003.jpg
2381.741	0.585	correct	incongruent	Block3	incongruent/STIM_004.jpg
2384.943	0.772	correct	incongruent	Block3	incongruent/STIM_004.jpg
2389.067	0.607	correct	incongruent	Block3	incongruent/STIM_004.jpg
2392.202	1.041	correct	incongruent	Block3	incongruent/STIM_004.jpg
2397.096	0.534	correct	incongruent	Block3	incongruent/STIM_004.jpg
2401.628	1.12	correct	incongruent	Block3	incongruent/STIM_005.jpg
2405.583	0.533	correct	incongruent	Block3	incongruent/STIM_005.jpg
2408.138	0.602	correct	incongruent	Block3	incongruent/STIM_005.jpg
2412.652	0.993	correct	incongruent	Block3	incongruent/STIM_005.jpg
2417.363	1.122	correct	incongruent	Block3	incongruent/STIM_005.jpg
2421.382	0.664	correct	incongruent	Block3	incongruent/STIM_006.jpg
2425.889	0.994	correct	incongruent	Block3	incongruent/STIM_006.jpg
2429.388	0.893	correct	incongruent	Block3	incongruent/STIM_006.jpg
2432.501	0.792	correct	incongruent	Block3	incongruent/STIM_006.jpg
2436.077	0.874	incorrect	incongruent	Block3	incongruent/STIM_006.jpg
2440.712	0.943	correct	incongruent	Block3	incongruent/STIM_007.jpg
2444.673	1.106	correct	incongruent	Block3	incongruent/STIM_007.jpg
2449.126	1.02	correct	incongruent	Block3	incongruent/STIM_007.jpg
2453.733	0.653	correct	incongruent	Block3	incongruent/STIM_007.jpg
2457.916	0.899	correct	incongruent	Block3	incongruent/STIM_007.jpg
2462.367	0.634	correct	incongruent	Block3	incongruent/STIM_008.jpg
2466.246	0.954	correct	incongruent	Block3	incongruent/STIM_008.jpg
2470.636	1.093	correct	incongruent	Block3	incongruent/STIM_008.jpg
2475.69	0.715	correct	incongruent	Block3	incongruent/STIM_008.jpg
2479.4	0.836	correct	incongruent	Block3	incongruent/STIM_008.jpg
2482.459	0.998	correct	incongruent	Block3	incongruent/STIM_009.jpg
2486.233	0.883	correct	incongruent	Block3	incongruent/STIM_009.jpg
2489.455	0.852	correct	incongruent	Block3	incongruent/STIM_009.jpg
2493.81	0.858	correct	incongruent	Block3	incongruent/STIM_009.jpg
2497.286	0.874	correct	incongruent	Block3	incongruent/STIM_009.jpg
2501.298	1.101	incorrect	incongruent	Block3	incongruent/STIM_010.jpg
2504.851	0.807	correct	incongruent	Block3	incongruent/STIM_010.jpg
2509.328	0.61	correct	incongruent	Block3	incongruent/STIM_010.jpg
2512.93	0.587	correct	incongruent	Block3	incongruent/STIM_010.jpg
2516.048	0.858	correct	incongruent	Block3	incongruent/STIM_010.jpg
2518.988	0.745	correct	incongruent	Block3	incongruent/STIM_011.jpg
2523.055	1.101	correct	incongruent	Block3	incongruent/STIM_011.jpg
2527.018	0.953	correct	incongruent	Block3	incongruent/STIM_011.jpg
2531.586	0.831	correct	incongruent	Block3	incongruent/STIM_011.jpg
2535.304	0.701	correct	incongruent	Block3	incongruent/STIM_011.jpg
2538.98	0.691	incorrect	incongruent	Block3	incongruent/STIM_012.jpg
2543.399	0.924	correct	incongruent	Block3	incongruent/STIM_012.jpg
2548.154	0.792	correct	incongruent	Block3	incongruent/STIM_012.jpg
2552.061	0.788	correct	incongruent	Block3	incongruent/STIM_012.jpg
2555.157	0.852	correct	incongruent	Block3	incongruent/STIM_012.jpg
2559.264	0.848	correct	incongruent	Block3	incongruent/STIM_013.jpg
2563.597	0.801	correct	incongruent	Block3	incongruent/STIM_013.jpg
2567.947	0.668	correct	incongruent	Block3	incongruent/STIM_013.jpg
2572.126	0.533	correct	incongruent	Block3	incongruent/STIM_013.jpg
2575.092	0.733	correct	incongruent	Block3	incongruent/STIM_013.jpg
2578.986	0.56	incorrect	incongruent	Block3	incongruent/STIM_014.jpg
2582.948	0.77	incorrect	incongruent	Block3	incongruent/STIM_014.jpg
2587.358	1.081	correct	incongruent	Block3	incongruent/STIM_014.jpg
2592.15	0.784	correct	incongruent	Block3	incongruent/STIM_014.jpg
2596.93	0.992	correct	incongruent	Block3	incongruent/STIM_014.jpg
2601.628	0.696	correct	incongruent	Block3	incongruent/STIM_015.jpg
2604.421	0.893	correct	incongruent	Block3	incongruent/STIM_015.jpg
2607.689	0.818	correct	incongruent	Block3	incongruent/STIM_015.jpg
2611.726	1.017	correct	incongruent	Block3	incongruent/STIM_015.jpg
2615.081	0.972	correct	incongruent	Block3	incongruent/STIM_015.jpg
2618.817	0.91	correct	incongruent	Block3	incongruent/STIM_016.jpg
2622.265	0.645	correct	incongruent	Block3	incongruent/STIM_016.jpg
2625.207	0.764	correct	incongruent	Block3	incongruent/STIM_016.jpg
2629.022	0.709	correct	incongruent	Block3	incongruent/STIM_016.jpg
2632.439	0.638	correct	incongruent	Block3	incongruent/STIM_016.jpg
2636.132	0.831	correct	incongruent	Block3	incongruent/STIM_017.jpg
2639.497	0.643	correct	incongruent	Block3	incongruent/STIM_017.jpg
2643.292	0.973	correct	incongruent	Block3	incongruent/STIM_017.jpg
2647.883	0.6	correct	incongruent	Block3	incongruent/STIM_017.jpg
2652.426	0.998	correct	incongruent	Block3	incongruent/STIM_017.jpg
2656.841	0.626	correct	incongruent	Block3	incongruent/STIM_018.jpg
2659.865	0.78	correct	incongruent	Block3	incongruent/STIM_018.jpg
2664.588	0.909	correct	incongruent	Block3	incongruent/STIM_018.jpg
2669.266	0.636	correct	incongruent	Block3	incongruent/STIM_018.jpg
2671.974	1.048	correct	incongruent	Block3	incongruent/STIM_018.jpg
2675.741	0.712	correct	incongruent	Block3	incongruent/STIM_019.jpg
2678.951	1.094	correct	incongruent	Block3	incongruent/STIM_019.jpg
2682.658	0.593	correct	incongruent	Block3	incongruent/STIM_019.jpg
2686.941	0.786	correct	incongruent	Block3	incongruent/STIM_019.jpg
2690.335	0.972	correct	incongruent	Block3	incongruent/STIM_019.jpg
2694.903	1.029	correct	incongruent	Block3	incongruent/STIM_020.jpg
2698.058	0.556	correct	incongruent	Block3	incongruent/STIM_020.jpg
2700.77	0.532	correct	incongruent	Block3	incongruent/STIM_020.jpg
2704.22	0.705	correct	incongruent	Block3	incongruent/STIM_020.jpg
2707.657	0.678	correct	incongruent	Block3	incongruent/STIM_020.jpg
2711.295	1.093	correct	incongruent	Block3	incongruent/STIM_021.jpg
2714.466	1.038	incorrect	incongruent	Block3	incongruent/STIM_021.jpg
2718.146	0.924	correct	incongruent	Block3	incongruent/STIM_021.jpg
2722.278	0.769	correct	incongruent	Block3	incongruent/STIM_021.jpg
2726.471	0.893	correct	incongruent	Block3	incongruent/STIM_021.jpg
2729.58	1.13	correct	incongruent	Block3	incongruent/STIM_022.jpg
2733.397	1.002	correct	incongruent	Block3	incongruent/STIM_022.jpg
2738.3	0.634	correct	incongruent	Block3	incongruent/STIM_022.jpg
2741.502	1.106	correct	incongruent	Block3	incongruent/STIM_022.jpg
2745.976	0.74	correct	incongruent	Block3	incongruent/STIM_022.jpg
2750.607	0.563	correct	incongruent	Block3	incongruent/STIM_023.jpg
2754.249	0.808	incorrect	incongruent	Block3	incongruent/STIM_023.jpg
2757.313	0.599	incorrect	incongruent	Block3	incongruent/STIM_023.jpg
2760.394	1.05	correct	incongruent	Block3	incongruent/STIM_023.jpg
2765.281	0.892	correct	incongruent	Block3	incongruent/STIM_023.jpg
2768.995	0.89	correct	incongruent	Block3	incongruent/STIM_024.jpg
2773.205	0.84	correct	incongruent	Block3	incongruent/STIM_024.jpg
2777.119	0.865	correct	incongruent	Block3	incongruent/STIM_024.jpg
2780.777	0.682	correct	incongruent	Block3	incongruent/STIM_024.jpg
2783.693	0.999	correct	incongruent	Block3	incongruent/STIM_024.jpg
2787.077	0.854	correct	incongruent	Block3	incongruent/STIM_025.jpg
2791.566	1.019	correct	incongruent	Block3	incongruent/STIM_025.jpg
2794.9	1.012	correct	incongruent	Block3	incongruent/STIM_025.jpg
2798.804	0.716	correct	incongruent	Block3	incongruent/STIM_025.jpg
2802.471	0.849	correct	incongruent	Block3	incongruent/STIM_025.jpg
2805.563	0.946	correct	incongruent	Block3	incongruent/STIM_026.jpg
2808.889	0.931	correct	incongruent	Block3	incongruent/STIM_026.jpg
2813.395	0.836	correct	incongruent	Block3	incongruent/STIM_026.jpg
2816.93	0.567	correct	incongruent	Block3	incongruent/STIM_026.jpg
2820.98	0.892	correct	incongruent	Block3	incongruent/STIM_026.jpg
2824.726	0.622	correct	incongruent	Block3	incongruent/STIM_027.jpg
2828.425	1.051	correct	incongruent	Block3	incongruent/STIM_027.jpg
2833.46	0.726	correct	incongruent	Block3	incongruent/STIM_027.jpg
2836.231	0.727	correct	incongruent	Block3	incongruent/STIM_027.jpg
2839.771	0.961	correct	incongruent	Block3	incongruent/STIM_027.jpg
2843.784	1.056	correct	incongruent	Block3	incongruent/STIM_028.jpg
2847.1	0.722	correct	incongruent	Block3	incongruent/STIM_028.jpg
2850.017	1.039	correct	incongruent	Block3	incongruent/STIM_028.jpg
2855.007	0.682	correct	incongruent	Block3	incongruent/STIM_028.jpg
2857.853	0.968	correct	incongruent	Block3	incongruent/STIM_028.jpg
2861.872	1.031	correct	incongruent	Block3	incongruent/STIM_029.jpg
2865.854	0.786	correct	incongruent	Block3	incongruent/STIM_029.jpg
2868.842	0.868	correct	incongruent	Block3	incongruent/STIM_029.jpg
2873.266	0.553	correct	incongruent	Block3	incongruent/STIM_029.jpg
2875.944	0.585	correct	incongruent	Block3	incongruent/STIM_029.jpg
2879.663	0.907	incorrect	congruent	Block3	congruent/STIM_000.jpg
2883.571	0.624	correct	congruent	Block3	congruent/STIM_000.jpg
2887.502	0.668	correct	congruent	Block3	congruent/STIM_000.jpg
2891.556	0.774	correct	congruent	Block3	congruent/STIM_000.jpg
2895.091	0.765	correct	congruent	Block3	congruent/STIM_000.jpg
2898.195	0.744	correct	congruent	Block3	congruent/STIM_001.jpg
2902.216	0.587	correct	congruent	Block3	congruent/STIM_001.jpg
2906.47	0.664	correct	congruent	Block3	congruent/STIM_001.jpg
2911.056	0.732	correct	congruent	Block3	congruent/STIM_001.jpg
2913.849	0.749	incorrect	congruent	Block3	congruent/STIM_001.jpg
2917.472	0.949	correct	congruent	Block3	congruent/STIM_002.jpg
2920.678	0.916	correct	congruent	Block3	congruent/STIM_002.jpg
2924.237	0.948	correct	congruent	Block3	congruent/STIM_002.jpg
2928.335	0.938	correct	congruent	Block3	congruent/STIM_002.jpg
2932.679	0.957	correct	congruent	Block3	congruent/STIM_002.jpg
2936.862	0.85	correct	congruent	Block3	congruent/STIM_003.jpg
2941.274	0.773	incorrect	congruent	Block3	congruent/STIM_003.jpg
2945.302	0.78	correct	congruent	Block3	congruent/STIM_003.jpg
2949.072	0.612	correct	congruent	Block3	congruent/STIM_003.jpg
2951.729	0.894	correct	congruent	Block3	congruent/STIM_003.jpg
2956.417	0.908	correct	congruent	Block3	congruent/STIM_004.jpg
2959.612	0.867	correct	congruent	Block3	congruent/STIM_004.jpg
2962.897	0.768	correct	congruent	Block3	congruent/STIM_004.jpg
2966.089	0.573	correct	congruent	Block3	congruent/STIM_004.jpg
2969.995	0.854	correct	congruent	Block3	congruent/STIM_004.jpg
2973.997	0.741	correct	congruent	Block3	congruent/STIM_005.jpg
2977.266	0.759	correct	congruent	Block3	congruent/STIM_005.jpg
2981.882	0.864	correct	congruent	Block3	congruent/STIM_005.jpg
2986.467	0.889	correct	congruent	Block3	congruent/STIM_005.jpg
2990.366	0.726	correct	congruent	Block3	congruent/STIM_005.jpg
2993.1	0.898	correct	congruent	Block3	congruent/STIM_006.jpg
2997.481	0.791	correct	congruent	Block3	congruent/STIM_006.jpg
3001.024	0.889	correct	congruent	Block3	congruent/STIM_006.jpg
3004.885	0.919	incorrect	congruent	Block3	congruent/STIM_006.jpg
3009.55	0.896	correct	congruent	Block3	congruent/STIM_006.jpg
3014.007	0.646	incorrect	congruent	Block3	congruent/STIM_007.jpg
3017.422	0.642	correct	congruent	Block3	congruent/STIM_007.jpg
3021.493	0.853	correct	congruent	Block3	congruent/STIM_007.jpg
3024.744	0.962	correct	congruent	Block3	congruent/STIM_007.jpg
3027.824	0.766	incorrect	congruent	Block3	congruent/STIM_007.jpg
3030.81	0.592	correct	congruent	Block3	congruent/STIM_008.jpg
3035.36	0.563	correct	congruent	Block3	congruent/STIM_008.jpg
3038.575	0.877	correct	congruent	Block3	congruent/STIM_008.jpg
3041.56	0.783	correct	congruent	Block3	congruent/STIM_008.jpg
3046.046	0.892	incorrect	congruent	Block3	congruent/STIM_008.jpg
3049.188	0.893	correct	congruent	Block3	congruent/STIM_009.jpg
3052.855	0.912	incorrect	congruent	Block3	congruent/STIM_009.jpg
3055.797	0.831	incorrect	congruent	Block3	congruent/STIM_009.jpg
3059.844	0.867	correct	congruent	Block3	congruent/STIM_009.jpg
3063.494	0.799	correct	congruent	Block3	congruent/STIM_009.jpg
3067.044	0.786	correct	congruent	Block3	congruent/STIM_010.jpg
3070.531	0.73	correct	congruent	Block3	congruent/STIM_010.jpg
3074.044	0.853	correct	congruent	Block3	congruent/STIM_010.jpg
3076.961	0.665	correct	congruent	Block3	congruent/STIM_010.jpg
3080.517	0.83	correct	congruent	Block3	congruent/STIM_010.jpg
3084.916	0.682	correct	congruent	Block3	congruent/STIM_011.jpg
3087.643	0.774	correct	congruent	Block3	congruent/STIM_011.jpg
3091.951	0.779	correct	congruent	Block3	congruent/STIM_011.jpg
3096.326	0.96	incorrect	congruent	Block3	congruent/STIM_011.jpg
3100.72	0.797	correct	congruent	Block3	congruent/STIM_011.jpg
3104.193	0.633	incorrect	congruent	Block3	congruent/STIM_012.jpg
3107.441	0.63	correct	congruent	Block3	congruent/STIM_012.jpg
3110.431	0.96	correct	congruent	Block3	congruent/STIM_012.jpg
3113.478	0.925	incorrect	congruent	Block3	congruent/STIM_012.jpg
3117.952	0.938	correct	congruent	Block3	congruent/STIM_012.jpg
3121.884	0.643	correct	congruent	Block3	congruent/STIM_013.jpg
3124.714	0.943	correct	congruent	Block3	congruent/STIM_013.jpg
3129.186	0.838	correct	congruent	Block3	congruent/STIM_013.jpg
3132.933	0.701	correct	congruent	Block3	congruent/STIM_013.jpg
3135.775	0.791	correct	congruent	Block3	congruent/STIM_013.jpg
3140.019	0.869	correct	congruent	Block3	congruent/STIM_014.jpg
3142.972	0.603	correct	congruent	Block3	congruent/STIM_014.jpg
3146.946	0.547	correct	congruent	Block3	congruent/STIM_014.jpg
3150.301	0.96	correct	congruent	Block3	congruent/STIM_014.jpg
3154.788	0.562	correct	congruent	Block3	congruent/STIM_014.jpg
3159.176	0.612	correct	congruent	Block3	congruent/STIM_015.jpg
3162.861	0.892	correct	congruent	Block3	congruent/STIM_015.jpg
3167.707	0.705	correct	congruent	Block3	congruent/STIM_015.jpg
3171.435	0.952	correct	congruent	Block3	congruent/STIM_015.jpg
3176.303	0.611	correct	congruent	Block3	congruent/STIM_015.jpg
3180.667	0.677	correct	congruent	Block3	congruent/STIM_016.jpg
3185.28	0.859	correct	congruent	Block3	congruent/STIM_016.jpg
3189.728	0.656	incorrect	congruent	Block3	congruent/STIM_016.jpg
3194.337	0.723	correct	congruent	Block3	congruent/STIM_016.jpg
3198.231	0.598	correct	congruent	Block3	congruent/STIM_016.jpg
3202.589	0.588	correct	congruent	Block3	congruent/STIM_017.jpg
3206.043	0.624	correct	congruent	Block3	congruent/STIM_017.jpg
3209.486	0.555	correct	congruent	Block3	congruent/STIM_017.jpg
3212.507	0.863	correct	congruent	Block3	congruent/STIM_017.jpg
3216.575	0.706	correct	congruent	Block3	congruent/STIM_017.jpg
3220.302	0.754	correct	congruent	Block3	congruent/STIM_018.jpg
3224.059	0.792	correct	congruent	Block3	congruent/STIM_018.jpg
3226.884	0.616	incorrect	congruent	Block3	congruent/STIM_018.jpg
3229.675	0.913	correct	congruent	Block3	congruent/STIM_018.jpg
3234.194	0.845	correct	congruent	Block3	congruent/STIM_018.jpg
3238.261	0.653	incorrect	congruent	Block3	congruent/STIM_019.jpg
3241.019	0.595	correct	congruent	Block3	congruent/STIM_019.jpg
3244.752	0.553	correct	congruent	Block3	congruent/STIM_019.jpg
3248.916	0.855	correct	congruent	Block3	congruent/STIM_019.jpg
3251.803	0.736	correct	congruent	Block3	congruent/STIM_019.jpg
3255.329	0.916	correct	congruent	Block3	congruent/STIM_020.jpg
3259.434	0.944	correct	congruent	Block3	congruent/STIM_020.jpg
3263.073	0.773	correct	congruent	Block3	congruent/STIM_020.jpg
3266.987	0.658	correct	congruent	Block3	congruent/STIM_020.jpg
3270.773	0.875	incorrect	congruent	Block3	congruent/STIM_020.jpg
3274.652	0.629	correct	congruent	Block3	congruent/STIM_021.jpg
3277.535	0.955	incorrect	congruent	Block3	congruent/STIM_021.jpg
3280.802	0.946	incorrect	congruent	Block3	congruent/STIM_021.jpg
3283.85	0.642	correct	congruent	Block3	congruent/STIM_021.jpg
3287.464	0.859	incorrect	congruent	Block3	congruent/STIM_021.jpg
3291.04	0.888	correct	congruent	Block3	congruent/STIM_022.jpg
3295.015	0.754	correct	congruent	Block3	congruent/STIM_022.jpg
3298.514	0.88	incorrect	congruent	Block3	congruent/STIM_022.jpg
3303.151	0.63	correct	congruent	Block3	congruent/STIM_022.jpg
3307.7	0.754	correct	congruent	Block3	congruent/STIM_022.jpg
3311.091	0.944	correct	congruent	Block3	congruent/STIM_023.jpg
3315.653	0.634	correct	congruent	Block3	congruent/STIM_023.jpg
3319.891	0.609	correct	congruent	Block3	congruent/STIM_023.jpg
3322.711	0.796	incorrect	congruent	Block3	congruent/STIM_023.jpg
3326.121	0.922	correct	congruent	Block3	congruent/STIM_023.jpg
3329.242	0.809	correct	congruent	Block3	congruent/STIM_024.jpg
3333.878	0.944	correct	congruent	Block3	congruent/STIM_024.jpg
3338.66	0.562	correct	congruent	Block3	congruent/STIM_024.jpg
3342.156	0.887	correct	congruent	Block3	congruent/STIM_024.jpg
3345.825	0.624	correct	congruent	Block3	congruent/STIM_024.jpg
3350.101	0.886	incorrect	congruent	Block3	congruent/STIM_025.jpg
3354.212	0.827	incorrect	congruent	Block3	congruent/STIM_025.jpg
3357.461	0.738	correct	congruent	Block3	congruent/STIM_025.jpg
3360.822	0.934	correct	congruent	Block3	congruent/STIM_025.jpg
3365.71	0.766	correct	congruent	Block3	congruent/STIM_025.jpg
3369.372	0.8	correct	congruent	Block3	congruent/STIM_026.jpg
3372.25	0.711	correct	congruent	Block3	congruent/STIM_026.jpg
3375.186	0.651	correct	congruent	Block3	congruent/STIM_026.jpg
3379.184	0.643	correct	congruent	Block3	congruent/STIM_026.jpg
3381.935	0.891	correct	congruent	Block3	congruent/STIM_026.jpg
3384.862	0.764	correct	congruent	Block3	congruent/STIM_027.jpg
3387.938	0.741	correct	congruent	Block3	congruent/STIM_027.jpg
3390.96	0.794	correct	congruent	Block3	congruent/STIM_027.jpg
3394.785	0.616	correct	congruent	Block3	congruent/STIM_027.jpg
3399.384	0.606	correct	congruent	Block3	congruent/STIM_027.jpg
3402.822	0.837	correct	congruent	Block3	congruent/STIM_028.jpg
3406.063	0.789	correct	congruent	Block3	congruent/STIM_028.jpg
3409.955	0.793	correct	congruent	Block3	congruent/STIM_028.jpg
3413.552	0.84	correct	congruent	Block3	congruent/STIM_028.jpg
3417.757	0.873	correct	congruent	Block3	congruent/STIM_028.jpg
3421.161	0.608	correct	congruent	Block3	congruent/STIM_029.jpg
3425.01	0.578	incorrect	congruent	Block3	congruent/STIM_029.jpg
3428.485	0.741	correct	congruent	Block3	congruent/STIM_029.jpg
3431.796	0.836	correct	congruent	Block3	congruent/STIM_029.jpg
3435.407	0.723	correct	congruent	Block3	congruent/STIM_029.jpg
