onset	duration	accuracy_binary	trial_type	learning_stage	stimulus
0.0	0.865	1	incongruent	Block1	incongruent/STIM_000.jpg
3.561	0.782	1	incongruent	Block1	incongruent/STIM_000.jpg
7.144	0.977	1	incongruent	Block1	incongruent/STIM_000.jpg
10.803	0.929	1	incongruent	Block1	incongruent/STIM_000.jpg
14.933	0.747	1	incongruent	Block1	incongruent/STIM_000.jpg
19.577	1.016	1	incongruent	Block1	incongruent/STIM_001.jpg
22.998	1.242	0	incongruent	Block1	incongruent/STIM_001.jpg
26.48	1.176	1	incongruent	Block1	incongruent/STIM_001.jpg
30.286	0.921	1	incongruent	Block1	incongruent/STIM_001.jpg
34.394	0.635	1	incongruent	Block1	incongruent/STIM_001.jpg
37.883	0.75	1	incongruent	Block1	incongruent/STIM_002.jpg
42.089	1.051	1	incongruent	Block1	incongruent/STIM_002.jpg
45.999	0.824	1	incongruent	Block1	incongruent/STIM_002.jpg
49.113	0.574	1	incongruent	Block1	incongruent/STIM_002.jpg
52.978	0.756	1	incongruent	Block1	incongruent/STIM_002.jpg
57.378	1.111	0	incongruent	Block1	incongruent/STIM_003.jpg
61.892	0.918	1	incongruent	Block1	incongruent/STIM_003.jpg
65.473	0.855	0	incongruent	Block1	incongruent/STIM_003.jpg
68.707	0.845	1	incongruent	Block1	incongruent/STIM_003.jpg
71.703	0.792	1	incongruent	Block1	incongruent/STIM_003.jpg
75.878	0.834	0	incongruent	Block1	incongruent/STIM_004.jpg
79.352	0.712	0	incongruent	Block1	incongruent/STIM_004.jpg
83.99	0.733	1	incongruent	Block1	incongruent/STIM_004.jpg
88.76	0.908	1	incongruent	Block1	incongruent/STIM_004.jpg
92.82	0.765	1	incongruent	Block1	incongruent/STIM_004.jpg
96.916	0.866	1	incongruent	Block1	incongruent/STIM_005.jpg
101.118	0.975	1	incongruent	Block1	incongruent/STIM_005.jpg
106.007	0.858	1	incongruent	Block1	incongruent/STIM_005.jpg
109.452	0.631	1	incongruent	Block1	incongruent/STIM_005.jpg
112.804	0.717	1	incongruent	Block1	incongruent/STIM_005.jpg
116.623	0.708	1	incongruent	Block1	incongruent/STIM_006.jpg
121.23	1.14	0	incongruent	Block1	incongruent/STIM_006.jpg
126.325	0.658	1	incongruent	Block1	incongruent/STIM_006.jpg
129.384	0.779	1	incongruent	Block1	incongruent/STIM_006.jpg
132.685	0.897	1	incongruent	Block1	incongruent/STIM_006.jpg
137.261	0.685	1	incongruent	Block1	incongruent/STIM_007.jpg
140.1	1.0	1	incongruent	Block1	incongruent/STIM_007.jpg
144.088	0.578	1	incongruent	Block1	incongruent/STIM_007.jpg
147.382	0.617	1	incongruent	Block1	incongruent/STIM_007.jpg
150.156	0.905	1	incongruent	Block1	incongruent/STIM_007.jpg
154.89	0.84	1	incongruent	Block1	incongruent/STIM_008.jpg
159.509	1.085	1	incongruent	Block1	incongruent/STIM_008.jpg
164.284	1.009	1	incongruent	Block1	incongruent/STIM_008.jpg
167.95	0.799	1	incongruent	Block1	incongruent/STIM_008.jpg
171.141	0.64	1	incongruent	Block1	incongruent/STIM_008.jpg
175.356	1.085	0	incongruent	Block1	incongruent/STIM_009.jpg
179.206	1.149	1	incongruent	Block1	incongruent/STIM_009.jpg
183.447	1.098	1	incongruent	Block1	incongruent/STIM_009.jpg
188.034	0.667	1	incongruent	Block1	incongruent/STIM_009.jpg
192.647	0.59	0	incongruent	Block1	incongruent/STIM_009.jpg
196.505	1.133	1	incongruent	Block1	incongruent/STIM_010.jpg
200.963	0.649	0	incongruent	Block1	incongruent/STIM_010.jpg
205.002	0.734	1	incongruent	Block1	incongruent/STIM_010.jpg
209.226	0.698	1	incongruent	Block1	incongruent/STIM_010.jpg
213.084	0.883	1	incongruent	Block1	incongruent/STIM_010.jpg
217.858	0.796	1	incongruent	Block1	incongruent/STIM_011.jpg
221.907	1.057	0	incongruent	Block1	incongruent/STIM_011.jpg
226.751	0.844	1	incongruent	Block1	incongruent/STIM_011.jpg
230.619	0.588	1	incongruent	Block1	incongruent/STIM_011.jpg
234.286	0.641	1	incongruent	Block1	incongruent/STIM_011.jpg
237.67	0.787	1	incongruent	Block1	incongruent/STIM_012.jpg
242.488	1.161	0	incongruent	Block1	incongruent/STIM_012.jpg
247.68	1.109	1	incongruent	Block1	incongruent/STIM_012.jpg
251.152	0.694	1	incongruent	Block1	incongruent/STIM_012.jpg
254.112	0.868	1	incongruent	Block1	incongruent/STIM_012.jpg
258.793	0.849	0	incongruent	Block1	incongruent/STIM_013.jpg
263.504	0.691	1	incongruent	Block1	incongruent/STIM_013.jpg
267.129	0.547	1	incongruent	Block1	incongruent/STIM_013.jpg
270.648	0.85	1	incongruent	Block1	incongruent/STIM_013.jpg
275.015	0.563	1	incongruent	Block1	incongruent/STIM_013.jpg
278.081	1.12	1	incongruent	Block1	incongruent/STIM_014.jpg
283.04	0.789	1	incongruent	Block1	incongruent/STIM_014.jpg
287.872	0.974	1	incongruent	Block1	incongruent/STIM_014.jpg
292.022	1.01	1	incongruent	Block1	incongruent/STIM_014.jpg
295.98	1.061	1	incongruent	Block1	incongruent/STIM_014.jpg
299.538	1.069	1	incongruent	Block1	incongruent/STIM_015.jpg
303.628	1.13	1	incongruent	Block1	incongruent/STIM_015.jpg
307.552	0.84	1	incongruent	Block1	incongruent/STIM_015.jpg
311.197	0.594	0	incongruent	Block1	incongruent/STIM_015.jpg
314.102	0.906	1	incongruent	Block1	incongruent/STIM_015.jpg
318.376	0.653	1	incongruent	Block1	incongruent/STIM_016.jpg
322.425	1.008	1	incongruent	Block1	incongruent/STIM_016.jpg
326.951	0.693	0	incongruent	Block1	incongruent/STIM_016.jpg
330.805	0.743	1	incongruent	Block1	incongruent/STIM_016.jpg
335.685	0.802	1	incongruent	Block1	incongruent/STIM_016.jpg
340.246	1.108	0	incongruent	Block1	incongruent/STIM_017.jpg
344.201	0.978	1	incongruent	Block1	incongruent/STIM_017.jpg
348.569	0.718	1	incongruent	Block1	incongruent/STIM_017.jpg
351.953	0.935	1	incongruent	Block1	incongruent/STIM_017.jpg
355.878	0.654	1	incongruent	Block1	incongruent/STIM_017.jpg
358.712	0.807	1	incongruent	Block1	incongruent/STIM_018.jpg
362.516	1.093	0	incongruent	Block1	incongruent/STIM_018.jpg
365.786	0.931	0	incongruent	Block1	incongruent/STIM_018.jpg
369.631	0.471	1	incongruent	Block1	incongruent/STIM_018.jpg
373.388	0.536	1	incongruent	Block1	incongruent/STIM_018.jpg
376.165	0.97	1	incongruent	Block1	incongruent/STIM_019.jpg
380.443	0.704	1	incongruent	Block1	incongruent/STIM_019.jpg
383.349	0.66	1	incongruent	Block1	incongruent/STIM_019.jpg
386.223	0.617	1	incongruent	Block1	incongruent/STIM_019.jpg
389.777	0.652	1	incongruent	Block1	incongruent/STIM_019.jpg
394.219	0.802	1	incongruent	Block1	incongruent/STIM_020.jpg
398.518	1.106	1	incongruent	Block1	incongruent/STIM_020.jpg
403.687	0.855	1	incongruent	Block1	incongruent/STIM_020.jpg
407.613	0.512	1	incongruent	Block1	incongruent/STIM_020.jpg
411.629	0.548	1	incongruent	Block1	incongruent/STIM_020.jpg
415.514	0.779	1	incongruent	Block1	incongruent/STIM_021.jpg
419.098	0.93	1	incongruent	Block1	incongruent/STIM_021.jpg
423.221	0.988	1	incongruent	Block1	incongruent/STIM_021.jpg
426.435	0.593	1	incongruent	Block1	incongruent/STIM_021.jpg
429.859	0.699	1	incongruent	Block1	incongruent/STIM_021.jpg
433.671	1.062	1	incongruent	Block1	incongruent/STIM_022.jpg
438.237	0.964	1	incongruent	Block1	incongruent/STIM_022.jpg
442.298	1.156	1	incongruent	Block1	incongruent/STIM_022.jpg
446.049	0.943	1	incongruent	Block1	incongruent/STIM_022.jpg
450.742	0.553	1	incongruent	Block1	incongruent/STIM_022.jpg
454.549	1.274	1	incongruent	Block1	incongruent/STIM_023.jpg
459.173	0.689	1	incongruent	Block1	incongruent/STIM_023.jpg
462.476	0.799	1	incongruent	Block1	incongruent/STIM_023.jpg
467.238	0.873	1	incongruent	Block1	incongruent/STIM_023.jpg
470.377	0.599	0	incongruent	Block1	incongruent/STIM_023.jpg
473.705	0.839	1	incongruent	Block1	incongruent/STIM_024.jpg
476.802	0.755	0	incongruent	Block1	incongruent/STIM_024.jpg
479.95	1.245	1	incongruent	Block1	incongruent/STIM_024.jpg
484.48	0.714	1	incongruent	Block1	incongruent/STIM_024.jpg
487.351	0.866	1	incongruent	Block1	incongruent/STIM_024.jpg
492.246	1.206	1	incongruent	Block1	incongruent/STIM_025.jpg
495.884	1.258	1	incongruent	Block1	incongruent/STIM_025.jpg
500.608	0.693	1	incongruent	Block1	incongruent/STIM_025.jpg
504.723	0.65	1	incongruent	Block1	incongruent/STIM_025.jpg
508.713	0.934	1	incongruent	Block1	incongruent/STIM_025.jpg
512.302	1.159	1	incongruent	Block1	incongruent/STIM_026.jpg
515.927	0.988	1	incongruent	Block1	incongruent/STIM_026.jpg
521.071	0.894	1	incongruent	Block1	incongruent/STIM_026.jpg
525.042	0.771	1	incongruent	Block1	incongruent/STIM_026.jpg
528.845	0.961	1	incongruent	Block1	incongruent/STIM_026.jpg
532.603	0.809	1	incongruent	Block1	incongruent/STIM_027.jpg
536.905	1.094	1	incongruent	Block1	incongruent/STIM_027.jpg
542.063	0.798	1	incongruent	Block1	incongruent/STIM_027.jpg
545.1	1.016	1	incongruent	Block1	incongruent/STIM_027.jpg
548.691	0.78	1	incongruent	Block1	incongruent/STIM_027.jpg
553.477	0.716	1	incongruent	Block1	incongruent/STIM_028.jpg
558.191	0.716	1	incongruent	Block1	incongruent/STIM_028.jpg
561.174	1.087	1	incongruent	Block1	incongruent/STIM_028.jpg
565.939	0.833	1	incongruent	Block1	incongruent/STIM_028.jpg
569.136	0.845	1	incongruent	Block1	incongruent/STIM_028.jpg
573.47	1.052	1	incongruent	Block1	incongruent/STIM_029.jpg
577.102	0.995	1	incongruent	Block1	incongruent/STIM_029.jpg
580.464	0.708	1	incongruent	Block1	incongruent/STIM_029.jpg
584.293	1.008	1	incongruent	Block1	incongruent/STIM_029.jpg
589.315	0.964	1	incongruent	Block1	incongruent/STIM_029.jpg
594.303	0.552	1	congruent	Block1	congruent/STIM_000.jpg
597.113	0.645	1	congruent	Block1	congruent/STIM_000.jpg
601.628	0.704	1	congruent	Block1	congruent/STIM_000.jpg
605.159	0.468	1	congruent	Block1	congruent/STIM_000.jpg
607.981	0.664	1	congruent	Block1	congruent/STIM_000.jpg
611.801	0.584	1	congruent	Block1	congruent/STIM_001.jpg
616.425	0.477	1	congruent	Block1	congruent/STIM_001.jpg
619.748	0.702	1	congruent	Block1	congruent/STIM_001.jpg
622.611	0.69	1	congruent	Block1	congruent/STIM_001.jpg
626.466	0.55	1	congruent	Block1	congruent/STIM_001.jpg
631.108	0.544	1	congruent	Block1	congruent/STIM_002.jpg
635.633	0.768	1	congruent	Block1	congruent/STIM_002.jpg
639.674	0.461	1	congruent	Block1	congruent/STIM_002.jpg
642.338	0.587	1	congruent	Block1	congruent/STIM_002.jpg
646.004	0.726	1	congruent	Block1	congruent/STIM_002.jpg
648.955	0.552	1	congruent	Block1	congruent/STIM_003.jpg
653.533	0.658	1	congruent	Block1	congruent/STIM_003.jpg
656.897	0.502	1	congruent	Block1	congruent/STIM_003.jpg
660.399	0.536	1	congruent	Block1	congruent/STIM_003.jpg
663.06	0.572	1	congruent	Block1	congruent/STIM_003.jpg
667.237	0.66	1	congruent	Block1	congruent/STIM_004.jpg
670.542	0.413	1	congruent	Block1	congruent/STIM_004.jpg
673.6	0.439	1	congruent	Block1	congruent/STIM_004.jpg
677.816	0.509	1	congruent	Block1	congruent/STIM_004.jpg
681.196	0.472	1	congruent	Block1	congruent/STIM_004.jpg
684.584	0.641	1	congruent	Block1	congruent/STIM_005.jpg
688.376	0.78	1	congruent	Block1	congruent/STIM_005.jpg
692.651	0.625	1	congruent	Block1	congruent/STIM_005.jpg
696.24	0.457	1	congruent	Block1	congruent/STIM_005.jpg
698.904	0.479	1	congruent	Block1	congruent/STIM_005.jpg
703.279	0.426	1	congruent	Block1	congruent/STIM_006.jpg
707.797	0.638	1	congruent	Block1	congruent/STIM_006.jpg
711.183	0.74	1	congruent	Block1	congruent/STIM_006.jpg
714.082	0.698	1	congruent	Block1	congruent/STIM_006.jpg
718.555	0.456	1	congruent	Block1	congruent/STIM_006.jpg
722.243	0.686	1	congruent	Block1	congruent/STIM_007.jpg
725.794	0.638	1	congruent	Block1	congruent/STIM_007.jpg
730.427	0.548	1	congruent	Block1	congruent/STIM_007.jpg
734.149	0.817	1	congruent	Block1	congruent/STIM_007.jpg
738.352	0.727	1	congruent	Block1	congruent/STIM_007.jpg
741.534	0.702	1	congruent	Block1	congruent/STIM_008.jpg
746.245	0.526	1	congruent	Block1	congruent/STIM_008.jpg
750.854	0.63	1	congruent	Block1	congruent/STIM_008.jpg
754.958	0.833	1	congruent	Block1	congruent/STIM_008.jpg
757.979	0.731	0	congruent	Block1	congruent/STIM_008.jpg
760.992	0.556	1	congruent	Block1	congruent/STIM_009.jpg
765.534	0.559	1	congruent	Block1	congruent/STIM_009.jpg
769.491	0.802	1	congruent	Block1	congruent/STIM_009.jpg
773.058	0.668	1	congruent	Block1	congruent/STIM_009.jpg
777.636	0.826	1	congruent	Block1	congruent/STIM_009.jpg
781.309	0.87	1	congruent	Block1	congruent/STIM_010.jpg
784.337	0.815	1	congruent	Block1	congruent/STIM_010.jpg
788.021	0.46	1	congruent	Block1	congruent/STIM_010.jpg
791.915	0.742	1	congruent	Block1	congruent/STIM_010.jpg
796.301	0.569	1	congruent	Block1	congruent/STIM_010.jpg
800.158	0.485	1	congruent	Block1	congruent/STIM_011.jpg
804.538	0.627	1	congruent	Block1	congruent/STIM_011.jpg
808.751	0.628	1	congruent	Block1	congruent/STIM_011.jpg
811.798	0.529	1	congruent	Block1	congruent/STIM_011.jpg
814.631	0.39	1	congruent	Block1	congruent/STIM_011.jpg
818.673	0.451	1	congruent	Block1	congruent/STIM_012.jpg
821.729	0.684	1	congruent	Block1	congruent/STIM_012.jpg
824.721	0.835	1	congruent	Block1	congruent/STIM_012.jpg
827.688	0.553	1	congruent	Block1	congruent/STIM_012.jpg
830.783	0.588	1	congruent	Block1	congruent/STIM_012.jpg
835.113	0.513	1	congruent	Block1	congruent/STIM_013.jpg
839.263	0.69	1	congruent	Block1	congruent/STIM_013.jpg
843.134	0.485	1	congruent	Block1	congruent/STIM_013.jpg
846.484	0.712	1	congruent	Block1	congruent/STIM_013.jpg
849.914	0.694	1	congruent	Block1	congruent/STIM_013.jpg
853.316	0.62	1	congruent	Block1	congruent/STIM_014.jpg
856.03	0.593	1	congruent	Block1	congruent/STIM_014.jpg
860.655	0.482	1	congruent	Block1	congruent/STIM_014.jpg
864.509	0.616	1	congruent	Block1	congruent/STIM_014.jpg
868.615	0.586	1	congruent	Block1	congruent/STIM_014.jpg
871.872	0.801	1	congruent	Block1	congruent/STIM_015.jpg
876.133	0.629	1	congruent	Block1	congruent/STIM_015.jpg
880.768	0.537	0	congruent	Block1	congruent/STIM_015.jpg
883.512	0.677	1	congruent	Block1	congruent/STIM_015.jpg
886.735	0.486	1	congruent	Block1	congruent/STIM_015.jpg
889.876	0.525	1	congruent	Block1	congruent/STIM_016.jpg
893.393	0.776	1	congruent	Block1	congruent/STIM_016.jpg
896.321	0.497	1	congruent	Block1	congruent/STIM_016.jpg
899.694	0.32	1	congruent	Block1	congruent/STIM_016.jpg
902.414	0.512	1	congruent	Block1	congruent/STIM_016.jpg
906.018	0.714	1	congruent	Block1	congruent/STIM_017.jpg
909.556	0.68	1	congruent	Block1	congruent/STIM_017.jpg
912.544	0.445	1	congruent	Block1	congruent/STIM_017.jpg
916.347	0.645	1	congruent	Block1	congruent/STIM_017.jpg
920.287	0.373	1	congruent	Block1	congruent/STIM_017.jpg
923.793	0.503	1	congruent	Block1	congruent/STIM_018.jpg
927.255	0.467	1	congruent	Block1	congruent/STIM_018.jpg
931.216	0.668	1	congruent	Block1	congruent/STIM_018.jpg
935.772	0.637	1	congruent	Block1	congruent/STIM_018.jpg
938.915	0.679	1	congruent	Block1	congruent/STIM_018.jpg
942.555	0.434	1	congruent	Block1	congruent/STIM_019.jpg
946.316	0.446	1	congruent	Block1	congruent/STIM_019.jpg
949.599	0.411	1	congruent	Block1	congruent/STIM_019.jpg
953.619	0.71	0	congruent	Block1	congruent/STIM_019.jpg
956.57	0.634	1	congruent	Block1	congruent/STIM_019.jpg
960.5	0.505	1	congruent	Block1	congruent/STIM_020.jpg
963.243	0.682	1	congruent	Block1	congruent/STIM_020.jpg
966.479	0.71	1	congruent	Block1	congruent/STIM_020.jpg
970.921	0.454	1	congruent	Block1	congruent/STIM_020.jpg
975.316	0.522	1	congruent	Block1	congruent/STIM_020.jpg
979.86	0.672	1	congruent	Block1	congruent/STIM_021.jpg
983.644	0.458	1	congruent	Block1	congruent/STIM_021.jpg
986.361	0.736	1	congruent	Block1	congruent/STIM_021.jpg
990.502	0.455	1	congruent	Block1	congruent/STIM_021.jpg
993.076	0.622	1	congruent	Block1	congruent/STIM_021.jpg
996.915	0.8	1	congruent	Block1	congruent/STIM_022.jpg
1001.467	0.506	1	congruent	Block1	congruent/STIM_022.jpg
1004.733	0.734	1	congruent	Block1	congruent/STIM_022.jpg
1008.116	0.782	1	congruent	Block1	congruent/STIM_022.jpg
1012.456	0.589	1	congruent	Block1	congruent/STIM_022.jpg
1015.458	0.703	1	congruent	Block1	congruent/STIM_023.jpg
1019.423	0.673	1	congruent	Block1	congruent/STIM_023.jpg
1023.718	0.528	1	congruent	Block1	congruent/STIM_023.jpg
1027.103	0.491	1	congruent	Block1	congruent/STIM_023.jpg
1030.361	0.571	1	congruent	Block1	congruent/STIM_023.jpg
1034.4	0.452	1	congruent	Block1	congruent/STIM_024.jpg
1036.981	0.5	1	congruent	Block1	congruent/STIM_024.jpg
1039.813	0.752	1	congruent	Block1	congruent/STIM_024.jpg
1043.724	0.429	1	congruent	Block1	congruent/STIM_024.jpg
1047.008	0.67	1	congruent	Block1	congruent/STIM_024.jpg
1051.264	0.501	1	congruent	Block1	congruent/STIM_025.jpg
1054.296	0.674	1	congruent	Block1	congruent/STIM_025.jpg
1057.419	0.734	1	congruent	Block1	congruent/STIM_025.jpg
1061.251	0.581	1	congruent	Block1	congruent/STIM_025.jpg
1064.801	0.532	1	congruent	Block1	congruent/STIM_025.jpg
1068.265	0.579	0	congruent	Block1	congruent/STIM_026.jpg
1072.419	0.578	0	congruent	Block1	congruent/STIM_026.jpg
1076.716	0.606	1	congruent	Block1	congruent/STIM_026.jpg
1080.684	0.648	1	congruent	Block1	congruent/STIM_026.jpg
1084.078	0.672	1	congruent	Block1	congruent/STIM_026.jpg
1087.243	0.647	1	congruent	Block1	congruent/STIM_027.jpg
1091.847	0.696	1	congruent	Block1	congruent/STIM_027.jpg
1096.237	0.599	1	congruent	Block1	congruent/STIM_027.jpg
1100.186	0.808	1	congruent	Block1	congruent/STIM_027.jpg
1104.107	0.639	1	congruent	Block1	congruent/STIM_027.jpg
1107.713	0.596	1	congruent	Block1	congruent/STIM_028.jpg
1110.93	0.616	1	congruent	Block1	congruent/STIM_028.jpg
1114.016	0.426	1	congruent	Block1	congruent/STIM_028.jpg
1118.36	0.556	1	congruent	Block1	congruent/STIM_028.jpg
1121.156	0.452	1	congruent	Block1	congruent/STIM_028.jpg
1123.854	0.611	1	congruent	Block1	congruent/STIM_029.jpg
1128.243	0.554	1	congruent	Block1	congruent/STIM_029.jpg
1132.377	0.834	1	congruent	Block1	congruent/STIM_029.jpg
1135.597	0.509	1	congruent	Block1	congruent/STIM_029.jpg
1139.619	0.619	1	congruent	Block1	congruent/STIM_029.jpg
1142.572	0.728	1	incongruent	Block2	incongruent/STIM_000.jpg
1145.753	0.893	1	incongruent	Block2	incongruent/STIM_000.jpg
1149.929	0.914	1	incongruent	Block2	incongruent/STIM_000.jpg
1153.012	0.481	1	incongruent	Block2	incongruent/STIM_000.jpg
1157.314	0.616	1	incongruent	Block2	incongruent/STIM_000.jpg
1160.859	1.039	0	incongruent	Block2	incongruent/STIM_001.jpg
1164.84	0.96	1	incongruent	Block2	incongruent/STIM_001.jpg
1169.142	0.891	0	incongruent	Block2	incongruent/STIM_001.jpg
1172.205	0.516	1	incongruent	Block2	incongruent/STIM_001.jpg
1174.983	0.572	1	incongruent	Block2	incongruent/STIM_001.jpg
1178.487	0.639	1	incongruent	Block2	incongruent/STIM_002.jpg
1182.131	0.602	1	incongruent	Block2	incongruent/STIM_002.jpg
1186.272	0.93	1	incongruent	Block2	incongruent/STIM_002.jpg
1189.425	0.917	1	incongruent	Block2	incongruent/STIM_002.jpg
1192.74	0.68	1	incongruent	Block2	incongruent/STIM_002.jpg
1196.838	0.735	1	incongruent	Block2	incongruent/STIM_003.jpg
1201.561	0.507	1	incongruent	Block2	incongruent/STIM_003.jpg
1205.393	0.577	1	incongruent	Block2	incongruent/STIM_003.jpg
1208.665	0.571	1	incongruent	Block2	incongruent/STIM_003.jpg
1212.938	0.502	1	incongruent	Block2	incongruent/STIM_003.jpg
1217.303	1.036	1	incongruent	Block2	incongruent/STIM_004.jpg
1221.8	1.003	1	incongruent	Block2	incongruent/STIM_004.jpg
1226.564	1.003	1	incongruent	Block2	incongruent/STIM_004.jpg
1230.981	0.695	1	incongruent	Block2	incongruent/STIM_004.jpg
1234.881	0.666	1	incongruent	Block2	incongruent/STIM_004.jpg
1238.68	0.763	1	incongruent	Block2	incongruent/STIM_005.jpg
1243.455	0.83	1	incongruent	Block2	incongruent/STIM_005.jpg
1248.005	0.541	1	incongruent	Block2	incongruent/STIM_005.jpg
1252.03	0.865	1	incongruent	Block2	incongruent/STIM_005.jpg
1255.025	0.858	1	incongruent	Block2	incongruent/STIM_005.jpg
1258.37	0.874	1	incongruent	Block2	incongruent/STIM_006.jpg
1263.276	0.788	1	incongruent	Block2	incongruent/STIM_006.jpg
1267.702	0.551	1	incongruent	Block2	incongruent/STIM_006.jpg
1272.282	0.714	1	incongruent	Block2	incongruent/STIM_006.jpg
1275.298	0.848	1	incongruent	Block2	incongruent/STIM_006.jpg
1279.717	1.019	1	incongruent	Block2	incongruent/STIM_007.jpg
1284.731	0.74	1	incongruent	Block2	incongruent/STIM_007.jpg
1288.922	0.915	1	incongruent	Block2	incongruent/STIM_007.jpg
1293.923	0.755	1	incongruent	Block2	incongruent/STIM_007.jpg
1298.171	0.395	1	incongruent	Block2	incongruent/STIM_007.jpg
1301.598	1.083	1	incongruent	Block2	incongruent/STIM_008.jpg
1305.99	0.866	1	incongruent	Block2	incongruent/STIM_008.jpg
1309.637	0.776	1	incongruent	Block2	incongruent/STIM_008.jpg
1312.745	0.709	1	incongruent	Block2	incongruent/STIM_008.jpg
1315.654	0.768	1	incongruent	Block2	incongruent/STIM_008.jpg
1319.895	0.532	1	incongruent	Block2	incongruent/STIM_009.jpg
1324.043	0.911	1	incongruent	Block2	incongruent/STIM_009.jpg
1328.552	0.572	1	incongruent	Block2	incongruent/STIM_009.jpg
1332.814	0.812	1	incongruent	Block2	incongruent/STIM_009.jpg
1337.084	0.648	0	incongruent	Block2	incongruent/STIM_009.jpg
1341.378	0.85	1	incongruent	Block2	incongruent/STIM_010.jpg
1345.975	0.926	0	incongruent	Block2	incongruent/STIM_010.jpg
1350.641	0.709	1	incongruent	Block2	incongruent/STIM_010.jpg
1354.999	0.504	1	incongruent	Block2	incongruent/STIM_010.jpg
1359.029	0.817	1	incongruent	Block2	incongruent/STIM_010.jpg
1362.554	0.799	1	incongruent	Block2	incongruent/STIM_011.jpg
1366.443	0.548	1	incongruent	Block2	incongruent/STIM_011.jpg
1370.797	0.547	1	incongruent	Block2	incongruent/STIM_011.jpg
1374.387	0.651	1	incongruent	Block2	incongruent/STIM_011.jpg
1379.071	0.719	1	incongruent	Block2	incongruent/STIM_011.jpg
1383.363	1.036	1	incongruent	Block2	incongruent/STIM_012.jpg
1387.825	0.492	1	incongruent	Block2	incongruent/STIM_012.jpg
1392.388	0.537	1	incongruent	Block2	incongruent/STIM_012.jpg
1395.02	0.87	1	incongruent	Block2	incongruent/STIM_012.jpg
1399.926	0.763	1	incongruent	Block2	incongruent/STIM_012.jpg
1404.092	0.881	1	incongruent	Block2	incongruent/STIM_013.jpg
1407.188	0.79	1	incongruent	Block2	incongruent/STIM_013.jpg
1410.256	0.703	0	incongruent	Block2	incongruent/STIM_013.jpg
1414.155	0.816	1	incongruent	Block2	incongruent/STIM_013.jpg
1417.063	0.802	1	incongruent	Block2	incongruent/STIM_013.jpg
1420.721	0.734	1	incongruent	Block2	incongruent/STIM_014.jpg
1424.396	0.788	1	incongruent	Block2	incongruent/STIM_014.jpg
1427.842	0.808	1	incongruent	Block2	incongruent/STIM_014.jpg
1432.226	0.874	1	incongruent	Block2	incongruent/STIM_014.jpg
1435.345	0.85	1	incongruent	Block2	incongruent/STIM_014.jpg
1439.456	0.886	1	incongruent	Block2	incongruent/STIM_015.jpg
1442.532	0.84	1	incongruent	Block2	incongruent/STIM_015.jpg
1445.571	0.857	1	incongruent	Block2	incongruent/STIM_015.jpg
1450.264	0.801	1	incongruent	Block2	incongruent/STIM_015.jpg
1453.86	0.938	1	incongruent	Block2	incongruent/STIM_015.jpg
1457.759	0.758	1	incongruent	Block2	incongruent/STIM_016.jpg
1461.826	0.849	1	incongruent	Block2	incongruent/STIM_016.jpg
1465.403	0.774	1	incongruent	Block2	incongruent/STIM_016.jpg
1468.304	0.473	1	incongruent	Block2	incongruent/STIM_016.jpg
1471.886	0.812	1	incongruent	Block2	incongruent/STIM_016.jpg
1475.784	0.71	1	incongruent	Block2	incongruent/STIM_017.jpg
1480.093	0.82	1	incongruent	Block2	incongruent/STIM_017.jpg
1483.286	0.628	1	incongruent	Block2	incongruent/STIM_017.jpg
1486.013	0.817	1	incongruent	Block2	incongruent/STIM_017.jpg
1490.011	0.565	1	incongruent	Block2	incongruent/STIM_017.jpg
1492.819	0.627	1	incongruent	Block2	incongruent/STIM_018.jpg
1496.564	0.758	1	incongruent	Block2	incongruent/STIM_018.jpg
1500.384	0.644	1	incongruent	Block2	incongruent/STIM_018.jpg
1504.723	0.578	1	incongruent	Block2	incongruent/STIM_018.jpg
1508.876	0.558	1	incongruent	Block2	incongruent/STIM_018.jpg
1512.522	0.896	1	incongruent	Block2	incongruent/STIM_019.jpg
1516.429	0.723	1	incongruent	Block2	incongruent/STIM_019.jpg
1520.015	0.587	1	incongruent	Block2	incongruent/STIM_019.jpg
1523.669	0.455	1	incongruent	Block2	incongruent/STIM_019.jpg
1526.333	0.384	1	incongruent	Block2	incongruent/STIM_019.jpg
1530.192	0.694	1	incongruent	Block2	incongruent/STIM_020.jpg
1533.63	0.505	1	incongruent	Block2	incongruent/STIM_020.jpg
1537.663	0.548	1	incongruent	Block2	incongruent/STIM_020.jpg
1541.605	0.95	1	incongruent	Block2	incongruent/STIM_020.jpg
1546.58	0.527	1	incongruent	Block2	incongruent/STIM_020.jpg
1549.278	1.06	1	incongruent	Block2	incongruent/STIM_021.jpg
1553.406	0.65	1	incongruent	Block2	incongruent/STIM_021.jpg
1556.91	0.948	1	incongruent	Block2	incongruent/STIM_021.jpg
1561.874	0.395	1	incongruent	Block2	incongruent/STIM_021.jpg
1564.942	0.743	1	incongruent	Block2	incongruent/STIM_021.jpg
1569.015	0.668	1	incongruent	Block2	incongruent/STIM_022.jpg
1572.157	0.521	1	incongruent	Block2	incongruent/STIM_022.jpg
1575.275	0.88	1	incongruent	Block2	incongruent/STIM_022.jpg
1578.479	0.464	1	incongruent	Block2	incongruent/STIM_022.jpg
1581.157	0.54	1	incongruent	Block2	incongruent/STIM_022.jpg
1585.186	0.913	1	incongruent	Block2	incongruent/STIM_023.jpg
1588.722	0.443	1	incongruent	Block2	incongruent/STIM_023.jpg
1591.551	0.892	1	incongruent	Block2	incongruent/STIM_023.jpg
1596.451	0.756	1	incongruent	Block2	incongruent/STIM_023.jpg
1600.156	0.783	1	incongruent	Block2	incongruent/STIM_023.jpg
1603.195	0.665	1	incongruent	Block2	incongruent/STIM_024.jpg
1607.514	0.946	1	incongruent	Block2	incongruent/STIM_024.jpg
1610.86	0.782	1	incongruent	Block2	incongruent/STIM_024.jpg
1615.361	0.358	1	incongruent	Block2	incongruent/STIM_024.jpg
1619.323	0.626	1	incongruent	Block2	incongruent/STIM_024.jpg
1623.981	0.982	1	incongruent	Block2	incongruent/STIM_025.jpg
1628.222	0.908	0	incongruent	Block2	incongruent/STIM_025.jpg
1631.577	0.868	1	incongruent	Block2	incongruent/STIM_025.jpg
1634.811	0.494	1	incongruent	Block2	incongruent/STIM_025.jpg
1638.42	0.826	0	incongruent	Block2	incongruent/STIM_025.jpg
1641.564	1.022	1	incongruent	Block2	incongruent/STIM_026.jpg
1645.571	0.79	1	incongruent	Block2	incongruent/STIM_026.jpg
1649.097	0.658	1	incongruent	Block2	incongruent/STIM_026.jpg
1652.919	0.449	1	incongruent	Block2	incongruent/STIM_026.jpg
1655.701	0.588	1	incongruent	Block2	incongruent/STIM_026.jpg
1659.569	0.567	1	incongruent	Block2	incongruent/STIM_027.jpg
1663.279	0.743	0	incongruent	Block2	incongruent/STIM_027.jpg
1667.632	0.745	1	incongruent	Block2	incongruent/STIM_027.jpg
1671.347	0.838	1	incongruent	Block2	incongruent/STIM_027.jpg
1674.487	0.672	1	incongruent	Block2	incongruent/STIM_027.jpg
1678.564	0.641	1	incongruent	Block2	incongruent/STIM_028.jpg
1682.601	0.782	0	incongruent	Block2	incongruent/STIM_028.jpg
1685.597	0.62	1	incongruent	Block2	incongruent/STIM_028.jpg
1689.938	0.728	1	incongruent	Block2	incongruent/STIM_028.jpg
1693.847	0.723	1	incongruent	Block2	incongruent/STIM_028.jpg
1697.967	0.792	1	incongruent	Block2	incongruent/STIM_029.jpg
1702.016	0.63	1	incongruent	Block2	incongruent/STIM_029.jpg
1704.712	0.554	1	incongruent	Block2	incongruent/STIM_029.jpg
1707.515	0.562	1	incongruent	Block2	incongruent/STIM_029.jpg
1710.862	0.747	1	incongruent	Block2	incongruent/STIM_029.jpg
1715.713	0.716	1	congruent	Block2	congruent/STIM_000.jpg
1720.403	0.733	1	congruent	Block2	congruent/STIM_000.jpg
1723.718	0.581	1	congruent	Block2	congruent/STIM_000.jpg
1727.618	0.488	1	congruent	Block2	congruent/STIM_000.jpg
1730.602	0.591	1	congruent	Block2	congruent/STIM_000.jpg
1735.122	0.851	1	congruent	Block2	congruent/STIM_001.jpg
1739.681	0.7	1	congruent	Block2	congruent/STIM_001.jpg
1742.674	0.526	0	congruent	Block2	congruent/STIM_001.jpg
1747.221	0.689	1	congruent	Block2	congruent/STIM_001.jpg
1751.939	0.784	1	congruent	Block2	congruent/STIM_001.jpg
1755.55	0.47	1	congruent	Block2	congruent/STIM_002.jpg
1760.029	0.64	1	congruent	Block2	congruent/STIM_002.jpg
1763.471	0.723	1	congruent	Block2	congruent/STIM_002.jpg
1766.422	0.417	1	congruent	Block2	congruent/STIM_002.jpg
1769.618	0.419	1	congruent	Block2	congruent/STIM_002.jpg
1774.119	0.598	1	congruent	Block2	congruent/STIM_003.jpg
1777.443	0.517	1	congruent	Block2	congruent/STIM_003.jpg
1780.905	0.768	1	congruent	Block2	congruent/STIM_003.jpg
1785.153	0.578	1	congruent	Block2	congruent/STIM_003.jpg
1788.986	0.618	0	congruent	Block2	congruent/STIM_003.jpg
1793.463	0.669	1	congruent	Block2	congruent/STIM_004.jpg
1797.61	0.714	1	congruent	Block2	congruent/STIM_004.jpg
1801.43	0.492	1	congruent	Block2	congruent/STIM_004.jpg
1804.447	0.787	1	congruent	Block2	congruent/STIM_004.jpg
1807.433	0.349	1	congruent	Block2	congruent/STIM_004.jpg
1810.688	0.573	1	congruent	Block2	congruent/STIM_005.jpg
1814.333	0.444	1	congruent	Block2	congruent/STIM_005.jpg
1817.997	0.625	1	congruent	Block2	congruent/STIM_005.jpg
1820.963	0.429	1	congruent	Block2	congruent/STIM_005.jpg
1824.308	0.694	1	congruent	Block2	congruent/STIM_005.jpg
1828.32	0.647	1	congruent	Block2	congruent/STIM_006.jpg
1831.881	0.413	1	congruent	Block2	congruent/STIM_006.jpg
1834.756	0.785	1	congruent	Block2	congruent/STIM_006.jpg
1839.515	0.468	1	congruent	Block2	congruent/STIM_006.jpg
1843.491	0.561	1	congruent	Block2	congruent/STIM_006.jpg
1847.878	0.772	1	congruent	Block2	congruent/STIM_007.jpg
1852.591	0.488	1	congruent	Block2	congruent/STIM_007.jpg
1856.711	0.634	1	congruent	Block2	congruent/STIM_007.jpg
1860.895	0.446	1	congruent	Block2	congruent/STIM_007.jpg
1864.342	0.478	1	congruent	Block2	congruent/STIM_007.jpg
1868.664	0.458	1	congruent	Block2	congruent/STIM_008.jpg
1871.674	0.716	1	congruent	Block2	congruent/STIM_008.jpg
1876.096	0.536	1	congruent	Block2	congruent/STIM_008.jpg
1880.017	0.543	1	congruent	Block2	congruent/STIM_008.jpg
1883.564	0.648	1	congruent	Block2	congruent/STIM_008.jpg
1887.722	0.662	1	congruent	Block2	congruent/STIM_009.jpg
1891.504	0.475	1	congruent	Block2	congruent/STIM_009.jpg
1894.499	0.767	1	congruent	Block2	congruent/STIM_009.jpg
1897.373	0.492	1	congruent	Block2	congruent/STIM_009.jpg
1900.581	0.69	1	congruent	Block2	congruent/STIM_009.jpg
1903.398	0.586	1	congruent	Block2	congruent/STIM_010.jpg
1907.711	0.836	1	congruent	Block2	congruent/STIM_010.jpg
1912.456	0.72	1	congruent	Block2	congruent/STIM_010.jpg
1916.409	0.734	1	congruent	Block2	congruent/STIM_010.jpg
1920.536	0.744	1	congruent	Block2	congruent/STIM_010.jpg
1924.882	0.48	1	congruent	Block2	congruent/STIM_011.jpg
1928.421	0.575	1	congruent	Block2	congruent/STIM_011.jpg
1932.451	0.721	1	congruent	Block2	congruent/STIM_011.jpg
1936.203	0.442	1	congruent	Block2	congruent/STIM_011.jpg
1939.812	0.624	1	congruent	Block2	congruent/STIM_011.jpg
1944.341	0.532	1	congruent	Block2	congruent/STIM_012.jpg
1946.985	0.5	1	congruent	Block2	congruent/STIM_012.jpg
1950.261	0.415	1	congruent	Block2	congruent/STIM_012.jpg
1953.228	0.741	1	congruent	Block2	congruent/STIM_012.jpg
1958.013	0.754	1	congruent	Block2	congruent/STIM_012.jpg
1962.548	0.59	1	congruent	Block2	congruent/STIM_013.jpg
1965.664	0.677	1	congruent	Block2	congruent/STIM_013.jpg
1969.857	0.748	1	congruent	Block2	congruent/STIM_013.jpg
1974.73	0.503	1	congruent	Block2	congruent/STIM_013.jpg
1978.597	0.522	1	congruent	Block2	congruent/STIM_013.jpg
1981.863	0.471	1	congruent	Block2	congruent/STIM_014.jpg
1984.677	0.769	1	congruent	Block2	congruent/STIM_014.jpg
1988.699	0.679	1	congruent	Block2	congruent/STIM_014.jpg
1992.826	0.594	1	congruent	Block2	congruent/STIM_014.jpg
1995.521	0.432	1	congruent	Block2	congruent/STIM_014.jpg
1998.544	0.704	1	congruent	Block2	congruent/STIM_015.jpg
2003.077	0.526	1	congruent	Block2	congruent/STIM_015.jpg
2006.918	0.705	1	congruent	Block2	congruent/STIM_015.jpg
2011.661	0.464	1	congruent	Block2	congruent/STIM_015.jpg
2015.474	0.648	1	congruent	Block2	congruent/STIM_015.jpg
2019.253	0.702	1	congruent	Block2	congruent/STIM_016.jpg
2023.124	0.47	1	congruent	Block2	congruent/STIM_016.jpg
2027.058	0.563	1	congruent	Block2	congruent/STIM_016.jpg
2029.949	0.569	1	congruent	Block2	congruent/STIM_016.jpg
2032.926	0.669	0	congruent	Block2	congruent/STIM_016.jpg
2036.327	0.756	1	congruent	Block2	congruent/STIM_017.jpg
2041.118	0.742	1	congruent	Block2	congruent/STIM_017.jpg
2044.289	0.488	1	congruent	Block2	congruent/STIM_017.jpg
2047.032	0.601	1	congruent	Block2	congruent/STIM_017.jpg
2051.277	0.687	1	congruent	Block2	congruent/STIM_017.jpg
2055.091	0.636	1	congruent	Block2	congruent/STIM_018.jpg
2058.978	0.516	1	congruent	Block2	congruent/STIM_018.jpg
2062.895	0.448	1	congruent	Block2	congruent/STIM_018.jpg
2066.077	0.448	0	congruent	Block2	congruent/STIM_018.jpg
2069.592	0.61	1	congruent	Block2	congruent/STIM_018.jpg
2073.379	0.576	1	congruent	Block2	congruent/STIM_019.jpg
2077.054	0.592	1	congruent	Block2	congruent/STIM_019.jpg
2081.279	0.737	1	congruent	Block2	congruent/STIM_019.jpg
2085.397	0.573	1	congruent	Block2	congruent/STIM_019.jpg
2089.948	0.612	1	congruent	Block2	congruent/STIM_019.jpg
2093.336	0.431	0	congruent	Block2	congruent/STIM_020.jpg
2097.023	0.472	1	congruent	Block2	congruent/STIM_020.jpg
2100.232	0.43	1	congruent	Block2	congruent/STIM_020.jpg
2103.406	0.68	1	congruent	Block2	congruent/STIM_020.jpg
2107.163	0.74	0	congruent	Block2	congruent/STIM_020.jpg
2110.146	0.722	1	congruent	Block2	congruent/STIM_021.jpg
2113.817	0.555	0	congruent	Block2	congruent/STIM_021.jpg
2116.671	0.548	0	congruent	Block2	congruent/STIM_021.jpg
2119.274	0.774	1	congruent	Block2	congruent/STIM_021.jpg
2123.033	0.822	1	congruent	Block2	congruent/STIM_021.jpg
2127.18	0.759	1	congruent	Block2	congruent/STIM_022.jpg
2130.951	0.66	1	congruent	Block2	congruent/STIM_022.jpg
2134.326	0.407	1	congruent	Block2	congruent/STIM_022.jpg
2137.79	0.776	1	congruent	Block2	congruent/STIM_022.jpg
2141.364	0.635	1	congruent	Block2	congruent/STIM_022.jpg
2145.844	0.475	1	congruent	Block2	congruent/STIM_023.jpg
2149.256	0.538	1	congruent	Block2	congruent/STIM_023.jpg
2151.985	0.801	1	congruent	Block2	congruent/STIM_023.jpg
2156.33	0.749	1	congruent	Block2	congruent/STIM_023.jpg
2159.664	0.326	1	congruent	Block2	congruent/STIM_023.jpg
2162.635	0.67	1	congruent	Block2	congruent/STIM_024.jpg
2167.125	0.358	1	congruent	Block2	congruent/STIM_024.jpg
2170.071	0.682	1	congruent	Block2	congruent/STIM_024.jpg
2173.213	0.506	1	congruent	Block2	congruent/STIM_024.jpg
2177.386	0.613	1	congruent	Block2	congruent/STIM_024.jpg
2181.014	0.529	1	congruent	Block2	congruent/STIM_025.jpg
2185.444	0.676	0	congruent	Block2	congruent/STIM_025.jpg
2189.568	0.6	1	congruent	Block2	congruent/STIM_025.jpg
2193.754	0.64	1	congruent	Block2	congruent/STIM_025.jpg
2196.877	0.613	1	congruent	Block2	congruent/STIM_025.jpg
2201.361	0.908	1	congruent	Block2	congruent/STIM_026.jpg
2204.521	0.531	1	congruent	Block2	congruent/STIM_026.jpg
2209.145	0.456	1	congruent	Block2	congruent/STIM_026.jpg
2211.945	0.509	1	congruent	Block2	congruent/STIM_026.jpg
2215.359	0.708	1	congruent	Block2	congruent/STIM_026.jpg
2218.779	0.591	1	congruent	Block2	congruent/STIM_027.jpg
2222.497	0.755	1	congruent	Block2	congruent/STIM_027.jpg
2226.329	0.507	1	congruent	Block2	congruent/STIM_027.jpg
2230.703	0.552	1	congruent	Block2	congruent/STIM_027.jpg
2233.987	0.735	1	congruent	Block2	congruent/STIM_027.jpg
2238.717	0.631	1	congruent	Block2	congruent/STIM_028.jpg
2243.133	0.499	1	congruent	Block2	congruent/STIM_028.jpg
2246.876	0.691	1	congruent	Block2	congruent/STIM_028.jpg
2251.677	0.62	1	congruent	Block2	congruent/STIM_028.jpg
2254.528	0.426	1	congruent	Block2	congruent/STIM_028.jpg
2257.125	0.783	1	congruent	Block2	congruent/STIM_029.jpg
2261.034	0.683	1	congruent	Block2	congruent/STIM_029.jpg
2265.434	0.588	1	congruent	Block2	congruent/STIM_029.jpg
2268.964	0.378	1	congruent	Block2	congruent/STIM_029.jpg
2271.835	0.677	1	congruent	Block2	congruent/STIM_029.jpg
2274.714	0.956	1	incongruent	Block3	incongruent/STIM_000.jpg
2278.252	0.84	1	incongruent	Block3	incongruent/STIM_000.jpg
2281.403	0.431	1	incongruent	Block3	incongruent/STIM_000.jpg
2285.267	0.759	1	incongruent	Block3	incongruent/STIM_000.jpg
2289.885	0.69	1	incongruent	Block3	incongruent/STIM_000.jpg
2294.573	0.759	1	incongruent	Block3	incongruent/STIM_001.jpg
2298.466	0.585	1	incongruent	Block3	incongruent/STIM_001.jpg
2301.121	0.731	1	incongruent	Block3	incongruent/STIM_001.jpg
2305.797	0.699	1	incongruent	Block3	incongruent/STIM_001.jpg
2310.001	0.858	1	incongruent	Block3	incongruent/STIM_001.jpg
2314.679	0.959	1	incongruent	Block3	incongruent/STIM_002.jpg
2318.778	0.682	1	incongruent	Block3	incongruent/STIM_002.jpg
2323.559	0.598	1	incongruent	Block3	incongruent/STIM_002.jpg
2327.235	0.532	1	incongruent	Block3	incongruent/STIM_002.jpg
2331.79	0.442	1	incongruent	Block3	incongruent/STIM_002.jpg
2335.527	0.7	1	incongruent	Block3	incongruent/STIM_003.jpg
2339.452	0.537	1	incongruent	Block3	incongruent/STIM_003.jpg
2343.603	0.718	1	incongruent	Block3	incongruent/STIM_003.jpg
2347.912	0.827	1	incongruent	Block3	incongruent/STIM_003.jpg
2351.349	0.888	1	incongruent	Block3	incongruent/STIM_003.jpg
2354.527	0.43	1	incongruent	Block3	incongruent/STIM_004.jpg
2357.921	0.842	1	incongruent	Block3	incongruent/STIM_004.jpg
2362.585	0.819	1	incongruent	Block3	incongruent/STIM_004.jpg
2367.39	0.554	1	incongruent	Block3	incongruent/STIM_004.jpg
2371.057	0.884	1	incongruent	Block3	incongruent/STIM_004.jpg
2375.795	0.807	1	incongruent	Block3	incongruent/STIM_005.jpg
2379.127	0.681	1	incongruent	Block3	incongruent/STIM_005.jpg
2382.723	0.388	1	incongruent	Block3	incongruent/STIM_005.jpg
2386.315	0.67	1	incongruent	Block3	incongruent/STIM_005.jpg
2391.063	0.529	1	incongruent	Block3	incongruent/STIM_005.jpg
2393.939	0.517	1	incongruent	Block3	incongruent/STIM_006.jpg
2398.498	0.416	1	incongruent	Block3	incongruent/STIM_006.jpg
2402.666	0.625	1	incongruent	Block3	incongruent/STIM_006.jpg
2405.751	0.676	1	incongruent	Block3	incongruent/STIM_006.jpg
2410.31	0.754	0	incongruent	Block3	incongruent/STIM_006.jpg
2413.95	0.488	1	incongruent	Block3	incongruent/STIM_007.jpg
2416.843	0.927	1	incongruent	Block3	incongruent/STIM_007.jpg
2420.335	0.854	1	incongruent	Block3	incongruent/STIM_007.jpg
2425.3	0.754	1	incongruent	Block3	incongruent/STIM_007.jpg
2429.692	0.842	1	incongruent	Block3	incongruent/STIM_007.jpg
2433.431	0.541	1	incongruent	Block3	incongruent/STIM_008.jpg
2436.582	0.853	1	incongruent	Block3	incongruent/STIM_008.jpg
2439.787	0.493	1	incongruent	Block3	incongruent/STIM_008.jpg
2443.634	0.406	1	incongruent	Block3	incongruent/STIM_008.jpg
2447.453	0.718	1	incongruent	Block3	incongruent/STIM_008.jpg
2450.805	0.805	1	incongruent	Block3	incongruent/STIM_009.jpg
2455.182	0.694	1	incongruent	Block3	incongruent/STIM_009.jpg
2459.074	0.777	1	incongruent	Block3	incongruent/STIM_009.jpg
2463.214	0.432	1	incongruent	Block3	incongruent/STIM_009.jpg
2467.069	0.508	1	incongruent	Block3	incongruent/STIM_009.jpg
2470.974	0.783	0	incongruent	Block3	incongruent/STIM_010.jpg
2475.894	0.801	1	incongruent	Block3	incongruent/STIM_010.jpg
2479.809	0.782	1	incongruent	Block3	incongruent/STIM_010.jpg
2483.984	0.766	1	incongruent	Block3	incongruent/STIM_010.jpg
2487.673	0.76	1	incongruent	Block3	incongruent/STIM_010.jpg
2492.182	0.815	1	incongruent	Block3	incongruent/STIM_011.jpg
2496.304	0.694	1	incongruent	Block3	incongruent/STIM_011.jpg
2500.062	0.818	1	incongruent	Block3	incongruent/STIM_011.jpg
2503.244	0.617	1	incongruent	Block3	incongruent/STIM_011.jpg
2506.216	0.901	1	incongruent	Block3	incongruent/STIM_011.jpg
2510.743	0.727	1	incongruent	Block3	incongruent/STIM_012.jpg
2513.661	0.88	1	incongruent	Block3	incongruent/STIM_012.jpg
2516.841	0.924	1	incongruent	Block3	incongruent/STIM_012.jpg
2520.797	0.754	1	incongruent	Block3	incongruent/STIM_012.jpg
2525.21	0.434	1	incongruent	Block3	incongruent/STIM_012.jpg
2528.029	0.913	1	incongruent	Block3	incongruent/STIM_013.jpg
2531.221	0.606	1	incongruent	Block3	incongruent/STIM_013.jpg
2534.153	0.739	1	incongruent	Block3	incongruent/STIM_013.jpg
2537.479	0.633	1	incongruent	Block3	incongruent/STIM_013.jpg
2541.069	0.71	1	incongruent	Block3	incongruent/STIM_013.jpg
2543.993	0.829	1	incongruent	Block3	incongruent/STIM_014.jpg
2547.396	0.668	0	incongruent	Block3	incongruent/STIM_014.jpg
2551.531	0.789	1	incongruent	Block3	incongruent/STIM_014.jpg
2556.379	0.469	1	incongruent	Block3	incongruent/STIM_014.jpg
2559.748	0.411	1	incongruent	Block3	incongruent/STIM_014.jpg
2563.025	0.442	1	incongruent	Block3	incongruent/STIM_015.jpg
2565.605	0.408	1	incongruent	Block3	incongruent/STIM_015.jpg
2569.111	0.625	1	incongruent	Block3	incongruent/STIM_015.jpg
2572.654	0.462	1	incongruent	Block3	incongruent/STIM_015.jpg
2576.129	0.693	1	incongruent	Block3	incongruent/STIM_015.jpg
2579.856	0.629	1	incongruent	Block3	incongruent/STIM_016.jpg
2584.028	0.863	1	incongruent	Block3	incongruent/STIM_016.jpg
2588.584	0.862	1	incongruent	Block3	incongruent/STIM_016.jpg
2592.961	0.686	1	incongruent	Block3	incongruent/STIM_016.jpg
2595.983	0.837	1	incongruent	Block3	incongruent/STIM_016.jpg
2599.228	0.601	1	incongruent	Block3	incongruent/STIM_017.jpg
2602.495	0.681	1	incongruent	Block3	incongruent/STIM_017.jpg
2605.545	0.489	1	incongruent	Block3	incongruent/STIM_017.jpg
2608.67	0.743	1	incongruent	Block3	incongruent/STIM_017.jpg
2612.507	0.594	1	incongruent	Block3	incongruent/STIM_017.jpg
2617.218	0.628	1	incongruent	Block3	incongruent/STIM_018.jpg
2620.384	0.612	1	incongruent	Block3	incongruent/STIM_018.jpg
2623.549	0.755	1	incongruent	Block3	incongruent/STIM_018.jpg
2627.24	0.564	1	incongruent	Block3	incongruent/STIM_018.jpg
2630.407	0.563	1	incongruent	Block3	incongruent/STIM_018.jpg
2634.446	0.55	1	incongruent	Block3	incongruent/STIM_019.jpg
2637.778	0.648	1	incongruent	Block3	incongruent/STIM_019.jpg
2640.701	0.707	1	incongruent	Block3	incongruent/STIM_019.jpg
2644.684	0.423	1	incongruent	Block3	incongruent/STIM_019.jpg
2647.422	0.579	1	incongruent	Block3	incongruent/STIM_019.jpg
2651.558	0.821	1	incongruent	Block3	incongruent/STIM_020.jpg
2655.144	0.465	1	incongruent	Block3	incongruent/STIM_020.jpg
2659.094	0.859	1	incongruent	Block3	incongruent/STIM_020.jpg
2663.138	0.653	1	incongruent	Block3	incongruent/STIM_020.jpg
2667.568	0.77	1	incongruent	Block3	incongruent/STIM_020.jpg
2670.542	0.431	1	incongruent	Block3	incongruent/STIM_021.jpg
2673.837	0.44	1	incongruent	Block3	incongruent/STIM_021.jpg
2676.94	0.883	1	incongruent	Block3	incongruent/STIM_021.jpg
2681.638	0.697	1	incongruent	Block3	incongruent/STIM_021.jpg
2685.793	0.745	1	incongruent	Block3	incongruent/STIM_021.jpg
2690.094	0.806	1	incongruent	Block3	incongruent/STIM_022.jpg
2694.34	0.677	1	incongruent	Block3	incongruent/STIM_022.jpg
2697.614	0.584	1	incongruent	Block3	incongruent/STIM_022.jpg
2701.686	0.743	1	incongruent	Block3	incongruent/STIM_022.jpg
2706.112	0.424	1	incongruent	Block3	incongruent/STIM_022.jpg
2709.579	0.841	1	incongruent	Block3	incongruent/STIM_023.jpg
2714.202	0.427	0	incongruent	Block3	incongruent/STIM_023.jpg
2716.868	0.602	1	incongruent	Block3	incongruent/STIM_023.jpg
2719.954	0.438	1	incongruent	Block3	incongruent/STIM_023.jpg
2723.25	0.545	1	incongruent	Block3	incongruent/STIM_023.jpg
2727.644	0.537	1	incongruent	Block3	incongruent/STIM_024.jpg
2731.314	0.726	1	incongruent	Block3	incongruent/STIM_024.jpg
2734.18	0.775	1	incongruent	Block3	incongruent/STIM_024.jpg
2737.406	0.896	1	incongruent	Block3	incongruent/STIM_024.jpg
2741.391	0.607	1	incongruent	Block3	incongruent/STIM_024.jpg
2745.303	0.761	1	incongruent	Block3	incongruent/STIM_025.jpg
2749.418	0.676	1	incongruent	Block3	incongruent/STIM_025.jpg
2752.507	0.837	1	incongruent	Block3	incongruent/STIM_025.jpg
2756.51	0.523	1	incongruent	Block3	incongruent/STIM_025.jpg
2759.686	0.906	1	incongruent	Block3	incongruent/STIM_025.jpg
2763.239	0.732	1	incongruent	Block3	incongruent/STIM_026.jpg
2767.299	0.792	1	incongruent	Block3	incongruent/STIM_026.jpg
2771.686	0.734	1	incongruent	Block3	incongruent/STIM_026.jpg
2774.985	0.668	1	incongruent	Block3	incongruent/STIM_026.jpg
2779.342	0.505	1	incongruent	Block3	incongruent/STIM_026.jpg
2783.519	0.623	1	incongruent	Block3	incongruent/STIM_027.jpg
2787.35	0.57	1	incongruent	Block3	incongruent/STIM_027.jpg
2790.41	0.643	1	incongruent	Block3	incongruent/STIM_027.jpg
2794.821	0.641	1	incongruent	Block3	incongruent/STIM_027.jpg
2798.942	0.528	1	incongruent	Block3	incongruent/STIM_027.jpg
2803.376	0.634	1	incongruent	Block3	incongruent/STIM_028.jpg
2808.05	0.857	1	incongruent	Block3	incongruent/STIM_028.jpg
2812.897	0.774	1	incongruent	Block3	incongruent/STIM_028.jpg
2817.52	0.658	1	incongruent	Block3	incongruent/STIM_028.jpg
2821.684	0.508	1	incongruent	Block3	incongruent/STIM_028.jpg
2824.994	0.839	1	incongruent	Block3	incongruent/STIM_029.jpg
2829.585	0.708	1	incongruent	Block3	incongruent/STIM_029.jpg
2832.677	0.804	1	incongruent	Block3	incongruent/STIM_029.jpg
2835.943	0.49	1	incongruent	Block3	incongruent/STIM_029.jpg
2839.756	0.878	1	incongruent	Block3	incongruent/STIM_029.jpg
2843.593	0.685	0	congruent	Block3	congruent/STIM_000.jpg
2847.998	0.574	1	congruent	Block3	congruent/STIM_000.jpg
2851.239	0.53	1	congruent	Block3	congruent/STIM_000.jpg
2854.696	0.483	1	congruent	Block3	congruent/STIM_000.jpg
2857.658	0.655	1	congruent	Block3	congruent/STIM_000.jpg
2861.337	0.566	1	congruent	Block3	congruent/STIM_001.jpg
2865.488	0.477	1	congruent	Block3	congruent/STIM_001.jpg
2868.617	0.674	1	congruent	Block3	congruent/STIM_001.jpg
2872.921	0.676	1	congruent	Block3	congruent/STIM_001.jpg
2876.753	0.681	0	congruent	Block3	congruent/STIM_001.jpg
2880.035	0.63	1	congruent	Block3	congruent/STIM_002.jpg
2883.276	0.446	1	congruent	Block3	congruent/STIM_002.jpg
2886.794	0.633	1	congruent	Block3	congruent/STIM_002.jpg
2890.315	0.728	1	congruent	Block3	congruent/STIM_002.jpg
2894.221	0.86	1	congruent	Block3	congruent/STIM_002.jpg
2898.58	0.602	1	congruent	Block3	congruent/STIM_003.jpg
2901.824	0.753	1	congruent	Block3	congruent/STIM_003.jpg
2906.302	0.446	1	congruent	Block3	congruent/STIM_003.jpg
2910.888	0.515	1	congruent	Block3	congruent/STIM_003.jpg
2914.24	0.478	1	congruent	Block3	congruent/STIM_003.jpg
2918.423	0.631	1	congruent	Block3	congruent/STIM_004.jpg
2921.548	0.619	1	congruent	Block3	congruent/STIM_004.jpg
2924.371	0.788	1	congruent	Block3	congruent/STIM_004.jpg
2929.004	0.844	1	congruent	Block3	congruent/STIM_004.jpg
2932.277	0.374	1	congruent	Block3	congruent/STIM_004.jpg
2935.124	0.601	1	congruent	Block3	congruent/STIM_005.jpg
2939.304	0.764	1	congruent	Block3	congruent/STIM_005.jpg
2943.188	0.453	1	congruent	Block3	congruent/STIM_005.jpg
2946.658	0.613	1	congruent	Block3	congruent/STIM_005.jpg
2949.49	0.647	1	congruent	Block3	congruent/STIM_005.jpg
2954.032	0.62	1	congruent	Block3	congruent/STIM_006.jpg
2957.892	0.623	1	congruent	Block3	congruent/STIM_006.jpg
2962.009	0.692	1	congruent	Block3	congruent/STIM_006.jpg
2965.67	0.62	1	congruent	Block3	congruent/STIM_006.jpg
2968.822	0.526	1	congruent	Block3	congruent/STIM_006.jpg
2972.348	0.566	1	congruent	Block3	congruent/STIM_007.jpg
2976.186	0.623	1	congruent	Block3	congruent/STIM_007.jpg
2979.696	0.625	1	congruent	Block3	congruent/STIM_007.jpg
2983.944	0.718	1	congruent	Block3	congruent/STIM_007.jpg
2987.201	0.474	0	congruent	Block3	congruent/STIM_007.jpg
2989.802	0.604	1	congruent	Block3	congruent/STIM_008.jpg
2993.183	0.808	1	congruent	Block3	congruent/STIM_008.jpg
2996.446	0.569	1	congruent	Block3	congruent/STIM_008.jpg
3000.536	0.722	1	congruent	Block3	congruent/STIM_008.jpg
3004.992	0.503	1	congruent	Block3	congruent/STIM_008.jpg
3008.68	0.622	1	congruent	Block3	congruent/STIM_009.jpg
3012.821	0.592	1	congruent	Block3	congruent/STIM_009.jpg
3016.683	0.712	0	congruent	Block3	congruent/STIM_009.jpg
3021.158	0.496	1	congruent	Block3	congruent/STIM_009.jpg
3025.122	0.602	1	congruent	Block3	congruent/STIM_009.jpg
3028.994	0.44	1	congruent	Block3	congruent/STIM_010.jpg
3033.346	0.694	1	congruent	Block3	congruent/STIM_010.jpg
3038.157	0.643	1	congruent	Block3	congruent/STIM_010.jpg
3042.731	0.652	1	congruent	Block3	congruent/STIM_010.jpg
3046.541	0.522	1	congruent	Block3	congruent/STIM_010.jpg
3049.962	0.842	1	congruent	Block3	congruent/STIM_011.jpg
3053.112	0.664	1	congruent	Block3	congruent/STIM_011.jpg
3056.284	0.698	1	congruent	Block3	congruent/STIM_011.jpg
3059.464	0.537	1	congruent	Block3	congruent/STIM_011.jpg
3063.815	0.655	1	congruent	Block3	congruent/STIM_011.jpg
3067.891	0.725	1	congruent	Block3	congruent/STIM_012.jpg
3071.713	0.489	1	congruent	Block3	congruent/STIM_012.jpg
3075.338	0.549	1	congruent	Block3	congruent/STIM_012.jpg
3079.119	0.702	1	congruent	Block3	congruent/STIM_012.jpg
3083.344	0.665	1	congruent	Block3	congruent/STIM_012.jpg
3087.222	0.367	1	congruent	Block3	congruent/STIM_013.jpg
3090.575	0.436	1	congruent	Block3	congruent/STIM_013.jpg
3093.45	0.781	1	congruent	Block3	congruent/STIM_013.jpg
3097.661	0.783	1	congruent	Block3	congruent/STIM_013.jpg
3102.214	0.722	1	congruent	Block3	congruent/STIM_013.jpg
3106.024	0.694	1	congruent	Block3	congruent/STIM_014.jpg
3110.509	0.552	1	congruent	Block3	congruent/STIM_014.jpg
3113.733	0.808	1	congruent	Block3	congruent/STIM_014.jpg
3116.587	0.564	1	congruent	Block3	congruent/STIM_014.jpg
3120.418	0.531	1	congruent	Block3	congruent/STIM_014.jpg
3123.394	0.55	1	congruent	Block3	congruent/STIM_015.jpg
3126.803	0.637	1	congruent	Block3	congruent/STIM_015.jpg
3130.327	0.527	1	congruent	Block3	congruent/STIM_015.jpg
3133.484	0.547	1	congruent	Block3	congruent/STIM_015.jpg
3136.641	0.429	1	congruent	Block3	congruent/STIM_015.jpg
3140.527	0.546	1	congruent	Block3	congruent/STIM_016.jpg
3143.373	0.643	1	congruent	Block3	congruent/STIM_016.jpg
3146.495	0.574	1	congruent	Block3	congruent/STIM_016.jpg
3149.591	0.368	1	congruent	Block3	congruent/STIM_016.jpg
3152.704	0.619	1	congruent	Block3	congruent/STIM_016.jpg
3157.135	0.42	1	congruent	Block3	congruent/STIM_017.jpg
3160.317	0.714	1	congruent	Block3	congruent/STIM_017.jpg
3164.19	0.592	1	congruent	Block3	congruent/STIM_017.jpg
3167.409	0.58	1	congruent	Block3	congruent/STIM_017.jpg
3171.607	0.752	1	congruent	Block3	congruent/STIM_017.jpg
3175.687	0.778	1	congruent	Block3	congruent/STIM_018.jpg
3179.296	0.632	1	congruent	Block3	congruent/STIM_018.jpg
3182.74	0.527	1	congruent	Block3	congruent/STIM_018.jpg
3185.747	0.823	1	congruent	Block3	congruent/STIM_018.jpg
3190.012	0.537	1	congruent	Block3	congruent/STIM_018.jpg
3193.341	0.597	0	congruent	Block3	congruent/STIM_019.jpg
3197.42	0.696	1	congruent	Block3	congruent/STIM_019.jpg
3200.925	0.727	1	congruent	Block3	congruent/STIM_019.jpg
3203.8	0.518	1	congruent	Block3	congruent/STIM_019.jpg
3207.725	0.687	1	congruent	Block3	congruent/STIM_019.jpg
3211.779	0.621	1	congruent	Block3	congruent/STIM_020.jpg
3216.443	0.612	1	congruent	Block3	congruent/STIM_020.jpg
3219.894	0.636	1	congruent	Block3	congruent/STIM_020.jpg
3222.713	0.514	1	congruent	Block3	congruent/STIM_020.jpg
3225.503	0.716	1	congruent	Block3	congruent/STIM_020.jpg
3228.985	0.627	1	congruent	Block3	congruent/STIM_021.jpg
3232.048	0.667	0	congruent	Block3	congruent/STIM_021.jpg
3234.91	0.527	0	congruent	Block3	congruent/STIM_021.jpg
3239.067	0.562	1	congruent	Block3	congruent/STIM_021.jpg
3242.281	0.617	1	congruent	Block3	congruent/STIM_021.jpg
3246.821	0.561	1	congruent	Block3	congruent/STIM_022.jpg
3249.939	0.506	1	congruent	Block3	congruent/STIM_022.jpg
3252.84	0.527	1	congruent	Block3	congruent/STIM_022.jpg
3255.6	0.43	1	congruent	Block3	congruent/STIM_022.jpg
3258.593	0.425	1	congruent	Block3	congruent/STIM_022.jpg
3262.488	0.672	1	congruent	Block3	congruent/STIM_023.jpg
3266.346	0.597	1	congruent	Block3	congruent/STIM_023.jpg
3270.308	0.609	1	congruent	Block3	congruent/STIM_023.jpg
3274.602	0.775	1	congruent	Block3	congruent/STIM_023.jpg
3277.956	0.686	1	congruent	Block3	congruent/STIM_023.jpg
3281.332	0.606	1	congruent	Block3	congruent/STIM_024.jpg
3285.658	0.718	1	congruent	Block3	congruent/STIM_024.jpg
3289.318	0.488	1	congruent	Block3	congruent/STIM_024.jpg
3293.401	0.662	1	congruent	Block3	congruent/STIM_024.jpg
3298.131	0.614	1	congruent	Block3	congruent/STIM_024.jpg
3301.098	0.793	1	congruent	Block3	congruent/STIM_025.jpg
3305.353	0.794	0	congruent	Block3	congruent/STIM_025.jpg
3309.241	0.545	1	congruent	Block3	congruent/STIM_025.jpg
3313.437	0.542	1	congruent	Block3	congruent/STIM_025.jpg
3317.874	0.528	1	congruent	Block3	congruent/STIM_025.jpg
3322.377	0.53	1	congruent	Block3	congruent/STIM_026.jpg
3325.149	0.717	1	congruent	Block3	congruent/STIM_026.jpg
3329.557	0.737	1	congruent	Block3	congruent/STIM_026.jpg
3332.576	0.753	1	congruent	Block3	congruent/STIM_026.jpg
3335.933	0.639	1	congruent	Block3	congruent/STIM_026.jpg
3339.516	0.519	1	congruent	Block3	congruent/STIM_027.jpg
3343.588	0.515	1	congruent	Block3	congruent/STIM_027.jpg
3348.059	0.441	1	congruent	Block3	congruent/STIM_027.jpg
3351.808	0.449	1	congruent	Block3	congruent/STIM_027.jpg
3354.507	0.618	1	congruent	Block3	congruent/STIM_027.jpg
3358.099	0.561	1	congruent	Block3	congruent/STIM_028.jpg
3361.305	0.422	1	congruent	Block3	congruent/STIM_028.jpg
3364.472	0.717	1	congruent	Block3	congruent/STIM_028.jpg
3369.079	0.671	1	congruent	Block3	congruent/STIM_028.jpg
3373.117	0.684	1	congruent	Block3	congruent/STIM_028.jpg
3377.953	0.585	1	congruent	Block3	congruent/STIM_029.jpg
3380.955	0.492	1	congruent	Block3	congruent/STIM_029.jpg
3384.237	0.591	1	congruent	Block3	congruent/STIM_029.jpg
3387.88	0.533	1	congruent	Block3	congruent/STIM_029.jpg
3392.196	0.528	1	congruent	Block3	congruent/STIM_029.jpg
