onset	duration	response_time_ms	trial_type	learning_stage	stimulus	response_port
0.0	0.865	865.2	incongruent	Block1	incongruent/STIM_000.jpg	100
3.561	0.782	781.8	incongruent	Block1	incongruent/STIM_000.jpg	100
7.144	0.977	976.6	incongruent	Block1	incongruent/STIM_000.jpg	99
10.803	0.929	929.1	incongruent	Block1	incongruent/STIM_000.jpg	100
14.933	0.747	746.9	incongruent	Block1	incongruent/STIM_000.jpg	99
19.577	1.016	1016.2	incongruent	Block1	incongruent/STIM_001.jpg	99
22.998	1.242	1242.4	incongruent	Block1	incongruent/STIM_001.jpg	100
26.48	1.176	1175.9	incongruent	Block1	incongruent/STIM_001.jpg	99
30.286	0.921	920.6	incongruent	Block1	incongruent/STIM_001.jpg	99
34.394	0.635	634.9	incongruent	Block1	incongruent/STIM_001.jpg	99
37.883	0.75	750.5	incongruent	Block1	incongruent/STIM_002.jpg	99
42.089	1.051	1051.3	incongruent	Block1	incongruent/STIM_002.jpg	100
45.999	0.824	824.0	incongruent	Block1	incongruent/STIM_002.jpg	99
49.113	0.574	574.4	incongruent	Block1	incongruent/STIM_002.jpg	99
52.978	0.756	756.5	incongruent	Block1	incongruent/STIM_002.jpg	100
57.378	1.111	1111.1	incongruent	Block1	incongruent/STIM_003.jpg	100
61.892	0.918	917.6	incongruent	Block1	incongruent/STIM_003.jpg	100
65.473	0.855	855.2	incongruent	Block1	incongruent/STIM_003.jpg	100
68.707	0.845	844.8	incongruent	Block1	incongruent/STIM_003.jpg	99
71.703	0.792	791.5	incongruent	Block1	incongruent/STIM_003.jpg	99
75.878	0.834	833.5	incongruent	Block1	incongruent/STIM_004.jpg	99
79.352	0.712	712.0	incongruent	Block1	incongruent/STIM_004.jpg	99
83.99	0.733	733.1	incongruent	Block1	incongruent/STIM_004.jpg	99
88.76	0.908	908.3	incongruent	Block1	incongruent/STIM_004.jpg	99
92.82	0.765	764.6	incongruent	Block1	incongruent/STIM_004.jpg	99
96.916	0.866	865.7	incongruent	Block1	incongruent/STIM_005.jpg	99
101.118	0.975	975.3	incongruent	Block1	incongruent/STIM_005.jpg	99
106.007	0.858	858.3	incongruent	Block1	incongruent/STIM_005.jpg	99
109.452	0.631	630.9	incongruent	Block1	incongruent/STIM_005.jpg	100
112.804	0.717	716.6	incongruent	Block1	incongruent/STIM_005.jpg	99
116.623	0.708	707.8	incongruent	Block1	incongruent/STIM_006.jpg	100
121.23	1.14	1140.5	incongruent	Block1	incongruent/STIM_006.jpg	99
126.325	0.658	657.8	incongruent	Block1	incongruent/STIM_006.jpg	99
129.384	0.779	778.8	incongruent	Block1	incongruent/STIM_006.jpg	100
132.685	0.897	897.0	incongruent	Block1	incongruent/STIM_006.jpg	100
137.261	0.685	685.1	incongruent	Block1	incongruent/STIM_007.jpg	99
140.1	1.0	999.7	incongruent	Block1	incongruent/STIM_007.jpg	99
144.088	0.578	577.6	incongruent	Block1	incongruent/STIM_007.jpg	99
147.382	0.617	617.2	incongruent	Block1	incongruent/STIM_007.jpg	99
150.156	0.905	904.6	incongruent	Block1	incongruent/STIM_007.jpg	100
154.89	0.84	839.8	incongruent	Block1	incongruent/STIM_008.jpg	100
159.509	1.085	1084.8	incongruent	Block1	incongruent/STIM_008.jpg	99
164.284	1.009	1008.8	incongruent	Block1	incongruent/STIM_008.jpg	99
167.95	0.799	798.9	incongruent	Block1	incongruent/STIM_008.jpg	99
171.141	0.64	640.4	incongruent	Block1	incongruent/STIM_008.jpg	99
175.356	1.085	1085.4	incongruent	Block1	incongruent/STIM_009.jpg	100
179.206	1.149	1149.4	incongruent	Block1	incongruent/STIM_009.jpg	99
183.447	1.098	1098.2	incongruent	Block1	incongruent/STIM_009.jpg	99
188.034	0.667	667.2	incongruent	Block1	incongruent/STIM_009.jpg	100
192.647	0.59	590.0	incongruent	Block1	incongruent/STIM_009.jpg	100
196.505	1.133	1133.4	incongruent	Block1	incongruent/STIM_010.jpg	99
200.963	0.649	649.4	incongruent	Block1	incongruent/STIM_010.jpg	100
205.002	0.734	733.7	incongruent	Block1	incongruent/STIM_010.jpg	100
209.226	0.698	698.2	incongruent	Block1	incongruent/STIM_010.jpg	99
213.084	0.883	882.6	incongruent	Block1	incongruent/STIM_010.jpg	100
217.858	0.796	796.2	incongruent	Block1	incongruent/STIM_011.jpg	99
221.907	1.057	1057.4	incongruent	Block1	incongruent/STIM_011.jpg	100
226.751	0.844	843.6	incongruent	Block1	incongruent/STIM_011.jpg	100
230.619	0.588	588.3	incongruent	Block1	incongruent/STIM_011.jpg	100
234.286	0.641	640.6	incongruent	Block1	incongruent/STIM_011.jpg	100
237.67	0.787	787.4	incongruent	Block1	incongruent/STIM_012.jpg	99
242.488	1.161	1160.9	incongruent	Block1	incongruent/STIM_012.jpg	99
247.68	1.109	1109.1	incongruent	Block1	incongruent/STIM_012.jpg	100
251.152	0.694	693.9	incongruent	Block1	incongruent/STIM_012.jpg	100
254.112	0.868	868.4	incongruent	Block1	incongruent/STIM_012.jpg	99
258.793	0.849	848.6	incongruent	Block1	incongruent/STIM_013.jpg	99
263.504	0.691	691.0	incongruent	Block1	incongruent/STIM_013.jpg	100
267.129	0.547	547.4	incongruent	Block1	incongruent/STIM_013.jpg	100
270.648	0.85	850.1	incongruent	Block1	incongruent/STIM_013.jpg	99
275.015	0.563	563.0	incongruent	Block1	incongruent/STIM_013.jpg	99
278.081	1.12	1120.2	incongruent	Block1	incongruent/STIM_014.jpg	99
283.04	0.789	788.6	incongruent	Block1	incongruent/STIM_014.jpg	100
287.872	0.974	974.4	incongruent	Block1	incongruent/STIM_014.jpg	100
292.022	1.01	1010.0	incongruent	Block1	incongruent/STIM_014.jpg	100
295.98	1.061	1060.6	incongruent	Block1	incongruent/STIM_014.jpg	99
299.538	1.069	1068.7	incongruent	Block1	incongruent/STIM_015.jpg	100
303.628	1.13	1129.7	incongruent	Block1	incongruent/STIM_015.jpg	99
307.552	0.84	840.5	incongruent	Block1	incongruent/STIM_015.jpg	100
311.197	0.594	594.1	incongruent	Block1	incongruent/STIM_015.jpg	99
314.102	0.906	905.7	incongruent	Block1	incongruent/STIM_015.jpg	99
318.376	0.653	653.1	incongruent	Block1	incongruent/STIM_016.jpg	100
322.425	1.008	1008.5	incongruent	Block1	incongruent/STIM_016.jpg	99
326.951	0.693	693.4	incongruent	Block1	incongruent/STIM_016.jpg	100
330.805	0.743	743.1	incongruent	Block1	incongruent/STIM_016.jpg	99
335.685	0.802	802.5	incongruent	Block1	incongruent/STIM_016.jpg	100
340.246	1.108	1108.3	incongruent	Block1	incongruent/STIM_017.jpg	100
344.201	0.978	978.3	incongruent	Block1	incongruent/STIM_017.jpg	99
348.569	0.718	718.0	incongruent	Block1	incongruent/STIM_017.jpg	99
351.953	0.935	935.3	incongruent	Block1	incongruent/STIM_017.jpg	100
355.878	0.654	653.9	incongruent	Block1	incongruent/STIM_017.jpg	100
358.712	0.807	807.1	incongruent	Block1	incongruent/STIM_018.jpg	100
362.516	1.093	1093.1	incongruent	Block1	incongruent/STIM_018.jpg	99
365.786	0.931	931.4	incongruent	Block1	incongruent/STIM_018.jpg	99
369.631	0.471	471.4	incongruent	Block1	incongruent/STIM_018.jpg	100
373.388	0.536	536.1	incongruent	Block1	incongruent/STIM_018.jpg	99
376.165	0.97	970.2	incongruent	Block1	incongruent/STIM_019.jpg	99
380.443	0.704	704.4	incongruent	Block1	incongruent/STIM_019.jpg	100
383.349	0.66	660.0	incongruent	Block1	incongruent/STIM_019.jpg	99
386.223	0.617	617.1	incongruent	Block1	incongruent/STIM_019.jpg	99
389.777	0.652	651.8	incongruent	Block1	incongruent/STIM_019.jpg	100
394.219	0.802	802.3	incongruent	Block1	incongruent/STIM_020.jpg	99
398.518	1.106	1105.9	incongruent	Block1	incongruent/STIM_020.jpg	99
403.687	0.855	854.6	incongruent	Block1	incongruent/STIM_020.jpg	99
407.613	0.512	511.8	incongruent	Block1	incongruent/STIM_020.jpg	100
411.629	0.548	547.5	incongruent	Block1	incongruent/STIM_020.jpg	99
415.514	0.779	779.1	incongruent	Block1	incongruent/STIM_021.jpg	99
419.098	0.93	930.0	incongruent	Block1	incongruent/STIM_021.jpg	99
423.221	0.988	988.0	incongruent	Block1	incongruent/STIM_021.jpg	100
426.435	0.593	593.0	incongruent	Block1	incongruent/STIM_021.jpg	99
429.859	0.699	698.6	incongruent	Block1	incongruent/STIM_021.jpg	99
433.671	1.062	1061.9	incongruent	Block1	incongruent/STIM_022.jpg	100
438.237	0.964	963.7	incongruent	Block1	incongruent/STIM_022.jpg	100
442.298	1.156	1155.6	incongruent	Block1	incongruent/STIM_022.jpg	99
446.049	0.943	942.6	incongruent	Block1	incongruent/STIM_022.jpg	99
450.742	0.553	553.1	incongruent	Block1	incongruent/STIM_022.jpg	99
454.549	1.274	1274.0	incongruent	Block1	incongruent/STIM_023.jpg	100
459.173	0.689	688.8	incongruent	Block1	incongruent/STIM_023.jpg	99
462.476	0.799	799.0	incongruent	Block1	incongruent/STIM_023.jpg	100
467.238	0.873	872.9	incongruent	Block1	incongruent/STIM_023.jpg	99
470.377	0.599	599.3	incongruent	Block1	incongruent/STIM_023.jpg	100
473.705	0.839	838.9	incongruent	Block1	incongruent/STIM_024.jpg	100
476.802	0.755	754.6	incongruent	Block1	incongruent/STIM_024.jpg	99
479.95	1.245	1244.9	incongruent	Block1	incongruent/STIM_024.jpg	100
484.48	0.714	714.0	incongruent	Block1	incongruent/STIM_024.jpg	100
487.351	0.866	866.4	incongruent	Block1	incongruent/STIM_024.jpg	100
492.246	1.206	1205.8	incongruent	Block1	incongruent/STIM_025.jpg	99
495.884	1.258	1257.7	incongruent	Block1	incongruent/STIM_025.jpg	99
500.608	0.693	693.3	incongruent	Block1	incongruent/STIM_025.jpg	100
504.723	0.65	650.2	incongruent	Block1	incongruent/STIM_025.jpg	100
508.713	0.934	934.1	incongruent	Block1	incongruent/STIM_025.jpg	99
512.302	1.159	1159.3	incongruent	Block1	incongruent/STIM_026.jpg	99
515.927	0.988	988.4	incongruent	Block1	incongruent/STIM_026.jpg	100
521.071	0.894	894.0	incongruent	Block1	incongruent/STIM_026.jpg	100
525.042	0.771	770.8	incongruent	Block1	incongruent/STIM_026.jpg	100
528.845	0.961	960.8	incongruent	Block1	incongruent/STIM_026.jpg	100
532.603	0.809	809.4	incongruent	Block1	incongruent/STIM_027.jpg	99
536.905	1.094	1094.5	incongruent	Block1	incongruent/STIM_027.jpg	99
542.063	0.798	798.5	incongruent	Block1	incongruent/STIM_027.jpg	100
545.1	1.016	1016.5	incongruent	Block1	incongruent/STIM_027.jpg	99
548.691	0.78	780.3	incongruent	Block1	incongruent/STIM_027.jpg	99
553.477	0.716	716.5	incongruent	Block1	incongruent/STIM_028.jpg	100
558.191	0.716	716.3	incongruent	Block1	incongruent/STIM_028.jpg	99
561.174	1.087	1087.1	incongruent	Block1	incongruent/STIM_028.jpg	100
565.939	0.833	832.6	incongruent	Block1	incongruent/STIM_028.jpg	100
569.136	0.845	845.0	incongruent	Block1	incongruent/STIM_028.jpg	99
573.47	1.052	1051.5	incongruent	Block1	incongruent/STIM_029.jpg	100
577.102	0.995	995.4	incongruent	Block1	incongruent/STIM_029.jpg	100
580.464	0.708	708.4	incongruent	Block1	incongruent/STIM_029.jpg	100
584.293	1.008	1008.2	incongruent	Block1	incongruent/STIM_029.jpg	100
589.315	0.964	963.7	incongruent	Block1	incongruent/STIM_029.jpg	99
594.303	0.552	552.2	congruent	Block1	congruent/STIM_000.jpg	100
597.113	0.645	645.2	congruent	Block1	congruent/STIM_000.jpg	99
601.628	0.704	703.5	congruent	Block1	congruent/STIM_000.jpg	99
605.159	0.468	467.9	congruent	Block1	congruent/STIM_000.jpg	100
607.981	0.664	664.3	congruent	Block1	congruent/STIM_000.jpg	99
611.801	0.584	584.0	congruent	Block1	congruent/STIM_001.jpg	100
616.425	0.477	477.4	congruent	Block1	congruent/STIM_001.jpg	99
619.748	0.702	701.7	congruent	Block1	congruent/STIM_001.jpg	100
622.611	0.69	690.5	congruent	Block1	congruent/STIM_001.jpg	100
626.466	0.55	550.2	congruent	Block1	congruent/STIM_001.jpg	100
631.108	0.544	544.5	congruent	Block1	congruent/STIM_002.jpg	99
635.633	0.768	767.6	congruent	Block1	congruent/STIM_002.jpg	100
639.674	0.461	460.8	congruent	Block1	congruent/STIM_002.jpg	99
642.338	0.587	586.8	congruent	Block1	congruent/STIM_002.jpg	100
646.004	0.726	726.5	congruent	Block1	congruent/STIM_002.jpg	99
648.955	0.552	551.9	congruent	Block1	congruent/STIM_003.jpg	99
653.533	0.658	657.5	congruent	Block1	congruent/STIM_003.jpg	100
656.897	0.502	502.0	congruent	Block1	congruent/STIM_003.jpg	100
660.399	0.536	535.5	congruent	Block1	congruent/STIM_003.jpg	99
663.06	0.572	571.9	congruent	Block1	congruent/STIM_003.jpg	99
667.237	0.66	659.9	congruent	Block1	congruent/STIM_004.jpg	100
670.542	0.413	413.1	congruent	Block1	congruent/STIM_004.jpg	99
673.6	0.439	438.9	congruent	Block1	congruent/STIM_004.jpg	99
677.816	0.509	508.6	congruent	Block1	congruent/STIM_004.jpg	100
681.196	0.472	472.1	congruent	Block1	congruent/STIM_004.jpg	99
684.584	0.641	640.7	congruent	Block1	congruent/STIM_005.jpg	99
688.376	0.78	779.9	congruent	Block1	congruent/STIM_005.jpg	100
692.651	0.625	624.9	congruent	Block1	congruent/STIM_005.jpg	100
696.24	0.457	457.3	congruent	Block1	congruent/STIM_005.jpg	99
698.904	0.479	479.3	congruent	Block1	congruent/STIM_005.jpg	99
703.279	0.426	425.9	congruent	Block1	congruent/STIM_006.jpg	100
707.797	0.638	638.4	congruent	Block1	congruent/STIM_006.jpg	99
711.183	0.74	740.2	congruent	Block1	congruent/STIM_006.jpg	99
714.082	0.698	697.8	congruent	Block1	congruent/STIM_006.jpg	100
718.555	0.456	456.2	congruent	Block1	congruent/STIM_006.jpg	100
722.243	0.686	685.5	congruent	Block1	congruent/STIM_007.jpg	99
725.794	0.638	637.6	congruent	Block1	congruent/STIM_007.jpg	100
730.427	0.548	547.5	congruent	Block1	congruent/STIM_007.jpg	100
734.149	0.817	816.8	congruent	Block1	congruent/STIM_007.jpg	99
738.352	0.727	726.6	congruent	Block1	congruent/STIM_007.jpg	100
741.534	0.702	701.5	congruent	Block1	congruent/STIM_008.jpg	100
746.245	0.526	526.5	congruent	Block1	congruent/STIM_008.jpg	99
750.854	0.63	629.5	congruent	Block1	congruent/STIM_008.jpg	100
754.958	0.833	832.7	congruent	Block1	congruent/STIM_008.jpg	100
757.979	0.731	730.6	congruent	Block1	congruent/STIM_008.jpg	100
760.992	0.556	555.8	congruent	Block1	congruent/STIM_009.jpg	99
765.534	0.559	559.4	congruent	Block1	congruent/STIM_009.jpg	100
769.491	0.802	802.0	congruent	Block1	congruent/STIM_009.jpg	99
773.058	0.668	667.9	congruent	Block1	congruent/STIM_009.jpg	99
777.636	0.826	826.5	congruent	Block1	congruent/STIM_009.jpg	99
781.309	0.87	870.5	congruent	Block1	congruent/STIM_010.jpg	100
784.337	0.815	815.1	congruent	Block1	congruent/STIM_010.jpg	99
788.021	0.46	460.5	congruent	Block1	congruent/STIM_010.jpg	100
791.915	0.742	741.6	congruent	Block1	congruent/STIM_010.jpg	100
796.301	0.569	569.2	congruent	Block1	congruent/STIM_010.jpg	100
800.158	0.485	485.4	congruent	Block1	congruent/STIM_011.jpg	100
804.538	0.627	627.2	congruent	Block1	congruent/STIM_011.jpg	100
808.751	0.628	627.6	congruent	Block1	congruent/STIM_011.jpg	100
811.798	0.529	529.3	congruent	Block1	congruent/STIM_011.jpg	99
814.631	0.39	389.8	congruent	Block1	congruent/STIM_011.jpg	99
818.673	0.451	450.6	congruent	Block1	congruent/STIM_012.jpg	100
821.729	0.684	683.9	congruent	Block1	congruent/STIM_012.jpg	100
824.721	0.835	835.2	congruent	Block1	congruent/STIM_012.jpg	100
827.688	0.553	553.3	congruent	Block1	congruent/STIM_012.jpg	99
830.783	0.588	587.5	congruent	Block1	congruent/STIM_012.jpg	99
835.113	0.513	513.1	congruent	Block1	congruent/STIM_013.jpg	100
839.263	0.69	689.9	congruent	Block1	congruent/STIM_013.jpg	99
843.134	0.485	485.3	congruent	Block1	congruent/STIM_013.jpg	99
846.484	0.712	712.4	congruent	Block1	congruent/STIM_013.jpg	99
849.914	0.694	694.0	congruent	Block1	congruent/STIM_013.jpg	100
853.316	0.62	619.6	congruent	Block1	congruent/STIM_014.jpg	100
856.03	0.593	593.4	congruent	Block1	congruent/STIM_014.jpg	99
860.655	0.482	481.9	congruent	Block1	congruent/STIM_014.jpg	99
864.509	0.616	615.8	congruent	Block1	congruent/STIM_014.jpg	99
868.615	0.586	586.2	congruent	Block1	congruent/STIM_014.jpg	99
871.872	0.801	800.9	congruent	Block1	congruent/STIM_015.jpg	100
876.133	0.629	628.6	congruent	Block1	congruent/STIM_015.jpg	99
880.768	0.537	537.4	congruent	Block1	congruent/STIM_015.jpg	100
883.512	0.677	677.3	congruent	Block1	congruent/STIM_015.jpg	99
886.735	0.486	485.8	congruent	Block1	congruent/STIM_015.jpg	99
889.876	0.525	525.2	congruent	Block1	congruent/STIM_016.jpg	100
893.393	0.776	776.2	congruent	Block1	congruent/STIM_016.jpg	99
896.321	0.497	497.0	congruent	Block1	congruent/STIM_016.jpg	100
899.694	0.32	319.5	congruent	Block1	congruent/STIM_016.jpg	100
902.414	0.512	512.5	congruent	Block1	congruent/STIM_016.jpg	99
906.018	0.714	713.5	congruent	Block1	congruent/STIM_017.jpg	100
909.556	0.68	679.8	congruent	Block1	congruent/STIM_017.jpg	100
912.544	0.445	444.8	congruent	Block1	congruent/STIM_017.jpg	100
916.347	0.645	644.9	congruent	Block1	congruent/STIM_017.jpg	100
920.287	0.373	372.9	congruent	Block1	congruent/STIM_017.jpg	99
923.793	0.503	502.7	congruent	Block1	congruent/STIM_018.jpg	100
927.255	0.467	466.6	congruent	Block1	congruent/STIM_018.jpg	99
931.216	0.668	667.8	congruent	Block1	congruent/STIM_018.jpg	100
935.772	0.637	637.0	congruent	Block1	congruent/STIM_018.jpg	100
938.915	0.679	679.1	congruent	Block1	congruent/STIM_018.jpg	100
942.555	0.434	433.7	congruent	Block1	congruent/STIM_019.jpg	100
946.316	0.446	446.4	congruent	Block1	congruent/STIM_019.jpg	99
949.599	0.411	411.2	congruent	Block1	congruent/STIM_019.jpg	100
953.619	0.71	710.5	congruent	Block1	congruent/STIM_019.jpg	99
956.57	0.634	633.8	congruent	Block1	congruent/STIM_019.jpg	99
960.5	0.505	504.8	congruent	Block1	congruent/STIM_020.jpg	100
963.243	0.682	682.1	congruent	Block1	congruent/STIM_020.jpg	99
966.479	0.71	710.1	congruent	Block1	congruent/STIM_020.jpg	100
970.921	0.454	454.0	congruent	Block1	congruent/STIM_020.jpg	99
975.316	0.522	521.6	congruent	Block1	congruent/STIM_020.jpg	99
979.86	0.672	672.2	congruent	Block1	congruent/STIM_021.jpg	99
983.644	0.458	457.8	congruent	Block1	congruent/STIM_021.jpg	99
986.361	0.736	735.5	congruent	Block1	congruent/STIM_021.jpg	99
990.502	0.455	455.0	congruent	Block1	congruent/STIM_021.jpg	99
993.076	0.622	622.0	congruent	Block1	congruent/STIM_021.jpg	100
996.915	0.8	800.2	congruent	Block1	congruent/STIM_022.jpg	100
1001.467	0.506	506.1	congruent	Block1	congruent/STIM_022.jpg	100
1004.733	0.734	734.4	congruent	Block1	congruent/STIM_022.jpg	99
1008.116	0.782	782.5	congruent	Block1	congruent/STIM_022.jpg	100
1012.456	0.589	588.7	congruent	Block1	congruent/STIM_022.jpg	99
1015.458	0.703	703.4	congruent	Block1	congruent/STIM_023.jpg	100
1019.423	0.673	673.0	congruent	Block1	congruent/STIM_023.jpg	100
1023.718	0.528	528.5	congruent	Block1	congruent/STIM_023.jpg	100
1027.103	0.491	491.0	congruent	Block1	congruent/STIM_023.jpg	100
1030.361	0.571	570.6	congruent	Block1	congruent/STIM_023.jpg	99
1034.4	0.452	451.7	congruent	Block1	congruent/STIM_024.jpg	100
1036.981	0.5	499.5	congruent	Block1	congruent/STIM_024.jpg	100
1039.813	0.752	751.9	congruent	Block1	congruent/STIM_024.jpg	99
1043.724	0.429	428.8	congruent	Block1	congruent/STIM_024.jpg	100
1047.008	0.67	669.6	congruent	Block1	congruent/STIM_024.jpg	100
1051.264	0.501	501.4	congruent	Block1	congruent/STIM_025.jpg	99
1054.296	0.674	673.9	congruent	Block1	congruent/STIM_025.jpg	99
1057.419	0.734	733.8	congruent	Block1	congruent/STIM_025.jpg	100
1061.251	0.581	580.6	congruent	Block1	congruent/STIM_025.jpg	99
1064.801	0.532	532.2	congruent	Block1	congruent/STIM_025.jpg	100
1068.265	0.579	579.4	congruent	Block1	congruent/STIM_026.jpg	99
1072.419	0.578	577.9	congruent	Block1	congruent/STIM_026.jpg	99
1076.716	0.606	606.5	congruent	Block1	congruent/STIM_026.jpg	99
1080.684	0.648	647.6	congruent	Block1	congruent/STIM_026.jpg	99
1084.078	0.672	672.1	congruent	Block1	congruent/STIM_026.jpg	99
1087.243	0.647	646.7	congruent	Block1	congruent/STIM_027.jpg	100
1091.847	0.696	695.7	congruent	Block1	congruent/STIM_027.jpg	99
1096.237	0.599	599.0	congruent	Block1	congruent/STIM_027.jpg	99
1100.186	0.808	808.4	congruent	Block1	congruent/STIM_027.jpg	99
1104.107	0.639	638.9	congruent	Block1	congruent/STIM_027.jpg	100
1107.713	0.596	595.8	congruent	Block1	congruent/STIM_028.jpg	100
1110.93	0.616	616.4	congruent	Block1	congruent/STIM_028.jpg	99
1114.016	0.426	426.5	congruent	Block1	congruent/STIM_028.jpg	99
1118.36	0.556	556.5	congruent	Block1	congruent/STIM_028.jpg	99
1121.156	0.452	451.6	congruent	Block1	congruent/STIM_028.jpg	100
1123.854	0.611	610.7	congruent	Block1	congruent/STIM_029.jpg	100
1128.243	0.554	553.8	congruent	Block1	congruent/STIM_029.jpg	100
1132.377	0.834	834.2	congruent	Block1	congruent/STIM_029.jpg	99
1135.597	0.509	508.7	congruent	Block1	congruent/STIM_029.jpg	100
1139.619	0.619	619.3	congruent	Block1	congruent/STIM_029.jpg	99
1142.572	0.728	727.7	incongruent	Block2	incongruent/STIM_000.jpg	99
1145.753	0.893	893.0	incongruent	Block2	incongruent/STIM_000.jpg	100
1149.929	0.914	914.0	incongruent	Block2	incongruent/STIM_000.jpg	100
1153.012	0.481	481.2	incongruent	Block2	incongruent/STIM_000.jpg	100
1157.314	0.616	616.0	incongruent	Block2	incongruent/STIM_000.jpg	99
1160.859	1.039	1039.2	incongruent	Block2	incongruent/STIM_001.jpg	100
1164.84	0.96	960.0	incongruent	Block2	incongruent/STIM_001.jpg	100
1169.142	0.891	890.9	incongruent	Block2	incongruent/STIM_001.jpg	100
1172.205	0.516	515.8	incongruent	Block2	incongruent/STIM_001.jpg	100
1174.983	0.572	572.0	incongruent	Block2	incongruent/STIM_001.jpg	99
1178.487	0.639	639.4	incongruent	Block2	incongruent/STIM_002.jpg	99
1182.131	0.602	602.2	incongruent	Block2	incongruent/STIM_002.jpg	100
1186.272	0.93	929.6	incongruent	Block2	incongruent/STIM_002.jpg	99
1189.425	0.917	917.4	incongruent	Block2	incongruent/STIM_002.jpg	100
1192.74	0.68	679.5	incongruent	Block2	incongruent/STIM_002.jpg	100
1196.838	0.735	735.1	incongruent	Block2	incongruent/STIM_003.jpg	100
1201.561	0.507	507.2	incongruent	Block2	incongruent/STIM_003.jpg	100
1205.393	0.577	576.9	incongruent	Block2	incongruent/STIM_003.jpg	100
1208.665	0.571	570.8	incongruent	Block2	incongruent/STIM_003.jpg	99
1212.938	0.502	502.5	incongruent	Block2	incongruent/STIM_003.jpg	100
1217.303	1.036	1035.5	incongruent	Block2	incongruent/STIM_004.jpg	99
1221.8	1.003	1003.0	incongruent	Block2	incongruent/STIM_004.jpg	100
1226.564	1.003	1003.4	incongruent	Block2	incongruent/STIM_004.jpg	100
1230.981	0.695	694.6	incongruent	Block2	incongruent/STIM_004.jpg	100
1234.881	0.666	666.1	incongruent	Block2	incongruent/STIM_004.jpg	99
1238.68	0.763	763.1	incongruent	Block2	incongruent/STIM_005.jpg	100
1243.455	0.83	829.6	incongruent	Block2	incongruent/STIM_005.jpg	99
1248.005	0.541	540.8	incongruent	Block2	incongruent/STIM_005.jpg	99
1252.03	0.865	864.9	incongruent	Block2	incongruent/STIM_005.jpg	100
1255.025	0.858	858.3	incongruent	Block2	incongruent/STIM_005.jpg	99
1258.37	0.874	873.6	incongruent	Block2	incongruent/STIM_006.jpg	100
1263.276	0.788	787.8	incongruent	Block2	incongruent/STIM_006.jpg	99
1267.702	0.551	551.0	incongruent	Block2	incongruent/STIM_006.jpg	99
1272.282	0.714	713.8	incongruent	Block2	incongruent/STIM_006.jpg	100
1275.298	0.848	848.0	incongruent	Block2	incongruent/STIM_006.jpg	100
1279.717	1.019	1019.0	incongruent	Block2	incongruent/STIM_007.jpg	100
1284.731	0.74	739.5	incongruent	Block2	incongruent/STIM_007.jpg	99
1288.922	0.915	915.0	incongruent	Block2	incongruent/STIM_007.jpg	99
1293.923	0.755	755.0	incongruent	Block2	incongruent/STIM_007.jpg	100
1298.171	0.395	394.6	incongruent	Block2	incongruent/STIM_007.jpg	100
1301.598	1.083	1082.7	incongruent	Block2	incongruent/STIM_008.jpg	100
1305.99	0.866	866.4	incongruent	Block2	incongruent/STIM_008.jpg	100
1309.637	0.776	775.8	incongruent	Block2	incongruent/STIM_008.jpg	99
1312.745	0.709	708.6	incongruent	Block2	incongruent/STIM_008.jpg	100
1315.654	0.768	767.5	incongruent	Block2	incongruent/STIM_008.jpg	100
1319.895	0.532	531.9	incongruent	Block2	incongruent/STIM_009.jpg	99
1324.043	0.911	910.8	incongruent	Block2	incongruent/STIM_009.jpg	100
1328.552	0.572	572.3	incongruent	Block2	incongruent/STIM_009.jpg	99
1332.814	0.812	812.0	incongruent	Block2	incongruent/STIM_009.jpg	99
1337.084	0.648	648.0	incongruent	Block2	incongruent/STIM_009.jpg	100
1341.378	0.85	849.6	incongruent	Block2	incongruent/STIM_010.jpg	99
1345.975	0.926	926.5	incongruent	Block2	incongruent/STIM_010.jpg	100
1350.641	0.709	708.8	incongruent	Block2	incongruent/STIM_010.jpg	100
1354.999	0.504	504.1	incongruent	Block2	incongruent/STIM_010.jpg	100
1359.029	0.817	817.2	incongruent	Block2	incongruent/STIM_010.jpg	100
1362.554	0.799	798.7	incongruent	Block2	incongruent/STIM_011.jpg	99
1366.443	0.548	547.6	incongruent	Block2	incongruent/STIM_011.jpg	99
1370.797	0.547	546.7	incongruent	Block2	incongruent/STIM_011.jpg	100
1374.387	0.651	650.7	incongruent	Block2	incongruent/STIM_011.jpg	99
1379.071	0.719	719.3	incongruent	Block2	incongruent/STIM_011.jpg	100
1383.363	1.036	1035.7	incongruent	Block2	incongruent/STIM_012.jpg	99
1387.825	0.492	492.5	incongruent	Block2	incongruent/STIM_012.jpg	99
1392.388	0.537	537.2	incongruent	Block2	incongruent/STIM_012.jpg	100
1395.02	0.87	870.4	incongruent	Block2	incongruent/STIM_012.jpg	99
1399.926	0.763	763.4	incongruent	Block2	incongruent/STIM_012.jpg	99
1404.092	0.881	881.1	incongruent	Block2	incongruent/STIM_013.jpg	100
1407.188	0.79	789.9	incongruent	Block2	incongruent/STIM_013.jpg	100
1410.256	0.703	702.7	incongruent	Block2	incongruent/STIM_013.jpg	100
1414.155	0.816	815.9	incongruent	Block2	incongruent/STIM_013.jpg	99
1417.063	0.802	801.7	incongruent	Block2	incongruent/STIM_013.jpg	99
1420.721	0.734	733.8	incongruent	Block2	incongruent/STIM_014.jpg	100
1424.396	0.788	787.5	incongruent	Block2	incongruent/STIM_014.jpg	100
1427.842	0.808	808.2	incongruent	Block2	incongruent/STIM_014.jpg	99
1432.226	0.874	873.6	incongruent	Block2	incongruent/STIM_014.jpg	99
1435.345	0.85	850.0	incongruent	Block2	incongruent/STIM_014.jpg	99
1439.456	0.886	886.3	incongruent	Block2	incongruent/STIM_015.jpg	100
1442.532	0.84	839.6	incongruent	Block2	incongruent/STIM_015.jpg	100
1445.571	0.857	857.1	incongruent	Block2	incongruent/STIM_015.jpg	100
1450.264	0.801	800.7	incongruent	Block2	incongruent/STIM_015.jpg	99
1453.86	0.938	938.4	incongruent	Block2	incongruent/STIM_015.jpg	99
1457.759	0.758	758.2	incongruent	Block2	incongruent/STIM_016.jpg	100
1461.826	0.849	849.2	incongruent	Block2	incongruent/STIM_016.jpg	99
1465.403	0.774	773.7	incongruent	Block2	incongruent/STIM_016.jpg	100
1468.304	0.473	472.9	incongruent	Block2	incongruent/STIM_016.jpg	100
1471.886	0.812	811.5	incongruent	Block2	incongruent/STIM_016.jpg	99
1475.784	0.71	710.5	incongruent	Block2	incongruent/STIM_017.jpg	99
1480.093	0.82	820.5	incongruent	Block2	incongruent/STIM_017.jpg	99
1483.286	0.628	627.6	incongruent	Block2	incongruent/STIM_017.jpg	100
1486.013	0.817	816.6	incongruent	Block2	incongruent/STIM_017.jpg	100
1490.011	0.565	565.1	incongruent	Block2	incongruent/STIM_017.jpg	100
1492.819	0.627	626.9	incongruent	Block2	incongruent/STIM_018.jpg	99
1496.564	0.758	757.7	incongruent	Block2	incongruent/STIM_018.jpg	100
1500.384	0.644	644.4	incongruent	Block2	incongruent/STIM_018.jpg	100
1504.723	0.578	577.7	incongruent	Block2	incongruent/STIM_018.jpg	100
1508.876	0.558	557.9	incongruent	Block2	incongruent/STIM_018.jpg	99
1512.522	0.896	896.1	incongruent	Block2	incongruent/STIM_019.jpg	100
1516.429	0.723	723.2	incongruent	Block2	incongruent/STIM_019.jpg	99
1520.015	0.587	586.8	incongruent	Block2	incongruent/STIM_019.jpg	100
1523.669	0.455	455.2	incongruent	Block2	incongruent/STIM_019.jpg	100
1526.333	0.384	384.3	incongruent	Block2	incongruent/STIM_019.jpg	100
1530.192	0.694	694.0	incongruent	Block2	incongruent/STIM_020.jpg	100
1533.63	0.505	505.5	incongruent	Block2	incongruent/STIM_020.jpg	99
1537.663	0.548	548.4	incongruent	Block2	incongruent/STIM_020.jpg	100
1541.605	0.95	950.4	incongruent	Block2	incongruent/STIM_020.jpg	99
1546.58	0.527	526.7	incongruent	Block2	incongruent/STIM_020.jpg	99
1549.278	1.06	1059.7	incongruent	Block2	incongruent/STIM_021.jpg	99
1553.406	0.65	649.7	incongruent	Block2	incongruent/STIM_021.jpg	100
1556.91	0.948	948.1	incongruent	Block2	incongruent/STIM_021.jpg	99
1561.874	0.395	394.8	incongruent	Block2	incongruent/STIM_021.jpg	99
1564.942	0.743	742.9	incongruent	Block2	incongruent/STIM_021.jpg	100
1569.015	0.668	667.5	incongruent	Block2	incongruent/STIM_022.jpg	100
1572.157	0.521	521.2	incongruent	Block2	incongruent/STIM_022.jpg	99
1575.275	0.88	880.4	incongruent	Block2	incongruent/STIM_022.jpg	100
1578.479	0.464	463.7	incongruent	Block2	incongruent/STIM_022.jpg	99
1581.157	0.54	540.1	incongruent	Block2	incongruent/STIM_022.jpg	100
1585.186	0.913	913.0	incongruent	Block2	incongruent/STIM_023.jpg	99
1588.722	0.443	443.1	incongruent	Block2	incongruent/STIM_023.jpg	99
1591.551	0.892	891.7	incongruent	Block2	incongruent/STIM_023.jpg	100
1596.451	0.756	756.3	incongruent	Block2	incongruent/STIM_023.jpg	99
1600.156	0.783	783.3	incongruent	Block2	incongruent/STIM_023.jpg	100
1603.195	0.665	664.8	incongruent	Block2	incongruent/STIM_024.jpg	100
1607.514	0.946	946.5	incongruent	Block2	incongruent/STIM_024.jpg	99
1610.86	0.782	782.3	incongruent	Block2	incongruent/STIM_024.jpg	100
1615.361	0.358	358.3	incongruent	Block2	incongruent/STIM_024.jpg	99
1619.323	0.626	625.5	incongruent	Block2	incongruent/STIM_024.jpg	99
1623.981	0.982	981.8	incongruent	Block2	incongruent/STIM_025.jpg	99
1628.222	0.908	907.8	incongruent	Block2	incongruent/STIM_025.jpg	100
1631.577	0.868	868.4	incongruent	Block2	incongruent/STIM_025.jpg	99
1634.811	0.494	494.3	incongruent	Block2	incongruent/STIM_025.jpg	100
1638.42	0.826	825.6	incongruent	Block2	incongruent/STIM_025.jpg	99
1641.564	1.022	1022.0	incongruent	Block2	incongruent/STIM_026.jpg	100
1645.571	0.79	790.1	incongruent	Block2	incongruent/STIM_026.jpg	100
1649.097	0.658	657.7	incongruent	Block2	incongruent/STIM_026.jpg	100
1652.919	0.449	449.1	incongruent	Block2	incongruent/STIM_026.jpg	100
1655.701	0.588	588.3	incongruent	Block2	incongruent/STIM_026.jpg	99
1659.569	0.567	566.9	incongruent	Block2	incongruent/STIM_027.jpg	100
1663.279	0.743	742.8	incongruent	Block2	incongruent/STIM_027.jpg	99
1667.632	0.745	745.0	incongruent	Block2	incongruent/STIM_027.jpg	99
1671.347	0.838	838.4	incongruent	Block2	incongruent/STIM_027.jpg	99
1674.487	0.672	671.7	incongruent	Block2	incongruent/STIM_027.jpg	100
1678.564	0.641	640.7	incongruent	Block2	incongruent/STIM_028.jpg	100
1682.601	0.782	781.5	incongruent	Block2	incongruent/STIM_028.jpg	99
1685.597	0.62	620.0	incongruent	Block2	incongruent/STIM_028.jpg	99
1689.938	0.728	728.1	incongruent	Block2	incongruent/STIM_028.jpg	100
1693.847	0.723	723.0	incongruent	Block2	incongruent/STIM_028.jpg	100
1697.967	0.792	791.9	incongruent	Block2	incongruent/STIM_029.jpg	99
1702.016	0.63	629.8	incongruent	Block2	incongruent/STIM_029.jpg	99
1704.712	0.554	553.8	incongruent	Block2	incongruent/STIM_029.jpg	100
1707.515	0.562	562.0	incongruent	Block2	incongruent/STIM_029.jpg	100
1710.862	0.747	747.2	incongruent	Block2	incongruent/STIM_029.jpg	99
1715.713	0.716	716.0	congruent	Block2	congruent/STIM_000.jpg	100
1720.403	0.733	732.8	congruent	Block2	congruent/STIM_000.jpg	99
1723.718	0.581	581.3	congruent	Block2	congruent/STIM_000.jpg	100
1727.618	0.488	487.6	congruent	Block2	congruent/STIM_000.jpg	100
1730.602	0.591	590.8	congruent	Block2	congruent/STIM_000.jpg	100
1735.122	0.851	851.3	congruent	Block2	congruent/STIM_001.jpg	99
1739.681	0.7	700.2	congruent	Block2	congruent/STIM_001.jpg	100
1742.674	0.526	526.2	congruent	Block2	congruent/STIM_001.jpg	99
1747.221	0.689	689.3	congruent	Block2	congruent/STIM_001.jpg	99
1751.939	0.784	783.7	congruent	Block2	congruent/STIM_001.jpg	100
1755.55	0.47	470.3	congruent	Block2	congruent/STIM_002.jpg	100
1760.029	0.64	639.9	congruent	Block2	congruent/STIM_002.jpg	99
1763.471	0.723	723.1	congruent	Block2	congruent/STIM_002.jpg	100
1766.422	0.417	417.3	congruent	Block2	congruent/STIM_002.jpg	99
1769.618	0.419	419.2	congruent	Block2	congruent/STIM_002.jpg	99
1774.119	0.598	597.5	congruent	Block2	congruent/STIM_003.jpg	100
1777.443	0.517	517.4	congruent	Block2	congruent/STIM_003.jpg	100
1780.905	0.768	767.8	congruent	Block2	congruent/STIM_003.jpg	99
1785.153	0.578	578.4	congruent	Block2	congruent/STIM_003.jpg	100
1788.986	0.618	617.8	congruent	Block2	congruent/STIM_003.jpg	99
1793.463	0.669	669.0	congruent	Block2	congruent/STIM_004.jpg	99
1797.61	0.714	714.1	congruent	Block2	congruent/STIM_004.jpg	100
1801.43	0.492	492.3	congruent	Block2	congruent/STIM_004.jpg	99
1804.447	0.787	787.3	congruent	Block2	congruent/STIM_004.jpg	99
1807.433	0.349	348.7	congruent	Block2	congruent/STIM_004.jpg	99
1810.688	0.573	572.6	congruent	Block2	congruent/STIM_005.jpg	100
1814.333	0.444	444.1	congruent	Block2	congruent/STIM_005.jpg	100
1817.997	0.625	624.8	congruent	Block2	congruent/STIM_005.jpg	99
1820.963	0.429	429.4	congruent	Block2	congruent/STIM_005.jpg	100
1824.308	0.694	694.5	congruent	Block2	congruent/STIM_005.jpg	100
1828.32	0.647	646.9	congruent	Block2	congruent/STIM_006.jpg	99
1831.881	0.413	412.6	congruent	Block2	congruent/STIM_006.jpg	99
1834.756	0.785	784.9	congruent	Block2	congruent/STIM_006.jpg	99
1839.515	0.468	467.5	congruent	Block2	congruent/STIM_006.jpg	99
1843.491	0.561	561.1	congruent	Block2	congruent/STIM_006.jpg	99
1847.878	0.772	771.6	congruent	Block2	congruent/STIM_007.jpg	99
1852.591	0.488	488.3	congruent	Block2	congruent/STIM_007.jpg	99
1856.711	0.634	633.8	congruent	Block2	congruent/STIM_007.jpg	99
1860.895	0.446	445.5	congruent	Block2	congruent/STIM_007.jpg	100
1864.342	0.478	478.1	congruent	Block2	congruent/STIM_007.jpg	99
1868.664	0.458	457.8	congruent	Block2	congruent/STIM_008.jpg	99
1871.674	0.716	716.2	congruent	Block2	congruent/STIM_008.jpg	100
1876.096	0.536	535.9	congruent	Block2	congruent/STIM_008.jpg	99
1880.017	0.543	543.0	congruent	Block2	congruent/STIM_008.jpg	100
1883.564	0.648	648.3	congruent	Block2	congruent/STIM_008.jpg	99
1887.722	0.662	662.3	congruent	Block2	congruent/STIM_009.jpg	100
1891.504	0.475	475.0	congruent	Block2	congruent/STIM_009.jpg	100
1894.499	0.767	767.2	congruent	Block2	congruent/STIM_009.jpg	99
1897.373	0.492	492.4	congruent	Block2	congruent/STIM_009.jpg	100
1900.581	0.69	689.8	congruent	Block2	congruent/STIM_009.jpg	100
1903.398	0.586	585.6	congruent	Block2	congruent/STIM_010.jpg	100
1907.711	0.836	836.0	congruent	Block2	congruent/STIM_010.jpg	100
1912.456	0.72	719.7	congruent	Block2	congruent/STIM_010.jpg	99
1916.409	0.734	733.8	congruent	Block2	congruent/STIM_010.jpg	100
1920.536	0.744	743.8	congruent	Block2	congruent/STIM_010.jpg	99
1924.882	0.48	480.5	congruent	Block2	congruent/STIM_011.jpg	100
1928.421	0.575	574.9	congruent	Block2	congruent/STIM_011.jpg	99
1932.451	0.721	720.9	congruent	Block2	congruent/STIM_011.jpg	99
1936.203	0.442	441.5	congruent	Block2	congruent/STIM_011.jpg	99
1939.812	0.624	624.5	congruent	Block2	congruent/STIM_011.jpg	99
1944.341	0.532	532.2	congruent	Block2	congruent/STIM_012.jpg	99
1946.985	0.5	499.5	congruent	Block2	congruent/STIM_012.jpg	100
1950.261	0.415	414.6	congruent	Block2	congruent/STIM_012.jpg	99
1953.228	0.741	741.2	congruent	Block2	congruent/STIM_012.jpg	100
1958.013	0.754	753.7	congruent	Block2	congruent/STIM_012.jpg	100
1962.548	0.59	590.1	congruent	Block2	congruent/STIM_013.jpg	100
1965.664	0.677	677.4	congruent	Block2	congruent/STIM_013.jpg	100
1969.857	0.748	747.6	congruent	Block2	congruent/STIM_013.jpg	100
1974.73	0.503	503.4	congruent	Block2	congruent/STIM_013.jpg	99
1978.597	0.522	522.3	congruent	Block2	congruent/STIM_013.jpg	99
1981.863	0.471	471.3	congruent	Block2	congruent/STIM_014.jpg	100
1984.677	0.769	769.2	congruent	Block2	congruent/STIM_014.jpg	99
1988.699	0.679	679.1	congruent	Block2	congruent/STIM_014.jpg	100
1992.826	0.594	594.2	congruent	Block2	congruent/STIM_014.jpg	99
1995.521	0.432	431.7	congruent	Block2	congruent/STIM_014.jpg	99
1998.544	0.704	703.5	congruent	Block2	congruent/STIM_015.jpg	99
2003.077	0.526	526.1	congruent	Block2	congruent/STIM_015.jpg	99
2006.918	0.705	705.3	congruent	Block2	congruent/STIM_015.jpg	99
2011.661	0.464	464.1	congruent	Block2	congruent/STIM_015.jpg	99
2015.474	0.648	647.8	congruent	Block2	congruent/STIM_015.jpg	100
2019.253	0.702	701.6	congruent	Block2	congruent/STIM_016.jpg	99
2023.124	0.47	469.6	congruent	Block2	congruent/STIM_016.jpg	100
2027.058	0.563	563.1	congruent	Block2	congruent/STIM_016.jpg	100
2029.949	0.569	569.0	congruent	Block2	congruent/STIM_016.jpg	100
2032.926	0.669	668.7	congruent	Block2	congruent/STIM_016.jpg	100
2036.327	0.756	756.5	congruent	Block2	congruent/STIM_017.jpg	100
2041.118	0.742	741.9	congruent	Block2	congruent/STIM_017.jpg	99
2044.289	0.488	488.3	congruent	Block2	congruent/STIM_017.jpg	99
2047.032	0.601	600.6	congruent	Block2	congruent/STIM_017.jpg	100
2051.277	0.687	687.4	congruent	Block2	congruent/STIM_017.jpg	99
2055.091	0.636	635.9	congruent	Block2	congruent/STIM_018.jpg	99
2058.978	0.516	516.5	congruent	Block2	congruent/STIM_018.jpg	100
2062.895	0.448	448.1	congruent	Block2	congruent/STIM_018.jpg	100
2066.077	0.448	448.5	congruent	Block2	congruent/STIM_018.jpg	100
2069.592	0.61	610.2	congruent	Block2	congruent/STIM_018.jpg	99
2073.379	0.576	576.1	congruent	Block2	congruent/STIM_019.jpg	99
2077.054	0.592	592.4	congruent	Block2	congruent/STIM_019.jpg	100
2081.279	0.737	736.9	congruent	Block2	congruent/STIM_019.jpg	99
2085.397	0.573	573.3	congruent	Block2	congruent/STIM_019.jpg	100
2089.948	0.612	612.0	congruent	Block2	congruent/STIM_019.jpg	99
2093.336	0.431	431.3	congruent	Block2	congruent/STIM_020.jpg	99
2097.023	0.472	471.6	congruent	Block2	congruent/STIM_020.jpg	100
2100.232	0.43	430.5	congruent	Block2	congruent/STIM_020.jpg	100
2103.406	0.68	680.3	congruent	Block2	congruent/STIM_020.jpg	99
2107.163	0.74	739.5	congruent	Block2	congruent/STIM_020.jpg	100
2110.146	0.722	722.4	congruent	Block2	congruent/STIM_021.jpg	100
2113.817	0.555	554.8	congruent	Block2	congruent/STIM_021.jpg	100
2116.671	0.548	548.2	congruent	Block2	congruent/STIM_021.jpg	99
2119.274	0.774	774.2	congruent	Block2	congruent/STIM_021.jpg	100
2123.033	0.822	822.0	congruent	Block2	congruent/STIM_021.jpg	100
2127.18	0.759	758.6	congruent	Block2	congruent/STIM_022.jpg	99
2130.951	0.66	659.8	congruent	Block2	congruent/STIM_022.jpg	100
2134.326	0.407	406.8	congruent	Block2	congruent/STIM_022.jpg	100
2137.79	0.776	775.7	congruent	Block2	congruent/STIM_022.jpg	99
2141.364	0.635	634.6	congruent	Block2	congruent/STIM_022.jpg	99
2145.844	0.475	474.6	congruent	Block2	congruent/STIM_023.jpg	99
2149.256	0.538	538.5	congruent	Block2	congruent/STIM_023.jpg	100
2151.985	0.801	801.4	congruent	Block2	congruent/STIM_023.jpg	99
2156.33	0.749	748.7	congruent	Block2	congruent/STIM_023.jpg	100
2159.664	0.326	326.1	congruent	Block2	congruent/STIM_023.jpg	99
2162.635	0.67	670.2	congruent	Block2	congruent/STIM_024.jpg	99
2167.125	0.358	357.6	congruent	Block2	congruent/STIM_024.jpg	100
2170.071	0.682	681.5	congruent	Block2	congruent/STIM_024.jpg	99
2173.213	0.506	506.4	congruent	Block2	congruent/STIM_024.jpg	99
2177.386	0.613	613.1	congruent	Block2	congruent/STIM_024.jpg	99
2181.014	0.529	529.0	congruent	Block2	congruent/STIM_025.jpg	100
2185.444	0.676	675.7	congruent	Block2	congruent/STIM_025.jpg	99
2189.568	0.6	599.6	congruent	Block2	congruent/STIM_025.jpg	99
2193.754	0.64	639.9	congruent	Block2	congruent/STIM_025.jpg	99
2196.877	0.613	612.8	congruent	Block2	congruent/STIM_025.jpg	100
2201.361	0.908	907.8	congruent	Block2	congruent/STIM_026.jpg	99
2204.521	0.531	530.9	congruent	Block2	congruent/STIM_026.jpg	100
2209.145	0.456	456.3	congruent	Block2	congruent/STIM_026.jpg	100
2211.945	0.509	508.9	congruent	Block2	congruent/STIM_026.jpg	100
2215.359	0.708	707.5	congruent	Block2	congruent/STIM_026.jpg	99
2218.779	0.591	591.4	congruent	Block2	congruent/STIM_027.jpg	99
2222.497	0.755	755.1	congruent	Block2	congruent/STIM_027.jpg	99
2226.329	0.507	507.4	congruent	Block2	congruent/STIM_027.jpg	99
2230.703	0.552	552.4	congruent	Block2	congruent/STIM_027.jpg	99
2233.987	0.735	735.4	congruent	Block2	congruent/STIM_027.jpg	100
2238.717	0.631	630.7	congruent	Block2	congruent/STIM_028.jpg	100
2243.133	0.499	499.4	congruent	Block2	congruent/STIM_028.jpg	99
2246.876	0.691	690.6	congruent	Block2	congruent/STIM_028.jpg	99
2251.677	0.62	620.5	congruent	Block2	congruent/STIM_028.jpg	99
2254.528	0.426	425.6	congruent	Block2	congruent/STIM_028.jpg	100
2257.125	0.783	783.0	congruent	Block2	congruent/STIM_029.jpg	99
2261.034	0.683	682.6	congruent	Block2	congruent/STIM_029.jpg	99
2265.434	0.588	588.0	congruent	Block2	congruent/STIM_029.jpg	100
2268.964	0.378	378.5	congruent	Block2	congruent/STIM_029.jpg	100
2271.835	0.677	676.6	congruent	Block2	congruent/STIM_029.jpg	100
2274.714	0.956	955.7	incongruent	Block3	incongruent/STIM_000.jpg	99
2278.252	0.84	839.7	incongruent	Block3	incongruent/STIM_000.jpg	99
2281.403	0.431	431.4	incongruent	Block3	incongruent/STIM_000.jpg	100
2285.267	0.759	758.6	incongruent	Block3	incongruent/STIM_000.jpg	100
2289.885	0.69	689.8	incongruent	Block3	incongruent/STIM_000.jpg	100
2294.573	0.759	758.6	incongruent	Block3	incongruent/STIM_001.jpg	100
2298.466	0.585	585.1	incongruent	Block3	incongruent/STIM_001.jpg	99
2301.121	0.731	730.7	incongruent	Block3	incongruent/STIM_001.jpg	100
2305.797	0.699	699.2	incongruent	Block3	incongruent/STIM_001.jpg	100
2310.001	0.858	857.6	incongruent	Block3	incongruent/STIM_001.jpg	100
2314.679	0.959	959.3	incongruent	Block3	incongruent/STIM_002.jpg	99
2318.778	0.682	682.5	incongruent	Block3	incongruent/STIM_002.jpg	100
2323.559	0.598	598.4	incongruent	Block3	incongruent/STIM_002.jpg	99
2327.235	0.532	532.1	incongruent	Block3	incongruent/STIM_002.jpg	99
2331.79	0.442	442.5	incongruent	Block3	incongruent/STIM_002.jpg	100
2335.527	0.7	699.9	incongruent	Block3	incongruent/STIM_003.jpg	99
2339.452	0.537	536.8	incongruent	Block3	incongruent/STIM_003.jpg	100
2343.603	0.718	717.6	incongruent	Block3	incongruent/STIM_003.jpg	99
2347.912	0.827	827.3	incongruent	Block3	incongruent/STIM_003.jpg	100
2351.349	0.888	887.7	incongruent	Block3	incongruent/STIM_003.jpg	100
2354.527	0.43	429.7	incongruent	Block3	incongruent/STIM_004.jpg	100
2357.921	0.842	842.2	incongruent	Block3	incongruent/STIM_004.jpg	100
2362.585	0.819	818.8	incongruent	Block3	incongruent/STIM_004.jpg	99
2367.39	0.554	554.4	incongruent	Block3	incongruent/STIM_004.jpg	99
2371.057	0.884	883.8	incongruent	Block3	incongruent/STIM_004.jpg	99
2375.795	0.807	806.7	incongruent	Block3	incongruent/STIM_005.jpg	99
2379.127	0.681	681.4	incongruent	Block3	incongruent/STIM_005.jpg	100
2382.723	0.388	387.8	incongruent	Block3	incongruent/STIM_005.jpg	100
2386.315	0.67	670.3	incongruent	Block3	incongruent/STIM_005.jpg	100
2391.063	0.529	529.4	incongruent	Block3	incongruent/STIM_005.jpg	99
2393.939	0.517	517.2	incongruent	Block3	incongruent/STIM_006.jpg	99
2398.498	0.416	416.2	incongruent	Block3	incongruent/STIM_006.jpg	99
2402.666	0.625	625.0	incongruent	Block3	incongruent/STIM_006.jpg	99
2405.751	0.676	675.5	incongruent	Block3	incongruent/STIM_006.jpg	99
2410.31	0.754	753.6	incongruent	Block3	incongruent/STIM_006.jpg	99
2413.95	0.488	487.9	incongruent	Block3	incongruent/STIM_007.jpg	100
2416.843	0.927	926.6	incongruent	Block3	incongruent/STIM_007.jpg	100
2420.335	0.854	853.7	incongruent	Block3	incongruent/STIM_007.jpg	100
2425.3	0.754	754.5	incongruent	Block3	incongruent/STIM_007.jpg	99
2429.692	0.842	842.4	incongruent	Block3	incongruent/STIM_007.jpg	99
2433.431	0.541	541.3	incongruent	Block3	incongruent/STIM_008.jpg	99
2436.582	0.853	852.7	incongruent	Block3	incongruent/STIM_008.jpg	99
2439.787	0.493	492.8	incongruent	Block3	incongruent/STIM_008.jpg	100
2443.634	0.406	405.9	incongruent	Block3	incongruent/STIM_008.jpg	99
2447.453	0.718	718.2	incongruent	Block3	incongruent/STIM_008.jpg	99
2450.805	0.805	805.0	incongruent	Block3	incongruent/STIM_009.jpg	100
2455.182	0.694	694.4	incongruent	Block3	incongruent/STIM_009.jpg	100
2459.074	0.777	777.3	incongruent	Block3	incongruent/STIM_009.jpg	100
2463.214	0.432	431.8	incongruent	Block3	incongruent/STIM_009.jpg	99
2467.069	0.508	508.4	incongruent	Block3	incongruent/STIM_009.jpg	100
2470.974	0.783	782.9	incongruent	Block3	incongruent/STIM_010.jpg	99
2475.894	0.801	801.3	incongruent	Block3	incongruent/STIM_010.jpg	100
2479.809	0.782	781.5	incongruent	Block3	incongruent/STIM_010.jpg	100
2483.984	0.766	766.1	incongruent	Block3	incongruent/STIM_010.jpg	99
2487.673	0.76	760.3	incongruent	Block3	incongruent/STIM_010.jpg	99
2492.182	0.815	815.4	incongruent	Block3	incongruent/STIM_011.jpg	99
2496.304	0.694	694.3	incongruent	Block3	incongruent/STIM_011.jpg	99
2500.062	0.818	818.1	incongruent	Block3	incongruent/STIM_011.jpg	100
2503.244	0.617	616.9	incongruent	Block3	incongruent/STIM_011.jpg	100
2506.216	0.901	901.0	incongruent	Block3	incongruent/STIM_011.jpg	100
2510.743	0.727	726.9	incongruent	Block3	incongruent/STIM_012.jpg	99
2513.661	0.88	879.8	incongruent	Block3	incongruent/STIM_012.jpg	100
2516.841	0.924	924.0	incongruent	Block3	incongruent/STIM_012.jpg	99
2520.797	0.754	753.6	incongruent	Block3	incongruent/STIM_012.jpg	99
2525.21	0.434	433.8	incongruent	Block3	incongruent/STIM_012.jpg	99
2528.029	0.913	913.1	incongruent	Block3	incongruent/STIM_013.jpg	99
2531.221	0.606	605.8	incongruent	Block3	incongruent/STIM_013.jpg	99
2534.153	0.739	738.9	incongruent	Block3	incongruent/STIM_013.jpg	100
2537.479	0.633	632.7	incongruent	Block3	incongruent/STIM_013.jpg	100
2541.069	0.71	709.6	incongruent	Block3	incongruent/STIM_013.jpg	99
2543.993	0.829	829.2	incongruent	Block3	incongruent/STIM_014.jpg	100
2547.396	0.668	668.4	incongruent	Block3	incongruent/STIM_014.jpg	99
2551.531	0.789	788.8	incongruent	Block3	incongruent/STIM_014.jpg	100
2556.379	0.469	468.7	incongruent	Block3	incongruent/STIM_014.jpg	100
2559.748	0.411	411.2	incongruent	Block3	incongruent/STIM_014.jpg	99
2563.025	0.442	441.5	incongruent	Block3	incongruent/STIM_015.jpg	99
2565.605	0.408	407.8	incongruent	Block3	incongruent/STIM_015.jpg	100
2569.111	0.625	625.0	incongruent	Block3	incongruent/STIM_015.jpg	99
2572.654	0.462	461.9	incongruent	Block3	incongruent/STIM_015.jpg	99
2576.129	0.693	693.1	incongruent	Block3	incongruent/STIM_015.jpg	99
2579.856	0.629	629.4	incongruent	Block3	incongruent/STIM_016.jpg	100
2584.028	0.863	862.6	incongruent	Block3	incongruent/STIM_016.jpg	100
2588.584	0.862	862.4	incongruent	Block3	incongruent/STIM_016.jpg	99
2592.961	0.686	685.7	incongruent	Block3	incongruent/STIM_016.jpg	99
2595.983	0.837	837.1	incongruent	Block3	incongruent/STIM_016.jpg	100
2599.228	0.601	601.4	incongruent	Block3	incongruent/STIM_017.jpg	100
2602.495	0.681	680.7	incongruent	Block3	incongruent/STIM_017.jpg	100
2605.545	0.489	489.0	incongruent	Block3	incongruent/STIM_017.jpg	99
2608.67	0.743	742.7	incongruent	Block3	incongruent/STIM_017.jpg	100
2612.507	0.594	593.6	incongruent	Block3	incongruent/STIM_017.jpg	99
2617.218	0.628	628.4	incongruent	Block3	incongruent/STIM_018.jpg	100
2620.384	0.612	611.7	incongruent	Block3	incongruent/STIM_018.jpg	100
2623.549	0.755	754.7	incongruent	Block3	incongruent/STIM_018.jpg	99
2627.24	0.564	563.9	incongruent	Block3	incongruent/STIM_018.jpg	99
2630.407	0.563	562.6	incongruent	Block3	incongruent/STIM_018.jpg	99
2634.446	0.55	550.4	incongruent	Block3	incongruent/STIM_019.jpg	99
2637.778	0.648	647.9	incongruent	Block3	incongruent/STIM_019.jpg	99
2640.701	0.707	707.3	incongruent	Block3	incongruent/STIM_019.jpg	100
2644.684	0.423	422.7	incongruent	Block3	incongruent/STIM_019.jpg	99
2647.422	0.579	579.2	incongruent	Block3	incongruent/STIM_019.jpg	100
2651.558	0.821	821.0	incongruent	Block3	incongruent/STIM_020.jpg	99
2655.144	0.465	464.7	incongruent	Block3	incongruent/STIM_020.jpg	99
2659.094	0.859	859.3	incongruent	Block3	incongruent/STIM_020.jpg	99
2663.138	0.653	653.4	incongruent	Block3	incongruent/STIM_020.jpg	99
2667.568	0.77	770.2	incongruent	Block3	incongruent/STIM_020.jpg	100
2670.542	0.431	430.8	incongruent	Block3	incongruent/STIM_021.jpg	100
2673.837	0.44	439.7	incongruent	Block3	incongruent/STIM_021.jpg	99
2676.94	0.883	882.9	incongruent	Block3	incongruent/STIM_021.jpg	99
2681.638	0.697	697.4	incongruent	Block3	incongruent/STIM_021.jpg	100
2685.793	0.745	744.6	incongruent	Block3	incongruent/STIM_021.jpg	99
2690.094	0.806	805.5	incongruent	Block3	incongruent/STIM_022.jpg	100
2694.34	0.677	677.0	incongruent	Block3	incongruent/STIM_022.jpg	99
2697.614	0.584	584.4	incongruent	Block3	incongruent/STIM_022.jpg	100
2701.686	0.743	743.3	incongruent	Block3	incongruent/STIM_022.jpg	99
2706.112	0.424	423.7	incongruent	Block3	incongruent/STIM_022.jpg	100
2709.579	0.841	841.0	incongruent	Block3	incongruent/STIM_023.jpg	100
2714.202	0.427	427.1	incongruent	Block3	incongruent/STIM_023.jpg	100
2716.868	0.602	601.9	incongruent	Block3	incongruent/STIM_023.jpg	100
2719.954	0.438	437.6	incongruent	Block3	incongruent/STIM_023.jpg	99
2723.25	0.545	544.7	incongruent	Block3	incongruent/STIM_023.jpg	99
2727.644	0.537	536.7	incongruent	Block3	incongruent/STIM_024.jpg	100
2731.314	0.726	726.5	incongruent	Block3	incongruent/STIM_024.jpg	100
2734.18	0.775	775.4	incongruent	Block3	incongruent/STIM_024.jpg	100
2737.406	0.896	896.5	incongruent	Block3	incongruent/STIM_024.jpg	99
2741.391	0.607	606.6	incongruent	Block3	incongruent/STIM_024.jpg	99
2745.303	0.761	761.3	incongruent	Block3	incongruent/STIM_025.jpg	100
2749.418	0.676	676.4	incongruent	Block3	incongruent/STIM_025.jpg	99
2752.507	0.837	837.2	incongruent	Block3	incongruent/STIM_025.jpg	99
2756.51	0.523	522.6	incongruent	Block3	incongruent/STIM_025.jpg	100
2759.686	0.906	905.7	incongruent	Block3	incongruent/STIM_025.jpg	99
2763.239	0.732	731.9	incongruent	Block3	incongruent/STIM_026.jpg	100
2767.299	0.792	792.4	incongruent	Block3	incongruent/STIM_026.jpg	100
2771.686	0.734	734.0	incongruent	Block3	incongruent/STIM_026.jpg	99
2774.985	0.668	668.3	incongruent	Block3	incongruent/STIM_026.jpg	99
2779.342	0.505	505.3	incongruent	Block3	incongruent/STIM_026.jpg	100
2783.519	0.623	623.4	incongruent	Block3	incongruent/STIM_027.jpg	100
2787.35	0.57	569.9	incongruent	Block3	incongruent/STIM_027.jpg	100
2790.41	0.643	642.8	incongruent	Block3	incongruent/STIM_027.jpg	100
2794.821	0.641	640.7	incongruent	Block3	incongruent/STIM_027.jpg	100
2798.942	0.528	527.5	incongruent	Block3	incongruent/STIM_027.jpg	99
2803.376	0.634	633.5	incongruent	Block3	incongruent/STIM_028.jpg	100
2808.05	0.857	857.0	incongruent	Block3	incongruent/STIM_028.jpg	99
2812.897	0.774	774.1	incongruent	Block3	incongruent/STIM_028.jpg	99
2817.52	0.658	657.9	incongruent	Block3	incongruent/STIM_028.jpg	99
2821.684	0.508	507.7	incongruent	Block3	incongruent/STIM_028.jpg	100
2824.994	0.839	838.8	incongruent	Block3	incongruent/STIM_029.jpg	99
2829.585	0.708	708.3	incongruent	Block3	incongruent/STIM_029.jpg	99
2832.677	0.804	804.1	incongruent	Block3	incongruent/STIM_029.jpg	100
2835.943	0.49	490.2	incongruent	Block3	incongruent/STIM_029.jpg	100
2839.756	0.878	877.8	incongruent	Block3	incongruent/STIM_029.jpg	99
2843.593	0.685	684.7	congruent	Block3	congruent/STIM_000.jpg	100
2847.998	0.574	574.2	congruent	Block3	congruent/STIM_000.jpg	100
2851.239	0.53	529.6	congruent	Block3	congruent/STIM_000.jpg	100
2854.696	0.483	482.8	congruent	Block3	congruent/STIM_000.jpg	100
2857.658	0.655	654.9	congruent	Block3	congruent/STIM_000.jpg	100
2861.337	0.566	565.5	congruent	Block3	congruent/STIM_001.jpg	99
2865.488	0.477	477.1	congruent	Block3	congruent/STIM_001.jpg	99
2868.617	0.674	673.8	congruent	Block3	congruent/STIM_001.jpg	99
2872.921	0.676	675.7	congruent	Block3	congruent/STIM_001.jpg	99
2876.753	0.681	680.8	congruent	Block3	congruent/STIM_001.jpg	99
2880.035	0.63	629.9	congruent	Block3	congruent/STIM_002.jpg	100
2883.276	0.446	446.4	congruent	Block3	congruent/STIM_002.jpg	100
2886.794	0.633	633.3	congruent	Block3	congruent/STIM_002.jpg	100
2890.315	0.728	727.6	congruent	Block3	congruent/STIM_002.jpg	100
2894.221	0.86	859.7	congruent	Block3	congruent/STIM_002.jpg	99
2898.58	0.602	601.6	congruent	Block3	congruent/STIM_003.jpg	100
2901.824	0.753	752.7	congruent	Block3	congruent/STIM_003.jpg	99
2906.302	0.446	446.1	congruent	Block3	congruent/STIM_003.jpg	99
2910.888	0.515	515.1	congruent	Block3	congruent/STIM_003.jpg	100
2914.24	0.478	477.7	congruent	Block3	congruent/STIM_003.jpg	99
2918.423	0.631	631.3	congruent	Block3	congruent/STIM_004.jpg	100
2921.548	0.619	619.4	congruent	Block3	congruent/STIM_004.jpg	99
2924.371	0.788	787.8	congruent	Block3	congruent/STIM_004.jpg	100
2929.004	0.844	844.4	congruent	Block3	congruent/STIM_004.jpg	99
2932.277	0.374	374.3	congruent	Block3	congruent/STIM_004.jpg	100
2935.124	0.601	601.0	congruent	Block3	congruent/STIM_005.jpg	99
2939.304	0.764	763.6	congruent	Block3	congruent/STIM_005.jpg	100
2943.188	0.453	453.2	congruent	Block3	congruent/STIM_005.jpg	100
2946.658	0.613	612.8	congruent	Block3	congruent/STIM_005.jpg	100
2949.49	0.647	646.7	congruent	Block3	congruent/STIM_005.jpg	99
2954.032	0.62	620.5	congruent	Block3	congruent/STIM_006.jpg	99
2957.892	0.623	623.1	congruent	Block3	congruent/STIM_006.jpg	99
2962.009	0.692	692.0	congruent	Block3	congruent/STIM_006.jpg	99
2965.67	0.62	620.0	congruent	Block3	congruent/STIM_006.jpg	100
2968.822	0.526	526.2	congruent	Block3	congruent/STIM_006.jpg	99
2972.348	0.566	566.5	congruent	Block3	congruent/STIM_007.jpg	99
2976.186	0.623	622.9	congruent	Block3	congruent/STIM_007.jpg	100
2979.696	0.625	625.1	congruent	Block3	congruent/STIM_007.jpg	100
2983.944	0.718	717.9	congruent	Block3	congruent/STIM_007.jpg	99
2987.201	0.474	473.6	congruent	Block3	congruent/STIM_007.jpg	99
2989.802	0.604	603.5	congruent	Block3	congruent/STIM_008.jpg	100
2993.183	0.808	807.7	congruent	Block3	congruent/STIM_008.jpg	99
2996.446	0.569	568.9	congruent	Block3	congruent/STIM_008.jpg	99
3000.536	0.722	722.1	congruent	Block3	congruent/STIM_008.jpg	100
3004.992	0.503	502.9	congruent	Block3	congruent/STIM_008.jpg	100
3008.68	0.622	621.7	congruent	Block3	congruent/STIM_009.jpg	99
3012.821	0.592	591.6	congruent	Block3	congruent/STIM_009.jpg	100
3016.683	0.712	711.7	congruent	Block3	congruent/STIM_009.jpg	100
3021.158	0.496	496.0	congruent	Block3	congruent/STIM_009.jpg	100
3025.122	0.602	602.3	congruent	Block3	congruent/STIM_009.jpg	99
3028.994	0.44	439.7	congruent	Block3	congruent/STIM_010.jpg	100
3033.346	0.694	694.5	congruent	Block3	congruent/STIM_010.jpg	100
3038.157	0.643	642.9	congruent	Block3	congruent/STIM_010.jpg	99
3042.731	0.652	652.4	congruent	Block3	congruent/STIM_010.jpg	100
3046.541	0.522	522.0	congruent	Block3	congruent/STIM_010.jpg	99
3049.962	0.842	842.3	congruent	Block3	congruent/STIM_011.jpg	99
3053.112	0.664	663.7	congruent	Block3	congruent/STIM_011.jpg	100
3056.284	0.698	698.3	congruent	Block3	congruent/STIM_011.jpg	99
3059.464	0.537	536.9	congruent	Block3	congruent/STIM_011.jpg	99
3063.815	0.655	655.0	congruent	Block3	congruent/STIM_011.jpg	100
3067.891	0.725	724.9	congruent	Block3	congruent/STIM_012.jpg	100
3071.713	0.489	488.6	congruent	Block3	congruent/STIM_012.jpg	100
3075.338	0.549	549.0	congruent	Block3	congruent/STIM_012.jpg	100
3079.119	0.702	701.7	congruent	Block3	congruent/STIM_012.jpg	100
3083.344	0.665	664.9	congruent	Block3	congruent/STIM_012.jpg	99
3087.222	0.367	367.3	congruent	Block3	congruent/STIM_013.jpg	100
3090.575	0.436	435.8	congruent	Block3	congruent/STIM_013.jpg	99
3093.45	0.781	780.6	congruent	Block3	congruent/STIM_013.jpg	99
3097.661	0.783	783.2	congruent	Block3	congruent/STIM_013.jpg	100
3102.214	0.722	721.7	congruent	Block3	congruent/STIM_013.jpg	100
3106.024	0.694	694.2	congruent	Block3	congruent/STIM_014.jpg	99
3110.509	0.552	552.4	congruent	Block3	congruent/STIM_014.jpg	100
3113.733	0.808	808.3	congruent	Block3	congruent/STIM_014.jpg	99
3116.587	0.564	564.3	congruent	Block3	congruent/STIM_014.jpg	100
3120.418	0.531	530.8	congruent	Block3	congruent/STIM_014.jpg	100
3123.394	0.55	550.2	congruent	Block3	congruent/STIM_015.jpg	99
3126.803	0.637	637.4	congruent	Block3	congruent/STIM_015.jpg	99
3130.327	0.527	527.1	congruent	Block3	congruent/STIM_015.jpg	99
3133.484	0.547	546.8	congruent	Block3	congruent/STIM_015.jpg	100
3136.641	0.429	429.0	congruent	Block3	congruent/STIM_015.jpg	100
3140.527	0.546	546.1	congruent	Block3	congruent/STIM_016.jpg	99
3143.373	0.643	643.1	congruent	Block3	congruent/STIM_016.jpg	99
3146.495	0.574	573.6	congruent	Block3	congruent/STIM_016.jpg	99
3149.591	0.368	368.0	congruent	Block3	congruent/STIM_016.jpg	99
3152.704	0.619	619.4	congruent	Block3	congruent/STIM_016.jpg	99
3157.135	0.42	420.0	congruent	Block3	congruent/STIM_017.jpg	100
3160.317	0.714	714.4	congruent	Block3	congruent/STIM_017.jpg	99
3164.19	0.592	591.7	congruent	Block3	congruent/STIM_017.jpg	100
3167.409	0.58	580.0	congruent	Block3	congruent/STIM_017.jpg	100
3171.607	0.752	751.5	congruent	Block3	congruent/STIM_017.jpg	100
3175.687	0.778	777.6	congruent	Block3	congruent/STIM_018.jpg	99
3179.296	0.632	632.4	congruent	Block3	congruent/STIM_018.jpg	100
3182.74	0.527	526.9	congruent	Block3	congruent/STIM_018.jpg	100
3185.747	0.823	823.2	congruent	Block3	congruent/STIM_018.jpg	99
3190.012	0.537	537.0	congruent	Block3	congruent/STIM_018.jpg	100
3193.341	0.597	596.7	congruent	Block3	congruent/STIM_019.jpg	100
3197.42	0.696	695.7	congruent	Block3	congruent/STIM_019.jpg	100
3200.925	0.727	727.0	congruent	Block3	congruent/STIM_019.jpg	99
3203.8	0.518	517.7	congruent	Block3	congruent/STIM_019.jpg	99
3207.725	0.687	687.0	congruent	Block3	congruent/STIM_019.jpg	100
3211.779	0.621	620.9	congruent	Block3	congruent/STIM_020.jpg	100
3216.443	0.612	612.5	congruent	Block3	congruent/STIM_020.jpg	100
3219.894	0.636	636.0	congruent	Block3	congruent/STIM_020.jpg	100
3222.713	0.514	513.6	congruent	Block3	congruent/STIM_020.jpg	100
3225.503	0.716	715.8	congruent	Block3	congruent/STIM_020.jpg	100
3228.985	0.627	627.2	congruent	Block3	congruent/STIM_021.jpg	99
3232.048	0.667	667.1	congruent	Block3	congruent/STIM_021.jpg	100
3234.91	0.527	526.7	congruent	Block3	congruent/STIM_021.jpg	100
3239.067	0.562	562.1	congruent	Block3	congruent/STIM_021.jpg	100
3242.281	0.617	616.6	congruent	Block3	congruent/STIM_021.jpg	100
3246.821	0.561	561.3	congruent	Block3	congruent/STIM_022.jpg	99
3249.939	0.506	506.0	congruent	Block3	congruent/STIM_022.jpg	99
3252.84	0.527	527.3	congruent	Block3	congruent/STIM_022.jpg	100
3255.6	0.43	430.1	congruent	Block3	congruent/STIM_022.jpg	99
3258.593	0.425	425.2	congruent	Block3	congruent/STIM_022.jpg	99
3262.488	0.672	672.4	congruent	Block3	congruent/STIM_023.jpg	100
3266.346	0.597	596.7	congruent	Block3	congruent/STIM_023.jpg	99
3270.308	0.609	608.9	congruent	Block3	congruent/STIM_023.jpg	100
3274.602	0.775	774.6	congruent	Block3	congruent/STIM_023.jpg	100
3277.956	0.686	685.9	congruent	Block3	congruent/STIM_023.jpg	100
3281.332	0.606	606.0	congruent	Block3	congruent/STIM_024.jpg	100
3285.658	0.718	717.7	congruent	Block3	congruent/STIM_024.jpg	99
3289.318	0.488	487.8	congruent	Block3	congruent/STIM_024.jpg	99
3293.401	0.662	661.6	congruent	Block3	congruent/STIM_024.jpg	100
3298.131	0.614	614.1	congruent	Block3	congruent/STIM_024.jpg	99
3301.098	0.793	793.4	congruent	Block3	congruent/STIM_025.jpg	100
3305.353	0.794	793.8	congruent	Block3	congruent/STIM_025.jpg	100
3309.241	0.545	545.2	congruent	Block3	congruent/STIM_025.jpg	99
3313.437	0.542	542.5	congruent	Block3	congruent/STIM_025.jpg	99
3317.874	0.528	527.5	congruent	Block3	congruent/STIM_025.jpg	99
3322.377	0.53	530.4	congruent	Block3	congruent/STIM_026.jpg	100
3325.149	0.717	717.3	congruent	Block3	congruent/STIM_026.jpg	100
3329.557	0.737	737.1	congruent	Block3	congruent/STIM_026.jpg	99
3332.576	0.753	753.4	congruent	Block3	congruent/STIM_026.jpg	99
3335.933	0.639	639.4	congruent	Block3	congruent/STIM_026.jpg	100
3339.516	0.519	519.2	congruent	Block3	congruent/STIM_027.jpg	100
3343.588	0.515	514.9	congruent	Block3	congruent/STIM_027.jpg	99
3348.059	0.441	441.4	congruent	Block3	congruent/STIM_027.jpg	100
3351.808	0.449	449.1	congruent	Block3	congruent/STIM_027.jpg	100
3354.507	0.618	618.1	congruent	Block3	congruent/STIM_027.jpg	99
3358.099	0.561	560.7	congruent	Block3	congruent/STIM_028.jpg	100
3361.305	0.422	421.9	congruent	Block3	congruent/STIM_028.jpg	99
3364.472	0.717	717.3	congruent	Block3	congruent/STIM_028.jpg	100
3369.079	0.671	671.3	congruent	Block3	congruent/STIM_028.jpg	99
3373.117	0.684	683.7	congruent	Block3	congruent/STIM_028.jpg	100
3377.953	0.585	584.9	congruent	Block3	congruent/STIM_029.jpg	100
3380.955	0.492	492.5	congruent	Block3	congruent/STIM_029.jpg	100
3384.237	0.591	590.7	congruent	Block3	congruent/STIM_029.jpg	100
3387.88	0.533	532.9	congruent	Block3	congruent/STIM_029.jpg	100
3392.196	0.528	527.7	congruent	Block3	congruent/STIM_029.jpg	99
