onset	duration	accuracy_binary	trial_type	learning_stage	stimulus
0.0	0.95	1	incongruent	Block1	incongruent/STIM_000.jpg
4.334	1.048	1	incongruent	Block1	incongruent/STIM_000.jpg
8.851	0.852	1	incongruent	Block1	incongruent/STIM_000.jpg
13.333	0.985	1	incongruent	Block1	incongruent/STIM_000.jpg
16.833	1.056	1	incongruent	Block1	incongruent/STIM_000.jpg
20.515	1.059	1	incongruent	Block1	incongruent/STIM_001.jpg
25.213	1.462	0	incongruent	Block1	incongruent/STIM_001.jpg
30.077	1.334	1	incongruent	Block1	incongruent/STIM_001.jpg
33.997	1.236	1	incongruent	Block1	incongruent/STIM_001.jpg
38.682	0.941	0	incongruent	Block1	incongruent/STIM_001.jpg
42.959	1.536	0	incongruent	Block1	incongruent/STIM_002.jpg
46.827	1.286	1	incongruent	Block1	incongruent/STIM_002.jpg
50.736	1.081	1	incongruent	Block1	incongruent/STIM_002.jpg
55.456	1.187	1	incongruent	Block1	incongruent/STIM_002.jpg
59.543	1.089	1	incongruent	Block1	incongruent/STIM_002.jpg
63.625	1.111	1	incongruent	Block1	incongruent/STIM_003.jpg
67.966	1.418	1	incongruent	Block1	incongruent/STIM_003.jpg
72.712	1.38	0	incongruent	Block1	incongruent/STIM_003.jpg
77.792	1.222	1	incongruent	Block1	incongruent/STIM_003.jpg
82.826	1.223	1	incongruent	Block1	incongruent/STIM_003.jpg
86.561	0.976	0	incongruent	Block1	incongruent/STIM_004.jpg
90.75	0.935	0	incongruent	Block1	incongruent/STIM_004.jpg
95.152	0.719	1	incongruent	Block1	incongruent/STIM_004.jpg
99.645	1.142	1	incongruent	Block1	incongruent/STIM_004.jpg
103.841	0.925	1	incongruent	Block1	incongruent/STIM_004.jpg
107.481	1.379	1	incongruent	Block1	incongruent/STIM_005.jpg
111.622	0.891	1	incongruent	Block1	incongruent/STIM_005.jpg
115.689	0.785	1	incongruent	Block1	incongruent/STIM_005.jpg
120.154	0.795	1	incongruent	Block1	incongruent/STIM_005.jpg
123.238	0.759	1	incongruent	Block1	incongruent/STIM_005.jpg
126.33	1.22	1	incongruent	Block1	incongruent/STIM_006.jpg
130.596	1.014	0	incongruent	Block1	incongruent/STIM_006.jpg
134.255	1.394	1	incongruent	Block1	incongruent/STIM_006.jpg
138.682	1.239	1	incongruent	Block1	incongruent/STIM_006.jpg
143.495	0.859	1	incongruent	Block1	incongruent/STIM_006.jpg
147.58	1.225	1	incongruent	Block1	incongruent/STIM_007.jpg
152.618	0.846	1	incongruent	Block1	incongruent/STIM_007.jpg
156.047	1.31	1	incongruent	Block1	incongruent/STIM_007.jpg
160.323	1.059	1	incongruent	Block1	incongruent/STIM_007.jpg
164.466	0.827	1	incongruent	Block1	incongruent/STIM_007.jpg
167.751	1.495	1	incongruent	Block1	incongruent/STIM_008.jpg
172.581	0.83	1	incongruent	Block1	incongruent/STIM_008.jpg
176.999	1.018	1	incongruent	Block1	incongruent/STIM_008.jpg
181.316	1.368	0	incongruent	Block1	incongruent/STIM_008.jpg
184.746	0.818	1	incongruent	Block1	incongruent/STIM_008.jpg
188.265	0.849	0	incongruent	Block1	incongruent/STIM_009.jpg
191.933	0.921	1	incongruent	Block1	incongruent/STIM_009.jpg
195.434	1.432	1	incongruent	Block1	incongruent/STIM_009.jpg
199.668	1.15	1	incongruent	Block1	incongruent/STIM_009.jpg
203.103	1.212	0	incongruent	Block1	incongruent/STIM_009.jpg
207.992	1.578	1	incongruent	Block1	incongruent/STIM_010.jpg
211.765	1.146	0	incongruent	Block1	incongruent/STIM_010.jpg
216.245	1.074	1	incongruent	Block1	incongruent/STIM_010.jpg
219.759	0.863	1	incongruent	Block1	incongruent/STIM_010.jpg
222.97	1.236	1	incongruent	Block1	incongruent/STIM_010.jpg
227.368	0.956	0	incongruent	Block1	incongruent/STIM_011.jpg
231.957	0.768	0	incongruent	Block1	incongruent/STIM_011.jpg
235.639	0.686	1	incongruent	Block1	incongruent/STIM_011.jpg
239.997	1.23	1	incongruent	Block1	incongruent/STIM_011.jpg
244.41	1.079	1	incongruent	Block1	incongruent/STIM_011.jpg
249.488	0.975	1	incongruent	Block1	incongruent/STIM_012.jpg
253.586	1.306	0	incongruent	Block1	incongruent/STIM_012.jpg
258.654	0.921	1	incongruent	Block1	incongruent/STIM_012.jpg
263.319	1.115	1	incongruent	Block1	incongruent/STIM_012.jpg
267.11	0.994	1	incongruent	Block1	incongruent/STIM_012.jpg
270.722	1.097	0	incongruent	Block1	incongruent/STIM_013.jpg
274.313	1.214	1	incongruent	Block1	incongruent/STIM_013.jpg
278.141	1.331	1	incongruent	Block1	incongruent/STIM_013.jpg
283.405	1.235	1	incongruent	Block1	incongruent/STIM_013.jpg
288.623	0.782	1	incongruent	Block1	incongruent/STIM_013.jpg
292.6	1.267	1	incongruent	Block1	incongruent/STIM_014.jpg
296.195	1.018	1	incongruent	Block1	incongruent/STIM_014.jpg
301.117	0.869	1	incongruent	Block1	incongruent/STIM_014.jpg
304.905	1.324	1	incongruent	Block1	incongruent/STIM_014.jpg
308.765	1.186	1	incongruent	Block1	incongruent/STIM_014.jpg
311.99	1.479	1	incongruent	Block1	incongruent/STIM_015.jpg
316.523	1.356	1	incongruent	Block1	incongruent/STIM_015.jpg
319.937	1.096	1	incongruent	Block1	incongruent/STIM_015.jpg
323.35	1.274	0	incongruent	Block1	incongruent/STIM_015.jpg
327.821	0.769	1	incongruent	Block1	incongruent/STIM_015.jpg
332.393	1.368	1	incongruent	Block1	incongruent/STIM_016.jpg
336.076	1.101	1	incongruent	Block1	incongruent/STIM_016.jpg
339.871	1.282	0	incongruent	Block1	incongruent/STIM_016.jpg
343.922	1.098	1	incongruent	Block1	incongruent/STIM_016.jpg
347.086	1.051	1	incongruent	Block1	incongruent/STIM_016.jpg
351.309	1.089	0	incongruent	Block1	incongruent/STIM_017.jpg
356.064	0.772	1	incongruent	Block1	incongruent/STIM_017.jpg
359.367	0.886	1	incongruent	Block1	incongruent/STIM_017.jpg
363.429	0.826	0	incongruent	Block1	incongruent/STIM_017.jpg
366.504	1.125	1	incongruent	Block1	incongruent/STIM_017.jpg
369.946	1.158	1	incongruent	Block1	incongruent/STIM_018.jpg
373.724	1.2	0	incongruent	Block1	incongruent/STIM_018.jpg
377.085	0.788	0	incongruent	Block1	incongruent/STIM_018.jpg
380.232	0.827	1	incongruent	Block1	incongruent/STIM_018.jpg
383.087	0.685	1	incongruent	Block1	incongruent/STIM_018.jpg
386.586	0.841	1	incongruent	Block1	incongruent/STIM_019.jpg
390.856	0.742	0	incongruent	Block1	incongruent/STIM_019.jpg
395.548	0.863	1	incongruent	Block1	incongruent/STIM_019.jpg
398.418	0.751	1	incongruent	Block1	incongruent/STIM_019.jpg
402.533	0.651	1	incongruent	Block1	incongruent/STIM_019.jpg
405.932	1.348	1	incongruent	Block1	incongruent/STIM_020.jpg
411.138	1.411	1	incongruent	Block1	incongruent/STIM_020.jpg
415.037	0.954	1	incongruent	Block1	incongruent/STIM_020.jpg
419.435	0.834	1	incongruent	Block1	incongruent/STIM_020.jpg
422.98	0.972	1	incongruent	Block1	incongruent/STIM_020.jpg
427.942	1.044	1	incongruent	Block1	incongruent/STIM_021.jpg
431.468	1.218	1	incongruent	Block1	incongruent/STIM_021.jpg
435.899	1.214	1	incongruent	Block1	incongruent/STIM_021.jpg
439.64	0.734	1	incongruent	Block1	incongruent/STIM_021.jpg
443.855	0.814	1	incongruent	Block1	incongruent/STIM_021.jpg
447.066	0.757	1	incongruent	Block1	incongruent/STIM_022.jpg
451.191	1.401	1	incongruent	Block1	incongruent/STIM_022.jpg
456.588	1.047	1	incongruent	Block1	incongruent/STIM_022.jpg
460.031	0.781	0	incongruent	Block1	incongruent/STIM_022.jpg
463.051	1.143	1	incongruent	Block1	incongruent/STIM_022.jpg
467.128	1.361	1	incongruent	Block1	incongruent/STIM_023.jpg
472.311	1.206	0	incongruent	Block1	incongruent/STIM_023.jpg
476.675	0.721	1	incongruent	Block1	incongruent/STIM_023.jpg
481.256	1.053	1	incongruent	Block1	incongruent/STIM_023.jpg
484.631	1.246	0	incongruent	Block1	incongruent/STIM_023.jpg
489.56	1.601	1	incongruent	Block1	incongruent/STIM_024.jpg
494.191	0.937	0	incongruent	Block1	incongruent/STIM_024.jpg
498.689	1.449	1	incongruent	Block1	incongruent/STIM_024.jpg
503.82	1.203	1	incongruent	Block1	incongruent/STIM_024.jpg
507.373	1.05	0	incongruent	Block1	incongruent/STIM_024.jpg
512.228	0.851	1	incongruent	Block1	incongruent/STIM_025.jpg
516.59	0.959	1	incongruent	Block1	incongruent/STIM_025.jpg
520.222	1.437	1	incongruent	Block1	incongruent/STIM_025.jpg
524.878	1.271	0	incongruent	Block1	incongruent/STIM_025.jpg
528.985	1.285	1	incongruent	Block1	incongruent/STIM_025.jpg
532.464	0.776	1	incongruent	Block1	incongruent/STIM_026.jpg
536.756	1.464	1	incongruent	Block1	incongruent/STIM_026.jpg
541.104	1.227	1	incongruent	Block1	incongruent/STIM_026.jpg
545.313	1.081	1	incongruent	Block1	incongruent/STIM_026.jpg
550.173	0.737	1	incongruent	Block1	incongruent/STIM_026.jpg
552.979	1.28	1	incongruent	Block1	incongruent/STIM_027.jpg
557.361	1.184	0	incongruent	Block1	incongruent/STIM_027.jpg
561.298	1.061	1	incongruent	Block1	incongruent/STIM_027.jpg
564.96	0.65	0	incongruent	Block1	incongruent/STIM_027.jpg
569.39	1.201	0	incongruent	Block1	incongruent/STIM_027.jpg
573.769	1.601	1	incongruent	Block1	incongruent/STIM_028.jpg
579.129	1.455	1	incongruent	Block1	incongruent/STIM_028.jpg
583.105	1.191	0	incongruent	Block1	incongruent/STIM_028.jpg
586.594	0.74	1	incongruent	Block1	incongruent/STIM_028.jpg
589.809	0.876	1	incongruent	Block1	incongruent/STIM_028.jpg
593.969	1.091	1	incongruent	Block1	incongruent/STIM_029.jpg
598.572	1.216	1	incongruent	Block1	incongruent/STIM_029.jpg
603.596	1.147	1	incongruent	Block1	incongruent/STIM_029.jpg
607.287	1.214	1	incongruent	Block1	incongruent/STIM_029.jpg
612.003	1.241	1	incongruent	Block1	incongruent/STIM_029.jpg
615.599	0.691	1	congruent	Block1	congruent/STIM_000.jpg
618.521	0.594	1	congruent	Block1	congruent/STIM_000.jpg
622.377	0.594	0	congruent	Block1	congruent/STIM_000.jpg
625.826	0.88	1	congruent	Block1	congruent/STIM_000.jpg
628.753	0.645	1	congruent	Block1	congruent/STIM_000.jpg
632.855	0.571	1	congruent	Block1	congruent/STIM_001.jpg
637.392	0.714	1	congruent	Block1	congruent/STIM_001.jpg
640.815	0.6	1	congruent	Block1	congruent/STIM_001.jpg
644.683	0.706	1	congruent	Block1	congruent/STIM_001.jpg
648.365	0.854	1	congruent	Block1	congruent/STIM_001.jpg
652.359	0.631	1	congruent	Block1	congruent/STIM_002.jpg
656.3	0.956	1	congruent	Block1	congruent/STIM_002.jpg
659.626	0.57	1	congruent	Block1	congruent/STIM_002.jpg
663.074	0.829	1	congruent	Block1	congruent/STIM_002.jpg
667.561	0.806	1	congruent	Block1	congruent/STIM_002.jpg
672.006	0.584	1	congruent	Block1	congruent/STIM_003.jpg
675.198	0.869	1	congruent	Block1	congruent/STIM_003.jpg
678.412	0.75	1	congruent	Block1	congruent/STIM_003.jpg
682.834	0.679	1	congruent	Block1	congruent/STIM_003.jpg
686.185	0.562	1	congruent	Block1	congruent/STIM_003.jpg
689.725	0.599	1	congruent	Block1	congruent/STIM_004.jpg
694.264	0.655	1	congruent	Block1	congruent/STIM_004.jpg
697.699	0.777	0	congruent	Block1	congruent/STIM_004.jpg
701.208	0.953	1	congruent	Block1	congruent/STIM_004.jpg
704.312	0.889	1	congruent	Block1	congruent/STIM_004.jpg
707.401	0.761	1	congruent	Block1	congruent/STIM_005.jpg
711.699	0.906	1	congruent	Block1	congruent/STIM_005.jpg
715.028	0.897	1	congruent	Block1	congruent/STIM_005.jpg
719.134	0.721	0	congruent	Block1	congruent/STIM_005.jpg
722.633	0.828	1	congruent	Block1	congruent/STIM_005.jpg
726.092	0.654	1	congruent	Block1	congruent/STIM_006.jpg
729.776	0.631	1	congruent	Block1	congruent/STIM_006.jpg
733.366	0.824	1	congruent	Block1	congruent/STIM_006.jpg
737.096	0.64	1	congruent	Block1	congruent/STIM_006.jpg
739.916	0.67	1	congruent	Block1	congruent/STIM_006.jpg
743.354	0.817	1	congruent	Block1	congruent/STIM_007.jpg
746.897	0.678	1	congruent	Block1	congruent/STIM_007.jpg
749.98	0.684	1	congruent	Block1	congruent/STIM_007.jpg
753.1	0.945	1	congruent	Block1	congruent/STIM_007.jpg
756.777	0.61	1	congruent	Block1	congruent/STIM_007.jpg
761.191	0.574	1	congruent	Block1	congruent/STIM_008.jpg
764.136	0.919	0	congruent	Block1	congruent/STIM_008.jpg
768.681	0.853	1	congruent	Block1	congruent/STIM_008.jpg
772.298	0.721	1	congruent	Block1	congruent/STIM_008.jpg
776.329	0.853	0	congruent	Block1	congruent/STIM_008.jpg
779.67	0.567	1	congruent	Block1	congruent/STIM_009.jpg
783.804	0.916	1	congruent	Block1	congruent/STIM_009.jpg
787.966	0.728	1	congruent	Block1	congruent/STIM_009.jpg
790.863	0.628	1	congruent	Block1	congruent/STIM_009.jpg
793.935	0.828	1	congruent	Block1	congruent/STIM_009.jpg
797.546	0.578	1	congruent	Block1	congruent/STIM_010.jpg
800.796	0.643	1	congruent	Block1	congruent/STIM_010.jpg
803.782	0.774	1	congruent	Block1	congruent/STIM_010.jpg
806.722	0.89	1	congruent	Block1	congruent/STIM_010.jpg
809.628	0.579	1	congruent	Block1	congruent/STIM_010.jpg
813.127	0.616	1	congruent	Block1	congruent/STIM_011.jpg
817.065	0.874	1	congruent	Block1	congruent/STIM_011.jpg
821.354	0.858	0	congruent	Block1	congruent/STIM_011.jpg
824.639	0.944	1	congruent	Block1	congruent/STIM_011.jpg
828.942	0.851	1	congruent	Block1	congruent/STIM_011.jpg
832.454	0.761	1	congruent	Block1	congruent/STIM_012.jpg
836.523	0.88	1	congruent	Block1	congruent/STIM_012.jpg
839.478	0.972	1	congruent	Block1	congruent/STIM_012.jpg
843.076	0.56	1	congruent	Block1	congruent/STIM_012.jpg
845.771	0.637	1	congruent	Block1	congruent/STIM_012.jpg
848.578	0.811	1	congruent	Block1	congruent/STIM_013.jpg
852.36	0.9	1	congruent	Block1	congruent/STIM_013.jpg
855.477	0.659	1	congruent	Block1	congruent/STIM_013.jpg
858.649	0.743	1	congruent	Block1	congruent/STIM_013.jpg
862.625	0.725	0	congruent	Block1	congruent/STIM_013.jpg
866.371	0.966	1	congruent	Block1	congruent/STIM_014.jpg
870.557	0.631	1	congruent	Block1	congruent/STIM_014.jpg
873.226	0.644	1	congruent	Block1	congruent/STIM_014.jpg
876.404	0.646	1	congruent	Block1	congruent/STIM_014.jpg
879.795	0.959	1	congruent	Block1	congruent/STIM_014.jpg
882.979	0.705	1	congruent	Block1	congruent/STIM_015.jpg
886.247	0.555	1	congruent	Block1	congruent/STIM_015.jpg
889.126	0.876	0	congruent	Block1	congruent/STIM_015.jpg
892.833	0.728	1	congruent	Block1	congruent/STIM_015.jpg
895.938	0.594	0	congruent	Block1	congruent/STIM_015.jpg
899.812	0.832	1	congruent	Block1	congruent/STIM_016.jpg
903.768	0.868	1	congruent	Block1	congruent/STIM_016.jpg
907.654	0.703	0	congruent	Block1	congruent/STIM_016.jpg
910.86	0.878	1	congruent	Block1	congruent/STIM_016.jpg
914.525	0.691	1	congruent	Block1	congruent/STIM_016.jpg
919.144	0.873	1	congruent	Block1	congruent/STIM_017.jpg
923.73	0.697	1	congruent	Block1	congruent/STIM_017.jpg
927.131	0.774	1	congruent	Block1	congruent/STIM_017.jpg
930.349	0.957	1	congruent	Block1	congruent/STIM_017.jpg
934.729	0.877	1	congruent	Block1	congruent/STIM_017.jpg
937.945	0.596	1	congruent	Block1	congruent/STIM_018.jpg
940.947	0.925	1	congruent	Block1	congruent/STIM_018.jpg
945.79	0.855	1	congruent	Block1	congruent/STIM_018.jpg
950.165	0.862	1	congruent	Block1	congruent/STIM_018.jpg
954.2	0.766	1	congruent	Block1	congruent/STIM_018.jpg
957.318	0.704	1	congruent	Block1	congruent/STIM_019.jpg
960.511	0.968	1	congruent	Block1	congruent/STIM_019.jpg
964.688	0.954	1	congruent	Block1	congruent/STIM_019.jpg
968.492	0.726	0	congruent	Block1	congruent/STIM_019.jpg
973.182	0.831	1	congruent	Block1	congruent/STIM_019.jpg
976.389	0.798	1	congruent	Block1	congruent/STIM_020.jpg
980.554	0.864	1	congruent	Block1	congruent/STIM_020.jpg
984.103	0.669	1	congruent	Block1	congruent/STIM_020.jpg
987.066	0.683	0	congruent	Block1	congruent/STIM_020.jpg
989.921	0.68	1	congruent	Block1	congruent/STIM_020.jpg
993.215	0.578	1	congruent	Block1	congruent/STIM_021.jpg
996.091	0.767	1	congruent	Block1	congruent/STIM_021.jpg
1000.386	0.827	1	congruent	Block1	congruent/STIM_021.jpg
1003.857	0.956	0	congruent	Block1	congruent/STIM_021.jpg
1008.498	0.604	1	congruent	Block1	congruent/STIM_021.jpg
1012.895	0.952	1	congruent	Block1	congruent/STIM_022.jpg
1016.811	0.862	1	congruent	Block1	congruent/STIM_022.jpg
1019.93	0.959	1	congruent	Block1	congruent/STIM_022.jpg
1022.962	0.768	0	congruent	Block1	congruent/STIM_022.jpg
1026.253	0.69	1	congruent	Block1	congruent/STIM_022.jpg
1030.808	0.958	1	congruent	Block1	congruent/STIM_023.jpg
1034.113	0.727	0	congruent	Block1	congruent/STIM_023.jpg
1036.892	0.818	0	congruent	Block1	congruent/STIM_023.jpg
1039.831	0.747	1	congruent	Block1	congruent/STIM_023.jpg
1044.555	0.665	1	congruent	Block1	congruent/STIM_023.jpg
1048.762	0.825	1	congruent	Block1	congruent/STIM_024.jpg
1053.428	0.847	1	congruent	Block1	congruent/STIM_024.jpg
1057.811	0.593	1	congruent	Block1	congruent/STIM_024.jpg
1062.257	0.912	1	congruent	Block1	congruent/STIM_024.jpg
1065.93	0.606	1	congruent	Block1	congruent/STIM_024.jpg
1069.097	0.752	1	congruent	Block1	congruent/STIM_025.jpg
1072.486	0.579	1	congruent	Block1	congruent/STIM_025.jpg
1076.996	0.781	1	congruent	Block1	congruent/STIM_025.jpg
1079.883	0.582	1	congruent	Block1	congruent/STIM_025.jpg
1083.966	0.785	1	congruent	Block1	congruent/STIM_025.jpg
1088.738	0.861	0	congruent	Block1	congruent/STIM_026.jpg
1092.382	0.85	0	congruent	Block1	congruent/STIM_026.jpg
1095.543	0.653	1	congruent	Block1	congruent/STIM_026.jpg
1099.674	0.862	1	congruent	Block1	congruent/STIM_026.jpg
1102.962	0.632	1	congruent	Block1	congruent/STIM_026.jpg
1106.566	0.862	0	congruent	Block1	congruent/STIM_027.jpg
1111.144	0.917	1	congruent	Block1	congruent/STIM_027.jpg
1115.295	0.643	1	congruent	Block1	congruent/STIM_027.jpg
1118.284	0.864	1	congruent	Block1	congruent/STIM_027.jpg
1122.01	0.701	1	congruent	Block1	congruent/STIM_027.jpg
1126.525	0.768	1	congruent	Block1	congruent/STIM_028.jpg
1129.308	0.565	1	congruent	Block1	congruent/STIM_028.jpg
1132.917	0.786	1	congruent	Block1	congruent/STIM_028.jpg
1135.812	0.752	1	congruent	Block1	congruent/STIM_028.jpg
1138.641	0.769	1	congruent	Block1	congruent/STIM_028.jpg
1143.354	0.961	1	congruent	Block1	congruent/STIM_029.jpg
1147.044	0.764	1	congruent	Block1	congruent/STIM_029.jpg
1151.767	0.799	1	congruent	Block1	congruent/STIM_029.jpg
1154.837	0.934	0	congruent	Block1	congruent/STIM_029.jpg
1159.5	0.895	1	congruent	Block1	congruent/STIM_029.jpg
1164.308	1.137	1	incongruent	Block2	incongruent/STIM_000.jpg
1169.044	0.671	1	incongruent	Block2	incongruent/STIM_000.jpg
1173.489	0.668	1	incongruent	Block2	incongruent/STIM_000.jpg
1177.673	0.744	1	incongruent	Block2	incongruent/STIM_000.jpg
1181.446	0.594	1	incongruent	Block2	incongruent/STIM_000.jpg
1186.029	1.065	0	incongruent	Block2	incongruent/STIM_001.jpg
1189.875	1.216	1	incongruent	Block2	incongruent/STIM_001.jpg
1193.433	0.982	0	incongruent	Block2	incongruent/STIM_001.jpg
1197.984	1.018	1	incongruent	Block2	incongruent/STIM_001.jpg
1202.877	0.656	1	incongruent	Block2	incongruent/STIM_001.jpg
1205.93	1.008	1	incongruent	Block2	incongruent/STIM_002.jpg
1210.89	0.8	1	incongruent	Block2	incongruent/STIM_002.jpg
1214.244	1.088	0	incongruent	Block2	incongruent/STIM_002.jpg
1218.513	0.882	1	incongruent	Block2	incongruent/STIM_002.jpg
1221.675	0.7	1	incongruent	Block2	incongruent/STIM_002.jpg
1225.651	1.306	1	incongruent	Block2	incongruent/STIM_003.jpg
1230.275	0.964	1	incongruent	Block2	incongruent/STIM_003.jpg
1234.548	0.723	1	incongruent	Block2	incongruent/STIM_003.jpg
1238.232	1.012	1	incongruent	Block2	incongruent/STIM_003.jpg
1241.967	0.533	1	incongruent	Block2	incongruent/STIM_003.jpg
1244.692	0.727	1	incongruent	Block2	incongruent/STIM_004.jpg
1247.916	0.952	1	incongruent	Block2	incongruent/STIM_004.jpg
1250.977	0.93	1	incongruent	Block2	incongruent/STIM_004.jpg
1255.606	0.587	1	incongruent	Block2	incongruent/STIM_004.jpg
1258.717	1.093	1	incongruent	Block2	incongruent/STIM_004.jpg
1263.392	1.282	1	incongruent	Block2	incongruent/STIM_005.jpg
1267.682	0.655	1	incongruent	Block2	incongruent/STIM_005.jpg
1270.9	1.039	1	incongruent	Block2	incongruent/STIM_005.jpg
1275.896	0.784	1	incongruent	Block2	incongruent/STIM_005.jpg
1280.148	0.531	1	incongruent	Block2	incongruent/STIM_005.jpg
1283.548	0.914	1	incongruent	Block2	incongruent/STIM_006.jpg
1287.386	0.83	1	incongruent	Block2	incongruent/STIM_006.jpg
1290.381	1.05	1	incongruent	Block2	incongruent/STIM_006.jpg
1293.712	1.087	1	incongruent	Block2	incongruent/STIM_006.jpg
1296.962	0.625	1	incongruent	Block2	incongruent/STIM_006.jpg
1300.68	0.706	1	incongruent	Block2	incongruent/STIM_007.jpg
1305.286	0.905	1	incongruent	Block2	incongruent/STIM_007.jpg
1310.08	1.006	1	incongruent	Block2	incongruent/STIM_007.jpg
1313.93	0.764	1	incongruent	Block2	incongruent/STIM_007.jpg
1317.648	0.69	1	incongruent	Block2	incongruent/STIM_007.jpg
1320.772	0.66	1	incongruent	Block2	incongruent/STIM_008.jpg
1324.368	0.783	0	incongruent	Block2	incongruent/STIM_008.jpg
1329.143	1.179	1	incongruent	Block2	incongruent/STIM_008.jpg
1332.428	0.717	1	incongruent	Block2	incongruent/STIM_008.jpg
1335.333	0.712	1	incongruent	Block2	incongruent/STIM_008.jpg
1338.489	1.355	1	incongruent	Block2	incongruent/STIM_009.jpg
1343.813	1.034	1	incongruent	Block2	incongruent/STIM_009.jpg
1348.31	1.094	1	incongruent	Block2	incongruent/STIM_009.jpg
1352.384	0.871	1	incongruent	Block2	incongruent/STIM_009.jpg
1356.125	1.088	0	incongruent	Block2	incongruent/STIM_009.jpg
1359.357	0.888	1	incongruent	Block2	incongruent/STIM_010.jpg
1362.515	1.254	0	incongruent	Block2	incongruent/STIM_010.jpg
1365.95	0.713	1	incongruent	Block2	incongruent/STIM_010.jpg
1369.286	0.693	1	incongruent	Block2	incongruent/STIM_010.jpg
1372.36	1.056	1	incongruent	Block2	incongruent/STIM_010.jpg
1375.812	0.909	1	incongruent	Block2	incongruent/STIM_011.jpg
1378.901	1.12	1	incongruent	Block2	incongruent/STIM_011.jpg
1384.02	0.634	1	incongruent	Block2	incongruent/STIM_011.jpg
1387.316	0.836	1	incongruent	Block2	incongruent/STIM_011.jpg
1391.24	1.032	1	incongruent	Block2	incongruent/STIM_011.jpg
1395.599	1.039	1	incongruent	Block2	incongruent/STIM_012.jpg
1398.958	1.232	1	incongruent	Block2	incongruent/STIM_012.jpg
1403.307	1.124	1	incongruent	Block2	incongruent/STIM_012.jpg
1408.377	0.869	1	incongruent	Block2	incongruent/STIM_012.jpg
1412.128	0.677	1	incongruent	Block2	incongruent/STIM_012.jpg
1415.094	1.063	1	incongruent	Block2	incongruent/STIM_013.jpg
1420.052	1.258	1	incongruent	Block2	incongruent/STIM_013.jpg
1425.3	0.742	0	incongruent	Block2	incongruent/STIM_013.jpg
1429.777	0.63	1	incongruent	Block2	incongruent/STIM_013.jpg
1433.327	0.656	1	incongruent	Block2	incongruent/STIM_013.jpg
1436.311	1.373	1	incongruent	Block2	incongruent/STIM_014.jpg
1441.38	0.999	1	incongruent	Block2	incongruent/STIM_014.jpg
1445.866	0.731	1	incongruent	Block2	incongruent/STIM_014.jpg
1450.577	0.72	1	incongruent	Block2	incongruent/STIM_014.jpg
1453.432	1.1	1	incongruent	Block2	incongruent/STIM_014.jpg
1458.488	1.026	1	incongruent	Block2	incongruent/STIM_015.jpg
1462.063	0.886	1	incongruent	Block2	incongruent/STIM_015.jpg
1465.184	0.722	1	incongruent	Block2	incongruent/STIM_015.jpg
1468.5	1.006	1	incongruent	Block2	incongruent/STIM_015.jpg
1471.525	0.582	1	incongruent	Block2	incongruent/STIM_015.jpg
1474.663	1.005	1	incongruent	Block2	incongruent/STIM_016.jpg
1478.661	0.942	1	incongruent	Block2	incongruent/STIM_016.jpg
1483.577	0.607	1	incongruent	Block2	incongruent/STIM_016.jpg
1486.695	0.606	1	incongruent	Block2	incongruent/STIM_016.jpg
1490.861	0.714	1	incongruent	Block2	incongruent/STIM_016.jpg
1494.705	1.056	1	incongruent	Block2	incongruent/STIM_017.jpg
1499.71	0.756	1	incongruent	Block2	incongruent/STIM_017.jpg
1504.053	1.079	1	incongruent	Block2	incongruent/STIM_017.jpg
1507.301	0.804	0	incongruent	Block2	incongruent/STIM_017.jpg
1510.694	0.687	1	incongruent	Block2	incongruent/STIM_017.jpg
1514.136	1.029	1	incongruent	Block2	incongruent/STIM_018.jpg
1518.021	1.096	1	incongruent	Block2	incongruent/STIM_018.jpg
1523.076	0.954	1	incongruent	Block2	incongruent/STIM_018.jpg
1526.411	0.946	1	incongruent	Block2	incongruent/STIM_018.jpg
1531.237	0.758	1	incongruent	Block2	incongruent/STIM_018.jpg
1534.381	0.943	1	incongruent	Block2	incongruent/STIM_019.jpg
1537.577	0.658	1	incongruent	Block2	incongruent/STIM_019.jpg
1540.694	0.678	1	incongruent	Block2	incongruent/STIM_019.jpg
1543.772	0.591	1	incongruent	Block2	incongruent/STIM_019.jpg
1547.718	0.856	1	incongruent	Block2	incongruent/STIM_019.jpg
1551.252	0.937	1	incongruent	Block2	incongruent/STIM_020.jpg
1555.822	1.153	1	incongruent	Block2	incongruent/STIM_020.jpg
1560.255	0.646	1	incongruent	Block2	incongruent/STIM_020.jpg
1564.624	0.649	1	incongruent	Block2	incongruent/STIM_020.jpg
1568.374	0.7	1	incongruent	Block2	incongruent/STIM_020.jpg
1571.247	0.744	1	incongruent	Block2	incongruent/STIM_021.jpg
1575.519	0.692	1	incongruent	Block2	incongruent/STIM_021.jpg
1578.501	0.845	1	incongruent	Block2	incongruent/STIM_021.jpg
1581.945	0.742	1	incongruent	Block2	incongruent/STIM_021.jpg
1585.541	0.685	1	incongruent	Block2	incongruent/STIM_021.jpg
1588.495	0.724	0	incongruent	Block2	incongruent/STIM_022.jpg
1591.263	1.079	1	incongruent	Block2	incongruent/STIM_022.jpg
1595.246	1.039	1	incongruent	Block2	incongruent/STIM_022.jpg
1599.728	0.575	1	incongruent	Block2	incongruent/STIM_022.jpg
1604.023	0.565	1	incongruent	Block2	incongruent/STIM_022.jpg
1607.67	0.913	1	incongruent	Block2	incongruent/STIM_023.jpg
1611.842	1.065	1	incongruent	Block2	incongruent/STIM_023.jpg
1616.424	1.056	0	incongruent	Block2	incongruent/STIM_023.jpg
1620.018	0.544	1	incongruent	Block2	incongruent/STIM_023.jpg
1623.031	0.577	1	incongruent	Block2	incongruent/STIM_023.jpg
1625.807	0.695	1	incongruent	Block2	incongruent/STIM_024.jpg
1629.43	1.07	1	incongruent	Block2	incongruent/STIM_024.jpg
1633.928	0.578	1	incongruent	Block2	incongruent/STIM_024.jpg
1636.847	0.542	1	incongruent	Block2	incongruent/STIM_024.jpg
1640.241	0.928	1	incongruent	Block2	incongruent/STIM_024.jpg
1644.18	0.751	0	incongruent	Block2	incongruent/STIM_025.jpg
1647.913	0.707	1	incongruent	Block2	incongruent/STIM_025.jpg
1652.047	0.894	0	incongruent	Block2	incongruent/STIM_025.jpg
1656.94	0.888	1	incongruent	Block2	incongruent/STIM_025.jpg
1660.945	0.979	0	incongruent	Block2	incongruent/STIM_025.jpg
1664.864	1.155	1	incongruent	Block2	incongruent/STIM_026.jpg
1668.712	0.993	1	incongruent	Block2	incongruent/STIM_026.jpg
1673.022	1.027	1	incongruent	Block2	incongruent/STIM_026.jpg
1677.091	0.532	1	incongruent	Block2	incongruent/STIM_026.jpg
1680.872	0.941	1	incongruent	Block2	incongruent/STIM_026.jpg
1684.128	0.97	1	incongruent	Block2	incongruent/STIM_027.jpg
1688.469	0.615	0	incongruent	Block2	incongruent/STIM_027.jpg
1691.418	1.077	1	incongruent	Block2	incongruent/STIM_027.jpg
1695.77	1.018	1	incongruent	Block2	incongruent/STIM_027.jpg
1698.926	1.106	1	incongruent	Block2	incongruent/STIM_027.jpg
1703.421	1.29	1	incongruent	Block2	incongruent/STIM_028.jpg
1706.942	0.789	0	incongruent	Block2	incongruent/STIM_028.jpg
1711.585	0.88	1	incongruent	Block2	incongruent/STIM_028.jpg
1715.346	0.649	1	incongruent	Block2	incongruent/STIM_028.jpg
1718.888	0.698	1	incongruent	Block2	incongruent/STIM_028.jpg
1722.839	0.991	0	incongruent	Block2	incongruent/STIM_029.jpg
1727.332	1.264	1	incongruent	Block2	incongruent/STIM_029.jpg
1731.433	0.998	1	incongruent	Block2	incongruent/STIM_029.jpg
1736.041	0.831	1	incongruent	Block2	incongruent/STIM_029.jpg
1740.108	0.663	1	incongruent	Block2	incongruent/STIM_029.jpg
1742.873	0.629	1	congruent	Block2	congruent/STIM_000.jpg
1745.895	0.615	0	congruent	Block2	congruent/STIM_000.jpg
1750.277	0.894	1	congruent	Block2	congruent/STIM_000.jpg
1753.682	0.898	1	congruent	Block2	congruent/STIM_000.jpg
1756.778	0.881	1	congruent	Block2	congruent/STIM_000.jpg
1760.793	0.731	1	congruent	Block2	congruent/STIM_001.jpg
1763.94	0.673	1	congruent	Block2	congruent/STIM_001.jpg
1767.642	0.755	0	congruent	Block2	congruent/STIM_001.jpg
1771.864	0.902	1	congruent	Block2	congruent/STIM_001.jpg
1775.311	0.817	1	congruent	Block2	congruent/STIM_001.jpg
1778.369	0.796	1	congruent	Block2	congruent/STIM_002.jpg
1781.175	0.582	1	congruent	Block2	congruent/STIM_002.jpg
1785.672	0.913	0	congruent	Block2	congruent/STIM_002.jpg
1788.619	0.91	1	congruent	Block2	congruent/STIM_002.jpg
1792.875	0.97	0	congruent	Block2	congruent/STIM_002.jpg
1796.399	0.734	1	congruent	Block2	congruent/STIM_003.jpg
1800.13	0.751	1	congruent	Block2	congruent/STIM_003.jpg
1803.375	0.694	1	congruent	Block2	congruent/STIM_003.jpg
1807.569	0.963	1	congruent	Block2	congruent/STIM_003.jpg
1812.166	0.644	0	congruent	Block2	congruent/STIM_003.jpg
1816.305	0.972	1	congruent	Block2	congruent/STIM_004.jpg
1819.316	0.611	0	congruent	Block2	congruent/STIM_004.jpg
1823.845	0.97	0	congruent	Block2	congruent/STIM_004.jpg
1828.544	0.964	1	congruent	Block2	congruent/STIM_004.jpg
1831.638	0.751	1	congruent	Block2	congruent/STIM_004.jpg
1836.339	0.676	0	congruent	Block2	congruent/STIM_005.jpg
1840.155	0.797	1	congruent	Block2	congruent/STIM_005.jpg
1843.089	0.786	1	congruent	Block2	congruent/STIM_005.jpg
1846.06	0.589	1	congruent	Block2	congruent/STIM_005.jpg
1850.37	0.94	0	congruent	Block2	congruent/STIM_005.jpg
1854.196	0.896	0	congruent	Block2	congruent/STIM_006.jpg
1858.102	0.562	1	congruent	Block2	congruent/STIM_006.jpg
1860.799	0.622	1	congruent	Block2	congruent/STIM_006.jpg
1864.013	0.848	1	congruent	Block2	congruent/STIM_006.jpg
1868.668	0.642	1	congruent	Block2	congruent/STIM_006.jpg
1871.713	0.691	1	congruent	Block2	congruent/STIM_007.jpg
1875.238	0.893	1	congruent	Block2	congruent/STIM_007.jpg
1878.7	0.542	1	congruent	Block2	congruent/STIM_007.jpg
1882.605	0.624	1	congruent	Block2	congruent/STIM_007.jpg
1885.967	0.724	0	congruent	Block2	congruent/STIM_007.jpg
1890.554	0.964	1	congruent	Block2	congruent/STIM_008.jpg
1893.519	0.74	1	congruent	Block2	congruent/STIM_008.jpg
1896.531	0.909	1	congruent	Block2	congruent/STIM_008.jpg
1900.125	0.756	1	congruent	Block2	congruent/STIM_008.jpg
1903.808	0.917	1	congruent	Block2	congruent/STIM_008.jpg
1907.784	0.88	1	congruent	Block2	congruent/STIM_009.jpg
1912.32	0.64	1	congruent	Block2	congruent/STIM_009.jpg
1915.878	0.768	1	congruent	Block2	congruent/STIM_009.jpg
1919.762	0.622	1	congruent	Block2	congruent/STIM_009.jpg
1923.826	0.753	1	congruent	Block2	congruent/STIM_009.jpg
1928.43	0.777	1	congruent	Block2	congruent/STIM_010.jpg
1931.381	0.668	1	congruent	Block2	congruent/STIM_010.jpg
1934.405	0.856	1	congruent	Block2	congruent/STIM_010.jpg
1937.561	0.576	1	congruent	Block2	congruent/STIM_010.jpg
1940.991	0.931	1	congruent	Block2	congruent/STIM_010.jpg
1945.342	0.659	1	congruent	Block2	congruent/STIM_011.jpg
1949.888	0.896	1	congruent	Block2	congruent/STIM_011.jpg
1954.44	0.543	1	congruent	Block2	congruent/STIM_011.jpg
1957.411	0.971	1	congruent	Block2	congruent/STIM_011.jpg
1960.902	0.564	1	congruent	Block2	congruent/STIM_011.jpg
1964.941	0.545	1	congruent	Block2	congruent/STIM_012.jpg
1968.886	0.584	1	congruent	Block2	congruent/STIM_012.jpg
1973.167	0.951	1	congruent	Block2	congruent/STIM_012.jpg
1977.948	0.649	0	congruent	Block2	congruent/STIM_012.jpg
1982.422	0.548	1	congruent	Block2	congruent/STIM_012.jpg
1986.889	0.85	1	congruent	Block2	congruent/STIM_013.jpg
1991.646	0.669	1	congruent	Block2	congruent/STIM_013.jpg
1995.836	0.855	1	congruent	Block2	congruent/STIM_013.jpg
1999.095	0.907	1	congruent	Block2	congruent/STIM_013.jpg
2002.865	0.614	1	congruent	Block2	congruent/STIM_013.jpg
2006.489	0.762	1	congruent	Block2	congruent/STIM_014.jpg
2009.857	0.965	1	congruent	Block2	congruent/STIM_014.jpg
2013.907	0.618	1	congruent	Block2	congruent/STIM_014.jpg
2018.423	0.819	1	congruent	Block2	congruent/STIM_014.jpg
2022.124	0.637	1	congruent	Block2	congruent/STIM_014.jpg
2026.299	0.555	1	congruent	Block2	congruent/STIM_015.jpg
2030.178	0.869	1	congruent	Block2	congruent/STIM_015.jpg
2034.538	0.841	0	congruent	Block2	congruent/STIM_015.jpg
2037.588	0.925	1	congruent	Block2	congruent/STIM_015.jpg
2040.909	0.644	1	congruent	Block2	congruent/STIM_015.jpg
2043.9	0.941	1	congruent	Block2	congruent/STIM_016.jpg
2047.308	0.609	1	congruent	Block2	congruent/STIM_016.jpg
2050.713	0.805	1	congruent	Block2	congruent/STIM_016.jpg
2054.502	0.781	1	congruent	Block2	congruent/STIM_016.jpg
2058.529	0.864	0	congruent	Block2	congruent/STIM_016.jpg
2062.548	0.916	1	congruent	Block2	congruent/STIM_017.jpg
2067.156	0.803	1	congruent	Block2	congruent/STIM_017.jpg
2070.659	0.964	1	congruent	Block2	congruent/STIM_017.jpg
2075.014	0.636	0	congruent	Block2	congruent/STIM_017.jpg
2078.454	0.672	1	congruent	Block2	congruent/STIM_017.jpg
2083.007	0.704	1	congruent	Block2	congruent/STIM_018.jpg
2085.916	0.716	1	congruent	Block2	congruent/STIM_018.jpg
2089.265	0.745	1	congruent	Block2	congruent/STIM_018.jpg
2093.814	0.709	0	congruent	Block2	congruent/STIM_018.jpg
2098.351	0.617	0	congruent	Block2	congruent/STIM_018.jpg
2102.966	0.694	1	congruent	Block2	congruent/STIM_019.jpg
2106.871	0.773	1	congruent	Block2	congruent/STIM_019.jpg
2111.366	0.565	1	congruent	Block2	congruent/STIM_019.jpg
2114.019	0.815	1	congruent	Block2	congruent/STIM_019.jpg
2117.69	0.662	1	congruent	Block2	congruent/STIM_019.jpg
2122.285	0.611	0	congruent	Block2	congruent/STIM_020.jpg
2125.337	0.782	1	congruent	Block2	congruent/STIM_020.jpg
2129.067	0.691	1	congruent	Block2	congruent/STIM_020.jpg
2132.846	0.814	1	congruent	Block2	congruent/STIM_020.jpg
2135.842	0.581	0	congruent	Block2	congruent/STIM_020.jpg
2140.293	0.578	1	congruent	Block2	congruent/STIM_021.jpg
2142.958	0.737	0	congruent	Block2	congruent/STIM_021.jpg
2147.424	0.871	0	congruent	Block2	congruent/STIM_021.jpg
2151.648	0.543	1	congruent	Block2	congruent/STIM_021.jpg
2155.335	0.627	1	congruent	Block2	congruent/STIM_021.jpg
2159.133	0.591	1	congruent	Block2	congruent/STIM_022.jpg
2161.729	0.599	1	congruent	Block2	congruent/STIM_022.jpg
2165.098	0.812	1	congruent	Block2	congruent/STIM_022.jpg
2167.944	0.6	1	congruent	Block2	congruent/STIM_022.jpg
2171.501	0.928	1	congruent	Block2	congruent/STIM_022.jpg
2176.03	0.934	1	congruent	Block2	congruent/STIM_023.jpg
2180.41	0.772	1	congruent	Block2	congruent/STIM_023.jpg
2183.275	0.886	1	congruent	Block2	congruent/STIM_023.jpg
2187.784	0.924	1	congruent	Block2	congruent/STIM_023.jpg
2191.144	0.694	1	congruent	Block2	congruent/STIM_023.jpg
2194.058	0.795	1	congruent	Block2	congruent/STIM_024.jpg
2196.881	0.644	0	congruent	Block2	congruent/STIM_024.jpg
2200.003	0.61	1	congruent	Block2	congruent/STIM_024.jpg
2203.892	0.805	1	congruent	Block2	congruent/STIM_024.jpg
2208.312	0.657	0	congruent	Block2	congruent/STIM_024.jpg
2212.658	0.863	1	congruent	Block2	congruent/STIM_025.jpg
2217.27	0.788	0	congruent	Block2	congruent/STIM_025.jpg
2220.662	0.641	1	congruent	Block2	congruent/STIM_025.jpg
2223.306	0.59	1	congruent	Block2	congruent/STIM_025.jpg
2226.546	0.733	1	congruent	Block2	congruent/STIM_025.jpg
2231.03	0.879	1	congruent	Block2	congruent/STIM_026.jpg
2235.539	0.827	1	congruent	Block2	congruent/STIM_026.jpg
2239.641	0.541	1	congruent	Block2	congruent/STIM_026.jpg
2242.365	0.727	1	congruent	Block2	congruent/STIM_026.jpg
2245.407	0.616	1	congruent	Block2	congruent/STIM_026.jpg
2250.008	0.566	0	congruent	Block2	congruent/STIM_027.jpg
2253.286	0.901	1	congruent	Block2	congruent/STIM_027.jpg
2257.923	0.845	1	congruent	Block2	congruent/STIM_027.jpg
2262.325	0.608	1	congruent	Block2	congruent/STIM_027.jpg
2266.348	0.653	1	congruent	Block2	congruent/STIM_027.jpg
2269.228	0.955	1	congruent	Block2	congruent/STIM_028.jpg
2273.569	0.944	1	congruent	Block2	congruent/STIM_028.jpg
2276.765	0.775	1	congruent	Block2	congruent/STIM_028.jpg
2280.271	0.682	0	congruent	Block2	congruent/STIM_028.jpg
2283.527	0.847	1	congruent	Block2	congruent/STIM_028.jpg
2287.335	0.671	1	congruent	Block2	congruent/STIM_029.jpg
2291.925	0.608	1	congruent	Block2	congruent/STIM_029.jpg
2295.211	0.615	1	congruent	Block2	congruent/STIM_029.jpg
2299.294	0.694	1	congruent	Block2	congruent/STIM_029.jpg
2303.96	0.928	1	congruent	Block2	congruent/STIM_029.jpg
2308.815	0.721	1	incongruent	Block3	incongruent/STIM_000.jpg
2313.264	1.029	1	incongruent	Block3	incongruent/STIM_000.jpg
2316.665	0.798	1	incongruent	Block3	incongruent/STIM_000.jpg
2319.611	0.533	1	incongruent	Block3	incongruent/STIM_000.jpg
2323.298	0.822	1	incongruent	Block3	incongruent/STIM_000.jpg
2326.552	0.792	1	incongruent	Block3	incongruent/STIM_001.jpg
2331.342	0.769	1	incongruent	Block3	incongruent/STIM_001.jpg
2334.417	1.058	1	incongruent	Block3	incongruent/STIM_001.jpg
2337.951	1.087	1	incongruent	Block3	incongruent/STIM_001.jpg
2342.853	1.114	1	incongruent	Block3	incongruent/STIM_001.jpg
2346.009	0.569	1	incongruent	Block3	incongruent/STIM_002.jpg
2349.167	0.634	1	incongruent	Block3	incongruent/STIM_002.jpg
2353.596	1.102	1	incongruent	Block3	incongruent/STIM_002.jpg
2358.637	0.801	1	incongruent	Block3	incongruent/STIM_002.jpg
2361.828	0.551	1	incongruent	Block3	incongruent/STIM_002.jpg
2365.349	1.013	1	incongruent	Block3	incongruent/STIM_003.jpg
2368.683	0.665	1	incongruent	Block3	incongruent/STIM_003.jpg
2371.699	0.97	1	incongruent	Block3	incongruent/STIM_003.jpg
2375.512	0.552	1	incongruent	Block3	incongruent/STIM_003.jpg
2378.349	0.607	1	incongruent	Block3	incongruent/STIM_003.jpg
2381.741	0.585	1	incongruent	Block3	incongruent/STIM_004.jpg
2384.943	0.772	1	incongruent	Block3	incongruent/STIM_004.jpg
2389.067	0.607	1	incongruent	Block3	incongruent/STIM_004.jpg
2392.202	1.041	1	incongruent	Block3	incongruent/STIM_004.jpg
2397.096	0.534	1	incongruent	Block3	incongruent/STIM_004.jpg
2401.628	1.12	1	incongruent	Block3	incongruent/STIM_005.jpg
2405.583	0.533	1	incongruent	Block3	incongruent/STIM_005.jpg
2408.138	0.602	1	incongruent	Block3	incongruent/STIM_005.jpg
2412.652	0.993	1	incongruent	Block3	incongruent/STIM_005.jpg
2417.363	1.122	1	incongruent	Block3	incongruent/STIM_005.jpg
2421.382	0.664	1	incongruent	Block3	incongruent/STIM_006.jpg
2425.889	0.994	1	incongruent	Block3	incongruent/STIM_006.jpg
2429.388	0.893	1	incongruent	Block3	incongruent/STIM_006.jpg
2432.501	0.792	1	incongruent	Block3	incongruent/STIM_006.jpg
2436.077	0.874	0	incongruent	Block3	incongruent/STIM_006.jpg
2440.712	0.943	1	incongruent	Block3	incongruent/STIM_007.jpg
2444.673	1.106	1	incongruent	Block3	incongruent/STIM_007.jpg
2449.126	1.02	1	incongruent	Block3	incongruent/STIM_007.jpg
2453.733	0.653	1	incongruent	Block3	incongruent/STIM_007.jpg
2457.916	0.899	1	incongruent	Block3	incongruent/STIM_007.jpg
2462.367	0.634	1	incongruent	Block3	incongruent/STIM_008.jpg
2466.246	0.954	1	incongruent	Block3	incongruent/STIM_008.jpg
2470.636	1.093	1	incongruent	Block3	incongruent/STIM_008.jpg
2475.69	0.715	1	incongruent	Block3	incongruent/STIM_008.jpg
2479.4	0.836	1	incongruent	Block3	incongruent/STIM_008.jpg
2482.459	0.998	1	incongruent	Block3	incongruent/STIM_009.jpg
2486.233	0.883	1	incongruent	Block3	incongruent/STIM_009.jpg
2489.455	0.852	1	incongruent	Block3	incongruent/STIM_009.jpg
2493.81	0.858	1	incongruent	Block3	incongruent/STIM_009.jpg
2497.286	0.874	1	incongruent	Block3	incongruent/STIM_009.jpg
2501.298	1.101	0	incongruent	Block3	incongruent/STIM_010.jpg
2504.851	0.807	1	incongruent	Block3	incongruent/STIM_010.jpg
2509.328	0.61	1	incongruent	Block3	incongruent/STIM_010.jpg
2512.93	0.587	1	incongruent	Block3	incongruent/STIM_010.jpg
2516.048	0.858	1	incongruent	Block3	incongruent/STIM_010.jpg
2518.988	0.745	1	incongruent	Block3	incongruent/STIM_011.jpg
2523.055	1.101	1	incongruent	Block3	incongruent/STIM_011.jpg
2527.018	0.953	1	incongruent	Block3	incongruent/STIM_011.jpg
2531.586	0.831	1	incongruent	Block3	incongruent/STIM_011.jpg
2535.304	0.701	1	incongruent	Block3	incongruent/STIM_011.jpg
2538.98	0.691	0	incongruent	Block3	incongruent/STIM_012.jpg
2543.399	0.924	1	incongruent	Block3	incongruent/STIM_012.jpg
2548.154	0.792	1	incongruent	Block3	incongruent/STIM_012.jpg
2552.061	0.788	1	incongruent	Block3	incongruent/STIM_012.jpg
2555.157	0.852	1	incongruent	Block3	incongruent/STIM_012.jpg
2559.264	0.848	1	incongruent	Block3	incongruent/STIM_013.jpg
2563.597	0.801	1	incongruent	Block3	incongruent/STIM_013.jpg
2567.947	0.668	1	incongruent	Block3	incongruent/STIM_013.jpg
2572.126	0.533	1	incongruent	Block3	incongruent/STIM_013.jpg
2575.092	0.733	1	incongruent	Block3	incongruent/STIM_013.jpg
2578.986	0.56	0	incongruent	Block3	incongruent/STIM_014.jpg
2582.948	0.77	0	incongruent	Block3	incongruent/STIM_014.jpg
2587.358	1.081	1	incongruent	Block3	incongruent/STIM_014.jpg
2592.15	0.784	1	incongruent	Block3	incongruent/STIM_014.jpg
2596.93	0.992	1	incongruent	Block3	incongruent/STIM_014.jpg
2601.628	0.696	1	incongruent	Block3	incongruent/STIM_015.jpg
2604.421	0.893	1	incongruent	Block3	incongruent/STIM_015.jpg
2607.689	0.818	1	incongruent	Block3	incongruent/STIM_015.jpg
2611.726	1.017	1	incongruent	Block3	incongruent/STIM_015.jpg
2615.081	0.972	1	incongruent	Block3	incongruent/STIM_015.jpg
2618.817	0.91	1	incongruent	Block3	incongruent/STIM_016.jpg
2622.265	0.645	1	incongruent	Block3	incongruent/STIM_016.jpg
2625.207	0.764	1	incongruent	Block3	incongruent/STIM_016.jpg
2629.022	0.709	1	incongruent	Block3	incongruent/STIM_016.jpg
2632.439	0.638	1	incongruent	Block3	incongruent/STIM_016.jpg
2636.132	0.831	1	incongruent	Block3	incongruent/STIM_017.jpg
2639.497	0.643	1	incongruent	Block3	incongruent/STIM_017.jpg
2643.292	0.973	1	incongruent	Block3	incongruent/STIM_017.jpg
2647.883	0.6	1	incongruent	Block3	incongruent/STIM_017.jpg
2652.426	0.998	1	incongruent	Block3	incongruent/STIM_017.jpg
2656.841	0.626	1	incongruent	Block3	incongruent/STIM_018.jpg
2659.865	0.78	1	incongruent	Block3	incongruent/STIM_018.jpg
2664.588	0.909	1	incongruent	Block3	incongruent/STIM_018.jpg
2669.266	0.636	1	incongruent	Block3	incongruent/STIM_018.jpg
2671.974	1.048	1	incongruent	Block3	incongruent/STIM_018.jpg
2675.741	0.712	1	incongruent	Block3	incongruent/STIM_019.jpg
2678.951	1.094	1	incongruent	Block3	incongruent/STIM_019.jpg
2682.658	0.593	1	incongruent	Block3	incongruent/STIM_019.jpg
2686.941	0.786	1	incongruent	Block3	incongruent/STIM_019.jpg
2690.335	0.972	1	incongruent	Block3	incongruent/STIM_019.jpg
2694.903	1.029	1	incongruent	Block3	incongruent/STIM_020.jpg
2698.058	0.556	1	incongruent	Block3	incongruent/STIM_020.jpg
2700.77	0.532	1	incongruent	Block3	incongruent/STIM_020.jpg
2704.22	0.705	1	incongruent	Block3	incongruent/STIM_020.jpg
2707.657	0.678	1	incongruent	Block3	incongruent/STIM_020.jpg
2711.295	1.093	1	incongruent	Block3	incongruent/STIM_021.jpg
2714.466	1.038	0	incongruent	Block3	incongruent/STIM_021.jpg
2718.146	0.924	1	incongruent	Block3	incongruent/STIM_021.jpg
2722.278	0.769	1	incongruent	Block3	incongruent/STIM_021.jpg
2726.471	0.893	1	incongruent	Block3	incongruent/STIM_021.jpg
2729.58	1.13	1	incongruent	Block3	incongruent/STIM_022.jpg
2733.397	1.002	1	incongruent	Block3	incongruent/STIM_022.jpg
2738.3	0.634	1	incongruent	Block3	incongruent/STIM_022.jpg
2741.502	1.106	1	incongruent	Block3	incongruent/STIM_022.jpg
2745.976	0.74	1	incongruent	Block3	incongruent/STIM_022.jpg
2750.607	0.563	1	incongruent	Block3	incongruent/STIM_023.jpg
2754.249	0.808	0	incongruent	Block3	incongruent/STIM_023.jpg
2757.313	0.599	0	incongruent	Block3	incongruent/STIM_023.jpg
2760.394	1.05	1	incongruent	Block3	incongruent/STIM_023.jpg
2765.281	0.892	1	incongruent	Block3	incongruent/STIM_023.jpg
2768.995	0.89	1	incongruent	Block3	incongruent/STIM_024.jpg
2773.205	0.84	1	incongruent	Block3	incongruent/STIM_024.jpg
2777.119	0.865	1	incongruent	Block3	incongruent/STIM_024.jpg
2780.777	0.682	1	incongruent	Block3	incongruent/STIM_024.jpg
2783.693	0.999	1	incongruent	Block3	incongruent/STIM_024.jpg
2787.077	0.854	1	incongruent	Block3	incongruent/STIM_025.jpg
2791.566	1.019	1	incongruent	Block3	incongruent/STIM_025.jpg
2794.9	1.012	1	incongruent	Block3	incongruent/STIM_025.jpg
2798.804	0.716	1	incongruent	Block3	incongruent/STIM_025.jpg
2802.471	0.849	1	incongruent	Block3	incongruent/STIM_025.jpg
2805.563	0.946	1	incongruent	Block3	incongruent/STIM_026.jpg
2808.889	0.931	1	incongruent	Block3	incongruent/STIM_026.jpg
2813.395	0.836	1	incongruent	Block3	incongruent/STIM_026.jpg
2816.93	0.567	1	incongruent	Block3	incongruent/STIM_026.jpg
2820.98	0.892	1	incongruent	Block3	incongruent/STIM_026.jpg
2824.726	0.622	1	incongruent	Block3	incongruent/STIM_027.jpg
2828.425	1.051	1	incongruent	Block3	incongruent/STIM_027.jpg
2833.46	0.726	1	incongruent	Block3	incongruent/STIM_027.jpg
2836.231	0.727	1	incongruent	Block3	incongruent/STIM_027.jpg
2839.771	0.961	1	incongruent	Block3	incongruent/STIM_027.jpg
2843.784	1.056	1	incongruent	Block3	incongruent/STIM_028.jpg
2847.1	0.722	1	incongruent	Block3	incongruent/STIM_028.jpg
2850.017	1.039	1	incongruent	Block3	incongruent/STIM_028.jpg
2855.007	0.682	1	incongruent	Block3	incongruent/STIM_028.jpg
2857.853	0.968	1	incongruent	Block3	incongruent/STIM_028.jpg
2861.872	1.031	1	incongruent	Block3	incongruent/STIM_029.jpg
2865.854	0.786	1	incongruent	Block3	incongruent/STIM_029.jpg
2868.842	0.868	1	incongruent	Block3	incongruent/STIM_029.jpg
2873.266	0.553	1	incongruent	Block3	incongruent/STIM_029.jpg
2875.944	0.585	1	incongruent	Block3	incongruent/STIM_029.jpg
2879.663	0.907	0	congruent	Block3	congruent/STIM_000.jpg
2883.571	0.624	1	congruent	Block3	congruent/STIM_000.jpg
2887.502	0.668	1	congruent	Block3	congruent/STIM_000.jpg
2891.556	0.774	1	congruent	Block3	congruent/STIM_000.jpg
2895.091	0.765	1	congruent	Block3	congruent/STIM_000.jpg
2898.195	0.744	1	congruent	Block3	congruent/STIM_001.jpg
2902.216	0.587	1	congruent	Block3	congruent/STIM_001.jpg
2906.47	0.664	1	congruent	Block3	congruent/STIM_001.jpg
2911.056	0.732	1	congruent	Block3	congruent/STIM_001.jpg
2913.849	0.749	0	congruent	Block3	congruent/STIM_001.jpg
2917.472	0.949	1	congruent	Block3	congruent/STIM_002.jpg
2920.678	0.916	1	congruent	Block3	congruent/STIM_002.jpg
2924.237	0.948	1	congruent	Block3	congruent/STIM_002.jpg
2928.335	0.938	1	congruent	Block3	congruent/STIM_002.jpg
2932.679	0.957	1	congruent	Block3	congruent/STIM_002.jpg
2936.862	0.85	1	congruent	Block3	congruent/STIM_003.jpg
2941.274	0.773	0	congruent	Block3	congruent/STIM_003.jpg
2945.302	0.78	1	congruent	Block3	congruent/STIM_003.jpg
2949.072	0.612	1	congruent	Block3	congruent/STIM_003.jpg
2951.729	0.894	1	congruent	Block3	congruent/STIM_003.jpg
2956.417	0.908	1	congruent	Block3	congruent/STIM_004.jpg
2959.612	0.867	1	congruent	Block3	congruent/STIM_004.jpg
2962.897	0.768	1	congruent	Block3	congruent/STIM_004.jpg
2966.089	0.573	1	congruent	Block3	congruent/STIM_004.jpg
2969.995	0.854	1	congruent	Block3	congruent/STIM_004.jpg
2973.997	0.741	1	congruent	Block3	congruent/STIM_005.jpg
2977.266	0.759	1	congruent	Block3	congruent/STIM_005.jpg
2981.882	0.864	1	congruent	Block3	congruent/STIM_005.jpg
2986.467	0.889	1	congruent	Block3	congruent/STIM_005.jpg
2990.366	0.726	1	congruent	Block3	congruent/STIM_005.jpg
2993.1	0.898	1	congruent	Block3	congruent/STIM_006.jpg
2997.481	0.791	1	congruent	Block3	congruent/STIM_006.jpg
3001.024	0.889	1	congruent	Block3	congruent/STIM_006.jpg
3004.885	0.919	0	congruent	Block3	congruent/STIM_006.jpg
3009.55	0.896	1	congruent	Block3	congruent/STIM_006.jpg
3014.007	0.646	0	congruent	Block3	congruent/STIM_007.jpg
3017.422	0.642	1	congruent	Block3	congruent/STIM_007.jpg
3021.493	0.853	1	congruent	Block3	congruent/STIM_007.jpg
3024.744	0.962	1	congruent	Block3	congruent/STIM_007.jpg
3027.824	0.766	0	congruent	Block3	congruent/STIM_007.jpg
3030.81	0.592	1	congruent	Block3	congruent/STIM_008.jpg
3035.36	0.563	1	congruent	Block3	congruent/STIM_008.jpg
3038.575	0.877	1	congruent	Block3	congruent/STIM_008.jpg
3041.56	0.783	1	congruent	Block3	congruent/STIM_008.jpg
3046.046	0.892	0	congruent	Block3	congruent/STIM_008.jpg
3049.188	0.893	1	congruent	Block3	congruent/STIM_009.jpg
3052.855	0.912	0	congruent	Block3	congruent/STIM_009.jpg
3055.797	0.831	0	congruent	Block3	congruent/STIM_009.jpg
3059.844	0.867	1	congruent	Block3	congruent/STIM_009.jpg
3063.494	0.799	1	congruent	Block3	congruent/STIM_009.jpg
3067.044	0.786	1	congruent	Block3	congruent/STIM_010.jpg
3070.531	0.73	1	congruent	Block3	congruent/STIM_010.jpg
3074.044	0.853	1	congruent	Block3	congruent/STIM_010.jpg
3076.961	0.665	1	congruent	Block3	congruent/STIM_010.jpg
3080.517	0.83	1	congruent	Block3	congruent/STIM_010.jpg
3084.916	0.682	1	congruent	Block3	congruent/STIM_011.jpg
3087.643	0.774	1	congruent	Block3	congruent/STIM_011.jpg
3091.951	0.779	1	congruent	Block3	congruent/STIM_011.jpg
3096.326	0.96	0	congruent	Block3	congruent/STIM_011.jpg
3100.72	0.797	1	congruent	Block3	congruent/STIM_011.jpg
3104.193	0.633	0	congruent	Block3	congruent/STIM_012.jpg
3107.441	0.63	1	congruent	Block3	congruent/STIM_012.jpg
3110.431	0.96	1	congruent	Block3	congruent/STIM_012.jpg
3113.478	0.925	0	congruent	Block3	congruent/STIM_012.jpg
3117.952	0.938	1	congruent	Block3	congruent/STIM_012.jpg
3121.884	0.643	1	congruent	Block3	congruent/STIM_013.jpg
3124.714	0.943	1	congruent	Block3	congruent/STIM_013.jpg
3129.186	0.838	1	congruent	Block3	congruent/STIM_013.jpg
3132.933	0.701	1	congruent	Block3	congruent/STIM_013.jpg
3135.775	0.791	1	congruent	Block3	congruent/STIM_013.jpg
3140.019	0.869	1	congruent	Block3	congruent/STIM_014.jpg
3142.972	0.603	1	congruent	Block3	congruent/STIM_014.jpg
3146.946	0.547	1	congruent	Block3	congruent/STIM_014.jpg
3150.301	0.96	1	congruent	Block3	congruent/STIM_014.jpg
3154.788	0.562	1	congruent	Block3	congruent/STIM_014.jpg
3159.176	0.612	1	congruent	Block3	congruent/STIM_015.jpg
3162.861	0.892	1	congruent	Block3	congruent/STIM_015.jpg
3167.707	0.705	1	congruent	Block3	congruent/STIM_015.jpg
3171.435	0.952	1	congruent	Block3	congruent/STIM_015.jpg
3176.303	0.611	1	congruent	Block3	congruent/STIM_015.jpg
3180.667	0.677	1	congruent	Block3	congruent/STIM_016.jpg
3185.28	0.859	1	congruent	Block3	congruent/STIM_016.jpg
3189.728	0.656	0	congruent	Block3	congruent/STIM_016.jpg
3194.337	0.723	1	congruent	Block3	congruent/STIM_016.jpg
3198.231	0.598	1	congruent	Block3	congruent/STIM_016.jpg
3202.589	0.588	1	congruent	Block3	congruent/STIM_017.jpg
3206.043	0.624	1	congruent	Block3	congruent/STIM_017.jpg
3209.486	0.555	1	congruent	Block3	congruent/STIM_017.jpg
3212.507	0.863	1	congruent	Block3	congruent/STIM_017.jpg
3216.575	0.706	1	congruent	Block3	congruent/STIM_017.jpg
3220.302	0.754	1	congruent	Block3	congruent/STIM_018.jpg
3224.059	0.792	1	congruent	Block3	congruent/STIM_018.jpg
3226.884	0.616	0	congruent	Block3	congruent/STIM_018.jpg
3229.675	0.913	1	congruent	Block3	congruent/STIM_018.jpg
3234.194	0.845	1	congruent	Block3	congruent/STIM_018.jpg
3238.261	0.653	0	congruent	Block3	congruent/STIM_019.jpg
3241.019	0.595	1	congruent	Block3	congruent/STIM_019.jpg
3244.752	0.553	1	congruent	Block3	congruent/STIM_019.jpg
3248.916	0.855	1	congruent	Block3	congruent/STIM_019.jpg
3251.803	0.736	1	congruent	Block3	congruent/STIM_019.jpg
3255.329	0.916	1	congruent	Block3	congruent/STIM_020.jpg
3259.434	0.944	1	congruent	Block3	congruent/STIM_020.jpg
3263.073	0.773	1	congruent	Block3	congruent/STIM_020.jpg
3266.987	0.658	1	congruent	Block3	congruent/STIM_020.jpg
3270.773	0.875	0	congruent	Block3	congruent/STIM_020.jpg
3274.652	0.629	1	congruent	Block3	congruent/STIM_021.jpg
3277.535	0.955	0	congruent	Block3	congruent/STIM_021.jpg
3280.802	0.946	0	congruent	Block3	congruent/STIM_021.jpg
3283.85	0.642	1	congruent	Block3	congruent/STIM_021.jpg
3287.464	0.859	0	congruent	Block3	congruent/STIM_021.jpg
3291.04	0.888	1	congruent	Block3	congruent/STIM_022.jpg
3295.015	0.754	1	congruent	Block3	congruent/STIM_022.jpg
3298.514	0.88	0	congruent	Block3	congruent/STIM_022.jpg
3303.151	0.63	1	congruent	Block3	congruent/STIM_022.jpg
3307.7	0.754	1	congruent	Block3	congruent/STIM_022.jpg
3311.091	0.944	1	congruent	Block3	congruent/STIM_023.jpg
3315.653	0.634	1	congruent	Block3	congruent/STIM_023.jpg
3319.891	0.609	1	congruent	Block3	congruent/STIM_023.jpg
3322.711	0.796	0	congruent	Block3	congruent/STIM_023.jpg
3326.121	0.922	1	congruent	Block3	congruent/STIM_023.jpg
3329.242	0.809	1	congruent	Block3	congruent/STIM_024.jpg
3333.878	0.944	1	congruent	Block3	congruent/STIM_024.jpg
3338.66	0.562	1	congruent	Block3	congruent/STIM_024.jpg
3342.156	0.887	1	congruent	Block3	congruent/STIM_024.jpg
3345.825	0.624	1	congruent	Block3	congruent/STIM_024.jpg
3350.101	0.886	0	congruent	Block3	congruent/STIM_025.jpg
3354.212	0.827	0	congruent	Block3	congruent/STIM_025.jpg
3357.461	0.738	1	congruent	Block3	congruent/STIM_025.jpg
3360.822	0.934	1	congruent	Block3	congruent/STIM_025.jpg
3365.71	0.766	1	congruent	Block3	congruent/STIM_025.jpg
3369.372	0.8	1	congruent	Block3	congruent/STIM_026.jpg
3372.25	0.711	1	congruent	Block3	congruent/STIM_026.jpg
3375.186	0.651	1	congruent	Block3	congruent/STIM_026.jpg
3379.184	0.643	1	congruent	Block3	congruent/STIM_026.jpg
3381.935	0.891	1	congruent	Block3	congruent/STIM_026.jpg
3384.862	0.764	1	congruent	Block3	congruent/STIM_027.jpg
3387.938	0.741	1	congruent	Block3	congruent/STIM_027.jpg
3390.96	0.794	1	congruent	Block3	congruent/STIM_027.jpg
3394.785	0.616	1	congruent	Block3	congruent/STIM_027.jpg
3399.384	0.606	1	congruent	Block3	congruent/STIM_027.jpg
3402.822	0.837	1	congruent	Block3	congruent/STIM_028.jpg
3406.063	0.789	1	congruent	Block3	congruent/STIM_028.jpg
3409.955	0.793	1	congruent	Block3	congruent/STIM_028.jpg
3413.552	0.84	1	congruent	Block3	congruent/STIM_028.jpg
3417.757	0.873	1	congruent	Block3	congruent/STIM_028.jpg
3421.161	0.608	1	congruent	Block3	congruent/STIM_029.jpg
3425.01	0.578	0	congruent	Block3	congruent/STIM_029.jpg
3428.485	0.741	1	congruent	Block3	congruent/STIM_029.jpg
3431.796	0.836	1	congruent	Block3	congruent/STIM_029.jpg
3435.407	0.723	1	congruent	Block3	congruent/STIM_029.jpg
