onset	duration	response_time_ms	trial_type	learning_stage	stimulus	response_port
0.0	1.548	1547.9	2back	Block1	2back/STIM_000.jpg	100
4.638	0.715	714.7	2back	Block1	2back/STIM_000.jpg	99
8.799	1.139	1139.1	2back	Block1	2back/STIM_000.jpg	99
12.516	1.026	1026.3	2back	Block1	2back/STIM_001.jpg	100
16.205	1.484	1484.3	2back	Block1	2back/STIM_001.jpg	100
20.35	1.363	1363.2	2back	Block1	2back/STIM_001.jpg	100
24.126	0.786	785.7	2back	Block1	2back/STIM_002.jpg	99
28.526	1.414	1413.7	2back	Block1	2back/STIM_002.jpg	99
32.311	1.557	1556.9	2back	Block1	2back/STIM_002.jpg	100
36.853	0.823	823.1	2back	Block1	2back/STIM_003.jpg	99
40.223	0.744	744.0	2back	Block1	2back/STIM_003.jpg	100
43.842	1.336	1336.3	2back	Block1	2back/STIM_003.jpg	99
48.534	0.954	954.3	2back	Block1	2back/STIM_004.jpg	100
51.616	1.304	1303.7	2back	Block1	2back/STIM_004.jpg	99
56.207	0.778	778.3	2back	Block1	2back/STIM_004.jpg	99
59.63	0.808	808.5	2back	Block1	2back/STIM_005.jpg	99
63.761	1.151	1150.7	2back	Block1	2back/STIM_005.jpg	100
67.072	1.34	1340.5	2back	Block1	2back/STIM_005.jpg	100
70.487	0.955	954.8	2back	Block1	2back/STIM_006.jpg	99
74.06	0.784	783.6	2back	Block1	2back/STIM_006.jpg	99
78.617	0.761	761.4	2back	Block1	2back/STIM_006.jpg	100
82.034	1.444	1443.9	2back	Block1	2back/STIM_007.jpg	99
87.003	1.192	1192.3	2back	Block1	2back/STIM_007.jpg	100
90.964	0.89	890.4	2back	Block1	2back/STIM_007.jpg	100
95.424	1.163	1163.4	2back	Block1	2back/STIM_008.jpg	100
99.481	1.557	1557.4	2back	Block1	2back/STIM_008.jpg	99
103.999	0.925	925.3	2back	Block1	2back/STIM_008.jpg	100
107.49	1.227	1227.2	2back	Block1	2back/STIM_009.jpg	100
110.897	1.183	1183.0	2back	Block1	2back/STIM_009.jpg	99
115.661	0.92	920.4	2back	Block1	2back/STIM_009.jpg	100
120.554	1.543	1542.7	2back	Block1	2back/STIM_010.jpg	99
124.991	1.197	1197.0	2back	Block1	2back/STIM_010.jpg	99
129.506	1.451	1450.7	2back	Block1	2back/STIM_010.jpg	100
133.864	1.712	1712.5	2back	Block1	2back/STIM_011.jpg	100
137.852	1.045	1045.3	2back	Block1	2back/STIM_011.jpg	100
141.886	0.944	944.0	2back	Block1	2back/STIM_011.jpg	99
145.407	0.901	901.0	2back	Block1	2back/STIM_012.jpg	100
149.81	1.631	1630.6	2back	Block1	2back/STIM_012.jpg	100
154.761	0.879	878.9	2back	Block1	2back/STIM_012.jpg	99
159.63	1.33	1330.1	2back	Block1	2back/STIM_013.jpg	100
164.37	1.31	1310.0	2back	Block1	2back/STIM_013.jpg	99
168.736	0.88	880.2	2back	Block1	2back/STIM_013.jpg	100
173.233	0.751	751.0	2back	Block1	2back/STIM_014.jpg	100
176.511	1.024	1024.5	2back	Block1	2back/STIM_014.jpg	100
179.646	1.397	1397.2	2back	Block1	2back/STIM_014.jpg	100
184.161	1.331	1331.1	2back	Block1	2back/STIM_015.jpg	99
188.975	1.544	1544.2	2back	Block1	2back/STIM_015.jpg	99
194.024	0.822	821.7	2back	Block1	2back/STIM_015.jpg	100
196.987	1.385	1384.7	2back	Block1	2back/STIM_016.jpg	100
202.239	0.719	719.3	2back	Block1	2back/STIM_016.jpg	100
205.176	1.541	1541.1	2back	Block1	2back/STIM_016.jpg	99
209.84	1.147	1147.3	2back	Block1	2back/STIM_017.jpg	100
213.287	1.428	1427.6	2back	Block1	2back/STIM_017.jpg	99
218.086	0.846	845.5	2back	Block1	2back/STIM_017.jpg	100
222.346	1.396	1396.3	2back	Block1	2back/STIM_018.jpg	99
226.257	1.628	1627.7	2back	Block1	2back/STIM_018.jpg	100
231.179	1.537	1537.3	2back	Block1	2back/STIM_018.jpg	99
235.099	1.469	1469.0	2back	Block1	2back/STIM_019.jpg	100
240.49	1.458	1458.4	2back	Block1	2back/STIM_019.jpg	100
245.481	1.255	1254.6	2back	Block1	2back/STIM_019.jpg	99
249.3	1.412	1412.2	2back	Block1	2back/STIM_020.jpg	99
253.053	1.622	1622.3	2back	Block1	2back/STIM_020.jpg	99
256.895	0.994	994.3	2back	Block1	2back/STIM_020.jpg	100
261.631	1.423	1423.1	2back	Block1	2back/STIM_021.jpg	100
265.493	1.15	1150.4	2back	Block1	2back/STIM_021.jpg	99
270.401	1.286	1285.9	2back	Block1	2back/STIM_021.jpg	100
274.911	1.136	1136.5	2back	Block1	2back/STIM_022.jpg	99
279.764	0.73	730.3	2back	Block1	2back/STIM_022.jpg	99
284.383	0.683	683.1	2back	Block1	2back/STIM_022.jpg	100
288.037	1.205	1204.9	2back	Block1	2back/STIM_023.jpg	100
293.151	1.228	1228.1	2back	Block1	2back/STIM_023.jpg	99
298.05	0.849	849.2	2back	Block1	2back/STIM_023.jpg	99
302.359	1.242	1241.8	2back	Block1	2back/STIM_024.jpg	99
306.021	1.09	1090.0	2back	Block1	2back/STIM_024.jpg	100
310.126	1.24	1239.6	2back	Block1	2back/STIM_024.jpg	100
313.522	0.871	870.8	2back	Block1	2back/STIM_025.jpg	99
317.533	1.475	1475.4	2back	Block1	2back/STIM_025.jpg	100
322.296	1.069	1069.4	2back	Block1	2back/STIM_025.jpg	99
327.047	1.365	1365.1	2back	Block1	2back/STIM_026.jpg	99
330.747	0.787	787.0	2back	Block1	2back/STIM_026.jpg	100
334.149	1.51	1509.5	2back	Block1	2back/STIM_026.jpg	99
338.782	1.572	1571.5	2back	Block1	2back/STIM_027.jpg	100
343.952	1.424	1424.1	2back	Block1	2back/STIM_027.jpg	99
348.896	1.235	1235.4	2back	Block1	2back/STIM_027.jpg	100
353.37	1.062	1062.5	2back	Block1	2back/STIM_028.jpg	99
356.907	0.895	895.4	2back	Block1	2back/STIM_028.jpg	100
361.634	0.904	904.2	2back	Block1	2back/STIM_028.jpg	99
364.994	0.816	816.2	2back	Block1	2back/STIM_029.jpg	100
368.758	0.966	965.8	2back	Block1	2back/STIM_029.jpg	99
372.313	0.674	673.9	2back	Block1	2back/STIM_029.jpg	99
374.988	1.109	1109.0	2back	Block1	2back/STIM_030.jpg	100
378.997	0.994	993.8	2back	Block1	2back/STIM_030.jpg	99
383.234	1.091	1090.9	2back	Block1	2back/STIM_030.jpg	100
387.246	1.123	1123.0	2back	Block1	2back/STIM_031.jpg	100
390.86	1.15	1150.0	2back	Block1	2back/STIM_031.jpg	99
394.653	1.212	1212.0	2back	Block1	2back/STIM_031.jpg	99
399.511	1.238	1237.8	2back	Block1	2back/STIM_032.jpg	99
403.191	0.766	765.5	2back	Block1	2back/STIM_032.jpg	99
406.538	1.357	1356.7	2back	Block1	2back/STIM_032.jpg	99
411.073	1.652	1652.0	2back	Block1	2back/STIM_033.jpg	100
415.5	0.796	796.3	2back	Block1	2back/STIM_033.jpg	100
420.164	0.924	924.5	2back	Block1	2back/STIM_033.jpg	99
423.635	1.109	1108.6	2back	Block1	2back/STIM_034.jpg	99
427.715	1.651	1651.4	2back	Block1	2back/STIM_034.jpg	99
433.15	1.288	1288.4	2back	Block1	2back/STIM_034.jpg	100
437.076	1.416	1416.4	2back	Block1	2back/STIM_035.jpg	100
441.182	1.429	1429.1	2back	Block1	2back/STIM_035.jpg	100
445.998	1.035	1035.4	2back	Block1	2back/STIM_035.jpg	100
450.393	1.293	1293.3	2back	Block1	2back/STIM_036.jpg	99
454.829	0.74	740.1	2back	Block1	2back/STIM_036.jpg	100
458.299	0.77	769.5	2back	Block1	2back/STIM_036.jpg	100
462.696	1.534	1534.4	2back	Block1	2back/STIM_037.jpg	100
468.062	1.645	1645.1	2back	Block1	2back/STIM_037.jpg	100
473.154	1.396	1395.7	2back	Block1	2back/STIM_037.jpg	99
476.62	1.67	1670.3	2back	Block1	2back/STIM_038.jpg	100
482.195	0.842	842.0	2back	Block1	2back/STIM_038.jpg	100
486.882	1.077	1076.6	2back	Block1	2back/STIM_038.jpg	99
490.943	1.532	1532.5	2back	Block1	2back/STIM_039.jpg	99
495.977	0.832	831.7	2back	Block1	2back/STIM_039.jpg	100
499.575	0.817	817.0	2back	Block1	2back/STIM_039.jpg	99
503.832	0.716	716.2	0back	Block1	0back/STIM_000.jpg	100
506.829	0.695	694.8	0back	Block1	0back/STIM_000.jpg	99
511.047	0.784	784.0	0back	Block1	0back/STIM_000.jpg	100
515.353	0.937	936.7	0back	Block1	0back/STIM_001.jpg	100
518.75	0.979	978.9	0back	Block1	0back/STIM_001.jpg	99
522.334	0.88	879.8	0back	Block1	0back/STIM_001.jpg	99
526.724	0.858	857.8	0back	Block1	0back/STIM_002.jpg	99
531.011	0.592	592.3	0back	Block1	0back/STIM_002.jpg	99
535.03	0.872	871.6	0back	Block1	0back/STIM_002.jpg	99
539.344	0.885	884.6	0back	Block1	0back/STIM_003.jpg	100
543.842	0.64	640.4	0back	Block1	0back/STIM_003.jpg	99
547.873	0.961	961.4	0back	Block1	0back/STIM_003.jpg	99
551.422	0.528	528.2	0back	Block1	0back/STIM_004.jpg	99
553.977	0.642	641.5	0back	Block1	0back/STIM_004.jpg	99
557.363	0.565	565.0	0back	Block1	0back/STIM_004.jpg	100
561.375	0.764	763.7	0back	Block1	0back/STIM_005.jpg	100
565.486	0.554	554.1	0back	Block1	0back/STIM_005.jpg	100
569.592	0.717	717.4	0back	Block1	0back/STIM_005.jpg	100
573.904	0.901	901.4	0back	Block1	0back/STIM_006.jpg	99
577.221	0.775	774.7	0back	Block1	0back/STIM_006.jpg	100
580.08	0.913	913.3	0back	Block1	0back/STIM_006.jpg	100
584.843	0.812	811.9	0back	Block1	0back/STIM_007.jpg	100
588.592	0.658	657.9	0back	Block1	0back/STIM_007.jpg	99
593.189	0.907	906.6	0back	Block1	0back/STIM_007.jpg	100
597.585	0.784	783.9	0back	Block1	0back/STIM_008.jpg	100
600.592	0.848	847.5	0back	Block1	0back/STIM_008.jpg	100
604.414	0.632	631.8	0back	Block1	0back/STIM_008.jpg	100
608.993	0.609	609.4	0back	Block1	0back/STIM_009.jpg	99
611.711	0.783	783.0	0back	Block1	0back/STIM_009.jpg	99
615.091	0.968	968.4	0back	Block1	0back/STIM_009.jpg	100
618.883	0.984	984.0	0back	Block1	0back/STIM_010.jpg	99
622.805	0.829	828.9	0back	Block1	0back/STIM_010.jpg	100
626.699	0.792	791.8	0back	Block1	0back/STIM_010.jpg	100
630.71	0.648	647.7	0back	Block1	0back/STIM_011.jpg	99
633.966	0.642	642.5	0back	Block1	0back/STIM_011.jpg	99
638.298	0.553	552.7	0back	Block1	0back/STIM_011.jpg	100
641.98	0.716	716.1	0back	Block1	0back/STIM_012.jpg	100
644.805	0.836	835.6	0back	Block1	0back/STIM_012.jpg	99
648.289	0.622	622.1	0back	Block1	0back/STIM_012.jpg	99
652.135	0.836	836.1	0back	Block1	0back/STIM_013.jpg	99
656.853	0.876	875.5	0back	Block1	0back/STIM_013.jpg	99
660.439	0.742	742.1	0back	Block1	0back/STIM_013.jpg	100
665.103	0.499	498.8	0back	Block1	0back/STIM_014.jpg	99
668.024	0.764	764.2	0back	Block1	0back/STIM_014.jpg	99
671.384	0.586	585.5	0back	Block1	0back/STIM_014.jpg	100
675.753	0.85	850.1	0back	Block1	0back/STIM_015.jpg	100
679.627	0.902	901.5	0back	Block1	0back/STIM_015.jpg	100
683.67	0.991	990.9	0back	Block1	0back/STIM_015.jpg	100
688.553	0.95	949.8	0back	Block1	0back/STIM_016.jpg	99
692.139	0.859	858.8	0back	Block1	0back/STIM_016.jpg	99
695.265	0.693	693.0	0back	Block1	0back/STIM_016.jpg	100
698.06	0.532	532.4	0back	Block1	0back/STIM_017.jpg	100
700.937	0.641	640.8	0back	Block1	0back/STIM_017.jpg	99
703.952	0.513	513.2	0back	Block1	0back/STIM_017.jpg	99
707.158	0.638	638.4	0back	Block1	0back/STIM_018.jpg	100
710.782	0.725	724.9	0back	Block1	0back/STIM_018.jpg	100
715.035	0.902	902.3	0back	Block1	0back/STIM_018.jpg	99
719.097	0.573	572.9	0back	Block1	0back/STIM_019.jpg	100
722.349	0.816	815.7	0back	Block1	0back/STIM_019.jpg	99
726.004	0.965	965.0	0back	Block1	0back/STIM_019.jpg	100
729.614	0.772	771.7	2back	Block2	2back/STIM_000.jpg	99
733.935	1.391	1390.6	2back	Block2	2back/STIM_000.jpg	99
739.296	0.892	892.2	2back	Block2	2back/STIM_000.jpg	99
742.482	1.252	1251.7	2back	Block2	2back/STIM_001.jpg	100
747.658	1.286	1285.8	2back	Block2	2back/STIM_001.jpg	100
751.737	1.199	1199.1	2back	Block2	2back/STIM_001.jpg	100
755.16	1.289	1289.1	2back	Block2	2back/STIM_002.jpg	99
758.481	0.644	644.5	2back	Block2	2back/STIM_002.jpg	99
762.605	0.806	806.3	2back	Block2	2back/STIM_002.jpg	100
766.579	1.047	1047.4	2back	Block2	2back/STIM_003.jpg	100
771.371	0.89	890.4	2back	Block2	2back/STIM_003.jpg	99
775.419	1.296	1296.2	2back	Block2	2back/STIM_003.jpg	99
779.256	1.477	1477.0	2back	Block2	2back/STIM_004.jpg	99
783.555	0.719	719.2	2back	Block2	2back/STIM_004.jpg	100
787.614	0.776	776.0	2back	Block2	2back/STIM_004.jpg	100
791.545	0.97	969.5	2back	Block2	2back/STIM_005.jpg	100
795.196	1.013	1013.4	2back	Block2	2back/STIM_005.jpg	100
798.666	0.712	712.5	2back	Block2	2back/STIM_005.jpg	100
802.323	0.796	795.9	2back	Block2	2back/STIM_006.jpg	100
805.925	1.13	1129.9	2back	Block2	2back/STIM_006.jpg	100
810.004	1.21	1210.4	2back	Block2	2back/STIM_006.jpg	100
814.905	0.702	701.5	2back	Block2	2back/STIM_007.jpg	100
817.872	1.23	1230.4	2back	Block2	2back/STIM_007.jpg	100
822.405	0.636	635.9	2back	Block2	2back/STIM_007.jpg	100
826.508	0.758	758.3	2back	Block2	2back/STIM_008.jpg	99
829.828	0.942	942.1	2back	Block2	2back/STIM_008.jpg	100
833.729	0.856	855.8	2back	Block2	2back/STIM_008.jpg	100
838.279	1.348	1348.1	2back	Block2	2back/STIM_009.jpg	100
842.0	1.046	1046.3	2back	Block2	2back/STIM_009.jpg	99
846.808	0.913	912.7	2back	Block2	2back/STIM_009.jpg	99
849.857	0.667	667.2	2back	Block2	2back/STIM_010.jpg	99
853.733	0.876	876.1	2back	Block2	2back/STIM_010.jpg	99
856.884	0.583	583.3	2back	Block2	2back/STIM_010.jpg	99
860.763	1.187	1187.4	2back	Block2	2back/STIM_011.jpg	99
864.1	1.068	1067.9	2back	Block2	2back/STIM_011.jpg	99
867.674	0.969	968.9	2back	Block2	2back/STIM_011.jpg	99
871.132	1.065	1064.6	2back	Block2	2back/STIM_012.jpg	99
874.82	1.25	1249.9	2back	Block2	2back/STIM_012.jpg	100
878.118	0.97	970.4	2back	Block2	2back/STIM_012.jpg	100
881.907	0.859	859.3	2back	Block2	2back/STIM_013.jpg	99
885.994	1.315	1315.3	2back	Block2	2back/STIM_013.jpg	99
891.099	0.817	816.6	2back	Block2	2back/STIM_013.jpg	100
895.388	0.825	825.1	2back	Block2	2back/STIM_014.jpg	99
898.396	1.367	1367.2	2back	Block2	2back/STIM_014.jpg	100
903.013	1.173	1172.9	2back	Block2	2back/STIM_014.jpg	99
908.063	1.342	1341.5	2back	Block2	2back/STIM_015.jpg	99
912.371	0.652	651.6	2back	Block2	2back/STIM_015.jpg	100
915.126	1.16	1159.6	2back	Block2	2back/STIM_015.jpg	100
918.802	0.881	880.8	2back	Block2	2back/STIM_016.jpg	99
922.133	0.732	732.4	2back	Block2	2back/STIM_016.jpg	100
925.596	1.18	1180.5	2back	Block2	2back/STIM_016.jpg	99
929.484	1.145	1144.9	2back	Block2	2back/STIM_017.jpg	99
933.197	0.814	814.1	2back	Block2	2back/STIM_017.jpg	99
936.524	0.766	765.5	2back	Block2	2back/STIM_017.jpg	99
940.057	1.125	1125.0	2back	Block2	2back/STIM_018.jpg	99
944.935	1.302	1301.8	2back	Block2	2back/STIM_018.jpg	99
950.039	0.705	705.1	2back	Block2	2back/STIM_018.jpg	99
953.178	0.687	686.6	2back	Block2	2back/STIM_019.jpg	100
956.946	0.681	680.9	2back	Block2	2back/STIM_019.jpg	100
960.893	0.671	671.4	2back	Block2	2back/STIM_019.jpg	99
965.492	1.404	1404.3	2back	Block2	2back/STIM_020.jpg	100
970.72	1.284	1284.1	2back	Block2	2back/STIM_020.jpg	99
974.996	0.592	592.2	2back	Block2	2back/STIM_020.jpg	100
978.277	0.978	977.9	2back	Block2	2back/STIM_021.jpg	100
982.424	1.04	1039.6	2back	Block2	2back/STIM_021.jpg	100
985.503	1.062	1062.5	2back	Block2	2back/STIM_021.jpg	100
989.097	1.321	1321.4	2back	Block2	2back/STIM_022.jpg	99
993.876	1.18	1180.3	2back	Block2	2back/STIM_022.jpg	100
998.722	0.643	642.8	2back	Block2	2back/STIM_022.jpg	100
1001.443	0.7	700.3	2back	Block2	2back/STIM_023.jpg	100
1006.045	1.209	1208.7	2back	Block2	2back/STIM_023.jpg	99
1011.183	0.969	968.8	2back	Block2	2back/STIM_023.jpg	100
1014.55	1.292	1292.2	2back	Block2	2back/STIM_024.jpg	99
1019.558	1.358	1358.5	2back	Block2	2back/STIM_024.jpg	99
1024.661	0.656	655.8	2back	Block2	2back/STIM_024.jpg	100
1028.586	1.334	1333.8	2back	Block2	2back/STIM_025.jpg	100
1033.422	0.739	739.3	2back	Block2	2back/STIM_025.jpg	99
1037.208	0.715	715.2	2back	Block2	2back/STIM_025.jpg	100
1041.521	1.384	1384.3	2back	Block2	2back/STIM_026.jpg	99
1046.578	1.195	1194.9	2back	Block2	2back/STIM_026.jpg	99
1050.304	0.673	672.8	2back	Block2	2back/STIM_026.jpg	99
1054.242	0.931	930.9	2back	Block2	2back/STIM_027.jpg	100
1058.587	0.982	982.2	2back	Block2	2back/STIM_027.jpg	100
1063.226	0.878	877.7	2back	Block2	2back/STIM_027.jpg	100
1066.437	0.815	815.1	2back	Block2	2back/STIM_028.jpg	99
1070.903	0.94	939.6	2back	Block2	2back/STIM_028.jpg	100
1073.988	1.15	1149.9	2back	Block2	2back/STIM_028.jpg	99
1077.819	0.73	729.9	2back	Block2	2back/STIM_029.jpg	99
1080.712	1.116	1115.7	2back	Block2	2back/STIM_029.jpg	100
1085.047	0.672	672.4	2back	Block2	2back/STIM_029.jpg	100
1087.77	1.11	1109.7	2back	Block2	2back/STIM_030.jpg	100
1091.636	0.664	664.5	2back	Block2	2back/STIM_030.jpg	100
1094.369	1.162	1162.1	2back	Block2	2back/STIM_030.jpg	100
1099.386	0.985	985.4	2back	Block2	2back/STIM_031.jpg	100
1104.165	0.75	750.3	2back	Block2	2back/STIM_031.jpg	100
1108.444	0.695	694.8	2back	Block2	2back/STIM_031.jpg	100
1112.568	1.019	1019.4	2back	Block2	2back/STIM_032.jpg	99
1116.925	0.704	704.3	2back	Block2	2back/STIM_032.jpg	100
1121.283	0.975	974.6	2back	Block2	2back/STIM_032.jpg	99
1125.899	0.715	714.9	2back	Block2	2back/STIM_033.jpg	99
1129.999	0.637	636.9	2back	Block2	2back/STIM_033.jpg	99
1134.144	0.6	599.7	2back	Block2	2back/STIM_033.jpg	100
1138.444	1.296	1295.5	2back	Block2	2back/STIM_034.jpg	99
1142.528	1.255	1255.0	2back	Block2	2back/STIM_034.jpg	99
1147.139	1.179	1179.4	2back	Block2	2back/STIM_034.jpg	99
1151.157	1.279	1278.6	2back	Block2	2back/STIM_035.jpg	99
1154.627	1.185	1185.3	2back	Block2	2back/STIM_035.jpg	100
1158.373	1.069	1069.3	2back	Block2	2back/STIM_035.jpg	100
1162.772	0.951	951.4	2back	Block2	2back/STIM_036.jpg	99
1166.873	0.892	892.5	2back	Block2	2back/STIM_036.jpg	100
1170.441	0.936	935.6	2back	Block2	2back/STIM_036.jpg	100
1173.738	0.785	784.8	2back	Block2	2back/STIM_037.jpg	99
1177.251	0.627	627.1	2back	Block2	2back/STIM_037.jpg	100
1180.103	0.912	912.4	2back	Block2	2back/STIM_037.jpg	100
1184.1	0.883	883.4	2back	Block2	2back/STIM_038.jpg	99
1187.407	1.126	1126.2	2back	Block2	2back/STIM_038.jpg	100
1191.759	0.6	599.5	2back	Block2	2back/STIM_038.jpg	100
1195.955	1.224	1224.4	2back	Block2	2back/STIM_039.jpg	99
1199.506	1.231	1230.8	2back	Block2	2back/STIM_039.jpg	99
1204.28	0.654	654.2	2back	Block2	2back/STIM_039.jpg	99
1208.529	0.773	772.9	0back	Block2	0back/STIM_000.jpg	100
1212.956	0.536	535.7	0back	Block2	0back/STIM_000.jpg	100
1217.459	0.669	668.9	0back	Block2	0back/STIM_000.jpg	100
1221.154	0.847	846.9	0back	Block2	0back/STIM_001.jpg	99
1225.682	0.74	740.2	0back	Block2	0back/STIM_001.jpg	99
1229.098	0.52	520.4	0back	Block2	0back/STIM_001.jpg	100
1232.675	0.948	947.5	0back	Block2	0back/STIM_002.jpg	99
1236.414	0.535	534.9	0back	Block2	0back/STIM_002.jpg	99
1240.637	0.797	796.6	0back	Block2	0back/STIM_002.jpg	100
1245.227	0.552	552.1	0back	Block2	0back/STIM_003.jpg	100
1249.761	0.736	735.8	0back	Block2	0back/STIM_003.jpg	100
1254.292	0.878	877.6	0back	Block2	0back/STIM_003.jpg	100
1257.508	0.639	639.2	0back	Block2	0back/STIM_004.jpg	99
1260.538	0.499	498.8	0back	Block2	0back/STIM_004.jpg	99
1263.103	0.557	557.4	0back	Block2	0back/STIM_004.jpg	100
1267.59	0.972	971.9	0back	Block2	0back/STIM_005.jpg	100
1271.595	0.514	513.5	0back	Block2	0back/STIM_005.jpg	99
1275.087	0.908	908.5	0back	Block2	0back/STIM_005.jpg	99
1279.438	0.593	593.0	0back	Block2	0back/STIM_006.jpg	99
1282.382	0.616	615.6	0back	Block2	0back/STIM_006.jpg	100
1285.774	0.61	609.5	0back	Block2	0back/STIM_006.jpg	100
1289.805	0.502	502.3	0back	Block2	0back/STIM_007.jpg	99
1293.775	0.588	588.5	0back	Block2	0back/STIM_007.jpg	99
1297.648	0.831	831.4	0back	Block2	0back/STIM_007.jpg	100
1300.745	0.62	619.6	0back	Block2	0back/STIM_008.jpg	100
1305.283	0.779	779.2	0back	Block2	0back/STIM_008.jpg	99
1308.508	0.876	875.6	0back	Block2	0back/STIM_008.jpg	100
1312.44	0.526	526.3	0back	Block2	0back/STIM_009.jpg	99
1315.03	0.714	714.3	0back	Block2	0back/STIM_009.jpg	100
1319.048	0.659	659.3	0back	Block2	0back/STIM_009.jpg	99
1321.739	0.803	802.6	0back	Block2	0back/STIM_010.jpg	99
1326.527	0.789	789.2	0back	Block2	0back/STIM_010.jpg	100
1331.082	0.982	982.4	0back	Block2	0back/STIM_010.jpg	99
1335.75	0.961	961.0	0back	Block2	0back/STIM_011.jpg	99
1340.406	0.742	741.7	0back	Block2	0back/STIM_011.jpg	100
1343.627	0.553	552.9	0back	Block2	0back/STIM_011.jpg	99
1347.491	0.682	681.7	0back	Block2	0back/STIM_012.jpg	99
1351.292	0.721	721.4	0back	Block2	0back/STIM_012.jpg	100
1354.297	0.518	518.1	0back	Block2	0back/STIM_012.jpg	100
1356.91	0.557	557.3	0back	Block2	0back/STIM_013.jpg	100
1360.751	0.829	829.4	0back	Block2	0back/STIM_013.jpg	100
1363.856	0.861	861.3	0back	Block2	0back/STIM_013.jpg	100
1366.763	0.753	752.6	0back	Block2	0back/STIM_014.jpg	100
1370.827	0.83	830.2	0back	Block2	0back/STIM_014.jpg	100
1373.666	0.831	831.4	0back	Block2	0back/STIM_014.jpg	99
1378.296	0.804	803.6	0back	Block2	0back/STIM_015.jpg	99
1381.974	0.626	626.0	0back	Block2	0back/STIM_015.jpg	100
1385.089	0.935	934.6	0back	Block2	0back/STIM_015.jpg	99
1388.342	0.813	813.1	0back	Block2	0back/STIM_016.jpg	100
1392.229	0.572	571.5	0back	Block2	0back/STIM_016.jpg	99
1396.778	0.759	758.7	0back	Block2	0back/STIM_016.jpg	100
1401.504	0.77	770.4	0back	Block2	0back/STIM_017.jpg	99
1405.425	0.926	925.7	0back	Block2	0back/STIM_017.jpg	100
1409.158	0.6	600.2	0back	Block2	0back/STIM_017.jpg	100
1413.36	0.761	761.3	0back	Block2	0back/STIM_018.jpg	100
1417.688	0.687	687.0	0back	Block2	0back/STIM_018.jpg	99
1421.132	0.659	659.0	0back	Block2	0back/STIM_018.jpg	100
1425.008	0.648	647.6	0back	Block2	0back/STIM_019.jpg	100
1428.977	0.932	931.7	0back	Block2	0back/STIM_019.jpg	99
1433.152	0.875	875.4	0back	Block2	0back/STIM_019.jpg	99
1436.543	0.564	563.9	2back	Block3	2back/STIM_000.jpg	100
1439.999	0.954	953.7	2back	Block3	2back/STIM_000.jpg	99
1443.408	0.911	911.3	2back	Block3	2back/STIM_000.jpg	99
1447.824	0.652	652.1	2back	Block3	2back/STIM_001.jpg	99
1452.038	0.941	941.3	2back	Block3	2back/STIM_001.jpg	100
1455.535	0.892	891.5	2back	Block3	2back/STIM_001.jpg	100
1459.724	0.803	803.1	2back	Block3	2back/STIM_002.jpg	99
1463.171	0.674	673.9	2back	Block3	2back/STIM_002.jpg	100
1466.63	0.946	946.0	2back	Block3	2back/STIM_002.jpg	99
1470.656	1.182	1182.3	2back	Block3	2back/STIM_003.jpg	100
1474.776	0.589	588.6	2back	Block3	2back/STIM_003.jpg	100
1478.782	0.59	590.0	2back	Block3	2back/STIM_003.jpg	99
1483.34	1.056	1056.4	2back	Block3	2back/STIM_004.jpg	99
1487.243	1.149	1149.3	2back	Block3	2back/STIM_004.jpg	100
1490.686	1.005	1005.1	2back	Block3	2back/STIM_004.jpg	100
1495.535	0.852	851.9	2back	Block3	2back/STIM_005.jpg	99
1498.81	1.215	1215.1	2back	Block3	2back/STIM_005.jpg	99
1503.657	0.636	635.6	2back	Block3	2back/STIM_005.jpg	99
1508.166	0.777	776.9	2back	Block3	2back/STIM_006.jpg	99
1511.3	0.578	577.8	2back	Block3	2back/STIM_006.jpg	100
1515.483	1.189	1188.9	2back	Block3	2back/STIM_006.jpg	100
1520.087	1.025	1025.3	2back	Block3	2back/STIM_007.jpg	99
1523.309	1.218	1218.1	2back	Block3	2back/STIM_007.jpg	99
1526.639	0.95	949.6	2back	Block3	2back/STIM_007.jpg	100
1531.105	0.966	965.9	2back	Block3	2back/STIM_008.jpg	99
1534.495	1.17	1170.1	2back	Block3	2back/STIM_008.jpg	99
1539.293	0.825	825.4	2back	Block3	2back/STIM_008.jpg	99
1543.724	0.628	628.4	2back	Block3	2back/STIM_009.jpg	99
1547.125	1.196	1196.0	2back	Block3	2back/STIM_009.jpg	99
1552.224	1.103	1103.4	2back	Block3	2back/STIM_009.jpg	99
1556.075	0.58	580.4	2back	Block3	2back/STIM_010.jpg	99
1560.324	0.864	864.1	2back	Block3	2back/STIM_010.jpg	99
1563.948	1.087	1087.3	2back	Block3	2back/STIM_010.jpg	100
1567.695	1.183	1182.8	2back	Block3	2back/STIM_011.jpg	100
1572.399	1.128	1128.5	2back	Block3	2back/STIM_011.jpg	99
1576.017	1.051	1051.2	2back	Block3	2back/STIM_011.jpg	99
1579.709	0.861	860.9	2back	Block3	2back/STIM_012.jpg	100
1584.175	1.026	1026.5	2back	Block3	2back/STIM_012.jpg	100
1588.904	0.936	936.0	2back	Block3	2back/STIM_012.jpg	99
1592.749	0.99	989.5	2back	Block3	2back/STIM_013.jpg	100
1597.463	0.61	610.3	2back	Block3	2back/STIM_013.jpg	100
1601.896	0.769	768.8	2back	Block3	2back/STIM_013.jpg	100
1604.736	0.744	744.3	2back	Block3	2back/STIM_014.jpg	100
1609.225	0.891	891.4	2back	Block3	2back/STIM_014.jpg	99
1613.153	0.742	742.4	2back	Block3	2back/STIM_014.jpg	99
1616.45	0.913	913.1	2back	Block3	2back/STIM_015.jpg	100
1620.418	1.184	1184.4	2back	Block3	2back/STIM_015.jpg	99
1625.55	1.044	1043.7	2back	Block3	2back/STIM_015.jpg	100
1629.576	0.963	963.0	2back	Block3	2back/STIM_016.jpg	99
1633.361	0.539	539.1	2back	Block3	2back/STIM_016.jpg	100
1637.576	0.681	681.0	2back	Block3	2back/STIM_016.jpg	100
1641.821	0.701	701.2	2back	Block3	2back/STIM_017.jpg	99
1646.219	0.691	691.1	2back	Block3	2back/STIM_017.jpg	100
1649.703	0.688	688.4	2back	Block3	2back/STIM_017.jpg	99
1652.407	0.684	684.2	2back	Block3	2back/STIM_018.jpg	99
1655.177	0.856	856.2	2back	Block3	2back/STIM_018.jpg	100
1658.754	0.886	886.3	2back	Block3	2back/STIM_018.jpg	99
1662.145	1.188	1187.8	2back	Block3	2back/STIM_019.jpg	100
1667.293	0.986	986.4	2back	Block3	2back/STIM_019.jpg	99
1670.411	0.651	650.6	2back	Block3	2back/STIM_019.jpg	99
1673.291	1.206	1205.9	2back	Block3	2back/STIM_020.jpg	100
1676.649	0.906	906.0	2back	Block3	2back/STIM_020.jpg	100
1679.735	0.701	701.4	2back	Block3	2back/STIM_020.jpg	99
1683.095	0.523	523.3	2back	Block3	2back/STIM_021.jpg	100
1687.514	0.558	558.4	2back	Block3	2back/STIM_021.jpg	99
1690.35	1.125	1125.1	2back	Block3	2back/STIM_021.jpg	100
1693.631	0.976	976.2	2back	Block3	2back/STIM_022.jpg	100
1697.901	1.158	1157.8	2back	Block3	2back/STIM_022.jpg	99
1702.308	1.18	1180.4	2back	Block3	2back/STIM_022.jpg	100
1706.766	1.146	1146.4	2back	Block3	2back/STIM_023.jpg	99
1711.613	0.841	840.9	2back	Block3	2back/STIM_023.jpg	99
1714.778	0.803	803.3	2back	Block3	2back/STIM_023.jpg	99
1718.124	0.758	757.7	2back	Block3	2back/STIM_024.jpg	99
1722.417	1.073	1073.0	2back	Block3	2back/STIM_024.jpg	99
1726.868	0.922	921.6	2back	Block3	2back/STIM_024.jpg	99
1731.583	0.814	813.8	2back	Block3	2back/STIM_025.jpg	100
1736.019	1.002	1002.3	2back	Block3	2back/STIM_025.jpg	99
1740.886	1.002	1002.0	2back	Block3	2back/STIM_025.jpg	100
1745.042	1.064	1063.5	2back	Block3	2back/STIM_026.jpg	100
1749.868	0.562	562.0	2back	Block3	2back/STIM_026.jpg	99
1753.608	0.841	841.1	2back	Block3	2back/STIM_026.jpg	100
1757.166	0.904	903.7	2back	Block3	2back/STIM_027.jpg	100
1760.772	1.187	1187.2	2back	Block3	2back/STIM_027.jpg	100
1765.299	0.818	818.3	2back	Block3	2back/STIM_027.jpg	99
1769.223	0.599	598.6	2back	Block3	2back/STIM_028.jpg	99
1773.448	0.699	699.3	2back	Block3	2back/STIM_028.jpg	99
1777.311	0.978	978.3	2back	Block3	2back/STIM_028.jpg	100
1781.521	0.655	655.2	2back	Block3	2back/STIM_029.jpg	100
1784.803	0.748	748.2	2back	Block3	2back/STIM_029.jpg	100
1788.514	0.66	659.7	2back	Block3	2back/STIM_029.jpg	100
1791.906	1.196	1196.5	2back	Block3	2back/STIM_030.jpg	99
1795.237	0.926	925.8	2back	Block3	2back/STIM_030.jpg	99
1799.477	0.949	948.8	2back	Block3	2back/STIM_030.jpg	100
1803.804	0.652	651.6	2back	Block3	2back/STIM_031.jpg	100
1806.598	0.926	925.8	2back	Block3	2back/STIM_031.jpg	100
1810.123	0.62	619.8	2back	Block3	2back/STIM_031.jpg	99
1814.076	0.995	994.6	2back	Block3	2back/STIM_032.jpg	100
1818.686	0.546	545.7	2back	Block3	2back/STIM_032.jpg	100
1822.738	0.755	754.6	2back	Block3	2back/STIM_032.jpg	99
1826.199	0.69	690.1	2back	Block3	2back/STIM_033.jpg	100
1829.5	1.114	1114.3	2back	Block3	2back/STIM_033.jpg	99
1833.8	0.874	873.7	2back	Block3	2back/STIM_033.jpg	100
1837.415	1.072	1071.9	2back	Block3	2back/STIM_034.jpg	100
1841.188	0.654	654.2	2back	Block3	2back/STIM_034.jpg	100
1844.55	1.093	1092.9	2back	Block3	2back/STIM_034.jpg	99
1847.668	0.966	965.9	2back	Block3	2back/STIM_035.jpg	99
1851.871	0.634	634.4	2back	Block3	2back/STIM_035.jpg	100
1855.175	1.039	1038.8	2back	Block3	2back/STIM_035.jpg	99
1859.715	0.995	995.3	2back	Block3	2back/STIM_036.jpg	99
1863.757	0.714	713.8	2back	Block3	2back/STIM_036.jpg	99
1867.498	1.068	1068.5	2back	Block3	2back/STIM_036.jpg	100
1871.491	1.178	1177.9	2back	Block3	2back/STIM_037.jpg	100
1876.104	0.749	749.0	2back	Block3	2back/STIM_037.jpg	99
1879.537	1.022	1021.9	2back	Block3	2back/STIM_037.jpg	100
1883.681	0.67	669.9	2back	Block3	2back/STIM_038.jpg	100
1887.666	0.666	666.4	2back	Block3	2back/STIM_038.jpg	100
1890.828	1.164	1164.1	2back	Block3	2back/STIM_038.jpg	99
1895.481	1.038	1038.2	2back	Block3	2back/STIM_039.jpg	100
1899.576	1.092	1091.6	2back	Block3	2back/STIM_039.jpg	99
1904.398	1.125	1124.8	2back	Block3	2back/STIM_039.jpg	99
1909.011	0.566	565.9	0back	Block3	0back/STIM_000.jpg	100
1913.191	0.908	908.4	0back	Block3	0back/STIM_000.jpg	100
1916.556	0.686	685.8	0back	Block3	0back/STIM_000.jpg	100
1919.84	0.847	846.6	0back	Block3	0back/STIM_001.jpg	99
1923.119	0.933	932.9	0back	Block3	0back/STIM_001.jpg	99
1926.781	0.902	902.2	0back	Block3	0back/STIM_001.jpg	99
1929.99	0.542	542.1	0back	Block3	0back/STIM_002.jpg	100
1933.8	0.718	717.9	0back	Block3	0back/STIM_002.jpg	100
1938.203	0.843	843.4	0back	Block3	0back/STIM_002.jpg	99
1941.553	0.664	664.1	0back	Block3	0back/STIM_003.jpg	99
1945.195	0.916	916.3	0back	Block3	0back/STIM_003.jpg	99
1949.955	0.511	510.6	0back	Block3	0back/STIM_003.jpg	100
1953.545	0.741	740.6	0back	Block3	0back/STIM_004.jpg	100
1956.883	0.584	584.1	0back	Block3	0back/STIM_004.jpg	100
1960.903	0.954	953.6	0back	Block3	0back/STIM_004.jpg	99
1965.564	0.961	961.0	0back	Block3	0back/STIM_005.jpg	100
1968.533	0.913	913.2	0back	Block3	0back/STIM_005.jpg	99
1971.869	0.74	740.1	0back	Block3	0back/STIM_005.jpg	100
1974.84	0.986	985.9	0back	Block3	0back/STIM_006.jpg	99
1979.635	0.72	720.3	0back	Block3	0back/STIM_006.jpg	100
1983.815	0.708	707.9	0back	Block3	0back/STIM_006.jpg	100
1987.146	0.784	783.7	0back	Block3	0back/STIM_007.jpg	100
1990.855	0.889	889.0	0back	Block3	0back/STIM_007.jpg	99
1995.438	0.601	600.7	0back	Block3	0back/STIM_007.jpg	99
1999.219	0.76	759.9	0back	Block3	0back/STIM_008.jpg	99
2002.365	0.519	518.7	0back	Block3	0back/STIM_008.jpg	99
2006.534	0.96	960.0	0back	Block3	0back/STIM_008.jpg	99
2010.579	0.777	777.3	0back	Block3	0back/STIM_009.jpg	100
2013.987	0.736	736.1	0back	Block3	0back/STIM_009.jpg	99
2017.626	0.965	964.7	0back	Block3	0back/STIM_009.jpg	99
2022.569	0.556	556.3	0back	Block3	0back/STIM_010.jpg	100
2025.839	0.733	733.4	0back	Block3	0back/STIM_010.jpg	99
2030.186	0.704	704.2	0back	Block3	0back/STIM_010.jpg	99
2033.975	0.559	559.4	0back	Block3	0back/STIM_011.jpg	99
2037.778	0.747	746.6	0back	Block3	0back/STIM_011.jpg	100
2040.561	0.627	626.9	0back	Block3	0back/STIM_011.jpg	100
2043.88	0.508	508.2	0back	Block3	0back/STIM_012.jpg	100
2047.885	0.76	760.2	0back	Block3	0back/STIM_012.jpg	99
2050.985	0.746	746.4	0back	Block3	0back/STIM_012.jpg	100
2053.809	0.547	547.4	0back	Block3	0back/STIM_013.jpg	99
2057.019	0.909	908.7	0back	Block3	0back/STIM_013.jpg	100
2061.514	0.724	724.0	0back	Block3	0back/STIM_013.jpg	99
2065.612	0.808	808.1	0back	Block3	0back/STIM_014.jpg	100
2069.334	0.651	650.6	0back	Block3	0back/STIM_014.jpg	99
2072.81	0.844	844.2	0back	Block3	0back/STIM_014.jpg	99
2077.315	0.682	681.8	0back	Block3	0back/STIM_015.jpg	100
2080.338	0.555	555.1	0back	Block3	0back/STIM_015.jpg	99
2084.731	0.927	926.8	0back	Block3	0back/STIM_015.jpg	100
2087.67	0.797	797.4	0back	Block3	0back/STIM_016.jpg	100
2092.45	0.707	706.8	0back	Block3	0back/STIM_016.jpg	99
2096.622	0.62	619.5	0back	Block3	0back/STIM_016.jpg	99
2100.806	0.718	717.5	0back	Block3	0back/STIM_017.jpg	100
2105.303	0.579	579.2	0back	Block3	0back/STIM_017.jpg	100
2108.964	0.58	579.7	0back	Block3	0back/STIM_017.jpg	99
2112.18	0.785	784.6	0back	Block3	0back/STIM_018.jpg	100
2116.087	0.558	558.0	0back	Block3	0back/STIM_018.jpg	100
2119.875	0.64	640.4	0back	Block3	0back/STIM_018.jpg	100
2122.634	0.746	746.5	0back	Block3	0back/STIM_019.jpg	100
2126.665	0.97	969.7	0back	Block3	0back/STIM_019.jpg	99
2131.53	0.541	541.4	0back	Block3	0back/STIM_019.jpg	99
2134.668	0.826	826.5	2back	Block4	2back/STIM_000.jpg	100
2138.826	1.022	1021.5	2back	Block4	2back/STIM_000.jpg	99
2143.49	1.099	1098.9	2back	Block4	2back/STIM_000.jpg	99
2147.003	0.593	593.2	2back	Block4	2back/STIM_001.jpg	99
2150.673	0.764	764.4	2back	Block4	2back/STIM_001.jpg	100
2153.905	0.834	834.2	2back	Block4	2back/STIM_001.jpg	100
2157.078	0.984	983.9	2back	Block4	2back/STIM_002.jpg	100
2161.839	1.11	1110.2	2back	Block4	2back/STIM_002.jpg	99
2166.509	1.133	1132.7	2back	Block4	2back/STIM_002.jpg	99
2170.568	0.654	654.3	2back	Block4	2back/STIM_003.jpg	99
2174.17	0.865	864.8	2back	Block4	2back/STIM_003.jpg	100
2177.176	0.792	792.2	2back	Block4	2back/STIM_003.jpg	100
2180.179	0.83	830.4	2back	Block4	2back/STIM_004.jpg	100
2183.471	1.124	1124.2	2back	Block4	2back/STIM_004.jpg	99
2186.67	0.664	663.6	2back	Block4	2back/STIM_004.jpg	100
2189.823	1.123	1122.7	2back	Block4	2back/STIM_005.jpg	100
2193.806	1.114	1113.7	2back	Block4	2back/STIM_005.jpg	99
2197.837	0.611	611.4	2back	Block4	2back/STIM_005.jpg	99
2201.825	0.98	979.9	2back	Block4	2back/STIM_006.jpg	100
2206.484	1.027	1027.1	2back	Block4	2back/STIM_006.jpg	100
2210.142	1.052	1051.8	2back	Block4	2back/STIM_006.jpg	99
2214.086	1.185	1185.4	2back	Block4	2back/STIM_007.jpg	100
2218.058	0.587	587.0	2back	Block4	2back/STIM_007.jpg	100
2222.501	1.134	1134.1	2back	Block4	2back/STIM_007.jpg	99
2226.777	0.886	885.6	2back	Block4	2back/STIM_008.jpg	100
2231.61	1.204	1204.2	2back	Block4	2back/STIM_008.jpg	100
2236.601	0.909	909.2	2back	Block4	2back/STIM_008.jpg	99
2240.764	1.087	1086.9	2back	Block4	2back/STIM_009.jpg	100
2244.099	0.526	526.1	2back	Block4	2back/STIM_009.jpg	100
2247.402	1.217	1216.9	2back	Block4	2back/STIM_009.jpg	99
2251.796	0.693	692.9	2back	Block4	2back/STIM_010.jpg	99
2256.348	0.606	606.4	2back	Block4	2back/STIM_010.jpg	100
2259.148	0.922	922.4	2back	Block4	2back/STIM_010.jpg	99
2263.67	1.047	1046.6	2back	Block4	2back/STIM_011.jpg	99
2267.515	0.783	782.6	2back	Block4	2back/STIM_011.jpg	99
2272.262	0.719	718.7	2back	Block4	2back/STIM_011.jpg	99
2276.615	1.195	1195.2	2back	Block4	2back/STIM_012.jpg	100
2281.095	1.068	1068.2	2back	Block4	2back/STIM_012.jpg	99
2284.235	0.793	792.7	2back	Block4	2back/STIM_012.jpg	99
2287.808	0.877	877.0	2back	Block4	2back/STIM_013.jpg	99
2291.355	0.782	782.1	2back	Block4	2back/STIM_013.jpg	100
2295.125	1.07	1070.2	2back	Block4	2back/STIM_013.jpg	100
2299.486	0.778	778.5	2back	Block4	2back/STIM_014.jpg	99
2303.446	1.101	1100.6	2back	Block4	2back/STIM_014.jpg	100
2308.21	0.812	812.5	2back	Block4	2back/STIM_014.jpg	99
2311.536	0.578	577.8	2back	Block4	2back/STIM_015.jpg	100
2315.264	0.808	807.7	2back	Block4	2back/STIM_015.jpg	100
2318.946	1.058	1057.6	2back	Block4	2back/STIM_015.jpg	99
2323.753	0.598	598.0	2back	Block4	2back/STIM_016.jpg	99
2328.19	0.626	625.5	2back	Block4	2back/STIM_016.jpg	99
2331.378	1.202	1202.5	2back	Block4	2back/STIM_016.jpg	99
2335.33	0.853	852.8	2back	Block4	2back/STIM_017.jpg	100
2338.462	0.804	803.7	2back	Block4	2back/STIM_017.jpg	99
2342.455	0.744	744.1	2back	Block4	2back/STIM_017.jpg	99
2345.329	0.616	616.3	2back	Block4	2back/STIM_018.jpg	100
2349.481	1.037	1037.0	2back	Block4	2back/STIM_018.jpg	99
2353.855	0.924	923.6	2back	Block4	2back/STIM_018.jpg	99
2358.085	1.179	1178.6	2back	Block4	2back/STIM_019.jpg	100
2362.225	1.086	1085.5	2back	Block4	2back/STIM_019.jpg	99
2366.071	0.981	981.0	2back	Block4	2back/STIM_019.jpg	99
2370.904	0.606	606.5	2back	Block4	2back/STIM_020.jpg	100
2374.686	0.67	669.6	2back	Block4	2back/STIM_020.jpg	99
2378.912	1.102	1102.2	2back	Block4	2back/STIM_020.jpg	100
2383.293	0.779	778.6	2back	Block4	2back/STIM_021.jpg	100
2386.086	1.157	1156.9	2back	Block4	2back/STIM_021.jpg	100
2389.839	0.736	735.9	2back	Block4	2back/STIM_021.jpg	99
2393.428	1.117	1116.6	2back	Block4	2back/STIM_022.jpg	100
2396.621	0.848	847.9	2back	Block4	2back/STIM_022.jpg	99
2399.567	0.699	698.8	2back	Block4	2back/STIM_022.jpg	100
2402.59	0.88	880.1	2back	Block4	2back/STIM_023.jpg	100
2406.499	0.883	883.3	2back	Block4	2back/STIM_023.jpg	100
2411.016	0.907	907.3	2back	Block4	2back/STIM_023.jpg	99
2414.118	0.988	988.5	2back	Block4	2back/STIM_024.jpg	100
2417.777	0.578	577.8	2back	Block4	2back/STIM_024.jpg	100
2422.338	1.148	1147.7	2back	Block4	2back/STIM_024.jpg	99
2427.355	0.962	962.1	2back	Block4	2back/STIM_025.jpg	99
2431.821	1.21	1210.5	2back	Block4	2back/STIM_025.jpg	100
2435.368	0.928	928.5	2back	Block4	2back/STIM_025.jpg	100
2439.907	0.573	572.7	2back	Block4	2back/STIM_026.jpg	100
2444.33	0.72	719.9	2back	Block4	2back/STIM_026.jpg	99
2448.473	1.135	1135.4	2back	Block4	2back/STIM_026.jpg	99
2453.352	0.6	599.7	2back	Block4	2back/STIM_027.jpg	99
2457.834	0.587	587.3	2back	Block4	2back/STIM_027.jpg	99
2460.763	0.948	948.2	2back	Block4	2back/STIM_027.jpg	99
2465.421	0.653	653.4	2back	Block4	2back/STIM_028.jpg	99
2468.567	0.928	928.4	2back	Block4	2back/STIM_028.jpg	100
2472.636	1.112	1112.4	2back	Block4	2back/STIM_028.jpg	100
2476.204	0.689	688.7	2back	Block4	2back/STIM_029.jpg	99
2479.049	0.597	596.8	2back	Block4	2back/STIM_029.jpg	99
2481.925	0.651	650.9	2back	Block4	2back/STIM_029.jpg	99
2485.007	0.819	819.3	2back	Block4	2back/STIM_030.jpg	99
2488.01	0.942	941.6	2back	Block4	2back/STIM_030.jpg	99
2491.215	0.884	884.3	2back	Block4	2back/STIM_030.jpg	100
2494.679	1.186	1185.7	2back	Block4	2back/STIM_031.jpg	100
2498.263	0.738	738.1	2back	Block4	2back/STIM_031.jpg	100
2501.595	0.656	655.7	2back	Block4	2back/STIM_031.jpg	99
2505.022	0.732	731.7	2back	Block4	2back/STIM_032.jpg	99
2507.992	1.18	1179.6	2back	Block4	2back/STIM_032.jpg	100
2513.088	0.63	629.7	2back	Block4	2back/STIM_032.jpg	99
2516.828	0.613	612.6	2back	Block4	2back/STIM_033.jpg	99
2520.397	0.723	722.9	2back	Block4	2back/STIM_033.jpg	99
2524.049	1.062	1061.8	2back	Block4	2back/STIM_033.jpg	100
2528.675	0.836	835.9	2back	Block4	2back/STIM_034.jpg	100
2533.314	1.219	1218.7	2back	Block4	2back/STIM_034.jpg	100
2536.784	0.748	748.0	2back	Block4	2back/STIM_034.jpg	99
2540.09	1.05	1050.2	2back	Block4	2back/STIM_035.jpg	100
2544.172	1.066	1066.2	2back	Block4	2back/STIM_035.jpg	100
2547.691	0.761	761.3	2back	Block4	2back/STIM_035.jpg	99
2551.866	1.064	1063.9	2back	Block4	2back/STIM_036.jpg	100
2555.25	0.723	723.0	2back	Block4	2back/STIM_036.jpg	100
2559.61	1.044	1044.0	2back	Block4	2back/STIM_036.jpg	99
2563.71	0.734	734.1	2back	Block4	2back/STIM_037.jpg	100
2567.454	0.57	569.9	2back	Block4	2back/STIM_037.jpg	99
2570.564	0.734	733.8	2back	Block4	2back/STIM_037.jpg	99
2574.879	0.744	743.8	2back	Block4	2back/STIM_038.jpg	99
2578.08	1.206	1205.7	2back	Block4	2back/STIM_038.jpg	99
2581.734	1.107	1106.7	2back	Block4	2back/STIM_038.jpg	99
2585.573	1.104	1104.0	2back	Block4	2back/STIM_039.jpg	99
2590.087	1.105	1105.4	2back	Block4	2back/STIM_039.jpg	100
2595.126	0.78	780.3	2back	Block4	2back/STIM_039.jpg	100
2599.803	0.564	564.0	0back	Block4	0back/STIM_000.jpg	100
2602.369	0.62	619.8	0back	Block4	0back/STIM_000.jpg	99
2605.717	0.733	733.2	0back	Block4	0back/STIM_000.jpg	99
2608.888	0.586	586.5	0back	Block4	0back/STIM_001.jpg	100
2612.729	0.952	952.3	0back	Block4	0back/STIM_001.jpg	99
2616.848	0.671	671.0	0back	Block4	0back/STIM_001.jpg	99
2619.533	0.736	735.5	0back	Block4	0back/STIM_002.jpg	100
2623.565	0.678	678.5	0back	Block4	0back/STIM_002.jpg	100
2627.946	0.733	733.1	0back	Block4	0back/STIM_002.jpg	99
2631.778	0.863	862.6	0back	Block4	0back/STIM_003.jpg	100
2635.861	0.717	717.1	0back	Block4	0back/STIM_003.jpg	100
2639.212	0.968	968.0	0back	Block4	0back/STIM_003.jpg	99
2642.19	0.506	505.9	0back	Block4	0back/STIM_004.jpg	99
2644.941	0.79	790.2	0back	Block4	0back/STIM_004.jpg	100
2649.661	0.822	821.5	0back	Block4	0back/STIM_004.jpg	99
2653.029	0.875	874.6	0back	Block4	0back/STIM_005.jpg	100
2656.239	0.587	587.2	0back	Block4	0back/STIM_005.jpg	99
2658.899	0.824	823.7	0back	Block4	0back/STIM_005.jpg	99
2662.512	0.96	960.5	0back	Block4	0back/STIM_006.jpg	100
2665.67	0.583	583.3	0back	Block4	0back/STIM_006.jpg	99
2668.46	0.874	874.4	0back	Block4	0back/STIM_006.jpg	100
2673.136	0.51	509.6	0back	Block4	0back/STIM_007.jpg	100
2676.073	0.503	503.0	0back	Block4	0back/STIM_007.jpg	100
2678.684	0.746	746.3	0back	Block4	0back/STIM_007.jpg	99
2682.355	0.716	715.8	0back	Block4	0back/STIM_008.jpg	99
2685.6	0.646	646.0	0back	Block4	0back/STIM_008.jpg	100
2689.496	0.707	707.4	0back	Block4	0back/STIM_008.jpg	99
2693.176	0.558	558.1	0back	Block4	0back/STIM_009.jpg	99
2695.975	0.967	966.8	0back	Block4	0back/STIM_009.jpg	100
2699.561	0.91	909.7	0back	Block4	0back/STIM_009.jpg	100
2702.947	0.932	932.4	0back	Block4	0back/STIM_010.jpg	99
2707.316	0.525	525.3	0back	Block4	0back/STIM_010.jpg	99
2710.314	0.588	588.5	0back	Block4	0back/STIM_010.jpg	100
2714.851	0.714	713.5	0back	Block4	0back/STIM_011.jpg	99
2718.403	0.592	592.5	0back	Block4	0back/STIM_011.jpg	100
2722.369	0.942	942.2	0back	Block4	0back/STIM_011.jpg	99
2727.057	0.624	624.3	0back	Block4	0back/STIM_012.jpg	100
2730.993	0.675	675.1	0back	Block4	0back/STIM_012.jpg	100
2734.725	0.747	747.3	0back	Block4	0back/STIM_012.jpg	99
2738.166	0.772	772.4	0back	Block4	0back/STIM_013.jpg	100
2741.839	0.568	568.1	0back	Block4	0back/STIM_013.jpg	99
2745.872	0.701	700.8	0back	Block4	0back/STIM_013.jpg	99
2750.468	0.629	629.4	0back	Block4	0back/STIM_014.jpg	100
2754.311	0.503	502.6	0back	Block4	0back/STIM_014.jpg	100
2757.618	0.587	587.4	0back	Block4	0back/STIM_014.jpg	99
2760.856	0.76	760.3	0back	Block4	0back/STIM_015.jpg	99
2764.317	0.884	884.5	0back	Block4	0back/STIM_015.jpg	99
2768.237	0.708	708.4	0back	Block4	0back/STIM_015.jpg	100
2772.733	0.625	625.3	0back	Block4	0back/STIM_016.jpg	100
2776.491	0.523	523.4	0back	Block4	0back/STIM_016.jpg	99
2780.511	0.614	613.9	0back	Block4	0back/STIM_016.jpg	100
2783.904	0.576	576.2	0back	Block4	0back/STIM_017.jpg	99
2786.636	0.801	800.9	0back	Block4	0back/STIM_017.jpg	100
2790.466	0.527	527.3	0back	Block4	0back/STIM_017.jpg	99
2793.414	0.706	706.5	0back	Block4	0back/STIM_018.jpg	99
2797.8	0.876	875.8	0back	Block4	0back/STIM_018.jpg	99
2800.781	0.509	508.9	0back	Block4	0back/STIM_018.jpg	99
2803.782	0.903	903.4	0back	Block4	0back/STIM_019.jpg	99
2808.123	0.506	505.9	0back	Block4	0back/STIM_019.jpg	100
2811.043	0.587	587.3	0back	Block4	0back/STIM_019.jpg	100
