onset	duration	accuracy_binary	trial_type	learning_stage	stimulus
0.0	0.849	1	2back	Block1	2back/STIM_000.jpg
4.481	0.998	1	2back	Block1	2back/STIM_000.jpg
9.36	1.034	1	2back	Block1	2back/STIM_000.jpg
13.588	0.678	1	2back	Block1	2back/STIM_001.jpg
16.318	0.653	1	2back	Block1	2back/STIM_001.jpg
20.191	0.817	1	2back	Block1	2back/STIM_001.jpg
24.055	0.673	0	2back	Block1	2back/STIM_002.jpg
27.97	0.772	1	2back	Block1	2back/STIM_002.jpg
31.894	0.744	1	2back	Block1	2back/STIM_002.jpg
35.278	1.273	0	2back	Block1	2back/STIM_003.jpg
38.758	0.666	1	2back	Block1	2back/STIM_003.jpg
41.615	0.793	1	2back	Block1	2back/STIM_003.jpg
45.157	0.646	0	2back	Block1	2back/STIM_004.jpg
48.6	1.056	0	2back	Block1	2back/STIM_004.jpg
52.667	1.185	1	2back	Block1	2back/STIM_004.jpg
56.313	1.13	1	2back	Block1	2back/STIM_005.jpg
60.604	1.148	1	2back	Block1	2back/STIM_005.jpg
65.064	1.197	1	2back	Block1	2back/STIM_005.jpg
68.473	1.222	1	2back	Block1	2back/STIM_006.jpg
72.21	1.218	1	2back	Block1	2back/STIM_006.jpg
76.629	0.679	1	2back	Block1	2back/STIM_006.jpg
80.825	0.795	1	2back	Block1	2back/STIM_007.jpg
85.022	0.699	1	2back	Block1	2back/STIM_007.jpg
88.162	0.648	1	2back	Block1	2back/STIM_007.jpg
91.697	0.857	0	2back	Block1	2back/STIM_008.jpg
94.602	1.104	1	2back	Block1	2back/STIM_008.jpg
98.999	1.013	1	2back	Block1	2back/STIM_008.jpg
103.144	0.935	1	2back	Block1	2back/STIM_009.jpg
106.736	0.828	1	2back	Block1	2back/STIM_009.jpg
110.658	0.542	1	2back	Block1	2back/STIM_009.jpg
115.097	1.238	1	2back	Block1	2back/STIM_010.jpg
120.13	0.624	1	2back	Block1	2back/STIM_010.jpg
124.279	0.771	1	2back	Block1	2back/STIM_010.jpg
128.396	0.98	1	2back	Block1	2back/STIM_011.jpg
132.905	0.738	1	2back	Block1	2back/STIM_011.jpg
135.939	0.764	1	2back	Block1	2back/STIM_011.jpg
139.125	0.912	1	2back	Block1	2back/STIM_012.jpg
142.477	1.214	0	2back	Block1	2back/STIM_012.jpg
145.768	0.661	1	2back	Block1	2back/STIM_012.jpg
148.595	0.975	1	2back	Block1	2back/STIM_013.jpg
152.909	0.669	0	2back	Block1	2back/STIM_013.jpg
157.284	1.178	1	2back	Block1	2back/STIM_013.jpg
161.584	1.124	1	2back	Block1	2back/STIM_014.jpg
166.586	1.198	1	2back	Block1	2back/STIM_014.jpg
171.001	0.619	1	2back	Block1	2back/STIM_014.jpg
174.603	1.066	1	2back	Block1	2back/STIM_015.jpg
177.829	1.261	1	2back	Block1	2back/STIM_015.jpg
182.545	1.21	1	2back	Block1	2back/STIM_015.jpg
186.472	0.783	1	2back	Block1	2back/STIM_016.jpg
190.504	1.248	0	2back	Block1	2back/STIM_016.jpg
195.05	0.69	1	2back	Block1	2back/STIM_016.jpg
198.135	0.96	1	2back	Block1	2back/STIM_017.jpg
203.068	1.015	0	2back	Block1	2back/STIM_017.jpg
207.443	0.951	1	2back	Block1	2back/STIM_017.jpg
210.969	0.951	1	2back	Block1	2back/STIM_018.jpg
215.822	0.647	1	2back	Block1	2back/STIM_018.jpg
218.72	0.842	1	2back	Block1	2back/STIM_018.jpg
222.052	0.742	1	2back	Block1	2back/STIM_019.jpg
226.098	0.584	1	2back	Block1	2back/STIM_019.jpg
229.717	0.838	1	2back	Block1	2back/STIM_019.jpg
234.046	1.245	0	2back	Block1	2back/STIM_020.jpg
238.503	1.213	1	2back	Block1	2back/STIM_020.jpg
242.985	0.957	1	2back	Block1	2back/STIM_020.jpg
246.348	1.321	1	2back	Block1	2back/STIM_021.jpg
251.591	1.038	1	2back	Block1	2back/STIM_021.jpg
254.839	1.169	1	2back	Block1	2back/STIM_021.jpg
258.322	1.021	1	2back	Block1	2back/STIM_022.jpg
261.915	1.086	1	2back	Block1	2back/STIM_022.jpg
266.489	0.618	1	2back	Block1	2back/STIM_022.jpg
270.999	0.738	1	2back	Block1	2back/STIM_023.jpg
274.732	1.233	1	2back	Block1	2back/STIM_023.jpg
279.886	1.127	1	2back	Block1	2back/STIM_023.jpg
285.016	0.854	1	2back	Block1	2back/STIM_024.jpg
288.717	0.818	1	2back	Block1	2back/STIM_024.jpg
292.626	0.858	1	2back	Block1	2back/STIM_024.jpg
296.127	1.036	1	2back	Block1	2back/STIM_025.jpg
300.238	0.768	1	2back	Block1	2back/STIM_025.jpg
304.164	0.993	1	2back	Block1	2back/STIM_025.jpg
307.716	0.612	1	2back	Block1	2back/STIM_026.jpg
312.257	1.102	1	2back	Block1	2back/STIM_026.jpg
316.29	1.218	1	2back	Block1	2back/STIM_026.jpg
320.162	0.973	1	2back	Block1	2back/STIM_027.jpg
323.297	1.188	1	2back	Block1	2back/STIM_027.jpg
326.766	0.755	1	2back	Block1	2back/STIM_027.jpg
331.236	1.337	1	2back	Block1	2back/STIM_028.jpg
335.906	0.878	1	2back	Block1	2back/STIM_028.jpg
340.213	0.91	1	2back	Block1	2back/STIM_028.jpg
344.419	1.014	1	2back	Block1	2back/STIM_029.jpg
348.837	1.09	1	2back	Block1	2back/STIM_029.jpg
352.322	1.02	1	2back	Block1	2back/STIM_029.jpg
355.537	0.784	1	2back	Block1	2back/STIM_030.jpg
358.552	0.754	1	2back	Block1	2back/STIM_030.jpg
361.835	0.867	1	2back	Block1	2back/STIM_030.jpg
364.982	0.862	1	2back	Block1	2back/STIM_031.jpg
368.755	0.638	1	2back	Block1	2back/STIM_031.jpg
372.392	0.966	1	2back	Block1	2back/STIM_031.jpg
375.604	0.721	1	2back	Block1	2back/STIM_032.jpg
379.047	0.595	0	2back	Block1	2back/STIM_032.jpg
383.203	0.598	1	2back	Block1	2back/STIM_032.jpg
387.235	0.796	0	2back	Block1	2back/STIM_033.jpg
391.082	0.903	1	2back	Block1	2back/STIM_033.jpg
394.059	0.68	0	2back	Block1	2back/STIM_033.jpg
397.384	0.649	1	2back	Block1	2back/STIM_034.jpg
400.734	1.284	1	2back	Block1	2back/STIM_034.jpg
405.104	1.167	1	2back	Block1	2back/STIM_034.jpg
409.121	1.009	0	2back	Block1	2back/STIM_035.jpg
413.339	1.218	0	2back	Block1	2back/STIM_035.jpg
418.252	0.823	1	2back	Block1	2back/STIM_035.jpg
422.987	0.939	1	2back	Block1	2back/STIM_036.jpg
426.063	0.849	1	2back	Block1	2back/STIM_036.jpg
430.524	0.967	1	2back	Block1	2back/STIM_036.jpg
433.902	1.017	1	2back	Block1	2back/STIM_037.jpg
437.225	0.68	1	2back	Block1	2back/STIM_037.jpg
440.099	0.961	0	2back	Block1	2back/STIM_037.jpg
444.668	0.72	1	2back	Block1	2back/STIM_038.jpg
448.59	1.271	1	2back	Block1	2back/STIM_038.jpg
453.347	0.87	0	2back	Block1	2back/STIM_038.jpg
457.035	0.74	1	2back	Block1	2back/STIM_039.jpg
461.299	1.102	1	2back	Block1	2back/STIM_039.jpg
464.954	1.092	1	2back	Block1	2back/STIM_039.jpg
469.658	0.546	1	0back	Block1	0back/STIM_000.jpg
473.106	0.555	1	0back	Block1	0back/STIM_000.jpg
476.879	0.657	1	0back	Block1	0back/STIM_000.jpg
479.65	0.72	1	0back	Block1	0back/STIM_001.jpg
483.613	0.714	1	0back	Block1	0back/STIM_001.jpg
487.888	0.724	1	0back	Block1	0back/STIM_001.jpg
491.601	0.657	1	0back	Block1	0back/STIM_002.jpg
495.049	0.598	1	0back	Block1	0back/STIM_002.jpg
498.833	0.409	1	0back	Block1	0back/STIM_002.jpg
502.234	0.722	1	0back	Block1	0back/STIM_003.jpg
506.938	0.548	1	0back	Block1	0back/STIM_003.jpg
509.684	0.669	1	0back	Block1	0back/STIM_003.jpg
513.891	0.551	1	0back	Block1	0back/STIM_004.jpg
516.806	0.436	1	0back	Block1	0back/STIM_004.jpg
520.358	0.729	1	0back	Block1	0back/STIM_004.jpg
524.273	0.525	1	0back	Block1	0back/STIM_005.jpg
527.641	0.648	1	0back	Block1	0back/STIM_005.jpg
530.481	0.721	1	0back	Block1	0back/STIM_005.jpg
533.679	0.483	1	0back	Block1	0back/STIM_006.jpg
537.006	0.621	1	0back	Block1	0back/STIM_006.jpg
540.24	0.476	1	0back	Block1	0back/STIM_006.jpg
542.734	0.569	1	0back	Block1	0back/STIM_007.jpg
545.696	0.75	1	0back	Block1	0back/STIM_007.jpg
549.015	0.675	1	0back	Block1	0back/STIM_007.jpg
551.945	0.515	1	0back	Block1	0back/STIM_008.jpg
556.393	0.506	1	0back	Block1	0back/STIM_008.jpg
559.28	0.606	1	0back	Block1	0back/STIM_008.jpg
563.595	0.75	1	0back	Block1	0back/STIM_009.jpg
566.926	0.4	1	0back	Block1	0back/STIM_009.jpg
571.231	0.477	1	0back	Block1	0back/STIM_009.jpg
574.612	0.713	1	0back	Block1	0back/STIM_010.jpg
577.987	0.418	1	0back	Block1	0back/STIM_010.jpg
581.991	0.684	1	0back	Block1	0back/STIM_010.jpg
585.501	0.666	1	0back	Block1	0back/STIM_011.jpg
588.54	0.41	1	0back	Block1	0back/STIM_011.jpg
592.141	0.458	1	0back	Block1	0back/STIM_011.jpg
595.83	0.766	1	0back	Block1	0back/STIM_012.jpg
599.163	0.74	1	0back	Block1	0back/STIM_012.jpg
602.109	0.542	1	0back	Block1	0back/STIM_012.jpg
605.401	0.652	1	0back	Block1	0back/STIM_013.jpg
608.769	0.732	1	0back	Block1	0back/STIM_013.jpg
612.746	0.42	1	0back	Block1	0back/STIM_013.jpg
616.272	0.561	1	0back	Block1	0back/STIM_014.jpg
619.065	0.549	1	0back	Block1	0back/STIM_014.jpg
621.919	0.431	1	0back	Block1	0back/STIM_014.jpg
624.556	0.498	1	0back	Block1	0back/STIM_015.jpg
627.339	0.493	1	0back	Block1	0back/STIM_015.jpg
630.212	0.525	1	0back	Block1	0back/STIM_015.jpg
633.958	0.576	1	0back	Block1	0back/STIM_016.jpg
637.193	0.554	1	0back	Block1	0back/STIM_016.jpg
640.746	0.441	1	0back	Block1	0back/STIM_016.jpg
643.718	0.467	1	0back	Block1	0back/STIM_017.jpg
646.46	0.684	1	0back	Block1	0back/STIM_017.jpg
650.261	0.672	1	0back	Block1	0back/STIM_017.jpg
654.394	0.605	1	0back	Block1	0back/STIM_018.jpg
658.173	0.475	1	0back	Block1	0back/STIM_018.jpg
661.361	0.399	1	0back	Block1	0back/STIM_018.jpg
664.365	0.452	1	0back	Block1	0back/STIM_019.jpg
668.127	0.715	1	0back	Block1	0back/STIM_019.jpg
670.942	0.761	1	0back	Block1	0back/STIM_019.jpg
674.756	0.69	1	2back	Block2	2back/STIM_000.jpg
678.062	0.638	1	2back	Block2	2back/STIM_000.jpg
682.492	1.015	1	2back	Block2	2back/STIM_000.jpg
687.499	0.74	1	2back	Block2	2back/STIM_001.jpg
691.27	1.028	1	2back	Block2	2back/STIM_001.jpg
695.724	0.643	1	2back	Block2	2back/STIM_001.jpg
699.737	0.926	1	2back	Block2	2back/STIM_002.jpg
704.23	0.855	0	2back	Block2	2back/STIM_002.jpg
708.665	0.976	1	2back	Block2	2back/STIM_002.jpg
712.85	0.689	1	2back	Block2	2back/STIM_003.jpg
716.894	0.952	1	2back	Block2	2back/STIM_003.jpg
721.04	0.439	1	2back	Block2	2back/STIM_003.jpg
723.678	0.734	1	2back	Block2	2back/STIM_004.jpg
727.271	0.682	1	2back	Block2	2back/STIM_004.jpg
731.843	0.692	1	2back	Block2	2back/STIM_004.jpg
734.561	0.82	1	2back	Block2	2back/STIM_005.jpg
737.579	0.925	1	2back	Block2	2back/STIM_005.jpg
741.004	0.846	1	2back	Block2	2back/STIM_005.jpg
745.657	0.735	0	2back	Block2	2back/STIM_006.jpg
749.98	1.063	1	2back	Block2	2back/STIM_006.jpg
753.824	1.01	1	2back	Block2	2back/STIM_006.jpg
758.809	0.834	0	2back	Block2	2back/STIM_007.jpg
762.777	0.929	1	2back	Block2	2back/STIM_007.jpg
766.199	0.946	1	2back	Block2	2back/STIM_007.jpg
770.62	0.535	1	2back	Block2	2back/STIM_008.jpg
773.195	0.917	1	2back	Block2	2back/STIM_008.jpg
776.309	0.979	1	2back	Block2	2back/STIM_008.jpg
780.481	1.114	1	2back	Block2	2back/STIM_009.jpg
784.305	0.523	1	2back	Block2	2back/STIM_009.jpg
787.044	0.483	1	2back	Block2	2back/STIM_009.jpg
789.574	0.664	1	2back	Block2	2back/STIM_010.jpg
792.686	0.862	0	2back	Block2	2back/STIM_010.jpg
796.328	0.516	1	2back	Block2	2back/STIM_010.jpg
800.072	0.95	0	2back	Block2	2back/STIM_011.jpg
803.971	0.706	1	2back	Block2	2back/STIM_011.jpg
807.837	0.639	1	2back	Block2	2back/STIM_011.jpg
811.426	0.928	1	2back	Block2	2back/STIM_012.jpg
814.846	0.934	1	2back	Block2	2back/STIM_012.jpg
819.803	0.439	1	2back	Block2	2back/STIM_012.jpg
823.465	0.522	0	2back	Block2	2back/STIM_013.jpg
827.914	0.641	1	2back	Block2	2back/STIM_013.jpg
831.855	0.735	1	2back	Block2	2back/STIM_013.jpg
836.368	0.612	1	2back	Block2	2back/STIM_014.jpg
839.796	0.51	1	2back	Block2	2back/STIM_014.jpg
842.847	0.507	1	2back	Block2	2back/STIM_014.jpg
847.129	0.928	1	2back	Block2	2back/STIM_015.jpg
850.593	0.825	0	2back	Block2	2back/STIM_015.jpg
854.92	0.705	1	2back	Block2	2back/STIM_015.jpg
858.345	0.519	1	2back	Block2	2back/STIM_016.jpg
861.989	0.996	1	2back	Block2	2back/STIM_016.jpg
865.451	0.493	1	2back	Block2	2back/STIM_016.jpg
868.134	0.695	1	2back	Block2	2back/STIM_017.jpg
871.915	0.96	0	2back	Block2	2back/STIM_017.jpg
875.761	0.683	1	2back	Block2	2back/STIM_017.jpg
880.2	0.843	1	2back	Block2	2back/STIM_018.jpg
884.086	0.474	1	2back	Block2	2back/STIM_018.jpg
886.595	0.78	1	2back	Block2	2back/STIM_018.jpg
889.564	0.893	1	2back	Block2	2back/STIM_019.jpg
892.762	0.98	1	2back	Block2	2back/STIM_019.jpg
897.548	0.919	1	2back	Block2	2back/STIM_019.jpg
900.703	0.567	1	2back	Block2	2back/STIM_020.jpg
905.205	0.722	1	2back	Block2	2back/STIM_020.jpg
909.359	0.775	1	2back	Block2	2back/STIM_020.jpg
914.017	0.844	1	2back	Block2	2back/STIM_021.jpg
917.842	0.971	1	2back	Block2	2back/STIM_021.jpg
922.824	0.671	1	2back	Block2	2back/STIM_021.jpg
925.89	0.642	1	2back	Block2	2back/STIM_022.jpg
929.137	0.467	1	2back	Block2	2back/STIM_022.jpg
933.391	0.796	1	2back	Block2	2back/STIM_022.jpg
937.157	0.771	0	2back	Block2	2back/STIM_023.jpg
941.764	0.693	1	2back	Block2	2back/STIM_023.jpg
945.874	0.8	1	2back	Block2	2back/STIM_023.jpg
948.71	1.018	1	2back	Block2	2back/STIM_024.jpg
953.432	0.828	1	2back	Block2	2back/STIM_024.jpg
958.219	0.496	1	2back	Block2	2back/STIM_024.jpg
961.258	0.845	1	2back	Block2	2back/STIM_025.jpg
964.587	0.668	1	2back	Block2	2back/STIM_025.jpg
968.44	0.906	0	2back	Block2	2back/STIM_025.jpg
972.53	1.002	1	2back	Block2	2back/STIM_026.jpg
976.309	0.819	1	2back	Block2	2back/STIM_026.jpg
979.942	0.742	1	2back	Block2	2back/STIM_026.jpg
984.093	0.962	1	2back	Block2	2back/STIM_027.jpg
988.916	0.957	1	2back	Block2	2back/STIM_027.jpg
992.122	0.505	1	2back	Block2	2back/STIM_027.jpg
996.595	0.938	1	2back	Block2	2back/STIM_028.jpg
1000.414	0.499	0	2back	Block2	2back/STIM_028.jpg
1003.902	0.975	1	2back	Block2	2back/STIM_028.jpg
1008.844	0.796	1	2back	Block2	2back/STIM_029.jpg
1012.556	1.011	1	2back	Block2	2back/STIM_029.jpg
1016.254	0.924	1	2back	Block2	2back/STIM_029.jpg
1020.444	0.927	1	2back	Block2	2back/STIM_030.jpg
1024.324	0.716	1	2back	Block2	2back/STIM_030.jpg
1027.987	0.923	1	2back	Block2	2back/STIM_030.jpg
1032.591	0.921	1	2back	Block2	2back/STIM_031.jpg
1036.035	0.533	1	2back	Block2	2back/STIM_031.jpg
1039.582	0.807	1	2back	Block2	2back/STIM_031.jpg
1043.382	0.658	1	2back	Block2	2back/STIM_032.jpg
1046.488	0.467	1	2back	Block2	2back/STIM_032.jpg
1050.759	0.644	1	2back	Block2	2back/STIM_032.jpg
1054.705	0.766	1	2back	Block2	2back/STIM_033.jpg
1058.499	1.0	1	2back	Block2	2back/STIM_033.jpg
1063.076	0.832	1	2back	Block2	2back/STIM_033.jpg
1066.402	1.044	1	2back	Block2	2back/STIM_034.jpg
1070.574	0.816	0	2back	Block2	2back/STIM_034.jpg
1074.604	0.685	1	2back	Block2	2back/STIM_034.jpg
1078.946	0.56	1	2back	Block2	2back/STIM_035.jpg
1082.454	0.806	1	2back	Block2	2back/STIM_035.jpg
1085.468	0.616	1	2back	Block2	2back/STIM_035.jpg
1089.926	0.726	1	2back	Block2	2back/STIM_036.jpg
1093.5	1.003	1	2back	Block2	2back/STIM_036.jpg
1096.888	0.572	1	2back	Block2	2back/STIM_036.jpg
1101.208	0.64	1	2back	Block2	2back/STIM_037.jpg
1104.909	0.703	1	2back	Block2	2back/STIM_037.jpg
1108.261	1.005	1	2back	Block2	2back/STIM_037.jpg
1111.627	0.5	1	2back	Block2	2back/STIM_038.jpg
1114.455	0.893	1	2back	Block2	2back/STIM_038.jpg
1119.0	0.991	1	2back	Block2	2back/STIM_038.jpg
1123.851	0.923	1	2back	Block2	2back/STIM_039.jpg
1128.778	0.718	1	2back	Block2	2back/STIM_039.jpg
1131.99	0.652	1	2back	Block2	2back/STIM_039.jpg
1136.467	0.474	1	0back	Block2	0back/STIM_000.jpg
1140.354	0.734	1	0back	Block2	0back/STIM_000.jpg
1143.306	0.396	1	0back	Block2	0back/STIM_000.jpg
1147.414	0.493	1	0back	Block2	0back/STIM_001.jpg
1150.812	0.75	1	0back	Block2	0back/STIM_001.jpg
1155.048	0.48	1	0back	Block2	0back/STIM_001.jpg
1158.91	0.774	1	0back	Block2	0back/STIM_002.jpg
1163.696	0.587	1	0back	Block2	0back/STIM_002.jpg
1166.545	0.397	1	0back	Block2	0back/STIM_002.jpg
1169.899	0.392	1	0back	Block2	0back/STIM_003.jpg
1172.44	0.684	1	0back	Block2	0back/STIM_003.jpg
1176.82	0.605	1	0back	Block2	0back/STIM_003.jpg
1180.561	0.67	1	0back	Block2	0back/STIM_004.jpg
1185.179	0.628	1	0back	Block2	0back/STIM_004.jpg
1187.85	0.67	1	0back	Block2	0back/STIM_004.jpg
1190.773	0.608	1	0back	Block2	0back/STIM_005.jpg
1193.58	0.688	1	0back	Block2	0back/STIM_005.jpg
1197.388	0.576	1	0back	Block2	0back/STIM_005.jpg
1200.735	0.508	1	0back	Block2	0back/STIM_006.jpg
1203.491	0.61	1	0back	Block2	0back/STIM_006.jpg
1206.554	0.571	1	0back	Block2	0back/STIM_006.jpg
1209.711	0.388	0	0back	Block2	0back/STIM_007.jpg
1213.924	0.526	1	0back	Block2	0back/STIM_007.jpg
1217.112	0.497	1	0back	Block2	0back/STIM_007.jpg
1220.466	0.573	0	0back	Block2	0back/STIM_008.jpg
1223.643	0.567	1	0back	Block2	0back/STIM_008.jpg
1226.719	0.693	1	0back	Block2	0back/STIM_008.jpg
1229.816	0.519	1	0back	Block2	0back/STIM_009.jpg
1232.544	0.773	1	0back	Block2	0back/STIM_009.jpg
1236.631	0.599	1	0back	Block2	0back/STIM_009.jpg
1240.271	0.646	1	0back	Block2	0back/STIM_010.jpg
1244.187	0.579	1	0back	Block2	0back/STIM_010.jpg
1248.485	0.49	1	0back	Block2	0back/STIM_010.jpg
1252.595	0.548	1	0back	Block2	0back/STIM_011.jpg
1257.092	0.398	1	0back	Block2	0back/STIM_011.jpg
1260.692	0.716	1	0back	Block2	0back/STIM_011.jpg
1263.738	0.471	1	0back	Block2	0back/STIM_012.jpg
1267.943	0.425	1	0back	Block2	0back/STIM_012.jpg
1270.989	0.488	1	0back	Block2	0back/STIM_012.jpg
1275.318	0.71	1	0back	Block2	0back/STIM_013.jpg
1279.651	0.747	1	0back	Block2	0back/STIM_013.jpg
1282.568	0.697	1	0back	Block2	0back/STIM_013.jpg
1285.518	0.439	1	0back	Block2	0back/STIM_014.jpg
1288.661	0.502	1	0back	Block2	0back/STIM_014.jpg
1291.867	0.731	1	0back	Block2	0back/STIM_014.jpg
1295.904	0.761	1	0back	Block2	0back/STIM_015.jpg
1299.757	0.517	1	0back	Block2	0back/STIM_015.jpg
1303.033	0.615	1	0back	Block2	0back/STIM_015.jpg
1306.009	0.725	1	0back	Block2	0back/STIM_016.jpg
1308.982	0.524	1	0back	Block2	0back/STIM_016.jpg
1311.885	0.532	1	0back	Block2	0back/STIM_016.jpg
1315.926	0.508	1	0back	Block2	0back/STIM_017.jpg
1319.344	0.394	1	0back	Block2	0back/STIM_017.jpg
1323.225	0.492	1	0back	Block2	0back/STIM_017.jpg
1327.483	0.734	1	0back	Block2	0back/STIM_018.jpg
1332.07	0.551	1	0back	Block2	0back/STIM_018.jpg
1334.946	0.549	1	0back	Block2	0back/STIM_018.jpg
1338.049	0.728	1	0back	Block2	0back/STIM_019.jpg
1341.505	0.512	1	0back	Block2	0back/STIM_019.jpg
1345.358	0.698	1	0back	Block2	0back/STIM_019.jpg
1348.134	0.679	1	2back	Block3	2back/STIM_000.jpg
1351.087	0.571	1	2back	Block3	2back/STIM_000.jpg
1355.286	0.515	1	2back	Block3	2back/STIM_000.jpg
1358.832	0.82	1	2back	Block3	2back/STIM_001.jpg
1362.531	0.681	1	2back	Block3	2back/STIM_001.jpg
1366.11	0.412	1	2back	Block3	2back/STIM_001.jpg
1369.698	0.826	1	2back	Block3	2back/STIM_002.jpg
1373.184	0.829	1	2back	Block3	2back/STIM_002.jpg
1376.15	0.528	1	2back	Block3	2back/STIM_002.jpg
1378.719	0.906	1	2back	Block3	2back/STIM_003.jpg
1382.407	0.712	1	2back	Block3	2back/STIM_003.jpg
1385.515	0.916	1	2back	Block3	2back/STIM_003.jpg
1388.537	0.711	1	2back	Block3	2back/STIM_004.jpg
1391.673	0.642	1	2back	Block3	2back/STIM_004.jpg
1395.744	0.806	1	2back	Block3	2back/STIM_004.jpg
1399.827	0.945	1	2back	Block3	2back/STIM_005.jpg
1403.104	0.502	1	2back	Block3	2back/STIM_005.jpg
1407.562	0.702	1	2back	Block3	2back/STIM_005.jpg
1411.45	0.835	1	2back	Block3	2back/STIM_006.jpg
1414.923	0.687	1	2back	Block3	2back/STIM_006.jpg
1418.615	0.752	1	2back	Block3	2back/STIM_006.jpg
1422.74	0.782	1	2back	Block3	2back/STIM_007.jpg
1426.209	0.886	1	2back	Block3	2back/STIM_007.jpg
1430.175	0.948	1	2back	Block3	2back/STIM_007.jpg
1434.573	0.779	1	2back	Block3	2back/STIM_008.jpg
1439.239	0.709	1	2back	Block3	2back/STIM_008.jpg
1443.616	0.612	1	2back	Block3	2back/STIM_008.jpg
1447.038	0.516	1	2back	Block3	2back/STIM_009.jpg
1451.17	0.543	1	2back	Block3	2back/STIM_009.jpg
1454.732	0.688	1	2back	Block3	2back/STIM_009.jpg
1457.709	0.775	1	2back	Block3	2back/STIM_010.jpg
1462.112	0.67	1	2back	Block3	2back/STIM_010.jpg
1465.502	0.71	1	2back	Block3	2back/STIM_010.jpg
1468.727	0.731	1	2back	Block3	2back/STIM_011.jpg
1471.712	0.534	1	2back	Block3	2back/STIM_011.jpg
1475.517	0.51	1	2back	Block3	2back/STIM_011.jpg
1479.019	0.867	1	2back	Block3	2back/STIM_012.jpg
1483.075	0.848	1	2back	Block3	2back/STIM_012.jpg
1487.505	0.7	1	2back	Block3	2back/STIM_012.jpg
1490.968	0.912	1	2back	Block3	2back/STIM_013.jpg
1494.625	0.532	1	2back	Block3	2back/STIM_013.jpg
1498.106	0.94	1	2back	Block3	2back/STIM_013.jpg
1502.89	0.786	1	2back	Block3	2back/STIM_014.jpg
1507.499	0.934	1	2back	Block3	2back/STIM_014.jpg
1510.599	0.495	1	2back	Block3	2back/STIM_014.jpg
1514.204	0.638	1	2back	Block3	2back/STIM_015.jpg
1517.23	0.83	1	2back	Block3	2back/STIM_015.jpg
1520.485	0.558	1	2back	Block3	2back/STIM_015.jpg
1523.851	0.832	1	2back	Block3	2back/STIM_016.jpg
1527.765	0.791	1	2back	Block3	2back/STIM_016.jpg
1532.138	0.436	1	2back	Block3	2back/STIM_016.jpg
1536.421	0.848	1	2back	Block3	2back/STIM_017.jpg
1539.55	0.652	1	2back	Block3	2back/STIM_017.jpg
1543.141	0.62	1	2back	Block3	2back/STIM_017.jpg
1546.038	0.704	1	2back	Block3	2back/STIM_018.jpg
1549.376	0.673	1	2back	Block3	2back/STIM_018.jpg
1552.568	0.475	1	2back	Block3	2back/STIM_018.jpg
1556.582	0.496	1	2back	Block3	2back/STIM_019.jpg
1560.486	0.545	1	2back	Block3	2back/STIM_019.jpg
1563.818	0.496	1	2back	Block3	2back/STIM_019.jpg
1566.889	0.593	1	2back	Block3	2back/STIM_020.jpg
1570.356	0.634	1	2back	Block3	2back/STIM_020.jpg
1573.372	0.902	1	2back	Block3	2back/STIM_020.jpg
1576.878	0.75	1	2back	Block3	2back/STIM_021.jpg
1581.628	0.801	1	2back	Block3	2back/STIM_021.jpg
1584.74	0.484	1	2back	Block3	2back/STIM_021.jpg
1588.95	0.909	1	2back	Block3	2back/STIM_022.jpg
1592.065	0.901	1	2back	Block3	2back/STIM_022.jpg
1596.628	0.416	1	2back	Block3	2back/STIM_022.jpg
1599.175	0.454	1	2back	Block3	2back/STIM_023.jpg
1602.187	0.512	1	2back	Block3	2back/STIM_023.jpg
1606.537	0.944	1	2back	Block3	2back/STIM_023.jpg
1609.881	0.536	1	2back	Block3	2back/STIM_024.jpg
1614.335	0.754	1	2back	Block3	2back/STIM_024.jpg
1619.002	0.566	1	2back	Block3	2back/STIM_024.jpg
1622.502	0.895	1	2back	Block3	2back/STIM_025.jpg
1625.458	0.925	1	2back	Block3	2back/STIM_025.jpg
1628.617	0.859	1	2back	Block3	2back/STIM_025.jpg
1632.653	0.739	1	2back	Block3	2back/STIM_026.jpg
1636.412	0.599	1	2back	Block3	2back/STIM_026.jpg
1640.012	0.737	1	2back	Block3	2back/STIM_026.jpg
1643.169	0.854	1	2back	Block3	2back/STIM_027.jpg
1646.614	0.592	1	2back	Block3	2back/STIM_027.jpg
1650.244	0.501	1	2back	Block3	2back/STIM_027.jpg
1654.05	0.425	1	2back	Block3	2back/STIM_028.jpg
1657.235	0.456	1	2back	Block3	2back/STIM_028.jpg
1660.432	0.857	1	2back	Block3	2back/STIM_028.jpg
1663.427	0.947	1	2back	Block3	2back/STIM_029.jpg
1667.107	0.749	1	2back	Block3	2back/STIM_029.jpg
1670.814	0.593	1	2back	Block3	2back/STIM_029.jpg
1674.23	0.916	1	2back	Block3	2back/STIM_030.jpg
1678.082	0.622	1	2back	Block3	2back/STIM_030.jpg
1682.1	0.651	1	2back	Block3	2back/STIM_030.jpg
1685.569	0.931	1	2back	Block3	2back/STIM_031.jpg
1688.609	0.772	1	2back	Block3	2back/STIM_031.jpg
1691.906	0.612	1	2back	Block3	2back/STIM_031.jpg
1696.143	0.77	1	2back	Block3	2back/STIM_032.jpg
1700.809	0.766	1	2back	Block3	2back/STIM_032.jpg
1705.232	0.63	1	2back	Block3	2back/STIM_032.jpg
1709.868	0.53	1	2back	Block3	2back/STIM_033.jpg
1713.186	0.681	1	2back	Block3	2back/STIM_033.jpg
1716.834	0.465	1	2back	Block3	2back/STIM_033.jpg
1719.702	0.865	1	2back	Block3	2back/STIM_034.jpg
1723.834	0.719	1	2back	Block3	2back/STIM_034.jpg
1726.697	0.794	1	2back	Block3	2back/STIM_034.jpg
1729.964	0.705	1	2back	Block3	2back/STIM_035.jpg
1734.248	0.792	1	2back	Block3	2back/STIM_035.jpg
1738.393	0.949	1	2back	Block3	2back/STIM_035.jpg
1742.912	0.652	1	2back	Block3	2back/STIM_036.jpg
1746.46	0.599	1	2back	Block3	2back/STIM_036.jpg
1749.163	0.643	1	2back	Block3	2back/STIM_036.jpg
1753.303	0.551	1	2back	Block3	2back/STIM_037.jpg
1757.466	0.418	1	2back	Block3	2back/STIM_037.jpg
1760.753	0.56	1	2back	Block3	2back/STIM_037.jpg
1764.271	0.416	1	2back	Block3	2back/STIM_038.jpg
1767.974	0.777	0	2back	Block3	2back/STIM_038.jpg
1772.51	0.529	1	2back	Block3	2back/STIM_038.jpg
1775.314	0.408	1	2back	Block3	2back/STIM_039.jpg
1779.496	0.844	1	2back	Block3	2back/STIM_039.jpg
1783.654	0.731	1	2back	Block3	2back/STIM_039.jpg
1788.063	0.461	1	0back	Block3	0back/STIM_000.jpg
1792.182	0.439	1	0back	Block3	0back/STIM_000.jpg
1794.65	0.683	0	0back	Block3	0back/STIM_000.jpg
1798.58	0.555	1	0back	Block3	0back/STIM_001.jpg
1801.169	0.454	1	0back	Block3	0back/STIM_001.jpg
1804.221	0.726	1	0back	Block3	0back/STIM_001.jpg
1807.124	0.621	1	0back	Block3	0back/STIM_002.jpg
1811.03	0.605	1	0back	Block3	0back/STIM_002.jpg
1814.877	0.442	1	0back	Block3	0back/STIM_002.jpg
1817.381	0.509	1	0back	Block3	0back/STIM_003.jpg
1821.278	0.439	1	0back	Block3	0back/STIM_003.jpg
1825.053	0.774	1	0back	Block3	0back/STIM_003.jpg
1829.068	0.749	1	0back	Block3	0back/STIM_004.jpg
1832.63	0.627	1	0back	Block3	0back/STIM_004.jpg
1836.725	0.493	1	0back	Block3	0back/STIM_004.jpg
1839.593	0.623	1	0back	Block3	0back/STIM_005.jpg
1843.442	0.749	1	0back	Block3	0back/STIM_005.jpg
1846.876	0.408	1	0back	Block3	0back/STIM_005.jpg
1849.611	0.738	1	0back	Block3	0back/STIM_006.jpg
1852.737	0.7	1	0back	Block3	0back/STIM_006.jpg
1856.929	0.637	1	0back	Block3	0back/STIM_006.jpg
1860.104	0.584	1	0back	Block3	0back/STIM_007.jpg
1863.721	0.683	1	0back	Block3	0back/STIM_007.jpg
1866.655	0.557	1	0back	Block3	0back/STIM_007.jpg
1869.917	0.411	1	0back	Block3	0back/STIM_008.jpg
1873.969	0.631	1	0back	Block3	0back/STIM_008.jpg
1877.895	0.518	1	0back	Block3	0back/STIM_008.jpg
1882.263	0.686	0	0back	Block3	0back/STIM_009.jpg
1885.279	0.598	1	0back	Block3	0back/STIM_009.jpg
1889.305	0.53	1	0back	Block3	0back/STIM_009.jpg
1892.755	0.543	1	0back	Block3	0back/STIM_010.jpg
1896.799	0.67	1	0back	Block3	0back/STIM_010.jpg
1899.518	0.581	1	0back	Block3	0back/STIM_010.jpg
1903.199	0.584	1	0back	Block3	0back/STIM_011.jpg
1906.289	0.505	1	0back	Block3	0back/STIM_011.jpg
1909.086	0.406	1	0back	Block3	0back/STIM_011.jpg
1912.423	0.624	1	0back	Block3	0back/STIM_012.jpg
1916.503	0.671	1	0back	Block3	0back/STIM_012.jpg
1919.788	0.74	0	0back	Block3	0back/STIM_012.jpg
1923.015	0.603	1	0back	Block3	0back/STIM_013.jpg
1926.373	0.522	1	0back	Block3	0back/STIM_013.jpg
1928.964	0.46	1	0back	Block3	0back/STIM_013.jpg
1933.085	0.472	1	0back	Block3	0back/STIM_014.jpg
1936.772	0.396	1	0back	Block3	0back/STIM_014.jpg
1940.712	0.437	1	0back	Block3	0back/STIM_014.jpg
1943.658	0.564	1	0back	Block3	0back/STIM_015.jpg
1947.632	0.729	1	0back	Block3	0back/STIM_015.jpg
1951.714	0.588	1	0back	Block3	0back/STIM_015.jpg
1954.414	0.522	1	0back	Block3	0back/STIM_016.jpg
1957.848	0.597	1	0back	Block3	0back/STIM_016.jpg
1961.33	0.599	1	0back	Block3	0back/STIM_016.jpg
1964.97	0.702	1	0back	Block3	0back/STIM_017.jpg
1969.272	0.53	1	0back	Block3	0back/STIM_017.jpg
1973.469	0.452	1	0back	Block3	0back/STIM_017.jpg
1976.129	0.583	1	0back	Block3	0back/STIM_018.jpg
1980.518	0.652	1	0back	Block3	0back/STIM_018.jpg
1984.357	0.52	1	0back	Block3	0back/STIM_018.jpg
1987.004	0.431	1	0back	Block3	0back/STIM_019.jpg
1991.394	0.388	1	0back	Block3	0back/STIM_019.jpg
1994.981	0.747	1	0back	Block3	0back/STIM_019.jpg
1998.934	0.59	1	2back	Block4	2back/STIM_000.jpg
2001.896	0.817	1	2back	Block4	2back/STIM_000.jpg
2005.286	0.708	1	2back	Block4	2back/STIM_000.jpg
2009.25	0.461	1	2back	Block4	2back/STIM_001.jpg
2012.327	0.443	1	2back	Block4	2back/STIM_001.jpg
2016.5	0.68	1	2back	Block4	2back/STIM_001.jpg
2019.287	0.79	1	2back	Block4	2back/STIM_002.jpg
2023.41	0.753	1	2back	Block4	2back/STIM_002.jpg
2026.629	0.836	1	2back	Block4	2back/STIM_002.jpg
2030.704	0.567	1	2back	Block4	2back/STIM_003.jpg
2034.375	0.911	1	2back	Block4	2back/STIM_003.jpg
2038.565	0.562	1	2back	Block4	2back/STIM_003.jpg
2042.923	0.411	1	2back	Block4	2back/STIM_004.jpg
2046.747	0.672	1	2back	Block4	2back/STIM_004.jpg
2050.863	0.419	1	2back	Block4	2back/STIM_004.jpg
2054.483	0.564	1	2back	Block4	2back/STIM_005.jpg
2058.227	0.516	1	2back	Block4	2back/STIM_005.jpg
2061.292	0.752	1	2back	Block4	2back/STIM_005.jpg
2065.262	0.681	0	2back	Block4	2back/STIM_006.jpg
2068.129	0.696	1	2back	Block4	2back/STIM_006.jpg
2070.94	0.889	1	2back	Block4	2back/STIM_006.jpg
2074.607	0.592	1	2back	Block4	2back/STIM_007.jpg
2078.279	0.682	1	2back	Block4	2back/STIM_007.jpg
2081.364	0.537	1	2back	Block4	2back/STIM_007.jpg
2085.338	0.744	1	2back	Block4	2back/STIM_008.jpg
2090.071	0.902	1	2back	Block4	2back/STIM_008.jpg
2093.691	0.834	1	2back	Block4	2back/STIM_008.jpg
2097.104	0.749	1	2back	Block4	2back/STIM_009.jpg
2101.758	0.489	1	2back	Block4	2back/STIM_009.jpg
2105.969	0.786	1	2back	Block4	2back/STIM_009.jpg
2108.894	0.604	1	2back	Block4	2back/STIM_010.jpg
2112.59	0.565	1	2back	Block4	2back/STIM_010.jpg
2116.521	0.837	1	2back	Block4	2back/STIM_010.jpg
2120.638	0.43	1	2back	Block4	2back/STIM_011.jpg
2123.14	0.807	1	2back	Block4	2back/STIM_011.jpg
2126.434	0.528	1	2back	Block4	2back/STIM_011.jpg
2129.977	0.472	1	2back	Block4	2back/STIM_012.jpg
2133.742	0.518	1	2back	Block4	2back/STIM_012.jpg
2137.003	0.553	1	2back	Block4	2back/STIM_012.jpg
2141.508	0.69	1	2back	Block4	2back/STIM_013.jpg
2146.07	0.864	1	2back	Block4	2back/STIM_013.jpg
2149.9	0.686	1	2back	Block4	2back/STIM_013.jpg
2152.994	0.448	1	2back	Block4	2back/STIM_014.jpg
2156.48	0.68	1	2back	Block4	2back/STIM_014.jpg
2160.115	0.8	1	2back	Block4	2back/STIM_014.jpg
2164.076	0.904	1	2back	Block4	2back/STIM_015.jpg
2168.69	0.726	1	2back	Block4	2back/STIM_015.jpg
2173.238	0.717	1	2back	Block4	2back/STIM_015.jpg
2177.636	0.459	1	2back	Block4	2back/STIM_016.jpg
2180.872	0.408	1	2back	Block4	2back/STIM_016.jpg
2184.048	0.586	1	2back	Block4	2back/STIM_016.jpg
2186.802	0.909	1	2back	Block4	2back/STIM_017.jpg
2190.569	0.451	1	2back	Block4	2back/STIM_017.jpg
2193.222	0.868	1	2back	Block4	2back/STIM_017.jpg
2197.159	0.542	1	2back	Block4	2back/STIM_018.jpg
2201.361	0.903	1	2back	Block4	2back/STIM_018.jpg
2205.635	0.926	1	2back	Block4	2back/STIM_018.jpg
2209.255	0.489	1	2back	Block4	2back/STIM_019.jpg
2212.649	0.793	1	2back	Block4	2back/STIM_019.jpg
2216.842	0.858	1	2back	Block4	2back/STIM_019.jpg
2219.939	0.515	1	2back	Block4	2back/STIM_020.jpg
2224.114	0.687	1	2back	Block4	2back/STIM_020.jpg
2226.826	0.72	1	2back	Block4	2back/STIM_020.jpg
2230.796	0.94	1	2back	Block4	2back/STIM_021.jpg
2234.734	0.796	1	2back	Block4	2back/STIM_021.jpg
2237.932	0.833	1	2back	Block4	2back/STIM_021.jpg
2242.367	0.611	1	2back	Block4	2back/STIM_022.jpg
2246.784	0.917	1	2back	Block4	2back/STIM_022.jpg
2250.507	0.431	1	2back	Block4	2back/STIM_022.jpg
2253.78	0.643	1	2back	Block4	2back/STIM_023.jpg
2257.533	0.918	1	2back	Block4	2back/STIM_023.jpg
2262.294	0.909	1	2back	Block4	2back/STIM_023.jpg
2265.92	0.407	1	2back	Block4	2back/STIM_024.jpg
2268.364	0.437	1	2back	Block4	2back/STIM_024.jpg
2271.474	0.665	1	2back	Block4	2back/STIM_024.jpg
2275.761	0.442	1	2back	Block4	2back/STIM_025.jpg
2279.712	0.857	1	2back	Block4	2back/STIM_025.jpg
2282.975	0.46	1	2back	Block4	2back/STIM_025.jpg
2287.449	0.572	1	2back	Block4	2back/STIM_026.jpg
2290.224	0.518	1	2back	Block4	2back/STIM_026.jpg
2293.282	0.834	1	2back	Block4	2back/STIM_026.jpg
2296.65	0.916	1	2back	Block4	2back/STIM_027.jpg
2301.503	0.544	1	2back	Block4	2back/STIM_027.jpg
2305.089	0.861	1	2back	Block4	2back/STIM_027.jpg
2308.127	0.528	1	2back	Block4	2back/STIM_028.jpg
2311.524	0.736	1	2back	Block4	2back/STIM_028.jpg
2315.501	0.429	1	2back	Block4	2back/STIM_028.jpg
2319.729	0.698	1	2back	Block4	2back/STIM_029.jpg
2324.348	0.729	1	2back	Block4	2back/STIM_029.jpg
2328.131	0.724	1	2back	Block4	2back/STIM_029.jpg
2332.189	0.451	1	2back	Block4	2back/STIM_030.jpg
2334.832	0.915	1	2back	Block4	2back/STIM_030.jpg
2338.675	0.814	1	2back	Block4	2back/STIM_030.jpg
2342.816	0.805	1	2back	Block4	2back/STIM_031.jpg
2346.26	0.68	1	2back	Block4	2back/STIM_031.jpg
2349.472	0.84	0	2back	Block4	2back/STIM_031.jpg
2354.243	0.757	1	2back	Block4	2back/STIM_032.jpg
2357.497	0.715	1	2back	Block4	2back/STIM_032.jpg
2360.457	0.54	1	2back	Block4	2back/STIM_032.jpg
2364.847	0.472	1	2back	Block4	2back/STIM_033.jpg
2368.958	0.88	1	2back	Block4	2back/STIM_033.jpg
2373.79	0.731	1	2back	Block4	2back/STIM_033.jpg
2376.738	0.906	1	2back	Block4	2back/STIM_034.jpg
2380.772	0.91	1	2back	Block4	2back/STIM_034.jpg
2384.013	0.732	1	2back	Block4	2back/STIM_034.jpg
2387.785	0.804	1	2back	Block4	2back/STIM_035.jpg
2391.843	0.453	1	2back	Block4	2back/STIM_035.jpg
2395.732	0.58	1	2back	Block4	2back/STIM_035.jpg
2399.503	0.68	1	2back	Block4	2back/STIM_036.jpg
2402.75	0.763	1	2back	Block4	2back/STIM_036.jpg
2406.244	0.879	1	2back	Block4	2back/STIM_036.jpg
2410.758	0.651	1	2back	Block4	2back/STIM_037.jpg
2414.818	0.917	1	2back	Block4	2back/STIM_037.jpg
2419.562	0.668	1	2back	Block4	2back/STIM_037.jpg
2424.215	0.866	1	2back	Block4	2back/STIM_038.jpg
2428.054	0.433	0	2back	Block4	2back/STIM_038.jpg
2431.122	0.806	1	2back	Block4	2back/STIM_038.jpg
2434.726	0.441	1	2back	Block4	2back/STIM_039.jpg
2438.437	0.47	1	2back	Block4	2back/STIM_039.jpg
2441.615	0.62	1	2back	Block4	2back/STIM_039.jpg
2445.707	0.407	1	0back	Block4	0back/STIM_000.jpg
2448.193	0.712	1	0back	Block4	0back/STIM_000.jpg
2451.054	0.566	1	0back	Block4	0back/STIM_000.jpg
2455.454	0.609	1	0back	Block4	0back/STIM_001.jpg
2459.685	0.596	0	0back	Block4	0back/STIM_001.jpg
2462.471	0.494	1	0back	Block4	0back/STIM_001.jpg
2465.541	0.627	1	0back	Block4	0back/STIM_002.jpg
2468.681	0.644	1	0back	Block4	0back/STIM_002.jpg
2473.256	0.743	1	0back	Block4	0back/STIM_002.jpg
2476.515	0.564	1	0back	Block4	0back/STIM_003.jpg
2480.131	0.548	0	0back	Block4	0back/STIM_003.jpg
2482.727	0.446	1	0back	Block4	0back/STIM_003.jpg
2485.312	0.42	1	0back	Block4	0back/STIM_004.jpg
2488.528	0.483	1	0back	Block4	0back/STIM_004.jpg
2491.297	0.581	1	0back	Block4	0back/STIM_004.jpg
2494.818	0.563	1	0back	Block4	0back/STIM_005.jpg
2499.249	0.571	1	0back	Block4	0back/STIM_005.jpg
2503.564	0.564	1	0back	Block4	0back/STIM_005.jpg
2507.113	0.539	1	0back	Block4	0back/STIM_006.jpg
2510.221	0.694	1	0back	Block4	0back/STIM_006.jpg
2513.333	0.605	1	0back	Block4	0back/STIM_006.jpg
2516.021	0.46	1	0back	Block4	0back/STIM_007.jpg
2519.495	0.562	1	0back	Block4	0back/STIM_007.jpg
2523.395	0.642	1	0back	Block4	0back/STIM_007.jpg
2526.47	0.444	1	0back	Block4	0back/STIM_008.jpg
2529.182	0.424	1	0back	Block4	0back/STIM_008.jpg
2533.55	0.58	1	0back	Block4	0back/STIM_008.jpg
2536.792	0.529	1	0back	Block4	0back/STIM_009.jpg
2539.387	0.487	1	0back	Block4	0back/STIM_009.jpg
2543.614	0.617	1	0back	Block4	0back/STIM_009.jpg
2546.972	0.482	1	0back	Block4	0back/STIM_010.jpg
2550.428	0.618	1	0back	Block4	0back/STIM_010.jpg
2554.461	0.71	1	0back	Block4	0back/STIM_010.jpg
2558.901	0.547	1	0back	Block4	0back/STIM_011.jpg
2563.069	0.437	1	0back	Block4	0back/STIM_011.jpg
2566.325	0.658	1	0back	Block4	0back/STIM_011.jpg
2570.375	0.67	1	0back	Block4	0back/STIM_012.jpg
2574.413	0.637	1	0back	Block4	0back/STIM_012.jpg
2578.374	0.5	1	0back	Block4	0back/STIM_012.jpg
2581.913	0.738	1	0back	Block4	0back/STIM_013.jpg
2584.914	0.507	1	0back	Block4	0back/STIM_013.jpg
2588.777	0.773	1	0back	Block4	0back/STIM_013.jpg
2593.34	0.461	1	0back	Block4	0back/STIM_014.jpg
2597.745	0.592	1	0back	Block4	0back/STIM_014.jpg
2601.521	0.721	1	0back	Block4	0back/STIM_014.jpg
2604.819	0.759	1	0back	Block4	0back/STIM_015.jpg
2608.709	0.534	1	0back	Block4	0back/STIM_015.jpg
2613.248	0.672	1	0back	Block4	0back/STIM_015.jpg
2616.919	0.668	1	0back	Block4	0back/STIM_016.jpg
2619.669	0.42	1	0back	Block4	0back/STIM_016.jpg
2623.523	0.598	1	0back	Block4	0back/STIM_016.jpg
2626.338	0.762	1	0back	Block4	0back/STIM_017.jpg
2629.188	0.73	1	0back	Block4	0back/STIM_017.jpg
2633.03	0.492	1	0back	Block4	0back/STIM_017.jpg
2637.142	0.705	1	0back	Block4	0back/STIM_018.jpg
2640.723	0.5	1	0back	Block4	0back/STIM_018.jpg
2644.001	0.701	1	0back	Block4	0back/STIM_018.jpg
2647.073	0.438	1	0back	Block4	0back/STIM_019.jpg
2651.352	0.591	1	0back	Block4	0back/STIM_019.jpg
2654.946	0.441	1	0back	Block4	0back/STIM_019.jpg
