onset	duration	accuracy_binary	trial_type	learning_stage	stimulus
0.0	2.885	1	generate	Run1	generate/STIM_000.jpg
4.555	2.819	1	generate	Run1	generate/STIM_000.jpg
9.866	3.027	0	generate	Run1	generate/STIM_000.jpg
14.78	1.189	1	generate	Run1	generate/STIM_000.jpg
19.236	1.468	1	generate	Run1	generate/STIM_000.jpg
23.674	2.837	1	generate	Run1	generate/STIM_001.jpg
30.038	2.298	0	generate	Run1	generate/STIM_001.jpg
35.908	1.943	1	generate	Run1	generate/STIM_001.jpg
41.168	1.258	1	generate	Run1	generate/STIM_001.jpg
45.377	1.906	1	generate	Run1	generate/STIM_001.jpg
49.733	2.808	0	generate	Run1	generate/STIM_002.jpg
54.939	2.618	1	generate	Run1	generate/STIM_002.jpg
60.555	1.55	1	generate	Run1	generate/STIM_002.jpg
65.068	2.624	1	generate	Run1	generate/STIM_002.jpg
71.353	2.492	1	generate	Run1	generate/STIM_002.jpg
77.145	2.961	1	generate	Run1	generate/STIM_003.jpg
82.517	1.748	1	generate	Run1	generate/STIM_003.jpg
86.677	2.764	1	generate	Run1	generate/STIM_003.jpg
91.611	2.707	1	generate	Run1	generate/STIM_003.jpg
97.541	2.06	1	generate	Run1	generate/STIM_003.jpg
102.17	1.669	1	generate	Run1	generate/STIM_004.jpg
106.157	2.575	1	generate	Run1	generate/STIM_004.jpg
111.038	1.216	1	generate	Run1	generate/STIM_004.jpg
115.055	1.514	1	generate	Run1	generate/STIM_004.jpg
119.861	1.466	1	generate	Run1	generate/STIM_004.jpg
124.292	3.12	1	generate	Run1	generate/STIM_005.jpg
129.987	1.258	1	generate	Run1	generate/STIM_005.jpg
134.871	2.07	1	generate	Run1	generate/STIM_005.jpg
139.429	2.256	1	generate	Run1	generate/STIM_005.jpg
144.54	2.512	0	generate	Run1	generate/STIM_005.jpg
150.572	2.613	1	generate	Run1	generate/STIM_006.jpg
155.964	2.875	1	generate	Run1	generate/STIM_006.jpg
161.065	1.366	0	generate	Run1	generate/STIM_006.jpg
165.393	1.471	1	generate	Run1	generate/STIM_006.jpg
170.129	2.35	1	generate	Run1	generate/STIM_006.jpg
174.268	2.859	1	generate	Run1	generate/STIM_007.jpg
180.262	3.147	1	generate	Run1	generate/STIM_007.jpg
185.073	2.406	1	generate	Run1	generate/STIM_007.jpg
190.892	2.765	1	generate	Run1	generate/STIM_007.jpg
195.935	2.421	1	generate	Run1	generate/STIM_007.jpg
201.564	3.057	1	generate	Run1	generate/STIM_008.jpg
207.683	2.341	0	generate	Run1	generate/STIM_008.jpg
213.603	2.292	1	generate	Run1	generate/STIM_008.jpg
219.636	1.517	1	generate	Run1	generate/STIM_008.jpg
223.876	1.224	1	generate	Run1	generate/STIM_008.jpg
227.173	3.022	1	generate	Run1	generate/STIM_009.jpg
233.87	1.742	0	generate	Run1	generate/STIM_009.jpg
238.68	2.265	1	generate	Run1	generate/STIM_009.jpg
243.984	1.718	1	generate	Run1	generate/STIM_009.jpg
248.642	2.287	0	generate	Run1	generate/STIM_009.jpg
254.52	1.815	1	generate	Run1	generate/STIM_010.jpg
259.407	3.037	1	generate	Run1	generate/STIM_010.jpg
266.04	2.271	0	generate	Run1	generate/STIM_010.jpg
270.488	1.185	1	generate	Run1	generate/STIM_010.jpg
274.529	2.468	0	generate	Run1	generate/STIM_010.jpg
278.933	2.107	1	generate	Run1	generate/STIM_011.jpg
283.086	2.917	1	generate	Run1	generate/STIM_011.jpg
288.788	1.778	0	generate	Run1	generate/STIM_011.jpg
293.773	1.754	1	generate	Run1	generate/STIM_011.jpg
297.892	2.291	1	generate	Run1	generate/STIM_011.jpg
302.237	3.189	0	generate	Run1	generate/STIM_012.jpg
307.39	1.955	1	generate	Run1	generate/STIM_012.jpg
311.992	1.985	1	generate	Run1	generate/STIM_012.jpg
317.061	2.754	0	generate	Run1	generate/STIM_012.jpg
322.31	2.419	0	generate	Run1	generate/STIM_012.jpg
328.305	3.319	1	generate	Run1	generate/STIM_013.jpg
333.645	1.903	0	generate	Run1	generate/STIM_013.jpg
337.607	2.516	1	generate	Run1	generate/STIM_013.jpg
343.199	1.354	0	generate	Run1	generate/STIM_013.jpg
348.146	1.785	0	generate	Run1	generate/STIM_013.jpg
353.217	2.995	1	generate	Run1	generate/STIM_014.jpg
358.101	2.348	0	generate	Run1	generate/STIM_014.jpg
363.031	1.319	1	generate	Run1	generate/STIM_014.jpg
367.029	2.373	1	generate	Run1	generate/STIM_014.jpg
372.898	1.709	1	generate	Run1	generate/STIM_014.jpg
377.149	3.047	0	generate	Run1	generate/STIM_015.jpg
383.1	3.075	1	generate	Run1	generate/STIM_015.jpg
388.972	2.34	1	generate	Run1	generate/STIM_015.jpg
394.107	1.353	1	generate	Run1	generate/STIM_015.jpg
398.374	2.179	1	generate	Run1	generate/STIM_015.jpg
403.476	2.618	1	generate	Run1	generate/STIM_016.jpg
408.86	2.452	1	generate	Run1	generate/STIM_016.jpg
413.603	2.878	1	generate	Run1	generate/STIM_016.jpg
419.177	1.6	0	generate	Run1	generate/STIM_016.jpg
424.588	1.118	1	generate	Run1	generate/STIM_016.jpg
428.161	2.664	0	generate	Run1	generate/STIM_017.jpg
433.551	2.256	1	generate	Run1	generate/STIM_017.jpg
439.354	2.811	1	generate	Run1	generate/STIM_017.jpg
445.761	2.165	0	generate	Run1	generate/STIM_017.jpg
450.97	2.145	1	generate	Run1	generate/STIM_017.jpg
455.308	1.619	1	generate	Run1	generate/STIM_018.jpg
459.987	1.79	1	generate	Run1	generate/STIM_018.jpg
464.243	1.89	1	generate	Run1	generate/STIM_018.jpg
468.949	1.982	1	generate	Run1	generate/STIM_018.jpg
474.127	1.082	1	generate	Run1	generate/STIM_018.jpg
478.038	2.097	1	generate	Run1	generate/STIM_019.jpg
483.674	2.724	1	generate	Run1	generate/STIM_019.jpg
489.384	2.881	0	generate	Run1	generate/STIM_019.jpg
494.376	2.514	1	generate	Run1	generate/STIM_019.jpg
500.159	1.272	1	generate	Run1	generate/STIM_019.jpg
504.609	1.884	0	generate	Run1	generate/STIM_020.jpg
509.134	1.607	0	generate	Run1	generate/STIM_020.jpg
514.508	2.386	1	generate	Run1	generate/STIM_020.jpg
520.585	1.127	1	generate	Run1	generate/STIM_020.jpg
525.407	1.197	1	generate	Run1	generate/STIM_020.jpg
528.522	2.609	1	generate	Run1	generate/STIM_021.jpg
533.738	1.718	1	generate	Run1	generate/STIM_021.jpg
539.144	2.897	1	generate	Run1	generate/STIM_021.jpg
544.024	2.17	0	generate	Run1	generate/STIM_021.jpg
549.487	1.723	1	generate	Run1	generate/STIM_021.jpg
553.366	2.13	1	generate	Run1	generate/STIM_022.jpg
558.335	3.039	1	generate	Run1	generate/STIM_022.jpg
563.787	2.469	1	generate	Run1	generate/STIM_022.jpg
568.472	2.373	0	generate	Run1	generate/STIM_022.jpg
572.859	1.399	1	generate	Run1	generate/STIM_022.jpg
577.65	2.472	1	generate	Run1	generate/STIM_023.jpg
582.21	2.468	1	generate	Run1	generate/STIM_023.jpg
587.063	1.488	1	generate	Run1	generate/STIM_023.jpg
590.854	1.271	1	generate	Run1	generate/STIM_023.jpg
595.672	1.454	1	generate	Run1	generate/STIM_023.jpg
600.702	2.292	1	generate	Run1	generate/STIM_024.jpg
604.875	2.157	1	generate	Run1	generate/STIM_024.jpg
608.781	1.984	1	generate	Run1	generate/STIM_024.jpg
612.906	2.047	1	generate	Run1	generate/STIM_024.jpg
616.905	2.299	1	generate	Run1	generate/STIM_024.jpg
621.806	0.57	1	repeat	Run1	repeat/STIM_000.jpg
625.539	0.87	1	repeat	Run1	repeat/STIM_000.jpg
628.999	0.929	1	repeat	Run1	repeat/STIM_000.jpg
633.445	0.738	1	repeat	Run1	repeat/STIM_000.jpg
636.368	0.837	1	repeat	Run1	repeat/STIM_000.jpg
639.607	0.884	1	repeat	Run1	repeat/STIM_001.jpg
643.462	0.52	1	repeat	Run1	repeat/STIM_001.jpg
647.299	0.56	1	repeat	Run1	repeat/STIM_001.jpg
650.912	0.591	1	repeat	Run1	repeat/STIM_001.jpg
655.259	0.752	1	repeat	Run1	repeat/STIM_001.jpg
659.6	0.914	1	repeat	Run1	repeat/STIM_002.jpg
662.617	0.721	1	repeat	Run1	repeat/STIM_002.jpg
666.724	0.847	1	repeat	Run1	repeat/STIM_002.jpg
671.431	0.723	1	repeat	Run1	repeat/STIM_002.jpg
675.686	0.678	1	repeat	Run1	repeat/STIM_002.jpg
679.573	0.782	1	repeat	Run1	repeat/STIM_003.jpg
682.734	0.755	1	repeat	Run1	repeat/STIM_003.jpg
687.214	0.568	1	repeat	Run1	repeat/STIM_003.jpg
690.442	0.694	1	repeat	Run1	repeat/STIM_003.jpg
694.052	0.687	1	repeat	Run1	repeat/STIM_003.jpg
697.823	1.002	1	repeat	Run1	repeat/STIM_004.jpg
702.219	0.737	1	repeat	Run1	repeat/STIM_004.jpg
705.255	0.831	1	repeat	Run1	repeat/STIM_004.jpg
708.401	1.074	1	repeat	Run1	repeat/STIM_004.jpg
711.902	1.083	1	repeat	Run1	repeat/STIM_004.jpg
715.041	0.671	1	repeat	Run1	repeat/STIM_005.jpg
718.444	1.026	1	repeat	Run1	repeat/STIM_005.jpg
722.455	0.756	1	repeat	Run1	repeat/STIM_005.jpg
725.196	0.636	1	repeat	Run1	repeat/STIM_005.jpg
729.485	0.714	1	repeat	Run1	repeat/STIM_005.jpg
734.099	0.98	1	repeat	Run1	repeat/STIM_006.jpg
738.558	0.846	1	repeat	Run1	repeat/STIM_006.jpg
742.183	1.011	1	repeat	Run1	repeat/STIM_006.jpg
746.989	0.836	1	repeat	Run1	repeat/STIM_006.jpg
751.773	0.638	1	repeat	Run1	repeat/STIM_006.jpg
754.417	1.08	1	repeat	Run1	repeat/STIM_007.jpg
758.327	0.815	1	repeat	Run1	repeat/STIM_007.jpg
762.205	1.064	1	repeat	Run1	repeat/STIM_007.jpg
765.302	0.545	1	repeat	Run1	repeat/STIM_007.jpg
768.143	1.075	1	repeat	Run1	repeat/STIM_007.jpg
771.31	0.549	1	repeat	Run1	repeat/STIM_008.jpg
774.557	1.142	1	repeat	Run1	repeat/STIM_008.jpg
778.41	0.587	1	repeat	Run1	repeat/STIM_008.jpg
782.468	0.984	1	repeat	Run1	repeat/STIM_008.jpg
786.117	0.829	1	repeat	Run1	repeat/STIM_008.jpg
789.285	0.579	1	repeat	Run1	repeat/STIM_009.jpg
792.563	0.775	1	repeat	Run1	repeat/STIM_009.jpg
796.099	0.483	1	repeat	Run1	repeat/STIM_009.jpg
799.472	0.576	1	repeat	Run1	repeat/STIM_009.jpg
802.198	0.768	1	repeat	Run1	repeat/STIM_009.jpg
805.556	0.836	1	repeat	Run1	repeat/STIM_010.jpg
809.474	0.878	1	repeat	Run1	repeat/STIM_010.jpg
812.385	0.588	1	repeat	Run1	repeat/STIM_010.jpg
815.63	0.998	1	repeat	Run1	repeat/STIM_010.jpg
819.303	1.029	1	repeat	Run1	repeat/STIM_010.jpg
823.952	0.99	1	repeat	Run1	repeat/STIM_011.jpg
827.679	0.793	1	repeat	Run1	repeat/STIM_011.jpg
830.625	0.716	1	repeat	Run1	repeat/STIM_011.jpg
834.635	0.687	1	repeat	Run1	repeat/STIM_011.jpg
837.496	1.099	1	repeat	Run1	repeat/STIM_011.jpg
840.5	0.724	1	repeat	Run1	repeat/STIM_012.jpg
843.623	0.626	1	repeat	Run1	repeat/STIM_012.jpg
847.326	0.697	0	repeat	Run1	repeat/STIM_012.jpg
850.088	1.0	1	repeat	Run1	repeat/STIM_012.jpg
854.6	0.85	0	repeat	Run1	repeat/STIM_012.jpg
857.969	0.926	1	repeat	Run1	repeat/STIM_013.jpg
861.274	0.76	1	repeat	Run1	repeat/STIM_013.jpg
864.679	0.786	1	repeat	Run1	repeat/STIM_013.jpg
868.879	0.663	1	repeat	Run1	repeat/STIM_013.jpg
873.384	1.077	1	repeat	Run1	repeat/STIM_013.jpg
876.62	0.602	1	repeat	Run1	repeat/STIM_014.jpg
880.239	0.743	1	repeat	Run1	repeat/STIM_014.jpg
883.283	0.589	1	repeat	Run1	repeat/STIM_014.jpg
886.017	1.024	1	repeat	Run1	repeat/STIM_014.jpg
889.482	0.617	1	repeat	Run1	repeat/STIM_014.jpg
892.623	1.694	1	generate	Run2	generate/STIM_000.jpg
896.279	1.213	1	generate	Run2	generate/STIM_000.jpg
901.109	1.668	1	generate	Run2	generate/STIM_000.jpg
905.543	1.033	1	generate	Run2	generate/STIM_000.jpg
910.448	1.151	0	generate	Run2	generate/STIM_000.jpg
914.046	1.578	0	generate	Run2	generate/STIM_001.jpg
917.734	1.868	1	generate	Run2	generate/STIM_001.jpg
922.13	1.447	1	generate	Run2	generate/STIM_001.jpg
926.512	1.256	1	generate	Run2	generate/STIM_001.jpg
930.952	1.822	1	generate	Run2	generate/STIM_001.jpg
935.757	1.344	1	generate	Run2	generate/STIM_002.jpg
940.787	2.449	1	generate	Run2	generate/STIM_002.jpg
945.266	1.608	1	generate	Run2	generate/STIM_002.jpg
949.281	1.095	1	generate	Run2	generate/STIM_002.jpg
953.876	1.938	1	generate	Run2	generate/STIM_002.jpg
958.609	1.284	0	generate	Run2	generate/STIM_003.jpg
961.907	2.374	1	generate	Run2	generate/STIM_003.jpg
966.868	1.109	1	generate	Run2	generate/STIM_003.jpg
971.756	2.119	1	generate	Run2	generate/STIM_003.jpg
977.655	2.274	1	generate	Run2	generate/STIM_003.jpg
983.508	1.63	1	generate	Run2	generate/STIM_004.jpg
988.306	1.769	1	generate	Run2	generate/STIM_004.jpg
992.904	2.119	1	generate	Run2	generate/STIM_004.jpg
998.783	1.938	1	generate	Run2	generate/STIM_004.jpg
1003.883	2.129	1	generate	Run2	generate/STIM_004.jpg
1009.114	1.196	0	generate	Run2	generate/STIM_005.jpg
1012.996	2.162	1	generate	Run2	generate/STIM_005.jpg
1018.305	2.37	1	generate	Run2	generate/STIM_005.jpg
1022.47	1.797	1	generate	Run2	generate/STIM_005.jpg
1026.811	1.682	1	generate	Run2	generate/STIM_005.jpg
1031.319	2.16	1	generate	Run2	generate/STIM_006.jpg
1035.88	2.581	1	generate	Run2	generate/STIM_006.jpg
1041.618	2.446	1	generate	Run2	generate/STIM_006.jpg
1046.233	1.178	1	generate	Run2	generate/STIM_006.jpg
1049.551	1.68	0	generate	Run2	generate/STIM_006.jpg
1055.084	2.674	1	generate	Run2	generate/STIM_007.jpg
1060.25	2.626	1	generate	Run2	generate/STIM_007.jpg
1065.693	1.876	1	generate	Run2	generate/STIM_007.jpg
1069.821	1.861	1	generate	Run2	generate/STIM_007.jpg
1074.167	1.642	1	generate	Run2	generate/STIM_007.jpg
1078.448	1.716	0	generate	Run2	generate/STIM_008.jpg
1083.247	2.182	0	generate	Run2	generate/STIM_008.jpg
1089.188	2.396	1	generate	Run2	generate/STIM_008.jpg
1094.858	1.697	1	generate	Run2	generate/STIM_008.jpg
1099.064	2.008	1	generate	Run2	generate/STIM_008.jpg
1103.095	1.236	1	generate	Run2	generate/STIM_009.jpg
1107.541	2.131	1	generate	Run2	generate/STIM_009.jpg
1112.352	1.912	1	generate	Run2	generate/STIM_009.jpg
1117.044	1.88	1	generate	Run2	generate/STIM_009.jpg
1122.559	0.866	0	generate	Run2	generate/STIM_009.jpg
1125.673	1.149	1	generate	Run2	generate/STIM_010.jpg
1130.355	2.072	1	generate	Run2	generate/STIM_010.jpg
1135.269	2.299	1	generate	Run2	generate/STIM_010.jpg
1140.959	1.215	1	generate	Run2	generate/STIM_010.jpg
1145.866	1.603	1	generate	Run2	generate/STIM_010.jpg
1150.854	2.762	1	generate	Run2	generate/STIM_011.jpg
1156.293	1.48	1	generate	Run2	generate/STIM_011.jpg
1160.57	1.704	1	generate	Run2	generate/STIM_011.jpg
1165.577	1.63	1	generate	Run2	generate/STIM_011.jpg
1170.859	1.168	1	generate	Run2	generate/STIM_011.jpg
1175.697	1.744	1	generate	Run2	generate/STIM_012.jpg
1180.919	2.28	1	generate	Run2	generate/STIM_012.jpg
1185.857	1.591	0	generate	Run2	generate/STIM_012.jpg
1190.706	1.273	0	generate	Run2	generate/STIM_012.jpg
1194.787	1.69	1	generate	Run2	generate/STIM_012.jpg
1200.198	2.818	1	generate	Run2	generate/STIM_013.jpg
1204.964	1.999	1	generate	Run2	generate/STIM_013.jpg
1210.519	2.03	0	generate	Run2	generate/STIM_013.jpg
1214.672	1.977	1	generate	Run2	generate/STIM_013.jpg
1219.592	1.998	1	generate	Run2	generate/STIM_013.jpg
1224.046	1.803	1	generate	Run2	generate/STIM_014.jpg
1229.008	1.697	0	generate	Run2	generate/STIM_014.jpg
1233.422	1.419	0	generate	Run2	generate/STIM_014.jpg
1237.637	1.527	1	generate	Run2	generate/STIM_014.jpg
1241.694	1.582	1	generate	Run2	generate/STIM_014.jpg
1246.517	2.674	1	generate	Run2	generate/STIM_015.jpg
1252.877	1.077	1	generate	Run2	generate/STIM_015.jpg
1256.064	1.24	1	generate	Run2	generate/STIM_015.jpg
1260.468	1.121	1	generate	Run2	generate/STIM_015.jpg
1265.353	1.778	1	generate	Run2	generate/STIM_015.jpg
1269.739	2.325	1	generate	Run2	generate/STIM_016.jpg
1273.886	1.922	1	generate	Run2	generate/STIM_016.jpg
1278.501	1.191	1	generate	Run2	generate/STIM_016.jpg
1282.364	1.328	1	generate	Run2	generate/STIM_016.jpg
1286.088	1.936	1	generate	Run2	generate/STIM_016.jpg
1290.334	2.336	1	generate	Run2	generate/STIM_017.jpg
1294.835	2.505	0	generate	Run2	generate/STIM_017.jpg
1300.25	1.66	1	generate	Run2	generate/STIM_017.jpg
1305.353	2.236	1	generate	Run2	generate/STIM_017.jpg
1310.374	1.256	1	generate	Run2	generate/STIM_017.jpg
1314.937	2.262	1	generate	Run2	generate/STIM_018.jpg
1320.718	2.385	1	generate	Run2	generate/STIM_018.jpg
1324.964	2.32	1	generate	Run2	generate/STIM_018.jpg
1329.173	1.616	1	generate	Run2	generate/STIM_018.jpg
1334.161	2.013	0	generate	Run2	generate/STIM_018.jpg
1339.726	2.546	1	generate	Run2	generate/STIM_019.jpg
1344.107	2.342	1	generate	Run2	generate/STIM_019.jpg
1349.295	1.478	1	generate	Run2	generate/STIM_019.jpg
1353.596	1.343	1	generate	Run2	generate/STIM_019.jpg
1356.943	1.066	1	generate	Run2	generate/STIM_019.jpg
1360.209	1.971	1	generate	Run2	generate/STIM_020.jpg
1365.552	2.646	1	generate	Run2	generate/STIM_020.jpg
1371.091	1.354	1	generate	Run2	generate/STIM_020.jpg
1376.35	1.028	1	generate	Run2	generate/STIM_020.jpg
1379.715	1.297	1	generate	Run2	generate/STIM_020.jpg
1383.543	1.783	1	generate	Run2	generate/STIM_021.jpg
1387.96	2.117	1	generate	Run2	generate/STIM_021.jpg
1393.882	1.142	1	generate	Run2	generate/STIM_021.jpg
1398.203	2.186	0	generate	Run2	generate/STIM_021.jpg
1402.882	2.28	1	generate	Run2	generate/STIM_021.jpg
1408.457	1.547	0	generate	Run2	generate/STIM_022.jpg
1412.923	2.052	1	generate	Run2	generate/STIM_022.jpg
1417.058	2.0	0	generate	Run2	generate/STIM_022.jpg
1422.455	1.032	1	generate	Run2	generate/STIM_022.jpg
1426.503	0.898	1	generate	Run2	generate/STIM_022.jpg
1429.564	1.76	0	generate	Run2	generate/STIM_023.jpg
1433.334	2.535	1	generate	Run2	generate/STIM_023.jpg
1437.652	2.227	0	generate	Run2	generate/STIM_023.jpg
1441.827	1.554	0	generate	Run2	generate/STIM_023.jpg
1447.175	2.074	0	generate	Run2	generate/STIM_023.jpg
1451.552	1.501	0	generate	Run2	generate/STIM_024.jpg
1456.388	1.092	1	generate	Run2	generate/STIM_024.jpg
1459.575	1.518	1	generate	Run2	generate/STIM_024.jpg
1463.38	1.323	1	generate	Run2	generate/STIM_024.jpg
1467.077	1.793	1	generate	Run2	generate/STIM_024.jpg
1470.735	0.834	1	repeat	Run2	repeat/STIM_000.jpg
1473.6	0.742	1	repeat	Run2	repeat/STIM_000.jpg
1478.09	0.788	1	repeat	Run2	repeat/STIM_000.jpg
1482.01	0.622	1	repeat	Run2	repeat/STIM_000.jpg
1486.047	0.633	1	repeat	Run2	repeat/STIM_000.jpg
1490.228	0.96	1	repeat	Run2	repeat/STIM_001.jpg
1493.437	0.781	1	repeat	Run2	repeat/STIM_001.jpg
1498.105	0.59	1	repeat	Run2	repeat/STIM_001.jpg
1501.36	0.826	1	repeat	Run2	repeat/STIM_001.jpg
1504.282	0.652	1	repeat	Run2	repeat/STIM_001.jpg
1507.555	0.922	1	repeat	Run2	repeat/STIM_002.jpg
1512.275	1.009	1	repeat	Run2	repeat/STIM_002.jpg
1515.297	0.813	1	repeat	Run2	repeat/STIM_002.jpg
1519.124	0.653	1	repeat	Run2	repeat/STIM_002.jpg
1523.446	1.114	1	repeat	Run2	repeat/STIM_002.jpg
1526.516	0.827	1	repeat	Run2	repeat/STIM_003.jpg
1529.779	1.079	1	repeat	Run2	repeat/STIM_003.jpg
1533.408	0.817	1	repeat	Run2	repeat/STIM_003.jpg
1537.097	0.895	1	repeat	Run2	repeat/STIM_003.jpg
1540.704	0.841	1	repeat	Run2	repeat/STIM_003.jpg
1544.019	0.971	1	repeat	Run2	repeat/STIM_004.jpg
1547.824	0.916	1	repeat	Run2	repeat/STIM_004.jpg
1552.713	0.856	0	repeat	Run2	repeat/STIM_004.jpg
1556.277	0.954	1	repeat	Run2	repeat/STIM_004.jpg
1560.526	0.498	1	repeat	Run2	repeat/STIM_004.jpg
1563.616	0.957	1	repeat	Run2	repeat/STIM_005.jpg
1566.871	0.88	1	repeat	Run2	repeat/STIM_005.jpg
1570.62	0.85	1	repeat	Run2	repeat/STIM_005.jpg
1573.522	0.931	1	repeat	Run2	repeat/STIM_005.jpg
1577.101	0.786	1	repeat	Run2	repeat/STIM_005.jpg
1580.825	0.919	1	repeat	Run2	repeat/STIM_006.jpg
1583.997	1.001	1	repeat	Run2	repeat/STIM_006.jpg
1588.103	0.752	1	repeat	Run2	repeat/STIM_006.jpg
1591.264	0.715	1	repeat	Run2	repeat/STIM_006.jpg
1594.529	0.772	1	repeat	Run2	repeat/STIM_006.jpg
1598.465	0.82	1	repeat	Run2	repeat/STIM_007.jpg
1602.355	0.969	1	repeat	Run2	repeat/STIM_007.jpg
1605.632	1.023	1	repeat	Run2	repeat/STIM_007.jpg
1608.852	0.738	1	repeat	Run2	repeat/STIM_007.jpg
1613.38	0.982	1	repeat	Run2	repeat/STIM_007.jpg
1617.364	1.02	1	repeat	Run2	repeat/STIM_008.jpg
1621.812	0.976	1	repeat	Run2	repeat/STIM_008.jpg
1625.713	0.896	1	repeat	Run2	repeat/STIM_008.jpg
1629.783	0.732	1	repeat	Run2	repeat/STIM_008.jpg
1632.668	1.006	1	repeat	Run2	repeat/STIM_008.jpg
1636.054	0.654	1	repeat	Run2	repeat/STIM_009.jpg
1640.601	0.711	1	repeat	Run2	repeat/STIM_009.jpg
1645.042	0.874	0	repeat	Run2	repeat/STIM_009.jpg
1648.082	0.98	1	repeat	Run2	repeat/STIM_009.jpg
1651.773	1.062	1	repeat	Run2	repeat/STIM_009.jpg
1654.895	1.111	1	repeat	Run2	repeat/STIM_010.jpg
1659.087	0.741	1	repeat	Run2	repeat/STIM_010.jpg
1662.747	0.689	1	repeat	Run2	repeat/STIM_010.jpg
1665.587	1.044	1	repeat	Run2	repeat/STIM_010.jpg
1669.169	0.617	1	repeat	Run2	repeat/STIM_010.jpg
1672.351	0.783	1	repeat	Run2	repeat/STIM_011.jpg
1676.22	0.754	1	repeat	Run2	repeat/STIM_011.jpg
1680.173	0.696	1	repeat	Run2	repeat/STIM_011.jpg
1684.018	0.851	1	repeat	Run2	repeat/STIM_011.jpg
1688.597	0.668	1	repeat	Run2	repeat/STIM_011.jpg
1691.966	0.853	1	repeat	Run2	repeat/STIM_012.jpg
1696.537	0.677	1	repeat	Run2	repeat/STIM_012.jpg
1700.59	0.707	1	repeat	Run2	repeat/STIM_012.jpg
1705.123	1.087	1	repeat	Run2	repeat/STIM_012.jpg
1708.525	0.902	1	repeat	Run2	repeat/STIM_012.jpg
1712.007	1.064	1	repeat	Run2	repeat/STIM_013.jpg
1716.69	0.658	1	repeat	Run2	repeat/STIM_013.jpg
1720.149	1.132	1	repeat	Run2	repeat/STIM_013.jpg
1723.433	0.941	1	repeat	Run2	repeat/STIM_013.jpg
1726.686	0.905	1	repeat	Run2	repeat/STIM_013.jpg
1730.702	0.982	1	repeat	Run2	repeat/STIM_014.jpg
1735.026	0.514	1	repeat	Run2	repeat/STIM_014.jpg
1737.807	1.05	1	repeat	Run2	repeat/STIM_014.jpg
1742.394	0.987	0	repeat	Run2	repeat/STIM_014.jpg
1745.404	0.957	1	repeat	Run2	repeat/STIM_014.jpg
1749.633	1.378	1	generate	Run3	generate/STIM_000.jpg
1753.521	1.633	1	generate	Run3	generate/STIM_000.jpg
1757.948	1.588	1	generate	Run3	generate/STIM_000.jpg
1761.46	1.577	1	generate	Run3	generate/STIM_000.jpg
1765.503	1.01	1	generate	Run3	generate/STIM_000.jpg
1770.256	2.073	1	generate	Run3	generate/STIM_001.jpg
1774.815	2.34	1	generate	Run3	generate/STIM_001.jpg
1779.888	1.518	1	generate	Run3	generate/STIM_001.jpg
1783.83	1.818	1	generate	Run3	generate/STIM_001.jpg
1787.718	1.426	1	generate	Run3	generate/STIM_001.jpg
1792.67	1.222	1	generate	Run3	generate/STIM_002.jpg
1797.63	2.107	1	generate	Run3	generate/STIM_002.jpg
1802.961	1.381	1	generate	Run3	generate/STIM_002.jpg
1807.577	1.74	0	generate	Run3	generate/STIM_002.jpg
1811.993	1.39	1	generate	Run3	generate/STIM_002.jpg
1815.952	1.697	1	generate	Run3	generate/STIM_003.jpg
1819.686	2.252	1	generate	Run3	generate/STIM_003.jpg
1825.42	1.67	1	generate	Run3	generate/STIM_003.jpg
1830.012	2.157	0	generate	Run3	generate/STIM_003.jpg
1834.523	1.169	1	generate	Run3	generate/STIM_003.jpg
1838.938	1.508	1	generate	Run3	generate/STIM_004.jpg
1843.845	1.52	1	generate	Run3	generate/STIM_004.jpg
1847.774	1.534	1	generate	Run3	generate/STIM_004.jpg
1851.988	2.12	1	generate	Run3	generate/STIM_004.jpg
1856.727	1.488	0	generate	Run3	generate/STIM_004.jpg
1861.961	1.547	1	generate	Run3	generate/STIM_005.jpg
1866.572	1.787	1	generate	Run3	generate/STIM_005.jpg
1871.329	1.681	0	generate	Run3	generate/STIM_005.jpg
1876.119	1.579	1	generate	Run3	generate/STIM_005.jpg
1879.899	1.057	1	generate	Run3	generate/STIM_005.jpg
1883.981	1.838	1	generate	Run3	generate/STIM_006.jpg
1887.841	1.119	1	generate	Run3	generate/STIM_006.jpg
1892.709	1.524	1	generate	Run3	generate/STIM_006.jpg
1897.026	1.681	1	generate	Run3	generate/STIM_006.jpg
1902.492	2.067	1	generate	Run3	generate/STIM_006.jpg
1907.256	1.06	1	generate	Run3	generate/STIM_007.jpg
1911.401	1.112	1	generate	Run3	generate/STIM_007.jpg
1914.992	2.085	1	generate	Run3	generate/STIM_007.jpg
1919.706	1.488	0	generate	Run3	generate/STIM_007.jpg
1924.764	1.778	1	generate	Run3	generate/STIM_007.jpg
1928.443	1.586	1	generate	Run3	generate/STIM_008.jpg
1932.035	1.422	1	generate	Run3	generate/STIM_008.jpg
1935.431	1.006	1	generate	Run3	generate/STIM_008.jpg
1938.79	1.792	1	generate	Run3	generate/STIM_008.jpg
1944.4	1.278	1	generate	Run3	generate/STIM_008.jpg
1948.622	2.246	1	generate	Run3	generate/STIM_009.jpg
1954.614	2.235	1	generate	Run3	generate/STIM_009.jpg
1958.635	1.56	1	generate	Run3	generate/STIM_009.jpg
1962.139	2.074	1	generate	Run3	generate/STIM_009.jpg
1967.828	1.425	1	generate	Run3	generate/STIM_009.jpg
1971.581	1.071	1	generate	Run3	generate/STIM_010.jpg
1974.984	2.266	1	generate	Run3	generate/STIM_010.jpg
1980.947	1.556	1	generate	Run3	generate/STIM_010.jpg
1986.206	0.991	1	generate	Run3	generate/STIM_010.jpg
1990.674	1.823	1	generate	Run3	generate/STIM_010.jpg
1995.9	1.528	1	generate	Run3	generate/STIM_011.jpg
2001.166	1.238	1	generate	Run3	generate/STIM_011.jpg
2004.768	1.364	1	generate	Run3	generate/STIM_011.jpg
2008.828	1.875	1	generate	Run3	generate/STIM_011.jpg
2013.142	1.604	1	generate	Run3	generate/STIM_011.jpg
2017.293	0.993	1	generate	Run3	generate/STIM_012.jpg
2022.106	1.469	1	generate	Run3	generate/STIM_012.jpg
2025.676	1.714	1	generate	Run3	generate/STIM_012.jpg
2030.055	2.073	1	generate	Run3	generate/STIM_012.jpg
2035.536	1.774	1	generate	Run3	generate/STIM_012.jpg
2039.752	1.121	1	generate	Run3	generate/STIM_013.jpg
2044.417	1.99	1	generate	Run3	generate/STIM_013.jpg
2049.47	2.234	1	generate	Run3	generate/STIM_013.jpg
2054.892	1.213	1	generate	Run3	generate/STIM_013.jpg
2058.249	1.79	1	generate	Run3	generate/STIM_013.jpg
2063.898	1.026	1	generate	Run3	generate/STIM_014.jpg
2068.316	1.749	1	generate	Run3	generate/STIM_014.jpg
2072.771	1.866	1	generate	Run3	generate/STIM_014.jpg
2076.722	2.309	1	generate	Run3	generate/STIM_014.jpg
2081.497	1.919	1	generate	Run3	generate/STIM_014.jpg
2085.787	1.866	1	generate	Run3	generate/STIM_015.jpg
2090.578	1.63	1	generate	Run3	generate/STIM_015.jpg
2094.955	1.999	1	generate	Run3	generate/STIM_015.jpg
2099.022	2.072	1	generate	Run3	generate/STIM_015.jpg
2103.155	1.443	1	generate	Run3	generate/STIM_015.jpg
2107.46	2.201	1	generate	Run3	generate/STIM_016.jpg
2112.235	1.224	1	generate	Run3	generate/STIM_016.jpg
2117.109	1.772	1	generate	Run3	generate/STIM_016.jpg
2121.412	1.341	1	generate	Run3	generate/STIM_016.jpg
2125.153	1.162	1	generate	Run3	generate/STIM_016.jpg
2129.639	1.83	1	generate	Run3	generate/STIM_017.jpg
2133.709	1.304	1	generate	Run3	generate/STIM_017.jpg
2138.524	1.049	1	generate	Run3	generate/STIM_017.jpg
2142.578	1.865	1	generate	Run3	generate/STIM_017.jpg
2147.809	2.349	1	generate	Run3	generate/STIM_017.jpg
2153.258	2.194	1	generate	Run3	generate/STIM_018.jpg
2158.365	2.193	1	generate	Run3	generate/STIM_018.jpg
2162.834	1.324	1	generate	Run3	generate/STIM_018.jpg
2167.174	0.785	1	generate	Run3	generate/STIM_018.jpg
2170.576	1.835	1	generate	Run3	generate/STIM_018.jpg
2175.661	1.116	1	generate	Run3	generate/STIM_019.jpg
2178.726	1.311	1	generate	Run3	generate/STIM_019.jpg
2183.789	1.28	1	generate	Run3	generate/STIM_019.jpg
2186.945	2.212	1	generate	Run3	generate/STIM_019.jpg
2191.581	1.423	1	generate	Run3	generate/STIM_019.jpg
2196.648	1.704	1	generate	Run3	generate/STIM_020.jpg
2200.94	1.99	1	generate	Run3	generate/STIM_020.jpg
2205.162	2.329	1	generate	Run3	generate/STIM_020.jpg
2210.945	1.225	1	generate	Run3	generate/STIM_020.jpg
2215.685	1.645	1	generate	Run3	generate/STIM_020.jpg
2219.849	1.457	0	generate	Run3	generate/STIM_021.jpg
2223.242	2.131	1	generate	Run3	generate/STIM_021.jpg
2227.906	1.285	0	generate	Run3	generate/STIM_021.jpg
2231.739	1.804	1	generate	Run3	generate/STIM_021.jpg
2236.088	1.502	1	generate	Run3	generate/STIM_021.jpg
2241.157	2.029	1	generate	Run3	generate/STIM_022.jpg
2245.967	2.299	0	generate	Run3	generate/STIM_022.jpg
2251.924	2.322	1	generate	Run3	generate/STIM_022.jpg
2257.036	2.188	1	generate	Run3	generate/STIM_022.jpg
2261.967	1.123	1	generate	Run3	generate/STIM_022.jpg
2265.119	1.378	1	generate	Run3	generate/STIM_023.jpg
2269.942	0.98	1	generate	Run3	generate/STIM_023.jpg
2272.943	1.318	1	generate	Run3	generate/STIM_023.jpg
2278.041	1.982	1	generate	Run3	generate/STIM_023.jpg
2282.675	1.728	1	generate	Run3	generate/STIM_023.jpg
2287.722	1.122	1	generate	Run3	generate/STIM_024.jpg
2290.995	2.114	1	generate	Run3	generate/STIM_024.jpg
2295.125	2.258	1	generate	Run3	generate/STIM_024.jpg
2300.257	1.588	1	generate	Run3	generate/STIM_024.jpg
2305.165	1.543	1	generate	Run3	generate/STIM_024.jpg
2309.772	0.708	1	repeat	Run3	repeat/STIM_000.jpg
2313.905	0.893	1	repeat	Run3	repeat/STIM_000.jpg
2317.344	0.767	1	repeat	Run3	repeat/STIM_000.jpg
2320.937	1.106	1	repeat	Run3	repeat/STIM_000.jpg
2324.282	1.025	1	repeat	Run3	repeat/STIM_000.jpg
2327.372	0.744	1	repeat	Run3	repeat/STIM_001.jpg
2332.034	0.927	1	repeat	Run3	repeat/STIM_001.jpg
2335.752	0.63	1	repeat	Run3	repeat/STIM_001.jpg
2339.538	0.688	1	repeat	Run3	repeat/STIM_001.jpg
2344.261	0.854	1	repeat	Run3	repeat/STIM_001.jpg
2348.245	0.613	1	repeat	Run3	repeat/STIM_002.jpg
2352.689	0.979	0	repeat	Run3	repeat/STIM_002.jpg
2357.357	1.018	1	repeat	Run3	repeat/STIM_002.jpg
2361.833	0.656	1	repeat	Run3	repeat/STIM_002.jpg
2364.533	1.0	1	repeat	Run3	repeat/STIM_002.jpg
2368.382	1.166	1	repeat	Run3	repeat/STIM_003.jpg
2372.009	0.825	1	repeat	Run3	repeat/STIM_003.jpg
2375.524	1.098	1	repeat	Run3	repeat/STIM_003.jpg
2379.071	0.621	1	repeat	Run3	repeat/STIM_003.jpg
2381.94	0.895	1	repeat	Run3	repeat/STIM_003.jpg
2385.263	0.643	0	repeat	Run3	repeat/STIM_004.jpg
2387.895	0.533	1	repeat	Run3	repeat/STIM_004.jpg
2390.732	0.758	1	repeat	Run3	repeat/STIM_004.jpg
2394.755	0.854	1	repeat	Run3	repeat/STIM_004.jpg
2397.579	0.67	1	repeat	Run3	repeat/STIM_004.jpg
2400.984	0.647	1	repeat	Run3	repeat/STIM_005.jpg
2405.101	0.849	1	repeat	Run3	repeat/STIM_005.jpg
2409.812	0.809	1	repeat	Run3	repeat/STIM_005.jpg
2413.654	0.598	0	repeat	Run3	repeat/STIM_005.jpg
2418.111	1.139	1	repeat	Run3	repeat/STIM_005.jpg
2421.172	0.856	1	repeat	Run3	repeat/STIM_006.jpg
2424.847	1.137	1	repeat	Run3	repeat/STIM_006.jpg
2427.965	0.818	1	repeat	Run3	repeat/STIM_006.jpg
2431.781	0.845	1	repeat	Run3	repeat/STIM_006.jpg
2434.706	0.704	1	repeat	Run3	repeat/STIM_006.jpg
2439.084	1.171	1	repeat	Run3	repeat/STIM_007.jpg
2442.736	0.623	1	repeat	Run3	repeat/STIM_007.jpg
2445.347	0.746	1	repeat	Run3	repeat/STIM_007.jpg
2448.216	1.027	1	repeat	Run3	repeat/STIM_007.jpg
2453.015	0.883	1	repeat	Run3	repeat/STIM_007.jpg
2456.525	0.768	1	repeat	Run3	repeat/STIM_008.jpg
2459.389	0.727	1	repeat	Run3	repeat/STIM_008.jpg
2463.033	0.892	1	repeat	Run3	repeat/STIM_008.jpg
2466.227	0.649	1	repeat	Run3	repeat/STIM_008.jpg
2470.526	0.735	0	repeat	Run3	repeat/STIM_008.jpg
2474.721	0.631	1	repeat	Run3	repeat/STIM_009.jpg
2478.418	0.781	1	repeat	Run3	repeat/STIM_009.jpg
2482.914	0.848	1	repeat	Run3	repeat/STIM_009.jpg
2487.747	0.69	1	repeat	Run3	repeat/STIM_009.jpg
2490.888	1.082	1	repeat	Run3	repeat/STIM_009.jpg
2495.729	0.787	1	repeat	Run3	repeat/STIM_010.jpg
2498.635	0.616	1	repeat	Run3	repeat/STIM_010.jpg
2501.551	1.001	1	repeat	Run3	repeat/STIM_010.jpg
2505.216	0.73	1	repeat	Run3	repeat/STIM_010.jpg
2508.329	0.481	0	repeat	Run3	repeat/STIM_010.jpg
2512.344	0.666	1	repeat	Run3	repeat/STIM_011.jpg
2516.767	0.941	1	repeat	Run3	repeat/STIM_011.jpg
2521.115	0.764	1	repeat	Run3	repeat/STIM_011.jpg
2525.412	1.025	1	repeat	Run3	repeat/STIM_011.jpg
2528.987	0.657	1	repeat	Run3	repeat/STIM_011.jpg
2532.546	1.105	1	repeat	Run3	repeat/STIM_012.jpg
2535.658	1.045	1	repeat	Run3	repeat/STIM_012.jpg
2540.181	0.89	1	repeat	Run3	repeat/STIM_012.jpg
2543.725	0.897	1	repeat	Run3	repeat/STIM_012.jpg
2547.459	0.719	1	repeat	Run3	repeat/STIM_012.jpg
2551.39	0.746	1	repeat	Run3	repeat/STIM_013.jpg
2554.466	0.81	1	repeat	Run3	repeat/STIM_013.jpg
2557.86	0.794	1	repeat	Run3	repeat/STIM_013.jpg
2561.581	0.919	1	repeat	Run3	repeat/STIM_013.jpg
2564.819	0.99	1	repeat	Run3	repeat/STIM_013.jpg
2569.586	0.521	1	repeat	Run3	repeat/STIM_014.jpg
2573.231	0.694	1	repeat	Run3	repeat/STIM_014.jpg
2576.247	0.976	1	repeat	Run3	repeat/STIM_014.jpg
2579.473	0.667	1	repeat	Run3	repeat/STIM_014.jpg
2583.601	0.857	1	repeat	Run3	repeat/STIM_014.jpg
2587.784	2.137	1	generate	Run4	generate/STIM_000.jpg
2593.281	1.229	1	generate	Run4	generate/STIM_000.jpg
2596.817	2.158	1	generate	Run4	generate/STIM_000.jpg
2602.428	1.224	1	generate	Run4	generate/STIM_000.jpg
2607.31	1.539	1	generate	Run4	generate/STIM_000.jpg
2611.864	1.165	1	generate	Run4	generate/STIM_001.jpg
2616.491	1.11	1	generate	Run4	generate/STIM_001.jpg
2619.859	1.299	0	generate	Run4	generate/STIM_001.jpg
2624.453	2.333	1	generate	Run4	generate/STIM_001.jpg
2628.917	2.111	1	generate	Run4	generate/STIM_001.jpg
2632.903	1.801	1	generate	Run4	generate/STIM_002.jpg
2637.627	2.318	1	generate	Run4	generate/STIM_002.jpg
2641.974	1.687	1	generate	Run4	generate/STIM_002.jpg
2646.512	2.317	1	generate	Run4	generate/STIM_002.jpg
2650.988	1.69	1	generate	Run4	generate/STIM_002.jpg
2654.879	1.346	1	generate	Run4	generate/STIM_003.jpg
2659.223	1.177	1	generate	Run4	generate/STIM_003.jpg
2662.739	1.173	1	generate	Run4	generate/STIM_003.jpg
2666.253	1.241	1	generate	Run4	generate/STIM_003.jpg
2670.06	1.479	1	generate	Run4	generate/STIM_003.jpg
2675.127	1.394	1	generate	Run4	generate/STIM_004.jpg
2679.929	2.101	1	generate	Run4	generate/STIM_004.jpg
2685.124	1.209	1	generate	Run4	generate/STIM_004.jpg
2689.169	1.965	1	generate	Run4	generate/STIM_004.jpg
2694.679	1.218	1	generate	Run4	generate/STIM_004.jpg
2697.942	2.284	1	generate	Run4	generate/STIM_005.jpg
2702.998	1.133	1	generate	Run4	generate/STIM_005.jpg
2707.884	2.217	1	generate	Run4	generate/STIM_005.jpg
2713.819	2.264	1	generate	Run4	generate/STIM_005.jpg
2717.972	1.392	1	generate	Run4	generate/STIM_005.jpg
2722.418	2.144	1	generate	Run4	generate/STIM_006.jpg
2727.266	1.277	1	generate	Run4	generate/STIM_006.jpg
2732.388	1.817	1	generate	Run4	generate/STIM_006.jpg
2736.967	1.184	1	generate	Run4	generate/STIM_006.jpg
2741.493	1.317	1	generate	Run4	generate/STIM_006.jpg
2745.714	1.6	1	generate	Run4	generate/STIM_007.jpg
2750.432	1.255	1	generate	Run4	generate/STIM_007.jpg
2754.539	0.996	1	generate	Run4	generate/STIM_007.jpg
2758.816	1.851	1	generate	Run4	generate/STIM_007.jpg
2763.599	1.552	1	generate	Run4	generate/STIM_007.jpg
2767.311	2.174	1	generate	Run4	generate/STIM_008.jpg
2771.375	2.136	1	generate	Run4	generate/STIM_008.jpg
2775.49	1.307	1	generate	Run4	generate/STIM_008.jpg
2779.566	1.571	1	generate	Run4	generate/STIM_008.jpg
2784.427	1.22	1	generate	Run4	generate/STIM_008.jpg
2787.68	2.067	1	generate	Run4	generate/STIM_009.jpg
2792.219	2.189	1	generate	Run4	generate/STIM_009.jpg
2796.464	1.322	1	generate	Run4	generate/STIM_009.jpg
2801.377	2.06	1	generate	Run4	generate/STIM_009.jpg
2806.445	1.559	1	generate	Run4	generate/STIM_009.jpg
2811.475	2.208	1	generate	Run4	generate/STIM_010.jpg
2815.942	1.616	1	generate	Run4	generate/STIM_010.jpg
2819.84	0.908	1	generate	Run4	generate/STIM_010.jpg
2824.388	1.895	1	generate	Run4	generate/STIM_010.jpg
2828.768	1.832	1	generate	Run4	generate/STIM_010.jpg
2834.132	1.66	1	generate	Run4	generate/STIM_011.jpg
2838.604	1.073	1	generate	Run4	generate/STIM_011.jpg
2842.179	1.163	1	generate	Run4	generate/STIM_011.jpg
2845.682	1.584	1	generate	Run4	generate/STIM_011.jpg
2850.304	1.984	1	generate	Run4	generate/STIM_011.jpg
2855.962	1.624	1	generate	Run4	generate/STIM_012.jpg
2859.597	1.996	1	generate	Run4	generate/STIM_012.jpg
2863.875	1.022	1	generate	Run4	generate/STIM_012.jpg
2868.77	1.566	1	generate	Run4	generate/STIM_012.jpg
2873.335	1.791	1	generate	Run4	generate/STIM_012.jpg
2877.231	1.485	1	generate	Run4	generate/STIM_013.jpg
2881.562	1.067	1	generate	Run4	generate/STIM_013.jpg
2885.277	2.188	1	generate	Run4	generate/STIM_013.jpg
2890.608	1.72	1	generate	Run4	generate/STIM_013.jpg
2895.191	2.345	0	generate	Run4	generate/STIM_013.jpg
2901.168	1.512	1	generate	Run4	generate/STIM_014.jpg
2906.425	2.345	0	generate	Run4	generate/STIM_014.jpg
2911.301	1.734	1	generate	Run4	generate/STIM_014.jpg
2915.322	1.423	1	generate	Run4	generate/STIM_014.jpg
2919.368	2.128	1	generate	Run4	generate/STIM_014.jpg
2923.595	1.294	1	generate	Run4	generate/STIM_015.jpg
2928.103	2.082	1	generate	Run4	generate/STIM_015.jpg
2933.4	1.838	1	generate	Run4	generate/STIM_015.jpg
2938.316	1.251	1	generate	Run4	generate/STIM_015.jpg
2942.743	1.055	1	generate	Run4	generate/STIM_015.jpg
2946.448	1.242	1	generate	Run4	generate/STIM_016.jpg
2949.881	1.298	1	generate	Run4	generate/STIM_016.jpg
2953.234	1.841	1	generate	Run4	generate/STIM_016.jpg
2957.7	1.627	1	generate	Run4	generate/STIM_016.jpg
2962.483	2.113	1	generate	Run4	generate/STIM_016.jpg
2966.811	1.76	1	generate	Run4	generate/STIM_017.jpg
2971.42	1.413	1	generate	Run4	generate/STIM_017.jpg
2975.792	2.149	1	generate	Run4	generate/STIM_017.jpg
2980.655	2.185	1	generate	Run4	generate/STIM_017.jpg
2986.468	1.759	1	generate	Run4	generate/STIM_017.jpg
2990.899	1.57	1	generate	Run4	generate/STIM_018.jpg
2996.049	2.126	0	generate	Run4	generate/STIM_018.jpg
3000.113	2.166	1	generate	Run4	generate/STIM_018.jpg
3004.346	1.39	1	generate	Run4	generate/STIM_018.jpg
3009.577	2.119	1	generate	Run4	generate/STIM_018.jpg
3015.362	2.15	1	generate	Run4	generate/STIM_019.jpg
3020.932	1.309	1	generate	Run4	generate/STIM_019.jpg
3024.822	1.711	1	generate	Run4	generate/STIM_019.jpg
3028.629	2.204	1	generate	Run4	generate/STIM_019.jpg
3033.382	1.662	1	generate	Run4	generate/STIM_019.jpg
3037.549	2.21	1	generate	Run4	generate/STIM_020.jpg
3042.878	1.925	1	generate	Run4	generate/STIM_020.jpg
3046.94	1.187	1	generate	Run4	generate/STIM_020.jpg
3050.462	0.997	1	generate	Run4	generate/STIM_020.jpg
3054.833	1.327	1	generate	Run4	generate/STIM_020.jpg
3058.08	2.304	0	generate	Run4	generate/STIM_021.jpg
3062.829	2.232	1	generate	Run4	generate/STIM_021.jpg
3067.873	1.888	1	generate	Run4	generate/STIM_021.jpg
3071.498	2.043	1	generate	Run4	generate/STIM_021.jpg
3076.665	1.985	1	generate	Run4	generate/STIM_021.jpg
3082.394	2.145	1	generate	Run4	generate/STIM_022.jpg
3087.101	1.123	1	generate	Run4	generate/STIM_022.jpg
3091.613	1.786	1	generate	Run4	generate/STIM_022.jpg
3095.646	1.994	1	generate	Run4	generate/STIM_022.jpg
3100.275	1.507	1	generate	Run4	generate/STIM_022.jpg
3104.361	1.209	1	generate	Run4	generate/STIM_023.jpg
3108.243	2.337	1	generate	Run4	generate/STIM_023.jpg
3113.435	1.557	0	generate	Run4	generate/STIM_023.jpg
3116.93	1.084	1	generate	Run4	generate/STIM_023.jpg
3121.132	1.328	1	generate	Run4	generate/STIM_023.jpg
3124.838	1.278	1	generate	Run4	generate/STIM_024.jpg
3128.863	1.083	1	generate	Run4	generate/STIM_024.jpg
3131.891	1.61	1	generate	Run4	generate/STIM_024.jpg
3135.521	0.998	1	generate	Run4	generate/STIM_024.jpg
3138.782	1.708	1	generate	Run4	generate/STIM_024.jpg
3142.527	0.661	1	repeat	Run4	repeat/STIM_000.jpg
3145.948	0.866	1	repeat	Run4	repeat/STIM_000.jpg
3149.759	0.744	1	repeat	Run4	repeat/STIM_000.jpg
3154.06	0.542	1	repeat	Run4	repeat/STIM_000.jpg
3157.696	0.728	1	repeat	Run4	repeat/STIM_000.jpg
3162.299	0.866	1	repeat	Run4	repeat/STIM_001.jpg
3166.266	0.586	1	repeat	Run4	repeat/STIM_001.jpg
3169.094	1.023	1	repeat	Run4	repeat/STIM_001.jpg
3172.679	1.036	1	repeat	Run4	repeat/STIM_001.jpg
3177.359	1.054	0	repeat	Run4	repeat/STIM_001.jpg
3181.656	0.984	1	repeat	Run4	repeat/STIM_002.jpg
3185.325	0.77	1	repeat	Run4	repeat/STIM_002.jpg
3189.332	0.695	1	repeat	Run4	repeat/STIM_002.jpg
3193.31	0.71	0	repeat	Run4	repeat/STIM_002.jpg
3196.647	1.084	1	repeat	Run4	repeat/STIM_002.jpg
3200.292	1.0	1	repeat	Run4	repeat/STIM_003.jpg
3204.416	0.561	1	repeat	Run4	repeat/STIM_003.jpg
3208.907	0.999	1	repeat	Run4	repeat/STIM_003.jpg
3213.467	1.01	1	repeat	Run4	repeat/STIM_003.jpg
3218.007	0.584	1	repeat	Run4	repeat/STIM_003.jpg
3222.51	0.639	1	repeat	Run4	repeat/STIM_004.jpg
3226.451	0.74	1	repeat	Run4	repeat/STIM_004.jpg
3230.529	1.023	1	repeat	Run4	repeat/STIM_004.jpg
3233.955	0.922	1	repeat	Run4	repeat/STIM_004.jpg
3237.591	0.727	1	repeat	Run4	repeat/STIM_004.jpg
3240.883	1.046	0	repeat	Run4	repeat/STIM_005.jpg
3244.458	0.7	1	repeat	Run4	repeat/STIM_005.jpg
3247.323	0.758	1	repeat	Run4	repeat/STIM_005.jpg
3250.213	0.678	1	repeat	Run4	repeat/STIM_005.jpg
3252.932	0.612	1	repeat	Run4	repeat/STIM_005.jpg
3256.459	0.647	1	repeat	Run4	repeat/STIM_006.jpg
3261.012	1.027	1	repeat	Run4	repeat/STIM_006.jpg
3264.933	0.838	1	repeat	Run4	repeat/STIM_006.jpg
3268.604	1.174	1	repeat	Run4	repeat/STIM_006.jpg
3271.915	0.871	1	repeat	Run4	repeat/STIM_006.jpg
3276.067	0.854	1	repeat	Run4	repeat/STIM_007.jpg
3279.815	0.59	1	repeat	Run4	repeat/STIM_007.jpg
3282.964	0.68	1	repeat	Run4	repeat/STIM_007.jpg
3287.526	0.93	1	repeat	Run4	repeat/STIM_007.jpg
3290.464	0.529	1	repeat	Run4	repeat/STIM_007.jpg
3293.376	0.82	1	repeat	Run4	repeat/STIM_008.jpg
3296.38	0.836	1	repeat	Run4	repeat/STIM_008.jpg
3300.513	0.881	1	repeat	Run4	repeat/STIM_008.jpg
3303.78	1.079	1	repeat	Run4	repeat/STIM_008.jpg
3307.389	0.596	1	repeat	Run4	repeat/STIM_008.jpg
3311.216	0.835	1	repeat	Run4	repeat/STIM_009.jpg
3313.987	0.676	1	repeat	Run4	repeat/STIM_009.jpg
3317.754	0.625	1	repeat	Run4	repeat/STIM_009.jpg
3320.355	0.676	1	repeat	Run4	repeat/STIM_009.jpg
3323.793	0.637	1	repeat	Run4	repeat/STIM_009.jpg
3327.263	0.72	1	repeat	Run4	repeat/STIM_010.jpg
3331.747	0.928	1	repeat	Run4	repeat/STIM_010.jpg
3334.635	0.839	1	repeat	Run4	repeat/STIM_010.jpg
3337.953	0.588	1	repeat	Run4	repeat/STIM_010.jpg
3342.226	0.67	1	repeat	Run4	repeat/STIM_010.jpg
3346.214	1.029	1	repeat	Run4	repeat/STIM_011.jpg
3349.59	0.557	1	repeat	Run4	repeat/STIM_011.jpg
3353.367	0.739	1	repeat	Run4	repeat/STIM_011.jpg
3357.652	0.953	1	repeat	Run4	repeat/STIM_011.jpg
3360.546	0.887	1	repeat	Run4	repeat/STIM_011.jpg
3364.568	0.989	1	repeat	Run4	repeat/STIM_012.jpg
3367.96	0.554	1	repeat	Run4	repeat/STIM_012.jpg
3371.495	0.577	1	repeat	Run4	repeat/STIM_012.jpg
3374.299	0.881	1	repeat	Run4	repeat/STIM_012.jpg
3377.424	0.898	1	repeat	Run4	repeat/STIM_012.jpg
3381.53	0.738	1	repeat	Run4	repeat/STIM_013.jpg
3385.09	1.16	1	repeat	Run4	repeat/STIM_013.jpg
3388.553	0.669	1	repeat	Run4	repeat/STIM_013.jpg
3391.993	0.824	1	repeat	Run4	repeat/STIM_013.jpg
3395.865	1.099	1	repeat	Run4	repeat/STIM_013.jpg
3400.423	0.71	1	repeat	Run4	repeat/STIM_014.jpg
3403.202	0.876	1	repeat	Run4	repeat/STIM_014.jpg
3406.992	0.778	1	repeat	Run4	repeat/STIM_014.jpg
3411.718	0.796	1	repeat	Run4	repeat/STIM_014.jpg
3415.271	0.668	1	repeat	Run4	repeat/STIM_014.jpg
