onset	duration	response_time_ms	trial_type	learning_stage	stimulus	response_port
0.0	2.885	2884.9	generate	Run1	generate/STIM_000.jpg	99
4.555	2.819	2819.2	generate	Run1	generate/STIM_000.jpg	100
9.866	3.027	3026.7	generate	Run1	generate/STIM_000.jpg	100
14.78	1.189	1189.2	generate	Run1	generate/STIM_000.jpg	99
19.236	1.468	1467.8	generate	Run1	generate/STIM_000.jpg	100
23.674	2.837	2836.9	generate	Run1	generate/STIM_001.jpg	100
30.038	2.298	2297.6	generate	Run1	generate/STIM_001.jpg	99
35.908	1.943	1943.2	generate	Run1	generate/STIM_001.jpg	99
41.168	1.258	1258.1	generate	Run1	generate/STIM_001.jpg	100
45.377	1.906	1905.6	generate	Run1	generate/STIM_001.jpg	99
49.733	2.808	2807.7	generate	Run1	generate/STIM_002.jpg	99
54.939	2.618	2617.5	generate	Run1	generate/STIM_002.jpg	99
60.555	1.55	1550.5	generate	Run1	generate/STIM_002.jpg	100
65.068	2.624	2624.1	generate	Run1	generate/STIM_002.jpg	100
71.353	2.492	2492.4	generate	Run1	generate/STIM_002.jpg	100
77.145	2.961	2961.4	generate	Run1	generate/STIM_003.jpg	100
82.517	1.748	1748.4	generate	Run1	generate/STIM_003.jpg	100
86.677	2.764	2764.3	generate	Run1	generate/STIM_003.jpg	100
91.611	2.707	2707.4	generate	Run1	generate/STIM_003.jpg	99
97.541	2.06	2060.1	generate	Run1	generate/STIM_003.jpg	100
102.17	1.669	1668.9	generate	Run1	generate/STIM_004.jpg	99
106.157	2.575	2575.1	generate	Run1	generate/STIM_004.jpg	99
111.038	1.216	1215.8	generate	Run1	generate/STIM_004.jpg	100
115.055	1.514	1514.0	generate	Run1	generate/STIM_004.jpg	99
119.861	1.466	1466.2	generate	Run1	generate/STIM_004.jpg	100
124.292	3.12	3120.0	generate	Run1	generate/STIM_005.jpg	100
129.987	1.258	1257.8	generate	Run1	generate/STIM_005.jpg	100
134.871	2.07	2069.6	generate	Run1	generate/STIM_005.jpg	100
139.429	2.256	2256.0	generate	Run1	generate/STIM_005.jpg	100
144.54	2.512	2511.7	generate	Run1	generate/STIM_005.jpg	99
150.572	2.613	2612.8	generate	Run1	generate/STIM_006.jpg	99
155.964	2.875	2875.4	generate	Run1	generate/STIM_006.jpg	99
161.065	1.366	1366.2	generate	Run1	generate/STIM_006.jpg	100
165.393	1.471	1470.9	generate	Run1	generate/STIM_006.jpg	99
170.129	2.35	2350.4	generate	Run1	generate/STIM_006.jpg	99
174.268	2.859	2858.6	generate	Run1	generate/STIM_007.jpg	99
180.262	3.147	3146.6	generate	Run1	generate/STIM_007.jpg	100
185.073	2.406	2405.9	generate	Run1	generate/STIM_007.jpg	99
190.892	2.765	2765.0	generate	Run1	generate/STIM_007.jpg	99
195.935	2.421	2420.9	generate	Run1	generate/STIM_007.jpg	100
201.564	3.057	3057.0	generate	Run1	generate/STIM_008.jpg	99
207.683	2.341	2340.9	generate	Run1	generate/STIM_008.jpg	100
213.603	2.292	2291.7	generate	Run1	generate/STIM_008.jpg	99
219.636	1.517	1516.6	generate	Run1	generate/STIM_008.jpg	99
223.876	1.224	1223.8	generate	Run1	generate/STIM_008.jpg	100
227.173	3.022	3021.9	generate	Run1	generate/STIM_009.jpg	100
233.87	1.742	1741.6	generate	Run1	generate/STIM_009.jpg	99
238.68	2.265	2265.4	generate	Run1	generate/STIM_009.jpg	100
243.984	1.718	1717.5	generate	Run1	generate/STIM_009.jpg	99
248.642	2.287	2287.1	generate	Run1	generate/STIM_009.jpg	99
254.52	1.815	1815.1	generate	Run1	generate/STIM_010.jpg	100
259.407	3.037	3036.9	generate	Run1	generate/STIM_010.jpg	99
266.04	2.271	2270.9	generate	Run1	generate/STIM_010.jpg	99
270.488	1.185	1184.6	generate	Run1	generate/STIM_010.jpg	100
274.529	2.468	2468.1	generate	Run1	generate/STIM_010.jpg	99
278.933	2.107	2106.6	generate	Run1	generate/STIM_011.jpg	99
283.086	2.917	2916.7	generate	Run1	generate/STIM_011.jpg	99
288.788	1.778	1777.6	generate	Run1	generate/STIM_011.jpg	100
293.773	1.754	1753.7	generate	Run1	generate/STIM_011.jpg	100
297.892	2.291	2291.4	generate	Run1	generate/STIM_011.jpg	99
302.237	3.189	3189.3	generate	Run1	generate/STIM_012.jpg	100
307.39	1.955	1955.2	generate	Run1	generate/STIM_012.jpg	100
311.992	1.985	1985.2	generate	Run1	generate/STIM_012.jpg	100
317.061	2.754	2754.0	generate	Run1	generate/STIM_012.jpg	100
322.31	2.419	2419.3	generate	Run1	generate/STIM_012.jpg	100
328.305	3.319	3319.0	generate	Run1	generate/STIM_013.jpg	99
333.645	1.903	1903.2	generate	Run1	generate/STIM_013.jpg	99
337.607	2.516	2515.6	generate	Run1	generate/STIM_013.jpg	100
343.199	1.354	1354.1	generate	Run1	generate/STIM_013.jpg	100
348.146	1.785	1784.7	generate	Run1	generate/STIM_013.jpg	100
353.217	2.995	2994.7	generate	Run1	generate/STIM_014.jpg	99
358.101	2.348	2348.3	generate	Run1	generate/STIM_014.jpg	100
363.031	1.319	1318.6	generate	Run1	generate/STIM_014.jpg	99
367.029	2.373	2372.8	generate	Run1	generate/STIM_014.jpg	100
372.898	1.709	1708.6	generate	Run1	generate/STIM_014.jpg	99
377.149	3.047	3046.7	generate	Run1	generate/STIM_015.jpg	99
383.1	3.075	3074.7	generate	Run1	generate/STIM_015.jpg	99
388.972	2.34	2339.5	generate	Run1	generate/STIM_015.jpg	100
394.107	1.353	1353.0	generate	Run1	generate/STIM_015.jpg	100
398.374	2.179	2178.6	generate	Run1	generate/STIM_015.jpg	100
403.476	2.618	2618.2	generate	Run1	generate/STIM_016.jpg	100
408.86	2.452	2451.7	generate	Run1	generate/STIM_016.jpg	100
413.603	2.878	2877.7	generate	Run1	generate/STIM_016.jpg	100
419.177	1.6	1600.3	generate	Run1	generate/STIM_016.jpg	99
424.588	1.118	1118.5	generate	Run1	generate/STIM_016.jpg	99
428.161	2.664	2664.2	generate	Run1	generate/STIM_017.jpg	99
433.551	2.256	2256.3	generate	Run1	generate/STIM_017.jpg	100
439.354	2.811	2811.4	generate	Run1	generate/STIM_017.jpg	99
445.761	2.165	2164.7	generate	Run1	generate/STIM_017.jpg	100
450.97	2.145	2145.0	generate	Run1	generate/STIM_017.jpg	100
455.308	1.619	1618.6	generate	Run1	generate/STIM_018.jpg	99
459.987	1.79	1789.8	generate	Run1	generate/STIM_018.jpg	100
464.243	1.89	1890.1	generate	Run1	generate/STIM_018.jpg	100
468.949	1.982	1982.0	generate	Run1	generate/STIM_018.jpg	100
474.127	1.082	1081.8	generate	Run1	generate/STIM_018.jpg	99
478.038	2.097	2096.9	generate	Run1	generate/STIM_019.jpg	99
483.674	2.724	2724.1	generate	Run1	generate/STIM_019.jpg	100
489.384	2.881	2880.6	generate	Run1	generate/STIM_019.jpg	100
494.376	2.514	2513.9	generate	Run1	generate/STIM_019.jpg	100
500.159	1.272	1271.7	generate	Run1	generate/STIM_019.jpg	100
504.609	1.884	1883.6	generate	Run1	generate/STIM_020.jpg	100
509.134	1.607	1606.9	generate	Run1	generate/STIM_020.jpg	100
514.508	2.386	2385.9	generate	Run1	generate/STIM_020.jpg	99
520.585	1.127	1127.4	generate	Run1	generate/STIM_020.jpg	99
525.407	1.197	1197.3	generate	Run1	generate/STIM_020.jpg	99
528.522	2.609	2609.4	generate	Run1	generate/STIM_021.jpg	99
533.738	1.718	1717.5	generate	Run1	generate/STIM_021.jpg	99
539.144	2.897	2897.4	generate	Run1	generate/STIM_021.jpg	99
544.024	2.17	2169.5	generate	Run1	generate/STIM_021.jpg	100
549.487	1.723	1722.9	generate	Run1	generate/STIM_021.jpg	100
553.366	2.13	2130.0	generate	Run1	generate/STIM_022.jpg	99
558.335	3.039	3039.4	generate	Run1	generate/STIM_022.jpg	100
563.787	2.469	2469.4	generate	Run1	generate/STIM_022.jpg	99
568.472	2.373	2373.3	generate	Run1	generate/STIM_022.jpg	100
572.859	1.399	1399.2	generate	Run1	generate/STIM_022.jpg	100
577.65	2.472	2471.5	generate	Run1	generate/STIM_023.jpg	100
582.21	2.468	2467.9	generate	Run1	generate/STIM_023.jpg	100
587.063	1.488	1487.6	generate	Run1	generate/STIM_023.jpg	100
590.854	1.271	1270.9	generate	Run1	generate/STIM_023.jpg	100
595.672	1.454	1454.4	generate	Run1	generate/STIM_023.jpg	99
600.702	2.292	2292.5	generate	Run1	generate/STIM_024.jpg	99
604.875	2.157	2156.8	generate	Run1	generate/STIM_024.jpg	99
608.781	1.984	1983.7	generate	Run1	generate/STIM_024.jpg	99
612.906	2.047	2046.6	generate	Run1	generate/STIM_024.jpg	99
616.905	2.299	2299.4	generate	Run1	generate/STIM_024.jpg	100
621.806	0.57	570.0	repeat	Run1	repeat/STIM_000.jpg	100
625.539	0.87	869.6	repeat	Run1	repeat/STIM_000.jpg	99
628.999	0.929	928.7	repeat	Run1	repeat/STIM_000.jpg	100
633.445	0.738	738.4	repeat	Run1	repeat/STIM_000.jpg	100
636.368	0.837	837.0	repeat	Run1	repeat/STIM_000.jpg	99
639.607	0.884	884.5	repeat	Run1	repeat/STIM_001.jpg	99
643.462	0.52	520.3	repeat	Run1	repeat/STIM_001.jpg	100
647.299	0.56	560.4	repeat	Run1	repeat/STIM_001.jpg	99
650.912	0.591	591.1	repeat	Run1	repeat/STIM_001.jpg	100
655.259	0.752	752.0	repeat	Run1	repeat/STIM_001.jpg	100
659.6	0.914	913.5	repeat	Run1	repeat/STIM_002.jpg	100
662.617	0.721	721.4	repeat	Run1	repeat/STIM_002.jpg	99
666.724	0.847	847.2	repeat	Run1	repeat/STIM_002.jpg	100
671.431	0.723	723.1	repeat	Run1	repeat/STIM_002.jpg	100
675.686	0.678	678.3	repeat	Run1	repeat/STIM_002.jpg	100
679.573	0.782	782.3	repeat	Run1	repeat/STIM_003.jpg	100
682.734	0.755	755.2	repeat	Run1	repeat/STIM_003.jpg	100
687.214	0.568	568.3	repeat	Run1	repeat/STIM_003.jpg	100
690.442	0.694	694.2	repeat	Run1	repeat/STIM_003.jpg	99
694.052	0.687	687.3	repeat	Run1	repeat/STIM_003.jpg	99
697.823	1.002	1002.1	repeat	Run1	repeat/STIM_004.jpg	99
702.219	0.737	737.1	repeat	Run1	repeat/STIM_004.jpg	99
705.255	0.831	830.9	repeat	Run1	repeat/STIM_004.jpg	100
708.401	1.074	1073.7	repeat	Run1	repeat/STIM_004.jpg	100
711.902	1.083	1083.0	repeat	Run1	repeat/STIM_004.jpg	99
715.041	0.671	671.0	repeat	Run1	repeat/STIM_005.jpg	99
718.444	1.026	1025.5	repeat	Run1	repeat/STIM_005.jpg	99
722.455	0.756	756.5	repeat	Run1	repeat/STIM_005.jpg	99
725.196	0.636	635.8	repeat	Run1	repeat/STIM_005.jpg	100
729.485	0.714	714.4	repeat	Run1	repeat/STIM_005.jpg	100
734.099	0.98	980.3	repeat	Run1	repeat/STIM_006.jpg	99
738.558	0.846	846.3	repeat	Run1	repeat/STIM_006.jpg	99
742.183	1.011	1010.8	repeat	Run1	repeat/STIM_006.jpg	99
746.989	0.836	836.2	repeat	Run1	repeat/STIM_006.jpg	99
751.773	0.638	638.1	repeat	Run1	repeat/STIM_006.jpg	99
754.417	1.08	1080.0	repeat	Run1	repeat/STIM_007.jpg	100
758.327	0.815	814.8	repeat	Run1	repeat/STIM_007.jpg	99
762.205	1.064	1064.2	repeat	Run1	repeat/STIM_007.jpg	99
765.302	0.545	545.0	repeat	Run1	repeat/STIM_007.jpg	99
768.143	1.075	1075.3	repeat	Run1	repeat/STIM_007.jpg	99
771.31	0.549	548.8	repeat	Run1	repeat/STIM_008.jpg	99
774.557	1.142	1142.1	repeat	Run1	repeat/STIM_008.jpg	99
778.41	0.587	587.3	repeat	Run1	repeat/STIM_008.jpg	100
782.468	0.984	984.3	repeat	Run1	repeat/STIM_008.jpg	100
786.117	0.829	829.4	repeat	Run1	repeat/STIM_008.jpg	99
789.285	0.579	579.0	repeat	Run1	repeat/STIM_009.jpg	99
792.563	0.775	775.1	repeat	Run1	repeat/STIM_009.jpg	100
796.099	0.483	482.8	repeat	Run1	repeat/STIM_009.jpg	100
799.472	0.576	576.4	repeat	Run1	repeat/STIM_009.jpg	100
802.198	0.768	768.4	repeat	Run1	repeat/STIM_009.jpg	100
805.556	0.836	836.5	repeat	Run1	repeat/STIM_010.jpg	99
809.474	0.878	877.6	repeat	Run1	repeat/STIM_010.jpg	100
812.385	0.588	587.7	repeat	Run1	repeat/STIM_010.jpg	99
815.63	0.998	998.1	repeat	Run1	repeat/STIM_010.jpg	100
819.303	1.029	1028.9	repeat	Run1	repeat/STIM_010.jpg	99
823.952	0.99	989.8	repeat	Run1	repeat/STIM_011.jpg	99
827.679	0.793	793.2	repeat	Run1	repeat/STIM_011.jpg	100
830.625	0.716	715.9	repeat	Run1	repeat/STIM_011.jpg	100
834.635	0.687	686.7	repeat	Run1	repeat/STIM_011.jpg	99
837.496	1.099	1099.0	repeat	Run1	repeat/STIM_011.jpg	100
840.5	0.724	724.2	repeat	Run1	repeat/STIM_012.jpg	99
843.623	0.626	625.9	repeat	Run1	repeat/STIM_012.jpg	100
847.326	0.697	697.1	repeat	Run1	repeat/STIM_012.jpg	100
850.088	1.0	999.6	repeat	Run1	repeat/STIM_012.jpg	99
854.6	0.85	849.9	repeat	Run1	repeat/STIM_012.jpg	100
857.969	0.926	926.2	repeat	Run1	repeat/STIM_013.jpg	99
861.274	0.76	759.5	repeat	Run1	repeat/STIM_013.jpg	99
864.679	0.786	785.8	repeat	Run1	repeat/STIM_013.jpg	99
868.879	0.663	663.2	repeat	Run1	repeat/STIM_013.jpg	99
873.384	1.077	1077.2	repeat	Run1	repeat/STIM_013.jpg	99
876.62	0.602	602.0	repeat	Run1	repeat/STIM_014.jpg	99
880.239	0.743	742.6	repeat	Run1	repeat/STIM_014.jpg	100
883.283	0.589	589.0	repeat	Run1	repeat/STIM_014.jpg	99
886.017	1.024	1024.1	repeat	Run1	repeat/STIM_014.jpg	100
889.482	0.617	616.9	repeat	Run1	repeat/STIM_014.jpg	100
892.623	1.694	1694.3	generate	Run2	generate/STIM_000.jpg	99
896.279	1.213	1212.7	generate	Run2	generate/STIM_000.jpg	99
901.109	1.668	1667.9	generate	Run2	generate/STIM_000.jpg	99
905.543	1.033	1033.3	generate	Run2	generate/STIM_000.jpg	99
910.448	1.151	1150.9	generate	Run2	generate/STIM_000.jpg	99
914.046	1.578	1577.5	generate	Run2	generate/STIM_001.jpg	99
917.734	1.868	1868.4	generate	Run2	generate/STIM_001.jpg	100
922.13	1.447	1447.3	generate	Run2	generate/STIM_001.jpg	99
926.512	1.256	1256.1	generate	Run2	generate/STIM_001.jpg	100
930.952	1.822	1822.4	generate	Run2	generate/STIM_001.jpg	100
935.757	1.344	1343.8	generate	Run2	generate/STIM_002.jpg	100
940.787	2.449	2449.2	generate	Run2	generate/STIM_002.jpg	100
945.266	1.608	1607.7	generate	Run2	generate/STIM_002.jpg	99
949.281	1.095	1095.0	generate	Run2	generate/STIM_002.jpg	99
953.876	1.938	1938.4	generate	Run2	generate/STIM_002.jpg	99
958.609	1.284	1283.6	generate	Run2	generate/STIM_003.jpg	99
961.907	2.374	2374.3	generate	Run2	generate/STIM_003.jpg	99
966.868	1.109	1108.9	generate	Run2	generate/STIM_003.jpg	99
971.756	2.119	2118.6	generate	Run2	generate/STIM_003.jpg	99
977.655	2.274	2273.8	generate	Run2	generate/STIM_003.jpg	99
983.508	1.63	1629.6	generate	Run2	generate/STIM_004.jpg	100
988.306	1.769	1768.9	generate	Run2	generate/STIM_004.jpg	100
992.904	2.119	2118.6	generate	Run2	generate/STIM_004.jpg	100
998.783	1.938	1938.0	generate	Run2	generate/STIM_004.jpg	100
1003.883	2.129	2129.1	generate	Run2	generate/STIM_004.jpg	100
1009.114	1.196	1196.2	generate	Run2	generate/STIM_005.jpg	99
1012.996	2.162	2162.4	generate	Run2	generate/STIM_005.jpg	99
1018.305	2.37	2369.8	generate	Run2	generate/STIM_005.jpg	99
1022.47	1.797	1796.6	generate	Run2	generate/STIM_005.jpg	100
1026.811	1.682	1682.5	generate	Run2	generate/STIM_005.jpg	99
1031.319	2.16	2160.0	generate	Run2	generate/STIM_006.jpg	99
1035.88	2.581	2580.7	generate	Run2	generate/STIM_006.jpg	100
1041.618	2.446	2445.6	generate	Run2	generate/STIM_006.jpg	99
1046.233	1.178	1177.8	generate	Run2	generate/STIM_006.jpg	99
1049.551	1.68	1680.3	generate	Run2	generate/STIM_006.jpg	100
1055.084	2.674	2674.4	generate	Run2	generate/STIM_007.jpg	100
1060.25	2.626	2625.5	generate	Run2	generate/STIM_007.jpg	100
1065.693	1.876	1875.8	generate	Run2	generate/STIM_007.jpg	99
1069.821	1.861	1860.7	generate	Run2	generate/STIM_007.jpg	100
1074.167	1.642	1641.8	generate	Run2	generate/STIM_007.jpg	100
1078.448	1.716	1715.9	generate	Run2	generate/STIM_008.jpg	99
1083.247	2.182	2182.0	generate	Run2	generate/STIM_008.jpg	100
1089.188	2.396	2395.8	generate	Run2	generate/STIM_008.jpg	100
1094.858	1.697	1697.0	generate	Run2	generate/STIM_008.jpg	99
1099.064	2.008	2008.1	generate	Run2	generate/STIM_008.jpg	100
1103.095	1.236	1236.4	generate	Run2	generate/STIM_009.jpg	99
1107.541	2.131	2131.2	generate	Run2	generate/STIM_009.jpg	99
1112.352	1.912	1911.5	generate	Run2	generate/STIM_009.jpg	100
1117.044	1.88	1879.9	generate	Run2	generate/STIM_009.jpg	99
1122.559	0.866	866.1	generate	Run2	generate/STIM_009.jpg	99
1125.673	1.149	1148.9	generate	Run2	generate/STIM_010.jpg	100
1130.355	2.072	2072.4	generate	Run2	generate/STIM_010.jpg	100
1135.269	2.299	2299.1	generate	Run2	generate/STIM_010.jpg	100
1140.959	1.215	1214.6	generate	Run2	generate/STIM_010.jpg	99
1145.866	1.603	1602.7	generate	Run2	generate/STIM_010.jpg	99
1150.854	2.762	2761.5	generate	Run2	generate/STIM_011.jpg	100
1156.293	1.48	1479.7	generate	Run2	generate/STIM_011.jpg	99
1160.57	1.704	1704.5	generate	Run2	generate/STIM_011.jpg	99
1165.577	1.63	1629.8	generate	Run2	generate/STIM_011.jpg	100
1170.859	1.168	1168.2	generate	Run2	generate/STIM_011.jpg	99
1175.697	1.744	1743.7	generate	Run2	generate/STIM_012.jpg	99
1180.919	2.28	2280.0	generate	Run2	generate/STIM_012.jpg	99
1185.857	1.591	1590.8	generate	Run2	generate/STIM_012.jpg	99
1190.706	1.273	1273.2	generate	Run2	generate/STIM_012.jpg	100
1194.787	1.69	1690.4	generate	Run2	generate/STIM_012.jpg	100
1200.198	2.818	2818.3	generate	Run2	generate/STIM_013.jpg	100
1204.964	1.999	1999.0	generate	Run2	generate/STIM_013.jpg	99
1210.519	2.03	2029.6	generate	Run2	generate/STIM_013.jpg	99
1214.672	1.977	1977.4	generate	Run2	generate/STIM_013.jpg	100
1219.592	1.998	1997.5	generate	Run2	generate/STIM_013.jpg	99
1224.046	1.803	1802.9	generate	Run2	generate/STIM_014.jpg	99
1229.008	1.697	1697.2	generate	Run2	generate/STIM_014.jpg	99
1233.422	1.419	1419.3	generate	Run2	generate/STIM_014.jpg	100
1237.637	1.527	1527.2	generate	Run2	generate/STIM_014.jpg	100
1241.694	1.582	1581.9	generate	Run2	generate/STIM_014.jpg	100
1246.517	2.674	2674.4	generate	Run2	generate/STIM_015.jpg	99
1252.877	1.077	1076.8	generate	Run2	generate/STIM_015.jpg	99
1256.064	1.24	1240.1	generate	Run2	generate/STIM_015.jpg	100
1260.468	1.121	1120.7	generate	Run2	generate/STIM_015.jpg	100
1265.353	1.778	1777.7	generate	Run2	generate/STIM_015.jpg	99
1269.739	2.325	2324.9	generate	Run2	generate/STIM_016.jpg	99
1273.886	1.922	1922.4	generate	Run2	generate/STIM_016.jpg	99
1278.501	1.191	1191.1	generate	Run2	generate/STIM_016.jpg	99
1282.364	1.328	1327.5	generate	Run2	generate/STIM_016.jpg	100
1286.088	1.936	1936.0	generate	Run2	generate/STIM_016.jpg	99
1290.334	2.336	2336.2	generate	Run2	generate/STIM_017.jpg	100
1294.835	2.505	2505.1	generate	Run2	generate/STIM_017.jpg	100
1300.25	1.66	1660.1	generate	Run2	generate/STIM_017.jpg	100
1305.353	2.236	2236.1	generate	Run2	generate/STIM_017.jpg	99
1310.374	1.256	1256.0	generate	Run2	generate/STIM_017.jpg	99
1314.937	2.262	2262.0	generate	Run2	generate/STIM_018.jpg	99
1320.718	2.385	2385.3	generate	Run2	generate/STIM_018.jpg	99
1324.964	2.32	2319.8	generate	Run2	generate/STIM_018.jpg	100
1329.173	1.616	1615.5	generate	Run2	generate/STIM_018.jpg	100
1334.161	2.013	2012.5	generate	Run2	generate/STIM_018.jpg	99
1339.726	2.546	2546.1	generate	Run2	generate/STIM_019.jpg	99
1344.107	2.342	2342.0	generate	Run2	generate/STIM_019.jpg	100
1349.295	1.478	1477.8	generate	Run2	generate/STIM_019.jpg	99
1353.596	1.343	1342.7	generate	Run2	generate/STIM_019.jpg	99
1356.943	1.066	1066.0	generate	Run2	generate/STIM_019.jpg	100
1360.209	1.971	1971.2	generate	Run2	generate/STIM_020.jpg	99
1365.552	2.646	2646.4	generate	Run2	generate/STIM_020.jpg	100
1371.091	1.354	1353.7	generate	Run2	generate/STIM_020.jpg	100
1376.35	1.028	1027.5	generate	Run2	generate/STIM_020.jpg	100
1379.715	1.297	1297.3	generate	Run2	generate/STIM_020.jpg	100
1383.543	1.783	1782.7	generate	Run2	generate/STIM_021.jpg	100
1387.96	2.117	2117.2	generate	Run2	generate/STIM_021.jpg	100
1393.882	1.142	1141.5	generate	Run2	generate/STIM_021.jpg	100
1398.203	2.186	2185.8	generate	Run2	generate/STIM_021.jpg	100
1402.882	2.28	2279.7	generate	Run2	generate/STIM_021.jpg	100
1408.457	1.547	1546.7	generate	Run2	generate/STIM_022.jpg	99
1412.923	2.052	2052.1	generate	Run2	generate/STIM_022.jpg	99
1417.058	2.0	2000.0	generate	Run2	generate/STIM_022.jpg	99
1422.455	1.032	1032.4	generate	Run2	generate/STIM_022.jpg	100
1426.503	0.898	897.8	generate	Run2	generate/STIM_022.jpg	100
1429.564	1.76	1760.5	generate	Run2	generate/STIM_023.jpg	99
1433.334	2.535	2535.3	generate	Run2	generate/STIM_023.jpg	100
1437.652	2.227	2227.0	generate	Run2	generate/STIM_023.jpg	99
1441.827	1.554	1554.4	generate	Run2	generate/STIM_023.jpg	100
1447.175	2.074	2074.4	generate	Run2	generate/STIM_023.jpg	100
1451.552	1.501	1501.0	generate	Run2	generate/STIM_024.jpg	99
1456.388	1.092	1092.4	generate	Run2	generate/STIM_024.jpg	100
1459.575	1.518	1518.3	generate	Run2	generate/STIM_024.jpg	100
1463.38	1.323	1323.4	generate	Run2	generate/STIM_024.jpg	100
1467.077	1.793	1792.9	generate	Run2	generate/STIM_024.jpg	100
1470.735	0.834	833.9	repeat	Run2	repeat/STIM_000.jpg	99
1473.6	0.742	742.3	repeat	Run2	repeat/STIM_000.jpg	99
1478.09	0.788	787.6	repeat	Run2	repeat/STIM_000.jpg	100
1482.01	0.622	622.0	repeat	Run2	repeat/STIM_000.jpg	99
1486.047	0.633	632.6	repeat	Run2	repeat/STIM_000.jpg	100
1490.228	0.96	959.6	repeat	Run2	repeat/STIM_001.jpg	100
1493.437	0.781	780.7	repeat	Run2	repeat/STIM_001.jpg	99
1498.105	0.59	589.7	repeat	Run2	repeat/STIM_001.jpg	100
1501.36	0.826	825.7	repeat	Run2	repeat/STIM_001.jpg	100
1504.282	0.652	652.4	repeat	Run2	repeat/STIM_001.jpg	99
1507.555	0.922	922.2	repeat	Run2	repeat/STIM_002.jpg	100
1512.275	1.009	1009.2	repeat	Run2	repeat/STIM_002.jpg	100
1515.297	0.813	812.8	repeat	Run2	repeat/STIM_002.jpg	100
1519.124	0.653	653.1	repeat	Run2	repeat/STIM_002.jpg	100
1523.446	1.114	1114.3	repeat	Run2	repeat/STIM_002.jpg	99
1526.516	0.827	827.4	repeat	Run2	repeat/STIM_003.jpg	99
1529.779	1.079	1078.6	repeat	Run2	repeat/STIM_003.jpg	100
1533.408	0.817	817.1	repeat	Run2	repeat/STIM_003.jpg	99
1537.097	0.895	895.2	repeat	Run2	repeat/STIM_003.jpg	100
1540.704	0.841	840.7	repeat	Run2	repeat/STIM_003.jpg	100
1544.019	0.971	970.9	repeat	Run2	repeat/STIM_004.jpg	99
1547.824	0.916	915.6	repeat	Run2	repeat/STIM_004.jpg	100
1552.713	0.856	856.1	repeat	Run2	repeat/STIM_004.jpg	100
1556.277	0.954	953.9	repeat	Run2	repeat/STIM_004.jpg	99
1560.526	0.498	498.0	repeat	Run2	repeat/STIM_004.jpg	99
1563.616	0.957	956.7	repeat	Run2	repeat/STIM_005.jpg	99
1566.871	0.88	879.5	repeat	Run2	repeat/STIM_005.jpg	99
1570.62	0.85	849.7	repeat	Run2	repeat/STIM_005.jpg	100
1573.522	0.931	931.4	repeat	Run2	repeat/STIM_005.jpg	100
1577.101	0.786	786.3	repeat	Run2	repeat/STIM_005.jpg	100
1580.825	0.919	919.0	repeat	Run2	repeat/STIM_006.jpg	100
1583.997	1.001	1000.6	repeat	Run2	repeat/STIM_006.jpg	99
1588.103	0.752	751.5	repeat	Run2	repeat/STIM_006.jpg	100
1591.264	0.715	715.2	repeat	Run2	repeat/STIM_006.jpg	100
1594.529	0.772	772.1	repeat	Run2	repeat/STIM_006.jpg	100
1598.465	0.82	820.2	repeat	Run2	repeat/STIM_007.jpg	99
1602.355	0.969	969.3	repeat	Run2	repeat/STIM_007.jpg	100
1605.632	1.023	1022.8	repeat	Run2	repeat/STIM_007.jpg	100
1608.852	0.738	738.2	repeat	Run2	repeat/STIM_007.jpg	100
1613.38	0.982	981.8	repeat	Run2	repeat/STIM_007.jpg	99
1617.364	1.02	1019.5	repeat	Run2	repeat/STIM_008.jpg	99
1621.812	0.976	976.4	repeat	Run2	repeat/STIM_008.jpg	100
1625.713	0.896	895.7	repeat	Run2	repeat/STIM_008.jpg	100
1629.783	0.732	731.5	repeat	Run2	repeat/STIM_008.jpg	99
1632.668	1.006	1005.6	repeat	Run2	repeat/STIM_008.jpg	99
1636.054	0.654	653.5	repeat	Run2	repeat/STIM_009.jpg	99
1640.601	0.711	711.3	repeat	Run2	repeat/STIM_009.jpg	99
1645.042	0.874	873.9	repeat	Run2	repeat/STIM_009.jpg	99
1648.082	0.98	979.8	repeat	Run2	repeat/STIM_009.jpg	99
1651.773	1.062	1062.2	repeat	Run2	repeat/STIM_009.jpg	99
1654.895	1.111	1111.0	repeat	Run2	repeat/STIM_010.jpg	99
1659.087	0.741	741.0	repeat	Run2	repeat/STIM_010.jpg	99
1662.747	0.689	689.3	repeat	Run2	repeat/STIM_010.jpg	99
1665.587	1.044	1043.7	repeat	Run2	repeat/STIM_010.jpg	99
1669.169	0.617	616.9	repeat	Run2	repeat/STIM_010.jpg	99
1672.351	0.783	782.8	repeat	Run2	repeat/STIM_011.jpg	99
1676.22	0.754	753.7	repeat	Run2	repeat/STIM_011.jpg	100
1680.173	0.696	696.5	repeat	Run2	repeat/STIM_011.jpg	100
1684.018	0.851	851.1	repeat	Run2	repeat/STIM_011.jpg	99
1688.597	0.668	667.8	repeat	Run2	repeat/STIM_011.jpg	99
1691.966	0.853	853.4	repeat	Run2	repeat/STIM_012.jpg	99
1696.537	0.677	677.1	repeat	Run2	repeat/STIM_012.jpg	99
1700.59	0.707	706.9	repeat	Run2	repeat/STIM_012.jpg	99
1705.123	1.087	1087.1	repeat	Run2	repeat/STIM_012.jpg	100
1708.525	0.902	901.5	repeat	Run2	repeat/STIM_012.jpg	99
1712.007	1.064	1063.8	repeat	Run2	repeat/STIM_013.jpg	99
1716.69	0.658	657.8	repeat	Run2	repeat/STIM_013.jpg	100
1720.149	1.132	1131.9	repeat	Run2	repeat/STIM_013.jpg	100
1723.433	0.941	941.0	repeat	Run2	repeat/STIM_013.jpg	99
1726.686	0.905	905.3	repeat	Run2	repeat/STIM_013.jpg	100
1730.702	0.982	982.4	repeat	Run2	repeat/STIM_014.jpg	100
1735.026	0.514	513.6	repeat	Run2	repeat/STIM_014.jpg	99
1737.807	1.05	1050.1	repeat	Run2	repeat/STIM_014.jpg	99
1742.394	0.987	987.1	repeat	Run2	repeat/STIM_014.jpg	100
1745.404	0.957	957.2	repeat	Run2	repeat/STIM_014.jpg	99
1749.633	1.378	1377.8	generate	Run3	generate/STIM_000.jpg	100
1753.521	1.633	1633.3	generate	Run3	generate/STIM_000.jpg	99
1757.948	1.588	1587.6	generate	Run3	generate/STIM_000.jpg	99
1761.46	1.577	1576.8	generate	Run3	generate/STIM_000.jpg	99
1765.503	1.01	1010.5	generate	Run3	generate/STIM_000.jpg	100
1770.256	2.073	2072.8	generate	Run3	generate/STIM_001.jpg	100
1774.815	2.34	2339.8	generate	Run3	generate/STIM_001.jpg	100
1779.888	1.518	1518.2	generate	Run3	generate/STIM_001.jpg	99
1783.83	1.818	1817.7	generate	Run3	generate/STIM_001.jpg	99
1787.718	1.426	1425.7	generate	Run3	generate/STIM_001.jpg	100
1792.67	1.222	1222.3	generate	Run3	generate/STIM_002.jpg	99
1797.63	2.107	2107.1	generate	Run3	generate/STIM_002.jpg	100
1802.961	1.381	1380.7	generate	Run3	generate/STIM_002.jpg	100
1807.577	1.74	1739.9	generate	Run3	generate/STIM_002.jpg	99
1811.993	1.39	1390.0	generate	Run3	generate/STIM_002.jpg	100
1815.952	1.697	1697.2	generate	Run3	generate/STIM_003.jpg	99
1819.686	2.252	2251.8	generate	Run3	generate/STIM_003.jpg	99
1825.42	1.67	1669.5	generate	Run3	generate/STIM_003.jpg	100
1830.012	2.157	2157.2	generate	Run3	generate/STIM_003.jpg	99
1834.523	1.169	1169.4	generate	Run3	generate/STIM_003.jpg	99
1838.938	1.508	1507.5	generate	Run3	generate/STIM_004.jpg	100
1843.845	1.52	1520.2	generate	Run3	generate/STIM_004.jpg	99
1847.774	1.534	1534.4	generate	Run3	generate/STIM_004.jpg	99
1851.988	2.12	2119.6	generate	Run3	generate/STIM_004.jpg	99
1856.727	1.488	1487.6	generate	Run3	generate/STIM_004.jpg	99
1861.961	1.547	1547.1	generate	Run3	generate/STIM_005.jpg	100
1866.572	1.787	1786.8	generate	Run3	generate/STIM_005.jpg	99
1871.329	1.681	1681.3	generate	Run3	generate/STIM_005.jpg	99
1876.119	1.579	1579.0	generate	Run3	generate/STIM_005.jpg	100
1879.899	1.057	1057.3	generate	Run3	generate/STIM_005.jpg	99
1883.981	1.838	1838.2	generate	Run3	generate/STIM_006.jpg	99
1887.841	1.119	1119.2	generate	Run3	generate/STIM_006.jpg	100
1892.709	1.524	1524.4	generate	Run3	generate/STIM_006.jpg	99
1897.026	1.681	1681.3	generate	Run3	generate/STIM_006.jpg	99
1902.492	2.067	2067.4	generate	Run3	generate/STIM_006.jpg	100
1907.256	1.06	1060.1	generate	Run3	generate/STIM_007.jpg	100
1911.401	1.112	1111.8	generate	Run3	generate/STIM_007.jpg	99
1914.992	2.085	2085.2	generate	Run3	generate/STIM_007.jpg	100
1919.706	1.488	1488.5	generate	Run3	generate/STIM_007.jpg	99
1924.764	1.778	1777.7	generate	Run3	generate/STIM_007.jpg	100
1928.443	1.586	1586.1	generate	Run3	generate/STIM_008.jpg	100
1932.035	1.422	1422.5	generate	Run3	generate/STIM_008.jpg	100
1935.431	1.006	1006.5	generate	Run3	generate/STIM_008.jpg	99
1938.79	1.792	1792.5	generate	Run3	generate/STIM_008.jpg	99
1944.4	1.278	1277.7	generate	Run3	generate/STIM_008.jpg	99
1948.622	2.246	2246.4	generate	Run3	generate/STIM_009.jpg	100
1954.614	2.235	2235.0	generate	Run3	generate/STIM_009.jpg	100
1958.635	1.56	1559.8	generate	Run3	generate/STIM_009.jpg	100
1962.139	2.074	2074.0	generate	Run3	generate/STIM_009.jpg	99
1967.828	1.425	1424.7	generate	Run3	generate/STIM_009.jpg	100
1971.581	1.071	1070.6	generate	Run3	generate/STIM_010.jpg	100
1974.984	2.266	2265.6	generate	Run3	generate/STIM_010.jpg	99
1980.947	1.556	1555.6	generate	Run3	generate/STIM_010.jpg	100
1986.206	0.991	991.2	generate	Run3	generate/STIM_010.jpg	100
1990.674	1.823	1823.0	generate	Run3	generate/STIM_010.jpg	99
1995.9	1.528	1528.2	generate	Run3	generate/STIM_011.jpg	99
2001.166	1.238	1237.8	generate	Run3	generate/STIM_011.jpg	100
2004.768	1.364	1364.0	generate	Run3	generate/STIM_011.jpg	99
2008.828	1.875	1874.7	generate	Run3	generate/STIM_011.jpg	99
2013.142	1.604	1603.8	generate	Run3	generate/STIM_011.jpg	100
2017.293	0.993	993.0	generate	Run3	generate/STIM_012.jpg	99
2022.106	1.469	1469.0	generate	Run3	generate/STIM_012.jpg	100
2025.676	1.714	1714.1	generate	Run3	generate/STIM_012.jpg	99
2030.055	2.073	2073.4	generate	Run3	generate/STIM_012.jpg	99
2035.536	1.774	1773.6	generate	Run3	generate/STIM_012.jpg	100
2039.752	1.121	1121.3	generate	Run3	generate/STIM_013.jpg	99
2044.417	1.99	1989.6	generate	Run3	generate/STIM_013.jpg	99
2049.47	2.234	2234.5	generate	Run3	generate/STIM_013.jpg	100
2054.892	1.213	1213.1	generate	Run3	generate/STIM_013.jpg	99
2058.249	1.79	1790.3	generate	Run3	generate/STIM_013.jpg	100
2063.898	1.026	1025.9	generate	Run3	generate/STIM_014.jpg	99
2068.316	1.749	1748.8	generate	Run3	generate/STIM_014.jpg	99
2072.771	1.866	1865.5	generate	Run3	generate/STIM_014.jpg	100
2076.722	2.309	2309.2	generate	Run3	generate/STIM_014.jpg	99
2081.497	1.919	1918.9	generate	Run3	generate/STIM_014.jpg	99
2085.787	1.866	1865.8	generate	Run3	generate/STIM_015.jpg	100
2090.578	1.63	1630.0	generate	Run3	generate/STIM_015.jpg	100
2094.955	1.999	1999.3	generate	Run3	generate/STIM_015.jpg	100
2099.022	2.072	2072.2	generate	Run3	generate/STIM_015.jpg	100
2103.155	1.443	1442.7	generate	Run3	generate/STIM_015.jpg	100
2107.46	2.201	2200.9	generate	Run3	generate/STIM_016.jpg	100
2112.235	1.224	1224.0	generate	Run3	generate/STIM_016.jpg	99
2117.109	1.772	1772.3	generate	Run3	generate/STIM_016.jpg	99
2121.412	1.341	1340.7	generate	Run3	generate/STIM_016.jpg	99
2125.153	1.162	1162.1	generate	Run3	generate/STIM_016.jpg	100
2129.639	1.83	1830.2	generate	Run3	generate/STIM_017.jpg	100
2133.709	1.304	1303.9	generate	Run3	generate/STIM_017.jpg	100
2138.524	1.049	1049.3	generate	Run3	generate/STIM_017.jpg	100
2142.578	1.865	1864.9	generate	Run3	generate/STIM_017.jpg	100
2147.809	2.349	2349.2	generate	Run3	generate/STIM_017.jpg	100
2153.258	2.194	2193.5	generate	Run3	generate/STIM_018.jpg	100
2158.365	2.193	2193.1	generate	Run3	generate/STIM_018.jpg	99
2162.834	1.324	1323.8	generate	Run3	generate/STIM_018.jpg	99
2167.174	0.785	785.1	generate	Run3	generate/STIM_018.jpg	99
2170.576	1.835	1835.2	generate	Run3	generate/STIM_018.jpg	100
2175.661	1.116	1116.5	generate	Run3	generate/STIM_019.jpg	100
2178.726	1.311	1310.9	generate	Run3	generate/STIM_019.jpg	99
2183.789	1.28	1279.6	generate	Run3	generate/STIM_019.jpg	100
2186.945	2.212	2212.5	generate	Run3	generate/STIM_019.jpg	100
2191.581	1.423	1423.2	generate	Run3	generate/STIM_019.jpg	100
2196.648	1.704	1703.6	generate	Run3	generate/STIM_020.jpg	99
2200.94	1.99	1989.7	generate	Run3	generate/STIM_020.jpg	100
2205.162	2.329	2329.0	generate	Run3	generate/STIM_020.jpg	99
2210.945	1.225	1225.2	generate	Run3	generate/STIM_020.jpg	99
2215.685	1.645	1645.2	generate	Run3	generate/STIM_020.jpg	100
2219.849	1.457	1456.6	generate	Run3	generate/STIM_021.jpg	100
2223.242	2.131	2130.9	generate	Run3	generate/STIM_021.jpg	99
2227.906	1.285	1285.3	generate	Run3	generate/STIM_021.jpg	100
2231.739	1.804	1803.8	generate	Run3	generate/STIM_021.jpg	100
2236.088	1.502	1502.4	generate	Run3	generate/STIM_021.jpg	100
2241.157	2.029	2028.6	generate	Run3	generate/STIM_022.jpg	100
2245.967	2.299	2299.0	generate	Run3	generate/STIM_022.jpg	99
2251.924	2.322	2322.1	generate	Run3	generate/STIM_022.jpg	99
2257.036	2.188	2187.7	generate	Run3	generate/STIM_022.jpg	99
2261.967	1.123	1122.7	generate	Run3	generate/STIM_022.jpg	100
2265.119	1.378	1378.1	generate	Run3	generate/STIM_023.jpg	100
2269.942	0.98	980.2	generate	Run3	generate/STIM_023.jpg	99
2272.943	1.318	1318.1	generate	Run3	generate/STIM_023.jpg	99
2278.041	1.982	1981.6	generate	Run3	generate/STIM_023.jpg	100
2282.675	1.728	1727.8	generate	Run3	generate/STIM_023.jpg	99
2287.722	1.122	1122.2	generate	Run3	generate/STIM_024.jpg	99
2290.995	2.114	2113.8	generate	Run3	generate/STIM_024.jpg	99
2295.125	2.258	2257.7	generate	Run3	generate/STIM_024.jpg	99
2300.257	1.588	1588.1	generate	Run3	generate/STIM_024.jpg	100
2305.165	1.543	1542.7	generate	Run3	generate/STIM_024.jpg	99
2309.772	0.708	708.5	repeat	Run3	repeat/STIM_000.jpg	100
2313.905	0.893	893.3	repeat	Run3	repeat/STIM_000.jpg	100
2317.344	0.767	767.4	repeat	Run3	repeat/STIM_000.jpg	100
2320.937	1.106	1106.3	repeat	Run3	repeat/STIM_000.jpg	100
2324.282	1.025	1024.7	repeat	Run3	repeat/STIM_000.jpg	99
2327.372	0.744	744.5	repeat	Run3	repeat/STIM_001.jpg	100
2332.034	0.927	926.7	repeat	Run3	repeat/STIM_001.jpg	100
2335.752	0.63	630.1	repeat	Run3	repeat/STIM_001.jpg	99
2339.538	0.688	688.5	repeat	Run3	repeat/STIM_001.jpg	100
2344.261	0.854	853.7	repeat	Run3	repeat/STIM_001.jpg	100
2348.245	0.613	612.9	repeat	Run3	repeat/STIM_002.jpg	99
2352.689	0.979	978.7	repeat	Run3	repeat/STIM_002.jpg	99
2357.357	1.018	1018.2	repeat	Run3	repeat/STIM_002.jpg	99
2361.833	0.656	655.6	repeat	Run3	repeat/STIM_002.jpg	100
2364.533	1.0	999.8	repeat	Run3	repeat/STIM_002.jpg	99
2368.382	1.166	1165.6	repeat	Run3	repeat/STIM_003.jpg	100
2372.009	0.825	825.2	repeat	Run3	repeat/STIM_003.jpg	100
2375.524	1.098	1098.0	repeat	Run3	repeat/STIM_003.jpg	100
2379.071	0.621	621.2	repeat	Run3	repeat/STIM_003.jpg	100
2381.94	0.895	895.2	repeat	Run3	repeat/STIM_003.jpg	99
2385.263	0.643	643.2	repeat	Run3	repeat/STIM_004.jpg	99
2387.895	0.533	532.6	repeat	Run3	repeat/STIM_004.jpg	99
2390.732	0.758	757.6	repeat	Run3	repeat/STIM_004.jpg	100
2394.755	0.854	853.9	repeat	Run3	repeat/STIM_004.jpg	99
2397.579	0.67	670.4	repeat	Run3	repeat/STIM_004.jpg	99
2400.984	0.647	647.2	repeat	Run3	repeat/STIM_005.jpg	99
2405.101	0.849	848.9	repeat	Run3	repeat/STIM_005.jpg	100
2409.812	0.809	809.0	repeat	Run3	repeat/STIM_005.jpg	100
2413.654	0.598	598.5	repeat	Run3	repeat/STIM_005.jpg	99
2418.111	1.139	1139.2	repeat	Run3	repeat/STIM_005.jpg	99
2421.172	0.856	856.1	repeat	Run3	repeat/STIM_006.jpg	100
2424.847	1.137	1137.3	repeat	Run3	repeat/STIM_006.jpg	99
2427.965	0.818	818.4	repeat	Run3	repeat/STIM_006.jpg	99
2431.781	0.845	844.9	repeat	Run3	repeat/STIM_006.jpg	100
2434.706	0.704	704.1	repeat	Run3	repeat/STIM_006.jpg	100
2439.084	1.171	1171.1	repeat	Run3	repeat/STIM_007.jpg	99
2442.736	0.623	622.6	repeat	Run3	repeat/STIM_007.jpg	100
2445.347	0.746	746.1	repeat	Run3	repeat/STIM_007.jpg	99
2448.216	1.027	1027.0	repeat	Run3	repeat/STIM_007.jpg	99
2453.015	0.883	883.0	repeat	Run3	repeat/STIM_007.jpg	100
2456.525	0.768	767.8	repeat	Run3	repeat/STIM_008.jpg	100
2459.389	0.727	727.1	repeat	Run3	repeat/STIM_008.jpg	99
2463.033	0.892	891.7	repeat	Run3	repeat/STIM_008.jpg	100
2466.227	0.649	648.8	repeat	Run3	repeat/STIM_008.jpg	99
2470.526	0.735	734.6	repeat	Run3	repeat/STIM_008.jpg	99
2474.721	0.631	630.6	repeat	Run3	repeat/STIM_009.jpg	100
2478.418	0.781	780.6	repeat	Run3	repeat/STIM_009.jpg	100
2482.914	0.848	847.5	repeat	Run3	repeat/STIM_009.jpg	100
2487.747	0.69	690.2	repeat	Run3	repeat/STIM_009.jpg	99
2490.888	1.082	1082.0	repeat	Run3	repeat/STIM_009.jpg	99
2495.729	0.787	786.9	repeat	Run3	repeat/STIM_010.jpg	99
2498.635	0.616	616.1	repeat	Run3	repeat/STIM_010.jpg	99
2501.551	1.001	1001.0	repeat	Run3	repeat/STIM_010.jpg	99
2505.216	0.73	730.4	repeat	Run3	repeat/STIM_010.jpg	100
2508.329	0.481	481.2	repeat	Run3	repeat/STIM_010.jpg	100
2512.344	0.666	666.5	repeat	Run3	repeat/STIM_011.jpg	99
2516.767	0.941	941.0	repeat	Run3	repeat/STIM_011.jpg	99
2521.115	0.764	763.7	repeat	Run3	repeat/STIM_011.jpg	100
2525.412	1.025	1024.8	repeat	Run3	repeat/STIM_011.jpg	99
2528.987	0.657	657.1	repeat	Run3	repeat/STIM_011.jpg	99
2532.546	1.105	1105.2	repeat	Run3	repeat/STIM_012.jpg	99
2535.658	1.045	1044.9	repeat	Run3	repeat/STIM_012.jpg	100
2540.181	0.89	890.3	repeat	Run3	repeat/STIM_012.jpg	100
2543.725	0.897	896.9	repeat	Run3	repeat/STIM_012.jpg	99
2547.459	0.719	719.0	repeat	Run3	repeat/STIM_012.jpg	100
2551.39	0.746	745.5	repeat	Run3	repeat/STIM_013.jpg	99
2554.466	0.81	809.9	repeat	Run3	repeat/STIM_013.jpg	100
2557.86	0.794	794.1	repeat	Run3	repeat/STIM_013.jpg	100
2561.581	0.919	919.1	repeat	Run3	repeat/STIM_013.jpg	99
2564.819	0.99	990.3	repeat	Run3	repeat/STIM_013.jpg	99
2569.586	0.521	520.7	repeat	Run3	repeat/STIM_014.jpg	99
2573.231	0.694	693.8	repeat	Run3	repeat/STIM_014.jpg	100
2576.247	0.976	976.5	repeat	Run3	repeat/STIM_014.jpg	100
2579.473	0.667	666.9	repeat	Run3	repeat/STIM_014.jpg	99
2583.601	0.857	857.3	repeat	Run3	repeat/STIM_014.jpg	99
2587.784	2.137	2137.3	generate	Run4	generate/STIM_000.jpg	100
2593.281	1.229	1229.1	generate	Run4	generate/STIM_000.jpg	99
2596.817	2.158	2157.7	generate	Run4	generate/STIM_000.jpg	100
2602.428	1.224	1223.8	generate	Run4	generate/STIM_000.jpg	99
2607.31	1.539	1539.1	generate	Run4	generate/STIM_000.jpg	100
2611.864	1.165	1164.9	generate	Run4	generate/STIM_001.jpg	99
2616.491	1.11	1109.5	generate	Run4	generate/STIM_001.jpg	100
2619.859	1.299	1298.9	generate	Run4	generate/STIM_001.jpg	100
2624.453	2.333	2332.6	generate	Run4	generate/STIM_001.jpg	100
2628.917	2.111	2110.8	generate	Run4	generate/STIM_001.jpg	100
2632.903	1.801	1801.3	generate	Run4	generate/STIM_002.jpg	100
2637.627	2.318	2317.6	generate	Run4	generate/STIM_002.jpg	99
2641.974	1.687	1687.3	generate	Run4	generate/STIM_002.jpg	100
2646.512	2.317	2317.4	generate	Run4	generate/STIM_002.jpg	99
2650.988	1.69	1689.6	generate	Run4	generate/STIM_002.jpg	99
2654.879	1.346	1346.4	generate	Run4	generate/STIM_003.jpg	100
2659.223	1.177	1176.6	generate	Run4	generate/STIM_003.jpg	99
2662.739	1.173	1172.7	generate	Run4	generate/STIM_003.jpg	99
2666.253	1.241	1240.7	generate	Run4	generate/STIM_003.jpg	100
2670.06	1.479	1479.4	generate	Run4	generate/STIM_003.jpg	100
2675.127	1.394	1393.9	generate	Run4	generate/STIM_004.jpg	99
2679.929	2.101	2100.9	generate	Run4	generate/STIM_004.jpg	99
2685.124	1.209	1208.9	generate	Run4	generate/STIM_004.jpg	99
2689.169	1.965	1965.0	generate	Run4	generate/STIM_004.jpg	100
2694.679	1.218	1218.2	generate	Run4	generate/STIM_004.jpg	99
2697.942	2.284	2284.0	generate	Run4	generate/STIM_005.jpg	99
2702.998	1.133	1133.0	generate	Run4	generate/STIM_005.jpg	100
2707.884	2.217	2216.9	generate	Run4	generate/STIM_005.jpg	99
2713.819	2.264	2263.6	generate	Run4	generate/STIM_005.jpg	100
2717.972	1.392	1391.6	generate	Run4	generate/STIM_005.jpg	100
2722.418	2.144	2144.3	generate	Run4	generate/STIM_006.jpg	99
2727.266	1.277	1277.1	generate	Run4	generate/STIM_006.jpg	100
2732.388	1.817	1816.8	generate	Run4	generate/STIM_006.jpg	99
2736.967	1.184	1184.5	generate	Run4	generate/STIM_006.jpg	100
2741.493	1.317	1317.1	generate	Run4	generate/STIM_006.jpg	100
2745.714	1.6	1599.5	generate	Run4	generate/STIM_007.jpg	99
2750.432	1.255	1255.3	generate	Run4	generate/STIM_007.jpg	99
2754.539	0.996	995.7	generate	Run4	generate/STIM_007.jpg	100
2758.816	1.851	1851.3	generate	Run4	generate/STIM_007.jpg	100
2763.599	1.552	1551.9	generate	Run4	generate/STIM_007.jpg	99
2767.311	2.174	2174.4	generate	Run4	generate/STIM_008.jpg	100
2771.375	2.136	2135.5	generate	Run4	generate/STIM_008.jpg	100
2775.49	1.307	1307.0	generate	Run4	generate/STIM_008.jpg	100
2779.566	1.571	1570.9	generate	Run4	generate/STIM_008.jpg	100
2784.427	1.22	1219.6	generate	Run4	generate/STIM_008.jpg	100
2787.68	2.067	2067.2	generate	Run4	generate/STIM_009.jpg	99
2792.219	2.189	2188.9	generate	Run4	generate/STIM_009.jpg	99
2796.464	1.322	1322.2	generate	Run4	generate/STIM_009.jpg	100
2801.377	2.06	2059.8	generate	Run4	generate/STIM_009.jpg	99
2806.445	1.559	1559.4	generate	Run4	generate/STIM_009.jpg	99
2811.475	2.208	2207.5	generate	Run4	generate/STIM_010.jpg	100
2815.942	1.616	1616.4	generate	Run4	generate/STIM_010.jpg	100
2819.84	0.908	908.4	generate	Run4	generate/STIM_010.jpg	99
2824.388	1.895	1894.7	generate	Run4	generate/STIM_010.jpg	100
2828.768	1.832	1831.8	generate	Run4	generate/STIM_010.jpg	99
2834.132	1.66	1660.3	generate	Run4	generate/STIM_011.jpg	100
2838.604	1.073	1073.3	generate	Run4	generate/STIM_011.jpg	99
2842.179	1.163	1163.0	generate	Run4	generate/STIM_011.jpg	100
2845.682	1.584	1584.2	generate	Run4	generate/STIM_011.jpg	99
2850.304	1.984	1984.3	generate	Run4	generate/STIM_011.jpg	99
2855.962	1.624	1623.8	generate	Run4	generate/STIM_012.jpg	100
2859.597	1.996	1995.6	generate	Run4	generate/STIM_012.jpg	99
2863.875	1.022	1022.4	generate	Run4	generate/STIM_012.jpg	100
2868.77	1.566	1566.4	generate	Run4	generate/STIM_012.jpg	100
2873.335	1.791	1790.9	generate	Run4	generate/STIM_012.jpg	99
2877.231	1.485	1485.3	generate	Run4	generate/STIM_013.jpg	100
2881.562	1.067	1067.3	generate	Run4	generate/STIM_013.jpg	100
2885.277	2.188	2188.3	generate	Run4	generate/STIM_013.jpg	99
2890.608	1.72	1719.7	generate	Run4	generate/STIM_013.jpg	99
2895.191	2.345	2345.1	generate	Run4	generate/STIM_013.jpg	99
2901.168	1.512	1512.0	generate	Run4	generate/STIM_014.jpg	99
2906.425	2.345	2344.7	generate	Run4	generate/STIM_014.jpg	99
2911.301	1.734	1733.6	generate	Run4	generate/STIM_014.jpg	99
2915.322	1.423	1422.7	generate	Run4	generate/STIM_014.jpg	100
2919.368	2.128	2127.6	generate	Run4	generate/STIM_014.jpg	99
2923.595	1.294	1293.9	generate	Run4	generate/STIM_015.jpg	99
2928.103	2.082	2081.9	generate	Run4	generate/STIM_015.jpg	99
2933.4	1.838	1838.3	generate	Run4	generate/STIM_015.jpg	99
2938.316	1.251	1250.8	generate	Run4	generate/STIM_015.jpg	99
2942.743	1.055	1055.2	generate	Run4	generate/STIM_015.jpg	100
2946.448	1.242	1242.0	generate	Run4	generate/STIM_016.jpg	99
2949.881	1.298	1298.3	generate	Run4	generate/STIM_016.jpg	100
2953.234	1.841	1840.6	generate	Run4	generate/STIM_016.jpg	99
2957.7	1.627	1626.6	generate	Run4	generate/STIM_016.jpg	99
2962.483	2.113	2113.0	generate	Run4	generate/STIM_016.jpg	100
2966.811	1.76	1760.4	generate	Run4	generate/STIM_017.jpg	100
2971.42	1.413	1412.8	generate	Run4	generate/STIM_017.jpg	99
2975.792	2.149	2149.1	generate	Run4	generate/STIM_017.jpg	99
2980.655	2.185	2185.2	generate	Run4	generate/STIM_017.jpg	99
2986.468	1.759	1759.4	generate	Run4	generate/STIM_017.jpg	100
2990.899	1.57	1569.6	generate	Run4	generate/STIM_018.jpg	100
2996.049	2.126	2126.2	generate	Run4	generate/STIM_018.jpg	99
3000.113	2.166	2165.8	generate	Run4	generate/STIM_018.jpg	100
3004.346	1.39	1390.3	generate	Run4	generate/STIM_018.jpg	99
3009.577	2.119	2119.0	generate	Run4	generate/STIM_018.jpg	100
3015.362	2.15	2150.1	generate	Run4	generate/STIM_019.jpg	100
3020.932	1.309	1308.7	generate	Run4	generate/STIM_019.jpg	100
3024.822	1.711	1711.2	generate	Run4	generate/STIM_019.jpg	100
3028.629	2.204	2203.7	generate	Run4	generate/STIM_019.jpg	99
3033.382	1.662	1662.4	generate	Run4	generate/STIM_019.jpg	100
3037.549	2.21	2209.9	generate	Run4	generate/STIM_020.jpg	99
3042.878	1.925	1924.9	generate	Run4	generate/STIM_020.jpg	99
3046.94	1.187	1187.0	generate	Run4	generate/STIM_020.jpg	99
3050.462	0.997	997.4	generate	Run4	generate/STIM_020.jpg	100
3054.833	1.327	1326.6	generate	Run4	generate/STIM_020.jpg	100
3058.08	2.304	2303.8	generate	Run4	generate/STIM_021.jpg	99
3062.829	2.232	2231.8	generate	Run4	generate/STIM_021.jpg	100
3067.873	1.888	1887.7	generate	Run4	generate/STIM_021.jpg	99
3071.498	2.043	2043.5	generate	Run4	generate/STIM_021.jpg	99
3076.665	1.985	1984.6	generate	Run4	generate/STIM_021.jpg	100
3082.394	2.145	2144.9	generate	Run4	generate/STIM_022.jpg	99
3087.101	1.123	1122.6	generate	Run4	generate/STIM_022.jpg	99
3091.613	1.786	1786.1	generate	Run4	generate/STIM_022.jpg	99
3095.646	1.994	1993.7	generate	Run4	generate/STIM_022.jpg	99
3100.275	1.507	1507.4	generate	Run4	generate/STIM_022.jpg	99
3104.361	1.209	1209.0	generate	Run4	generate/STIM_023.jpg	99
3108.243	2.337	2336.7	generate	Run4	generate/STIM_023.jpg	99
3113.435	1.557	1556.7	generate	Run4	generate/STIM_023.jpg	99
3116.93	1.084	1084.0	generate	Run4	generate/STIM_023.jpg	99
3121.132	1.328	1328.0	generate	Run4	generate/STIM_023.jpg	100
3124.838	1.278	1277.7	generate	Run4	generate/STIM_024.jpg	99
3128.863	1.083	1083.3	generate	Run4	generate/STIM_024.jpg	99
3131.891	1.61	1610.1	generate	Run4	generate/STIM_024.jpg	99
3135.521	0.998	998.4	generate	Run4	generate/STIM_024.jpg	100
3138.782	1.708	1707.5	generate	Run4	generate/STIM_024.jpg	100
3142.527	0.661	661.1	repeat	Run4	repeat/STIM_000.jpg	99
3145.948	0.866	866.5	repeat	Run4	repeat/STIM_000.jpg	99
3149.759	0.744	744.1	repeat	Run4	repeat/STIM_000.jpg	100
3154.06	0.542	542.5	repeat	Run4	repeat/STIM_000.jpg	99
3157.696	0.728	728.2	repeat	Run4	repeat/STIM_000.jpg	99
3162.299	0.866	865.8	repeat	Run4	repeat/STIM_001.jpg	100
3166.266	0.586	586.1	repeat	Run4	repeat/STIM_001.jpg	100
3169.094	1.023	1022.7	repeat	Run4	repeat/STIM_001.jpg	99
3172.679	1.036	1036.5	repeat	Run4	repeat/STIM_001.jpg	99
3177.359	1.054	1054.2	repeat	Run4	repeat/STIM_001.jpg	100
3181.656	0.984	984.2	repeat	Run4	repeat/STIM_002.jpg	100
3185.325	0.77	769.8	repeat	Run4	repeat/STIM_002.jpg	99
3189.332	0.695	694.6	repeat	Run4	repeat/STIM_002.jpg	99
3193.31	0.71	710.4	repeat	Run4	repeat/STIM_002.jpg	99
3196.647	1.084	1084.4	repeat	Run4	repeat/STIM_002.jpg	100
3200.292	1.0	1000.4	repeat	Run4	repeat/STIM_003.jpg	99
3204.416	0.561	561.1	repeat	Run4	repeat/STIM_003.jpg	100
3208.907	0.999	999.0	repeat	Run4	repeat/STIM_003.jpg	99
3213.467	1.01	1010.2	repeat	Run4	repeat/STIM_003.jpg	99
3218.007	0.584	584.3	repeat	Run4	repeat/STIM_003.jpg	99
3222.51	0.639	639.2	repeat	Run4	repeat/STIM_004.jpg	100
3226.451	0.74	740.3	repeat	Run4	repeat/STIM_004.jpg	100
3230.529	1.023	1023.4	repeat	Run4	repeat/STIM_004.jpg	99
3233.955	0.922	921.6	repeat	Run4	repeat/STIM_004.jpg	100
3237.591	0.727	726.9	repeat	Run4	repeat/STIM_004.jpg	99
3240.883	1.046	1045.7	repeat	Run4	repeat/STIM_005.jpg	100
3244.458	0.7	700.5	repeat	Run4	repeat/STIM_005.jpg	99
3247.323	0.758	758.0	repeat	Run4	repeat/STIM_005.jpg	99
3250.213	0.678	677.7	repeat	Run4	repeat/STIM_005.jpg	100
3252.932	0.612	612.3	repeat	Run4	repeat/STIM_005.jpg	99
3256.459	0.647	647.4	repeat	Run4	repeat/STIM_006.jpg	99
3261.012	1.027	1027.0	repeat	Run4	repeat/STIM_006.jpg	100
3264.933	0.838	838.4	repeat	Run4	repeat/STIM_006.jpg	99
3268.604	1.174	1174.4	repeat	Run4	repeat/STIM_006.jpg	99
3271.915	0.871	871.3	repeat	Run4	repeat/STIM_006.jpg	99
3276.067	0.854	854.3	repeat	Run4	repeat/STIM_007.jpg	100
3279.815	0.59	590.0	repeat	Run4	repeat/STIM_007.jpg	100
3282.964	0.68	679.6	repeat	Run4	repeat/STIM_007.jpg	100
3287.526	0.93	929.9	repeat	Run4	repeat/STIM_007.jpg	100
3290.464	0.529	528.7	repeat	Run4	repeat/STIM_007.jpg	100
3293.376	0.82	820.5	repeat	Run4	repeat/STIM_008.jpg	100
3296.38	0.836	836.3	repeat	Run4	repeat/STIM_008.jpg	100
3300.513	0.881	881.4	repeat	Run4	repeat/STIM_008.jpg	100
3303.78	1.079	1078.9	repeat	Run4	repeat/STIM_008.jpg	100
3307.389	0.596	595.8	repeat	Run4	repeat/STIM_008.jpg	99
3311.216	0.835	835.2	repeat	Run4	repeat/STIM_009.jpg	100
3313.987	0.676	675.5	repeat	Run4	repeat/STIM_009.jpg	99
3317.754	0.625	624.8	repeat	Run4	repeat/STIM_009.jpg	100
3320.355	0.676	676.0	repeat	Run4	repeat/STIM_009.jpg	100
3323.793	0.637	636.9	repeat	Run4	repeat/STIM_009.jpg	99
3327.263	0.72	720.3	repeat	Run4	repeat/STIM_010.jpg	100
3331.747	0.928	927.8	repeat	Run4	repeat/STIM_010.jpg	99
3334.635	0.839	839.3	repeat	Run4	repeat/STIM_010.jpg	99
3337.953	0.588	587.8	repeat	Run4	repeat/STIM_010.jpg	99
3342.226	0.67	670.1	repeat	Run4	repeat/STIM_010.jpg	100
3346.214	1.029	1028.7	repeat	Run4	repeat/STIM_011.jpg	99
3349.59	0.557	557.0	repeat	Run4	repeat/STIM_011.jpg	100
3353.367	0.739	738.8	repeat	Run4	repeat/STIM_011.jpg	99
3357.652	0.953	953.1	repeat	Run4	repeat/STIM_011.jpg	99
3360.546	0.887	887.0	repeat	Run4	repeat/STIM_011.jpg	99
3364.568	0.989	989.0	repeat	Run4	repeat/STIM_012.jpg	100
3367.96	0.554	553.8	repeat	Run4	repeat/STIM_012.jpg	100
3371.495	0.577	576.8	repeat	Run4	repeat/STIM_012.jpg	100
3374.299	0.881	881.0	repeat	Run4	repeat/STIM_012.jpg	100
3377.424	0.898	897.6	repeat	Run4	repeat/STIM_012.jpg	100
3381.53	0.738	738.1	repeat	Run4	repeat/STIM_013.jpg	100
3385.09	1.16	1159.7	repeat	Run4	repeat/STIM_013.jpg	99
3388.553	0.669	669.1	repeat	Run4	repeat/STIM_013.jpg	99
3391.993	0.824	823.5	repeat	Run4	repeat/STIM_013.jpg	99
3395.865	1.099	1099.3	repeat	Run4	repeat/STIM_013.jpg	99
3400.423	0.71	710.2	repeat	Run4	repeat/STIM_014.jpg	99
3403.202	0.876	876.4	repeat	Run4	repeat/STIM_014.jpg	100
3406.992	0.778	777.5	repeat	Run4	repeat/STIM_014.jpg	99
3411.718	0.796	795.6	repeat	Run4	repeat/STIM_014.jpg	100
3415.271	0.668	667.9	repeat	Run4	repeat/STIM_014.jpg	100
