onset	duration	accuracy	trial_type	learning_stage	stimulus
0.0	2.268	incorrect	generate	Run1	generate/STIM_000.jpg
4.41	1.117	correct	generate	Run1	generate/STIM_000.jpg
8.815	1.518	incorrect	generate	Run1	generate/STIM_000.jpg
12.955	1.737	correct	generate	Run1	generate/STIM_000.jpg
17.661	1.179	correct	generate	Run1	generate/STIM_000.jpg
22.546	2.729	correct	generate	Run1	generate/STIM_001.jpg
27.776	2.394	incorrect	generate	Run1	generate/STIM_001.jpg
32.432	2.206	correct	generate	Run1	generate/STIM_001.jpg
38.323	1.641	incorrect	generate	Run1	generate/STIM_001.jpg
42.445	1.09	correct	generate	Run1	generate/STIM_001.jpg
45.571	1.412	incorrect	generate	Run1	generate/STIM_002.jpg
50.966	1.36	incorrect	generate	Run1	generate/STIM_002.jpg
55.525	1.062	correct	generate	Run1	generate/STIM_002.jpg
60.188	1.061	correct	generate	Run1	generate/STIM_002.jpg
63.295	1.402	correct	generate	Run1	generate/STIM_002.jpg
67.568	1.306	correct	generate	Run1	generate/STIM_003.jpg
71.605	2.172	incorrect	generate	Run1	generate/STIM_003.jpg
77.218	2.473	correct	generate	Run1	generate/STIM_003.jpg
83.086	1.659	correct	generate	Run1	generate/STIM_003.jpg
88.641	1.456	correct	generate	Run1	generate/STIM_003.jpg
93.743	2.756	incorrect	generate	Run1	generate/STIM_004.jpg
98.511	1.921	correct	generate	Run1	generate/STIM_004.jpg
102.588	1.068	correct	generate	Run1	generate/STIM_004.jpg
107.611	1.243	correct	generate	Run1	generate/STIM_004.jpg
112.644	1.791	correct	generate	Run1	generate/STIM_004.jpg
118.011	1.475	correct	generate	Run1	generate/STIM_005.jpg
123.394	1.452	correct	generate	Run1	generate/STIM_005.jpg
128.111	1.558	correct	generate	Run1	generate/STIM_005.jpg
131.95	2.269	correct	generate	Run1	generate/STIM_005.jpg
137.379	1.307	incorrect	generate	Run1	generate/STIM_005.jpg
141.569	2.55	incorrect	generate	Run1	generate/STIM_006.jpg
147.325	1.133	incorrect	generate	Run1	generate/STIM_006.jpg
150.473	2.316	incorrect	generate	Run1	generate/STIM_006.jpg
155.776	1.84	incorrect	generate	Run1	generate/STIM_006.jpg
160.865	2.035	correct	generate	Run1	generate/STIM_006.jpg
166.864	1.614	incorrect	generate	Run1	generate/STIM_007.jpg
171.594	2.275	correct	generate	Run1	generate/STIM_007.jpg
176.008	1.449	incorrect	generate	Run1	generate/STIM_007.jpg
179.618	1.814	correct	generate	Run1	generate/STIM_007.jpg
184.325	1.189	correct	generate	Run1	generate/STIM_007.jpg
188.479	2.676	correct	generate	Run1	generate/STIM_008.jpg
193.412	1.551	incorrect	generate	Run1	generate/STIM_008.jpg
197.939	2.39	incorrect	generate	Run1	generate/STIM_008.jpg
202.525	1.19	correct	generate	Run1	generate/STIM_008.jpg
205.934	2.08	correct	generate	Run1	generate/STIM_008.jpg
211.266	1.147	correct	generate	Run1	generate/STIM_009.jpg
214.444	2.052	incorrect	generate	Run1	generate/STIM_009.jpg
218.956	2.458	incorrect	generate	Run1	generate/STIM_009.jpg
223.427	1.502	correct	generate	Run1	generate/STIM_009.jpg
228.022	1.25	incorrect	generate	Run1	generate/STIM_009.jpg
231.544	2.41	correct	generate	Run1	generate/STIM_010.jpg
236.304	1.539	correct	generate	Run1	generate/STIM_010.jpg
241.611	1.597	incorrect	generate	Run1	generate/STIM_010.jpg
245.43	1.599	correct	generate	Run1	generate/STIM_010.jpg
249.052	1.958	incorrect	generate	Run1	generate/STIM_010.jpg
253.125	2.238	correct	generate	Run1	generate/STIM_011.jpg
258.749	1.479	correct	generate	Run1	generate/STIM_011.jpg
262.695	1.37	incorrect	generate	Run1	generate/STIM_011.jpg
267.314	2.096	correct	generate	Run1	generate/STIM_011.jpg
272.181	1.995	correct	generate	Run1	generate/STIM_011.jpg
278.022	1.343	correct	generate	Run1	generate/STIM_012.jpg
283.091	1.26	incorrect	generate	Run1	generate/STIM_012.jpg
287.707	2.266	correct	generate	Run1	generate/STIM_012.jpg
292.293	1.147	incorrect	generate	Run1	generate/STIM_012.jpg
296.126	0.907	incorrect	generate	Run1	generate/STIM_012.jpg
299.981	1.305	incorrect	generate	Run1	generate/STIM_013.jpg
304.881	2.141	correct	generate	Run1	generate/STIM_013.jpg
309.5	1.316	correct	generate	Run1	generate/STIM_013.jpg
313.494	2.14	incorrect	generate	Run1	generate/STIM_013.jpg
317.842	1.091	incorrect	generate	Run1	generate/STIM_013.jpg
321.03	1.252	incorrect	generate	Run1	generate/STIM_014.jpg
324.579	1.611	incorrect	generate	Run1	generate/STIM_014.jpg
329.387	1.401	correct	generate	Run1	generate/STIM_014.jpg
332.928	2.324	correct	generate	Run1	generate/STIM_014.jpg
337.741	2.085	correct	generate	Run1	generate/STIM_014.jpg
342.978	1.86	incorrect	generate	Run1	generate/STIM_015.jpg
346.913	1.293	correct	generate	Run1	generate/STIM_015.jpg
350.796	1.339	correct	generate	Run1	generate/STIM_015.jpg
355.15	1.71	correct	generate	Run1	generate/STIM_015.jpg
359.109	1.616	incorrect	generate	Run1	generate/STIM_015.jpg
363.619	1.525	correct	generate	Run1	generate/STIM_016.jpg
367.411	2.512	incorrect	generate	Run1	generate/STIM_016.jpg
372.093	1.328	correct	generate	Run1	generate/STIM_016.jpg
377.151	1.75	incorrect	generate	Run1	generate/STIM_016.jpg
381.815	2.018	correct	generate	Run1	generate/STIM_016.jpg
387.321	1.312	incorrect	generate	Run1	generate/STIM_017.jpg
391.522	1.487	correct	generate	Run1	generate/STIM_017.jpg
396.261	1.13	correct	generate	Run1	generate/STIM_017.jpg
401.326	1.403	incorrect	generate	Run1	generate/STIM_017.jpg
405.231	0.97	correct	generate	Run1	generate/STIM_017.jpg
410.195	1.484	correct	generate	Run1	generate/STIM_018.jpg
415.508	2.215	correct	generate	Run1	generate/STIM_018.jpg
420.849	1.566	correct	generate	Run1	generate/STIM_018.jpg
425.311	1.6	correct	generate	Run1	generate/STIM_018.jpg
429.165	1.967	incorrect	generate	Run1	generate/STIM_018.jpg
433.191	1.488	correct	generate	Run1	generate/STIM_019.jpg
436.695	2.318	correct	generate	Run1	generate/STIM_019.jpg
441.118	2.202	incorrect	generate	Run1	generate/STIM_019.jpg
446.535	2.207	incorrect	generate	Run1	generate/STIM_019.jpg
451.525	1.26	correct	generate	Run1	generate/STIM_019.jpg
456.753	2.539	incorrect	generate	Run1	generate/STIM_020.jpg
463.231	2.342	incorrect	generate	Run1	generate/STIM_020.jpg
468.276	1.28	correct	generate	Run1	generate/STIM_020.jpg
473.178	2.21	incorrect	generate	Run1	generate/STIM_020.jpg
478.236	2.149	correct	generate	Run1	generate/STIM_020.jpg
482.767	1.129	correct	generate	Run1	generate/STIM_021.jpg
486.801	1.249	correct	generate	Run1	generate/STIM_021.jpg
491.044	1.257	incorrect	generate	Run1	generate/STIM_021.jpg
496.272	1.903	incorrect	generate	Run1	generate/STIM_021.jpg
500.348	2.235	correct	generate	Run1	generate/STIM_021.jpg
505.02	1.293	correct	generate	Run1	generate/STIM_022.jpg
509.8	2.515	incorrect	generate	Run1	generate/STIM_022.jpg
514.503	1.814	correct	generate	Run1	generate/STIM_022.jpg
520.015	1.092	incorrect	generate	Run1	generate/STIM_022.jpg
524.418	1.027	correct	generate	Run1	generate/STIM_022.jpg
529.176	1.608	correct	generate	Run1	generate/STIM_023.jpg
534.268	2.186	correct	generate	Run1	generate/STIM_023.jpg
539.272	1.899	correct	generate	Run1	generate/STIM_023.jpg
544.958	1.42	correct	generate	Run1	generate/STIM_023.jpg
549.231	0.996	correct	generate	Run1	generate/STIM_023.jpg
553.547	1.922	correct	generate	Run1	generate/STIM_024.jpg
558.779	2.555	correct	generate	Run1	generate/STIM_024.jpg
564.437	1.853	incorrect	generate	Run1	generate/STIM_024.jpg
569.472	1.011	correct	generate	Run1	generate/STIM_024.jpg
572.576	1.943	incorrect	generate	Run1	generate/STIM_024.jpg
578.191	0.809	incorrect	repeat	Run1	repeat/STIM_000.jpg
581.233	0.683	correct	repeat	Run1	repeat/STIM_000.jpg
585.192	0.664	correct	repeat	Run1	repeat/STIM_000.jpg
589.513	0.871	correct	repeat	Run1	repeat/STIM_000.jpg
592.473	0.809	correct	repeat	Run1	repeat/STIM_000.jpg
596.873	0.516	correct	repeat	Run1	repeat/STIM_001.jpg
599.643	0.69	correct	repeat	Run1	repeat/STIM_001.jpg
603.144	0.929	correct	repeat	Run1	repeat/STIM_001.jpg
607.241	0.515	correct	repeat	Run1	repeat/STIM_001.jpg
610.368	0.64	correct	repeat	Run1	repeat/STIM_001.jpg
613.012	0.5	correct	repeat	Run1	repeat/STIM_002.jpg
617.202	0.489	correct	repeat	Run1	repeat/STIM_002.jpg
621.636	0.869	correct	repeat	Run1	repeat/STIM_002.jpg
625.785	0.76	correct	repeat	Run1	repeat/STIM_002.jpg
629.251	0.695	correct	repeat	Run1	repeat/STIM_002.jpg
632.905	0.881	correct	repeat	Run1	repeat/STIM_003.jpg
637.006	0.616	correct	repeat	Run1	repeat/STIM_003.jpg
640.79	0.647	correct	repeat	Run1	repeat/STIM_003.jpg
643.921	0.489	correct	repeat	Run1	repeat/STIM_003.jpg
647.804	0.582	correct	repeat	Run1	repeat/STIM_003.jpg
652.239	0.656	correct	repeat	Run1	repeat/STIM_004.jpg
655.139	0.635	correct	repeat	Run1	repeat/STIM_004.jpg
658.367	0.661	correct	repeat	Run1	repeat/STIM_004.jpg
661.795	0.526	incorrect	repeat	Run1	repeat/STIM_004.jpg
665.185	0.92	correct	repeat	Run1	repeat/STIM_004.jpg
668.869	0.684	correct	repeat	Run1	repeat/STIM_005.jpg
671.603	0.852	correct	repeat	Run1	repeat/STIM_005.jpg
676.413	0.586	correct	repeat	Run1	repeat/STIM_005.jpg
680.421	0.923	correct	repeat	Run1	repeat/STIM_005.jpg
684.621	0.934	correct	repeat	Run1	repeat/STIM_005.jpg
687.729	0.779	correct	repeat	Run1	repeat/STIM_006.jpg
690.708	0.694	correct	repeat	Run1	repeat/STIM_006.jpg
694.713	0.544	correct	repeat	Run1	repeat/STIM_006.jpg
698.495	0.835	correct	repeat	Run1	repeat/STIM_006.jpg
702.149	0.75	incorrect	repeat	Run1	repeat/STIM_006.jpg
705.079	0.631	correct	repeat	Run1	repeat/STIM_007.jpg
708.22	0.933	correct	repeat	Run1	repeat/STIM_007.jpg
711.297	0.67	correct	repeat	Run1	repeat/STIM_007.jpg
715.921	0.843	correct	repeat	Run1	repeat/STIM_007.jpg
718.838	0.558	correct	repeat	Run1	repeat/STIM_007.jpg
722.999	0.769	correct	repeat	Run1	repeat/STIM_008.jpg
726.77	0.872	correct	repeat	Run1	repeat/STIM_008.jpg
729.977	0.757	correct	repeat	Run1	repeat/STIM_008.jpg
732.915	0.512	correct	repeat	Run1	repeat/STIM_008.jpg
736.212	0.67	correct	repeat	Run1	repeat/STIM_008.jpg
740.716	0.648	correct	repeat	Run1	repeat/STIM_009.jpg
743.829	0.664	incorrect	repeat	Run1	repeat/STIM_009.jpg
748.305	0.939	correct	repeat	Run1	repeat/STIM_009.jpg
753.122	0.639	incorrect	repeat	Run1	repeat/STIM_009.jpg
755.867	0.697	correct	repeat	Run1	repeat/STIM_009.jpg
758.664	0.553	incorrect	repeat	Run1	repeat/STIM_010.jpg
762.973	0.488	correct	repeat	Run1	repeat/STIM_010.jpg
765.726	0.473	incorrect	repeat	Run1	repeat/STIM_010.jpg
769.478	0.921	correct	repeat	Run1	repeat/STIM_010.jpg
773.721	0.751	incorrect	repeat	Run1	repeat/STIM_010.jpg
776.742	0.553	correct	repeat	Run1	repeat/STIM_011.jpg
780.319	0.829	correct	repeat	Run1	repeat/STIM_011.jpg
785.032	0.777	correct	repeat	Run1	repeat/STIM_011.jpg
788.285	0.562	correct	repeat	Run1	repeat/STIM_011.jpg
792.75	0.829	correct	repeat	Run1	repeat/STIM_011.jpg
797.463	0.591	correct	repeat	Run1	repeat/STIM_012.jpg
801.193	0.842	correct	repeat	Run1	repeat/STIM_012.jpg
804.891	0.567	incorrect	repeat	Run1	repeat/STIM_012.jpg
807.592	0.782	correct	repeat	Run1	repeat/STIM_012.jpg
812.032	0.669	incorrect	repeat	Run1	repeat/STIM_012.jpg
814.994	0.619	incorrect	repeat	Run1	repeat/STIM_013.jpg
819.439	0.616	incorrect	repeat	Run1	repeat/STIM_013.jpg
822.881	0.613	incorrect	repeat	Run1	repeat/STIM_013.jpg
826.182	0.556	correct	repeat	Run1	repeat/STIM_013.jpg
830.016	0.794	correct	repeat	Run1	repeat/STIM_013.jpg
833.885	0.789	correct	repeat	Run1	repeat/STIM_014.jpg
837.277	0.793	correct	repeat	Run1	repeat/STIM_014.jpg
841.598	0.881	correct	repeat	Run1	repeat/STIM_014.jpg
846.387	0.809	correct	repeat	Run1	repeat/STIM_014.jpg
851.11	0.924	correct	repeat	Run1	repeat/STIM_014.jpg
855.545	2.224	correct	generate	Run2	generate/STIM_000.jpg
861.731	1.323	incorrect	generate	Run2	generate/STIM_000.jpg
866.307	1.59	correct	generate	Run2	generate/STIM_000.jpg
870.115	1.309	correct	generate	Run2	generate/STIM_000.jpg
874.608	1.064	incorrect	generate	Run2	generate/STIM_000.jpg
877.827	1.071	incorrect	generate	Run2	generate/STIM_001.jpg
881.288	1.249	correct	generate	Run2	generate/STIM_001.jpg
884.828	1.472	correct	generate	Run2	generate/STIM_001.jpg
889.734	1.653	correct	generate	Run2	generate/STIM_001.jpg
894.741	1.484	correct	generate	Run2	generate/STIM_001.jpg
899.354	1.621	correct	generate	Run2	generate/STIM_002.jpg
903.341	1.298	correct	generate	Run2	generate/STIM_002.jpg
906.916	1.622	correct	generate	Run2	generate/STIM_002.jpg
912.018	1.469	incorrect	generate	Run2	generate/STIM_002.jpg
915.845	0.934	correct	generate	Run2	generate/STIM_002.jpg
920.666	1.818	incorrect	generate	Run2	generate/STIM_003.jpg
924.875	2.093	correct	generate	Run2	generate/STIM_003.jpg
930.402	2.057	correct	generate	Run2	generate/STIM_003.jpg
935.27	1.288	incorrect	generate	Run2	generate/STIM_003.jpg
940.23	1.427	correct	generate	Run2	generate/STIM_003.jpg
944.412	2.144	correct	generate	Run2	generate/STIM_004.jpg
949.867	1.671	correct	generate	Run2	generate/STIM_004.jpg
954.336	1.333	correct	generate	Run2	generate/STIM_004.jpg
957.975	1.777	correct	generate	Run2	generate/STIM_004.jpg
963.595	1.173	correct	generate	Run2	generate/STIM_004.jpg
968.471	0.973	incorrect	generate	Run2	generate/STIM_005.jpg
972.091	1.853	correct	generate	Run2	generate/STIM_005.jpg
976.529	0.944	correct	generate	Run2	generate/STIM_005.jpg
980.314	1.148	incorrect	generate	Run2	generate/STIM_005.jpg
984.692	1.32	correct	generate	Run2	generate/STIM_005.jpg
988.607	0.962	correct	generate	Run2	generate/STIM_006.jpg
992.326	1.671	correct	generate	Run2	generate/STIM_006.jpg
996.848	1.778	correct	generate	Run2	generate/STIM_006.jpg
1002.156	1.587	correct	generate	Run2	generate/STIM_006.jpg
1005.954	1.375	incorrect	generate	Run2	generate/STIM_006.jpg
1009.475	1.054	correct	generate	Run2	generate/STIM_007.jpg
1014.507	1.552	correct	generate	Run2	generate/STIM_007.jpg
1019.022	1.437	correct	generate	Run2	generate/STIM_007.jpg
1023.702	1.953	correct	generate	Run2	generate/STIM_007.jpg
1028.952	1.851	incorrect	generate	Run2	generate/STIM_007.jpg
1033.774	1.381	incorrect	generate	Run2	generate/STIM_008.jpg
1037.7	1.606	incorrect	generate	Run2	generate/STIM_008.jpg
1042.298	1.912	correct	generate	Run2	generate/STIM_008.jpg
1048.053	1.321	correct	generate	Run2	generate/STIM_008.jpg
1051.732	1.545	correct	generate	Run2	generate/STIM_008.jpg
1056.595	1.445	correct	generate	Run2	generate/STIM_009.jpg
1060.224	1.525	correct	generate	Run2	generate/STIM_009.jpg
1063.991	1.268	incorrect	generate	Run2	generate/STIM_009.jpg
1067.421	1.028	correct	generate	Run2	generate/STIM_009.jpg
1072.356	1.074	incorrect	generate	Run2	generate/STIM_009.jpg
1076.893	1.863	incorrect	generate	Run2	generate/STIM_010.jpg
1081.736	1.172	correct	generate	Run2	generate/STIM_010.jpg
1085.646	1.142	correct	generate	Run2	generate/STIM_010.jpg
1089.985	1.633	correct	generate	Run2	generate/STIM_010.jpg
1093.845	1.693	incorrect	generate	Run2	generate/STIM_010.jpg
1098.761	1.363	correct	generate	Run2	generate/STIM_011.jpg
1103.931	1.421	correct	generate	Run2	generate/STIM_011.jpg
1107.603	1.327	correct	generate	Run2	generate/STIM_011.jpg
1111.47	1.745	correct	generate	Run2	generate/STIM_011.jpg
1117.201	1.295	incorrect	generate	Run2	generate/STIM_011.jpg
1121.55	1.77	incorrect	generate	Run2	generate/STIM_012.jpg
1125.597	1.477	correct	generate	Run2	generate/STIM_012.jpg
1131.037	1.6	incorrect	generate	Run2	generate/STIM_012.jpg
1134.907	1.922	incorrect	generate	Run2	generate/STIM_012.jpg
1138.904	1.402	correct	generate	Run2	generate/STIM_012.jpg
1143.617	2.135	correct	generate	Run2	generate/STIM_013.jpg
1148.163	2.168	incorrect	generate	Run2	generate/STIM_013.jpg
1153.065	1.594	incorrect	generate	Run2	generate/STIM_013.jpg
1157.178	1.544	correct	generate	Run2	generate/STIM_013.jpg
1161.216	1.516	incorrect	generate	Run2	generate/STIM_013.jpg
1164.765	1.026	correct	generate	Run2	generate/STIM_014.jpg
1169.236	1.117	incorrect	generate	Run2	generate/STIM_014.jpg
1173.485	1.757	incorrect	generate	Run2	generate/STIM_014.jpg
1177.255	1.559	correct	generate	Run2	generate/STIM_014.jpg
1182.339	0.976	correct	generate	Run2	generate/STIM_014.jpg
1186.776	2.266	correct	generate	Run2	generate/STIM_015.jpg
1192.589	0.983	incorrect	generate	Run2	generate/STIM_015.jpg
1196.959	1.406	correct	generate	Run2	generate/STIM_015.jpg
1201.136	1.45	correct	generate	Run2	generate/STIM_015.jpg
1204.915	1.873	correct	generate	Run2	generate/STIM_015.jpg
1209.583	1.896	correct	generate	Run2	generate/STIM_016.jpg
1215.062	2.208	correct	generate	Run2	generate/STIM_016.jpg
1219.333	2.082	incorrect	generate	Run2	generate/STIM_016.jpg
1223.779	1.109	correct	generate	Run2	generate/STIM_016.jpg
1226.963	0.923	correct	generate	Run2	generate/STIM_016.jpg
1231.177	1.808	incorrect	generate	Run2	generate/STIM_017.jpg
1235.204	1.088	incorrect	generate	Run2	generate/STIM_017.jpg
1239.73	0.919	correct	generate	Run2	generate/STIM_017.jpg
1243.594	1.538	correct	generate	Run2	generate/STIM_017.jpg
1247.525	1.035	correct	generate	Run2	generate/STIM_017.jpg
1251.95	1.292	correct	generate	Run2	generate/STIM_018.jpg
1256.216	1.693	correct	generate	Run2	generate/STIM_018.jpg
1261.256	1.58	correct	generate	Run2	generate/STIM_018.jpg
1265.258	1.349	correct	generate	Run2	generate/STIM_018.jpg
1269.689	1.464	incorrect	generate	Run2	generate/STIM_018.jpg
1273.592	1.911	correct	generate	Run2	generate/STIM_019.jpg
1278.002	1.957	incorrect	generate	Run2	generate/STIM_019.jpg
1283.039	1.927	correct	generate	Run2	generate/STIM_019.jpg
1288.182	1.152	incorrect	generate	Run2	generate/STIM_019.jpg
1291.961	1.234	correct	generate	Run2	generate/STIM_019.jpg
1295.922	2.26	correct	generate	Run2	generate/STIM_020.jpg
1301.19	1.26	incorrect	generate	Run2	generate/STIM_020.jpg
1306.38	1.183	correct	generate	Run2	generate/STIM_020.jpg
1309.668	1.159	correct	generate	Run2	generate/STIM_020.jpg
1314.329	1.891	correct	generate	Run2	generate/STIM_020.jpg
1319.978	1.926	correct	generate	Run2	generate/STIM_021.jpg
1325.782	1.882	correct	generate	Run2	generate/STIM_021.jpg
1330.855	1.382	correct	generate	Run2	generate/STIM_021.jpg
1334.253	1.083	incorrect	generate	Run2	generate/STIM_021.jpg
1337.979	1.854	correct	generate	Run2	generate/STIM_021.jpg
1343.298	1.235	incorrect	generate	Run2	generate/STIM_022.jpg
1346.895	2.212	incorrect	generate	Run2	generate/STIM_022.jpg
1352.804	1.169	incorrect	generate	Run2	generate/STIM_022.jpg
1357.285	1.543	correct	generate	Run2	generate/STIM_022.jpg
1362.702	1.339	correct	generate	Run2	generate/STIM_022.jpg
1367.373	1.885	incorrect	generate	Run2	generate/STIM_023.jpg
1371.74	1.015	correct	generate	Run2	generate/STIM_023.jpg
1375.576	1.514	incorrect	generate	Run2	generate/STIM_023.jpg
1379.968	1.861	incorrect	generate	Run2	generate/STIM_023.jpg
1384.138	0.879	incorrect	generate	Run2	generate/STIM_023.jpg
1388.271	1.099	incorrect	generate	Run2	generate/STIM_024.jpg
1392.302	2.207	correct	generate	Run2	generate/STIM_024.jpg
1398.437	1.755	correct	generate	Run2	generate/STIM_024.jpg
1402.758	0.919	correct	generate	Run2	generate/STIM_024.jpg
1406.596	1.918	correct	generate	Run2	generate/STIM_024.jpg
1410.883	0.552	correct	repeat	Run2	repeat/STIM_000.jpg
1414.061	0.724	correct	repeat	Run2	repeat/STIM_000.jpg
1418.682	0.867	correct	repeat	Run2	repeat/STIM_000.jpg
1422.488	0.534	correct	repeat	Run2	repeat/STIM_000.jpg
1425.07	0.642	correct	repeat	Run2	repeat/STIM_000.jpg
1429.219	0.918	correct	repeat	Run2	repeat/STIM_001.jpg
1432.751	0.771	correct	repeat	Run2	repeat/STIM_001.jpg
1437.065	0.517	correct	repeat	Run2	repeat/STIM_001.jpg
1439.825	0.773	incorrect	repeat	Run2	repeat/STIM_001.jpg
1444.372	0.484	correct	repeat	Run2	repeat/STIM_001.jpg
1447.838	0.872	incorrect	repeat	Run2	repeat/STIM_002.jpg
1451.133	0.699	correct	repeat	Run2	repeat/STIM_002.jpg
1455.697	0.736	correct	repeat	Run2	repeat/STIM_002.jpg
1458.914	0.828	incorrect	repeat	Run2	repeat/STIM_002.jpg
1462.787	0.563	incorrect	repeat	Run2	repeat/STIM_002.jpg
1466.605	0.843	incorrect	repeat	Run2	repeat/STIM_003.jpg
1470.574	0.79	correct	repeat	Run2	repeat/STIM_003.jpg
1474.694	0.61	correct	repeat	Run2	repeat/STIM_003.jpg
1478.513	0.485	correct	repeat	Run2	repeat/STIM_003.jpg
1481.39	0.588	correct	repeat	Run2	repeat/STIM_003.jpg
1485.437	0.657	correct	repeat	Run2	repeat/STIM_004.jpg
1489.505	0.887	correct	repeat	Run2	repeat/STIM_004.jpg
1492.628	0.586	incorrect	repeat	Run2	repeat/STIM_004.jpg
1496.848	0.812	correct	repeat	Run2	repeat/STIM_004.jpg
1500.124	0.719	correct	repeat	Run2	repeat/STIM_004.jpg
1504.839	0.767	correct	repeat	Run2	repeat/STIM_005.jpg
1509.33	0.553	incorrect	repeat	Run2	repeat/STIM_005.jpg
1512.68	0.901	correct	repeat	Run2	repeat/STIM_005.jpg
1516.456	0.554	correct	repeat	Run2	repeat/STIM_005.jpg
1519.832	0.541	correct	repeat	Run2	repeat/STIM_005.jpg
1523.035	0.851	correct	repeat	Run2	repeat/STIM_006.jpg
1527.191	0.607	correct	repeat	Run2	repeat/STIM_006.jpg
1531.176	0.926	correct	repeat	Run2	repeat/STIM_006.jpg
1534.725	0.6	correct	repeat	Run2	repeat/STIM_006.jpg
1539.14	0.759	incorrect	repeat	Run2	repeat/STIM_006.jpg
1543.841	0.726	correct	repeat	Run2	repeat/STIM_007.jpg
1548.463	0.748	incorrect	repeat	Run2	repeat/STIM_007.jpg
1552.9	0.518	correct	repeat	Run2	repeat/STIM_007.jpg
1556.311	0.794	correct	repeat	Run2	repeat/STIM_007.jpg
1559.436	0.626	correct	repeat	Run2	repeat/STIM_007.jpg
1563.682	0.673	correct	repeat	Run2	repeat/STIM_008.jpg
1568.348	0.82	correct	repeat	Run2	repeat/STIM_008.jpg
1572.095	0.811	correct	repeat	Run2	repeat/STIM_008.jpg
1575.687	0.609	incorrect	repeat	Run2	repeat/STIM_008.jpg
1578.872	0.577	incorrect	repeat	Run2	repeat/STIM_008.jpg
1582.838	0.761	correct	repeat	Run2	repeat/STIM_009.jpg
1586.992	0.836	correct	repeat	Run2	repeat/STIM_009.jpg
1591.26	0.82	incorrect	repeat	Run2	repeat/STIM_009.jpg
1594.11	0.598	correct	repeat	Run2	repeat/STIM_009.jpg
1597.225	0.616	correct	repeat	Run2	repeat/STIM_009.jpg
1601.776	0.513	correct	repeat	Run2	repeat/STIM_010.jpg
1605.465	0.612	correct	repeat	Run2	repeat/STIM_010.jpg
1608.428	0.559	correct	repeat	Run2	repeat/STIM_010.jpg
1612.223	0.532	correct	repeat	Run2	repeat/STIM_010.jpg
1615.508	0.851	correct	repeat	Run2	repeat/STIM_010.jpg
1618.78	0.93	correct	repeat	Run2	repeat/STIM_011.jpg
1622.704	0.57	correct	repeat	Run2	repeat/STIM_011.jpg
1625.461	0.524	correct	repeat	Run2	repeat/STIM_011.jpg
1628.959	0.916	incorrect	repeat	Run2	repeat/STIM_011.jpg
1632.148	0.668	correct	repeat	Run2	repeat/STIM_011.jpg
1635.094	0.757	correct	repeat	Run2	repeat/STIM_012.jpg
1638.548	0.678	correct	repeat	Run2	repeat/STIM_012.jpg
1641.34	0.907	correct	repeat	Run2	repeat/STIM_012.jpg
1644.694	0.674	correct	repeat	Run2	repeat/STIM_012.jpg
1647.839	0.81	incorrect	repeat	Run2	repeat/STIM_012.jpg
1652.112	0.503	incorrect	repeat	Run2	repeat/STIM_013.jpg
1655.92	0.723	correct	repeat	Run2	repeat/STIM_013.jpg
1659.986	0.892	correct	repeat	Run2	repeat/STIM_013.jpg
1664.4	0.578	correct	repeat	Run2	repeat/STIM_013.jpg
1668.382	0.905	incorrect	repeat	Run2	repeat/STIM_013.jpg
1671.656	0.628	incorrect	repeat	Run2	repeat/STIM_014.jpg
1674.587	0.504	correct	repeat	Run2	repeat/STIM_014.jpg
1677.623	0.708	incorrect	repeat	Run2	repeat/STIM_014.jpg
1682.101	0.477	incorrect	repeat	Run2	repeat/STIM_014.jpg
1686.289	0.645	correct	repeat	Run2	repeat/STIM_014.jpg
1689.111	1.036	correct	generate	Run3	generate/STIM_000.jpg
1693.777	0.964	correct	generate	Run3	generate/STIM_000.jpg
1698.604	0.807	correct	generate	Run3	generate/STIM_000.jpg
1701.654	0.936	incorrect	generate	Run3	generate/STIM_000.jpg
1704.947	1.273	incorrect	generate	Run3	generate/STIM_000.jpg
1708.273	1.947	incorrect	generate	Run3	generate/STIM_001.jpg
1713.663	1.909	correct	generate	Run3	generate/STIM_001.jpg
1718.867	1.076	correct	generate	Run3	generate/STIM_001.jpg
1722.372	0.982	correct	generate	Run3	generate/STIM_001.jpg
1726.716	1.035	correct	generate	Run3	generate/STIM_001.jpg
1730.442	1.537	correct	generate	Run3	generate/STIM_002.jpg
1734.608	1.437	correct	generate	Run3	generate/STIM_002.jpg
1740.023	1.1	correct	generate	Run3	generate/STIM_002.jpg
1743.907	1.064	incorrect	generate	Run3	generate/STIM_002.jpg
1748.072	0.966	correct	generate	Run3	generate/STIM_002.jpg
1751.569	1.492	correct	generate	Run3	generate/STIM_003.jpg
1756.924	1.942	correct	generate	Run3	generate/STIM_003.jpg
1761.141	0.869	correct	generate	Run3	generate/STIM_003.jpg
1765.315	1.278	incorrect	generate	Run3	generate/STIM_003.jpg
1769.137	1.368	correct	generate	Run3	generate/STIM_003.jpg
1772.687	1.281	incorrect	generate	Run3	generate/STIM_004.jpg
1776.041	1.208	correct	generate	Run3	generate/STIM_004.jpg
1780.968	1.585	correct	generate	Run3	generate/STIM_004.jpg
1785.846	1.563	correct	generate	Run3	generate/STIM_004.jpg
1791.379	1.505	incorrect	generate	Run3	generate/STIM_004.jpg
1795.754	0.794	correct	generate	Run3	generate/STIM_005.jpg
1799.81	1.568	correct	generate	Run3	generate/STIM_005.jpg
1803.608	1.474	incorrect	generate	Run3	generate/STIM_005.jpg
1808.297	1.816	incorrect	generate	Run3	generate/STIM_005.jpg
1812.762	1.766	correct	generate	Run3	generate/STIM_005.jpg
1817.228	1.133	correct	generate	Run3	generate/STIM_006.jpg
1820.487	1.241	correct	generate	Run3	generate/STIM_006.jpg
1824.67	1.903	correct	generate	Run3	generate/STIM_006.jpg
1828.975	1.735	correct	generate	Run3	generate/STIM_006.jpg
1833.663	1.217	correct	generate	Run3	generate/STIM_006.jpg
1838.215	1.564	correct	generate	Run3	generate/STIM_007.jpg
1843.343	0.853	correct	generate	Run3	generate/STIM_007.jpg
1848.069	1.755	correct	generate	Run3	generate/STIM_007.jpg
1853.37	0.959	incorrect	generate	Run3	generate/STIM_007.jpg
1857.483	1.234	correct	generate	Run3	generate/STIM_007.jpg
1861.792	1.951	incorrect	generate	Run3	generate/STIM_008.jpg
1866.32	1.126	correct	generate	Run3	generate/STIM_008.jpg
1871.093	0.822	incorrect	generate	Run3	generate/STIM_008.jpg
1874.746	1.064	correct	generate	Run3	generate/STIM_008.jpg
1878.392	1.969	correct	generate	Run3	generate/STIM_008.jpg
1883.072	1.12	incorrect	generate	Run3	generate/STIM_009.jpg
1886.595	1.624	correct	generate	Run3	generate/STIM_009.jpg
1891.652	0.874	correct	generate	Run3	generate/STIM_009.jpg
1896.131	0.944	correct	generate	Run3	generate/STIM_009.jpg
1899.432	1.122	correct	generate	Run3	generate/STIM_009.jpg
1903.405	1.47	incorrect	generate	Run3	generate/STIM_010.jpg
1907.459	1.188	incorrect	generate	Run3	generate/STIM_010.jpg
1911.497	1.283	correct	generate	Run3	generate/STIM_010.jpg
1916.576	0.91	incorrect	generate	Run3	generate/STIM_010.jpg
1919.919	1.908	correct	generate	Run3	generate/STIM_010.jpg
1924.804	1.344	correct	generate	Run3	generate/STIM_011.jpg
1929.025	1.22	correct	generate	Run3	generate/STIM_011.jpg
1934.199	1.571	incorrect	generate	Run3	generate/STIM_011.jpg
1937.899	0.935	incorrect	generate	Run3	generate/STIM_011.jpg
1941.099	1.151	correct	generate	Run3	generate/STIM_011.jpg
1945.725	1.882	incorrect	generate	Run3	generate/STIM_012.jpg
1950.7	1.658	correct	generate	Run3	generate/STIM_012.jpg
1955.315	1.298	correct	generate	Run3	generate/STIM_012.jpg
1960.375	0.828	correct	generate	Run3	generate/STIM_012.jpg
1964.07	1.806	correct	generate	Run3	generate/STIM_012.jpg
1969.427	0.939	correct	generate	Run3	generate/STIM_013.jpg
1973.587	1.813	correct	generate	Run3	generate/STIM_013.jpg
1977.877	1.463	incorrect	generate	Run3	generate/STIM_013.jpg
1982.233	1.59	correct	generate	Run3	generate/STIM_013.jpg
1987.65	1.402	correct	generate	Run3	generate/STIM_013.jpg
1991.393	1.772	correct	generate	Run3	generate/STIM_014.jpg
1995.606	1.065	correct	generate	Run3	generate/STIM_014.jpg
1998.772	0.817	correct	generate	Run3	generate/STIM_014.jpg
2001.731	1.377	correct	generate	Run3	generate/STIM_014.jpg
2006.016	0.808	correct	generate	Run3	generate/STIM_014.jpg
2009.386	1.92	correct	generate	Run3	generate/STIM_015.jpg
2013.369	1.468	incorrect	generate	Run3	generate/STIM_015.jpg
2017.691	1.95	incorrect	generate	Run3	generate/STIM_015.jpg
2022.028	1.499	correct	generate	Run3	generate/STIM_015.jpg
2025.653	1.696	correct	generate	Run3	generate/STIM_015.jpg
2030.136	1.8	incorrect	generate	Run3	generate/STIM_016.jpg
2033.945	1.116	correct	generate	Run3	generate/STIM_016.jpg
2037.979	0.794	correct	generate	Run3	generate/STIM_016.jpg
2042.447	0.983	correct	generate	Run3	generate/STIM_016.jpg
2046.068	1.758	correct	generate	Run3	generate/STIM_016.jpg
2051.024	1.85	correct	generate	Run3	generate/STIM_017.jpg
2055.58	0.868	incorrect	generate	Run3	generate/STIM_017.jpg
2060.109	1.084	correct	generate	Run3	generate/STIM_017.jpg
2064.457	0.949	correct	generate	Run3	generate/STIM_017.jpg
2067.7	1.02	correct	generate	Run3	generate/STIM_017.jpg
2072.367	1.734	correct	generate	Run3	generate/STIM_018.jpg
2076.58	1.619	correct	generate	Run3	generate/STIM_018.jpg
2080.663	0.882	correct	generate	Run3	generate/STIM_018.jpg
2084.369	1.81	correct	generate	Run3	generate/STIM_018.jpg
2088.867	1.884	correct	generate	Run3	generate/STIM_018.jpg
2094.214	1.609	incorrect	generate	Run3	generate/STIM_019.jpg
2099.583	1.718	correct	generate	Run3	generate/STIM_019.jpg
2104.342	0.914	incorrect	generate	Run3	generate/STIM_019.jpg
2107.892	1.022	correct	generate	Run3	generate/STIM_019.jpg
2111.937	0.894	correct	generate	Run3	generate/STIM_019.jpg
2115.59	1.658	correct	generate	Run3	generate/STIM_020.jpg
2120.622	0.943	correct	generate	Run3	generate/STIM_020.jpg
2125.28	1.687	correct	generate	Run3	generate/STIM_020.jpg
2130.815	1.44	correct	generate	Run3	generate/STIM_020.jpg
2135.403	1.812	correct	generate	Run3	generate/STIM_020.jpg
2140.919	1.707	incorrect	generate	Run3	generate/STIM_021.jpg
2146.482	1.59	incorrect	generate	Run3	generate/STIM_021.jpg
2151.851	0.914	incorrect	generate	Run3	generate/STIM_021.jpg
2155.766	1.289	correct	generate	Run3	generate/STIM_021.jpg
2159.158	1.648	correct	generate	Run3	generate/STIM_021.jpg
2162.858	0.959	correct	generate	Run3	generate/STIM_022.jpg
2166.915	0.979	incorrect	generate	Run3	generate/STIM_022.jpg
2171.679	0.862	correct	generate	Run3	generate/STIM_022.jpg
2175.656	1.292	correct	generate	Run3	generate/STIM_022.jpg
2180.014	1.64	correct	generate	Run3	generate/STIM_022.jpg
2185.35	1.904	correct	generate	Run3	generate/STIM_023.jpg
2190.989	1.543	correct	generate	Run3	generate/STIM_023.jpg
2196.066	1.97	correct	generate	Run3	generate/STIM_023.jpg
2201.47	1.494	correct	generate	Run3	generate/STIM_023.jpg
2205.583	1.18	correct	generate	Run3	generate/STIM_023.jpg
2210.012	1.882	correct	generate	Run3	generate/STIM_024.jpg
2214.466	1.041	correct	generate	Run3	generate/STIM_024.jpg
2219.251	1.279	correct	generate	Run3	generate/STIM_024.jpg
2224.088	0.8	correct	generate	Run3	generate/STIM_024.jpg
2228.085	1.498	correct	generate	Run3	generate/STIM_024.jpg
2233.537	0.817	correct	repeat	Run3	repeat/STIM_000.jpg
2237.139	0.662	correct	repeat	Run3	repeat/STIM_000.jpg
2241.7	0.707	correct	repeat	Run3	repeat/STIM_000.jpg
2244.69	0.531	correct	repeat	Run3	repeat/STIM_000.jpg
2248.02	0.68	correct	repeat	Run3	repeat/STIM_000.jpg
2252.382	0.886	correct	repeat	Run3	repeat/STIM_001.jpg
2256.605	0.835	correct	repeat	Run3	repeat/STIM_001.jpg
2260.79	0.783	correct	repeat	Run3	repeat/STIM_001.jpg
2264.245	0.676	incorrect	repeat	Run3	repeat/STIM_001.jpg
2267.327	0.765	incorrect	repeat	Run3	repeat/STIM_001.jpg
2272.005	0.598	correct	repeat	Run3	repeat/STIM_002.jpg
2274.824	0.619	incorrect	repeat	Run3	repeat/STIM_002.jpg
2279.433	0.638	correct	repeat	Run3	repeat/STIM_002.jpg
2283.745	0.832	correct	repeat	Run3	repeat/STIM_002.jpg
2287.042	0.507	correct	repeat	Run3	repeat/STIM_002.jpg
2290.312	0.628	incorrect	repeat	Run3	repeat/STIM_003.jpg
2293.703	0.852	correct	repeat	Run3	repeat/STIM_003.jpg
2298.5	0.896	correct	repeat	Run3	repeat/STIM_003.jpg
2303.095	0.846	incorrect	repeat	Run3	repeat/STIM_003.jpg
2306.051	0.69	correct	repeat	Run3	repeat/STIM_003.jpg
2310.639	0.786	incorrect	repeat	Run3	repeat/STIM_004.jpg
2314.223	0.709	incorrect	repeat	Run3	repeat/STIM_004.jpg
2318.816	0.575	correct	repeat	Run3	repeat/STIM_004.jpg
2322.279	0.853	correct	repeat	Run3	repeat/STIM_004.jpg
2325.953	0.905	correct	repeat	Run3	repeat/STIM_004.jpg
2330.368	0.552	correct	repeat	Run3	repeat/STIM_005.jpg
2333.221	0.52	incorrect	repeat	Run3	repeat/STIM_005.jpg
2337.154	0.787	correct	repeat	Run3	repeat/STIM_005.jpg
2341.26	0.792	incorrect	repeat	Run3	repeat/STIM_005.jpg
2345.877	0.692	correct	repeat	Run3	repeat/STIM_005.jpg
2350.047	0.851	correct	repeat	Run3	repeat/STIM_006.jpg
2353.319	0.624	incorrect	repeat	Run3	repeat/STIM_006.jpg
2356.841	0.715	correct	repeat	Run3	repeat/STIM_006.jpg
2359.581	0.862	correct	repeat	Run3	repeat/STIM_006.jpg
2364.154	0.833	correct	repeat	Run3	repeat/STIM_006.jpg
2368.587	0.807	correct	repeat	Run3	repeat/STIM_007.jpg
2371.604	0.73	correct	repeat	Run3	repeat/STIM_007.jpg
2374.998	0.919	correct	repeat	Run3	repeat/STIM_007.jpg
2378.094	0.676	correct	repeat	Run3	repeat/STIM_007.jpg
2381.031	0.929	correct	repeat	Run3	repeat/STIM_007.jpg
2384.86	0.523	correct	repeat	Run3	repeat/STIM_008.jpg
2387.59	0.784	correct	repeat	Run3	repeat/STIM_008.jpg
2391.411	0.558	correct	repeat	Run3	repeat/STIM_008.jpg
2395.686	0.934	correct	repeat	Run3	repeat/STIM_008.jpg
2399.468	0.67	incorrect	repeat	Run3	repeat/STIM_008.jpg
2402.86	0.516	correct	repeat	Run3	repeat/STIM_009.jpg
2405.737	0.65	correct	repeat	Run3	repeat/STIM_009.jpg
2409.209	0.849	correct	repeat	Run3	repeat/STIM_009.jpg
2413.849	0.577	correct	repeat	Run3	repeat/STIM_009.jpg
2417.522	0.804	incorrect	repeat	Run3	repeat/STIM_009.jpg
2420.874	0.835	correct	repeat	Run3	repeat/STIM_010.jpg
2425.151	0.937	correct	repeat	Run3	repeat/STIM_010.jpg
2428.798	0.504	correct	repeat	Run3	repeat/STIM_010.jpg
2432.62	0.485	correct	repeat	Run3	repeat/STIM_010.jpg
2436.009	0.756	incorrect	repeat	Run3	repeat/STIM_010.jpg
2440.136	0.857	correct	repeat	Run3	repeat/STIM_011.jpg
2443.261	0.762	correct	repeat	Run3	repeat/STIM_011.jpg
2447.117	0.549	incorrect	repeat	Run3	repeat/STIM_011.jpg
2449.881	0.915	correct	repeat	Run3	repeat/STIM_011.jpg
2452.89	0.669	correct	repeat	Run3	repeat/STIM_011.jpg
2455.734	0.83	correct	repeat	Run3	repeat/STIM_012.jpg
2459.11	0.725	correct	repeat	Run3	repeat/STIM_012.jpg
2463.318	0.716	correct	repeat	Run3	repeat/STIM_012.jpg
2467.848	0.503	correct	repeat	Run3	repeat/STIM_012.jpg
2470.475	0.496	incorrect	repeat	Run3	repeat/STIM_012.jpg
2473.653	0.641	correct	repeat	Run3	repeat/STIM_013.jpg
2477.846	0.679	correct	repeat	Run3	repeat/STIM_013.jpg
2481.879	0.666	correct	repeat	Run3	repeat/STIM_013.jpg
2485.293	0.886	correct	repeat	Run3	repeat/STIM_013.jpg
2489.991	0.654	correct	repeat	Run3	repeat/STIM_013.jpg
2492.872	0.742	correct	repeat	Run3	repeat/STIM_014.jpg
2496.994	0.847	correct	repeat	Run3	repeat/STIM_014.jpg
2501.382	0.572	correct	repeat	Run3	repeat/STIM_014.jpg
2504.416	0.473	correct	repeat	Run3	repeat/STIM_014.jpg
2508.694	0.805	incorrect	repeat	Run3	repeat/STIM_014.jpg
2512.338	1.588	correct	generate	Run4	generate/STIM_000.jpg
2517.749	1.9	correct	generate	Run4	generate/STIM_000.jpg
2522.417	1.565	correct	generate	Run4	generate/STIM_000.jpg
2527.635	0.889	correct	generate	Run4	generate/STIM_000.jpg
2530.552	1.479	correct	generate	Run4	generate/STIM_000.jpg
2534.127	1.354	correct	generate	Run4	generate/STIM_001.jpg
2538.418	0.822	correct	generate	Run4	generate/STIM_001.jpg
2541.421	1.647	incorrect	generate	Run4	generate/STIM_001.jpg
2545.661	0.961	correct	generate	Run4	generate/STIM_001.jpg
2549.479	1.699	correct	generate	Run4	generate/STIM_001.jpg
2553.863	1.421	correct	generate	Run4	generate/STIM_002.jpg
2557.834	1.57	correct	generate	Run4	generate/STIM_002.jpg
2562.152	1.513	correct	generate	Run4	generate/STIM_002.jpg
2566.127	1.596	correct	generate	Run4	generate/STIM_002.jpg
2570.323	1.394	correct	generate	Run4	generate/STIM_002.jpg
2573.898	1.127	correct	generate	Run4	generate/STIM_003.jpg
2578.601	1.457	correct	generate	Run4	generate/STIM_003.jpg
2583.21	1.607	correct	generate	Run4	generate/STIM_003.jpg
2588.481	1.688	correct	generate	Run4	generate/STIM_003.jpg
2592.336	1.511	correct	generate	Run4	generate/STIM_003.jpg
2597.443	1.923	correct	generate	Run4	generate/STIM_004.jpg
2602.088	1.86	correct	generate	Run4	generate/STIM_004.jpg
2607.341	1.141	correct	generate	Run4	generate/STIM_004.jpg
2610.754	1.619	correct	generate	Run4	generate/STIM_004.jpg
2615.507	0.81	correct	generate	Run4	generate/STIM_004.jpg
2619.918	0.821	incorrect	generate	Run4	generate/STIM_005.jpg
2623.219	1.57	correct	generate	Run4	generate/STIM_005.jpg
2628.051	0.843	correct	generate	Run4	generate/STIM_005.jpg
2632.713	1.606	correct	generate	Run4	generate/STIM_005.jpg
2636.489	1.807	correct	generate	Run4	generate/STIM_005.jpg
2642.249	1.451	correct	generate	Run4	generate/STIM_006.jpg
2647.229	1.489	correct	generate	Run4	generate/STIM_006.jpg
2651.405	1.67	correct	generate	Run4	generate/STIM_006.jpg
2656.966	1.587	incorrect	generate	Run4	generate/STIM_006.jpg
2661.32	1.566	correct	generate	Run4	generate/STIM_006.jpg
2665.69	1.371	correct	generate	Run4	generate/STIM_007.jpg
2670.146	1.948	correct	generate	Run4	generate/STIM_007.jpg
2674.673	1.312	correct	generate	Run4	generate/STIM_007.jpg
2678.973	0.836	incorrect	generate	Run4	generate/STIM_007.jpg
2682.952	1.55	correct	generate	Run4	generate/STIM_007.jpg
2687.202	1.719	correct	generate	Run4	generate/STIM_008.jpg
2691.444	0.953	incorrect	generate	Run4	generate/STIM_008.jpg
2695.686	1.512	correct	generate	Run4	generate/STIM_008.jpg
2700.03	1.124	correct	generate	Run4	generate/STIM_008.jpg
2703.483	1.328	correct	generate	Run4	generate/STIM_008.jpg
2708.384	1.966	correct	generate	Run4	generate/STIM_009.jpg
2713.419	0.893	correct	generate	Run4	generate/STIM_009.jpg
2718.113	1.333	correct	generate	Run4	generate/STIM_009.jpg
2722.668	1.61	correct	generate	Run4	generate/STIM_009.jpg
2727.15	1.234	correct	generate	Run4	generate/STIM_009.jpg
2731.97	1.001	correct	generate	Run4	generate/STIM_010.jpg
2736.935	1.236	correct	generate	Run4	generate/STIM_010.jpg
2740.584	1.662	correct	generate	Run4	generate/STIM_010.jpg
2745.863	1.919	correct	generate	Run4	generate/STIM_010.jpg
2750.591	0.883	correct	generate	Run4	generate/STIM_010.jpg
2754.041	1.602	correct	generate	Run4	generate/STIM_011.jpg
2759.145	1.784	correct	generate	Run4	generate/STIM_011.jpg
2764.788	1.322	correct	generate	Run4	generate/STIM_011.jpg
2769.671	0.872	correct	generate	Run4	generate/STIM_011.jpg
2774.431	1.536	correct	generate	Run4	generate/STIM_011.jpg
2778.5	1.054	correct	generate	Run4	generate/STIM_012.jpg
2781.843	1.635	correct	generate	Run4	generate/STIM_012.jpg
2787.434	1.457	correct	generate	Run4	generate/STIM_012.jpg
2792.01	1.175	correct	generate	Run4	generate/STIM_012.jpg
2796.554	1.817	incorrect	generate	Run4	generate/STIM_012.jpg
2801.222	1.594	incorrect	generate	Run4	generate/STIM_013.jpg
2806.664	1.409	incorrect	generate	Run4	generate/STIM_013.jpg
2810.956	1.814	incorrect	generate	Run4	generate/STIM_013.jpg
2815.803	1.41	incorrect	generate	Run4	generate/STIM_013.jpg
2820.445	1.495	incorrect	generate	Run4	generate/STIM_013.jpg
2824.538	1.657	correct	generate	Run4	generate/STIM_014.jpg
2829.775	1.351	incorrect	generate	Run4	generate/STIM_014.jpg
2834.79	1.935	correct	generate	Run4	generate/STIM_014.jpg
2838.896	1.707	correct	generate	Run4	generate/STIM_014.jpg
2842.842	1.232	correct	generate	Run4	generate/STIM_014.jpg
2847.778	1.944	correct	generate	Run4	generate/STIM_015.jpg
2851.862	0.915	correct	generate	Run4	generate/STIM_015.jpg
2856.696	1.843	correct	generate	Run4	generate/STIM_015.jpg
2861.73	1.146	correct	generate	Run4	generate/STIM_015.jpg
2865.616	1.555	incorrect	generate	Run4	generate/STIM_015.jpg
2870.58	1.35	incorrect	generate	Run4	generate/STIM_016.jpg
2874.022	0.929	correct	generate	Run4	generate/STIM_016.jpg
2878.867	1.965	correct	generate	Run4	generate/STIM_016.jpg
2882.939	1.878	correct	generate	Run4	generate/STIM_016.jpg
2886.956	0.851	correct	generate	Run4	generate/STIM_016.jpg
2890.768	1.544	correct	generate	Run4	generate/STIM_017.jpg
2894.857	1.048	correct	generate	Run4	generate/STIM_017.jpg
2898.222	0.869	correct	generate	Run4	generate/STIM_017.jpg
2901.221	1.498	correct	generate	Run4	generate/STIM_017.jpg
2904.893	1.398	correct	generate	Run4	generate/STIM_017.jpg
2909.26	0.982	correct	generate	Run4	generate/STIM_018.jpg
2912.812	1.744	incorrect	generate	Run4	generate/STIM_018.jpg
2917.457	1.093	correct	generate	Run4	generate/STIM_018.jpg
2922.412	1.75	correct	generate	Run4	generate/STIM_018.jpg
2926.715	1.646	correct	generate	Run4	generate/STIM_018.jpg
2930.499	1.474	correct	generate	Run4	generate/STIM_019.jpg
2935.562	1.569	correct	generate	Run4	generate/STIM_019.jpg
2940.077	1.904	correct	generate	Run4	generate/STIM_019.jpg
2944.366	1.811	correct	generate	Run4	generate/STIM_019.jpg
2948.883	0.826	incorrect	generate	Run4	generate/STIM_019.jpg
2953.265	1.919	correct	generate	Run4	generate/STIM_020.jpg
2957.408	0.869	correct	generate	Run4	generate/STIM_020.jpg
2961.648	0.865	correct	generate	Run4	generate/STIM_020.jpg
2965.502	1.497	correct	generate	Run4	generate/STIM_020.jpg
2969.372	0.934	correct	generate	Run4	generate/STIM_020.jpg
2973.768	1.126	incorrect	generate	Run4	generate/STIM_021.jpg
2978.358	0.873	incorrect	generate	Run4	generate/STIM_021.jpg
2983.096	1.509	correct	generate	Run4	generate/STIM_021.jpg
2988.48	1.268	correct	generate	Run4	generate/STIM_021.jpg
2993.154	1.465	correct	generate	Run4	generate/STIM_021.jpg
2997.921	0.891	correct	generate	Run4	generate/STIM_022.jpg
3001.09	1.26	correct	generate	Run4	generate/STIM_022.jpg
3004.925	1.616	correct	generate	Run4	generate/STIM_022.jpg
3009.716	1.327	correct	generate	Run4	generate/STIM_022.jpg
3013.484	1.031	correct	generate	Run4	generate/STIM_022.jpg
3017.435	1.856	correct	generate	Run4	generate/STIM_023.jpg
3021.704	1.081	incorrect	generate	Run4	generate/STIM_023.jpg
3025.037	1.842	incorrect	generate	Run4	generate/STIM_023.jpg
3029.394	1.159	correct	generate	Run4	generate/STIM_023.jpg
3033.798	1.548	correct	generate	Run4	generate/STIM_023.jpg
3038.541	1.013	correct	generate	Run4	generate/STIM_024.jpg
3042.016	1.725	correct	generate	Run4	generate/STIM_024.jpg
3046.04	1.442	correct	generate	Run4	generate/STIM_024.jpg
3050.357	1.705	correct	generate	Run4	generate/STIM_024.jpg
3055.205	0.809	correct	generate	Run4	generate/STIM_024.jpg
3058.491	0.711	correct	repeat	Run4	repeat/STIM_000.jpg
3061.844	0.571	correct	repeat	Run4	repeat/STIM_000.jpg
3064.645	0.877	correct	repeat	Run4	repeat/STIM_000.jpg
3068.731	0.736	incorrect	repeat	Run4	repeat/STIM_000.jpg
3071.727	0.771	correct	repeat	Run4	repeat/STIM_000.jpg
3076.103	0.694	correct	repeat	Run4	repeat/STIM_001.jpg
3080.421	0.621	incorrect	repeat	Run4	repeat/STIM_001.jpg
3084.362	0.881	correct	repeat	Run4	repeat/STIM_001.jpg
3089.176	0.675	correct	repeat	Run4	repeat/STIM_001.jpg
3093.778	0.772	incorrect	repeat	Run4	repeat/STIM_001.jpg
3098.038	0.556	correct	repeat	Run4	repeat/STIM_002.jpg
3101.764	0.791	correct	repeat	Run4	repeat/STIM_002.jpg
3105.167	0.612	correct	repeat	Run4	repeat/STIM_002.jpg
3108.725	0.733	incorrect	repeat	Run4	repeat/STIM_002.jpg
3113.017	0.514	correct	repeat	Run4	repeat/STIM_002.jpg
3115.699	0.746	correct	repeat	Run4	repeat/STIM_003.jpg
3120.029	0.784	incorrect	repeat	Run4	repeat/STIM_003.jpg
3123.254	0.843	correct	repeat	Run4	repeat/STIM_003.jpg
3126.798	0.906	correct	repeat	Run4	repeat/STIM_003.jpg
3129.913	0.569	correct	repeat	Run4	repeat/STIM_003.jpg
3134.385	0.689	correct	repeat	Run4	repeat/STIM_004.jpg
3137.35	0.715	correct	repeat	Run4	repeat/STIM_004.jpg
3140.067	0.804	correct	repeat	Run4	repeat/STIM_004.jpg
3142.927	0.674	correct	repeat	Run4	repeat/STIM_004.jpg
3147.365	0.658	correct	repeat	Run4	repeat/STIM_004.jpg
3150.459	0.477	incorrect	repeat	Run4	repeat/STIM_005.jpg
3154.755	0.612	correct	repeat	Run4	repeat/STIM_005.jpg
3157.509	0.597	correct	repeat	Run4	repeat/STIM_005.jpg
3160.365	0.871	correct	repeat	Run4	repeat/STIM_005.jpg
3164.4	0.6	correct	repeat	Run4	repeat/STIM_005.jpg
3167.48	0.488	correct	repeat	Run4	repeat/STIM_006.jpg
3171.854	0.558	correct	repeat	Run4	repeat/STIM_006.jpg
3175.777	0.93	correct	repeat	Run4	repeat/STIM_006.jpg
3179.636	0.517	correct	repeat	Run4	repeat/STIM_006.jpg
3182.617	0.563	correct	repeat	Run4	repeat/STIM_006.jpg
3185.698	0.846	correct	repeat	Run4	repeat/STIM_007.jpg
3190.321	0.876	correct	repeat	Run4	repeat/STIM_007.jpg
3193.865	0.628	correct	repeat	Run4	repeat/STIM_007.jpg
3197.704	0.495	correct	repeat	Run4	repeat/STIM_007.jpg
3200.449	0.846	correct	repeat	Run4	repeat/STIM_007.jpg
3204.008	0.714	incorrect	repeat	Run4	repeat/STIM_008.jpg
3207.72	0.723	correct	repeat	Run4	repeat/STIM_008.jpg
3211.037	0.915	correct	repeat	Run4	repeat/STIM_008.jpg
3214.134	0.73	correct	repeat	Run4	repeat/STIM_008.jpg
3217.696	0.844	correct	repeat	Run4	repeat/STIM_008.jpg
3221.032	0.693	correct	repeat	Run4	repeat/STIM_009.jpg
3225.275	0.655	correct	repeat	Run4	repeat/STIM_009.jpg
3228.249	0.474	correct	repeat	Run4	repeat/STIM_009.jpg
3231.768	0.828	correct	repeat	Run4	repeat/STIM_009.jpg
3235.37	0.928	correct	repeat	Run4	repeat/STIM_009.jpg
3239.481	0.608	correct	repeat	Run4	repeat/STIM_010.jpg
3242.758	0.586	incorrect	repeat	Run4	repeat/STIM_010.jpg
3246.692	0.5	correct	repeat	Run4	repeat/STIM_010.jpg
3250.902	0.715	correct	repeat	Run4	repeat/STIM_010.jpg
3253.939	0.864	correct	repeat	Run4	repeat/STIM_010.jpg
3258.403	0.668	correct	repeat	Run4	repeat/STIM_011.jpg
3261.838	0.837	correct	repeat	Run4	repeat/STIM_011.jpg
3264.901	0.553	correct	repeat	Run4	repeat/STIM_011.jpg
3269.238	0.785	correct	repeat	Run4	repeat/STIM_011.jpg
3273.363	0.525	correct	repeat	Run4	repeat/STIM_011.jpg
3277.541	0.65	correct	repeat	Run4	repeat/STIM_012.jpg
3280.884	0.909	correct	repeat	Run4	repeat/STIM_012.jpg
3285.022	0.779	correct	repeat	Run4	repeat/STIM_012.jpg
3287.93	0.853	correct	repeat	Run4	repeat/STIM_012.jpg
3292.448	0.579	correct	repeat	Run4	repeat/STIM_012.jpg
3296.419	0.612	correct	repeat	Run4	repeat/STIM_013.jpg
3299.425	0.689	correct	repeat	Run4	repeat/STIM_013.jpg
3303.678	0.511	incorrect	repeat	Run4	repeat/STIM_013.jpg
3307.394	0.794	correct	repeat	Run4	repeat/STIM_013.jpg
3310.781	0.87	correct	repeat	Run4	repeat/STIM_013.jpg
3313.975	0.492	correct	repeat	Run4	repeat/STIM_014.jpg
3317.891	0.713	correct	repeat	Run4	repeat/STIM_014.jpg
3321.529	0.865	correct	repeat	Run4	repeat/STIM_014.jpg
3326.19	0.76	correct	repeat	Run4	repeat/STIM_014.jpg
3329.777	0.585	correct	repeat	Run4	repeat/STIM_014.jpg
