onset	duration	accuracy	trial_type	learning_stage	stimulus
0.0	1.121	correct	study	Phase1	study/STIM_000.jpg
4.611	1.822	incorrect	study	Phase1	study/STIM_000.jpg
9.973	1.123	incorrect	study	Phase1	study/STIM_000.jpg
13.079	1.198	correct	study	Phase1	study/STIM_001.jpg
17.174	1.592	correct	study	Phase1	study/STIM_001.jpg
21.985	0.97	correct	study	Phase1	study/STIM_001.jpg
26.053	1.754	correct	study	Phase1	study/STIM_002.jpg
30.212	1.257	correct	study	Phase1	study/STIM_002.jpg
34.313	1.333	correct	study	Phase1	study/STIM_002.jpg
38.567	1.665	correct	study	Phase1	study/STIM_003.jpg
42.99	1.606	correct	study	Phase1	study/STIM_003.jpg
47.39	1.022	correct	study	Phase1	study/STIM_003.jpg
50.982	1.262	correct	study	Phase1	study/STIM_004.jpg
54.715	1.441	correct	study	Phase1	study/STIM_004.jpg
59.214	1.617	correct	study	Phase1	study/STIM_004.jpg
64.426	1.436	correct	study	Phase1	study/STIM_005.jpg
68.28	1.161	incorrect	study	Phase1	study/STIM_005.jpg
72.13	0.912	correct	study	Phase1	study/STIM_005.jpg
75.276	1.333	incorrect	study	Phase1	study/STIM_006.jpg
79.303	1.033	correct	study	Phase1	study/STIM_006.jpg
82.369	1.256	correct	study	Phase1	study/STIM_006.jpg
86.017	1.382	incorrect	study	Phase1	study/STIM_007.jpg
90.192	1.208	correct	study	Phase1	study/STIM_007.jpg
95.014	0.867	correct	study	Phase1	study/STIM_007.jpg
97.926	1.94	correct	study	Phase1	study/STIM_008.jpg
102.89	0.976	incorrect	study	Phase1	study/STIM_008.jpg
105.902	1.345	correct	study	Phase1	study/STIM_008.jpg
109.794	1.291	correct	study	Phase1	study/STIM_009.jpg
114.176	1.27	correct	study	Phase1	study/STIM_009.jpg
118.296	1.178	correct	study	Phase1	study/STIM_009.jpg
122.483	1.24	correct	study	Phase1	study/STIM_010.jpg
126.641	1.086	correct	study	Phase1	study/STIM_010.jpg
130.168	0.98	correct	study	Phase1	study/STIM_010.jpg
134.367	1.284	correct	study	Phase1	study/STIM_011.jpg
139.514	1.317	correct	study	Phase1	study/STIM_011.jpg
144.718	1.139	correct	study	Phase1	study/STIM_011.jpg
148.255	1.601	correct	study	Phase1	study/STIM_012.jpg
153.325	1.571	correct	study	Phase1	study/STIM_012.jpg
158.282	1.635	correct	study	Phase1	study/STIM_012.jpg
162.471	1.916	correct	study	Phase1	study/STIM_013.jpg
168.097	1.413	correct	study	Phase1	study/STIM_013.jpg
173.16	1.269	correct	study	Phase1	study/STIM_013.jpg
177.064	0.996	incorrect	study	Phase1	study/STIM_014.jpg
181.943	1.437	correct	study	Phase1	study/STIM_014.jpg
186.36	1.127	incorrect	study	Phase1	study/STIM_014.jpg
190.656	1.54	correct	study	Phase1	study/STIM_015.jpg
195.116	1.282	incorrect	study	Phase1	study/STIM_015.jpg
200.094	1.422	correct	study	Phase1	study/STIM_015.jpg
204.54	1.841	correct	study	Phase1	study/STIM_016.jpg
209.39	1.46	correct	study	Phase1	study/STIM_016.jpg
213.496	1.254	correct	study	Phase1	study/STIM_016.jpg
217.306	0.844	correct	study	Phase1	study/STIM_017.jpg
221.621	1.7	correct	study	Phase1	study/STIM_017.jpg
226.511	0.904	correct	study	Phase1	study/STIM_017.jpg
231.214	1.874	correct	study	Phase1	study/STIM_018.jpg
235.733	0.942	correct	study	Phase1	study/STIM_018.jpg
239.83	1.731	correct	study	Phase1	study/STIM_018.jpg
244.599	1.768	correct	study	Phase1	study/STIM_019.jpg
248.122	0.886	correct	study	Phase1	study/STIM_019.jpg
251.782	1.21	correct	study	Phase1	study/STIM_019.jpg
256.83	1.768	correct	study	Phase1	study/STIM_020.jpg
260.679	0.875	correct	study	Phase1	study/STIM_020.jpg
263.564	1.281	correct	study	Phase1	study/STIM_020.jpg
266.755	1.659	correct	study	Phase1	study/STIM_021.jpg
271.635	1.723	correct	study	Phase1	study/STIM_021.jpg
277.024	0.977	correct	study	Phase1	study/STIM_021.jpg
281.474	1.15	incorrect	study	Phase1	study/STIM_022.jpg
285.24	1.07	correct	study	Phase1	study/STIM_022.jpg
289.728	1.747	correct	study	Phase1	study/STIM_022.jpg
295.075	0.86	correct	study	Phase1	study/STIM_023.jpg
298.053	1.148	correct	study	Phase1	study/STIM_023.jpg
303.114	1.521	incorrect	study	Phase1	study/STIM_023.jpg
306.524	0.996	correct	study	Phase1	study/STIM_024.jpg
311.214	1.335	correct	study	Phase1	study/STIM_024.jpg
315.844	0.743	correct	study	Phase1	study/STIM_024.jpg
319.334	1.003	correct	study	Phase1	study/STIM_025.jpg
322.585	1.91	incorrect	study	Phase1	study/STIM_025.jpg
326.55	1.484	correct	study	Phase1	study/STIM_025.jpg
331.499	1.086	correct	study	Phase1	study/STIM_026.jpg
335.375	1.263	correct	study	Phase1	study/STIM_026.jpg
340.456	0.812	incorrect	study	Phase1	study/STIM_026.jpg
343.708	1.862	correct	study	Phase1	study/STIM_027.jpg
348.827	0.969	correct	study	Phase1	study/STIM_027.jpg
352.293	1.553	incorrect	study	Phase1	study/STIM_027.jpg
357.657	1.461	correct	study	Phase1	study/STIM_028.jpg
362.385	1.553	correct	study	Phase1	study/STIM_028.jpg
367.037	1.833	correct	study	Phase1	study/STIM_028.jpg
371.164	1.263	incorrect	study	Phase1	study/STIM_029.jpg
374.565	1.624	correct	study	Phase1	study/STIM_029.jpg
379.296	0.891	correct	study	Phase1	study/STIM_029.jpg
382.599	1.144	correct	test	Phase1	test/STIM_000.jpg
386.241	1.315	correct	test	Phase1	test/STIM_000.jpg
390.579	0.706	correct	test	Phase1	test/STIM_000.jpg
395.209	1.316	incorrect	test	Phase1	test/STIM_001.jpg
399.018	0.951	correct	test	Phase1	test/STIM_001.jpg
402.63	1.243	correct	test	Phase1	test/STIM_001.jpg
406.351	1.241	correct	test	Phase1	test/STIM_002.jpg
410.607	1.063	correct	test	Phase1	test/STIM_002.jpg
415.409	1.155	correct	test	Phase1	test/STIM_002.jpg
419.322	1.358	correct	test	Phase1	test/STIM_003.jpg
424.448	1.21	correct	test	Phase1	test/STIM_003.jpg
429.319	1.025	correct	test	Phase1	test/STIM_003.jpg
433.898	1.334	correct	test	Phase1	test/STIM_004.jpg
438.558	1.037	correct	test	Phase1	test/STIM_004.jpg
442.8	1.422	correct	test	Phase1	test/STIM_004.jpg
447.862	1.062	correct	test	Phase1	test/STIM_005.jpg
451.864	1.098	correct	test	Phase1	test/STIM_005.jpg
455.949	1.157	correct	test	Phase1	test/STIM_005.jpg
459.779	0.767	correct	test	Phase1	test/STIM_006.jpg
462.786	0.914	correct	test	Phase1	test/STIM_006.jpg
467.248	1.142	correct	test	Phase1	test/STIM_006.jpg
472.078	1.243	correct	test	Phase1	test/STIM_007.jpg
476.462	0.824	correct	test	Phase1	test/STIM_007.jpg
480.804	0.744	correct	test	Phase1	test/STIM_007.jpg
483.842	0.692	correct	test	Phase1	test/STIM_008.jpg
486.583	0.925	incorrect	test	Phase1	test/STIM_008.jpg
490.248	1.058	correct	test	Phase1	test/STIM_008.jpg
494.312	1.235	correct	test	Phase1	test/STIM_009.jpg
497.544	1.215	correct	test	Phase1	test/STIM_009.jpg
501.019	0.705	correct	test	Phase1	test/STIM_009.jpg
505.16	0.922	correct	test	Phase1	test/STIM_010.jpg
508.708	0.797	correct	test	Phase1	test/STIM_010.jpg
513.233	1.272	correct	test	Phase1	test/STIM_010.jpg
516.721	1.193	correct	test	Phase1	test/STIM_011.jpg
520.161	0.871	correct	test	Phase1	test/STIM_011.jpg
523.67	1.099	correct	test	Phase1	test/STIM_011.jpg
526.634	0.633	incorrect	test	Phase1	test/STIM_012.jpg
530.252	1.303	correct	test	Phase1	test/STIM_012.jpg
533.861	0.904	correct	test	Phase1	test/STIM_012.jpg
536.757	1.099	correct	test	Phase1	test/STIM_013.jpg
541.585	0.755	correct	test	Phase1	test/STIM_013.jpg
544.644	0.718	correct	test	Phase1	test/STIM_013.jpg
548.463	1.191	correct	test	Phase1	test/STIM_014.jpg
553.38	1.072	correct	test	Phase1	test/STIM_014.jpg
557.487	1.374	correct	test	Phase1	test/STIM_014.jpg
562.518	1.124	correct	test	Phase1	test/STIM_015.jpg
566.982	0.932	correct	test	Phase1	test/STIM_015.jpg
570.665	1.322	correct	test	Phase1	test/STIM_015.jpg
574.083	0.702	correct	test	Phase1	test/STIM_016.jpg
576.824	1.389	correct	test	Phase1	test/STIM_016.jpg
581.999	0.848	correct	test	Phase1	test/STIM_016.jpg
585.947	1.474	correct	test	Phase1	test/STIM_017.jpg
589.531	1.228	correct	test	Phase1	test/STIM_017.jpg
593.108	1.257	correct	test	Phase1	test/STIM_017.jpg
598.278	0.886	correct	test	Phase1	test/STIM_018.jpg
601.911	1.059	correct	test	Phase1	test/STIM_018.jpg
606.15	0.957	incorrect	test	Phase1	test/STIM_018.jpg
610.838	0.711	correct	test	Phase1	test/STIM_019.jpg
614.29	0.752	correct	test	Phase1	test/STIM_019.jpg
618.946	0.682	correct	test	Phase1	test/STIM_019.jpg
621.995	0.85	correct	test	Phase1	test/STIM_020.jpg
624.872	0.818	incorrect	test	Phase1	test/STIM_020.jpg
628.747	1.321	correct	test	Phase1	test/STIM_020.jpg
632.538	1.325	correct	test	Phase1	test/STIM_021.jpg
637.594	0.74	correct	test	Phase1	test/STIM_021.jpg
640.92	1.165	correct	test	Phase1	test/STIM_021.jpg
644.361	1.048	correct	test	Phase1	test/STIM_022.jpg
648.385	1.116	correct	test	Phase1	test/STIM_022.jpg
651.462	0.963	correct	test	Phase1	test/STIM_022.jpg
654.992	1.144	correct	test	Phase1	test/STIM_023.jpg
659.12	0.724	correct	test	Phase1	test/STIM_023.jpg
662.472	1.07	correct	test	Phase1	test/STIM_023.jpg
667.381	1.182	correct	test	Phase1	test/STIM_024.jpg
671.558	1.205	correct	test	Phase1	test/STIM_024.jpg
676.26	0.611	correct	test	Phase1	test/STIM_024.jpg
680.254	1.033	correct	test	Phase1	test/STIM_025.jpg
684.928	1.291	correct	test	Phase1	test/STIM_025.jpg
689.533	0.702	correct	test	Phase1	test/STIM_025.jpg
693.127	1.005	correct	test	Phase1	test/STIM_026.jpg
696.526	1.133	correct	test	Phase1	test/STIM_026.jpg
701.148	0.947	correct	test	Phase1	test/STIM_026.jpg
705.78	0.705	correct	test	Phase1	test/STIM_027.jpg
708.868	0.779	correct	test	Phase1	test/STIM_027.jpg
711.726	1.137	correct	test	Phase1	test/STIM_027.jpg
715.173	1.344	correct	test	Phase1	test/STIM_028.jpg
718.517	0.846	correct	test	Phase1	test/STIM_028.jpg
722.431	1.062	correct	test	Phase1	test/STIM_028.jpg
726.663	1.125	correct	test	Phase1	test/STIM_029.jpg
731.213	0.966	correct	test	Phase1	test/STIM_029.jpg
735.236	1.351	correct	test	Phase1	test/STIM_029.jpg
738.564	1.312	correct	study	Phase2	study/STIM_000.jpg
742.443	1.244	correct	study	Phase2	study/STIM_000.jpg
746.07	0.728	correct	study	Phase2	study/STIM_000.jpg
749.861	1.522	correct	study	Phase2	study/STIM_001.jpg
753.406	0.725	correct	study	Phase2	study/STIM_001.jpg
757.011	0.903	correct	study	Phase2	study/STIM_001.jpg
761.089	1.436	correct	study	Phase2	study/STIM_002.jpg
764.351	1.363	correct	study	Phase2	study/STIM_002.jpg
769.175	1.315	correct	study	Phase2	study/STIM_002.jpg
772.476	1.005	correct	study	Phase2	study/STIM_003.jpg
776.484	1.252	correct	study	Phase2	study/STIM_003.jpg
781.049	1.312	incorrect	study	Phase2	study/STIM_003.jpg
785.977	0.952	incorrect	study	Phase2	study/STIM_004.jpg
790.85	1.026	correct	study	Phase2	study/STIM_004.jpg
795.374	1.147	correct	study	Phase2	study/STIM_004.jpg
799.424	1.538	correct	study	Phase2	study/STIM_005.jpg
804.398	0.693	correct	study	Phase2	study/STIM_005.jpg
808.685	0.912	correct	study	Phase2	study/STIM_005.jpg
812.712	1.45	incorrect	study	Phase2	study/STIM_006.jpg
817.911	1.223	correct	study	Phase2	study/STIM_006.jpg
822.351	1.196	correct	study	Phase2	study/STIM_006.jpg
825.513	0.745	correct	study	Phase2	study/STIM_007.jpg
828.395	0.997	correct	study	Phase2	study/STIM_007.jpg
831.563	0.98	correct	study	Phase2	study/STIM_007.jpg
836.107	0.985	correct	study	Phase2	study/STIM_008.jpg
840.144	1.452	correct	study	Phase2	study/STIM_008.jpg
843.869	0.962	correct	study	Phase2	study/STIM_008.jpg
846.966	1.133	correct	study	Phase2	study/STIM_009.jpg
851.735	1.554	correct	study	Phase2	study/STIM_009.jpg
857.019	1.166	correct	study	Phase2	study/STIM_009.jpg
860.901	1.644	correct	study	Phase2	study/STIM_010.jpg
865.475	0.899	correct	study	Phase2	study/STIM_010.jpg
869.721	1.36	correct	study	Phase2	study/STIM_010.jpg
874.483	0.798	correct	study	Phase2	study/STIM_011.jpg
877.882	0.843	incorrect	study	Phase2	study/STIM_011.jpg
881.344	1.122	correct	study	Phase2	study/STIM_011.jpg
885.835	1.464	correct	study	Phase2	study/STIM_012.jpg
890.152	1.126	correct	study	Phase2	study/STIM_012.jpg
894.382	1.419	correct	study	Phase2	study/STIM_012.jpg
898.862	1.126	incorrect	study	Phase2	study/STIM_013.jpg
902.205	0.87	correct	study	Phase2	study/STIM_013.jpg
906.381	1.114	correct	study	Phase2	study/STIM_013.jpg
910.887	1.049	correct	study	Phase2	study/STIM_014.jpg
915.031	0.886	correct	study	Phase2	study/STIM_014.jpg
918.327	0.846	correct	study	Phase2	study/STIM_014.jpg
922.722	0.781	correct	study	Phase2	study/STIM_015.jpg
926.399	1.071	correct	study	Phase2	study/STIM_015.jpg
929.692	1.132	correct	study	Phase2	study/STIM_015.jpg
933.737	1.651	correct	study	Phase2	study/STIM_016.jpg
938.426	1.09	correct	study	Phase2	study/STIM_016.jpg
941.956	1.226	correct	study	Phase2	study/STIM_016.jpg
946.22	1.007	correct	study	Phase2	study/STIM_017.jpg
950.287	0.984	correct	study	Phase2	study/STIM_017.jpg
954.243	1.062	correct	study	Phase2	study/STIM_017.jpg
958.089	0.928	correct	study	Phase2	study/STIM_018.jpg
962.528	0.882	correct	study	Phase2	study/STIM_018.jpg
967.07	1.114	correct	study	Phase2	study/STIM_018.jpg
971.701	1.439	correct	study	Phase2	study/STIM_019.jpg
975.961	1.337	correct	study	Phase2	study/STIM_019.jpg
980.428	1.027	correct	study	Phase2	study/STIM_019.jpg
984.053	0.803	correct	study	Phase2	study/STIM_020.jpg
988.31	1.456	correct	study	Phase2	study/STIM_020.jpg
992.769	1.368	correct	study	Phase2	study/STIM_020.jpg
997.934	1.441	correct	study	Phase2	study/STIM_021.jpg
1001.604	1.273	correct	study	Phase2	study/STIM_021.jpg
1006.171	1.002	correct	study	Phase2	study/STIM_021.jpg
1010.566	0.951	correct	study	Phase2	study/STIM_022.jpg
1013.842	1.009	correct	study	Phase2	study/STIM_022.jpg
1017.543	0.716	correct	study	Phase2	study/STIM_022.jpg
1020.387	0.929	correct	study	Phase2	study/STIM_023.jpg
1023.916	0.865	correct	study	Phase2	study/STIM_023.jpg
1028.69	1.168	correct	study	Phase2	study/STIM_023.jpg
1032.811	1.617	correct	study	Phase2	study/STIM_024.jpg
1038.101	1.231	incorrect	study	Phase2	study/STIM_024.jpg
1041.777	1.191	correct	study	Phase2	study/STIM_024.jpg
1045.319	1.522	correct	study	Phase2	study/STIM_025.jpg
1049.488	0.8	correct	study	Phase2	study/STIM_025.jpg
1052.927	1.048	incorrect	study	Phase2	study/STIM_025.jpg
1057.63	0.99	correct	study	Phase2	study/STIM_026.jpg
1060.934	0.874	correct	study	Phase2	study/STIM_026.jpg
1065.253	0.934	correct	study	Phase2	study/STIM_026.jpg
1068.973	1.364	correct	study	Phase2	study/STIM_027.jpg
1073.95	0.805	correct	study	Phase2	study/STIM_027.jpg
1076.792	0.857	incorrect	study	Phase2	study/STIM_027.jpg
1081.144	0.927	correct	study	Phase2	study/STIM_028.jpg
1085.615	1.508	correct	study	Phase2	study/STIM_028.jpg
1090.477	0.944	correct	study	Phase2	study/STIM_028.jpg
1093.495	1.166	correct	study	Phase2	study/STIM_029.jpg
1098.332	1.341	correct	study	Phase2	study/STIM_029.jpg
1103.347	0.979	incorrect	study	Phase2	study/STIM_029.jpg
1106.596	0.748	correct	test	Phase2	test/STIM_000.jpg
1111.035	0.864	correct	test	Phase2	test/STIM_000.jpg
1115.714	1.164	correct	test	Phase2	test/STIM_000.jpg
1119.946	0.944	correct	test	Phase2	test/STIM_001.jpg
1124.065	1.27	correct	test	Phase2	test/STIM_001.jpg
1128.393	1.154	correct	test	Phase2	test/STIM_001.jpg
1131.592	1.118	correct	test	Phase2	test/STIM_002.jpg
1135.065	1.314	incorrect	test	Phase2	test/STIM_002.jpg
1139.262	1.079	correct	test	Phase2	test/STIM_002.jpg
1144.143	1.368	correct	test	Phase2	test/STIM_003.jpg
1147.971	1.284	correct	test	Phase2	test/STIM_003.jpg
1151.321	0.881	correct	test	Phase2	test/STIM_003.jpg
1154.995	0.676	correct	test	Phase2	test/STIM_004.jpg
1159.519	1.193	correct	test	Phase2	test/STIM_004.jpg
1162.782	1.28	correct	test	Phase2	test/STIM_004.jpg
1167.769	0.958	correct	test	Phase2	test/STIM_005.jpg
1172.48	1.083	correct	test	Phase2	test/STIM_005.jpg
1176.06	0.912	incorrect	test	Phase2	test/STIM_005.jpg
1179.655	0.976	correct	test	Phase2	test/STIM_006.jpg
1182.817	1.021	correct	test	Phase2	test/STIM_006.jpg
1185.856	1.205	correct	test	Phase2	test/STIM_006.jpg
1189.096	0.889	correct	test	Phase2	test/STIM_007.jpg
1192.536	0.878	correct	test	Phase2	test/STIM_007.jpg
1196.112	1.009	correct	test	Phase2	test/STIM_007.jpg
1201.048	0.991	correct	test	Phase2	test/STIM_008.jpg
1205.661	1.116	correct	test	Phase2	test/STIM_008.jpg
1210.266	0.988	correct	test	Phase2	test/STIM_008.jpg
1213.361	1.435	incorrect	test	Phase2	test/STIM_009.jpg
1218.003	1.087	correct	test	Phase2	test/STIM_009.jpg
1222.828	0.936	correct	test	Phase2	test/STIM_009.jpg
1227.576	0.761	correct	test	Phase2	test/STIM_010.jpg
1232.009	0.769	correct	test	Phase2	test/STIM_010.jpg
1235.578	0.683	correct	test	Phase2	test/STIM_010.jpg
1239.265	0.999	correct	test	Phase2	test/STIM_011.jpg
1244.065	1.162	correct	test	Phase2	test/STIM_011.jpg
1248.474	0.825	correct	test	Phase2	test/STIM_011.jpg
1251.717	1.281	correct	test	Phase2	test/STIM_012.jpg
1255.219	0.87	correct	test	Phase2	test/STIM_012.jpg
1258.827	1.339	correct	test	Phase2	test/STIM_012.jpg
1262.365	1.001	correct	test	Phase2	test/STIM_013.jpg
1265.902	0.894	correct	test	Phase2	test/STIM_013.jpg
1268.921	0.953	correct	test	Phase2	test/STIM_013.jpg
1272.794	1.189	correct	test	Phase2	test/STIM_014.jpg
1277.891	1.227	correct	test	Phase2	test/STIM_014.jpg
1282.064	1.066	correct	test	Phase2	test/STIM_014.jpg
1285.308	1.137	correct	test	Phase2	test/STIM_015.jpg
1289.654	1.187	correct	test	Phase2	test/STIM_015.jpg
1294.715	1.326	correct	test	Phase2	test/STIM_015.jpg
1299.123	0.882	correct	test	Phase2	test/STIM_016.jpg
1302.942	0.748	incorrect	test	Phase2	test/STIM_016.jpg
1307.371	0.938	correct	test	Phase2	test/STIM_016.jpg
1311.1	1.097	correct	test	Phase2	test/STIM_017.jpg
1314.295	0.82	correct	test	Phase2	test/STIM_017.jpg
1317.189	1.301	correct	test	Phase2	test/STIM_017.jpg
1321.928	1.081	correct	test	Phase2	test/STIM_018.jpg
1325.128	0.866	correct	test	Phase2	test/STIM_018.jpg
1328.347	1.34	correct	test	Phase2	test/STIM_018.jpg
1332.475	1.325	correct	test	Phase2	test/STIM_019.jpg
1335.667	0.841	correct	test	Phase2	test/STIM_019.jpg
1339.609	1.105	correct	test	Phase2	test/STIM_019.jpg
1344.556	1.203	incorrect	test	Phase2	test/STIM_020.jpg
1349.064	1.408	correct	test	Phase2	test/STIM_020.jpg
1352.527	1.352	incorrect	test	Phase2	test/STIM_020.jpg
1357.502	1.326	correct	test	Phase2	test/STIM_021.jpg
1361.587	0.984	correct	test	Phase2	test/STIM_021.jpg
1366.158	0.961	correct	test	Phase2	test/STIM_021.jpg
1369.892	1.171	correct	test	Phase2	test/STIM_022.jpg
1374.526	1.147	correct	test	Phase2	test/STIM_022.jpg
1378.064	1.007	correct	test	Phase2	test/STIM_022.jpg
1381.227	1.304	correct	test	Phase2	test/STIM_023.jpg
1384.719	0.931	correct	test	Phase2	test/STIM_023.jpg
1389.211	0.875	correct	test	Phase2	test/STIM_023.jpg
1392.608	1.378	correct	test	Phase2	test/STIM_024.jpg
1397.477	1.095	correct	test	Phase2	test/STIM_024.jpg
1401.273	0.962	correct	test	Phase2	test/STIM_024.jpg
1404.988	1.146	correct	test	Phase2	test/STIM_025.jpg
1408.048	0.733	correct	test	Phase2	test/STIM_025.jpg
1411.119	0.719	correct	test	Phase2	test/STIM_025.jpg
1415.038	1.184	correct	test	Phase2	test/STIM_026.jpg
1418.209	1.326	correct	test	Phase2	test/STIM_026.jpg
1422.172	1.381	correct	test	Phase2	test/STIM_026.jpg
1426.405	1.336	correct	test	Phase2	test/STIM_027.jpg
1431.522	0.825	correct	test	Phase2	test/STIM_027.jpg
1435.942	0.852	correct	test	Phase2	test/STIM_027.jpg
1440.149	0.99	incorrect	test	Phase2	test/STIM_028.jpg
1444.894	1.218	correct	test	Phase2	test/STIM_028.jpg
1449.734	1.094	correct	test	Phase2	test/STIM_028.jpg
1453.781	1.236	correct	test	Phase2	test/STIM_029.jpg
1458.355	0.9	correct	test	Phase2	test/STIM_029.jpg
1461.795	1.322	correct	test	Phase2	test/STIM_029.jpg
1466.664	1.276	correct	study	Phase3	study/STIM_000.jpg
1469.987	1.073	correct	study	Phase3	study/STIM_000.jpg
1474.788	0.655	correct	study	Phase3	study/STIM_000.jpg
1477.637	0.797	correct	study	Phase3	study/STIM_001.jpg
1482.277	0.903	correct	study	Phase3	study/STIM_001.jpg
1486.179	1.185	correct	study	Phase3	study/STIM_001.jpg
1490.507	1.166	correct	study	Phase3	study/STIM_002.jpg
1494.272	1.306	correct	study	Phase3	study/STIM_002.jpg
1497.512	0.791	correct	study	Phase3	study/STIM_002.jpg
1501.933	1.229	correct	study	Phase3	study/STIM_003.jpg
1505.505	1.028	correct	study	Phase3	study/STIM_003.jpg
1509.502	1.22	correct	study	Phase3	study/STIM_003.jpg
1513.096	1.238	correct	study	Phase3	study/STIM_004.jpg
1518.078	1.155	correct	study	Phase3	study/STIM_004.jpg
1521.512	1.153	correct	study	Phase3	study/STIM_004.jpg
1525.633	1.187	correct	study	Phase3	study/STIM_005.jpg
1529.624	1.086	correct	study	Phase3	study/STIM_005.jpg
1534.226	0.685	correct	study	Phase3	study/STIM_005.jpg
1538.878	0.588	correct	study	Phase3	study/STIM_006.jpg
1542.057	0.722	incorrect	study	Phase3	study/STIM_006.jpg
1544.981	1.106	incorrect	study	Phase3	study/STIM_006.jpg
1548.23	0.619	correct	study	Phase3	study/STIM_007.jpg
1551.769	0.833	correct	study	Phase3	study/STIM_007.jpg
1555.922	0.992	correct	study	Phase3	study/STIM_007.jpg
1560.506	1.207	correct	study	Phase3	study/STIM_008.jpg
1565.364	0.664	correct	study	Phase3	study/STIM_008.jpg
1569.86	0.651	correct	study	Phase3	study/STIM_008.jpg
1572.435	1.34	correct	study	Phase3	study/STIM_009.jpg
1576.331	1.182	correct	study	Phase3	study/STIM_009.jpg
1579.796	1.178	correct	study	Phase3	study/STIM_009.jpg
1584.199	1.02	correct	study	Phase3	study/STIM_010.jpg
1588.986	1.018	correct	study	Phase3	study/STIM_010.jpg
1592.858	0.666	correct	study	Phase3	study/STIM_010.jpg
1595.828	1.236	correct	study	Phase3	study/STIM_011.jpg
1600.198	0.979	correct	study	Phase3	study/STIM_011.jpg
1604.663	1.236	correct	study	Phase3	study/STIM_011.jpg
1608.056	1.254	correct	study	Phase3	study/STIM_012.jpg
1612.549	1.088	correct	study	Phase3	study/STIM_012.jpg
1616.783	1.171	correct	study	Phase3	study/STIM_012.jpg
1620.808	0.702	correct	study	Phase3	study/STIM_013.jpg
1624.866	1.302	correct	study	Phase3	study/STIM_013.jpg
1628.731	1.11	correct	study	Phase3	study/STIM_013.jpg
1632.656	0.753	correct	study	Phase3	study/STIM_014.jpg
1636.252	1.079	correct	study	Phase3	study/STIM_014.jpg
1640.125	1.282	correct	study	Phase3	study/STIM_014.jpg
1644.885	1.088	correct	study	Phase3	study/STIM_015.jpg
1649.772	1.162	correct	study	Phase3	study/STIM_015.jpg
1654.159	0.927	correct	study	Phase3	study/STIM_015.jpg
1658.546	0.988	correct	study	Phase3	study/STIM_016.jpg
1661.743	0.679	correct	study	Phase3	study/STIM_016.jpg
1665.971	1.206	correct	study	Phase3	study/STIM_016.jpg
1670.194	1.248	correct	study	Phase3	study/STIM_017.jpg
1674.345	0.642	correct	study	Phase3	study/STIM_017.jpg
1677.098	1.208	correct	study	Phase3	study/STIM_017.jpg
1680.431	0.776	incorrect	study	Phase3	study/STIM_018.jpg
1684.468	0.927	correct	study	Phase3	study/STIM_018.jpg
1688.807	0.643	incorrect	study	Phase3	study/STIM_018.jpg
1692.488	1.022	correct	study	Phase3	study/STIM_019.jpg
1697.134	1.222	correct	study	Phase3	study/STIM_019.jpg
1702.351	0.903	correct	study	Phase3	study/STIM_019.jpg
1705.718	1.02	correct	study	Phase3	study/STIM_020.jpg
1709.334	0.591	correct	study	Phase3	study/STIM_020.jpg
1713.101	0.959	correct	study	Phase3	study/STIM_020.jpg
1717.744	0.945	incorrect	study	Phase3	study/STIM_021.jpg
1721.334	1.151	correct	study	Phase3	study/STIM_021.jpg
1726.242	0.754	correct	study	Phase3	study/STIM_021.jpg
1730.741	1.211	correct	study	Phase3	study/STIM_022.jpg
1735.842	0.646	correct	study	Phase3	study/STIM_022.jpg
1740.427	1.209	correct	study	Phase3	study/STIM_022.jpg
1744.479	0.873	correct	study	Phase3	study/STIM_023.jpg
1748.258	0.656	correct	study	Phase3	study/STIM_023.jpg
1751.316	0.945	correct	study	Phase3	study/STIM_023.jpg
1755.745	1.209	correct	study	Phase3	study/STIM_024.jpg
1759.919	0.85	incorrect	study	Phase3	study/STIM_024.jpg
1763.652	1.148	correct	study	Phase3	study/STIM_024.jpg
1768.01	0.882	correct	study	Phase3	study/STIM_025.jpg
1772.599	1.114	correct	study	Phase3	study/STIM_025.jpg
1776.313	0.913	correct	study	Phase3	study/STIM_025.jpg
1779.737	1.285	correct	study	Phase3	study/STIM_026.jpg
1783.085	1.201	correct	study	Phase3	study/STIM_026.jpg
1787.211	0.988	correct	study	Phase3	study/STIM_026.jpg
1791.53	1.098	correct	study	Phase3	study/STIM_027.jpg
1795.314	1.066	correct	study	Phase3	study/STIM_027.jpg
1800.122	0.648	correct	study	Phase3	study/STIM_027.jpg
1804.394	1.129	correct	study	Phase3	study/STIM_028.jpg
1808.62	0.68	correct	study	Phase3	study/STIM_028.jpg
1812.943	0.708	correct	study	Phase3	study/STIM_028.jpg
1817.217	1.269	correct	study	Phase3	study/STIM_029.jpg
1822.268	1.322	correct	study	Phase3	study/STIM_029.jpg
1825.494	1.014	correct	study	Phase3	study/STIM_029.jpg
1828.907	0.673	correct	test	Phase3	test/STIM_000.jpg
1832.298	0.931	correct	test	Phase3	test/STIM_000.jpg
1836.853	1.465	correct	test	Phase3	test/STIM_000.jpg
1840.6	0.729	correct	test	Phase3	test/STIM_001.jpg
1844.203	1.381	correct	test	Phase3	test/STIM_001.jpg
1848.983	0.778	correct	test	Phase3	test/STIM_001.jpg
1853.472	1.148	incorrect	test	Phase3	test/STIM_002.jpg
1857.508	1.414	correct	test	Phase3	test/STIM_002.jpg
1861.392	1.264	correct	test	Phase3	test/STIM_002.jpg
1865.21	0.57	correct	test	Phase3	test/STIM_003.jpg
1867.841	1.33	correct	test	Phase3	test/STIM_003.jpg
1872.926	0.67	correct	test	Phase3	test/STIM_003.jpg
1876.079	0.893	correct	test	Phase3	test/STIM_004.jpg
1879.789	0.904	incorrect	test	Phase3	test/STIM_004.jpg
1883.579	1.367	correct	test	Phase3	test/STIM_004.jpg
1887.884	1.123	correct	test	Phase3	test/STIM_005.jpg
1891.828	1.264	correct	test	Phase3	test/STIM_005.jpg
1897.007	0.957	correct	test	Phase3	test/STIM_005.jpg
1900.299	1.208	correct	test	Phase3	test/STIM_006.jpg
1905.134	0.593	correct	test	Phase3	test/STIM_006.jpg
1908.108	1.206	correct	test	Phase3	test/STIM_006.jpg
1913.063	0.933	correct	test	Phase3	test/STIM_007.jpg
1916.07	1.339	correct	test	Phase3	test/STIM_007.jpg
1919.646	0.847	correct	test	Phase3	test/STIM_007.jpg
1922.654	1.05	correct	test	Phase3	test/STIM_008.jpg
1925.893	0.612	correct	test	Phase3	test/STIM_008.jpg
1929.647	0.972	correct	test	Phase3	test/STIM_008.jpg
1933.119	1.007	correct	test	Phase3	test/STIM_009.jpg
1936.997	0.77	correct	test	Phase3	test/STIM_009.jpg
1939.681	0.896	correct	test	Phase3	test/STIM_009.jpg
1944.247	0.716	correct	test	Phase3	test/STIM_010.jpg
1947.227	0.714	correct	test	Phase3	test/STIM_010.jpg
1950.252	0.7	correct	test	Phase3	test/STIM_010.jpg
1953.197	1.376	correct	test	Phase3	test/STIM_011.jpg
1956.976	1.262	correct	test	Phase3	test/STIM_011.jpg
1961.039	0.834	correct	test	Phase3	test/STIM_011.jpg
1963.951	1.097	incorrect	test	Phase3	test/STIM_012.jpg
1967.326	0.892	correct	test	Phase3	test/STIM_012.jpg
1970.206	1.057	correct	test	Phase3	test/STIM_012.jpg
1973.381	1.066	incorrect	test	Phase3	test/STIM_013.jpg
1977.503	0.943	correct	test	Phase3	test/STIM_013.jpg
1981.413	0.975	correct	test	Phase3	test/STIM_013.jpg
1985.655	1.246	correct	test	Phase3	test/STIM_014.jpg
1990.668	1.431	correct	test	Phase3	test/STIM_014.jpg
1995.13	0.704	incorrect	test	Phase3	test/STIM_014.jpg
1998.107	1.296	correct	test	Phase3	test/STIM_015.jpg
2002.249	1.287	correct	test	Phase3	test/STIM_015.jpg
2006.241	0.994	correct	test	Phase3	test/STIM_015.jpg
2010.535	1.188	correct	test	Phase3	test/STIM_016.jpg
2014.048	1.236	correct	test	Phase3	test/STIM_016.jpg
2018.649	1.173	correct	test	Phase3	test/STIM_016.jpg
2022.612	1.157	correct	test	Phase3	test/STIM_017.jpg
2027.371	1.264	correct	test	Phase3	test/STIM_017.jpg
2031.146	1.049	correct	test	Phase3	test/STIM_017.jpg
2034.41	1.244	correct	test	Phase3	test/STIM_018.jpg
2037.871	0.918	correct	test	Phase3	test/STIM_018.jpg
2041.045	0.6	correct	test	Phase3	test/STIM_018.jpg
2044.042	1.158	incorrect	test	Phase3	test/STIM_019.jpg
2048.704	1.114	correct	test	Phase3	test/STIM_019.jpg
2052.642	0.726	correct	test	Phase3	test/STIM_019.jpg
2056.434	1.214	correct	test	Phase3	test/STIM_020.jpg
2060.837	1.408	correct	test	Phase3	test/STIM_020.jpg
2065.626	0.983	correct	test	Phase3	test/STIM_020.jpg
2069.484	1.217	correct	test	Phase3	test/STIM_021.jpg
2073.063	0.964	correct	test	Phase3	test/STIM_021.jpg
2076.001	0.879	correct	test	Phase3	test/STIM_021.jpg
2079.633	0.798	incorrect	test	Phase3	test/STIM_022.jpg
2083.444	1.239	correct	test	Phase3	test/STIM_022.jpg
2086.983	1.476	correct	test	Phase3	test/STIM_022.jpg
2092.123	1.342	correct	test	Phase3	test/STIM_023.jpg
2097.127	1.444	correct	test	Phase3	test/STIM_023.jpg
2101.141	1.157	correct	test	Phase3	test/STIM_023.jpg
2105.249	0.716	correct	test	Phase3	test/STIM_024.jpg
2108.203	1.311	correct	test	Phase3	test/STIM_024.jpg
2112.181	1.421	incorrect	test	Phase3	test/STIM_024.jpg
2116.858	1.093	correct	test	Phase3	test/STIM_025.jpg
2120.651	1.114	correct	test	Phase3	test/STIM_025.jpg
2125.681	1.431	incorrect	test	Phase3	test/STIM_025.jpg
2128.96	0.821	incorrect	test	Phase3	test/STIM_026.jpg
2131.873	1.04	correct	test	Phase3	test/STIM_026.jpg
2136.809	1.382	correct	test	Phase3	test/STIM_026.jpg
2140.413	0.723	incorrect	test	Phase3	test/STIM_027.jpg
2144.683	0.733	correct	test	Phase3	test/STIM_027.jpg
2148.521	1.203	correct	test	Phase3	test/STIM_027.jpg
2152.219	1.376	correct	test	Phase3	test/STIM_028.jpg
2156.232	0.86	correct	test	Phase3	test/STIM_028.jpg
2160.209	1.123	correct	test	Phase3	test/STIM_028.jpg
2163.292	0.763	correct	test	Phase3	test/STIM_029.jpg
2167.428	1.195	correct	test	Phase3	test/STIM_029.jpg
2170.585	0.771	correct	test	Phase3	test/STIM_029.jpg
