onset	duration	response_time_ms	trial_type	learning_stage	stimulus	response_port
0.0	1.121	1121.0	study	Phase1	study/STIM_000.jpg	99
4.611	1.822	1822.2	study	Phase1	study/STIM_000.jpg	100
9.973	1.123	1123.4	study	Phase1	study/STIM_000.jpg	100
13.079	1.198	1198.4	study	Phase1	study/STIM_001.jpg	99
17.174	1.592	1591.9	study	Phase1	study/STIM_001.jpg	99
21.985	0.97	970.3	study	Phase1	study/STIM_001.jpg	100
26.053	1.754	1754.1	study	Phase1	study/STIM_002.jpg	99
30.212	1.257	1256.7	study	Phase1	study/STIM_002.jpg	99
34.313	1.333	1333.2	study	Phase1	study/STIM_002.jpg	100
38.567	1.665	1665.1	study	Phase1	study/STIM_003.jpg	100
42.99	1.606	1605.6	study	Phase1	study/STIM_003.jpg	100
47.39	1.022	1021.8	study	Phase1	study/STIM_003.jpg	99
50.982	1.262	1261.5	study	Phase1	study/STIM_004.jpg	99
54.715	1.441	1441.1	study	Phase1	study/STIM_004.jpg	100
59.214	1.617	1617.4	study	Phase1	study/STIM_004.jpg	100
64.426	1.436	1436.4	study	Phase1	study/STIM_005.jpg	99
68.28	1.161	1161.4	study	Phase1	study/STIM_005.jpg	100
72.13	0.912	911.5	study	Phase1	study/STIM_005.jpg	99
75.276	1.333	1333.1	study	Phase1	study/STIM_006.jpg	99
79.303	1.033	1032.8	study	Phase1	study/STIM_006.jpg	99
82.369	1.256	1255.9	study	Phase1	study/STIM_006.jpg	100
86.017	1.382	1381.6	study	Phase1	study/STIM_007.jpg	99
90.192	1.208	1207.7	study	Phase1	study/STIM_007.jpg	100
95.014	0.867	867.3	study	Phase1	study/STIM_007.jpg	99
97.926	1.94	1940.2	study	Phase1	study/STIM_008.jpg	100
102.89	0.976	975.6	study	Phase1	study/STIM_008.jpg	99
105.902	1.345	1345.0	study	Phase1	study/STIM_008.jpg	100
109.794	1.291	1291.0	study	Phase1	study/STIM_009.jpg	100
114.176	1.27	1269.8	study	Phase1	study/STIM_009.jpg	100
118.296	1.178	1177.8	study	Phase1	study/STIM_009.jpg	100
122.483	1.24	1240.1	study	Phase1	study/STIM_010.jpg	99
126.641	1.086	1086.2	study	Phase1	study/STIM_010.jpg	99
130.168	0.98	980.0	study	Phase1	study/STIM_010.jpg	100
134.367	1.284	1284.2	study	Phase1	study/STIM_011.jpg	99
139.514	1.317	1317.3	study	Phase1	study/STIM_011.jpg	99
144.718	1.139	1138.7	study	Phase1	study/STIM_011.jpg	99
148.255	1.601	1601.0	study	Phase1	study/STIM_012.jpg	99
153.325	1.571	1571.2	study	Phase1	study/STIM_012.jpg	100
158.282	1.635	1634.6	study	Phase1	study/STIM_012.jpg	100
162.471	1.916	1916.5	study	Phase1	study/STIM_013.jpg	100
168.097	1.413	1413.0	study	Phase1	study/STIM_013.jpg	100
173.16	1.269	1268.8	study	Phase1	study/STIM_013.jpg	100
177.064	0.996	995.6	study	Phase1	study/STIM_014.jpg	99
181.943	1.437	1436.7	study	Phase1	study/STIM_014.jpg	99
186.36	1.127	1126.8	study	Phase1	study/STIM_014.jpg	99
190.656	1.54	1540.0	study	Phase1	study/STIM_015.jpg	99
195.116	1.282	1282.5	study	Phase1	study/STIM_015.jpg	100
200.094	1.422	1422.2	study	Phase1	study/STIM_015.jpg	100
204.54	1.841	1840.7	study	Phase1	study/STIM_016.jpg	100
209.39	1.46	1460.1	study	Phase1	study/STIM_016.jpg	100
213.496	1.254	1253.9	study	Phase1	study/STIM_016.jpg	100
217.306	0.844	843.7	study	Phase1	study/STIM_017.jpg	100
221.621	1.7	1699.9	study	Phase1	study/STIM_017.jpg	100
226.511	0.904	903.5	study	Phase1	study/STIM_017.jpg	99
231.214	1.874	1874.3	study	Phase1	study/STIM_018.jpg	100
235.733	0.942	941.9	study	Phase1	study/STIM_018.jpg	99
239.83	1.731	1731.3	study	Phase1	study/STIM_018.jpg	99
244.599	1.768	1767.7	study	Phase1	study/STIM_019.jpg	100
248.122	0.886	886.5	study	Phase1	study/STIM_019.jpg	100
251.782	1.21	1210.3	study	Phase1	study/STIM_019.jpg	99
256.83	1.768	1767.8	study	Phase1	study/STIM_020.jpg	100
260.679	0.875	874.8	study	Phase1	study/STIM_020.jpg	99
263.564	1.281	1280.9	study	Phase1	study/STIM_020.jpg	99
266.755	1.659	1659.2	study	Phase1	study/STIM_021.jpg	99
271.635	1.723	1722.8	study	Phase1	study/STIM_021.jpg	100
277.024	0.977	977.0	study	Phase1	study/STIM_021.jpg	99
281.474	1.15	1150.3	study	Phase1	study/STIM_022.jpg	100
285.24	1.07	1070.4	study	Phase1	study/STIM_022.jpg	100
289.728	1.747	1747.3	study	Phase1	study/STIM_022.jpg	99
295.075	0.86	860.1	study	Phase1	study/STIM_023.jpg	100
298.053	1.148	1147.6	study	Phase1	study/STIM_023.jpg	99
303.114	1.521	1520.6	study	Phase1	study/STIM_023.jpg	99
306.524	0.996	995.5	study	Phase1	study/STIM_024.jpg	99
311.214	1.335	1334.8	study	Phase1	study/STIM_024.jpg	99
315.844	0.743	743.1	study	Phase1	study/STIM_024.jpg	99
319.334	1.003	1003.3	study	Phase1	study/STIM_025.jpg	99
322.585	1.91	1909.6	study	Phase1	study/STIM_025.jpg	99
326.55	1.484	1483.5	study	Phase1	study/STIM_025.jpg	100
331.499	1.086	1085.8	study	Phase1	study/STIM_026.jpg	99
335.375	1.263	1263.3	study	Phase1	study/STIM_026.jpg	100
340.456	0.812	812.2	study	Phase1	study/STIM_026.jpg	99
343.708	1.862	1862.0	study	Phase1	study/STIM_027.jpg	99
348.827	0.969	968.9	study	Phase1	study/STIM_027.jpg	99
352.293	1.553	1553.1	study	Phase1	study/STIM_027.jpg	99
357.657	1.461	1461.4	study	Phase1	study/STIM_028.jpg	99
362.385	1.553	1552.9	study	Phase1	study/STIM_028.jpg	100
367.037	1.833	1833.2	study	Phase1	study/STIM_028.jpg	100
371.164	1.263	1263.0	study	Phase1	study/STIM_029.jpg	99
374.565	1.624	1624.5	study	Phase1	study/STIM_029.jpg	100
379.296	0.891	891.1	study	Phase1	study/STIM_029.jpg	99
382.599	1.144	1143.8	test	Phase1	test/STIM_000.jpg	99
386.241	1.315	1314.8	test	Phase1	test/STIM_000.jpg	99
390.579	0.706	705.6	test	Phase1	test/STIM_000.jpg	99
395.209	1.316	1316.5	test	Phase1	test/STIM_001.jpg	99
399.018	0.951	951.0	test	Phase1	test/STIM_001.jpg	99
402.63	1.243	1242.9	test	Phase1	test/STIM_001.jpg	100
406.351	1.241	1240.6	test	Phase1	test/STIM_002.jpg	99
410.607	1.063	1062.7	test	Phase1	test/STIM_002.jpg	99
415.409	1.155	1155.1	test	Phase1	test/STIM_002.jpg	99
419.322	1.358	1358.5	test	Phase1	test/STIM_003.jpg	100
424.448	1.21	1210.2	test	Phase1	test/STIM_003.jpg	100
429.319	1.025	1025.2	test	Phase1	test/STIM_003.jpg	100
433.898	1.334	1334.3	test	Phase1	test/STIM_004.jpg	99
438.558	1.037	1036.7	test	Phase1	test/STIM_004.jpg	99
442.8	1.422	1421.5	test	Phase1	test/STIM_004.jpg	100
447.862	1.062	1061.7	test	Phase1	test/STIM_005.jpg	100
451.864	1.098	1098.0	test	Phase1	test/STIM_005.jpg	99
455.949	1.157	1156.8	test	Phase1	test/STIM_005.jpg	100
459.779	0.767	766.8	test	Phase1	test/STIM_006.jpg	99
462.786	0.914	914.4	test	Phase1	test/STIM_006.jpg	99
467.248	1.142	1141.9	test	Phase1	test/STIM_006.jpg	100
472.078	1.243	1242.8	test	Phase1	test/STIM_007.jpg	100
476.462	0.824	824.0	test	Phase1	test/STIM_007.jpg	100
480.804	0.744	743.9	test	Phase1	test/STIM_007.jpg	100
483.842	0.692	691.5	test	Phase1	test/STIM_008.jpg	100
486.583	0.925	925.0	test	Phase1	test/STIM_008.jpg	100
490.248	1.058	1057.7	test	Phase1	test/STIM_008.jpg	100
494.312	1.235	1234.9	test	Phase1	test/STIM_009.jpg	100
497.544	1.215	1215.0	test	Phase1	test/STIM_009.jpg	99
501.019	0.705	705.0	test	Phase1	test/STIM_009.jpg	100
505.16	0.922	921.7	test	Phase1	test/STIM_010.jpg	100
508.708	0.797	797.0	test	Phase1	test/STIM_010.jpg	99
513.233	1.272	1272.0	test	Phase1	test/STIM_010.jpg	99
516.721	1.193	1192.7	test	Phase1	test/STIM_011.jpg	99
520.161	0.871	871.0	test	Phase1	test/STIM_011.jpg	100
523.67	1.099	1098.9	test	Phase1	test/STIM_011.jpg	100
526.634	0.633	633.2	test	Phase1	test/STIM_012.jpg	99
530.252	1.303	1303.2	test	Phase1	test/STIM_012.jpg	100
533.861	0.904	904.2	test	Phase1	test/STIM_012.jpg	99
536.757	1.099	1099.0	test	Phase1	test/STIM_013.jpg	99
541.585	0.755	755.0	test	Phase1	test/STIM_013.jpg	99
544.644	0.718	718.3	test	Phase1	test/STIM_013.jpg	99
548.463	1.191	1191.2	test	Phase1	test/STIM_014.jpg	99
553.38	1.072	1072.4	test	Phase1	test/STIM_014.jpg	100
557.487	1.374	1373.8	test	Phase1	test/STIM_014.jpg	99
562.518	1.124	1124.4	test	Phase1	test/STIM_015.jpg	99
566.982	0.932	932.3	test	Phase1	test/STIM_015.jpg	100
570.665	1.322	1321.6	test	Phase1	test/STIM_015.jpg	99
574.083	0.702	701.8	test	Phase1	test/STIM_016.jpg	100
576.824	1.389	1389.1	test	Phase1	test/STIM_016.jpg	100
581.999	0.848	848.3	test	Phase1	test/STIM_016.jpg	100
585.947	1.474	1474.3	test	Phase1	test/STIM_017.jpg	99
589.531	1.228	1228.3	test	Phase1	test/STIM_017.jpg	100
593.108	1.257	1257.3	test	Phase1	test/STIM_017.jpg	99
598.278	0.886	886.3	test	Phase1	test/STIM_018.jpg	100
601.911	1.059	1059.1	test	Phase1	test/STIM_018.jpg	99
606.15	0.957	956.7	test	Phase1	test/STIM_018.jpg	99
610.838	0.711	710.6	test	Phase1	test/STIM_019.jpg	100
614.29	0.752	751.8	test	Phase1	test/STIM_019.jpg	99
618.946	0.682	682.5	test	Phase1	test/STIM_019.jpg	99
621.995	0.85	849.5	test	Phase1	test/STIM_020.jpg	100
624.872	0.818	817.5	test	Phase1	test/STIM_020.jpg	100
628.747	1.321	1321.4	test	Phase1	test/STIM_020.jpg	100
632.538	1.325	1325.1	test	Phase1	test/STIM_021.jpg	100
637.594	0.74	739.9	test	Phase1	test/STIM_021.jpg	100
640.92	1.165	1165.4	test	Phase1	test/STIM_021.jpg	100
644.361	1.048	1048.5	test	Phase1	test/STIM_022.jpg	99
648.385	1.116	1116.4	test	Phase1	test/STIM_022.jpg	100
651.462	0.963	962.7	test	Phase1	test/STIM_022.jpg	100
654.992	1.144	1144.5	test	Phase1	test/STIM_023.jpg	100
659.12	0.724	723.7	test	Phase1	test/STIM_023.jpg	99
662.472	1.07	1070.5	test	Phase1	test/STIM_023.jpg	100
667.381	1.182	1181.6	test	Phase1	test/STIM_024.jpg	99
671.558	1.205	1205.3	test	Phase1	test/STIM_024.jpg	100
676.26	0.611	611.0	test	Phase1	test/STIM_024.jpg	100
680.254	1.033	1033.3	test	Phase1	test/STIM_025.jpg	100
684.928	1.291	1291.4	test	Phase1	test/STIM_025.jpg	100
689.533	0.702	702.3	test	Phase1	test/STIM_025.jpg	100
693.127	1.005	1005.4	test	Phase1	test/STIM_026.jpg	99
696.526	1.133	1132.8	test	Phase1	test/STIM_026.jpg	100
701.148	0.947	947.3	test	Phase1	test/STIM_026.jpg	100
705.78	0.705	705.4	test	Phase1	test/STIM_027.jpg	99
708.868	0.779	778.6	test	Phase1	test/STIM_027.jpg	100
711.726	1.137	1137.4	test	Phase1	test/STIM_027.jpg	99
715.173	1.344	1343.7	test	Phase1	test/STIM_028.jpg	99
718.517	0.846	846.3	test	Phase1	test/STIM_028.jpg	99
722.431	1.062	1062.0	test	Phase1	test/STIM_028.jpg	100
726.663	1.125	1125.4	test	Phase1	test/STIM_029.jpg	99
731.213	0.966	966.1	test	Phase1	test/STIM_029.jpg	99
735.236	1.351	1351.2	test	Phase1	test/STIM_029.jpg	99
738.564	1.312	1312.4	study	Phase2	study/STIM_000.jpg	100
742.443	1.244	1243.8	study	Phase2	study/STIM_000.jpg	99
746.07	0.728	727.5	study	Phase2	study/STIM_000.jpg	99
749.861	1.522	1522.1	study	Phase2	study/STIM_001.jpg	100
753.406	0.725	724.8	study	Phase2	study/STIM_001.jpg	99
757.011	0.903	903.1	study	Phase2	study/STIM_001.jpg	100
761.089	1.436	1436.3	study	Phase2	study/STIM_002.jpg	99
764.351	1.363	1362.7	study	Phase2	study/STIM_002.jpg	99
769.175	1.315	1314.9	study	Phase2	study/STIM_002.jpg	100
772.476	1.005	1004.7	study	Phase2	study/STIM_003.jpg	99
776.484	1.252	1251.7	study	Phase2	study/STIM_003.jpg	99
781.049	1.312	1312.4	study	Phase2	study/STIM_003.jpg	100
785.977	0.952	952.1	study	Phase2	study/STIM_004.jpg	99
790.85	1.026	1026.5	study	Phase2	study/STIM_004.jpg	99
795.374	1.147	1146.9	study	Phase2	study/STIM_004.jpg	100
799.424	1.538	1538.0	study	Phase2	study/STIM_005.jpg	99
804.398	0.693	692.8	study	Phase2	study/STIM_005.jpg	100
808.685	0.912	911.5	study	Phase2	study/STIM_005.jpg	99
812.712	1.45	1449.6	study	Phase2	study/STIM_006.jpg	100
817.911	1.223	1222.9	study	Phase2	study/STIM_006.jpg	99
822.351	1.196	1195.7	study	Phase2	study/STIM_006.jpg	99
825.513	0.745	744.8	study	Phase2	study/STIM_007.jpg	99
828.395	0.997	997.2	study	Phase2	study/STIM_007.jpg	99
831.563	0.98	979.6	study	Phase2	study/STIM_007.jpg	100
836.107	0.985	985.3	study	Phase2	study/STIM_008.jpg	99
840.144	1.452	1452.3	study	Phase2	study/STIM_008.jpg	99
843.869	0.962	961.9	study	Phase2	study/STIM_008.jpg	99
846.966	1.133	1133.1	study	Phase2	study/STIM_009.jpg	100
851.735	1.554	1553.9	study	Phase2	study/STIM_009.jpg	99
857.019	1.166	1165.7	study	Phase2	study/STIM_009.jpg	100
860.901	1.644	1644.4	study	Phase2	study/STIM_010.jpg	100
865.475	0.899	899.2	study	Phase2	study/STIM_010.jpg	100
869.721	1.36	1359.9	study	Phase2	study/STIM_010.jpg	99
874.483	0.798	798.0	study	Phase2	study/STIM_011.jpg	99
877.882	0.843	842.7	study	Phase2	study/STIM_011.jpg	99
881.344	1.122	1122.2	study	Phase2	study/STIM_011.jpg	99
885.835	1.464	1464.0	study	Phase2	study/STIM_012.jpg	100
890.152	1.126	1126.0	study	Phase2	study/STIM_012.jpg	99
894.382	1.419	1419.1	study	Phase2	study/STIM_012.jpg	100
898.862	1.126	1126.5	study	Phase2	study/STIM_013.jpg	100
902.205	0.87	870.2	study	Phase2	study/STIM_013.jpg	99
906.381	1.114	1113.7	study	Phase2	study/STIM_013.jpg	99
910.887	1.049	1049.3	study	Phase2	study/STIM_014.jpg	99
915.031	0.886	886.2	study	Phase2	study/STIM_014.jpg	100
918.327	0.846	845.8	study	Phase2	study/STIM_014.jpg	100
922.722	0.781	781.0	study	Phase2	study/STIM_015.jpg	100
926.399	1.071	1070.8	study	Phase2	study/STIM_015.jpg	100
929.692	1.132	1131.8	study	Phase2	study/STIM_015.jpg	100
933.737	1.651	1650.8	study	Phase2	study/STIM_016.jpg	100
938.426	1.09	1090.1	study	Phase2	study/STIM_016.jpg	99
941.956	1.226	1225.8	study	Phase2	study/STIM_016.jpg	99
946.22	1.007	1006.6	study	Phase2	study/STIM_017.jpg	99
950.287	0.984	983.9	study	Phase2	study/STIM_017.jpg	99
954.243	1.062	1062.0	study	Phase2	study/STIM_017.jpg	99
958.089	0.928	928.3	study	Phase2	study/STIM_018.jpg	100
962.528	0.882	881.8	study	Phase2	study/STIM_018.jpg	99
967.07	1.114	1113.7	study	Phase2	study/STIM_018.jpg	100
971.701	1.439	1439.4	study	Phase2	study/STIM_019.jpg	99
975.961	1.337	1336.6	study	Phase2	study/STIM_019.jpg	99
980.428	1.027	1027.2	study	Phase2	study/STIM_019.jpg	99
984.053	0.803	802.6	study	Phase2	study/STIM_020.jpg	100
988.31	1.456	1456.5	study	Phase2	study/STIM_020.jpg	99
992.769	1.368	1367.7	study	Phase2	study/STIM_020.jpg	100
997.934	1.441	1440.6	study	Phase2	study/STIM_021.jpg	99
1001.604	1.273	1273.3	study	Phase2	study/STIM_021.jpg	100
1006.171	1.002	1002.4	study	Phase2	study/STIM_021.jpg	100
1010.566	0.951	950.6	study	Phase2	study/STIM_022.jpg	99
1013.842	1.009	1008.7	study	Phase2	study/STIM_022.jpg	100
1017.543	0.716	716.0	study	Phase2	study/STIM_022.jpg	100
1020.387	0.929	928.8	study	Phase2	study/STIM_023.jpg	99
1023.916	0.865	865.3	study	Phase2	study/STIM_023.jpg	99
1028.69	1.168	1168.0	study	Phase2	study/STIM_023.jpg	99
1032.811	1.617	1617.4	study	Phase2	study/STIM_024.jpg	100
1038.101	1.231	1231.1	study	Phase2	study/STIM_024.jpg	100
1041.777	1.191	1191.2	study	Phase2	study/STIM_024.jpg	99
1045.319	1.522	1522.0	study	Phase2	study/STIM_025.jpg	99
1049.488	0.8	800.3	study	Phase2	study/STIM_025.jpg	99
1052.927	1.048	1047.6	study	Phase2	study/STIM_025.jpg	99
1057.63	0.99	989.8	study	Phase2	study/STIM_026.jpg	99
1060.934	0.874	874.4	study	Phase2	study/STIM_026.jpg	100
1065.253	0.934	933.7	study	Phase2	study/STIM_026.jpg	100
1068.973	1.364	1364.4	study	Phase2	study/STIM_027.jpg	100
1073.95	0.805	805.3	study	Phase2	study/STIM_027.jpg	100
1076.792	0.857	857.3	study	Phase2	study/STIM_027.jpg	99
1081.144	0.927	927.0	study	Phase2	study/STIM_028.jpg	99
1085.615	1.508	1508.2	study	Phase2	study/STIM_028.jpg	100
1090.477	0.944	943.6	study	Phase2	study/STIM_028.jpg	99
1093.495	1.166	1165.8	study	Phase2	study/STIM_029.jpg	100
1098.332	1.341	1341.3	study	Phase2	study/STIM_029.jpg	99
1103.347	0.979	978.7	study	Phase2	study/STIM_029.jpg	100
1106.596	0.748	748.0	test	Phase2	test/STIM_000.jpg	100
1111.035	0.864	864.4	test	Phase2	test/STIM_000.jpg	99
1115.714	1.164	1164.2	test	Phase2	test/STIM_000.jpg	99
1119.946	0.944	944.5	test	Phase2	test/STIM_001.jpg	99
1124.065	1.27	1269.5	test	Phase2	test/STIM_001.jpg	99
1128.393	1.154	1154.2	test	Phase2	test/STIM_001.jpg	100
1131.592	1.118	1117.6	test	Phase2	test/STIM_002.jpg	99
1135.065	1.314	1313.5	test	Phase2	test/STIM_002.jpg	99
1139.262	1.079	1078.6	test	Phase2	test/STIM_002.jpg	100
1144.143	1.368	1367.6	test	Phase2	test/STIM_003.jpg	100
1147.971	1.284	1284.3	test	Phase2	test/STIM_003.jpg	100
1151.321	0.881	880.9	test	Phase2	test/STIM_003.jpg	100
1154.995	0.676	675.9	test	Phase2	test/STIM_004.jpg	100
1159.519	1.193	1193.2	test	Phase2	test/STIM_004.jpg	99
1162.782	1.28	1279.6	test	Phase2	test/STIM_004.jpg	99
1167.769	0.958	958.4	test	Phase2	test/STIM_005.jpg	100
1172.48	1.083	1082.9	test	Phase2	test/STIM_005.jpg	100
1176.06	0.912	911.7	test	Phase2	test/STIM_005.jpg	99
1179.655	0.976	976.2	test	Phase2	test/STIM_006.jpg	100
1182.817	1.021	1020.8	test	Phase2	test/STIM_006.jpg	99
1185.856	1.205	1204.6	test	Phase2	test/STIM_006.jpg	99
1189.096	0.889	889.0	test	Phase2	test/STIM_007.jpg	99
1192.536	0.878	878.3	test	Phase2	test/STIM_007.jpg	99
1196.112	1.009	1009.4	test	Phase2	test/STIM_007.jpg	99
1201.048	0.991	991.3	test	Phase2	test/STIM_008.jpg	100
1205.661	1.116	1115.9	test	Phase2	test/STIM_008.jpg	99
1210.266	0.988	987.9	test	Phase2	test/STIM_008.jpg	99
1213.361	1.435	1434.9	test	Phase2	test/STIM_009.jpg	99
1218.003	1.087	1087.0	test	Phase2	test/STIM_009.jpg	99
1222.828	0.936	936.3	test	Phase2	test/STIM_009.jpg	100
1227.576	0.761	761.0	test	Phase2	test/STIM_010.jpg	100
1232.009	0.769	769.0	test	Phase2	test/STIM_010.jpg	100
1235.578	0.683	682.8	test	Phase2	test/STIM_010.jpg	100
1239.265	0.999	998.6	test	Phase2	test/STIM_011.jpg	100
1244.065	1.162	1161.6	test	Phase2	test/STIM_011.jpg	100
1248.474	0.825	825.0	test	Phase2	test/STIM_011.jpg	99
1251.717	1.281	1280.8	test	Phase2	test/STIM_012.jpg	99
1255.219	0.87	869.8	test	Phase2	test/STIM_012.jpg	100
1258.827	1.339	1339.0	test	Phase2	test/STIM_012.jpg	100
1262.365	1.001	1000.8	test	Phase2	test/STIM_013.jpg	100
1265.902	0.894	893.6	test	Phase2	test/STIM_013.jpg	100
1268.921	0.953	953.0	test	Phase2	test/STIM_013.jpg	99
1272.794	1.189	1189.0	test	Phase2	test/STIM_014.jpg	99
1277.891	1.227	1227.1	test	Phase2	test/STIM_014.jpg	100
1282.064	1.066	1066.2	test	Phase2	test/STIM_014.jpg	100
1285.308	1.137	1136.7	test	Phase2	test/STIM_015.jpg	100
1289.654	1.187	1186.8	test	Phase2	test/STIM_015.jpg	99
1294.715	1.326	1326.1	test	Phase2	test/STIM_015.jpg	99
1299.123	0.882	882.4	test	Phase2	test/STIM_016.jpg	100
1302.942	0.748	747.5	test	Phase2	test/STIM_016.jpg	99
1307.371	0.938	938.3	test	Phase2	test/STIM_016.jpg	99
1311.1	1.097	1097.3	test	Phase2	test/STIM_017.jpg	100
1314.295	0.82	819.6	test	Phase2	test/STIM_017.jpg	99
1317.189	1.301	1300.8	test	Phase2	test/STIM_017.jpg	100
1321.928	1.081	1081.1	test	Phase2	test/STIM_018.jpg	99
1325.128	0.866	866.3	test	Phase2	test/STIM_018.jpg	99
1328.347	1.34	1340.4	test	Phase2	test/STIM_018.jpg	99
1332.475	1.325	1324.8	test	Phase2	test/STIM_019.jpg	100
1335.667	0.841	841.1	test	Phase2	test/STIM_019.jpg	100
1339.609	1.105	1105.1	test	Phase2	test/STIM_019.jpg	100
1344.556	1.203	1202.6	test	Phase2	test/STIM_020.jpg	99
1349.064	1.408	1408.4	test	Phase2	test/STIM_020.jpg	100
1352.527	1.352	1352.2	test	Phase2	test/STIM_020.jpg	100
1357.502	1.326	1326.5	test	Phase2	test/STIM_021.jpg	99
1361.587	0.984	984.0	test	Phase2	test/STIM_021.jpg	99
1366.158	0.961	961.0	test	Phase2	test/STIM_021.jpg	99
1369.892	1.171	1171.1	test	Phase2	test/STIM_022.jpg	99
1374.526	1.147	1147.0	test	Phase2	test/STIM_022.jpg	100
1378.064	1.007	1006.6	test	Phase2	test/STIM_022.jpg	100
1381.227	1.304	1303.6	test	Phase2	test/STIM_023.jpg	100
1384.719	0.931	930.7	test	Phase2	test/STIM_023.jpg	99
1389.211	0.875	875.3	test	Phase2	test/STIM_023.jpg	99
1392.608	1.378	1378.2	test	Phase2	test/STIM_024.jpg	100
1397.477	1.095	1095.3	test	Phase2	test/STIM_024.jpg	100
1401.273	0.962	962.1	test	Phase2	test/STIM_024.jpg	99
1404.988	1.146	1145.7	test	Phase2	test/STIM_025.jpg	100
1408.048	0.733	733.3	test	Phase2	test/STIM_025.jpg	99
1411.119	0.719	719.1	test	Phase2	test/STIM_025.jpg	100
1415.038	1.184	1183.6	test	Phase2	test/STIM_026.jpg	100
1418.209	1.326	1326.5	test	Phase2	test/STIM_026.jpg	99
1422.172	1.381	1380.8	test	Phase2	test/STIM_026.jpg	100
1426.405	1.336	1336.3	test	Phase2	test/STIM_027.jpg	100
1431.522	0.825	825.3	test	Phase2	test/STIM_027.jpg	99
1435.942	0.852	852.0	test	Phase2	test/STIM_027.jpg	100
1440.149	0.99	989.8	test	Phase2	test/STIM_028.jpg	100
1444.894	1.218	1217.7	test	Phase2	test/STIM_028.jpg	100
1449.734	1.094	1094.1	test	Phase2	test/STIM_028.jpg	100
1453.781	1.236	1236.1	test	Phase2	test/STIM_029.jpg	100
1458.355	0.9	900.2	test	Phase2	test/STIM_029.jpg	99
1461.795	1.322	1321.5	test	Phase2	test/STIM_029.jpg	99
1466.664	1.276	1275.6	study	Phase3	study/STIM_000.jpg	99
1469.987	1.073	1072.6	study	Phase3	study/STIM_000.jpg	100
1474.788	0.655	655.0	study	Phase3	study/STIM_000.jpg	99
1477.637	0.797	797.1	study	Phase3	study/STIM_001.jpg	99
1482.277	0.903	902.9	study	Phase3	study/STIM_001.jpg	99
1486.179	1.185	1185.3	study	Phase3	study/STIM_001.jpg	100
1490.507	1.166	1165.8	study	Phase3	study/STIM_002.jpg	99
1494.272	1.306	1305.8	study	Phase3	study/STIM_002.jpg	100
1497.512	0.791	791.0	study	Phase3	study/STIM_002.jpg	99
1501.933	1.229	1229.2	study	Phase3	study/STIM_003.jpg	99
1505.505	1.028	1027.7	study	Phase3	study/STIM_003.jpg	100
1509.502	1.22	1220.0	study	Phase3	study/STIM_003.jpg	100
1513.096	1.238	1238.1	study	Phase3	study/STIM_004.jpg	99
1518.078	1.155	1155.4	study	Phase3	study/STIM_004.jpg	100
1521.512	1.153	1153.1	study	Phase3	study/STIM_004.jpg	99
1525.633	1.187	1187.3	study	Phase3	study/STIM_005.jpg	100
1529.624	1.086	1085.8	study	Phase3	study/STIM_005.jpg	99
1534.226	0.685	684.7	study	Phase3	study/STIM_005.jpg	100
1538.878	0.588	588.5	study	Phase3	study/STIM_006.jpg	99
1542.057	0.722	722.2	study	Phase3	study/STIM_006.jpg	100
1544.981	1.106	1105.8	study	Phase3	study/STIM_006.jpg	100
1548.23	0.619	619.4	study	Phase3	study/STIM_007.jpg	99
1551.769	0.833	832.8	study	Phase3	study/STIM_007.jpg	100
1555.922	0.992	991.8	study	Phase3	study/STIM_007.jpg	100
1560.506	1.207	1206.7	study	Phase3	study/STIM_008.jpg	100
1565.364	0.664	663.8	study	Phase3	study/STIM_008.jpg	100
1569.86	0.651	650.7	study	Phase3	study/STIM_008.jpg	100
1572.435	1.34	1339.5	study	Phase3	study/STIM_009.jpg	99
1576.331	1.182	1181.7	study	Phase3	study/STIM_009.jpg	100
1579.796	1.178	1178.3	study	Phase3	study/STIM_009.jpg	99
1584.199	1.02	1020.2	study	Phase3	study/STIM_010.jpg	99
1588.986	1.018	1017.8	study	Phase3	study/STIM_010.jpg	100
1592.858	0.666	666.4	study	Phase3	study/STIM_010.jpg	100
1595.828	1.236	1236.4	study	Phase3	study/STIM_011.jpg	100
1600.198	0.979	979.4	study	Phase3	study/STIM_011.jpg	99
1604.663	1.236	1236.3	study	Phase3	study/STIM_011.jpg	99
1608.056	1.254	1254.1	study	Phase3	study/STIM_012.jpg	99
1612.549	1.088	1087.6	study	Phase3	study/STIM_012.jpg	99
1616.783	1.171	1171.4	study	Phase3	study/STIM_012.jpg	100
1620.808	0.702	702.1	study	Phase3	study/STIM_013.jpg	99
1624.866	1.302	1301.8	study	Phase3	study/STIM_013.jpg	100
1628.731	1.11	1109.6	study	Phase3	study/STIM_013.jpg	100
1632.656	0.753	753.4	study	Phase3	study/STIM_014.jpg	100
1636.252	1.079	1078.6	study	Phase3	study/STIM_014.jpg	100
1640.125	1.282	1281.9	study	Phase3	study/STIM_014.jpg	100
1644.885	1.088	1088.0	study	Phase3	study/STIM_015.jpg	99
1649.772	1.162	1162.3	study	Phase3	study/STIM_015.jpg	100
1654.159	0.927	926.6	study	Phase3	study/STIM_015.jpg	99
1658.546	0.988	988.1	study	Phase3	study/STIM_016.jpg	100
1661.743	0.679	678.7	study	Phase3	study/STIM_016.jpg	100
1665.971	1.206	1206.2	study	Phase3	study/STIM_016.jpg	99
1670.194	1.248	1247.7	study	Phase3	study/STIM_017.jpg	100
1674.345	0.642	641.9	study	Phase3	study/STIM_017.jpg	99
1677.098	1.208	1207.8	study	Phase3	study/STIM_017.jpg	99
1680.431	0.776	776.5	study	Phase3	study/STIM_018.jpg	100
1684.468	0.927	927.0	study	Phase3	study/STIM_018.jpg	99
1688.807	0.643	642.8	study	Phase3	study/STIM_018.jpg	100
1692.488	1.022	1021.5	study	Phase3	study/STIM_019.jpg	100
1697.134	1.222	1222.2	study	Phase3	study/STIM_019.jpg	99
1702.351	0.903	902.8	study	Phase3	study/STIM_019.jpg	99
1705.718	1.02	1020.3	study	Phase3	study/STIM_020.jpg	99
1709.334	0.591	591.3	study	Phase3	study/STIM_020.jpg	99
1713.101	0.959	959.3	study	Phase3	study/STIM_020.jpg	99
1717.744	0.945	944.6	study	Phase3	study/STIM_021.jpg	100
1721.334	1.151	1151.0	study	Phase3	study/STIM_021.jpg	99
1726.242	0.754	753.8	study	Phase3	study/STIM_021.jpg	99
1730.741	1.211	1211.1	study	Phase3	study/STIM_022.jpg	99
1735.842	0.646	645.9	study	Phase3	study/STIM_022.jpg	99
1740.427	1.209	1208.6	study	Phase3	study/STIM_022.jpg	100
1744.479	0.873	872.6	study	Phase3	study/STIM_023.jpg	100
1748.258	0.656	656.2	study	Phase3	study/STIM_023.jpg	100
1751.316	0.945	944.7	study	Phase3	study/STIM_023.jpg	99
1755.745	1.209	1208.8	study	Phase3	study/STIM_024.jpg	99
1759.919	0.85	850.2	study	Phase3	study/STIM_024.jpg	99
1763.652	1.148	1147.7	study	Phase3	study/STIM_024.jpg	99
1768.01	0.882	881.7	study	Phase3	study/STIM_025.jpg	100
1772.599	1.114	1113.9	study	Phase3	study/STIM_025.jpg	99
1776.313	0.913	912.7	study	Phase3	study/STIM_025.jpg	99
1779.737	1.285	1285.2	study	Phase3	study/STIM_026.jpg	100
1783.085	1.201	1200.9	study	Phase3	study/STIM_026.jpg	100
1787.211	0.988	988.2	study	Phase3	study/STIM_026.jpg	99
1791.53	1.098	1097.6	study	Phase3	study/STIM_027.jpg	100
1795.314	1.066	1065.5	study	Phase3	study/STIM_027.jpg	100
1800.122	0.648	648.0	study	Phase3	study/STIM_027.jpg	100
1804.394	1.129	1129.1	study	Phase3	study/STIM_028.jpg	100
1808.62	0.68	679.8	study	Phase3	study/STIM_028.jpg	99
1812.943	0.708	708.2	study	Phase3	study/STIM_028.jpg	100
1817.217	1.269	1268.8	study	Phase3	study/STIM_029.jpg	100
1822.268	1.322	1322.2	study	Phase3	study/STIM_029.jpg	99
1825.494	1.014	1014.4	study	Phase3	study/STIM_029.jpg	99
1828.907	0.673	672.6	test	Phase3	test/STIM_000.jpg	100
1832.298	0.931	931.4	test	Phase3	test/STIM_000.jpg	100
1836.853	1.465	1465.2	test	Phase3	test/STIM_000.jpg	99
1840.6	0.729	728.8	test	Phase3	test/STIM_001.jpg	100
1844.203	1.381	1380.6	test	Phase3	test/STIM_001.jpg	99
1848.983	0.778	778.0	test	Phase3	test/STIM_001.jpg	100
1853.472	1.148	1148.5	test	Phase3	test/STIM_002.jpg	100
1857.508	1.414	1414.0	test	Phase3	test/STIM_002.jpg	99
1861.392	1.264	1263.7	test	Phase3	test/STIM_002.jpg	99
1865.21	0.57	570.3	test	Phase3	test/STIM_003.jpg	99
1867.841	1.33	1329.6	test	Phase3	test/STIM_003.jpg	99
1872.926	0.67	669.7	test	Phase3	test/STIM_003.jpg	99
1876.079	0.893	893.0	test	Phase3	test/STIM_004.jpg	100
1879.789	0.904	903.6	test	Phase3	test/STIM_004.jpg	100
1883.579	1.367	1366.8	test	Phase3	test/STIM_004.jpg	99
1887.884	1.123	1122.7	test	Phase3	test/STIM_005.jpg	100
1891.828	1.264	1264.0	test	Phase3	test/STIM_005.jpg	99
1897.007	0.957	957.3	test	Phase3	test/STIM_005.jpg	100
1900.299	1.208	1207.6	test	Phase3	test/STIM_006.jpg	100
1905.134	0.593	592.6	test	Phase3	test/STIM_006.jpg	100
1908.108	1.206	1205.6	test	Phase3	test/STIM_006.jpg	100
1913.063	0.933	932.9	test	Phase3	test/STIM_007.jpg	100
1916.07	1.339	1338.9	test	Phase3	test/STIM_007.jpg	99
1919.646	0.847	847.1	test	Phase3	test/STIM_007.jpg	99
1922.654	1.05	1049.8	test	Phase3	test/STIM_008.jpg	100
1925.893	0.612	611.8	test	Phase3	test/STIM_008.jpg	100
1929.647	0.972	972.4	test	Phase3	test/STIM_008.jpg	100
1933.119	1.007	1007.1	test	Phase3	test/STIM_009.jpg	99
1936.997	0.77	769.7	test	Phase3	test/STIM_009.jpg	100
1939.681	0.896	896.5	test	Phase3	test/STIM_009.jpg	99
1944.247	0.716	715.8	test	Phase3	test/STIM_010.jpg	99
1947.227	0.714	714.2	test	Phase3	test/STIM_010.jpg	99
1950.252	0.7	699.6	test	Phase3	test/STIM_010.jpg	99
1953.197	1.376	1375.8	test	Phase3	test/STIM_011.jpg	99
1956.976	1.262	1261.8	test	Phase3	test/STIM_011.jpg	99
1961.039	0.834	833.5	test	Phase3	test/STIM_011.jpg	100
1963.951	1.097	1097.0	test	Phase3	test/STIM_012.jpg	100
1967.326	0.892	892.3	test	Phase3	test/STIM_012.jpg	100
1970.206	1.057	1057.4	test	Phase3	test/STIM_012.jpg	99
1973.381	1.066	1065.8	test	Phase3	test/STIM_013.jpg	100
1977.503	0.943	942.8	test	Phase3	test/STIM_013.jpg	99
1981.413	0.975	974.7	test	Phase3	test/STIM_013.jpg	99
1985.655	1.246	1245.5	test	Phase3	test/STIM_014.jpg	99
1990.668	1.431	1431.2	test	Phase3	test/STIM_014.jpg	99
1995.13	0.704	703.8	test	Phase3	test/STIM_014.jpg	100
1998.107	1.296	1295.5	test	Phase3	test/STIM_015.jpg	100
2002.249	1.287	1286.8	test	Phase3	test/STIM_015.jpg	99
2006.241	0.994	993.8	test	Phase3	test/STIM_015.jpg	100
2010.535	1.188	1188.1	test	Phase3	test/STIM_016.jpg	99
2014.048	1.236	1236.5	test	Phase3	test/STIM_016.jpg	100
2018.649	1.173	1173.0	test	Phase3	test/STIM_016.jpg	100
2022.612	1.157	1156.6	test	Phase3	test/STIM_017.jpg	99
2027.371	1.264	1264.2	test	Phase3	test/STIM_017.jpg	99
2031.146	1.049	1049.2	test	Phase3	test/STIM_017.jpg	100
2034.41	1.244	1244.4	test	Phase3	test/STIM_018.jpg	99
2037.871	0.918	918.2	test	Phase3	test/STIM_018.jpg	100
2041.045	0.6	599.8	test	Phase3	test/STIM_018.jpg	99
2044.042	1.158	1157.6	test	Phase3	test/STIM_019.jpg	99
2048.704	1.114	1113.8	test	Phase3	test/STIM_019.jpg	100
2052.642	0.726	725.8	test	Phase3	test/STIM_019.jpg	100
2056.434	1.214	1213.6	test	Phase3	test/STIM_020.jpg	100
2060.837	1.408	1407.9	test	Phase3	test/STIM_020.jpg	99
2065.626	0.983	983.4	test	Phase3	test/STIM_020.jpg	100
2069.484	1.217	1217.3	test	Phase3	test/STIM_021.jpg	100
2073.063	0.964	964.0	test	Phase3	test/STIM_021.jpg	100
2076.001	0.879	879.4	test	Phase3	test/STIM_021.jpg	100
2079.633	0.798	797.8	test	Phase3	test/STIM_022.jpg	100
2083.444	1.239	1238.6	test	Phase3	test/STIM_022.jpg	100
2086.983	1.476	1476.0	test	Phase3	test/STIM_022.jpg	100
2092.123	1.342	1341.6	test	Phase3	test/STIM_023.jpg	100
2097.127	1.444	1444.0	test	Phase3	test/STIM_023.jpg	99
2101.141	1.157	1157.2	test	Phase3	test/STIM_023.jpg	99
2105.249	0.716	715.6	test	Phase3	test/STIM_024.jpg	100
2108.203	1.311	1311.4	test	Phase3	test/STIM_024.jpg	99
2112.181	1.421	1420.8	test	Phase3	test/STIM_024.jpg	100
2116.858	1.093	1092.6	test	Phase3	test/STIM_025.jpg	99
2120.651	1.114	1113.5	test	Phase3	test/STIM_025.jpg	100
2125.681	1.431	1431.3	test	Phase3	test/STIM_025.jpg	99
2128.96	0.821	820.7	test	Phase3	test/STIM_026.jpg	100
2131.873	1.04	1039.8	test	Phase3	test/STIM_026.jpg	100
2136.809	1.382	1381.8	test	Phase3	test/STIM_026.jpg	99
2140.413	0.723	722.6	test	Phase3	test/STIM_027.jpg	99
2144.683	0.733	733.2	test	Phase3	test/STIM_027.jpg	99
2148.521	1.203	1202.9	test	Phase3	test/STIM_027.jpg	99
2152.219	1.376	1376.0	test	Phase3	test/STIM_028.jpg	100
2156.232	0.86	860.5	test	Phase3	test/STIM_028.jpg	100
2160.209	1.123	1123.1	test	Phase3	test/STIM_028.jpg	100
2163.292	0.763	762.6	test	Phase3	test/STIM_029.jpg	100
2167.428	1.195	1194.7	test	Phase3	test/STIM_029.jpg	100
2170.585	0.771	771.2	test	Phase3	test/STIM_029.jpg	100
