onset	duration	accuracy	trial_type	learning_stage	stimulus
0.0	2.998	incorrect	navigation	Trial1	navigation/STIM_000.jpg
5.233	3.502	correct	navigation	Trial1	navigation/STIM_000.jpg
12.515	2.248	incorrect	navigation	Trial1	navigation/STIM_000.jpg
18.337	3.674	correct	navigation	Trial1	navigation/STIM_000.jpg
26.044	2.164	correct	navigation	Trial1	navigation/STIM_000.jpg
30.511	1.649	correct	navigation	Trial1	navigation/STIM_000.jpg
34.439	3.6	correct	navigation	Trial1	navigation/STIM_001.jpg
40.571	4.263	correct	navigation	Trial1	navigation/STIM_001.jpg
48.453	4.194	correct	navigation	Trial1	navigation/STIM_001.jpg
55.382	3.566	correct	navigation	Trial1	navigation/STIM_001.jpg
61.782	3.206	correct	navigation	Trial1	navigation/STIM_001.jpg
68.365	2.274	incorrect	navigation	Trial1	navigation/STIM_001.jpg
73.598	3.53	correct	navigation	Trial1	navigation/STIM_002.jpg
81.131	2.318	correct	navigation	Trial1	navigation/STIM_002.jpg
86.215	2.243	incorrect	navigation	Trial1	navigation/STIM_002.jpg
92.548	3.099	correct	navigation	Trial1	navigation/STIM_002.jpg
99.767	3.438	correct	navigation	Trial1	navigation/STIM_002.jpg
106.581	1.649	correct	navigation	Trial1	navigation/STIM_002.jpg
111.35	2.857	correct	navigation	Trial1	navigation/STIM_003.jpg
117.453	3.89	incorrect	navigation	Trial1	navigation/STIM_003.jpg
125.578	2.953	correct	navigation	Trial1	navigation/STIM_003.jpg
131.034	2.818	correct	navigation	Trial1	navigation/STIM_003.jpg
138.005	1.605	correct	navigation	Trial1	navigation/STIM_003.jpg
142.171	2.091	correct	navigation	Trial1	navigation/STIM_003.jpg
146.744	3.473	incorrect	navigation	Trial1	navigation/STIM_004.jpg
154.428	1.869	incorrect	navigation	Trial1	navigation/STIM_004.jpg
159.29	2.421	correct	navigation	Trial1	navigation/STIM_004.jpg
164.127	3.576	incorrect	navigation	Trial1	navigation/STIM_004.jpg
170.194	1.816	correct	navigation	Trial1	navigation/STIM_004.jpg
175.305	1.61	incorrect	navigation	Trial1	navigation/STIM_004.jpg
180.941	2.125	incorrect	navigation	Trial1	navigation/STIM_005.jpg
185.431	1.984	correct	navigation	Trial1	navigation/STIM_005.jpg
190.225	4.112	incorrect	navigation	Trial1	navigation/STIM_005.jpg
197.156	2.786	incorrect	navigation	Trial1	navigation/STIM_005.jpg
204.078	3.437	correct	navigation	Trial1	navigation/STIM_005.jpg
211.306	2.373	correct	navigation	Trial1	navigation/STIM_005.jpg
216.518	3.637	correct	navigation	Trial1	navigation/STIM_006.jpg
222.528	3.043	correct	navigation	Trial1	navigation/STIM_006.jpg
229.449	1.84	correct	navigation	Trial1	navigation/STIM_006.jpg
233.568	3.155	incorrect	navigation	Trial1	navigation/STIM_006.jpg
239.658	2.691	correct	navigation	Trial1	navigation/STIM_006.jpg
244.936	2.233	correct	navigation	Trial1	navigation/STIM_006.jpg
250.265	4.126	correct	navigation	Trial1	navigation/STIM_007.jpg
257.329	2.874	correct	navigation	Trial1	navigation/STIM_007.jpg
264.092	3.096	correct	navigation	Trial1	navigation/STIM_007.jpg
269.85	2.371	correct	navigation	Trial1	navigation/STIM_007.jpg
275.698	2.878	correct	navigation	Trial1	navigation/STIM_007.jpg
282.617	1.542	incorrect	navigation	Trial1	navigation/STIM_007.jpg
286.523	3.401	correct	navigation	Trial1	navigation/STIM_008.jpg
293.515	2.678	correct	navigation	Trial1	navigation/STIM_008.jpg
299.493	2.926	correct	navigation	Trial1	navigation/STIM_008.jpg
305.828	2.216	correct	navigation	Trial1	navigation/STIM_008.jpg
311.492	1.638	correct	navigation	Trial1	navigation/STIM_008.jpg
316.89	2.867	incorrect	navigation	Trial1	navigation/STIM_008.jpg
323.783	2.438	correct	navigation	Trial1	navigation/STIM_009.jpg
328.405	2.143	incorrect	navigation	Trial1	navigation/STIM_009.jpg
333.557	3.147	correct	navigation	Trial1	navigation/STIM_009.jpg
340.054	3.524	correct	navigation	Trial1	navigation/STIM_009.jpg
346.182	3.592	correct	navigation	Trial1	navigation/STIM_009.jpg
352.232	2.715	correct	navigation	Trial1	navigation/STIM_009.jpg
358.859	3.09	correct	navigation	Trial1	navigation/STIM_010.jpg
365.076	1.892	incorrect	navigation	Trial1	navigation/STIM_010.jpg
370.222	2.284	incorrect	navigation	Trial1	navigation/STIM_010.jpg
375.44	3.814	correct	navigation	Trial1	navigation/STIM_010.jpg
381.848	1.696	incorrect	navigation	Trial1	navigation/STIM_010.jpg
387.062	3.49	correct	navigation	Trial1	navigation/STIM_010.jpg
393.836	2.406	correct	navigation	Trial1	navigation/STIM_011.jpg
400.126	3.733	correct	navigation	Trial1	navigation/STIM_011.jpg
406.735	3.306	correct	navigation	Trial1	navigation/STIM_011.jpg
412.586	2.363	correct	navigation	Trial1	navigation/STIM_011.jpg
418.312	3.124	correct	navigation	Trial1	navigation/STIM_011.jpg
423.673	2.895	correct	navigation	Trial1	navigation/STIM_011.jpg
428.965	1.063	correct	pointing	Trial1	pointing/STIM_000.jpg
433.44	0.918	correct	pointing	Trial1	pointing/STIM_000.jpg
436.77	1.181	correct	pointing	Trial1	pointing/STIM_000.jpg
440.388	0.76	correct	pointing	Trial1	pointing/STIM_000.jpg
443.986	0.789	correct	pointing	Trial1	pointing/STIM_000.jpg
448.823	1.001	correct	pointing	Trial1	pointing/STIM_000.jpg
452.72	1.034	correct	pointing	Trial1	pointing/STIM_001.jpg
457.365	0.758	incorrect	pointing	Trial1	pointing/STIM_001.jpg
461.027	0.842	correct	pointing	Trial1	pointing/STIM_001.jpg
465.604	1.144	correct	pointing	Trial1	pointing/STIM_001.jpg
469.262	0.938	correct	pointing	Trial1	pointing/STIM_001.jpg
474.222	0.876	correct	pointing	Trial1	pointing/STIM_001.jpg
477.181	0.919	correct	pointing	Trial1	pointing/STIM_002.jpg
480.953	1.068	correct	pointing	Trial1	pointing/STIM_002.jpg
484.411	1.247	incorrect	pointing	Trial1	pointing/STIM_002.jpg
488.696	0.964	correct	pointing	Trial1	pointing/STIM_002.jpg
492.162	0.946	correct	pointing	Trial1	pointing/STIM_002.jpg
496.218	0.804	correct	pointing	Trial1	pointing/STIM_002.jpg
501.059	1.361	correct	pointing	Trial1	pointing/STIM_003.jpg
504.607	1.39	correct	pointing	Trial1	pointing/STIM_003.jpg
508.829	1.0	correct	pointing	Trial1	pointing/STIM_003.jpg
513.734	1.214	incorrect	pointing	Trial1	pointing/STIM_003.jpg
517.042	0.757	correct	pointing	Trial1	pointing/STIM_003.jpg
521.781	1.072	correct	pointing	Trial1	pointing/STIM_003.jpg
525.929	0.937	correct	pointing	Trial1	pointing/STIM_004.jpg
529.731	1.287	correct	pointing	Trial1	pointing/STIM_004.jpg
534.807	1.303	correct	pointing	Trial1	pointing/STIM_004.jpg
539.371	1.384	correct	pointing	Trial1	pointing/STIM_004.jpg
544.715	1.305	correct	pointing	Trial1	pointing/STIM_004.jpg
548.602	1.39	correct	pointing	Trial1	pointing/STIM_004.jpg
552.432	1.153	correct	pointing	Trial1	pointing/STIM_005.jpg
557.661	1.386	correct	pointing	Trial1	pointing/STIM_005.jpg
561.435	1.294	correct	pointing	Trial1	pointing/STIM_005.jpg
565.278	0.954	correct	pointing	Trial1	pointing/STIM_005.jpg
569.963	1.287	correct	pointing	Trial1	pointing/STIM_005.jpg
574.479	0.77	correct	pointing	Trial1	pointing/STIM_005.jpg
578.791	1.036	incorrect	pointing	Trial1	pointing/STIM_006.jpg
582.146	1.245	correct	pointing	Trial1	pointing/STIM_006.jpg
585.747	1.018	correct	pointing	Trial1	pointing/STIM_006.jpg
589.263	1.234	correct	pointing	Trial1	pointing/STIM_006.jpg
593.884	0.873	correct	pointing	Trial1	pointing/STIM_006.jpg
597.321	1.183	correct	pointing	Trial1	pointing/STIM_006.jpg
600.66	0.812	correct	pointing	Trial1	pointing/STIM_007.jpg
604.241	0.873	correct	pointing	Trial1	pointing/STIM_007.jpg
608.7	1.309	correct	pointing	Trial1	pointing/STIM_007.jpg
612.835	0.962	correct	pointing	Trial1	pointing/STIM_007.jpg
616.216	1.058	correct	pointing	Trial1	pointing/STIM_007.jpg
620.267	1.188	correct	pointing	Trial1	pointing/STIM_007.jpg
623.938	0.898	correct	pointing	Trial1	pointing/STIM_008.jpg
628.56	1.344	correct	pointing	Trial1	pointing/STIM_008.jpg
633.295	0.962	correct	pointing	Trial1	pointing/STIM_008.jpg
637.917	1.159	correct	pointing	Trial1	pointing/STIM_008.jpg
642.605	1.391	correct	pointing	Trial1	pointing/STIM_008.jpg
646.261	1.218	correct	pointing	Trial1	pointing/STIM_008.jpg
651.07	0.87	correct	pointing	Trial1	pointing/STIM_009.jpg
654.451	1.171	correct	pointing	Trial1	pointing/STIM_009.jpg
658.65	1.269	correct	pointing	Trial1	pointing/STIM_009.jpg
662.495	1.203	incorrect	pointing	Trial1	pointing/STIM_009.jpg
667.618	1.213	correct	pointing	Trial1	pointing/STIM_009.jpg
671.454	1.272	correct	pointing	Trial1	pointing/STIM_009.jpg
676.108	1.283	incorrect	pointing	Trial1	pointing/STIM_010.jpg
680.99	0.767	correct	pointing	Trial1	pointing/STIM_010.jpg
685.127	0.874	correct	pointing	Trial1	pointing/STIM_010.jpg
688.806	1.139	correct	pointing	Trial1	pointing/STIM_010.jpg
692.339	0.942	correct	pointing	Trial1	pointing/STIM_010.jpg
696.296	1.309	correct	pointing	Trial1	pointing/STIM_010.jpg
701.615	1.4	correct	pointing	Trial1	pointing/STIM_011.jpg
706.257	1.244	correct	pointing	Trial1	pointing/STIM_011.jpg
710.821	0.839	correct	pointing	Trial1	pointing/STIM_011.jpg
715.004	1.232	correct	pointing	Trial1	pointing/STIM_011.jpg
719.877	1.374	correct	pointing	Trial1	pointing/STIM_011.jpg
724.448	1.267	correct	pointing	Trial1	pointing/STIM_011.jpg
729.665	3.757	correct	navigation	Trial2	navigation/STIM_000.jpg
736.483	3.414	correct	navigation	Trial2	navigation/STIM_000.jpg
743.681	1.631	correct	navigation	Trial2	navigation/STIM_000.jpg
748.432	2.443	correct	navigation	Trial2	navigation/STIM_000.jpg
753.358	2.506	correct	navigation	Trial2	navigation/STIM_000.jpg
758.19	2.653	correct	navigation	Trial2	navigation/STIM_000.jpg
764.537	3.944	correct	navigation	Trial2	navigation/STIM_001.jpg
770.909	2.926	incorrect	navigation	Trial2	navigation/STIM_001.jpg
777.573	2.978	correct	navigation	Trial2	navigation/STIM_001.jpg
784.376	1.679	correct	navigation	Trial2	navigation/STIM_001.jpg
788.705	2.313	correct	navigation	Trial2	navigation/STIM_001.jpg
793.945	2.483	correct	navigation	Trial2	navigation/STIM_001.jpg
799.401	1.928	correct	navigation	Trial2	navigation/STIM_002.jpg
803.974	3.514	correct	navigation	Trial2	navigation/STIM_002.jpg
810.046	3.384	correct	navigation	Trial2	navigation/STIM_002.jpg
817.242	2.804	correct	navigation	Trial2	navigation/STIM_002.jpg
823.873	2.933	correct	navigation	Trial2	navigation/STIM_002.jpg
829.507	2.742	correct	navigation	Trial2	navigation/STIM_002.jpg
834.535	3.915	correct	navigation	Trial2	navigation/STIM_003.jpg
842.103	2.424	correct	navigation	Trial2	navigation/STIM_003.jpg
848.17	3.023	incorrect	navigation	Trial2	navigation/STIM_003.jpg
853.669	1.779	correct	navigation	Trial2	navigation/STIM_003.jpg
858.544	2.547	correct	navigation	Trial2	navigation/STIM_003.jpg
863.443	3.211	correct	navigation	Trial2	navigation/STIM_003.jpg
870.293	2.828	correct	navigation	Trial2	navigation/STIM_004.jpg
876.603	2.822	correct	navigation	Trial2	navigation/STIM_004.jpg
881.631	3.29	incorrect	navigation	Trial2	navigation/STIM_004.jpg
888.979	1.63	incorrect	navigation	Trial2	navigation/STIM_004.jpg
894.699	1.336	correct	navigation	Trial2	navigation/STIM_004.jpg
899.109	2.42	correct	navigation	Trial2	navigation/STIM_004.jpg
904.834	1.811	incorrect	navigation	Trial2	navigation/STIM_005.jpg
909.134	2.064	correct	navigation	Trial2	navigation/STIM_005.jpg
914.057	2.728	correct	navigation	Trial2	navigation/STIM_005.jpg
920.546	2.746	correct	navigation	Trial2	navigation/STIM_005.jpg
926.221	2.344	correct	navigation	Trial2	navigation/STIM_005.jpg
932.201	3.162	correct	navigation	Trial2	navigation/STIM_005.jpg
937.85	3.71	correct	navigation	Trial2	navigation/STIM_006.jpg
944.12	2.456	correct	navigation	Trial2	navigation/STIM_006.jpg
948.989	3.31	correct	navigation	Trial2	navigation/STIM_006.jpg
954.88	2.951	correct	navigation	Trial2	navigation/STIM_006.jpg
960.861	1.419	incorrect	navigation	Trial2	navigation/STIM_006.jpg
966.187	1.394	correct	navigation	Trial2	navigation/STIM_006.jpg
970.025	3.903	correct	navigation	Trial2	navigation/STIM_007.jpg
977.94	3.528	incorrect	navigation	Trial2	navigation/STIM_007.jpg
984.36	1.464	correct	navigation	Trial2	navigation/STIM_007.jpg
989.647	2.498	correct	navigation	Trial2	navigation/STIM_007.jpg
994.359	2.824	correct	navigation	Trial2	navigation/STIM_007.jpg
999.855	2.915	correct	navigation	Trial2	navigation/STIM_007.jpg
1006.382	3.089	correct	navigation	Trial2	navigation/STIM_008.jpg
1012.994	2.966	correct	navigation	Trial2	navigation/STIM_008.jpg
1019.963	3.104	correct	navigation	Trial2	navigation/STIM_008.jpg
1025.931	1.557	correct	navigation	Trial2	navigation/STIM_008.jpg
1031.124	1.691	correct	navigation	Trial2	navigation/STIM_008.jpg
1035.098	2.466	correct	navigation	Trial2	navigation/STIM_008.jpg
1040.79	3.829	correct	navigation	Trial2	navigation/STIM_009.jpg
1047.887	2.424	incorrect	navigation	Trial2	navigation/STIM_009.jpg
1052.639	1.463	incorrect	navigation	Trial2	navigation/STIM_009.jpg
1056.708	2.233	correct	navigation	Trial2	navigation/STIM_009.jpg
1061.591	1.814	correct	navigation	Trial2	navigation/STIM_009.jpg
1066.784	2.175	incorrect	navigation	Trial2	navigation/STIM_009.jpg
1072.447	1.775	correct	navigation	Trial2	navigation/STIM_010.jpg
1076.571	3.482	correct	navigation	Trial2	navigation/STIM_010.jpg
1083.898	2.613	correct	navigation	Trial2	navigation/STIM_010.jpg
1089.563	1.553	correct	navigation	Trial2	navigation/STIM_010.jpg
1093.944	2.196	correct	navigation	Trial2	navigation/STIM_010.jpg
1099.912	1.558	incorrect	navigation	Trial2	navigation/STIM_010.jpg
1104.52	2.75	correct	navigation	Trial2	navigation/STIM_011.jpg
1109.687	2.707	incorrect	navigation	Trial2	navigation/STIM_011.jpg
1116.01	2.073	correct	navigation	Trial2	navigation/STIM_011.jpg
1121.565	2.061	correct	navigation	Trial2	navigation/STIM_011.jpg
1126.385	2.705	correct	navigation	Trial2	navigation/STIM_011.jpg
1132.678	2.478	correct	navigation	Trial2	navigation/STIM_011.jpg
1138.54	1.18	correct	pointing	Trial2	pointing/STIM_000.jpg
1142.853	1.384	correct	pointing	Trial2	pointing/STIM_000.jpg
1147.301	1.265	correct	pointing	Trial2	pointing/STIM_000.jpg
1150.932	0.981	correct	pointing	Trial2	pointing/STIM_000.jpg
1155.05	1.089	correct	pointing	Trial2	pointing/STIM_000.jpg
1159.425	0.991	correct	pointing	Trial2	pointing/STIM_000.jpg
1162.674	0.943	incorrect	pointing	Trial2	pointing/STIM_001.jpg
1166.719	0.769	correct	pointing	Trial2	pointing/STIM_001.jpg
1170.473	0.825	correct	pointing	Trial2	pointing/STIM_001.jpg
1173.62	1.235	correct	pointing	Trial2	pointing/STIM_001.jpg
1177.759	1.313	correct	pointing	Trial2	pointing/STIM_001.jpg
1181.519	0.771	correct	pointing	Trial2	pointing/STIM_001.jpg
1185.413	1.064	correct	pointing	Trial2	pointing/STIM_002.jpg
1189.574	0.921	correct	pointing	Trial2	pointing/STIM_002.jpg
1193.745	1.111	correct	pointing	Trial2	pointing/STIM_002.jpg
1197.844	1.397	correct	pointing	Trial2	pointing/STIM_002.jpg
1201.748	0.865	correct	pointing	Trial2	pointing/STIM_002.jpg
1205.943	0.962	correct	pointing	Trial2	pointing/STIM_002.jpg
1209.97	1.137	correct	pointing	Trial2	pointing/STIM_003.jpg
1214.34	0.811	correct	pointing	Trial2	pointing/STIM_003.jpg
1217.458	1.189	correct	pointing	Trial2	pointing/STIM_003.jpg
1222.636	0.812	correct	pointing	Trial2	pointing/STIM_003.jpg
1226.473	0.987	correct	pointing	Trial2	pointing/STIM_003.jpg
1230.975	0.961	correct	pointing	Trial2	pointing/STIM_003.jpg
1234.902	0.937	correct	pointing	Trial2	pointing/STIM_004.jpg
1239.403	0.788	correct	pointing	Trial2	pointing/STIM_004.jpg
1243.527	0.806	correct	pointing	Trial2	pointing/STIM_004.jpg
1246.399	1.309	correct	pointing	Trial2	pointing/STIM_004.jpg
1251.422	1.18	correct	pointing	Trial2	pointing/STIM_004.jpg
1256.068	0.945	correct	pointing	Trial2	pointing/STIM_004.jpg
1259.765	1.359	correct	pointing	Trial2	pointing/STIM_005.jpg
1264.07	1.227	correct	pointing	Trial2	pointing/STIM_005.jpg
1268.231	0.787	correct	pointing	Trial2	pointing/STIM_005.jpg
1272.737	0.97	correct	pointing	Trial2	pointing/STIM_005.jpg
1276.501	0.762	correct	pointing	Trial2	pointing/STIM_005.jpg
1279.887	1.057	correct	pointing	Trial2	pointing/STIM_005.jpg
1284.58	1.34	correct	pointing	Trial2	pointing/STIM_006.jpg
1288.251	0.795	correct	pointing	Trial2	pointing/STIM_006.jpg
1292.673	1.242	correct	pointing	Trial2	pointing/STIM_006.jpg
1297.849	0.938	correct	pointing	Trial2	pointing/STIM_006.jpg
1301.75	0.86	correct	pointing	Trial2	pointing/STIM_006.jpg
1305.64	1.02	correct	pointing	Trial2	pointing/STIM_006.jpg
1310.166	0.874	correct	pointing	Trial2	pointing/STIM_007.jpg
1314.618	1.126	correct	pointing	Trial2	pointing/STIM_007.jpg
1319.182	0.968	correct	pointing	Trial2	pointing/STIM_007.jpg
1322.855	0.82	correct	pointing	Trial2	pointing/STIM_007.jpg
1327.259	1.25	correct	pointing	Trial2	pointing/STIM_007.jpg
1332.274	1.166	incorrect	pointing	Trial2	pointing/STIM_007.jpg
1336.106	1.212	correct	pointing	Trial2	pointing/STIM_008.jpg
1340.436	1.207	correct	pointing	Trial2	pointing/STIM_008.jpg
1344.512	1.39	correct	pointing	Trial2	pointing/STIM_008.jpg
1348.264	0.984	correct	pointing	Trial2	pointing/STIM_008.jpg
1352.587	1.03	correct	pointing	Trial2	pointing/STIM_008.jpg
1356.391	0.923	correct	pointing	Trial2	pointing/STIM_008.jpg
1359.535	0.948	correct	pointing	Trial2	pointing/STIM_009.jpg
1362.896	1.136	correct	pointing	Trial2	pointing/STIM_009.jpg
1367.419	0.772	correct	pointing	Trial2	pointing/STIM_009.jpg
1370.971	1.325	correct	pointing	Trial2	pointing/STIM_009.jpg
1376.264	1.144	correct	pointing	Trial2	pointing/STIM_009.jpg
1380.314	1.118	correct	pointing	Trial2	pointing/STIM_009.jpg
1384.429	1.085	correct	pointing	Trial2	pointing/STIM_010.jpg
1389.467	1.394	correct	pointing	Trial2	pointing/STIM_010.jpg
1393.229	0.864	correct	pointing	Trial2	pointing/STIM_010.jpg
1397.721	1.312	correct	pointing	Trial2	pointing/STIM_010.jpg
1402.244	0.874	correct	pointing	Trial2	pointing/STIM_010.jpg
1405.725	1.345	correct	pointing	Trial2	pointing/STIM_010.jpg
1410.714	0.905	correct	pointing	Trial2	pointing/STIM_011.jpg
1415.257	1.129	correct	pointing	Trial2	pointing/STIM_011.jpg
1419.458	1.237	incorrect	pointing	Trial2	pointing/STIM_011.jpg
1423.838	0.882	correct	pointing	Trial2	pointing/STIM_011.jpg
1427.654	0.871	correct	pointing	Trial2	pointing/STIM_011.jpg
1432.418	0.954	incorrect	pointing	Trial2	pointing/STIM_011.jpg
1436.53	1.951	correct	navigation	Trial3	navigation/STIM_000.jpg
1442.415	1.918	correct	navigation	Trial3	navigation/STIM_000.jpg
1446.936	2.348	correct	navigation	Trial3	navigation/STIM_000.jpg
1453.221	1.5	correct	navigation	Trial3	navigation/STIM_000.jpg
1457.455	3.224	correct	navigation	Trial3	navigation/STIM_000.jpg
1463.78	2.86	correct	navigation	Trial3	navigation/STIM_000.jpg
1469.192	2.065	correct	navigation	Trial3	navigation/STIM_001.jpg
1475.215	2.828	correct	navigation	Trial3	navigation/STIM_001.jpg
1481.07	2.634	correct	navigation	Trial3	navigation/STIM_001.jpg
1487.165	1.876	correct	navigation	Trial3	navigation/STIM_001.jpg
1492.764	2.744	correct	navigation	Trial3	navigation/STIM_001.jpg
1499.583	2.777	correct	navigation	Trial3	navigation/STIM_001.jpg
1506.465	1.526	correct	navigation	Trial3	navigation/STIM_002.jpg
1511.448	2.948	correct	navigation	Trial3	navigation/STIM_002.jpg
1516.811	2.068	correct	navigation	Trial3	navigation/STIM_002.jpg
1521.038	2.692	incorrect	navigation	Trial3	navigation/STIM_002.jpg
1527.722	1.403	correct	navigation	Trial3	navigation/STIM_002.jpg
1532.364	2.46	correct	navigation	Trial3	navigation/STIM_002.jpg
1537.875	2.595	correct	navigation	Trial3	navigation/STIM_003.jpg
1543.63	2.241	correct	navigation	Trial3	navigation/STIM_003.jpg
1548.565	3.027	incorrect	navigation	Trial3	navigation/STIM_003.jpg
1555.15	3.051	correct	navigation	Trial3	navigation/STIM_003.jpg
1562.093	1.747	correct	navigation	Trial3	navigation/STIM_003.jpg
1567.873	1.679	correct	navigation	Trial3	navigation/STIM_003.jpg
1573.429	2.224	correct	navigation	Trial3	navigation/STIM_004.jpg
1578.142	1.897	correct	navigation	Trial3	navigation/STIM_004.jpg
1583.905	2.376	correct	navigation	Trial3	navigation/STIM_004.jpg
1589.738	2.332	correct	navigation	Trial3	navigation/STIM_004.jpg
1594.845	1.893	correct	navigation	Trial3	navigation/STIM_004.jpg
1599.182	2.087	correct	navigation	Trial3	navigation/STIM_004.jpg
1603.834	2.638	correct	navigation	Trial3	navigation/STIM_005.jpg
1609.782	1.548	correct	navigation	Trial3	navigation/STIM_005.jpg
1615.027	2.554	correct	navigation	Trial3	navigation/STIM_005.jpg
1620.31	1.621	correct	navigation	Trial3	navigation/STIM_005.jpg
1624.841	1.954	correct	navigation	Trial3	navigation/STIM_005.jpg
1630.315	1.505	correct	navigation	Trial3	navigation/STIM_005.jpg
1635.266	1.973	correct	navigation	Trial3	navigation/STIM_006.jpg
1640.637	1.834	correct	navigation	Trial3	navigation/STIM_006.jpg
1646.186	3.134	correct	navigation	Trial3	navigation/STIM_006.jpg
1653.39	2.084	correct	navigation	Trial3	navigation/STIM_006.jpg
1659.446	2.845	correct	navigation	Trial3	navigation/STIM_006.jpg
1665.783	1.767	correct	navigation	Trial3	navigation/STIM_006.jpg
1671.13	2.682	correct	navigation	Trial3	navigation/STIM_007.jpg
1676.601	2.174	correct	navigation	Trial3	navigation/STIM_007.jpg
1681.363	2.851	correct	navigation	Trial3	navigation/STIM_007.jpg
1688.228	1.726	correct	navigation	Trial3	navigation/STIM_007.jpg
1692.142	1.552	correct	navigation	Trial3	navigation/STIM_007.jpg
1696.719	2.218	correct	navigation	Trial3	navigation/STIM_007.jpg
1701.125	2.69	correct	navigation	Trial3	navigation/STIM_008.jpg
1706.205	2.436	correct	navigation	Trial3	navigation/STIM_008.jpg
1712.713	2.207	correct	navigation	Trial3	navigation/STIM_008.jpg
1717.415	2.795	correct	navigation	Trial3	navigation/STIM_008.jpg
1723.362	2.451	correct	navigation	Trial3	navigation/STIM_008.jpg
1728.891	1.5	correct	navigation	Trial3	navigation/STIM_008.jpg
1733.486	2.228	correct	navigation	Trial3	navigation/STIM_009.jpg
1738.817	1.802	correct	navigation	Trial3	navigation/STIM_009.jpg
1743.379	3.198	correct	navigation	Trial3	navigation/STIM_009.jpg
1750.171	1.34	correct	navigation	Trial3	navigation/STIM_009.jpg
1753.939	1.591	correct	navigation	Trial3	navigation/STIM_009.jpg
1759.176	2.07	incorrect	navigation	Trial3	navigation/STIM_009.jpg
1763.819	2.144	correct	navigation	Trial3	navigation/STIM_010.jpg
1768.127	2.0	correct	navigation	Trial3	navigation/STIM_010.jpg
1774.053	2.768	incorrect	navigation	Trial3	navigation/STIM_010.jpg
1780.043	1.651	correct	navigation	Trial3	navigation/STIM_010.jpg
1785.332	1.45	correct	navigation	Trial3	navigation/STIM_010.jpg
1790.697	2.842	correct	navigation	Trial3	navigation/STIM_010.jpg
1795.97	3.034	correct	navigation	Trial3	navigation/STIM_011.jpg
1801.296	1.423	correct	navigation	Trial3	navigation/STIM_011.jpg
1806.012	2.081	correct	navigation	Trial3	navigation/STIM_011.jpg
1810.318	1.675	correct	navigation	Trial3	navigation/STIM_011.jpg
1815.004	2.973	correct	navigation	Trial3	navigation/STIM_011.jpg
1820.949	1.384	correct	navigation	Trial3	navigation/STIM_011.jpg
1824.991	1.221	correct	pointing	Trial3	pointing/STIM_000.jpg
1829.091	1.225	correct	pointing	Trial3	pointing/STIM_000.jpg
1833.656	1.048	correct	pointing	Trial3	pointing/STIM_000.jpg
1836.911	1.234	correct	pointing	Trial3	pointing/STIM_000.jpg
1840.706	1.337	incorrect	pointing	Trial3	pointing/STIM_000.jpg
1845.544	0.935	correct	pointing	Trial3	pointing/STIM_000.jpg
1848.634	1.104	correct	pointing	Trial3	pointing/STIM_001.jpg
1852.886	1.095	correct	pointing	Trial3	pointing/STIM_001.jpg
1856.419	1.379	correct	pointing	Trial3	pointing/STIM_001.jpg
1861.819	0.861	correct	pointing	Trial3	pointing/STIM_001.jpg
1865.515	1.343	correct	pointing	Trial3	pointing/STIM_001.jpg
1869.805	0.966	correct	pointing	Trial3	pointing/STIM_001.jpg
1874.069	0.996	correct	pointing	Trial3	pointing/STIM_002.jpg
1879.022	0.888	incorrect	pointing	Trial3	pointing/STIM_002.jpg
1882.376	0.957	correct	pointing	Trial3	pointing/STIM_002.jpg
1886.252	1.369	correct	pointing	Trial3	pointing/STIM_002.jpg
1890.319	0.877	correct	pointing	Trial3	pointing/STIM_002.jpg
1894.039	1.218	correct	pointing	Trial3	pointing/STIM_002.jpg
1898.639	1.327	correct	pointing	Trial3	pointing/STIM_003.jpg
1902.082	0.85	correct	pointing	Trial3	pointing/STIM_003.jpg
1906.686	0.983	correct	pointing	Trial3	pointing/STIM_003.jpg
1910.031	0.974	correct	pointing	Trial3	pointing/STIM_003.jpg
1914.457	1.305	correct	pointing	Trial3	pointing/STIM_003.jpg
1918.031	1.021	correct	pointing	Trial3	pointing/STIM_003.jpg
1922.219	0.932	correct	pointing	Trial3	pointing/STIM_004.jpg
1925.287	1.355	correct	pointing	Trial3	pointing/STIM_004.jpg
1929.857	1.356	correct	pointing	Trial3	pointing/STIM_004.jpg
1934.708	1.355	correct	pointing	Trial3	pointing/STIM_004.jpg
1938.348	1.062	correct	pointing	Trial3	pointing/STIM_004.jpg
1943.011	0.866	correct	pointing	Trial3	pointing/STIM_004.jpg
1947.264	1.152	correct	pointing	Trial3	pointing/STIM_005.jpg
1951.788	1.238	correct	pointing	Trial3	pointing/STIM_005.jpg
1955.205	0.963	correct	pointing	Trial3	pointing/STIM_005.jpg
1959.591	0.967	correct	pointing	Trial3	pointing/STIM_005.jpg
1964.062	0.954	correct	pointing	Trial3	pointing/STIM_005.jpg
1968.24	1.244	correct	pointing	Trial3	pointing/STIM_005.jpg
1973.494	1.282	correct	pointing	Trial3	pointing/STIM_006.jpg
1978.153	1.007	correct	pointing	Trial3	pointing/STIM_006.jpg
1982.903	1.401	correct	pointing	Trial3	pointing/STIM_006.jpg
1986.853	1.39	correct	pointing	Trial3	pointing/STIM_006.jpg
1991.068	0.92	correct	pointing	Trial3	pointing/STIM_006.jpg
1995.612	0.953	correct	pointing	Trial3	pointing/STIM_006.jpg
1999.237	0.938	correct	pointing	Trial3	pointing/STIM_007.jpg
2004.118	1.387	correct	pointing	Trial3	pointing/STIM_007.jpg
2008.131	1.328	correct	pointing	Trial3	pointing/STIM_007.jpg
2011.755	0.911	correct	pointing	Trial3	pointing/STIM_007.jpg
2016.081	0.846	correct	pointing	Trial3	pointing/STIM_007.jpg
2020.657	1.093	correct	pointing	Trial3	pointing/STIM_007.jpg
2023.987	1.14	correct	pointing	Trial3	pointing/STIM_008.jpg
2027.932	0.957	correct	pointing	Trial3	pointing/STIM_008.jpg
2031.925	1.149	correct	pointing	Trial3	pointing/STIM_008.jpg
2036.66	1.164	correct	pointing	Trial3	pointing/STIM_008.jpg
2041.231	1.319	incorrect	pointing	Trial3	pointing/STIM_008.jpg
2045.4	1.204	correct	pointing	Trial3	pointing/STIM_008.jpg
2049.544	1.132	correct	pointing	Trial3	pointing/STIM_009.jpg
2052.78	0.804	correct	pointing	Trial3	pointing/STIM_009.jpg
2056.207	0.783	correct	pointing	Trial3	pointing/STIM_009.jpg
2059.19	1.021	correct	pointing	Trial3	pointing/STIM_009.jpg
2062.751	1.01	correct	pointing	Trial3	pointing/STIM_009.jpg
2067.811	0.895	correct	pointing	Trial3	pointing/STIM_009.jpg
2072.038	0.912	correct	pointing	Trial3	pointing/STIM_010.jpg
2075.806	1.244	correct	pointing	Trial3	pointing/STIM_010.jpg
2081.061	1.324	correct	pointing	Trial3	pointing/STIM_010.jpg
2085.084	0.943	correct	pointing	Trial3	pointing/STIM_010.jpg
2089.354	1.248	correct	pointing	Trial3	pointing/STIM_010.jpg
2092.839	0.903	correct	pointing	Trial3	pointing/STIM_010.jpg
2096.839	0.823	correct	pointing	Trial3	pointing/STIM_011.jpg
2100.406	0.856	correct	pointing	Trial3	pointing/STIM_011.jpg
2104.469	1.121	correct	pointing	Trial3	pointing/STIM_011.jpg
2108.131	1.348	correct	pointing	Trial3	pointing/STIM_011.jpg
2113.362	1.187	correct	pointing	Trial3	pointing/STIM_011.jpg
2117.993	0.917	correct	pointing	Trial3	pointing/STIM_011.jpg
