onset	duration	response_time_ms	trial_type	learning_stage	stimulus	response_port
0.0	2.998	2998.0	navigation	Trial1	navigation/STIM_000.jpg	100
5.233	3.502	3501.5	navigation	Trial1	navigation/STIM_000.jpg	99
12.515	2.248	2248.5	navigation	Trial1	navigation/STIM_000.jpg	99
18.337	3.674	3674.4	navigation	Trial1	navigation/STIM_000.jpg	100
26.044	2.164	2164.1	navigation	Trial1	navigation/STIM_000.jpg	99
30.511	1.649	1649.0	navigation	Trial1	navigation/STIM_000.jpg	99
34.439	3.6	3600.2	navigation	Trial1	navigation/STIM_001.jpg	99
40.571	4.263	4263.3	navigation	Trial1	navigation/STIM_001.jpg	99
48.453	4.194	4193.7	navigation	Trial1	navigation/STIM_001.jpg	99
55.382	3.566	3565.7	navigation	Trial1	navigation/STIM_001.jpg	100
61.782	3.206	3205.6	navigation	Trial1	navigation/STIM_001.jpg	100
68.365	2.274	2273.5	navigation	Trial1	navigation/STIM_001.jpg	100
73.598	3.53	3529.9	navigation	Trial1	navigation/STIM_002.jpg	100
81.131	2.318	2317.7	navigation	Trial1	navigation/STIM_002.jpg	99
86.215	2.243	2242.6	navigation	Trial1	navigation/STIM_002.jpg	99
92.548	3.099	3098.9	navigation	Trial1	navigation/STIM_002.jpg	100
99.767	3.438	3437.7	navigation	Trial1	navigation/STIM_002.jpg	99
106.581	1.649	1649.4	navigation	Trial1	navigation/STIM_002.jpg	100
111.35	2.857	2856.7	navigation	Trial1	navigation/STIM_003.jpg	99
117.453	3.89	3889.9	navigation	Trial1	navigation/STIM_003.jpg	99
125.578	2.953	2953.2	navigation	Trial1	navigation/STIM_003.jpg	99
131.034	2.818	2817.9	navigation	Trial1	navigation/STIM_003.jpg	99
138.005	1.605	1605.2	navigation	Trial1	navigation/STIM_003.jpg	99
142.171	2.091	2090.8	navigation	Trial1	navigation/STIM_003.jpg	100
146.744	3.473	3473.3	navigation	Trial1	navigation/STIM_004.jpg	100
154.428	1.869	1868.6	navigation	Trial1	navigation/STIM_004.jpg	100
159.29	2.421	2420.6	navigation	Trial1	navigation/STIM_004.jpg	100
164.127	3.576	3575.5	navigation	Trial1	navigation/STIM_004.jpg	99
170.194	1.816	1815.7	navigation	Trial1	navigation/STIM_004.jpg	100
175.305	1.61	1610.5	navigation	Trial1	navigation/STIM_004.jpg	99
180.941	2.125	2124.7	navigation	Trial1	navigation/STIM_005.jpg	99
185.431	1.984	1983.9	navigation	Trial1	navigation/STIM_005.jpg	99
190.225	4.112	4112.0	navigation	Trial1	navigation/STIM_005.jpg	99
197.156	2.786	2785.6	navigation	Trial1	navigation/STIM_005.jpg	100
204.078	3.437	3436.6	navigation	Trial1	navigation/STIM_005.jpg	100
211.306	2.373	2373.3	navigation	Trial1	navigation/STIM_005.jpg	99
216.518	3.637	3637.1	navigation	Trial1	navigation/STIM_006.jpg	100
222.528	3.043	3042.7	navigation	Trial1	navigation/STIM_006.jpg	99
229.449	1.84	1839.5	navigation	Trial1	navigation/STIM_006.jpg	100
233.568	3.155	3154.8	navigation	Trial1	navigation/STIM_006.jpg	99
239.658	2.691	2691.3	navigation	Trial1	navigation/STIM_006.jpg	99
244.936	2.233	2233.1	navigation	Trial1	navigation/STIM_006.jpg	99
250.265	4.126	4126.1	navigation	Trial1	navigation/STIM_007.jpg	100
257.329	2.874	2874.4	navigation	Trial1	navigation/STIM_007.jpg	100
264.092	3.096	3096.5	navigation	Trial1	navigation/STIM_007.jpg	99
269.85	2.371	2370.8	navigation	Trial1	navigation/STIM_007.jpg	99
275.698	2.878	2878.1	navigation	Trial1	navigation/STIM_007.jpg	100
282.617	1.542	1542.5	navigation	Trial1	navigation/STIM_007.jpg	99
286.523	3.401	3400.7	navigation	Trial1	navigation/STIM_008.jpg	100
293.515	2.678	2678.2	navigation	Trial1	navigation/STIM_008.jpg	100
299.493	2.926	2925.9	navigation	Trial1	navigation/STIM_008.jpg	99
305.828	2.216	2216.3	navigation	Trial1	navigation/STIM_008.jpg	99
311.492	1.638	1638.0	navigation	Trial1	navigation/STIM_008.jpg	99
316.89	2.867	2866.9	navigation	Trial1	navigation/STIM_008.jpg	99
323.783	2.438	2438.2	navigation	Trial1	navigation/STIM_009.jpg	99
328.405	2.143	2142.7	navigation	Trial1	navigation/STIM_009.jpg	99
333.557	3.147	3147.2	navigation	Trial1	navigation/STIM_009.jpg	99
340.054	3.524	3523.7	navigation	Trial1	navigation/STIM_009.jpg	100
346.182	3.592	3591.6	navigation	Trial1	navigation/STIM_009.jpg	100
352.232	2.715	2715.0	navigation	Trial1	navigation/STIM_009.jpg	99
358.859	3.09	3089.8	navigation	Trial1	navigation/STIM_010.jpg	99
365.076	1.892	1892.5	navigation	Trial1	navigation/STIM_010.jpg	99
370.222	2.284	2283.8	navigation	Trial1	navigation/STIM_010.jpg	100
375.44	3.814	3813.8	navigation	Trial1	navigation/STIM_010.jpg	100
381.848	1.696	1696.1	navigation	Trial1	navigation/STIM_010.jpg	99
387.062	3.49	3489.5	navigation	Trial1	navigation/STIM_010.jpg	100
393.836	2.406	2406.2	navigation	Trial1	navigation/STIM_011.jpg	99
400.126	3.733	3733.2	navigation	Trial1	navigation/STIM_011.jpg	100
406.735	3.306	3305.7	navigation	Trial1	navigation/STIM_011.jpg	100
412.586	2.363	2362.9	navigation	Trial1	navigation/STIM_011.jpg	99
418.312	3.124	3124.2	navigation	Trial1	navigation/STIM_011.jpg	100
423.673	2.895	2895.2	navigation	Trial1	navigation/STIM_011.jpg	99
428.965	1.063	1063.1	pointing	Trial1	pointing/STIM_000.jpg	100
433.44	0.918	918.1	pointing	Trial1	pointing/STIM_000.jpg	99
436.77	1.181	1180.7	pointing	Trial1	pointing/STIM_000.jpg	100
440.388	0.76	760.2	pointing	Trial1	pointing/STIM_000.jpg	100
443.986	0.789	789.2	pointing	Trial1	pointing/STIM_000.jpg	100
448.823	1.001	1000.8	pointing	Trial1	pointing/STIM_000.jpg	99
452.72	1.034	1034.0	pointing	Trial1	pointing/STIM_001.jpg	99
457.365	0.758	757.6	pointing	Trial1	pointing/STIM_001.jpg	99
461.027	0.842	841.5	pointing	Trial1	pointing/STIM_001.jpg	99
465.604	1.144	1144.5	pointing	Trial1	pointing/STIM_001.jpg	99
469.262	0.938	937.7	pointing	Trial1	pointing/STIM_001.jpg	99
474.222	0.876	876.3	pointing	Trial1	pointing/STIM_001.jpg	100
477.181	0.919	919.0	pointing	Trial1	pointing/STIM_002.jpg	100
480.953	1.068	1068.3	pointing	Trial1	pointing/STIM_002.jpg	100
484.411	1.247	1247.2	pointing	Trial1	pointing/STIM_002.jpg	100
488.696	0.964	964.0	pointing	Trial1	pointing/STIM_002.jpg	99
492.162	0.946	946.3	pointing	Trial1	pointing/STIM_002.jpg	100
496.218	0.804	803.8	pointing	Trial1	pointing/STIM_002.jpg	99
501.059	1.361	1360.7	pointing	Trial1	pointing/STIM_003.jpg	100
504.607	1.39	1390.4	pointing	Trial1	pointing/STIM_003.jpg	100
508.829	1.0	999.9	pointing	Trial1	pointing/STIM_003.jpg	100
513.734	1.214	1214.1	pointing	Trial1	pointing/STIM_003.jpg	100
517.042	0.757	756.6	pointing	Trial1	pointing/STIM_003.jpg	99
521.781	1.072	1072.1	pointing	Trial1	pointing/STIM_003.jpg	100
525.929	0.937	937.2	pointing	Trial1	pointing/STIM_004.jpg	100
529.731	1.287	1287.0	pointing	Trial1	pointing/STIM_004.jpg	99
534.807	1.303	1303.1	pointing	Trial1	pointing/STIM_004.jpg	100
539.371	1.384	1384.0	pointing	Trial1	pointing/STIM_004.jpg	99
544.715	1.305	1305.2	pointing	Trial1	pointing/STIM_004.jpg	99
548.602	1.39	1389.9	pointing	Trial1	pointing/STIM_004.jpg	100
552.432	1.153	1153.2	pointing	Trial1	pointing/STIM_005.jpg	99
557.661	1.386	1386.3	pointing	Trial1	pointing/STIM_005.jpg	100
561.435	1.294	1293.6	pointing	Trial1	pointing/STIM_005.jpg	100
565.278	0.954	954.0	pointing	Trial1	pointing/STIM_005.jpg	100
569.963	1.287	1287.4	pointing	Trial1	pointing/STIM_005.jpg	100
574.479	0.77	770.0	pointing	Trial1	pointing/STIM_005.jpg	100
578.791	1.036	1035.6	pointing	Trial1	pointing/STIM_006.jpg	100
582.146	1.245	1245.3	pointing	Trial1	pointing/STIM_006.jpg	99
585.747	1.018	1018.2	pointing	Trial1	pointing/STIM_006.jpg	100
589.263	1.234	1233.6	pointing	Trial1	pointing/STIM_006.jpg	99
593.884	0.873	872.6	pointing	Trial1	pointing/STIM_006.jpg	99
597.321	1.183	1183.1	pointing	Trial1	pointing/STIM_006.jpg	99
600.66	0.812	811.6	pointing	Trial1	pointing/STIM_007.jpg	99
604.241	0.873	873.2	pointing	Trial1	pointing/STIM_007.jpg	99
608.7	1.309	1309.0	pointing	Trial1	pointing/STIM_007.jpg	99
612.835	0.962	961.8	pointing	Trial1	pointing/STIM_007.jpg	100
616.216	1.058	1057.8	pointing	Trial1	pointing/STIM_007.jpg	99
620.267	1.188	1187.5	pointing	Trial1	pointing/STIM_007.jpg	99
623.938	0.898	897.7	pointing	Trial1	pointing/STIM_008.jpg	99
628.56	1.344	1344.5	pointing	Trial1	pointing/STIM_008.jpg	99
633.295	0.962	962.1	pointing	Trial1	pointing/STIM_008.jpg	99
637.917	1.159	1158.6	pointing	Trial1	pointing/STIM_008.jpg	100
642.605	1.391	1390.6	pointing	Trial1	pointing/STIM_008.jpg	99
646.261	1.218	1218.1	pointing	Trial1	pointing/STIM_008.jpg	100
651.07	0.87	870.1	pointing	Trial1	pointing/STIM_009.jpg	100
654.451	1.171	1171.2	pointing	Trial1	pointing/STIM_009.jpg	100
658.65	1.269	1268.9	pointing	Trial1	pointing/STIM_009.jpg	100
662.495	1.203	1202.6	pointing	Trial1	pointing/STIM_009.jpg	100
667.618	1.213	1213.3	pointing	Trial1	pointing/STIM_009.jpg	100
671.454	1.272	1271.8	pointing	Trial1	pointing/STIM_009.jpg	100
676.108	1.283	1283.2	pointing	Trial1	pointing/STIM_010.jpg	99
680.99	0.767	767.0	pointing	Trial1	pointing/STIM_010.jpg	100
685.127	0.874	873.9	pointing	Trial1	pointing/STIM_010.jpg	99
688.806	1.139	1139.4	pointing	Trial1	pointing/STIM_010.jpg	100
692.339	0.942	941.9	pointing	Trial1	pointing/STIM_010.jpg	100
696.296	1.309	1309.1	pointing	Trial1	pointing/STIM_010.jpg	99
701.615	1.4	1399.5	pointing	Trial1	pointing/STIM_011.jpg	99
706.257	1.244	1244.4	pointing	Trial1	pointing/STIM_011.jpg	99
710.821	0.839	838.8	pointing	Trial1	pointing/STIM_011.jpg	99
715.004	1.232	1232.2	pointing	Trial1	pointing/STIM_011.jpg	100
719.877	1.374	1373.8	pointing	Trial1	pointing/STIM_011.jpg	99
724.448	1.267	1266.9	pointing	Trial1	pointing/STIM_011.jpg	100
729.665	3.757	3757.3	navigation	Trial2	navigation/STIM_000.jpg	100
736.483	3.414	3413.9	navigation	Trial2	navigation/STIM_000.jpg	99
743.681	1.631	1630.7	navigation	Trial2	navigation/STIM_000.jpg	100
748.432	2.443	2442.8	navigation	Trial2	navigation/STIM_000.jpg	100
753.358	2.506	2505.9	navigation	Trial2	navigation/STIM_000.jpg	99
758.19	2.653	2652.8	navigation	Trial2	navigation/STIM_000.jpg	100
764.537	3.944	3944.2	navigation	Trial2	navigation/STIM_001.jpg	99
770.909	2.926	2925.9	navigation	Trial2	navigation/STIM_001.jpg	99
777.573	2.978	2978.3	navigation	Trial2	navigation/STIM_001.jpg	100
784.376	1.679	1679.3	navigation	Trial2	navigation/STIM_001.jpg	100
788.705	2.313	2313.2	navigation	Trial2	navigation/STIM_001.jpg	100
793.945	2.483	2483.0	navigation	Trial2	navigation/STIM_001.jpg	99
799.401	1.928	1927.5	navigation	Trial2	navigation/STIM_002.jpg	100
803.974	3.514	3514.3	navigation	Trial2	navigation/STIM_002.jpg	99
810.046	3.384	3383.7	navigation	Trial2	navigation/STIM_002.jpg	100
817.242	2.804	2804.0	navigation	Trial2	navigation/STIM_002.jpg	100
823.873	2.933	2933.3	navigation	Trial2	navigation/STIM_002.jpg	99
829.507	2.742	2741.8	navigation	Trial2	navigation/STIM_002.jpg	99
834.535	3.915	3915.0	navigation	Trial2	navigation/STIM_003.jpg	100
842.103	2.424	2424.5	navigation	Trial2	navigation/STIM_003.jpg	99
848.17	3.023	3023.2	navigation	Trial2	navigation/STIM_003.jpg	100
853.669	1.779	1779.1	navigation	Trial2	navigation/STIM_003.jpg	100
858.544	2.547	2547.1	navigation	Trial2	navigation/STIM_003.jpg	100
863.443	3.211	3211.2	navigation	Trial2	navigation/STIM_003.jpg	99
870.293	2.828	2828.1	navigation	Trial2	navigation/STIM_004.jpg	100
876.603	2.822	2822.1	navigation	Trial2	navigation/STIM_004.jpg	99
881.631	3.29	3290.0	navigation	Trial2	navigation/STIM_004.jpg	100
888.979	1.63	1630.0	navigation	Trial2	navigation/STIM_004.jpg	99
894.699	1.336	1335.7	navigation	Trial2	navigation/STIM_004.jpg	100
899.109	2.42	2419.9	navigation	Trial2	navigation/STIM_004.jpg	99
904.834	1.811	1811.1	navigation	Trial2	navigation/STIM_005.jpg	99
909.134	2.064	2064.1	navigation	Trial2	navigation/STIM_005.jpg	99
914.057	2.728	2728.3	navigation	Trial2	navigation/STIM_005.jpg	99
920.546	2.746	2745.5	navigation	Trial2	navigation/STIM_005.jpg	100
926.221	2.344	2344.5	navigation	Trial2	navigation/STIM_005.jpg	100
932.201	3.162	3161.7	navigation	Trial2	navigation/STIM_005.jpg	99
937.85	3.71	3710.2	navigation	Trial2	navigation/STIM_006.jpg	100
944.12	2.456	2456.4	navigation	Trial2	navigation/STIM_006.jpg	99
948.989	3.31	3310.2	navigation	Trial2	navigation/STIM_006.jpg	99
954.88	2.951	2951.0	navigation	Trial2	navigation/STIM_006.jpg	100
960.861	1.419	1418.6	navigation	Trial2	navigation/STIM_006.jpg	100
966.187	1.394	1393.9	navigation	Trial2	navigation/STIM_006.jpg	100
970.025	3.903	3902.6	navigation	Trial2	navigation/STIM_007.jpg	100
977.94	3.528	3528.0	navigation	Trial2	navigation/STIM_007.jpg	100
984.36	1.464	1463.6	navigation	Trial2	navigation/STIM_007.jpg	100
989.647	2.498	2497.6	navigation	Trial2	navigation/STIM_007.jpg	99
994.359	2.824	2824.0	navigation	Trial2	navigation/STIM_007.jpg	100
999.855	2.915	2914.6	navigation	Trial2	navigation/STIM_007.jpg	100
1006.382	3.089	3088.8	navigation	Trial2	navigation/STIM_008.jpg	99
1012.994	2.966	2965.7	navigation	Trial2	navigation/STIM_008.jpg	99
1019.963	3.104	3103.9	navigation	Trial2	navigation/STIM_008.jpg	99
1025.931	1.557	1557.4	navigation	Trial2	navigation/STIM_008.jpg	99
1031.124	1.691	1691.1	navigation	Trial2	navigation/STIM_008.jpg	99
1035.098	2.466	2465.8	navigation	Trial2	navigation/STIM_008.jpg	99
1040.79	3.829	3829.2	navigation	Trial2	navigation/STIM_009.jpg	100
1047.887	2.424	2423.9	navigation	Trial2	navigation/STIM_009.jpg	99
1052.639	1.463	1463.0	navigation	Trial2	navigation/STIM_009.jpg	100
1056.708	2.233	2233.4	navigation	Trial2	navigation/STIM_009.jpg	100
1061.591	1.814	1813.7	navigation	Trial2	navigation/STIM_009.jpg	99
1066.784	2.175	2174.9	navigation	Trial2	navigation/STIM_009.jpg	100
1072.447	1.775	1775.3	navigation	Trial2	navigation/STIM_010.jpg	100
1076.571	3.482	3481.9	navigation	Trial2	navigation/STIM_010.jpg	100
1083.898	2.613	2613.3	navigation	Trial2	navigation/STIM_010.jpg	99
1089.563	1.553	1552.9	navigation	Trial2	navigation/STIM_010.jpg	99
1093.944	2.196	2196.4	navigation	Trial2	navigation/STIM_010.jpg	99
1099.912	1.558	1558.1	navigation	Trial2	navigation/STIM_010.jpg	100
1104.52	2.75	2749.9	navigation	Trial2	navigation/STIM_011.jpg	99
1109.687	2.707	2706.9	navigation	Trial2	navigation/STIM_011.jpg	99
1116.01	2.073	2072.9	navigation	Trial2	navigation/STIM_011.jpg	99
1121.565	2.061	2061.2	navigation	Trial2	navigation/STIM_011.jpg	100
1126.385	2.705	2705.0	navigation	Trial2	navigation/STIM_011.jpg	100
1132.678	2.478	2478.5	navigation	Trial2	navigation/STIM_011.jpg	100
1138.54	1.18	1180.0	pointing	Trial2	pointing/STIM_000.jpg	100
1142.853	1.384	1384.4	pointing	Trial2	pointing/STIM_000.jpg	99
1147.301	1.265	1265.0	pointing	Trial2	pointing/STIM_000.jpg	99
1150.932	0.981	980.8	pointing	Trial2	pointing/STIM_000.jpg	99
1155.05	1.089	1089.4	pointing	Trial2	pointing/STIM_000.jpg	100
1159.425	0.991	991.1	pointing	Trial2	pointing/STIM_000.jpg	100
1162.674	0.943	943.0	pointing	Trial2	pointing/STIM_001.jpg	100
1166.719	0.769	768.8	pointing	Trial2	pointing/STIM_001.jpg	100
1170.473	0.825	825.2	pointing	Trial2	pointing/STIM_001.jpg	99
1173.62	1.235	1234.7	pointing	Trial2	pointing/STIM_001.jpg	100
1177.759	1.313	1312.8	pointing	Trial2	pointing/STIM_001.jpg	99
1181.519	0.771	771.2	pointing	Trial2	pointing/STIM_001.jpg	100
1185.413	1.064	1064.5	pointing	Trial2	pointing/STIM_002.jpg	99
1189.574	0.921	921.4	pointing	Trial2	pointing/STIM_002.jpg	100
1193.745	1.111	1111.0	pointing	Trial2	pointing/STIM_002.jpg	100
1197.844	1.397	1396.7	pointing	Trial2	pointing/STIM_002.jpg	99
1201.748	0.865	864.9	pointing	Trial2	pointing/STIM_002.jpg	100
1205.943	0.962	961.9	pointing	Trial2	pointing/STIM_002.jpg	100
1209.97	1.137	1136.6	pointing	Trial2	pointing/STIM_003.jpg	99
1214.34	0.811	810.6	pointing	Trial2	pointing/STIM_003.jpg	100
1217.458	1.189	1189.1	pointing	Trial2	pointing/STIM_003.jpg	100
1222.636	0.812	812.0	pointing	Trial2	pointing/STIM_003.jpg	99
1226.473	0.987	986.8	pointing	Trial2	pointing/STIM_003.jpg	100
1230.975	0.961	961.2	pointing	Trial2	pointing/STIM_003.jpg	100
1234.902	0.937	936.8	pointing	Trial2	pointing/STIM_004.jpg	100
1239.403	0.788	787.8	pointing	Trial2	pointing/STIM_004.jpg	99
1243.527	0.806	805.5	pointing	Trial2	pointing/STIM_004.jpg	100
1246.399	1.309	1309.3	pointing	Trial2	pointing/STIM_004.jpg	100
1251.422	1.18	1180.2	pointing	Trial2	pointing/STIM_004.jpg	99
1256.068	0.945	944.9	pointing	Trial2	pointing/STIM_004.jpg	99
1259.765	1.359	1358.9	pointing	Trial2	pointing/STIM_005.jpg	100
1264.07	1.227	1226.6	pointing	Trial2	pointing/STIM_005.jpg	99
1268.231	0.787	787.1	pointing	Trial2	pointing/STIM_005.jpg	100
1272.737	0.97	970.5	pointing	Trial2	pointing/STIM_005.jpg	100
1276.501	0.762	762.5	pointing	Trial2	pointing/STIM_005.jpg	99
1279.887	1.057	1056.6	pointing	Trial2	pointing/STIM_005.jpg	99
1284.58	1.34	1340.2	pointing	Trial2	pointing/STIM_006.jpg	100
1288.251	0.795	795.0	pointing	Trial2	pointing/STIM_006.jpg	100
1292.673	1.242	1241.9	pointing	Trial2	pointing/STIM_006.jpg	100
1297.849	0.938	938.1	pointing	Trial2	pointing/STIM_006.jpg	99
1301.75	0.86	860.2	pointing	Trial2	pointing/STIM_006.jpg	99
1305.64	1.02	1020.1	pointing	Trial2	pointing/STIM_006.jpg	99
1310.166	0.874	874.4	pointing	Trial2	pointing/STIM_007.jpg	99
1314.618	1.126	1126.3	pointing	Trial2	pointing/STIM_007.jpg	99
1319.182	0.968	967.7	pointing	Trial2	pointing/STIM_007.jpg	100
1322.855	0.82	819.8	pointing	Trial2	pointing/STIM_007.jpg	100
1327.259	1.25	1250.3	pointing	Trial2	pointing/STIM_007.jpg	99
1332.274	1.166	1166.3	pointing	Trial2	pointing/STIM_007.jpg	100
1336.106	1.212	1212.5	pointing	Trial2	pointing/STIM_008.jpg	100
1340.436	1.207	1207.3	pointing	Trial2	pointing/STIM_008.jpg	99
1344.512	1.39	1390.5	pointing	Trial2	pointing/STIM_008.jpg	99
1348.264	0.984	983.6	pointing	Trial2	pointing/STIM_008.jpg	99
1352.587	1.03	1029.9	pointing	Trial2	pointing/STIM_008.jpg	99
1356.391	0.923	923.3	pointing	Trial2	pointing/STIM_008.jpg	99
1359.535	0.948	948.5	pointing	Trial2	pointing/STIM_009.jpg	99
1362.896	1.136	1136.4	pointing	Trial2	pointing/STIM_009.jpg	100
1367.419	0.772	772.5	pointing	Trial2	pointing/STIM_009.jpg	99
1370.971	1.325	1324.8	pointing	Trial2	pointing/STIM_009.jpg	99
1376.264	1.144	1144.2	pointing	Trial2	pointing/STIM_009.jpg	100
1380.314	1.118	1118.1	pointing	Trial2	pointing/STIM_009.jpg	99
1384.429	1.085	1085.4	pointing	Trial2	pointing/STIM_010.jpg	100
1389.467	1.394	1393.8	pointing	Trial2	pointing/STIM_010.jpg	99
1393.229	0.864	863.7	pointing	Trial2	pointing/STIM_010.jpg	100
1397.721	1.312	1312.4	pointing	Trial2	pointing/STIM_010.jpg	100
1402.244	0.874	873.5	pointing	Trial2	pointing/STIM_010.jpg	100
1405.725	1.345	1344.9	pointing	Trial2	pointing/STIM_010.jpg	99
1410.714	0.905	905.2	pointing	Trial2	pointing/STIM_011.jpg	99
1415.257	1.129	1129.2	pointing	Trial2	pointing/STIM_011.jpg	99
1419.458	1.237	1236.6	pointing	Trial2	pointing/STIM_011.jpg	99
1423.838	0.882	881.8	pointing	Trial2	pointing/STIM_011.jpg	100
1427.654	0.871	870.6	pointing	Trial2	pointing/STIM_011.jpg	99
1432.418	0.954	954.4	pointing	Trial2	pointing/STIM_011.jpg	99
1436.53	1.951	1951.3	navigation	Trial3	navigation/STIM_000.jpg	100
1442.415	1.918	1918.0	navigation	Trial3	navigation/STIM_000.jpg	99
1446.936	2.348	2348.5	navigation	Trial3	navigation/STIM_000.jpg	99
1453.221	1.5	1500.5	navigation	Trial3	navigation/STIM_000.jpg	100
1457.455	3.224	3224.3	navigation	Trial3	navigation/STIM_000.jpg	99
1463.78	2.86	2860.4	navigation	Trial3	navigation/STIM_000.jpg	99
1469.192	2.065	2065.4	navigation	Trial3	navigation/STIM_001.jpg	99
1475.215	2.828	2828.4	navigation	Trial3	navigation/STIM_001.jpg	99
1481.07	2.634	2634.0	navigation	Trial3	navigation/STIM_001.jpg	100
1487.165	1.876	1875.6	navigation	Trial3	navigation/STIM_001.jpg	100
1492.764	2.744	2744.0	navigation	Trial3	navigation/STIM_001.jpg	99
1499.583	2.777	2777.3	navigation	Trial3	navigation/STIM_001.jpg	99
1506.465	1.526	1526.3	navigation	Trial3	navigation/STIM_002.jpg	100
1511.448	2.948	2948.3	navigation	Trial3	navigation/STIM_002.jpg	99
1516.811	2.068	2068.1	navigation	Trial3	navigation/STIM_002.jpg	99
1521.038	2.692	2691.7	navigation	Trial3	navigation/STIM_002.jpg	99
1527.722	1.403	1403.2	navigation	Trial3	navigation/STIM_002.jpg	99
1532.364	2.46	2459.9	navigation	Trial3	navigation/STIM_002.jpg	99
1537.875	2.595	2595.1	navigation	Trial3	navigation/STIM_003.jpg	100
1543.63	2.241	2241.4	navigation	Trial3	navigation/STIM_003.jpg	99
1548.565	3.027	3026.7	navigation	Trial3	navigation/STIM_003.jpg	100
1555.15	3.051	3051.1	navigation	Trial3	navigation/STIM_003.jpg	100
1562.093	1.747	1746.9	navigation	Trial3	navigation/STIM_003.jpg	99
1567.873	1.679	1679.1	navigation	Trial3	navigation/STIM_003.jpg	99
1573.429	2.224	2223.7	navigation	Trial3	navigation/STIM_004.jpg	100
1578.142	1.897	1897.3	navigation	Trial3	navigation/STIM_004.jpg	100
1583.905	2.376	2376.4	navigation	Trial3	navigation/STIM_004.jpg	100
1589.738	2.332	2332.1	navigation	Trial3	navigation/STIM_004.jpg	100
1594.845	1.893	1893.4	navigation	Trial3	navigation/STIM_004.jpg	100
1599.182	2.087	2086.8	navigation	Trial3	navigation/STIM_004.jpg	100
1603.834	2.638	2638.4	navigation	Trial3	navigation/STIM_005.jpg	100
1609.782	1.548	1547.7	navigation	Trial3	navigation/STIM_005.jpg	99
1615.027	2.554	2553.6	navigation	Trial3	navigation/STIM_005.jpg	100
1620.31	1.621	1621.3	navigation	Trial3	navigation/STIM_005.jpg	99
1624.841	1.954	1954.0	navigation	Trial3	navigation/STIM_005.jpg	99
1630.315	1.505	1505.2	navigation	Trial3	navigation/STIM_005.jpg	99
1635.266	1.973	1972.6	navigation	Trial3	navigation/STIM_006.jpg	99
1640.637	1.834	1834.4	navigation	Trial3	navigation/STIM_006.jpg	100
1646.186	3.134	3133.8	navigation	Trial3	navigation/STIM_006.jpg	100
1653.39	2.084	2084.2	navigation	Trial3	navigation/STIM_006.jpg	100
1659.446	2.845	2845.0	navigation	Trial3	navigation/STIM_006.jpg	99
1665.783	1.767	1766.6	navigation	Trial3	navigation/STIM_006.jpg	99
1671.13	2.682	2682.0	navigation	Trial3	navigation/STIM_007.jpg	100
1676.601	2.174	2173.8	navigation	Trial3	navigation/STIM_007.jpg	100
1681.363	2.851	2851.4	navigation	Trial3	navigation/STIM_007.jpg	100
1688.228	1.726	1725.9	navigation	Trial3	navigation/STIM_007.jpg	99
1692.142	1.552	1552.0	navigation	Trial3	navigation/STIM_007.jpg	99
1696.719	2.218	2217.7	navigation	Trial3	navigation/STIM_007.jpg	99
1701.125	2.69	2690.3	navigation	Trial3	navigation/STIM_008.jpg	100
1706.205	2.436	2436.5	navigation	Trial3	navigation/STIM_008.jpg	100
1712.713	2.207	2207.4	navigation	Trial3	navigation/STIM_008.jpg	100
1717.415	2.795	2794.9	navigation	Trial3	navigation/STIM_008.jpg	99
1723.362	2.451	2451.0	navigation	Trial3	navigation/STIM_008.jpg	100
1728.891	1.5	1500.2	navigation	Trial3	navigation/STIM_008.jpg	99
1733.486	2.228	2227.9	navigation	Trial3	navigation/STIM_009.jpg	100
1738.817	1.802	1802.4	navigation	Trial3	navigation/STIM_009.jpg	100
1743.379	3.198	3197.8	navigation	Trial3	navigation/STIM_009.jpg	99
1750.171	1.34	1339.9	navigation	Trial3	navigation/STIM_009.jpg	100
1753.939	1.591	1590.9	navigation	Trial3	navigation/STIM_009.jpg	100
1759.176	2.07	2069.5	navigation	Trial3	navigation/STIM_009.jpg	99
1763.819	2.144	2143.7	navigation	Trial3	navigation/STIM_010.jpg	100
1768.127	2.0	1999.6	navigation	Trial3	navigation/STIM_010.jpg	99
1774.053	2.768	2767.7	navigation	Trial3	navigation/STIM_010.jpg	99
1780.043	1.651	1651.1	navigation	Trial3	navigation/STIM_010.jpg	100
1785.332	1.45	1450.5	navigation	Trial3	navigation/STIM_010.jpg	100
1790.697	2.842	2841.5	navigation	Trial3	navigation/STIM_010.jpg	99
1795.97	3.034	3034.3	navigation	Trial3	navigation/STIM_011.jpg	100
1801.296	1.423	1422.7	navigation	Trial3	navigation/STIM_011.jpg	100
1806.012	2.081	2081.1	navigation	Trial3	navigation/STIM_011.jpg	99
1810.318	1.675	1675.4	navigation	Trial3	navigation/STIM_011.jpg	100
1815.004	2.973	2973.0	navigation	Trial3	navigation/STIM_011.jpg	100
1820.949	1.384	1383.9	navigation	Trial3	navigation/STIM_011.jpg	99
1824.991	1.221	1220.7	pointing	Trial3	pointing/STIM_000.jpg	100
1829.091	1.225	1224.8	pointing	Trial3	pointing/STIM_000.jpg	99
1833.656	1.048	1048.5	pointing	Trial3	pointing/STIM_000.jpg	100
1836.911	1.234	1234.1	pointing	Trial3	pointing/STIM_000.jpg	100
1840.706	1.337	1337.3	pointing	Trial3	pointing/STIM_000.jpg	100
1845.544	0.935	934.8	pointing	Trial3	pointing/STIM_000.jpg	100
1848.634	1.104	1103.7	pointing	Trial3	pointing/STIM_001.jpg	99
1852.886	1.095	1095.2	pointing	Trial3	pointing/STIM_001.jpg	99
1856.419	1.379	1379.4	pointing	Trial3	pointing/STIM_001.jpg	99
1861.819	0.861	860.8	pointing	Trial3	pointing/STIM_001.jpg	100
1865.515	1.343	1342.8	pointing	Trial3	pointing/STIM_001.jpg	100
1869.805	0.966	965.6	pointing	Trial3	pointing/STIM_001.jpg	100
1874.069	0.996	996.5	pointing	Trial3	pointing/STIM_002.jpg	99
1879.022	0.888	888.5	pointing	Trial3	pointing/STIM_002.jpg	100
1882.376	0.957	956.9	pointing	Trial3	pointing/STIM_002.jpg	99
1886.252	1.369	1368.8	pointing	Trial3	pointing/STIM_002.jpg	99
1890.319	0.877	876.8	pointing	Trial3	pointing/STIM_002.jpg	99
1894.039	1.218	1217.8	pointing	Trial3	pointing/STIM_002.jpg	99
1898.639	1.327	1327.3	pointing	Trial3	pointing/STIM_003.jpg	99
1902.082	0.85	849.9	pointing	Trial3	pointing/STIM_003.jpg	100
1906.686	0.983	983.2	pointing	Trial3	pointing/STIM_003.jpg	100
1910.031	0.974	974.0	pointing	Trial3	pointing/STIM_003.jpg	100
1914.457	1.305	1304.7	pointing	Trial3	pointing/STIM_003.jpg	99
1918.031	1.021	1020.6	pointing	Trial3	pointing/STIM_003.jpg	100
1922.219	0.932	931.8	pointing	Trial3	pointing/STIM_004.jpg	100
1925.287	1.355	1355.3	pointing	Trial3	pointing/STIM_004.jpg	100
1929.857	1.356	1356.2	pointing	Trial3	pointing/STIM_004.jpg	100
1934.708	1.355	1354.6	pointing	Trial3	pointing/STIM_004.jpg	99
1938.348	1.062	1062.3	pointing	Trial3	pointing/STIM_004.jpg	100
1943.011	0.866	865.9	pointing	Trial3	pointing/STIM_004.jpg	99
1947.264	1.152	1152.0	pointing	Trial3	pointing/STIM_005.jpg	100
1951.788	1.238	1238.5	pointing	Trial3	pointing/STIM_005.jpg	99
1955.205	0.963	963.3	pointing	Trial3	pointing/STIM_005.jpg	99
1959.591	0.967	966.9	pointing	Trial3	pointing/STIM_005.jpg	100
1964.062	0.954	953.7	pointing	Trial3	pointing/STIM_005.jpg	100
1968.24	1.244	1243.7	pointing	Trial3	pointing/STIM_005.jpg	100
1973.494	1.282	1281.8	pointing	Trial3	pointing/STIM_006.jpg	99
1978.153	1.007	1007.3	pointing	Trial3	pointing/STIM_006.jpg	100
1982.903	1.401	1401.4	pointing	Trial3	pointing/STIM_006.jpg	99
1986.853	1.39	1390.0	pointing	Trial3	pointing/STIM_006.jpg	99
1991.068	0.92	919.5	pointing	Trial3	pointing/STIM_006.jpg	99
1995.612	0.953	952.9	pointing	Trial3	pointing/STIM_006.jpg	99
1999.237	0.938	938.4	pointing	Trial3	pointing/STIM_007.jpg	100
2004.118	1.387	1387.2	pointing	Trial3	pointing/STIM_007.jpg	100
2008.131	1.328	1328.1	pointing	Trial3	pointing/STIM_007.jpg	100
2011.755	0.911	911.4	pointing	Trial3	pointing/STIM_007.jpg	99
2016.081	0.846	845.8	pointing	Trial3	pointing/STIM_007.jpg	99
2020.657	1.093	1092.9	pointing	Trial3	pointing/STIM_007.jpg	99
2023.987	1.14	1140.1	pointing	Trial3	pointing/STIM_008.jpg	99
2027.932	0.957	956.6	pointing	Trial3	pointing/STIM_008.jpg	99
2031.925	1.149	1148.6	pointing	Trial3	pointing/STIM_008.jpg	100
2036.66	1.164	1164.4	pointing	Trial3	pointing/STIM_008.jpg	99
2041.231	1.319	1318.8	pointing	Trial3	pointing/STIM_008.jpg	100
2045.4	1.204	1203.7	pointing	Trial3	pointing/STIM_008.jpg	100
2049.544	1.132	1131.6	pointing	Trial3	pointing/STIM_009.jpg	99
2052.78	0.804	803.6	pointing	Trial3	pointing/STIM_009.jpg	99
2056.207	0.783	783.3	pointing	Trial3	pointing/STIM_009.jpg	99
2059.19	1.021	1021.0	pointing	Trial3	pointing/STIM_009.jpg	99
2062.751	1.01	1009.7	pointing	Trial3	pointing/STIM_009.jpg	99
2067.811	0.895	894.9	pointing	Trial3	pointing/STIM_009.jpg	99
2072.038	0.912	911.9	pointing	Trial3	pointing/STIM_010.jpg	100
2075.806	1.244	1244.3	pointing	Trial3	pointing/STIM_010.jpg	99
2081.061	1.324	1324.5	pointing	Trial3	pointing/STIM_010.jpg	100
2085.084	0.943	942.6	pointing	Trial3	pointing/STIM_010.jpg	100
2089.354	1.248	1248.3	pointing	Trial3	pointing/STIM_010.jpg	100
2092.839	0.903	902.9	pointing	Trial3	pointing/STIM_010.jpg	99
2096.839	0.823	823.4	pointing	Trial3	pointing/STIM_011.jpg	99
2100.406	0.856	856.2	pointing	Trial3	pointing/STIM_011.jpg	100
2104.469	1.121	1120.8	pointing	Trial3	pointing/STIM_011.jpg	100
2108.131	1.348	1348.3	pointing	Trial3	pointing/STIM_011.jpg	100
2113.362	1.187	1186.9	pointing	Trial3	pointing/STIM_011.jpg	100
2117.993	0.917	916.6	pointing	Trial3	pointing/STIM_011.jpg	99
