onset	duration	response_time_ms	trial_type	learning_stage	stimulus	response_port
0.0	2.076	2075.9	navigation	Trial1	navigation/STIM_000.jpg	100
4.492	3.234	3233.5	navigation	Trial1	navigation/STIM_000.jpg	99
11.247	1.838	1837.5	navigation	Trial1	navigation/STIM_000.jpg	99
16.325	3.69	3690.4	navigation	Trial1	navigation/STIM_000.jpg	100
22.787	3.128	3128.0	navigation	Trial1	navigation/STIM_000.jpg	99
27.968	1.569	1568.9	navigation	Trial1	navigation/STIM_000.jpg	99
33.139	2.571	2570.8	navigation	Trial1	navigation/STIM_001.jpg	99
38.137	2.272	2271.9	navigation	Trial1	navigation/STIM_001.jpg	99
43.418	2.506	2505.9	navigation	Trial1	navigation/STIM_001.jpg	99
48.726	2.926	2926.0	navigation	Trial1	navigation/STIM_001.jpg	100
55.53	3.309	3308.7	navigation	Trial1	navigation/STIM_001.jpg	100
62.565	2.293	2293.4	navigation	Trial1	navigation/STIM_001.jpg	100
67.057	3.87	3870.0	navigation	Trial1	navigation/STIM_002.jpg	100
73.8	4.127	4126.6	navigation	Trial1	navigation/STIM_002.jpg	99
81.307	2.663	2663.3	navigation	Trial1	navigation/STIM_002.jpg	99
87.317	3.002	3001.5	navigation	Trial1	navigation/STIM_002.jpg	100
92.754	2.274	2274.5	navigation	Trial1	navigation/STIM_002.jpg	99
97.987	2.828	2828.5	navigation	Trial1	navigation/STIM_002.jpg	100
103.3	3.829	3829.4	navigation	Trial1	navigation/STIM_003.jpg	99
110.334	3.376	3375.5	navigation	Trial1	navigation/STIM_003.jpg	99
116.605	2.866	2866.1	navigation	Trial1	navigation/STIM_003.jpg	99
121.968	2.336	2335.9	navigation	Trial1	navigation/STIM_003.jpg	99
127.891	2.896	2895.7	navigation	Trial1	navigation/STIM_003.jpg	99
134.419	3.087	3087.4	navigation	Trial1	navigation/STIM_003.jpg	100
140.599	2.086	2085.5	navigation	Trial1	navigation/STIM_004.jpg	100
145.953	2.914	2913.9	navigation	Trial1	navigation/STIM_004.jpg	100
151.106	3.415	3415.4	navigation	Trial1	navigation/STIM_004.jpg	100
157.258	1.842	1842.3	navigation	Trial1	navigation/STIM_004.jpg	99
162.221	1.863	1862.9	navigation	Trial1	navigation/STIM_004.jpg	100
167.464	2.392	2391.7	navigation	Trial1	navigation/STIM_004.jpg	99
172.29	2.15	2150.4	navigation	Trial1	navigation/STIM_005.jpg	99
177.676	3.179	3178.9	navigation	Trial1	navigation/STIM_005.jpg	99
184.313	3.011	3011.4	navigation	Trial1	navigation/STIM_005.jpg	99
189.553	2.346	2346.5	navigation	Trial1	navigation/STIM_005.jpg	100
194.981	3.531	3531.2	navigation	Trial1	navigation/STIM_005.jpg	100
201.297	2.152	2152.3	navigation	Trial1	navigation/STIM_005.jpg	99
205.757	3.555	3554.9	navigation	Trial1	navigation/STIM_006.jpg	100
213.273	2.29	2289.9	navigation	Trial1	navigation/STIM_006.jpg	99
218.205	2.427	2426.8	navigation	Trial1	navigation/STIM_006.jpg	100
223.149	2.614	2613.5	navigation	Trial1	navigation/STIM_006.jpg	99
229.272	2.62	2620.2	navigation	Trial1	navigation/STIM_006.jpg	99
235.094	2.298	2298.0	navigation	Trial1	navigation/STIM_006.jpg	99
241.371	4.122	4121.8	navigation	Trial1	navigation/STIM_007.jpg	100
248.726	1.749	1748.9	navigation	Trial1	navigation/STIM_007.jpg	100
254.44	2.166	2166.4	navigation	Trial1	navigation/STIM_007.jpg	99
259.566	3.49	3490.2	navigation	Trial1	navigation/STIM_007.jpg	99
266.95	2.969	2968.9	navigation	Trial1	navigation/STIM_007.jpg	100
272.617	2.532	2532.2	navigation	Trial1	navigation/STIM_007.jpg	99
279.128	2.208	2208.5	navigation	Trial1	navigation/STIM_008.jpg	100
283.51	2.702	2702.0	navigation	Trial1	navigation/STIM_008.jpg	100
288.648	2.113	2113.0	navigation	Trial1	navigation/STIM_008.jpg	99
294.146	2.188	2188.0	navigation	Trial1	navigation/STIM_008.jpg	99
299.023	2.632	2631.9	navigation	Trial1	navigation/STIM_008.jpg	99
303.849	2.798	2798.1	navigation	Trial1	navigation/STIM_008.jpg	99
310.579	1.878	1877.8	navigation	Trial1	navigation/STIM_009.jpg	99
314.873	3.318	3317.6	navigation	Trial1	navigation/STIM_009.jpg	99
321.444	2.004	2003.8	navigation	Trial1	navigation/STIM_009.jpg	99
326.677	2.602	2602.1	navigation	Trial1	navigation/STIM_009.jpg	100
331.955	3.392	3392.1	navigation	Trial1	navigation/STIM_009.jpg	100
338.971	2.708	2707.7	navigation	Trial1	navigation/STIM_009.jpg	99
343.813	2.205	2205.3	navigation	Trial1	navigation/STIM_010.jpg	99
349.108	4.302	4301.6	navigation	Trial1	navigation/STIM_010.jpg	99
355.8	3.993	3992.6	navigation	Trial1	navigation/STIM_010.jpg	100
362.81	3.384	3383.8	navigation	Trial1	navigation/STIM_010.jpg	100
368.373	2.302	2302.0	navigation	Trial1	navigation/STIM_010.jpg	99
373.95	3.226	3225.6	navigation	Trial1	navigation/STIM_010.jpg	100
380.021	3.071	3071.4	navigation	Trial1	navigation/STIM_011.jpg	99
386.852	2.809	2809.1	navigation	Trial1	navigation/STIM_011.jpg	100
393.364	3.241	3240.9	navigation	Trial1	navigation/STIM_011.jpg	100
399.653	3.222	3221.9	navigation	Trial1	navigation/STIM_011.jpg	99
405.264	3.391	3391.1	navigation	Trial1	navigation/STIM_011.jpg	100
410.673	3.35	3349.8	navigation	Trial1	navigation/STIM_011.jpg	99
416.478	1.028	1028.1	pointing	Trial1	pointing/STIM_000.jpg	100
421.191	1.174	1173.9	pointing	Trial1	pointing/STIM_000.jpg	99
424.465	0.848	847.9	pointing	Trial1	pointing/STIM_000.jpg	100
427.583	1.144	1143.9	pointing	Trial1	pointing/STIM_000.jpg	100
431.088	0.977	977.1	pointing	Trial1	pointing/STIM_000.jpg	100
435.93	0.956	956.0	pointing	Trial1	pointing/STIM_000.jpg	99
440.73	1.013	1013.0	pointing	Trial1	pointing/STIM_001.jpg	99
444.971	1.138	1138.5	pointing	Trial1	pointing/STIM_001.jpg	99
448.306	1.288	1287.8	pointing	Trial1	pointing/STIM_001.jpg	99
453.053	1.342	1341.5	pointing	Trial1	pointing/STIM_001.jpg	99
456.688	1.164	1164.0	pointing	Trial1	pointing/STIM_001.jpg	99
460.485	1.046	1046.2	pointing	Trial1	pointing/STIM_001.jpg	100
464.773	1.006	1006.4	pointing	Trial1	pointing/STIM_002.jpg	100
469.184	0.951	951.0	pointing	Trial1	pointing/STIM_002.jpg	100
473.314	0.876	875.9	pointing	Trial1	pointing/STIM_002.jpg	100
476.809	1.291	1290.8	pointing	Trial1	pointing/STIM_002.jpg	99
481.867	0.917	917.2	pointing	Trial1	pointing/STIM_002.jpg	100
486.658	1.201	1200.9	pointing	Trial1	pointing/STIM_002.jpg	99
490.8	1.206	1206.2	pointing	Trial1	pointing/STIM_003.jpg	100
495.788	0.928	928.3	pointing	Trial1	pointing/STIM_003.jpg	100
499.716	1.312	1312.3	pointing	Trial1	pointing/STIM_003.jpg	100
503.235	1.044	1044.4	pointing	Trial1	pointing/STIM_003.jpg	100
507.341	1.119	1118.6	pointing	Trial1	pointing/STIM_003.jpg	99
511.383	1.334	1334.2	pointing	Trial1	pointing/STIM_003.jpg	100
516.269	1.24	1240.5	pointing	Trial1	pointing/STIM_004.jpg	100
519.67	1.086	1086.5	pointing	Trial1	pointing/STIM_004.jpg	99
524.566	1.053	1052.8	pointing	Trial1	pointing/STIM_004.jpg	100
528.937	1.348	1347.9	pointing	Trial1	pointing/STIM_004.jpg	99
533.803	0.8	799.7	pointing	Trial1	pointing/STIM_004.jpg	99
537.331	1.035	1035.2	pointing	Trial1	pointing/STIM_004.jpg	100
542.332	1.178	1177.5	pointing	Trial1	pointing/STIM_005.jpg	99
546.549	1.308	1308.5	pointing	Trial1	pointing/STIM_005.jpg	100
551.598	1.169	1169.1	pointing	Trial1	pointing/STIM_005.jpg	100
555.706	1.164	1163.7	pointing	Trial1	pointing/STIM_005.jpg	100
559.896	1.192	1191.7	pointing	Trial1	pointing/STIM_005.jpg	100
564.471	0.839	838.8	pointing	Trial1	pointing/STIM_005.jpg	100
567.523	1.225	1225.4	pointing	Trial1	pointing/STIM_006.jpg	100
572.231	1.227	1226.9	pointing	Trial1	pointing/STIM_006.jpg	99
577.431	1.14	1139.7	pointing	Trial1	pointing/STIM_006.jpg	100
581.544	1.259	1259.0	pointing	Trial1	pointing/STIM_006.jpg	99
585.93	1.348	1348.0	pointing	Trial1	pointing/STIM_006.jpg	99
590.103	0.786	786.0	pointing	Trial1	pointing/STIM_006.jpg	99
594.683	1.164	1163.9	pointing	Trial1	pointing/STIM_007.jpg	99
598.997	1.026	1025.7	pointing	Trial1	pointing/STIM_007.jpg	99
603.756	1.032	1032.3	pointing	Trial1	pointing/STIM_007.jpg	99
608.576	0.855	854.8	pointing	Trial1	pointing/STIM_007.jpg	100
613.168	1.227	1226.6	pointing	Trial1	pointing/STIM_007.jpg	99
616.595	0.964	964.1	pointing	Trial1	pointing/STIM_007.jpg	99
620.663	1.0	999.7	pointing	Trial1	pointing/STIM_008.jpg	99
625.325	1.001	1001.3	pointing	Trial1	pointing/STIM_008.jpg	99
630.208	0.913	912.6	pointing	Trial1	pointing/STIM_008.jpg	99
633.319	0.934	934.1	pointing	Trial1	pointing/STIM_008.jpg	100
637.267	1.167	1167.0	pointing	Trial1	pointing/STIM_008.jpg	99
641.583	1.069	1068.9	pointing	Trial1	pointing/STIM_008.jpg	100
644.683	1.167	1166.9	pointing	Trial1	pointing/STIM_009.jpg	100
647.9	1.219	1219.1	pointing	Trial1	pointing/STIM_009.jpg	100
651.639	0.871	871.2	pointing	Trial1	pointing/STIM_009.jpg	100
655.063	1.034	1033.7	pointing	Trial1	pointing/STIM_009.jpg	100
659.947	0.74	739.9	pointing	Trial1	pointing/STIM_009.jpg	100
663.346	1.177	1177.0	pointing	Trial1	pointing/STIM_009.jpg	100
667.282	0.969	969.4	pointing	Trial1	pointing/STIM_010.jpg	99
671.999	1.208	1208.5	pointing	Trial1	pointing/STIM_010.jpg	100
676.603	1.139	1138.9	pointing	Trial1	pointing/STIM_010.jpg	99
680.121	1.317	1317.3	pointing	Trial1	pointing/STIM_010.jpg	100
684.171	1.122	1122.4	pointing	Trial1	pointing/STIM_010.jpg	100
687.471	1.235	1235.0	pointing	Trial1	pointing/STIM_010.jpg	99
691.014	1.147	1147.1	pointing	Trial1	pointing/STIM_011.jpg	99
694.258	1.216	1215.7	pointing	Trial1	pointing/STIM_011.jpg	99
697.751	0.88	880.4	pointing	Trial1	pointing/STIM_011.jpg	99
701.832	1.342	1341.7	pointing	Trial1	pointing/STIM_011.jpg	100
706.878	1.014	1013.8	pointing	Trial1	pointing/STIM_011.jpg	99
711.586	0.74	739.9	pointing	Trial1	pointing/STIM_011.jpg	100
715.751	3.174	3173.8	navigation	Trial2	navigation/STIM_000.jpg	100
721.118	3.306	3305.7	navigation	Trial2	navigation/STIM_000.jpg	99
727.156	1.555	1555.0	navigation	Trial2	navigation/STIM_000.jpg	100
732.202	1.469	1469.3	navigation	Trial2	navigation/STIM_000.jpg	100
736.773	1.308	1307.9	navigation	Trial2	navigation/STIM_000.jpg	99
740.561	2.422	2421.8	navigation	Trial2	navigation/STIM_000.jpg	100
745.083	2.334	2334.0	navigation	Trial2	navigation/STIM_001.jpg	99
750.304	2.41	2409.9	navigation	Trial2	navigation/STIM_001.jpg	99
754.754	2.181	2180.7	navigation	Trial2	navigation/STIM_001.jpg	100
760.735	1.934	1933.9	navigation	Trial2	navigation/STIM_001.jpg	100
765.183	2.286	2286.3	navigation	Trial2	navigation/STIM_001.jpg	100
769.684	2.278	2277.9	navigation	Trial2	navigation/STIM_001.jpg	99
775.1	1.708	1708.1	navigation	Trial2	navigation/STIM_002.jpg	100
779.96	1.844	1843.8	navigation	Trial2	navigation/STIM_002.jpg	99
785.747	1.623	1623.3	navigation	Trial2	navigation/STIM_002.jpg	100
789.618	2.734	2733.8	navigation	Trial2	navigation/STIM_002.jpg	100
795.409	2.11	2110.4	navigation	Trial2	navigation/STIM_002.jpg	99
801.379	1.29	1290.2	navigation	Trial2	navigation/STIM_002.jpg	99
804.69	2.254	2254.2	navigation	Trial2	navigation/STIM_003.jpg	100
810.575	2.986	2985.5	navigation	Trial2	navigation/STIM_003.jpg	99
816.442	3.229	3229.2	navigation	Trial2	navigation/STIM_003.jpg	100
822.911	2.419	2419.0	navigation	Trial2	navigation/STIM_003.jpg	100
829.282	2.74	2740.2	navigation	Trial2	navigation/STIM_003.jpg	100
835.282	1.287	1287.0	navigation	Trial2	navigation/STIM_003.jpg	99
839.934	3.264	3264.5	navigation	Trial2	navigation/STIM_004.jpg	100
845.912	2.178	2177.5	navigation	Trial2	navigation/STIM_004.jpg	99
850.154	3.092	3092.5	navigation	Trial2	navigation/STIM_004.jpg	100
856.382	2.073	2072.6	navigation	Trial2	navigation/STIM_004.jpg	99
861.832	1.365	1365.4	navigation	Trial2	navigation/STIM_004.jpg	100
867.084	2.253	2253.0	navigation	Trial2	navigation/STIM_004.jpg	99
872.04	2.198	2197.9	navigation	Trial2	navigation/STIM_005.jpg	99
877.216	2.713	2712.7	navigation	Trial2	navigation/STIM_005.jpg	99
882.79	2.313	2312.9	navigation	Trial2	navigation/STIM_005.jpg	99
887.738	2.432	2432.5	navigation	Trial2	navigation/STIM_005.jpg	100
893.607	2.792	2791.5	navigation	Trial2	navigation/STIM_005.jpg	100
898.758	2.433	2433.3	navigation	Trial2	navigation/STIM_005.jpg	99
905.107	1.674	1674.4	navigation	Trial2	navigation/STIM_006.jpg	100
910.043	2.544	2544.1	navigation	Trial2	navigation/STIM_006.jpg	99
916.434	1.877	1877.1	navigation	Trial2	navigation/STIM_006.jpg	99
921.954	2.785	2784.8	navigation	Trial2	navigation/STIM_006.jpg	100
928.625	2.373	2373.3	navigation	Trial2	navigation/STIM_006.jpg	100
933.269	2.192	2191.5	navigation	Trial2	navigation/STIM_006.jpg	100
937.707	2.676	2676.4	navigation	Trial2	navigation/STIM_007.jpg	100
943.34	2.09	2090.2	navigation	Trial2	navigation/STIM_007.jpg	100
948.391	2.736	2735.9	navigation	Trial2	navigation/STIM_007.jpg	100
953.991	2.208	2208.0	navigation	Trial2	navigation/STIM_007.jpg	99
959.494	1.749	1749.1	navigation	Trial2	navigation/STIM_007.jpg	100
965.022	3.167	3167.4	navigation	Trial2	navigation/STIM_007.jpg	100
971.684	2.091	2091.0	navigation	Trial2	navigation/STIM_008.jpg	99
977.492	1.482	1482.5	navigation	Trial2	navigation/STIM_008.jpg	99
981.057	1.373	1372.7	navigation	Trial2	navigation/STIM_008.jpg	99
985.139	2.653	2652.7	navigation	Trial2	navigation/STIM_008.jpg	99
991.661	2.474	2473.6	navigation	Trial2	navigation/STIM_008.jpg	99
996.423	2.09	2089.6	navigation	Trial2	navigation/STIM_008.jpg	99
1001.841	2.379	2379.1	navigation	Trial2	navigation/STIM_009.jpg	100
1006.494	3.324	3324.2	navigation	Trial2	navigation/STIM_009.jpg	99
1013.089	3.303	3303.2	navigation	Trial2	navigation/STIM_009.jpg	100
1019.247	2.436	2436.5	navigation	Trial2	navigation/STIM_009.jpg	100
1023.922	1.597	1596.8	navigation	Trial2	navigation/STIM_009.jpg	99
1027.76	2.217	2216.9	navigation	Trial2	navigation/STIM_009.jpg	100
1032.861	2.925	2925.0	navigation	Trial2	navigation/STIM_010.jpg	100
1037.861	3.109	3108.8	navigation	Trial2	navigation/STIM_010.jpg	100
1044.717	2.394	2393.5	navigation	Trial2	navigation/STIM_010.jpg	99
1050.883	2.59	2589.7	navigation	Trial2	navigation/STIM_010.jpg	99
1055.604	1.56	1559.5	navigation	Trial2	navigation/STIM_010.jpg	99
1061.109	1.672	1672.1	navigation	Trial2	navigation/STIM_010.jpg	100
1065.214	2.4	2399.5	navigation	Trial2	navigation/STIM_011.jpg	99
1070.249	3.284	3284.1	navigation	Trial2	navigation/STIM_011.jpg	99
1076.435	1.481	1481.0	navigation	Trial2	navigation/STIM_011.jpg	99
1081.673	1.866	1866.1	navigation	Trial2	navigation/STIM_011.jpg	100
1087.444	2.897	2897.4	navigation	Trial2	navigation/STIM_011.jpg	100
1093.988	1.583	1582.6	navigation	Trial2	navigation/STIM_011.jpg	100
1099.216	1.283	1283.1	pointing	Trial2	pointing/STIM_000.jpg	100
1103.751	0.744	743.7	pointing	Trial2	pointing/STIM_000.jpg	99
1108.295	1.093	1093.4	pointing	Trial2	pointing/STIM_000.jpg	99
1111.636	0.744	743.7	pointing	Trial2	pointing/STIM_000.jpg	99
1116.026	1.169	1169.0	pointing	Trial2	pointing/STIM_000.jpg	100
1119.462	0.823	823.3	pointing	Trial2	pointing/STIM_000.jpg	100
1122.595	0.909	908.9	pointing	Trial2	pointing/STIM_001.jpg	100
1125.845	0.907	906.7	pointing	Trial2	pointing/STIM_001.jpg	100
1130.13	1.026	1026.4	pointing	Trial2	pointing/STIM_001.jpg	99
1133.411	0.739	739.3	pointing	Trial2	pointing/STIM_001.jpg	100
1137.058	1.017	1016.9	pointing	Trial2	pointing/STIM_001.jpg	99
1141.114	1.349	1348.6	pointing	Trial2	pointing/STIM_001.jpg	100
1145.576	0.764	764.1	pointing	Trial2	pointing/STIM_002.jpg	99
1149.431	1.314	1313.8	pointing	Trial2	pointing/STIM_002.jpg	100
1154.333	0.939	939.4	pointing	Trial2	pointing/STIM_002.jpg	100
1158.394	0.97	970.3	pointing	Trial2	pointing/STIM_002.jpg	99
1162.097	1.09	1090.4	pointing	Trial2	pointing/STIM_002.jpg	100
1166.655	1.115	1115.1	pointing	Trial2	pointing/STIM_002.jpg	100
1170.411	1.129	1128.6	pointing	Trial2	pointing/STIM_003.jpg	99
1174.115	1.301	1301.2	pointing	Trial2	pointing/STIM_003.jpg	100
1177.48	0.742	742.0	pointing	Trial2	pointing/STIM_003.jpg	100
1180.78	0.737	737.4	pointing	Trial2	pointing/STIM_003.jpg	99
1184.868	1.306	1305.8	pointing	Trial2	pointing/STIM_003.jpg	100
1189.071	1.099	1098.6	pointing	Trial2	pointing/STIM_003.jpg	100
1192.441	0.78	779.9	pointing	Trial2	pointing/STIM_004.jpg	100
1195.644	1.192	1192.5	pointing	Trial2	pointing/STIM_004.jpg	99
1199.996	0.756	756.3	pointing	Trial2	pointing/STIM_004.jpg	100
1204.425	1.136	1135.7	pointing	Trial2	pointing/STIM_004.jpg	100
1208.773	1.036	1036.5	pointing	Trial2	pointing/STIM_004.jpg	99
1211.853	1.312	1312.2	pointing	Trial2	pointing/STIM_004.jpg	99
1215.656	0.924	923.7	pointing	Trial2	pointing/STIM_005.jpg	100
1220.502	0.862	862.3	pointing	Trial2	pointing/STIM_005.jpg	99
1224.974	1.346	1346.2	pointing	Trial2	pointing/STIM_005.jpg	100
1229.014	1.223	1223.3	pointing	Trial2	pointing/STIM_005.jpg	100
1232.445	0.792	791.6	pointing	Trial2	pointing/STIM_005.jpg	99
1236.252	1.07	1070.0	pointing	Trial2	pointing/STIM_005.jpg	99
1241.168	1.269	1268.9	pointing	Trial2	pointing/STIM_006.jpg	100
1245.269	1.148	1147.7	pointing	Trial2	pointing/STIM_006.jpg	100
1249.168	1.074	1073.8	pointing	Trial2	pointing/STIM_006.jpg	100
1252.902	1.252	1252.1	pointing	Trial2	pointing/STIM_006.jpg	99
1256.666	1.323	1322.9	pointing	Trial2	pointing/STIM_006.jpg	99
1260.505	0.951	950.8	pointing	Trial2	pointing/STIM_006.jpg	99
1265.427	0.94	940.1	pointing	Trial2	pointing/STIM_007.jpg	99
1269.948	1.285	1284.8	pointing	Trial2	pointing/STIM_007.jpg	99
1274.631	1.155	1154.8	pointing	Trial2	pointing/STIM_007.jpg	100
1278.433	0.729	729.3	pointing	Trial2	pointing/STIM_007.jpg	100
1282.384	1.15	1149.8	pointing	Trial2	pointing/STIM_007.jpg	99
1286.138	1.02	1020.4	pointing	Trial2	pointing/STIM_007.jpg	100
1290.694	0.953	952.8	pointing	Trial2	pointing/STIM_008.jpg	100
1294.259	1.222	1222.2	pointing	Trial2	pointing/STIM_008.jpg	99
1298.215	0.909	908.7	pointing	Trial2	pointing/STIM_008.jpg	99
1301.819	1.297	1297.1	pointing	Trial2	pointing/STIM_008.jpg	99
1305.845	0.992	991.8	pointing	Trial2	pointing/STIM_008.jpg	99
1309.616	1.255	1254.7	pointing	Trial2	pointing/STIM_008.jpg	99
1313.585	1.059	1058.7	pointing	Trial2	pointing/STIM_009.jpg	99
1318.629	1.2	1200.4	pointing	Trial2	pointing/STIM_009.jpg	100
1322.719	1.342	1341.7	pointing	Trial2	pointing/STIM_009.jpg	99
1326.082	1.098	1098.5	pointing	Trial2	pointing/STIM_009.jpg	99
1330.752	0.994	994.2	pointing	Trial2	pointing/STIM_009.jpg	100
1334.127	0.903	902.9	pointing	Trial2	pointing/STIM_009.jpg	99
1337.094	1.155	1154.7	pointing	Trial2	pointing/STIM_010.jpg	100
1340.524	1.353	1352.6	pointing	Trial2	pointing/STIM_010.jpg	99
1344.524	1.081	1080.6	pointing	Trial2	pointing/STIM_010.jpg	100
1347.886	0.832	831.8	pointing	Trial2	pointing/STIM_010.jpg	100
1352.438	0.982	982.2	pointing	Trial2	pointing/STIM_010.jpg	100
1356.391	1.232	1231.8	pointing	Trial2	pointing/STIM_010.jpg	99
1360.568	1.067	1066.8	pointing	Trial2	pointing/STIM_011.jpg	99
1364.407	0.922	921.7	pointing	Trial2	pointing/STIM_011.jpg	99
1368.177	0.755	755.2	pointing	Trial2	pointing/STIM_011.jpg	99
1371.669	1.22	1220.2	pointing	Trial2	pointing/STIM_011.jpg	100
1376.029	1.214	1213.7	pointing	Trial2	pointing/STIM_011.jpg	99
1380.942	1.182	1182.5	pointing	Trial2	pointing/STIM_011.jpg	99
1384.248	1.748	1748.2	navigation	Trial3	navigation/STIM_000.jpg	100
1388.43	1.401	1401.1	navigation	Trial3	navigation/STIM_000.jpg	99
1393.534	1.391	1390.9	navigation	Trial3	navigation/STIM_000.jpg	99
1397.668	2.5	2500.0	navigation	Trial3	navigation/STIM_000.jpg	100
1402.598	2.856	2856.4	navigation	Trial3	navigation/STIM_000.jpg	99
1407.936	3.162	3162.5	navigation	Trial3	navigation/STIM_000.jpg	99
1413.769	3.006	3006.3	navigation	Trial3	navigation/STIM_001.jpg	99
1420.026	2.086	2085.5	navigation	Trial3	navigation/STIM_001.jpg	99
1424.861	1.891	1890.9	navigation	Trial3	navigation/STIM_001.jpg	100
1429.674	1.34	1340.1	navigation	Trial3	navigation/STIM_001.jpg	100
1433.88	3.133	3133.3	navigation	Trial3	navigation/STIM_001.jpg	99
1440.741	2.071	2070.7	navigation	Trial3	navigation/STIM_001.jpg	99
1446.576	2.994	2993.8	navigation	Trial3	navigation/STIM_002.jpg	100
1451.918	2.956	2955.9	navigation	Trial3	navigation/STIM_002.jpg	99
1457.781	2.815	2815.4	navigation	Trial3	navigation/STIM_002.jpg	99
1462.906	3.142	3141.6	navigation	Trial3	navigation/STIM_002.jpg	99
1468.974	1.469	1469.2	navigation	Trial3	navigation/STIM_002.jpg	99
1473.183	2.564	2563.6	navigation	Trial3	navigation/STIM_002.jpg	99
1479.689	1.757	1756.6	navigation	Trial3	navigation/STIM_003.jpg	100
1484.918	2.634	2634.4	navigation	Trial3	navigation/STIM_003.jpg	99
1489.765	2.518	2518.3	navigation	Trial3	navigation/STIM_003.jpg	100
1494.912	2.343	2343.2	navigation	Trial3	navigation/STIM_003.jpg	100
1500.267	2.154	2153.8	navigation	Trial3	navigation/STIM_003.jpg	99
1506.12	2.465	2465.0	navigation	Trial3	navigation/STIM_003.jpg	99
1510.909	2.575	2575.0	navigation	Trial3	navigation/STIM_004.jpg	100
1517.205	1.59	1590.1	navigation	Trial3	navigation/STIM_004.jpg	100
1521.1	3.017	3016.7	navigation	Trial3	navigation/STIM_004.jpg	100
1527.212	1.774	1773.8	navigation	Trial3	navigation/STIM_004.jpg	100
1531.693	2.916	2915.9	navigation	Trial3	navigation/STIM_004.jpg	100
1537.002	2.473	2473.4	navigation	Trial3	navigation/STIM_004.jpg	100
1543.199	2.369	2369.0	navigation	Trial3	navigation/STIM_005.jpg	100
1549.362	2.263	2262.6	navigation	Trial3	navigation/STIM_005.jpg	99
1555.401	1.362	1362.5	navigation	Trial3	navigation/STIM_005.jpg	100
1560.377	1.406	1405.7	navigation	Trial3	navigation/STIM_005.jpg	99
1564.916	1.809	1808.9	navigation	Trial3	navigation/STIM_005.jpg	99
1568.749	2.84	2840.2	navigation	Trial3	navigation/STIM_005.jpg	99
1573.854	2.823	2823.2	navigation	Trial3	navigation/STIM_006.jpg	99
1579.284	2.564	2564.3	navigation	Trial3	navigation/STIM_006.jpg	100
1585.567	2.497	2497.2	navigation	Trial3	navigation/STIM_006.jpg	100
1591.045	1.654	1654.5	navigation	Trial3	navigation/STIM_006.jpg	100
1595.951	1.734	1734.3	navigation	Trial3	navigation/STIM_006.jpg	99
1600.904	2.268	2268.0	navigation	Trial3	navigation/STIM_006.jpg	99
1606.305	2.91	2910.5	navigation	Trial3	navigation/STIM_007.jpg	100
1611.611	1.78	1779.9	navigation	Trial3	navigation/STIM_007.jpg	100
1616.682	1.898	1897.8	navigation	Trial3	navigation/STIM_007.jpg	100
1621.062	1.706	1705.6	navigation	Trial3	navigation/STIM_007.jpg	99
1624.986	1.684	1684.4	navigation	Trial3	navigation/STIM_007.jpg	99
1630.082	1.953	1952.6	navigation	Trial3	navigation/STIM_007.jpg	99
1634.179	1.855	1854.6	navigation	Trial3	navigation/STIM_008.jpg	100
1638.353	1.879	1879.0	navigation	Trial3	navigation/STIM_008.jpg	100
1642.611	1.666	1666.2	navigation	Trial3	navigation/STIM_008.jpg	100
1647.316	2.215	2215.3	navigation	Trial3	navigation/STIM_008.jpg	99
1652.41	1.885	1884.9	navigation	Trial3	navigation/STIM_008.jpg	100
1657.842	1.321	1321.3	navigation	Trial3	navigation/STIM_008.jpg	99
1662.744	1.532	1531.9	navigation	Trial3	navigation/STIM_009.jpg	100
1667.825	2.392	2391.6	navigation	Trial3	navigation/STIM_009.jpg	100
1673.07	3.041	3041.2	navigation	Trial3	navigation/STIM_009.jpg	99
1679.634	2.151	2151.1	navigation	Trial3	navigation/STIM_009.jpg	100
1684.166	1.626	1625.5	navigation	Trial3	navigation/STIM_009.jpg	100
1688.866	2.192	2192.2	navigation	Trial3	navigation/STIM_009.jpg	99
1693.745	2.791	2791.2	navigation	Trial3	navigation/STIM_010.jpg	100
1698.543	2.187	2187.4	navigation	Trial3	navigation/STIM_010.jpg	99
1703.415	1.368	1367.9	navigation	Trial3	navigation/STIM_010.jpg	99
1707.002	2.183	2183.2	navigation	Trial3	navigation/STIM_010.jpg	100
1712.754	2.554	2554.2	navigation	Trial3	navigation/STIM_010.jpg	100
1718.088	2.541	2541.2	navigation	Trial3	navigation/STIM_010.jpg	99
1724.024	2.499	2499.2	navigation	Trial3	navigation/STIM_011.jpg	100
1728.826	2.932	2931.8	navigation	Trial3	navigation/STIM_011.jpg	100
1734.429	2.89	2889.6	navigation	Trial3	navigation/STIM_011.jpg	99
1739.925	2.47	2470.5	navigation	Trial3	navigation/STIM_011.jpg	100
1744.993	2.287	2287.0	navigation	Trial3	navigation/STIM_011.jpg	100
1749.744	1.926	1925.9	navigation	Trial3	navigation/STIM_011.jpg	99
1753.996	1.018	1018.1	pointing	Trial3	pointing/STIM_000.jpg	100
1758.925	1.23	1230.1	pointing	Trial3	pointing/STIM_000.jpg	99
1763.876	1.07	1070.3	pointing	Trial3	pointing/STIM_000.jpg	100
1768.727	1.044	1044.0	pointing	Trial3	pointing/STIM_000.jpg	100
1772.352	0.882	882.4	pointing	Trial3	pointing/STIM_000.jpg	100
1775.419	1.311	1310.9	pointing	Trial3	pointing/STIM_000.jpg	100
1779.268	0.83	829.6	pointing	Trial3	pointing/STIM_001.jpg	99
1782.967	0.922	922.3	pointing	Trial3	pointing/STIM_001.jpg	99
1787.178	1.043	1042.7	pointing	Trial3	pointing/STIM_001.jpg	99
1791.572	1.326	1325.7	pointing	Trial3	pointing/STIM_001.jpg	100
1796.007	1.352	1351.9	pointing	Trial3	pointing/STIM_001.jpg	100
1800.539	1.299	1299.2	pointing	Trial3	pointing/STIM_001.jpg	100
1805.367	1.139	1138.7	pointing	Trial3	pointing/STIM_002.jpg	99
1808.746	1.218	1218.4	pointing	Trial3	pointing/STIM_002.jpg	100
1812.408	0.853	853.3	pointing	Trial3	pointing/STIM_002.jpg	99
1816.344	0.958	958.0	pointing	Trial3	pointing/STIM_002.jpg	99
1819.891	1.262	1261.6	pointing	Trial3	pointing/STIM_002.jpg	99
1824.389	1.238	1238.2	pointing	Trial3	pointing/STIM_002.jpg	99
1828.791	0.982	982.5	pointing	Trial3	pointing/STIM_003.jpg	99
1833.553	0.984	983.5	pointing	Trial3	pointing/STIM_003.jpg	100
1838.151	0.875	875.4	pointing	Trial3	pointing/STIM_003.jpg	100
1842.585	0.838	837.8	pointing	Trial3	pointing/STIM_003.jpg	100
1845.752	1.047	1046.9	pointing	Trial3	pointing/STIM_003.jpg	99
1850.411	0.878	878.0	pointing	Trial3	pointing/STIM_003.jpg	100
1854.347	1.267	1266.8	pointing	Trial3	pointing/STIM_004.jpg	100
1858.59	1.334	1334.1	pointing	Trial3	pointing/STIM_004.jpg	100
1861.948	1.175	1175.2	pointing	Trial3	pointing/STIM_004.jpg	100
1866.725	1.295	1294.6	pointing	Trial3	pointing/STIM_004.jpg	99
1870.937	1.342	1342.5	pointing	Trial3	pointing/STIM_004.jpg	100
1875.227	0.894	893.9	pointing	Trial3	pointing/STIM_004.jpg	99
1879.806	0.986	985.6	pointing	Trial3	pointing/STIM_005.jpg	100
1882.873	1.296	1295.7	pointing	Trial3	pointing/STIM_005.jpg	99
1886.779	1.1	1100.2	pointing	Trial3	pointing/STIM_005.jpg	99
1891.031	0.855	855.3	pointing	Trial3	pointing/STIM_005.jpg	100
1894.128	0.893	893.2	pointing	Trial3	pointing/STIM_005.jpg	100
1898.385	1.107	1106.6	pointing	Trial3	pointing/STIM_005.jpg	100
1902.312	1.016	1015.8	pointing	Trial3	pointing/STIM_006.jpg	99
1907.259	0.954	954.4	pointing	Trial3	pointing/STIM_006.jpg	100
1911.157	1.347	1347.0	pointing	Trial3	pointing/STIM_006.jpg	99
1914.717	0.812	811.7	pointing	Trial3	pointing/STIM_006.jpg	99
1918.733	1.026	1025.8	pointing	Trial3	pointing/STIM_006.jpg	99
1923.536	0.761	761.1	pointing	Trial3	pointing/STIM_006.jpg	99
1926.995	1.032	1031.8	pointing	Trial3	pointing/STIM_007.jpg	100
1930.32	0.881	880.8	pointing	Trial3	pointing/STIM_007.jpg	100
1933.504	1.102	1102.4	pointing	Trial3	pointing/STIM_007.jpg	100
1937.36	0.786	786.5	pointing	Trial3	pointing/STIM_007.jpg	99
1941.342	0.95	950.4	pointing	Trial3	pointing/STIM_007.jpg	99
1945.772	0.963	963.1	pointing	Trial3	pointing/STIM_007.jpg	99
1949.837	0.748	747.9	pointing	Trial3	pointing/STIM_008.jpg	99
1953.449	1.112	1112.3	pointing	Trial3	pointing/STIM_008.jpg	99
1956.76	0.916	915.9	pointing	Trial3	pointing/STIM_008.jpg	100
1960.506	0.971	970.9	pointing	Trial3	pointing/STIM_008.jpg	99
1965.414	1.077	1077.2	pointing	Trial3	pointing/STIM_008.jpg	100
1969.499	0.771	771.0	pointing	Trial3	pointing/STIM_008.jpg	100
1973.876	1.222	1221.5	pointing	Trial3	pointing/STIM_009.jpg	99
1978.553	0.815	814.9	pointing	Trial3	pointing/STIM_009.jpg	99
1982.639	1.319	1318.8	pointing	Trial3	pointing/STIM_009.jpg	99
1987.784	0.948	947.7	pointing	Trial3	pointing/STIM_009.jpg	99
1992.006	1.011	1011.2	pointing	Trial3	pointing/STIM_009.jpg	99
1996.332	1.266	1265.6	pointing	Trial3	pointing/STIM_009.jpg	99
2000.803	1.23	1230.1	pointing	Trial3	pointing/STIM_010.jpg	100
2004.447	1.134	1134.2	pointing	Trial3	pointing/STIM_010.jpg	99
2008.528	0.789	789.1	pointing	Trial3	pointing/STIM_010.jpg	100
2012.296	1.215	1215.3	pointing	Trial3	pointing/STIM_010.jpg	100
2017.505	1.241	1240.7	pointing	Trial3	pointing/STIM_010.jpg	100
2020.79	0.748	747.7	pointing	Trial3	pointing/STIM_010.jpg	99
2025.139	1.207	1206.6	pointing	Trial3	pointing/STIM_011.jpg	99
2030.334	1.329	1328.7	pointing	Trial3	pointing/STIM_011.jpg	100
2034.21	1.269	1268.7	pointing	Trial3	pointing/STIM_011.jpg	100
2039.084	0.964	964.1	pointing	Trial3	pointing/STIM_011.jpg	100
2042.786	0.862	861.7	pointing	Trial3	pointing/STIM_011.jpg	100
2047.255	0.954	953.5	pointing	Trial3	pointing/STIM_011.jpg	99
