onset	duration	response_time_ms	trial_type	learning_stage	stimulus	response_port
0.0	2.528	2528.1	regulate	Run1	regulate/STIM_000.jpg	100
4.607	1.813	1812.9	regulate	Run1	regulate/STIM_000.jpg	99
8.995	2.426	2426.2	regulate	Run1	regulate/STIM_000.jpg	99
15.309	2.135	2134.6	regulate	Run1	regulate/STIM_000.jpg	100
20.849	2.078	2077.8	regulate	Run1	regulate/STIM_001.jpg	100
26.182	2.051	2050.7	regulate	Run1	regulate/STIM_001.jpg	100
30.856	2.463	2462.7	regulate	Run1	regulate/STIM_001.jpg	100
36.144	1.806	1806.0	regulate	Run1	regulate/STIM_001.jpg	99
41.604	1.859	1859.4	regulate	Run1	regulate/STIM_002.jpg	99
45.787	1.962	1961.8	regulate	Run1	regulate/STIM_002.jpg	99
49.867	1.337	1337.1	regulate	Run1	regulate/STIM_002.jpg	100
54.508	1.874	1874.2	regulate	Run1	regulate/STIM_002.jpg	100
59.046	1.738	1738.2	regulate	Run1	regulate/STIM_003.jpg	100
63.575	2.844	2843.9	regulate	Run1	regulate/STIM_003.jpg	100
68.517	2.578	2578.4	regulate	Run1	regulate/STIM_003.jpg	99
73.623	1.797	1796.6	regulate	Run1	regulate/STIM_003.jpg	100
78.358	2.008	2008.1	regulate	Run1	regulate/STIM_004.jpg	100
84.215	1.435	1434.7	regulate	Run1	regulate/STIM_004.jpg	100
88.536	1.951	1950.6	regulate	Run1	regulate/STIM_004.jpg	99
93.864	2.214	2213.9	regulate	Run1	regulate/STIM_004.jpg	99
98.223	2.228	2228.4	regulate	Run1	regulate/STIM_005.jpg	100
104.115	2.773	2772.7	regulate	Run1	regulate/STIM_005.jpg	99
110.479	1.954	1954.0	regulate	Run1	regulate/STIM_005.jpg	100
115.695	2.005	2005.1	regulate	Run1	regulate/STIM_005.jpg	99
121.515	1.679	1678.9	regulate	Run1	regulate/STIM_006.jpg	99
126.939	2.596	2596.3	regulate	Run1	regulate/STIM_006.jpg	99
132.339	2.143	2143.3	regulate	Run1	regulate/STIM_006.jpg	100
137.067	1.652	1652.4	regulate	Run1	regulate/STIM_006.jpg	99
142.507	1.537	1537.1	regulate	Run1	regulate/STIM_007.jpg	99
147.62	2.048	2048.5	regulate	Run1	regulate/STIM_007.jpg	99
153.046	1.427	1427.0	regulate	Run1	regulate/STIM_007.jpg	100
157.742	1.492	1491.9	regulate	Run1	regulate/STIM_007.jpg	99
161.244	2.314	2314.0	regulate	Run1	regulate/STIM_008.jpg	100
166.352	2.746	2745.7	regulate	Run1	regulate/STIM_008.jpg	100
172.582	1.788	1788.4	regulate	Run1	regulate/STIM_008.jpg	99
178.249	1.297	1296.7	regulate	Run1	regulate/STIM_008.jpg	99
181.848	2.094	2094.3	regulate	Run1	regulate/STIM_009.jpg	100
187.84	1.848	1847.6	regulate	Run1	regulate/STIM_009.jpg	100
192.613	2.479	2479.0	regulate	Run1	regulate/STIM_009.jpg	100
197.314	2.558	2557.5	regulate	Run1	regulate/STIM_009.jpg	100
202.882	1.85	1850.2	regulate	Run1	regulate/STIM_010.jpg	99
206.885	2.786	2785.5	regulate	Run1	regulate/STIM_010.jpg	99
213.586	1.52	1520.4	regulate	Run1	regulate/STIM_010.jpg	99
217.436	1.536	1536.3	regulate	Run1	regulate/STIM_010.jpg	99
221.716	2.965	2965.3	regulate	Run1	regulate/STIM_011.jpg	100
228.65	2.461	2461.4	regulate	Run1	regulate/STIM_011.jpg	99
234.379	1.963	1963.3	regulate	Run1	regulate/STIM_011.jpg	99
238.735	1.5	1500.3	regulate	Run1	regulate/STIM_011.jpg	100
243.957	1.986	1986.3	regulate	Run1	regulate/STIM_012.jpg	100
248.909	1.957	1957.0	regulate	Run1	regulate/STIM_012.jpg	99
253.296	1.233	1233.3	regulate	Run1	regulate/STIM_012.jpg	100
257.107	2.007	2007.5	regulate	Run1	regulate/STIM_012.jpg	99
262.44	2.237	2237.1	regulate	Run1	regulate/STIM_013.jpg	100
268.621	2.377	2377.4	regulate	Run1	regulate/STIM_013.jpg	100
274.016	2.063	2063.4	regulate	Run1	regulate/STIM_013.jpg	99
279.986	1.718	1717.9	regulate	Run1	regulate/STIM_013.jpg	99
284.896	1.923	1923.1	regulate	Run1	regulate/STIM_014.jpg	99
289.497	2.665	2665.4	regulate	Run1	regulate/STIM_014.jpg	99
294.802	1.48	1479.9	regulate	Run1	regulate/STIM_014.jpg	99
300.017	2.546	2545.6	regulate	Run1	regulate/STIM_014.jpg	99
306.555	1.84	1839.8	regulate	Run1	regulate/STIM_015.jpg	99
311.758	2.114	2114.1	regulate	Run1	regulate/STIM_015.jpg	100
316.219	1.331	1330.9	regulate	Run1	regulate/STIM_015.jpg	99
320.042	1.74	1740.2	regulate	Run1	regulate/STIM_015.jpg	99
325.113	2.121	2120.7	regulate	Run1	regulate/STIM_016.jpg	100
329.974	1.804	1804.3	regulate	Run1	regulate/STIM_016.jpg	100
335.704	1.868	1868.2	regulate	Run1	regulate/STIM_016.jpg	99
340.271	2.369	2369.4	regulate	Run1	regulate/STIM_016.jpg	99
344.674	1.696	1695.8	regulate	Run1	regulate/STIM_017.jpg	99
348.508	2.71	2710.0	regulate	Run1	regulate/STIM_017.jpg	100
354.941	1.713	1712.6	regulate	Run1	regulate/STIM_017.jpg	100
359.355	1.251	1251.4	regulate	Run1	regulate/STIM_017.jpg	100
363.986	3.06	3060.3	regulate	Run1	regulate/STIM_018.jpg	99
369.483	2.86	2860.5	regulate	Run1	regulate/STIM_018.jpg	100
375.723	1.284	1284.4	regulate	Run1	regulate/STIM_018.jpg	100
379.917	1.509	1509.3	regulate	Run1	regulate/STIM_018.jpg	99
383.757	2.186	2185.6	regulate	Run1	regulate/STIM_019.jpg	100
389.088	2.487	2486.9	regulate	Run1	regulate/STIM_019.jpg	99
394.22	1.571	1570.7	regulate	Run1	regulate/STIM_019.jpg	100
398.529	1.135	1135.3	regulate	Run1	regulate/STIM_019.jpg	99
402.408	1.334	1333.5	regulate	Run1	regulate/STIM_020.jpg	100
406.596	2.755	2754.7	regulate	Run1	regulate/STIM_020.jpg	100
411.597	1.359	1358.9	regulate	Run1	regulate/STIM_020.jpg	100
415.362	2.401	2400.7	regulate	Run1	regulate/STIM_020.jpg	100
420.725	2.712	2712.2	regulate	Run1	regulate/STIM_021.jpg	99
426.712	2.837	2836.9	regulate	Run1	regulate/STIM_021.jpg	100
433.233	1.953	1952.7	regulate	Run1	regulate/STIM_021.jpg	99
438.686	1.329	1328.6	regulate	Run1	regulate/STIM_021.jpg	99
443.134	2.516	2516.0	regulate	Run1	regulate/STIM_022.jpg	99
448.09	2.921	2920.6	regulate	Run1	regulate/STIM_022.jpg	99
454.851	2.752	2752.0	regulate	Run1	regulate/STIM_022.jpg	100
460.958	1.211	1211.1	regulate	Run1	regulate/STIM_022.jpg	99
465.396	1.66	1659.7	regulate	Run1	regulate/STIM_023.jpg	99
470.922	2.526	2526.2	regulate	Run1	regulate/STIM_023.jpg	100
476.244	2.546	2546.2	regulate	Run1	regulate/STIM_023.jpg	99
482.383	1.993	1992.6	regulate	Run1	regulate/STIM_023.jpg	100
486.417	1.948	1948.3	regulate	Run1	regulate/STIM_024.jpg	99
492.038	2.856	2856.1	regulate	Run1	regulate/STIM_024.jpg	99
498.07	1.649	1649.0	regulate	Run1	regulate/STIM_024.jpg	100
501.837	1.544	1543.9	regulate	Run1	regulate/STIM_024.jpg	99
505.771	2.828	2828.0	regulate	Run1	regulate/STIM_025.jpg	100
510.936	1.573	1573.1	regulate	Run1	regulate/STIM_025.jpg	99
515.745	2.613	2613.4	regulate	Run1	regulate/STIM_025.jpg	99
520.803	2.304	2303.6	regulate	Run1	regulate/STIM_025.jpg	100
525.9	2.685	2684.6	regulate	Run1	regulate/STIM_026.jpg	99
532.578	1.603	1602.9	regulate	Run1	regulate/STIM_026.jpg	100
536.685	2.091	2091.2	regulate	Run1	regulate/STIM_026.jpg	99
541.435	1.404	1403.7	regulate	Run1	regulate/STIM_026.jpg	99
545.599	1.418	1418.0	regulate	Run1	regulate/STIM_027.jpg	100
550.129	2.876	2876.0	regulate	Run1	regulate/STIM_027.jpg	99
556.341	1.303	1303.4	regulate	Run1	regulate/STIM_027.jpg	99
559.751	1.392	1392.5	regulate	Run1	regulate/STIM_027.jpg	99
563.664	1.99	1990.1	regulate	Run1	regulate/STIM_028.jpg	99
568.785	2.632	2632.5	regulate	Run1	regulate/STIM_028.jpg	99
574.107	1.22	1219.5	regulate	Run1	regulate/STIM_028.jpg	100
578.591	1.895	1894.7	regulate	Run1	regulate/STIM_028.jpg	100
584.21	1.361	1361.2	regulate	Run1	regulate/STIM_029.jpg	99
589.529	1.371	1370.9	regulate	Run1	regulate/STIM_029.jpg	100
594.687	1.505	1505.4	regulate	Run1	regulate/STIM_029.jpg	99
599.639	2.582	2581.8	regulate	Run1	regulate/STIM_029.jpg	99
605.014	1.117	1117.1	observe	Run1	observe/STIM_000.jpg	100
608.278	1.073	1072.8	observe	Run1	observe/STIM_000.jpg	99
611.86	1.102	1101.5	observe	Run1	observe/STIM_000.jpg	99
615.137	1.368	1367.6	observe	Run1	observe/STIM_000.jpg	100
618.796	1.226	1226.4	observe	Run1	observe/STIM_001.jpg	100
622.475	1.204	1204.0	observe	Run1	observe/STIM_001.jpg	100
626.603	1.11	1109.8	observe	Run1	observe/STIM_001.jpg	100
630.82	0.737	737.3	observe	Run1	observe/STIM_001.jpg	99
634.547	0.78	780.0	observe	Run1	observe/STIM_002.jpg	100
637.786	1.386	1386.1	observe	Run1	observe/STIM_002.jpg	99
642.236	0.854	854.1	observe	Run1	observe/STIM_002.jpg	99
646.266	1.366	1366.4	observe	Run1	observe/STIM_002.jpg	100
649.729	1.259	1258.9	observe	Run1	observe/STIM_003.jpg	100
654.723	1.358	1358.1	observe	Run1	observe/STIM_003.jpg	100
659.343	1.152	1152.0	observe	Run1	observe/STIM_003.jpg	100
662.526	1.349	1349.2	observe	Run1	observe/STIM_003.jpg	99
666.693	0.813	813.3	observe	Run1	observe/STIM_004.jpg	99
671.46	0.863	863.3	observe	Run1	observe/STIM_004.jpg	99
674.703	1.146	1146.3	observe	Run1	observe/STIM_004.jpg	100
678.301	1.338	1338.3	observe	Run1	observe/STIM_004.jpg	100
682.344	0.918	918.1	observe	Run1	observe/STIM_005.jpg	99
686.96	0.731	731.0	observe	Run1	observe/STIM_005.jpg	100
691.089	0.934	933.5	observe	Run1	observe/STIM_005.jpg	99
694.896	0.836	836.2	observe	Run1	observe/STIM_005.jpg	99
698.724	0.724	723.9	observe	Run1	observe/STIM_006.jpg	99
702.247	1.156	1155.6	observe	Run1	observe/STIM_006.jpg	100
707.14	1.316	1315.8	observe	Run1	observe/STIM_006.jpg	100
711.786	0.921	920.6	observe	Run1	observe/STIM_006.jpg	99
715.075	1.009	1008.8	observe	Run1	observe/STIM_007.jpg	100
718.094	1.018	1018.1	observe	Run1	observe/STIM_007.jpg	100
721.769	1.245	1245.0	observe	Run1	observe/STIM_007.jpg	100
726.774	1.129	1128.9	observe	Run1	observe/STIM_007.jpg	100
730.904	1.233	1232.8	observe	Run1	observe/STIM_008.jpg	100
735.628	1.007	1007.2	observe	Run1	observe/STIM_008.jpg	99
740.42	1.028	1027.7	observe	Run1	observe/STIM_008.jpg	99
744.466	0.883	882.7	observe	Run1	observe/STIM_008.jpg	99
748.121	0.826	825.9	observe	Run1	observe/STIM_009.jpg	99
752.533	0.78	780.2	observe	Run1	observe/STIM_009.jpg	99
756.771	1.099	1099.4	observe	Run1	observe/STIM_009.jpg	99
761.561	0.832	831.5	observe	Run1	observe/STIM_009.jpg	99
765.904	0.734	733.8	observe	Run1	observe/STIM_010.jpg	100
770.345	0.837	836.6	observe	Run1	observe/STIM_010.jpg	100
774.254	1.088	1088.2	observe	Run1	observe/STIM_010.jpg	100
777.519	1.122	1122.3	observe	Run1	observe/STIM_010.jpg	99
781.586	1.198	1197.9	observe	Run1	observe/STIM_011.jpg	99
785.418	1.096	1096.3	observe	Run1	observe/STIM_011.jpg	99
790.28	1.038	1038.2	observe	Run1	observe/STIM_011.jpg	99
794.258	1.191	1190.7	observe	Run1	observe/STIM_011.jpg	99
798.35	0.727	727.4	observe	Run1	observe/STIM_012.jpg	100
801.774	0.79	790.2	observe	Run1	observe/STIM_012.jpg	100
805.592	0.732	732.5	observe	Run1	observe/STIM_012.jpg	99
808.411	1.177	1176.8	observe	Run1	observe/STIM_012.jpg	99
812.087	0.753	752.7	observe	Run1	observe/STIM_013.jpg	100
815.141	1.35	1350.5	observe	Run1	observe/STIM_013.jpg	99
819.875	1.263	1263.3	observe	Run1	observe/STIM_013.jpg	99
823.437	0.751	751.3	observe	Run1	observe/STIM_013.jpg	99
827.3	1.32	1320.1	observe	Run1	observe/STIM_014.jpg	100
832.392	1.18	1179.6	observe	Run1	observe/STIM_014.jpg	99
835.862	1.272	1271.5	observe	Run1	observe/STIM_014.jpg	100
839.924	0.898	898.4	observe	Run1	observe/STIM_014.jpg	100
843.928	1.38	1380.5	observe	Run1	observe/STIM_015.jpg	100
848.08	1.357	1357.3	observe	Run1	observe/STIM_015.jpg	99
853.409	1.221	1221.1	observe	Run1	observe/STIM_015.jpg	100
857.014	0.942	941.7	observe	Run1	observe/STIM_015.jpg	100
860.8	0.96	960.1	observe	Run1	observe/STIM_016.jpg	99
864.962	1.12	1119.8	observe	Run1	observe/STIM_016.jpg	100
870.023	1.281	1281.3	observe	Run1	observe/STIM_016.jpg	100
874.751	0.726	725.6	observe	Run1	observe/STIM_016.jpg	99
878.776	1.148	1148.1	observe	Run1	observe/STIM_017.jpg	100
881.941	1.074	1073.5	observe	Run1	observe/STIM_017.jpg	100
885.962	1.232	1231.8	observe	Run1	observe/STIM_017.jpg	100
890.046	1.217	1217.4	observe	Run1	observe/STIM_017.jpg	99
893.375	1.303	1302.6	observe	Run1	observe/STIM_018.jpg	99
897.861	1.067	1067.4	observe	Run1	observe/STIM_018.jpg	99
901.838	0.918	918.5	observe	Run1	observe/STIM_018.jpg	100
905.232	0.986	986.2	observe	Run1	observe/STIM_018.jpg	99
908.452	1.014	1014.2	observe	Run1	observe/STIM_019.jpg	100
911.53	1.095	1095.3	observe	Run1	observe/STIM_019.jpg	99
915.513	1.408	1407.9	observe	Run1	observe/STIM_019.jpg	99
918.999	1.149	1149.2	observe	Run1	observe/STIM_019.jpg	99
922.82	2.151	2151.0	regulate	Run2	regulate/STIM_000.jpg	100
927.779	1.579	1578.7	regulate	Run2	regulate/STIM_000.jpg	100
932.304	1.286	1286.5	regulate	Run2	regulate/STIM_000.jpg	99
936.848	2.154	2153.5	regulate	Run2	regulate/STIM_000.jpg	99
942.656	2.35	2349.6	regulate	Run2	regulate/STIM_001.jpg	99
948.948	1.436	1436.1	regulate	Run2	regulate/STIM_001.jpg	99
952.779	1.303	1303.4	regulate	Run2	regulate/STIM_001.jpg	99
958.076	1.757	1757.2	regulate	Run2	regulate/STIM_001.jpg	99
962.806	2.478	2477.7	regulate	Run2	regulate/STIM_002.jpg	100
967.599	1.547	1546.9	regulate	Run2	regulate/STIM_002.jpg	100
971.299	1.48	1479.5	regulate	Run2	regulate/STIM_002.jpg	99
976.18	1.845	1844.9	regulate	Run2	regulate/STIM_002.jpg	99
981.278	2.47	2470.4	regulate	Run2	regulate/STIM_003.jpg	99
986.026	1.471	1470.8	regulate	Run2	regulate/STIM_003.jpg	100
990.06	1.187	1187.2	regulate	Run2	regulate/STIM_003.jpg	99
994.737	1.189	1188.9	regulate	Run2	regulate/STIM_003.jpg	99
998.278	2.613	2613.3	regulate	Run2	regulate/STIM_004.jpg	100
1003.981	1.792	1792.0	regulate	Run2	regulate/STIM_004.jpg	100
1009.611	1.36	1359.5	regulate	Run2	regulate/STIM_004.jpg	100
1014.886	1.273	1272.6	regulate	Run2	regulate/STIM_004.jpg	99
1019.572	1.734	1734.5	regulate	Run2	regulate/STIM_005.jpg	99
1023.831	1.47	1470.1	regulate	Run2	regulate/STIM_005.jpg	99
1028.589	1.902	1901.7	regulate	Run2	regulate/STIM_005.jpg	99
1033.51	1.973	1973.1	regulate	Run2	regulate/STIM_005.jpg	100
1038.271	1.324	1323.8	regulate	Run2	regulate/STIM_006.jpg	99
1042.54	1.393	1393.2	regulate	Run2	regulate/STIM_006.jpg	99
1047.571	1.591	1591.0	regulate	Run2	regulate/STIM_006.jpg	99
1052.135	0.968	967.5	regulate	Run2	regulate/STIM_006.jpg	99
1055.987	2.061	2060.9	regulate	Run2	regulate/STIM_007.jpg	100
1060.087	1.25	1249.6	regulate	Run2	regulate/STIM_007.jpg	99
1063.506	1.748	1748.1	regulate	Run2	regulate/STIM_007.jpg	99
1068.67	2.086	2086.2	regulate	Run2	regulate/STIM_007.jpg	100
1074.738	2.446	2445.8	regulate	Run2	regulate/STIM_008.jpg	99
1080.214	1.203	1202.7	regulate	Run2	regulate/STIM_008.jpg	99
1084.81	2.128	2128.1	regulate	Run2	regulate/STIM_008.jpg	100
1090.922	1.719	1719.1	regulate	Run2	regulate/STIM_008.jpg	100
1095.915	1.796	1796.0	regulate	Run2	regulate/STIM_009.jpg	100
1100.883	1.569	1569.3	regulate	Run2	regulate/STIM_009.jpg	100
1105.973	1.13	1130.0	regulate	Run2	regulate/STIM_009.jpg	99
1109.704	1.415	1415.2	regulate	Run2	regulate/STIM_009.jpg	100
1114.647	1.364	1363.8	regulate	Run2	regulate/STIM_010.jpg	100
1119.33	1.39	1390.4	regulate	Run2	regulate/STIM_010.jpg	100
1123.688	1.196	1195.9	regulate	Run2	regulate/STIM_010.jpg	99
1128.607	1.92	1919.8	regulate	Run2	regulate/STIM_010.jpg	99
1134.244	1.745	1744.9	regulate	Run2	regulate/STIM_011.jpg	99
1138.594	1.817	1817.1	regulate	Run2	regulate/STIM_011.jpg	100
1144.05	2.083	2082.7	regulate	Run2	regulate/STIM_011.jpg	99
1149.344	1.24	1239.8	regulate	Run2	regulate/STIM_011.jpg	99
1152.831	1.567	1567.2	regulate	Run2	regulate/STIM_012.jpg	100
1158.309	1.115	1115.3	regulate	Run2	regulate/STIM_012.jpg	99
1162.817	1.488	1488.4	regulate	Run2	regulate/STIM_012.jpg	100
1166.5	1.489	1488.8	regulate	Run2	regulate/STIM_012.jpg	100
1171.875	2.057	2057.4	regulate	Run2	regulate/STIM_013.jpg	99
1177.482	1.205	1205.3	regulate	Run2	regulate/STIM_013.jpg	99
1182.003	1.029	1029.1	regulate	Run2	regulate/STIM_013.jpg	100
1186.4	0.959	959.1	regulate	Run2	regulate/STIM_013.jpg	100
1190.186	2.187	2187.2	regulate	Run2	regulate/STIM_014.jpg	100
1195.113	1.707	1707.2	regulate	Run2	regulate/STIM_014.jpg	99
1199.914	1.912	1912.0	regulate	Run2	regulate/STIM_014.jpg	100
1204.605	1.761	1761.3	regulate	Run2	regulate/STIM_014.jpg	99
1209.74	2.124	2124.2	regulate	Run2	regulate/STIM_015.jpg	99
1215.791	1.85	1849.9	regulate	Run2	regulate/STIM_015.jpg	100
1219.876	1.466	1466.1	regulate	Run2	regulate/STIM_015.jpg	100
1225.3	1.639	1638.6	regulate	Run2	regulate/STIM_015.jpg	99
1230.266	1.392	1392.5	regulate	Run2	regulate/STIM_016.jpg	99
1235.11	1.46	1460.0	regulate	Run2	regulate/STIM_016.jpg	100
1238.863	1.569	1568.9	regulate	Run2	regulate/STIM_016.jpg	100
1243.925	1.392	1392.4	regulate	Run2	regulate/STIM_016.jpg	99
1247.761	2.539	2538.8	regulate	Run2	regulate/STIM_017.jpg	100
1252.924	1.503	1503.0	regulate	Run2	regulate/STIM_017.jpg	99
1258.254	1.252	1252.3	regulate	Run2	regulate/STIM_017.jpg	99
1261.659	1.115	1114.8	regulate	Run2	regulate/STIM_017.jpg	100
1265.983	1.304	1304.4	regulate	Run2	regulate/STIM_018.jpg	100
1270.386	2.482	2482.1	regulate	Run2	regulate/STIM_018.jpg	100
1275.091	1.361	1361.0	regulate	Run2	regulate/STIM_018.jpg	100
1279.23	1.912	1912.4	regulate	Run2	regulate/STIM_018.jpg	99
1284.84	1.219	1219.0	regulate	Run2	regulate/STIM_019.jpg	100
1289.594	2.443	2443.4	regulate	Run2	regulate/STIM_019.jpg	99
1294.53	1.704	1704.3	regulate	Run2	regulate/STIM_019.jpg	99
1299.971	2.142	2141.6	regulate	Run2	regulate/STIM_019.jpg	100
1305.563	2.345	2345.0	regulate	Run2	regulate/STIM_020.jpg	100
1311.646	1.213	1212.7	regulate	Run2	regulate/STIM_020.jpg	100
1315.808	1.507	1507.1	regulate	Run2	regulate/STIM_020.jpg	99
1319.318	1.683	1683.2	regulate	Run2	regulate/STIM_020.jpg	100
1323.031	1.526	1525.5	regulate	Run2	regulate/STIM_021.jpg	99
1327.344	1.815	1815.2	regulate	Run2	regulate/STIM_021.jpg	100
1332.263	2.136	2136.5	regulate	Run2	regulate/STIM_021.jpg	99
1336.627	2.032	2031.9	regulate	Run2	regulate/STIM_021.jpg	99
1342.521	2.141	2140.7	regulate	Run2	regulate/STIM_022.jpg	100
1348.623	2.296	2295.6	regulate	Run2	regulate/STIM_022.jpg	100
1353.742	1.216	1215.5	regulate	Run2	regulate/STIM_022.jpg	99
1358.931	1.921	1921.4	regulate	Run2	regulate/STIM_022.jpg	100
1363.876	2.639	2639.2	regulate	Run2	regulate/STIM_023.jpg	100
1369.294	2.458	2457.7	regulate	Run2	regulate/STIM_023.jpg	99
1375.685	1.305	1305.1	regulate	Run2	regulate/STIM_023.jpg	99
1380.278	1.78	1779.5	regulate	Run2	regulate/STIM_023.jpg	99
1385.942	1.296	1295.7	regulate	Run2	regulate/STIM_024.jpg	99
1390.682	1.094	1093.5	regulate	Run2	regulate/STIM_024.jpg	99
1395.109	1.35	1350.2	regulate	Run2	regulate/STIM_024.jpg	99
1399.105	2.078	2078.3	regulate	Run2	regulate/STIM_024.jpg	99
1404.424	2.227	2226.8	regulate	Run2	regulate/STIM_025.jpg	99
1410.539	2.46	2459.6	regulate	Run2	regulate/STIM_025.jpg	100
1415.49	1.292	1292.0	regulate	Run2	regulate/STIM_025.jpg	99
1418.989	1.831	1830.8	regulate	Run2	regulate/STIM_025.jpg	100
1424.228	2.549	2549.1	regulate	Run2	regulate/STIM_026.jpg	100
1429.118	1.431	1430.9	regulate	Run2	regulate/STIM_026.jpg	99
1434.403	1.978	1978.0	regulate	Run2	regulate/STIM_026.jpg	100
1438.76	1.039	1039.3	regulate	Run2	regulate/STIM_026.jpg	99
1442.971	2.272	2271.9	regulate	Run2	regulate/STIM_027.jpg	99
1448.26	1.774	1774.5	regulate	Run2	regulate/STIM_027.jpg	99
1452.988	1.754	1753.6	regulate	Run2	regulate/STIM_027.jpg	100
1458.374	0.985	985.4	regulate	Run2	regulate/STIM_027.jpg	100
1462.682	1.813	1812.8	regulate	Run2	regulate/STIM_028.jpg	99
1468.371	1.708	1707.7	regulate	Run2	regulate/STIM_028.jpg	99
1473.936	1.079	1078.6	regulate	Run2	regulate/STIM_028.jpg	100
1478.791	1.853	1852.6	regulate	Run2	regulate/STIM_028.jpg	100
1483.84	1.527	1527.3	regulate	Run2	regulate/STIM_029.jpg	100
1487.524	2.487	2486.6	regulate	Run2	regulate/STIM_029.jpg	99
1493.878	1.937	1937.3	regulate	Run2	regulate/STIM_029.jpg	100
1499.645	2.144	2143.6	regulate	Run2	regulate/STIM_029.jpg	100
1503.988	0.934	933.7	observe	Run2	observe/STIM_000.jpg	99
1507.718	0.931	931.4	observe	Run2	observe/STIM_000.jpg	99
1511.382	1.083	1083.0	observe	Run2	observe/STIM_000.jpg	100
1515.259	1.12	1119.9	observe	Run2	observe/STIM_000.jpg	100
1519.947	0.826	825.6	observe	Run2	observe/STIM_001.jpg	100
1522.848	0.88	880.5	observe	Run2	observe/STIM_001.jpg	100
1526.507	1.276	1275.7	observe	Run2	observe/STIM_001.jpg	100
1531.319	1.05	1049.9	observe	Run2	observe/STIM_001.jpg	99
1534.43	0.774	773.5	observe	Run2	observe/STIM_002.jpg	100
1539.149	1.211	1211.2	observe	Run2	observe/STIM_002.jpg	100
1542.526	1.039	1038.6	observe	Run2	observe/STIM_002.jpg	99
1545.699	0.712	711.5	observe	Run2	observe/STIM_002.jpg	99
1550.355	0.927	927.3	observe	Run2	observe/STIM_003.jpg	100
1553.941	0.802	802.1	observe	Run2	observe/STIM_003.jpg	100
1556.821	0.756	756.1	observe	Run2	observe/STIM_003.jpg	100
1560.086	1.33	1329.9	observe	Run2	observe/STIM_003.jpg	99
1565.236	0.904	903.8	observe	Run2	observe/STIM_004.jpg	100
1569.45	0.815	815.1	observe	Run2	observe/STIM_004.jpg	100
1573.227	1.03	1029.9	observe	Run2	observe/STIM_004.jpg	100
1576.334	0.774	773.8	observe	Run2	observe/STIM_004.jpg	100
1580.765	0.907	906.9	observe	Run2	observe/STIM_005.jpg	100
1584.144	1.194	1194.4	observe	Run2	observe/STIM_005.jpg	99
1588.014	0.787	787.0	observe	Run2	observe/STIM_005.jpg	99
1591.142	0.946	945.8	observe	Run2	observe/STIM_005.jpg	100
1595.725	1.402	1402.1	observe	Run2	observe/STIM_006.jpg	99
1601.115	1.066	1066.1	observe	Run2	observe/STIM_006.jpg	100
1606.028	0.798	797.5	observe	Run2	observe/STIM_006.jpg	100
1609.468	0.885	884.7	observe	Run2	observe/STIM_006.jpg	100
1613.551	0.78	779.6	observe	Run2	observe/STIM_007.jpg	100
1617.263	1.297	1297.1	observe	Run2	observe/STIM_007.jpg	100
1622.056	0.936	936.5	observe	Run2	observe/STIM_007.jpg	100
1625.748	1.093	1093.4	observe	Run2	observe/STIM_007.jpg	100
1629.514	1.332	1332.5	observe	Run2	observe/STIM_008.jpg	99
1634.704	1.231	1230.8	observe	Run2	observe/STIM_008.jpg	100
1638.656	0.862	862.2	observe	Run2	observe/STIM_008.jpg	100
1642.624	0.716	715.9	observe	Run2	observe/STIM_008.jpg	99
1645.715	1.246	1246.3	observe	Run2	observe/STIM_009.jpg	100
1649.135	1.194	1193.9	observe	Run2	observe/STIM_009.jpg	100
1653.172	1.318	1318.5	observe	Run2	observe/STIM_009.jpg	100
1656.573	1.051	1051.2	observe	Run2	observe/STIM_009.jpg	99
1660.51	1.049	1049.1	observe	Run2	observe/STIM_010.jpg	100
1664.71	1.391	1391.1	observe	Run2	observe/STIM_010.jpg	100
1668.936	0.891	891.3	observe	Run2	observe/STIM_010.jpg	99
1672.238	1.172	1172.0	observe	Run2	observe/STIM_010.jpg	100
1676.883	1.091	1091.1	observe	Run2	observe/STIM_011.jpg	99
1680.393	1.021	1020.8	observe	Run2	observe/STIM_011.jpg	99
1683.466	1.375	1375.3	observe	Run2	observe/STIM_011.jpg	100
1687.892	0.932	932.3	observe	Run2	observe/STIM_011.jpg	100
1690.889	0.979	979.3	observe	Run2	observe/STIM_012.jpg	99
1694.468	0.991	991.4	observe	Run2	observe/STIM_012.jpg	99
1697.803	1.113	1113.2	observe	Run2	observe/STIM_012.jpg	100
1702.313	1.235	1235.3	observe	Run2	observe/STIM_012.jpg	99
1707.394	0.981	980.9	observe	Run2	observe/STIM_013.jpg	99
1711.208	0.826	825.9	observe	Run2	observe/STIM_013.jpg	100
1715.665	1.204	1203.8	observe	Run2	observe/STIM_013.jpg	99
1718.898	1.281	1280.9	observe	Run2	observe/STIM_013.jpg	100
1723.162	1.124	1124.1	observe	Run2	observe/STIM_014.jpg	99
1726.574	0.95	950.1	observe	Run2	observe/STIM_014.jpg	99
1730.693	1.167	1167.4	observe	Run2	observe/STIM_014.jpg	100
1734.792	0.873	873.3	observe	Run2	observe/STIM_014.jpg	100
1738.402	0.879	878.6	observe	Run2	observe/STIM_015.jpg	100
1741.792	0.818	818.1	observe	Run2	observe/STIM_015.jpg	100
1746.121	0.869	868.6	observe	Run2	observe/STIM_015.jpg	100
1750.245	1.379	1379.1	observe	Run2	observe/STIM_015.jpg	100
1755.341	1.043	1042.7	observe	Run2	observe/STIM_016.jpg	100
1759.56	1.381	1381.2	observe	Run2	observe/STIM_016.jpg	99
1764.106	0.857	856.7	observe	Run2	observe/STIM_016.jpg	100
1767.208	0.904	903.8	observe	Run2	observe/STIM_016.jpg	100
1771.513	0.84	839.8	observe	Run2	observe/STIM_017.jpg	99
1775.05	1.01	1009.7	observe	Run2	observe/STIM_017.jpg	100
1779.701	1.291	1291.4	observe	Run2	observe/STIM_017.jpg	99
1783.418	1.101	1100.9	observe	Run2	observe/STIM_017.jpg	99
1787.375	0.853	853.0	observe	Run2	observe/STIM_018.jpg	100
1791.605	1.154	1154.4	observe	Run2	observe/STIM_018.jpg	100
1795.95	1.024	1023.9	observe	Run2	observe/STIM_018.jpg	99
1799.319	1.214	1213.9	observe	Run2	observe/STIM_018.jpg	100
1802.827	0.867	867.0	observe	Run2	observe/STIM_019.jpg	99
1806.142	0.754	754.0	observe	Run2	observe/STIM_019.jpg	99
1810.649	0.732	732.4	observe	Run2	observe/STIM_019.jpg	99
1814.896	1.081	1081.4	observe	Run2	observe/STIM_019.jpg	100
1818.936	1.784	1784.3	regulate	Run3	regulate/STIM_000.jpg	99
1823.469	2.156	2155.8	regulate	Run3	regulate/STIM_000.jpg	100
1829.575	1.768	1767.5	regulate	Run3	regulate/STIM_000.jpg	99
1833.492	1.811	1810.7	regulate	Run3	regulate/STIM_000.jpg	100
1837.555	1.119	1119.2	regulate	Run3	regulate/STIM_001.jpg	99
1841.548	1.546	1546.0	regulate	Run3	regulate/STIM_001.jpg	99
1846.853	1.799	1799.2	regulate	Run3	regulate/STIM_001.jpg	100
1850.971	1.376	1376.0	regulate	Run3	regulate/STIM_001.jpg	100
1854.927	1.811	1811.1	regulate	Run3	regulate/STIM_002.jpg	99
1859.711	1.229	1229.3	regulate	Run3	regulate/STIM_002.jpg	99
1864.322	1.037	1036.6	regulate	Run3	regulate/STIM_002.jpg	99
1867.428	1.776	1775.5	regulate	Run3	regulate/STIM_002.jpg	100
1871.932	1.812	1812.2	regulate	Run3	regulate/STIM_003.jpg	100
1876.276	1.377	1377.1	regulate	Run3	regulate/STIM_003.jpg	100
1881.033	1.665	1665.2	regulate	Run3	regulate/STIM_003.jpg	99
1886.683	1.267	1266.9	regulate	Run3	regulate/STIM_003.jpg	100
1891.303	1.179	1178.9	regulate	Run3	regulate/STIM_004.jpg	100
1895.925	2.169	2169.4	regulate	Run3	regulate/STIM_004.jpg	99
1900.267	0.983	982.9	regulate	Run3	regulate/STIM_004.jpg	100
1903.329	1.833	1833.3	regulate	Run3	regulate/STIM_004.jpg	100
1908.705	1.875	1874.9	regulate	Run3	regulate/STIM_005.jpg	100
1913.384	1.6	1599.6	regulate	Run3	regulate/STIM_005.jpg	99
1917.424	1.94	1939.7	regulate	Run3	regulate/STIM_005.jpg	99
1922.828	0.996	996.5	regulate	Run3	regulate/STIM_005.jpg	100
1926.327	1.624	1624.5	regulate	Run3	regulate/STIM_006.jpg	100
1930.316	1.681	1680.6	regulate	Run3	regulate/STIM_006.jpg	99
1934.034	1.92	1920.5	regulate	Run3	regulate/STIM_006.jpg	100
1939.549	1.49	1490.4	regulate	Run3	regulate/STIM_006.jpg	100
1943.452	1.069	1069.3	regulate	Run3	regulate/STIM_007.jpg	100
1947.94	1.578	1577.6	regulate	Run3	regulate/STIM_007.jpg	99
1952.245	2.001	2001.1	regulate	Run3	regulate/STIM_007.jpg	99
1956.461	2.126	2126.0	regulate	Run3	regulate/STIM_007.jpg	100
1960.614	1.252	1251.6	regulate	Run3	regulate/STIM_008.jpg	99
1965.319	2.108	2108.2	regulate	Run3	regulate/STIM_008.jpg	99
1969.946	1.316	1315.7	regulate	Run3	regulate/STIM_008.jpg	100
1973.987	1.8	1799.9	regulate	Run3	regulate/STIM_008.jpg	100
1978.372	1.62	1620.2	regulate	Run3	regulate/STIM_009.jpg	100
1982.597	1.062	1061.5	regulate	Run3	regulate/STIM_009.jpg	100
1985.909	1.681	1681.1	regulate	Run3	regulate/STIM_009.jpg	99
1991.315	1.015	1015.3	regulate	Run3	regulate/STIM_009.jpg	99
1995.655	2.037	2037.4	regulate	Run3	regulate/STIM_010.jpg	100
2001.617	1.382	1381.5	regulate	Run3	regulate/STIM_010.jpg	99
2006.897	1.464	1464.0	regulate	Run3	regulate/STIM_010.jpg	100
2010.845	1.59	1590.2	regulate	Run3	regulate/STIM_010.jpg	99
2014.765	1.78	1779.8	regulate	Run3	regulate/STIM_011.jpg	99
2019.126	2.08	2080.4	regulate	Run3	regulate/STIM_011.jpg	99
2024.25	1.776	1775.8	regulate	Run3	regulate/STIM_011.jpg	99
2028.3	1.657	1657.4	regulate	Run3	regulate/STIM_011.jpg	99
2033.211	1.365	1364.9	regulate	Run3	regulate/STIM_012.jpg	99
2036.969	1.63	1630.2	regulate	Run3	regulate/STIM_012.jpg	99
2041.32	1.674	1673.9	regulate	Run3	regulate/STIM_012.jpg	100
2045.785	1.16	1159.5	regulate	Run3	regulate/STIM_012.jpg	99
2049.714	2.061	2061.2	regulate	Run3	regulate/STIM_013.jpg	99
2054.049	1.041	1041.3	regulate	Run3	regulate/STIM_013.jpg	99
2057.163	1.958	1957.8	regulate	Run3	regulate/STIM_013.jpg	100
2061.653	1.614	1613.9	regulate	Run3	regulate/STIM_013.jpg	100
2066.875	2.034	2034.5	regulate	Run3	regulate/STIM_014.jpg	100
2071.102	1.193	1193.1	regulate	Run3	regulate/STIM_014.jpg	99
2074.42	1.665	1665.0	regulate	Run3	regulate/STIM_014.jpg	100
2079.402	1.009	1008.7	regulate	Run3	regulate/STIM_014.jpg	100
2083.231	1.488	1487.6	regulate	Run3	regulate/STIM_015.jpg	100
2086.871	1.448	1448.5	regulate	Run3	regulate/STIM_015.jpg	100
2091.498	1.662	1662.1	regulate	Run3	regulate/STIM_015.jpg	99
2096.825	1.269	1269.4	regulate	Run3	regulate/STIM_015.jpg	100
2102.07	1.845	1844.7	regulate	Run3	regulate/STIM_016.jpg	99
2106.089	1.84	1839.8	regulate	Run3	regulate/STIM_016.jpg	99
2110.643	2.107	2107.4	regulate	Run3	regulate/STIM_016.jpg	99
2115.2	1.715	1714.9	regulate	Run3	regulate/STIM_016.jpg	99
2119.163	1.241	1241.2	regulate	Run3	regulate/STIM_017.jpg	99
2123.599	1.632	1632.2	regulate	Run3	regulate/STIM_017.jpg	99
2127.786	1.197	1196.8	regulate	Run3	regulate/STIM_017.jpg	99
2131.272	0.978	978.3	regulate	Run3	regulate/STIM_017.jpg	100
2135.313	1.221	1220.8	regulate	Run3	regulate/STIM_018.jpg	100
2139.731	0.99	990.5	regulate	Run3	regulate/STIM_018.jpg	100
2143.533	2.113	2113.0	regulate	Run3	regulate/STIM_018.jpg	99
2149.271	1.914	1914.3	regulate	Run3	regulate/STIM_018.jpg	100
2154.839	1.954	1954.2	regulate	Run3	regulate/STIM_019.jpg	100
2160.548	1.425	1425.3	regulate	Run3	regulate/STIM_019.jpg	100
2165.65	1.511	1510.6	regulate	Run3	regulate/STIM_019.jpg	99
2170.025	1.547	1547.1	regulate	Run3	regulate/STIM_019.jpg	100
2173.849	2.066	2066.0	regulate	Run3	regulate/STIM_020.jpg	99
2178.505	1.288	1287.6	regulate	Run3	regulate/STIM_020.jpg	100
2183.342	1.176	1176.3	regulate	Run3	regulate/STIM_020.jpg	99
2188.475	1.878	1877.9	regulate	Run3	regulate/STIM_020.jpg	99
2192.963	0.988	987.6	regulate	Run3	regulate/STIM_021.jpg	100
2196.831	1.326	1326.0	regulate	Run3	regulate/STIM_021.jpg	100
2200.99	1.515	1514.7	regulate	Run3	regulate/STIM_021.jpg	99
2204.85	1.051	1050.6	regulate	Run3	regulate/STIM_021.jpg	100
2208.733	1.211	1211.3	regulate	Run3	regulate/STIM_022.jpg	100
2212.983	2.135	2135.2	regulate	Run3	regulate/STIM_022.jpg	100
2217.831	1.022	1022.5	regulate	Run3	regulate/STIM_022.jpg	99
2222.229	1.681	1680.9	regulate	Run3	regulate/STIM_022.jpg	99
2226.744	2.139	2139.1	regulate	Run3	regulate/STIM_023.jpg	99
2232.44	1.192	1191.7	regulate	Run3	regulate/STIM_023.jpg	99
2236.618	1.004	1004.5	regulate	Run3	regulate/STIM_023.jpg	100
2240.262	2.065	2065.2	regulate	Run3	regulate/STIM_023.jpg	99
2244.428	2.082	2081.5	regulate	Run3	regulate/STIM_024.jpg	100
2249.397	1.903	1902.6	regulate	Run3	regulate/STIM_024.jpg	99
2254.223	1.142	1142.1	regulate	Run3	regulate/STIM_024.jpg	100
2258.636	1.445	1444.9	regulate	Run3	regulate/STIM_024.jpg	99
2263.556	1.081	1080.9	regulate	Run3	regulate/STIM_025.jpg	100
2266.944	2.148	2147.5	regulate	Run3	regulate/STIM_025.jpg	100
2272.755	1.849	1849.4	regulate	Run3	regulate/STIM_025.jpg	100
2277.45	1.702	1701.5	regulate	Run3	regulate/STIM_025.jpg	99
2282.645	1.654	1653.5	regulate	Run3	regulate/STIM_026.jpg	99
2287.63	1.676	1676.3	regulate	Run3	regulate/STIM_026.jpg	99
2291.891	1.081	1081.4	regulate	Run3	regulate/STIM_026.jpg	100
2295.557	1.902	1902.2	regulate	Run3	regulate/STIM_026.jpg	99
2299.619	1.712	1711.5	regulate	Run3	regulate/STIM_027.jpg	100
2303.417	1.132	1131.6	regulate	Run3	regulate/STIM_027.jpg	99
2307.879	1.114	1114.1	regulate	Run3	regulate/STIM_027.jpg	99
2312.875	1.983	1983.0	regulate	Run3	regulate/STIM_027.jpg	100
2317.277	1.514	1513.8	regulate	Run3	regulate/STIM_028.jpg	100
2321.33	0.935	934.9	regulate	Run3	regulate/STIM_028.jpg	100
2325.147	1.317	1316.8	regulate	Run3	regulate/STIM_028.jpg	100
2329.823	1.455	1455.1	regulate	Run3	regulate/STIM_028.jpg	99
2333.788	1.607	1607.1	regulate	Run3	regulate/STIM_029.jpg	99
2339.224	1.303	1302.6	regulate	Run3	regulate/STIM_029.jpg	99
2343.722	1.455	1455.1	regulate	Run3	regulate/STIM_029.jpg	99
2347.611	0.974	973.5	regulate	Run3	regulate/STIM_029.jpg	99
2351.102	1.012	1012.5	observe	Run3	observe/STIM_000.jpg	100
2354.919	0.821	821.4	observe	Run3	observe/STIM_000.jpg	99
2358.27	1.273	1273.2	observe	Run3	observe/STIM_000.jpg	99
2362.932	1.028	1028.4	observe	Run3	observe/STIM_000.jpg	99
2367.841	0.868	867.7	observe	Run3	observe/STIM_001.jpg	100
2371.205	0.721	721.2	observe	Run3	observe/STIM_001.jpg	100
2375.594	1.375	1374.9	observe	Run3	observe/STIM_001.jpg	100
2380.461	0.99	989.6	observe	Run3	observe/STIM_001.jpg	100
2384.422	1.062	1062.2	observe	Run3	observe/STIM_002.jpg	99
2387.643	0.955	955.1	observe	Run3	observe/STIM_002.jpg	100
2391.689	0.942	941.9	observe	Run3	observe/STIM_002.jpg	100
2395.322	0.912	911.6	observe	Run3	observe/STIM_002.jpg	99
2398.268	0.726	725.8	observe	Run3	observe/STIM_003.jpg	100
2401.874	0.728	727.6	observe	Run3	observe/STIM_003.jpg	100
2405.774	1.035	1035.2	observe	Run3	observe/STIM_003.jpg	100
2409.648	1.405	1405.0	observe	Run3	observe/STIM_003.jpg	99
2413.574	0.877	876.9	observe	Run3	observe/STIM_004.jpg	100
2417.699	1.034	1033.5	observe	Run3	observe/STIM_004.jpg	100
2422.435	0.967	967.2	observe	Run3	observe/STIM_004.jpg	99
2425.658	1.289	1288.8	observe	Run3	observe/STIM_004.jpg	99
2430.47	0.894	894.0	observe	Run3	observe/STIM_005.jpg	100
2434.547	0.855	854.6	observe	Run3	observe/STIM_005.jpg	100
2438.906	0.964	963.9	observe	Run3	observe/STIM_005.jpg	99
2442.939	0.99	990.2	observe	Run3	observe/STIM_005.jpg	100
2445.99	1.358	1357.5	observe	Run3	observe/STIM_006.jpg	100
2450.378	1.046	1045.6	observe	Run3	observe/STIM_006.jpg	99
2454.861	1.168	1168.0	observe	Run3	observe/STIM_006.jpg	100
2459.647	1.197	1197.1	observe	Run3	observe/STIM_006.jpg	99
2464.553	1.127	1126.8	observe	Run3	observe/STIM_007.jpg	99
2469.346	0.715	714.7	observe	Run3	observe/STIM_007.jpg	100
2473.891	0.817	817.3	observe	Run3	observe/STIM_007.jpg	99
2477.229	1.343	1343.2	observe	Run3	observe/STIM_007.jpg	99
2481.499	0.727	727.4	observe	Run3	observe/STIM_008.jpg	99
2485.234	0.892	891.5	observe	Run3	observe/STIM_008.jpg	100
2489.58	1.088	1088.2	observe	Run3	observe/STIM_008.jpg	99
2492.685	0.752	751.6	observe	Run3	observe/STIM_008.jpg	99
2495.522	0.755	754.6	observe	Run3	observe/STIM_009.jpg	99
2498.48	1.162	1161.7	observe	Run3	observe/STIM_009.jpg	100
2503.116	0.79	790.0	observe	Run3	observe/STIM_009.jpg	99
2507.072	0.932	932.4	observe	Run3	observe/STIM_009.jpg	100
2510.471	0.924	924.2	observe	Run3	observe/STIM_010.jpg	100
2515.196	0.992	992.0	observe	Run3	observe/STIM_010.jpg	99
2519.447	1.23	1229.9	observe	Run3	observe/STIM_010.jpg	100
2524.249	0.982	982.4	observe	Run3	observe/STIM_010.jpg	99
2528.469	0.962	962.3	observe	Run3	observe/STIM_011.jpg	99
2533.233	0.963	963.4	observe	Run3	observe/STIM_011.jpg	100
2537.122	1.061	1060.7	observe	Run3	observe/STIM_011.jpg	100
2541.88	0.889	889.2	observe	Run3	observe/STIM_011.jpg	99
2546.435	1.256	1256.3	observe	Run3	observe/STIM_012.jpg	99
2550.817	1.274	1273.5	observe	Run3	observe/STIM_012.jpg	99
2554.429	0.982	981.9	observe	Run3	observe/STIM_012.jpg	99
2558.156	0.764	764.4	observe	Run3	observe/STIM_012.jpg	100
2561.536	0.905	905.1	observe	Run3	observe/STIM_013.jpg	99
2566.247	0.926	926.2	observe	Run3	observe/STIM_013.jpg	99
2570.08	0.801	800.7	observe	Run3	observe/STIM_013.jpg	99
2573.991	1.328	1328.2	observe	Run3	observe/STIM_013.jpg	99
2578.99	0.847	847.0	observe	Run3	observe/STIM_014.jpg	100
2582.667	0.728	728.5	observe	Run3	observe/STIM_014.jpg	99
2585.495	1.089	1089.1	observe	Run3	observe/STIM_014.jpg	99
2589.044	1.047	1047.0	observe	Run3	observe/STIM_014.jpg	100
2592.952	1.199	1199.2	observe	Run3	observe/STIM_015.jpg	99
2597.833	1.34	1340.1	observe	Run3	observe/STIM_015.jpg	100
2602.368	0.768	768.1	observe	Run3	observe/STIM_015.jpg	99
2605.559	1.299	1299.0	observe	Run3	observe/STIM_015.jpg	99
2610.135	1.237	1236.9	observe	Run3	observe/STIM_016.jpg	100
2613.683	1.263	1263.2	observe	Run3	observe/STIM_016.jpg	99
2618.079	1.162	1161.9	observe	Run3	observe/STIM_016.jpg	99
2622.961	0.998	998.0	observe	Run3	observe/STIM_016.jpg	100
2627.486	0.792	791.9	observe	Run3	observe/STIM_017.jpg	100
2631.482	0.853	852.7	observe	Run3	observe/STIM_017.jpg	100
2635.708	1.288	1287.8	observe	Run3	observe/STIM_017.jpg	99
2639.572	0.939	939.2	observe	Run3	observe/STIM_017.jpg	99
2643.723	0.728	728.5	observe	Run3	observe/STIM_018.jpg	99
2647.76	1.216	1215.7	observe	Run3	observe/STIM_018.jpg	99
2651.372	1.187	1187.0	observe	Run3	observe/STIM_018.jpg	100
2655.035	0.786	786.5	observe	Run3	observe/STIM_018.jpg	99
2658.362	1.248	1247.7	observe	Run3	observe/STIM_019.jpg	99
2661.966	1.148	1147.9	observe	Run3	observe/STIM_019.jpg	99
2666.085	1.013	1013.3	observe	Run3	observe/STIM_019.jpg	99
2670.46	0.777	776.9	observe	Run3	observe/STIM_019.jpg	99
