onset	duration	accuracy_binary	trial_type	learning_stage	stimulus
0.0	3.694	1	navigation	Trial1	navigation/STIM_000.jpg
6.543	3.052	1	navigation	Trial1	navigation/STIM_000.jpg
12.577	4.437	1	navigation	Trial1	navigation/STIM_000.jpg
19.504	3.217	1	navigation	Trial1	navigation/STIM_000.jpg
25.41	1.949	1	navigation	Trial1	navigation/STIM_000.jpg
30.056	2.425	1	navigation	Trial1	navigation/STIM_000.jpg
34.215	3.279	0	navigation	Trial1	navigation/STIM_001.jpg
39.671	3.66	0	navigation	Trial1	navigation/STIM_001.jpg
45.918	3.101	1	navigation	Trial1	navigation/STIM_001.jpg
52.349	3.01	1	navigation	Trial1	navigation/STIM_001.jpg
57.381	4.011	1	navigation	Trial1	navigation/STIM_001.jpg
63.056	2.383	1	navigation	Trial1	navigation/STIM_001.jpg
68.906	5.091	0	navigation	Trial1	navigation/STIM_002.jpg
76.083	2.301	1	navigation	Trial1	navigation/STIM_002.jpg
80.623	2.893	1	navigation	Trial1	navigation/STIM_002.jpg
85.293	3.822	1	navigation	Trial1	navigation/STIM_002.jpg
92.071	3.342	1	navigation	Trial1	navigation/STIM_002.jpg
98.32	2.079	1	navigation	Trial1	navigation/STIM_002.jpg
102.911	3.72	1	navigation	Trial1	navigation/STIM_003.jpg
108.193	5.286	1	navigation	Trial1	navigation/STIM_003.jpg
115.125	3.846	1	navigation	Trial1	navigation/STIM_003.jpg
120.746	2.309	1	navigation	Trial1	navigation/STIM_003.jpg
125.474	2.859	1	navigation	Trial1	navigation/STIM_003.jpg
131.678	3.597	1	navigation	Trial1	navigation/STIM_003.jpg
137.281	4.605	1	navigation	Trial1	navigation/STIM_004.jpg
144.036	2.59	1	navigation	Trial1	navigation/STIM_004.jpg
149.679	3.921	1	navigation	Trial1	navigation/STIM_004.jpg
157.07	1.993	1	navigation	Trial1	navigation/STIM_004.jpg
161.834	4.03	0	navigation	Trial1	navigation/STIM_004.jpg
168.056	1.806	1	navigation	Trial1	navigation/STIM_004.jpg
172.443	5.119	1	navigation	Trial1	navigation/STIM_005.jpg
180.511	5.03	0	navigation	Trial1	navigation/STIM_005.jpg
187.447	3.188	1	navigation	Trial1	navigation/STIM_005.jpg
194.025	4.383	0	navigation	Trial1	navigation/STIM_005.jpg
200.119	2.864	1	navigation	Trial1	navigation/STIM_005.jpg
206.108	3.939	1	navigation	Trial1	navigation/STIM_005.jpg
213.068	3.787	1	navigation	Trial1	navigation/STIM_006.jpg
220.314	2.962	1	navigation	Trial1	navigation/STIM_006.jpg
226.102	2.375	1	navigation	Trial1	navigation/STIM_006.jpg
231.502	2.168	1	navigation	Trial1	navigation/STIM_006.jpg
236.373	4.427	1	navigation	Trial1	navigation/STIM_006.jpg
243.644	3.502	0	navigation	Trial1	navigation/STIM_006.jpg
250.311	5.309	1	navigation	Trial1	navigation/STIM_007.jpg
258.42	5.149	1	navigation	Trial1	navigation/STIM_007.jpg
266.89	4.251	1	navigation	Trial1	navigation/STIM_007.jpg
273.493	3.312	1	navigation	Trial1	navigation/STIM_007.jpg
279.02	4.008	1	navigation	Trial1	navigation/STIM_007.jpg
286.184	4.129	1	navigation	Trial1	navigation/STIM_007.jpg
292.279	4.063	1	navigation	Trial1	navigation/STIM_008.jpg
297.908	4.039	1	navigation	Trial1	navigation/STIM_008.jpg
303.729	3.716	1	navigation	Trial1	navigation/STIM_008.jpg
309.457	3.023	1	navigation	Trial1	navigation/STIM_008.jpg
314.304	2.571	0	navigation	Trial1	navigation/STIM_008.jpg
320.163	3.623	1	navigation	Trial1	navigation/STIM_008.jpg
326.785	4.538	0	navigation	Trial1	navigation/STIM_009.jpg
333.03	4.407	1	navigation	Trial1	navigation/STIM_009.jpg
340.68	3.567	0	navigation	Trial1	navigation/STIM_009.jpg
346.539	3.159	0	navigation	Trial1	navigation/STIM_009.jpg
352.083	1.844	1	navigation	Trial1	navigation/STIM_009.jpg
356.217	4.195	1	navigation	Trial1	navigation/STIM_009.jpg
363.7	4.668	1	navigation	Trial1	navigation/STIM_010.jpg
371.647	4.901	0	navigation	Trial1	navigation/STIM_010.jpg
379.707	4.988	1	navigation	Trial1	navigation/STIM_010.jpg
386.384	4.287	1	navigation	Trial1	navigation/STIM_010.jpg
393.49	2.72	0	navigation	Trial1	navigation/STIM_010.jpg
398.244	1.867	1	navigation	Trial1	navigation/STIM_010.jpg
403.254	4.671	1	navigation	Trial1	navigation/STIM_011.jpg
410.228	5.145	1	navigation	Trial1	navigation/STIM_011.jpg
416.789	2.882	1	navigation	Trial1	navigation/STIM_011.jpg
421.641	2.11	0	navigation	Trial1	navigation/STIM_011.jpg
426.267	2.222	1	navigation	Trial1	navigation/STIM_011.jpg
431.483	2.912	1	navigation	Trial1	navigation/STIM_011.jpg
436.276	1.421	1	pointing	Trial1	pointing/STIM_000.jpg
440.396	1.484	1	pointing	Trial1	pointing/STIM_000.jpg
443.719	1.072	1	pointing	Trial1	pointing/STIM_000.jpg
446.732	1.587	1	pointing	Trial1	pointing/STIM_000.jpg
451.654	1.029	1	pointing	Trial1	pointing/STIM_000.jpg
455.062	1.182	1	pointing	Trial1	pointing/STIM_000.jpg
459.699	1.168	1	pointing	Trial1	pointing/STIM_001.jpg
463.262	1.639	1	pointing	Trial1	pointing/STIM_001.jpg
468.232	1.557	1	pointing	Trial1	pointing/STIM_001.jpg
472.129	1.177	1	pointing	Trial1	pointing/STIM_001.jpg
476.66	1.624	1	pointing	Trial1	pointing/STIM_001.jpg
481.487	1.081	1	pointing	Trial1	pointing/STIM_001.jpg
484.524	1.681	1	pointing	Trial1	pointing/STIM_002.jpg
488.19	1.125	1	pointing	Trial1	pointing/STIM_002.jpg
491.836	1.477	0	pointing	Trial1	pointing/STIM_002.jpg
496.766	1.484	1	pointing	Trial1	pointing/STIM_002.jpg
501.202	1.421	1	pointing	Trial1	pointing/STIM_002.jpg
505.707	1.446	1	pointing	Trial1	pointing/STIM_002.jpg
510.193	1.125	1	pointing	Trial1	pointing/STIM_003.jpg
513.685	1.31	1	pointing	Trial1	pointing/STIM_003.jpg
518.263	1.165	1	pointing	Trial1	pointing/STIM_003.jpg
521.648	0.964	1	pointing	Trial1	pointing/STIM_003.jpg
526.452	1.673	1	pointing	Trial1	pointing/STIM_003.jpg
531.838	1.336	1	pointing	Trial1	pointing/STIM_003.jpg
536.022	1.651	1	pointing	Trial1	pointing/STIM_004.jpg
541.183	1.093	1	pointing	Trial1	pointing/STIM_004.jpg
545.973	1.5	1	pointing	Trial1	pointing/STIM_004.jpg
550.981	1.721	1	pointing	Trial1	pointing/STIM_004.jpg
554.859	1.336	1	pointing	Trial1	pointing/STIM_004.jpg
559.721	0.996	1	pointing	Trial1	pointing/STIM_004.jpg
563.907	1.018	1	pointing	Trial1	pointing/STIM_005.jpg
567.956	1.649	1	pointing	Trial1	pointing/STIM_005.jpg
571.672	1.522	1	pointing	Trial1	pointing/STIM_005.jpg
576.803	1.401	1	pointing	Trial1	pointing/STIM_005.jpg
581.565	0.999	1	pointing	Trial1	pointing/STIM_005.jpg
585.035	1.025	1	pointing	Trial1	pointing/STIM_005.jpg
589.805	0.97	0	pointing	Trial1	pointing/STIM_006.jpg
594.296	1.364	1	pointing	Trial1	pointing/STIM_006.jpg
597.768	1.302	1	pointing	Trial1	pointing/STIM_006.jpg
602.408	0.963	1	pointing	Trial1	pointing/STIM_006.jpg
605.368	0.946	1	pointing	Trial1	pointing/STIM_006.jpg
609.376	1.253	1	pointing	Trial1	pointing/STIM_006.jpg
613.307	1.089	1	pointing	Trial1	pointing/STIM_007.jpg
617.717	1.031	1	pointing	Trial1	pointing/STIM_007.jpg
622.316	1.097	1	pointing	Trial1	pointing/STIM_007.jpg
626.649	1.106	1	pointing	Trial1	pointing/STIM_007.jpg
631.581	1.493	1	pointing	Trial1	pointing/STIM_007.jpg
636.043	1.55	1	pointing	Trial1	pointing/STIM_007.jpg
641.177	1.546	0	pointing	Trial1	pointing/STIM_008.jpg
646.432	1.533	1	pointing	Trial1	pointing/STIM_008.jpg
651.511	0.942	1	pointing	Trial1	pointing/STIM_008.jpg
655.319	1.002	1	pointing	Trial1	pointing/STIM_008.jpg
660.143	1.58	1	pointing	Trial1	pointing/STIM_008.jpg
665.01	1.224	1	pointing	Trial1	pointing/STIM_008.jpg
668.907	1.671	1	pointing	Trial1	pointing/STIM_009.jpg
673.386	1.348	1	pointing	Trial1	pointing/STIM_009.jpg
677.803	1.401	1	pointing	Trial1	pointing/STIM_009.jpg
681.846	1.376	1	pointing	Trial1	pointing/STIM_009.jpg
685.756	1.129	1	pointing	Trial1	pointing/STIM_009.jpg
689.965	1.705	1	pointing	Trial1	pointing/STIM_009.jpg
693.553	1.642	1	pointing	Trial1	pointing/STIM_010.jpg
697.539	1.029	1	pointing	Trial1	pointing/STIM_010.jpg
702.401	1.711	0	pointing	Trial1	pointing/STIM_010.jpg
707.736	1.406	1	pointing	Trial1	pointing/STIM_010.jpg
711.823	1.186	1	pointing	Trial1	pointing/STIM_010.jpg
715.419	1.42	1	pointing	Trial1	pointing/STIM_010.jpg
720.027	1.118	1	pointing	Trial1	pointing/STIM_011.jpg
724.071	0.943	1	pointing	Trial1	pointing/STIM_011.jpg
727.764	0.974	1	pointing	Trial1	pointing/STIM_011.jpg
732.041	0.98	1	pointing	Trial1	pointing/STIM_011.jpg
735.935	1.696	1	pointing	Trial1	pointing/STIM_011.jpg
740.111	1.013	1	pointing	Trial1	pointing/STIM_011.jpg
744.69	3.923	0	navigation	Trial2	navigation/STIM_000.jpg
751.706	3.186	1	navigation	Trial2	navigation/STIM_000.jpg
757.363	3.837	1	navigation	Trial2	navigation/STIM_000.jpg
764.331	2.108	1	navigation	Trial2	navigation/STIM_000.jpg
769.016	3.76	1	navigation	Trial2	navigation/STIM_000.jpg
774.848	3.287	1	navigation	Trial2	navigation/STIM_000.jpg
781.183	3.824	1	navigation	Trial2	navigation/STIM_001.jpg
787.69	2.256	1	navigation	Trial2	navigation/STIM_001.jpg
793.228	2.452	1	navigation	Trial2	navigation/STIM_001.jpg
797.771	2.89	1	navigation	Trial2	navigation/STIM_001.jpg
803.663	3.33	1	navigation	Trial2	navigation/STIM_001.jpg
809.71	2.823	1	navigation	Trial2	navigation/STIM_001.jpg
815.007	4.185	1	navigation	Trial2	navigation/STIM_002.jpg
821.361	1.89	0	navigation	Trial2	navigation/STIM_002.jpg
826.109	4.273	1	navigation	Trial2	navigation/STIM_002.jpg
831.962	2.085	1	navigation	Trial2	navigation/STIM_002.jpg
836.524	3.814	1	navigation	Trial2	navigation/STIM_002.jpg
842.44	3.918	0	navigation	Trial2	navigation/STIM_002.jpg
849.304	4.616	1	navigation	Trial2	navigation/STIM_003.jpg
855.685	4.423	0	navigation	Trial2	navigation/STIM_003.jpg
862.982	2.879	0	navigation	Trial2	navigation/STIM_003.jpg
868.335	3.92	1	navigation	Trial2	navigation/STIM_003.jpg
875.489	2.746	1	navigation	Trial2	navigation/STIM_003.jpg
881.479	2.832	1	navigation	Trial2	navigation/STIM_003.jpg
886.564	3.15	1	navigation	Trial2	navigation/STIM_004.jpg
891.552	3.872	1	navigation	Trial2	navigation/STIM_004.jpg
897.844	2.971	1	navigation	Trial2	navigation/STIM_004.jpg
903.026	1.994	1	navigation	Trial2	navigation/STIM_004.jpg
907.965	3.51	1	navigation	Trial2	navigation/STIM_004.jpg
914.92	3.006	1	navigation	Trial2	navigation/STIM_004.jpg
920.759	3.07	1	navigation	Trial2	navigation/STIM_005.jpg
927.037	1.888	1	navigation	Trial2	navigation/STIM_005.jpg
930.713	1.837	1	navigation	Trial2	navigation/STIM_005.jpg
936.103	1.746	1	navigation	Trial2	navigation/STIM_005.jpg
940.805	1.732	1	navigation	Trial2	navigation/STIM_005.jpg
946.207	3.471	1	navigation	Trial2	navigation/STIM_005.jpg
952.25	1.979	0	navigation	Trial2	navigation/STIM_006.jpg
957.367	2.837	1	navigation	Trial2	navigation/STIM_006.jpg
963.281	3.84	1	navigation	Trial2	navigation/STIM_006.jpg
969.66	2.067	1	navigation	Trial2	navigation/STIM_006.jpg
974.703	2.122	1	navigation	Trial2	navigation/STIM_006.jpg
979.293	3.286	1	navigation	Trial2	navigation/STIM_006.jpg
984.568	2.994	1	navigation	Trial2	navigation/STIM_007.jpg
989.272	2.746	1	navigation	Trial2	navigation/STIM_007.jpg
993.992	2.503	1	navigation	Trial2	navigation/STIM_007.jpg
999.388	2.293	1	navigation	Trial2	navigation/STIM_007.jpg
1004.406	3.169	1	navigation	Trial2	navigation/STIM_007.jpg
1011.075	3.834	1	navigation	Trial2	navigation/STIM_007.jpg
1016.559	4.371	1	navigation	Trial2	navigation/STIM_008.jpg
1022.715	2.222	1	navigation	Trial2	navigation/STIM_008.jpg
1026.865	3.305	1	navigation	Trial2	navigation/STIM_008.jpg
1033.412	3.741	1	navigation	Trial2	navigation/STIM_008.jpg
1038.861	1.906	1	navigation	Trial2	navigation/STIM_008.jpg
1043.097	2.924	0	navigation	Trial2	navigation/STIM_008.jpg
1047.873	4.501	1	navigation	Trial2	navigation/STIM_009.jpg
1054.002	2.796	1	navigation	Trial2	navigation/STIM_009.jpg
1059.413	2.183	1	navigation	Trial2	navigation/STIM_009.jpg
1063.715	2.262	1	navigation	Trial2	navigation/STIM_009.jpg
1067.895	3.872	1	navigation	Trial2	navigation/STIM_009.jpg
1074.009	2.811	1	navigation	Trial2	navigation/STIM_009.jpg
1079.283	3.732	1	navigation	Trial2	navigation/STIM_010.jpg
1085.864	4.493	1	navigation	Trial2	navigation/STIM_010.jpg
1092.134	2.716	1	navigation	Trial2	navigation/STIM_010.jpg
1097.702	3.544	1	navigation	Trial2	navigation/STIM_010.jpg
1104.571	2.932	1	navigation	Trial2	navigation/STIM_010.jpg
1110.119	1.929	0	navigation	Trial2	navigation/STIM_010.jpg
1115.685	4.158	1	navigation	Trial2	navigation/STIM_011.jpg
1121.709	3.879	0	navigation	Trial2	navigation/STIM_011.jpg
1127.433	1.825	1	navigation	Trial2	navigation/STIM_011.jpg
1131.872	3.626	1	navigation	Trial2	navigation/STIM_011.jpg
1138.319	3.105	1	navigation	Trial2	navigation/STIM_011.jpg
1144.673	2.131	1	navigation	Trial2	navigation/STIM_011.jpg
1150.091	1.091	1	pointing	Trial2	pointing/STIM_000.jpg
1153.786	1.384	1	pointing	Trial2	pointing/STIM_000.jpg
1157.599	1.719	1	pointing	Trial2	pointing/STIM_000.jpg
1161.423	1.7	1	pointing	Trial2	pointing/STIM_000.jpg
1165.797	1.195	1	pointing	Trial2	pointing/STIM_000.jpg
1170.177	0.923	1	pointing	Trial2	pointing/STIM_000.jpg
1174.872	1.007	1	pointing	Trial2	pointing/STIM_001.jpg
1179.687	1.226	1	pointing	Trial2	pointing/STIM_001.jpg
1183.66	1.106	1	pointing	Trial2	pointing/STIM_001.jpg
1188.566	1.388	1	pointing	Trial2	pointing/STIM_001.jpg
1192.373	1.485	1	pointing	Trial2	pointing/STIM_001.jpg
1196.736	1.597	1	pointing	Trial2	pointing/STIM_001.jpg
1200.575	1.475	1	pointing	Trial2	pointing/STIM_002.jpg
1205.248	1.679	1	pointing	Trial2	pointing/STIM_002.jpg
1208.963	1.299	1	pointing	Trial2	pointing/STIM_002.jpg
1212.332	1.399	1	pointing	Trial2	pointing/STIM_002.jpg
1215.899	1.163	1	pointing	Trial2	pointing/STIM_002.jpg
1218.92	1.417	1	pointing	Trial2	pointing/STIM_002.jpg
1222.536	1.688	1	pointing	Trial2	pointing/STIM_003.jpg
1226.733	1.489	1	pointing	Trial2	pointing/STIM_003.jpg
1231.315	1.473	1	pointing	Trial2	pointing/STIM_003.jpg
1236.443	0.939	1	pointing	Trial2	pointing/STIM_003.jpg
1240.238	1.583	1	pointing	Trial2	pointing/STIM_003.jpg
1244.675	1.42	1	pointing	Trial2	pointing/STIM_003.jpg
1248.923	1.083	1	pointing	Trial2	pointing/STIM_004.jpg
1253.851	1.693	1	pointing	Trial2	pointing/STIM_004.jpg
1257.744	1.206	1	pointing	Trial2	pointing/STIM_004.jpg
1262.299	1.597	1	pointing	Trial2	pointing/STIM_004.jpg
1267.227	1.118	1	pointing	Trial2	pointing/STIM_004.jpg
1270.429	1.332	1	pointing	Trial2	pointing/STIM_004.jpg
1274.966	1.05	1	pointing	Trial2	pointing/STIM_005.jpg
1279.5	0.966	1	pointing	Trial2	pointing/STIM_005.jpg
1283.792	1.472	1	pointing	Trial2	pointing/STIM_005.jpg
1288.482	0.996	1	pointing	Trial2	pointing/STIM_005.jpg
1291.876	1.701	1	pointing	Trial2	pointing/STIM_005.jpg
1297.351	0.957	1	pointing	Trial2	pointing/STIM_005.jpg
1300.254	1.263	1	pointing	Trial2	pointing/STIM_006.jpg
1303.47	1.127	1	pointing	Trial2	pointing/STIM_006.jpg
1306.633	1.102	1	pointing	Trial2	pointing/STIM_006.jpg
1310.068	1.328	1	pointing	Trial2	pointing/STIM_006.jpg
1314.444	1.654	1	pointing	Trial2	pointing/STIM_006.jpg
1318.498	1.433	1	pointing	Trial2	pointing/STIM_006.jpg
1322.978	1.389	1	pointing	Trial2	pointing/STIM_007.jpg
1326.531	1.054	1	pointing	Trial2	pointing/STIM_007.jpg
1329.876	1.427	1	pointing	Trial2	pointing/STIM_007.jpg
1333.221	1.417	1	pointing	Trial2	pointing/STIM_007.jpg
1336.757	1.175	0	pointing	Trial2	pointing/STIM_007.jpg
1341.253	1.482	1	pointing	Trial2	pointing/STIM_007.jpg
1345.308	1.529	1	pointing	Trial2	pointing/STIM_008.jpg
1350.579	1.514	1	pointing	Trial2	pointing/STIM_008.jpg
1355.358	1.464	1	pointing	Trial2	pointing/STIM_008.jpg
1359.188	1.703	1	pointing	Trial2	pointing/STIM_008.jpg
1363.842	1.524	1	pointing	Trial2	pointing/STIM_008.jpg
1368.121	1.452	1	pointing	Trial2	pointing/STIM_008.jpg
1372.228	1.44	0	pointing	Trial2	pointing/STIM_009.jpg
1377.435	1.55	1	pointing	Trial2	pointing/STIM_009.jpg
1381.84	1.172	1	pointing	Trial2	pointing/STIM_009.jpg
1385.332	1.714	1	pointing	Trial2	pointing/STIM_009.jpg
1389.384	1.396	1	pointing	Trial2	pointing/STIM_009.jpg
1394.576	1.147	1	pointing	Trial2	pointing/STIM_009.jpg
1399.125	1.369	1	pointing	Trial2	pointing/STIM_010.jpg
1403.369	1.475	1	pointing	Trial2	pointing/STIM_010.jpg
1406.934	1.414	1	pointing	Trial2	pointing/STIM_010.jpg
1412.138	1.406	1	pointing	Trial2	pointing/STIM_010.jpg
1416.875	1.653	0	pointing	Trial2	pointing/STIM_010.jpg
1422.068	1.393	1	pointing	Trial2	pointing/STIM_010.jpg
1425.71	1.47	0	pointing	Trial2	pointing/STIM_011.jpg
1430.176	0.948	1	pointing	Trial2	pointing/STIM_011.jpg
1433.244	1.454	0	pointing	Trial2	pointing/STIM_011.jpg
1437.609	1.462	1	pointing	Trial2	pointing/STIM_011.jpg
1442.082	1.68	1	pointing	Trial2	pointing/STIM_011.jpg
1447.54	1.493	1	pointing	Trial2	pointing/STIM_011.jpg
1451.029	2.616	1	navigation	Trial3	navigation/STIM_000.jpg
1456.945	2.928	1	navigation	Trial3	navigation/STIM_000.jpg
1463.318	3.085	1	navigation	Trial3	navigation/STIM_000.jpg
1468.408	1.953	0	navigation	Trial3	navigation/STIM_000.jpg
1474.094	3.406	1	navigation	Trial3	navigation/STIM_000.jpg
1479.506	1.692	1	navigation	Trial3	navigation/STIM_000.jpg
1483.552	2.317	1	navigation	Trial3	navigation/STIM_001.jpg
1488.368	3.058	1	navigation	Trial3	navigation/STIM_001.jpg
1493.878	2.706	1	navigation	Trial3	navigation/STIM_001.jpg
1500.194	3.008	1	navigation	Trial3	navigation/STIM_001.jpg
1506.452	3.242	1	navigation	Trial3	navigation/STIM_001.jpg
1512.793	1.653	1	navigation	Trial3	navigation/STIM_001.jpg
1516.626	2.396	0	navigation	Trial3	navigation/STIM_002.jpg
1522.072	2.7	1	navigation	Trial3	navigation/STIM_002.jpg
1528.191	2.882	1	navigation	Trial3	navigation/STIM_002.jpg
1533.236	3.2	1	navigation	Trial3	navigation/STIM_002.jpg
1538.896	3.259	1	navigation	Trial3	navigation/STIM_002.jpg
1545.427	2.539	1	navigation	Trial3	navigation/STIM_002.jpg
1549.911	2.465	1	navigation	Trial3	navigation/STIM_003.jpg
1555.867	3.768	1	navigation	Trial3	navigation/STIM_003.jpg
1562.025	2.047	1	navigation	Trial3	navigation/STIM_003.jpg
1566.604	2.763	1	navigation	Trial3	navigation/STIM_003.jpg
1572.895	3.973	1	navigation	Trial3	navigation/STIM_003.jpg
1579.877	2.86	1	navigation	Trial3	navigation/STIM_003.jpg
1585.519	3.528	1	navigation	Trial3	navigation/STIM_004.jpg
1591.377	2.743	1	navigation	Trial3	navigation/STIM_004.jpg
1596.939	2.217	1	navigation	Trial3	navigation/STIM_004.jpg
1602.004	3.784	1	navigation	Trial3	navigation/STIM_004.jpg
1607.708	3.433	1	navigation	Trial3	navigation/STIM_004.jpg
1613.475	2.476	1	navigation	Trial3	navigation/STIM_004.jpg
1617.958	2.996	1	navigation	Trial3	navigation/STIM_005.jpg
1622.592	3.248	1	navigation	Trial3	navigation/STIM_005.jpg
1628.339	2.401	1	navigation	Trial3	navigation/STIM_005.jpg
1633.832	3.852	1	navigation	Trial3	navigation/STIM_005.jpg
1640.044	2.207	1	navigation	Trial3	navigation/STIM_005.jpg
1645.822	3.611	1	navigation	Trial3	navigation/STIM_005.jpg
1651.929	2.501	0	navigation	Trial3	navigation/STIM_006.jpg
1657.344	1.617	1	navigation	Trial3	navigation/STIM_006.jpg
1661.039	3.423	1	navigation	Trial3	navigation/STIM_006.jpg
1667.884	2.4	1	navigation	Trial3	navigation/STIM_006.jpg
1672.929	1.931	1	navigation	Trial3	navigation/STIM_006.jpg
1676.769	1.848	1	navigation	Trial3	navigation/STIM_006.jpg
1680.695	3.68	1	navigation	Trial3	navigation/STIM_007.jpg
1686.36	3.141	1	navigation	Trial3	navigation/STIM_007.jpg
1692.001	2.11	1	navigation	Trial3	navigation/STIM_007.jpg
1697.479	3.363	1	navigation	Trial3	navigation/STIM_007.jpg
1703.434	2.896	1	navigation	Trial3	navigation/STIM_007.jpg
1709.556	1.699	1	navigation	Trial3	navigation/STIM_007.jpg
1713.632	2.617	1	navigation	Trial3	navigation/STIM_008.jpg
1717.941	3.553	1	navigation	Trial3	navigation/STIM_008.jpg
1723.832	1.976	1	navigation	Trial3	navigation/STIM_008.jpg
1728.471	3.413	1	navigation	Trial3	navigation/STIM_008.jpg
1735.049	2.297	1	navigation	Trial3	navigation/STIM_008.jpg
1739.644	3.337	1	navigation	Trial3	navigation/STIM_008.jpg
1745.775	3.15	1	navigation	Trial3	navigation/STIM_009.jpg
1752.425	2.226	1	navigation	Trial3	navigation/STIM_009.jpg
1756.415	2.792	1	navigation	Trial3	navigation/STIM_009.jpg
1762.418	1.796	1	navigation	Trial3	navigation/STIM_009.jpg
1766.176	1.732	1	navigation	Trial3	navigation/STIM_009.jpg
1770.035	3.288	1	navigation	Trial3	navigation/STIM_009.jpg
1776.355	2.111	1	navigation	Trial3	navigation/STIM_010.jpg
1781.901	1.715	1	navigation	Trial3	navigation/STIM_010.jpg
1787.236	1.706	1	navigation	Trial3	navigation/STIM_010.jpg
1791.471	3.671	0	navigation	Trial3	navigation/STIM_010.jpg
1797.217	3.039	1	navigation	Trial3	navigation/STIM_010.jpg
1803.204	2.156	1	navigation	Trial3	navigation/STIM_010.jpg
1808.906	2.929	1	navigation	Trial3	navigation/STIM_011.jpg
1814.416	3.683	1	navigation	Trial3	navigation/STIM_011.jpg
1820.797	2.5	1	navigation	Trial3	navigation/STIM_011.jpg
1826.43	1.672	1	navigation	Trial3	navigation/STIM_011.jpg
1831.139	2.134	1	navigation	Trial3	navigation/STIM_011.jpg
1835.202	2.843	1	navigation	Trial3	navigation/STIM_011.jpg
1840.177	1.182	1	pointing	Trial3	pointing/STIM_000.jpg
1844.164	1.243	1	pointing	Trial3	pointing/STIM_000.jpg
1847.638	0.944	1	pointing	Trial3	pointing/STIM_000.jpg
1850.516	1.677	1	pointing	Trial3	pointing/STIM_000.jpg
1855.299	1.462	1	pointing	Trial3	pointing/STIM_000.jpg
1859.006	1.046	1	pointing	Trial3	pointing/STIM_000.jpg
1863.004	1.094	1	pointing	Trial3	pointing/STIM_001.jpg
1866.715	1.228	1	pointing	Trial3	pointing/STIM_001.jpg
1871.141	1.145	1	pointing	Trial3	pointing/STIM_001.jpg
1875.966	1.213	1	pointing	Trial3	pointing/STIM_001.jpg
1880.459	1.185	1	pointing	Trial3	pointing/STIM_001.jpg
1884.707	1.307	1	pointing	Trial3	pointing/STIM_001.jpg
1888.27	1.039	1	pointing	Trial3	pointing/STIM_002.jpg
1892.521	1.171	1	pointing	Trial3	pointing/STIM_002.jpg
1897.502	0.964	1	pointing	Trial3	pointing/STIM_002.jpg
1901.455	1.134	1	pointing	Trial3	pointing/STIM_002.jpg
1906.393	1.082	1	pointing	Trial3	pointing/STIM_002.jpg
1910.572	1.21	1	pointing	Trial3	pointing/STIM_002.jpg
1914.287	1.31	1	pointing	Trial3	pointing/STIM_003.jpg
1918.417	1.045	1	pointing	Trial3	pointing/STIM_003.jpg
1923.211	1.312	1	pointing	Trial3	pointing/STIM_003.jpg
1926.778	1.499	1	pointing	Trial3	pointing/STIM_003.jpg
1930.637	0.998	1	pointing	Trial3	pointing/STIM_003.jpg
1935.246	0.946	1	pointing	Trial3	pointing/STIM_003.jpg
1938.656	0.928	1	pointing	Trial3	pointing/STIM_004.jpg
1942.475	1.36	1	pointing	Trial3	pointing/STIM_004.jpg
1947.488	1.368	1	pointing	Trial3	pointing/STIM_004.jpg
1951.804	1.492	1	pointing	Trial3	pointing/STIM_004.jpg
1956.725	1.361	1	pointing	Trial3	pointing/STIM_004.jpg
1961.462	1.583	1	pointing	Trial3	pointing/STIM_004.jpg
1966.013	1.568	1	pointing	Trial3	pointing/STIM_005.jpg
1971.029	1.564	1	pointing	Trial3	pointing/STIM_005.jpg
1974.684	1.24	1	pointing	Trial3	pointing/STIM_005.jpg
1978.012	1.429	1	pointing	Trial3	pointing/STIM_005.jpg
1982.691	1.714	0	pointing	Trial3	pointing/STIM_005.jpg
1987.714	1.677	1	pointing	Trial3	pointing/STIM_005.jpg
1992.776	1.216	1	pointing	Trial3	pointing/STIM_006.jpg
1996.218	1.588	1	pointing	Trial3	pointing/STIM_006.jpg
2000.181	1.143	0	pointing	Trial3	pointing/STIM_006.jpg
2003.89	1.66	1	pointing	Trial3	pointing/STIM_006.jpg
2007.439	1.5	1	pointing	Trial3	pointing/STIM_006.jpg
2012.334	1.332	1	pointing	Trial3	pointing/STIM_006.jpg
2016.306	1.375	1	pointing	Trial3	pointing/STIM_007.jpg
2020.54	1.715	1	pointing	Trial3	pointing/STIM_007.jpg
2024.596	1.034	1	pointing	Trial3	pointing/STIM_007.jpg
2028.785	0.929	1	pointing	Trial3	pointing/STIM_007.jpg
2032.21	1.003	1	pointing	Trial3	pointing/STIM_007.jpg
2036.101	1.382	1	pointing	Trial3	pointing/STIM_007.jpg
2039.587	1.414	1	pointing	Trial3	pointing/STIM_008.jpg
2043.966	1.685	1	pointing	Trial3	pointing/STIM_008.jpg
2048.093	1.545	1	pointing	Trial3	pointing/STIM_008.jpg
2052.339	1.372	1	pointing	Trial3	pointing/STIM_008.jpg
2056.256	1.658	1	pointing	Trial3	pointing/STIM_008.jpg
2061.138	1.316	1	pointing	Trial3	pointing/STIM_008.jpg
2065.374	1.046	1	pointing	Trial3	pointing/STIM_009.jpg
2069.863	1.231	1	pointing	Trial3	pointing/STIM_009.jpg
2073.593	0.994	1	pointing	Trial3	pointing/STIM_009.jpg
2077.812	1.608	1	pointing	Trial3	pointing/STIM_009.jpg
2081.596	1.627	1	pointing	Trial3	pointing/STIM_009.jpg
2085.74	1.248	1	pointing	Trial3	pointing/STIM_009.jpg
2088.984	1.59	1	pointing	Trial3	pointing/STIM_010.jpg
2093.027	1.499	1	pointing	Trial3	pointing/STIM_010.jpg
2097.28	1.538	1	pointing	Trial3	pointing/STIM_010.jpg
2101.249	1.5	1	pointing	Trial3	pointing/STIM_010.jpg
2105.035	1.308	1	pointing	Trial3	pointing/STIM_010.jpg
2109.08	1.465	1	pointing	Trial3	pointing/STIM_010.jpg
2114.084	1.197	1	pointing	Trial3	pointing/STIM_011.jpg
2117.178	1.502	1	pointing	Trial3	pointing/STIM_011.jpg
2120.822	1.31	0	pointing	Trial3	pointing/STIM_011.jpg
2124.929	1.554	1	pointing	Trial3	pointing/STIM_011.jpg
2130.228	0.966	1	pointing	Trial3	pointing/STIM_011.jpg
2133.118	1.34	1	pointing	Trial3	pointing/STIM_011.jpg
