onset	duration	response_time_ms	trial_type	learning_stage	stimulus	response_port
0.0	3.694	3693.6	navigation	Trial1	navigation/STIM_000.jpg	100
6.543	3.052	3052.2	navigation	Trial1	navigation/STIM_000.jpg	100
12.577	4.437	4436.9	navigation	Trial1	navigation/STIM_000.jpg	99
19.504	3.217	3216.8	navigation	Trial1	navigation/STIM_000.jpg	100
25.41	1.949	1949.4	navigation	Trial1	navigation/STIM_000.jpg	99
30.056	2.425	2424.8	navigation	Trial1	navigation/STIM_000.jpg	100
34.215	3.279	3279.4	navigation	Trial1	navigation/STIM_001.jpg	100
39.671	3.66	3660.5	navigation	Trial1	navigation/STIM_001.jpg	100
45.918	3.101	3100.9	navigation	Trial1	navigation/STIM_001.jpg	100
52.349	3.01	3010.4	navigation	Trial1	navigation/STIM_001.jpg	100
57.381	4.011	4011.2	navigation	Trial1	navigation/STIM_001.jpg	100
63.056	2.383	2382.6	navigation	Trial1	navigation/STIM_001.jpg	100
68.906	5.091	5090.8	navigation	Trial1	navigation/STIM_002.jpg	99
76.083	2.301	2301.3	navigation	Trial1	navigation/STIM_002.jpg	99
80.623	2.893	2892.9	navigation	Trial1	navigation/STIM_002.jpg	100
85.293	3.822	3822.3	navigation	Trial1	navigation/STIM_002.jpg	99
92.071	3.342	3341.8	navigation	Trial1	navigation/STIM_002.jpg	100
98.32	2.079	2078.9	navigation	Trial1	navigation/STIM_002.jpg	99
102.911	3.72	3719.5	navigation	Trial1	navigation/STIM_003.jpg	99
108.193	5.286	5285.8	navigation	Trial1	navigation/STIM_003.jpg	99
115.125	3.846	3846.0	navigation	Trial1	navigation/STIM_003.jpg	100
120.746	2.309	2309.0	navigation	Trial1	navigation/STIM_003.jpg	99
125.474	2.859	2859.4	navigation	Trial1	navigation/STIM_003.jpg	100
131.678	3.597	3597.3	navigation	Trial1	navigation/STIM_003.jpg	99
137.281	4.605	4605.3	navigation	Trial1	navigation/STIM_004.jpg	100
144.036	2.59	2590.5	navigation	Trial1	navigation/STIM_004.jpg	100
149.679	3.921	3921.0	navigation	Trial1	navigation/STIM_004.jpg	99
157.07	1.993	1992.8	navigation	Trial1	navigation/STIM_004.jpg	99
161.834	4.03	4030.2	navigation	Trial1	navigation/STIM_004.jpg	100
168.056	1.806	1806.1	navigation	Trial1	navigation/STIM_004.jpg	100
172.443	5.119	5119.2	navigation	Trial1	navigation/STIM_005.jpg	100
180.511	5.03	5030.4	navigation	Trial1	navigation/STIM_005.jpg	100
187.447	3.188	3188.3	navigation	Trial1	navigation/STIM_005.jpg	99
194.025	4.383	4382.9	navigation	Trial1	navigation/STIM_005.jpg	100
200.119	2.864	2863.7	navigation	Trial1	navigation/STIM_005.jpg	100
206.108	3.939	3939.2	navigation	Trial1	navigation/STIM_005.jpg	99
213.068	3.787	3786.9	navigation	Trial1	navigation/STIM_006.jpg	99
220.314	2.962	2962.0	navigation	Trial1	navigation/STIM_006.jpg	99
226.102	2.375	2375.1	navigation	Trial1	navigation/STIM_006.jpg	100
231.502	2.168	2167.9	navigation	Trial1	navigation/STIM_006.jpg	100
236.373	4.427	4426.8	navigation	Trial1	navigation/STIM_006.jpg	99
243.644	3.502	3502.1	navigation	Trial1	navigation/STIM_006.jpg	100
250.311	5.309	5309.0	navigation	Trial1	navigation/STIM_007.jpg	99
258.42	5.149	5149.3	navigation	Trial1	navigation/STIM_007.jpg	100
266.89	4.251	4251.4	navigation	Trial1	navigation/STIM_007.jpg	100
273.493	3.312	3311.9	navigation	Trial1	navigation/STIM_007.jpg	100
279.02	4.008	4007.6	navigation	Trial1	navigation/STIM_007.jpg	99
286.184	4.129	4129.3	navigation	Trial1	navigation/STIM_007.jpg	99
292.279	4.063	4063.3	navigation	Trial1	navigation/STIM_008.jpg	100
297.908	4.039	4038.8	navigation	Trial1	navigation/STIM_008.jpg	99
303.729	3.716	3716.4	navigation	Trial1	navigation/STIM_008.jpg	99
309.457	3.023	3022.8	navigation	Trial1	navigation/STIM_008.jpg	99
314.304	2.571	2570.8	navigation	Trial1	navigation/STIM_008.jpg	100
320.163	3.623	3622.6	navigation	Trial1	navigation/STIM_008.jpg	100
326.785	4.538	4538.1	navigation	Trial1	navigation/STIM_009.jpg	99
333.03	4.407	4406.8	navigation	Trial1	navigation/STIM_009.jpg	99
340.68	3.567	3567.4	navigation	Trial1	navigation/STIM_009.jpg	100
346.539	3.159	3159.2	navigation	Trial1	navigation/STIM_009.jpg	99
352.083	1.844	1844.4	navigation	Trial1	navigation/STIM_009.jpg	100
356.217	4.195	4195.4	navigation	Trial1	navigation/STIM_009.jpg	99
363.7	4.668	4668.3	navigation	Trial1	navigation/STIM_010.jpg	100
371.647	4.901	4901.2	navigation	Trial1	navigation/STIM_010.jpg	99
379.707	4.988	4987.7	navigation	Trial1	navigation/STIM_010.jpg	99
386.384	4.287	4286.8	navigation	Trial1	navigation/STIM_010.jpg	99
393.49	2.72	2720.1	navigation	Trial1	navigation/STIM_010.jpg	100
398.244	1.867	1867.1	navigation	Trial1	navigation/STIM_010.jpg	100
403.254	4.671	4671.4	navigation	Trial1	navigation/STIM_011.jpg	99
410.228	5.145	5144.7	navigation	Trial1	navigation/STIM_011.jpg	99
416.789	2.882	2881.8	navigation	Trial1	navigation/STIM_011.jpg	100
421.641	2.11	2110.4	navigation	Trial1	navigation/STIM_011.jpg	99
426.267	2.222	2222.5	navigation	Trial1	navigation/STIM_011.jpg	100
431.483	2.912	2912.1	navigation	Trial1	navigation/STIM_011.jpg	99
436.276	1.421	1421.4	pointing	Trial1	pointing/STIM_000.jpg	100
440.396	1.484	1483.9	pointing	Trial1	pointing/STIM_000.jpg	100
443.719	1.072	1071.6	pointing	Trial1	pointing/STIM_000.jpg	100
446.732	1.587	1587.1	pointing	Trial1	pointing/STIM_000.jpg	99
451.654	1.029	1028.8	pointing	Trial1	pointing/STIM_000.jpg	99
455.062	1.182	1181.5	pointing	Trial1	pointing/STIM_000.jpg	99
459.699	1.168	1167.9	pointing	Trial1	pointing/STIM_001.jpg	99
463.262	1.639	1639.2	pointing	Trial1	pointing/STIM_001.jpg	99
468.232	1.557	1557.4	pointing	Trial1	pointing/STIM_001.jpg	100
472.129	1.177	1176.8	pointing	Trial1	pointing/STIM_001.jpg	99
476.66	1.624	1623.6	pointing	Trial1	pointing/STIM_001.jpg	100
481.487	1.081	1080.6	pointing	Trial1	pointing/STIM_001.jpg	100
484.524	1.681	1681.0	pointing	Trial1	pointing/STIM_002.jpg	99
488.19	1.125	1124.7	pointing	Trial1	pointing/STIM_002.jpg	100
491.836	1.477	1476.8	pointing	Trial1	pointing/STIM_002.jpg	100
496.766	1.484	1484.3	pointing	Trial1	pointing/STIM_002.jpg	100
501.202	1.421	1421.0	pointing	Trial1	pointing/STIM_002.jpg	99
505.707	1.446	1445.7	pointing	Trial1	pointing/STIM_002.jpg	100
510.193	1.125	1124.7	pointing	Trial1	pointing/STIM_003.jpg	99
513.685	1.31	1310.1	pointing	Trial1	pointing/STIM_003.jpg	99
518.263	1.165	1165.3	pointing	Trial1	pointing/STIM_003.jpg	100
521.648	0.964	964.2	pointing	Trial1	pointing/STIM_003.jpg	100
526.452	1.673	1672.6	pointing	Trial1	pointing/STIM_003.jpg	100
531.838	1.336	1335.8	pointing	Trial1	pointing/STIM_003.jpg	100
536.022	1.651	1651.1	pointing	Trial1	pointing/STIM_004.jpg	99
541.183	1.093	1093.3	pointing	Trial1	pointing/STIM_004.jpg	99
545.973	1.5	1499.5	pointing	Trial1	pointing/STIM_004.jpg	100
550.981	1.721	1720.8	pointing	Trial1	pointing/STIM_004.jpg	100
554.859	1.336	1336.0	pointing	Trial1	pointing/STIM_004.jpg	99
559.721	0.996	995.7	pointing	Trial1	pointing/STIM_004.jpg	100
563.907	1.018	1018.1	pointing	Trial1	pointing/STIM_005.jpg	99
567.956	1.649	1649.3	pointing	Trial1	pointing/STIM_005.jpg	100
571.672	1.522	1521.5	pointing	Trial1	pointing/STIM_005.jpg	100
576.803	1.401	1400.8	pointing	Trial1	pointing/STIM_005.jpg	100
581.565	0.999	998.9	pointing	Trial1	pointing/STIM_005.jpg	99
585.035	1.025	1024.9	pointing	Trial1	pointing/STIM_005.jpg	100
589.805	0.97	970.2	pointing	Trial1	pointing/STIM_006.jpg	99
594.296	1.364	1364.1	pointing	Trial1	pointing/STIM_006.jpg	100
597.768	1.302	1301.8	pointing	Trial1	pointing/STIM_006.jpg	99
602.408	0.963	962.7	pointing	Trial1	pointing/STIM_006.jpg	99
605.368	0.946	946.5	pointing	Trial1	pointing/STIM_006.jpg	100
609.376	1.253	1252.6	pointing	Trial1	pointing/STIM_006.jpg	99
613.307	1.089	1089.2	pointing	Trial1	pointing/STIM_007.jpg	100
617.717	1.031	1031.4	pointing	Trial1	pointing/STIM_007.jpg	99
622.316	1.097	1097.3	pointing	Trial1	pointing/STIM_007.jpg	100
626.649	1.106	1105.6	pointing	Trial1	pointing/STIM_007.jpg	99
631.581	1.493	1492.8	pointing	Trial1	pointing/STIM_007.jpg	99
636.043	1.55	1550.0	pointing	Trial1	pointing/STIM_007.jpg	99
641.177	1.546	1546.1	pointing	Trial1	pointing/STIM_008.jpg	100
646.432	1.533	1533.4	pointing	Trial1	pointing/STIM_008.jpg	99
651.511	0.942	942.3	pointing	Trial1	pointing/STIM_008.jpg	99
655.319	1.002	1001.6	pointing	Trial1	pointing/STIM_008.jpg	100
660.143	1.58	1580.0	pointing	Trial1	pointing/STIM_008.jpg	99
665.01	1.224	1224.2	pointing	Trial1	pointing/STIM_008.jpg	100
668.907	1.671	1671.2	pointing	Trial1	pointing/STIM_009.jpg	100
673.386	1.348	1348.1	pointing	Trial1	pointing/STIM_009.jpg	99
677.803	1.401	1400.9	pointing	Trial1	pointing/STIM_009.jpg	99
681.846	1.376	1376.5	pointing	Trial1	pointing/STIM_009.jpg	99
685.756	1.129	1128.6	pointing	Trial1	pointing/STIM_009.jpg	99
689.965	1.705	1704.7	pointing	Trial1	pointing/STIM_009.jpg	100
693.553	1.642	1642.0	pointing	Trial1	pointing/STIM_010.jpg	100
697.539	1.029	1028.7	pointing	Trial1	pointing/STIM_010.jpg	100
702.401	1.711	1710.8	pointing	Trial1	pointing/STIM_010.jpg	100
707.736	1.406	1405.9	pointing	Trial1	pointing/STIM_010.jpg	100
711.823	1.186	1185.5	pointing	Trial1	pointing/STIM_010.jpg	100
715.419	1.42	1419.9	pointing	Trial1	pointing/STIM_010.jpg	100
720.027	1.118	1118.5	pointing	Trial1	pointing/STIM_011.jpg	99
724.071	0.943	943.2	pointing	Trial1	pointing/STIM_011.jpg	100
727.764	0.974	974.2	pointing	Trial1	pointing/STIM_011.jpg	100
732.041	0.98	980.3	pointing	Trial1	pointing/STIM_011.jpg	100
735.935	1.696	1695.9	pointing	Trial1	pointing/STIM_011.jpg	100
740.111	1.013	1012.9	pointing	Trial1	pointing/STIM_011.jpg	100
744.69	3.923	3922.6	navigation	Trial2	navigation/STIM_000.jpg	99
751.706	3.186	3186.0	navigation	Trial2	navigation/STIM_000.jpg	99
757.363	3.837	3837.3	navigation	Trial2	navigation/STIM_000.jpg	99
764.331	2.108	2108.2	navigation	Trial2	navigation/STIM_000.jpg	100
769.016	3.76	3759.7	navigation	Trial2	navigation/STIM_000.jpg	100
774.848	3.287	3287.4	navigation	Trial2	navigation/STIM_000.jpg	99
781.183	3.824	3823.5	navigation	Trial2	navigation/STIM_001.jpg	100
787.69	2.256	2256.3	navigation	Trial2	navigation/STIM_001.jpg	100
793.228	2.452	2452.1	navigation	Trial2	navigation/STIM_001.jpg	100
797.771	2.89	2890.4	navigation	Trial2	navigation/STIM_001.jpg	100
803.663	3.33	3330.3	navigation	Trial2	navigation/STIM_001.jpg	100
809.71	2.823	2823.2	navigation	Trial2	navigation/STIM_001.jpg	99
815.007	4.185	4184.7	navigation	Trial2	navigation/STIM_002.jpg	100
821.361	1.89	1890.4	navigation	Trial2	navigation/STIM_002.jpg	100
826.109	4.273	4273.1	navigation	Trial2	navigation/STIM_002.jpg	99
831.962	2.085	2085.4	navigation	Trial2	navigation/STIM_002.jpg	99
836.524	3.814	3814.4	navigation	Trial2	navigation/STIM_002.jpg	99
842.44	3.918	3918.2	navigation	Trial2	navigation/STIM_002.jpg	100
849.304	4.616	4616.2	navigation	Trial2	navigation/STIM_003.jpg	100
855.685	4.423	4422.7	navigation	Trial2	navigation/STIM_003.jpg	99
862.982	2.879	2879.4	navigation	Trial2	navigation/STIM_003.jpg	99
868.335	3.92	3920.2	navigation	Trial2	navigation/STIM_003.jpg	99
875.489	2.746	2746.5	navigation	Trial2	navigation/STIM_003.jpg	100
881.479	2.832	2832.0	navigation	Trial2	navigation/STIM_003.jpg	100
886.564	3.15	3150.1	navigation	Trial2	navigation/STIM_004.jpg	100
891.552	3.872	3871.9	navigation	Trial2	navigation/STIM_004.jpg	100
897.844	2.971	2970.7	navigation	Trial2	navigation/STIM_004.jpg	100
903.026	1.994	1994.3	navigation	Trial2	navigation/STIM_004.jpg	99
907.965	3.51	3510.2	navigation	Trial2	navigation/STIM_004.jpg	99
914.92	3.006	3005.7	navigation	Trial2	navigation/STIM_004.jpg	100
920.759	3.07	3070.5	navigation	Trial2	navigation/STIM_005.jpg	99
927.037	1.888	1887.5	navigation	Trial2	navigation/STIM_005.jpg	100
930.713	1.837	1837.2	navigation	Trial2	navigation/STIM_005.jpg	100
936.103	1.746	1746.1	navigation	Trial2	navigation/STIM_005.jpg	99
940.805	1.732	1732.2	navigation	Trial2	navigation/STIM_005.jpg	100
946.207	3.471	3471.3	navigation	Trial2	navigation/STIM_005.jpg	100
952.25	1.979	1979.2	navigation	Trial2	navigation/STIM_006.jpg	99
957.367	2.837	2837.2	navigation	Trial2	navigation/STIM_006.jpg	100
963.281	3.84	3839.9	navigation	Trial2	navigation/STIM_006.jpg	99
969.66	2.067	2067.4	navigation	Trial2	navigation/STIM_006.jpg	100
974.703	2.122	2122.4	navigation	Trial2	navigation/STIM_006.jpg	99
979.293	3.286	3286.4	navigation	Trial2	navigation/STIM_006.jpg	100
984.568	2.994	2994.3	navigation	Trial2	navigation/STIM_007.jpg	99
989.272	2.746	2745.8	navigation	Trial2	navigation/STIM_007.jpg	100
993.992	2.503	2502.9	navigation	Trial2	navigation/STIM_007.jpg	100
999.388	2.293	2293.4	navigation	Trial2	navigation/STIM_007.jpg	99
1004.406	3.169	3168.7	navigation	Trial2	navigation/STIM_007.jpg	99
1011.075	3.834	3834.2	navigation	Trial2	navigation/STIM_007.jpg	99
1016.559	4.371	4371.3	navigation	Trial2	navigation/STIM_008.jpg	100
1022.715	2.222	2221.9	navigation	Trial2	navigation/STIM_008.jpg	100
1026.865	3.305	3304.9	navigation	Trial2	navigation/STIM_008.jpg	99
1033.412	3.741	3740.8	navigation	Trial2	navigation/STIM_008.jpg	99
1038.861	1.906	1905.9	navigation	Trial2	navigation/STIM_008.jpg	100
1043.097	2.924	2924.0	navigation	Trial2	navigation/STIM_008.jpg	99
1047.873	4.501	4501.1	navigation	Trial2	navigation/STIM_009.jpg	100
1054.002	2.796	2796.0	navigation	Trial2	navigation/STIM_009.jpg	100
1059.413	2.183	2183.2	navigation	Trial2	navigation/STIM_009.jpg	99
1063.715	2.262	2262.5	navigation	Trial2	navigation/STIM_009.jpg	100
1067.895	3.872	3872.3	navigation	Trial2	navigation/STIM_009.jpg	99
1074.009	2.811	2810.9	navigation	Trial2	navigation/STIM_009.jpg	99
1079.283	3.732	3732.3	navigation	Trial2	navigation/STIM_010.jpg	99
1085.864	4.493	4492.9	navigation	Trial2	navigation/STIM_010.jpg	100
1092.134	2.716	2715.7	navigation	Trial2	navigation/STIM_010.jpg	99
1097.702	3.544	3543.5	navigation	Trial2	navigation/STIM_010.jpg	99
1104.571	2.932	2932.4	navigation	Trial2	navigation/STIM_010.jpg	100
1110.119	1.929	1928.8	navigation	Trial2	navigation/STIM_010.jpg	100
1115.685	4.158	4158.1	navigation	Trial2	navigation/STIM_011.jpg	99
1121.709	3.879	3878.9	navigation	Trial2	navigation/STIM_011.jpg	100
1127.433	1.825	1824.7	navigation	Trial2	navigation/STIM_011.jpg	100
1131.872	3.626	3626.4	navigation	Trial2	navigation/STIM_011.jpg	99
1138.319	3.105	3104.7	navigation	Trial2	navigation/STIM_011.jpg	99
1144.673	2.131	2131.0	navigation	Trial2	navigation/STIM_011.jpg	99
1150.091	1.091	1090.8	pointing	Trial2	pointing/STIM_000.jpg	99
1153.786	1.384	1384.5	pointing	Trial2	pointing/STIM_000.jpg	100
1157.599	1.719	1718.8	pointing	Trial2	pointing/STIM_000.jpg	100
1161.423	1.7	1700.5	pointing	Trial2	pointing/STIM_000.jpg	100
1165.797	1.195	1194.8	pointing	Trial2	pointing/STIM_000.jpg	100
1170.177	0.923	923.2	pointing	Trial2	pointing/STIM_000.jpg	99
1174.872	1.007	1006.8	pointing	Trial2	pointing/STIM_001.jpg	99
1179.687	1.226	1226.4	pointing	Trial2	pointing/STIM_001.jpg	100
1183.66	1.106	1106.1	pointing	Trial2	pointing/STIM_001.jpg	100
1188.566	1.388	1388.1	pointing	Trial2	pointing/STIM_001.jpg	99
1192.373	1.485	1485.0	pointing	Trial2	pointing/STIM_001.jpg	99
1196.736	1.597	1597.4	pointing	Trial2	pointing/STIM_001.jpg	99
1200.575	1.475	1474.9	pointing	Trial2	pointing/STIM_002.jpg	100
1205.248	1.679	1678.9	pointing	Trial2	pointing/STIM_002.jpg	100
1208.963	1.299	1299.2	pointing	Trial2	pointing/STIM_002.jpg	99
1212.332	1.399	1398.6	pointing	Trial2	pointing/STIM_002.jpg	99
1215.899	1.163	1162.6	pointing	Trial2	pointing/STIM_002.jpg	99
1218.92	1.417	1416.6	pointing	Trial2	pointing/STIM_002.jpg	100
1222.536	1.688	1688.4	pointing	Trial2	pointing/STIM_003.jpg	100
1226.733	1.489	1488.8	pointing	Trial2	pointing/STIM_003.jpg	99
1231.315	1.473	1473.2	pointing	Trial2	pointing/STIM_003.jpg	100
1236.443	0.939	938.8	pointing	Trial2	pointing/STIM_003.jpg	100
1240.238	1.583	1583.2	pointing	Trial2	pointing/STIM_003.jpg	99
1244.675	1.42	1419.6	pointing	Trial2	pointing/STIM_003.jpg	100
1248.923	1.083	1082.9	pointing	Trial2	pointing/STIM_004.jpg	99
1253.851	1.693	1693.2	pointing	Trial2	pointing/STIM_004.jpg	100
1257.744	1.206	1206.0	pointing	Trial2	pointing/STIM_004.jpg	100
1262.299	1.597	1597.1	pointing	Trial2	pointing/STIM_004.jpg	100
1267.227	1.118	1117.9	pointing	Trial2	pointing/STIM_004.jpg	100
1270.429	1.332	1332.5	pointing	Trial2	pointing/STIM_004.jpg	100
1274.966	1.05	1050.0	pointing	Trial2	pointing/STIM_005.jpg	100
1279.5	0.966	966.3	pointing	Trial2	pointing/STIM_005.jpg	99
1283.792	1.472	1471.7	pointing	Trial2	pointing/STIM_005.jpg	99
1288.482	0.996	995.5	pointing	Trial2	pointing/STIM_005.jpg	99
1291.876	1.701	1701.0	pointing	Trial2	pointing/STIM_005.jpg	100
1297.351	0.957	957.0	pointing	Trial2	pointing/STIM_005.jpg	100
1300.254	1.263	1263.1	pointing	Trial2	pointing/STIM_006.jpg	100
1303.47	1.127	1127.3	pointing	Trial2	pointing/STIM_006.jpg	99
1306.633	1.102	1102.4	pointing	Trial2	pointing/STIM_006.jpg	99
1310.068	1.328	1327.8	pointing	Trial2	pointing/STIM_006.jpg	100
1314.444	1.654	1654.5	pointing	Trial2	pointing/STIM_006.jpg	99
1318.498	1.433	1433.1	pointing	Trial2	pointing/STIM_006.jpg	100
1322.978	1.389	1389.2	pointing	Trial2	pointing/STIM_007.jpg	99
1326.531	1.054	1053.8	pointing	Trial2	pointing/STIM_007.jpg	100
1329.876	1.427	1426.9	pointing	Trial2	pointing/STIM_007.jpg	99
1333.221	1.417	1416.6	pointing	Trial2	pointing/STIM_007.jpg	100
1336.757	1.175	1174.6	pointing	Trial2	pointing/STIM_007.jpg	100
1341.253	1.482	1481.9	pointing	Trial2	pointing/STIM_007.jpg	100
1345.308	1.529	1529.3	pointing	Trial2	pointing/STIM_008.jpg	100
1350.579	1.514	1514.2	pointing	Trial2	pointing/STIM_008.jpg	99
1355.358	1.464	1464.1	pointing	Trial2	pointing/STIM_008.jpg	99
1359.188	1.703	1703.3	pointing	Trial2	pointing/STIM_008.jpg	100
1363.842	1.524	1524.3	pointing	Trial2	pointing/STIM_008.jpg	100
1368.121	1.452	1452.2	pointing	Trial2	pointing/STIM_008.jpg	100
1372.228	1.44	1439.5	pointing	Trial2	pointing/STIM_009.jpg	100
1377.435	1.55	1550.1	pointing	Trial2	pointing/STIM_009.jpg	99
1381.84	1.172	1171.5	pointing	Trial2	pointing/STIM_009.jpg	100
1385.332	1.714	1713.5	pointing	Trial2	pointing/STIM_009.jpg	99
1389.384	1.396	1395.6	pointing	Trial2	pointing/STIM_009.jpg	100
1394.576	1.147	1146.6	pointing	Trial2	pointing/STIM_009.jpg	99
1399.125	1.369	1368.8	pointing	Trial2	pointing/STIM_010.jpg	99
1403.369	1.475	1474.7	pointing	Trial2	pointing/STIM_010.jpg	100
1406.934	1.414	1413.5	pointing	Trial2	pointing/STIM_010.jpg	100
1412.138	1.406	1406.3	pointing	Trial2	pointing/STIM_010.jpg	100
1416.875	1.653	1653.4	pointing	Trial2	pointing/STIM_010.jpg	99
1422.068	1.393	1393.0	pointing	Trial2	pointing/STIM_010.jpg	99
1425.71	1.47	1470.0	pointing	Trial2	pointing/STIM_011.jpg	100
1430.176	0.948	948.1	pointing	Trial2	pointing/STIM_011.jpg	99
1433.244	1.454	1453.9	pointing	Trial2	pointing/STIM_011.jpg	99
1437.609	1.462	1461.6	pointing	Trial2	pointing/STIM_011.jpg	99
1442.082	1.68	1680.0	pointing	Trial2	pointing/STIM_011.jpg	99
1447.54	1.493	1492.6	pointing	Trial2	pointing/STIM_011.jpg	100
1451.029	2.616	2615.9	navigation	Trial3	navigation/STIM_000.jpg	99
1456.945	2.928	2928.1	navigation	Trial3	navigation/STIM_000.jpg	100
1463.318	3.085	3084.7	navigation	Trial3	navigation/STIM_000.jpg	100
1468.408	1.953	1953.1	navigation	Trial3	navigation/STIM_000.jpg	99
1474.094	3.406	3405.7	navigation	Trial3	navigation/STIM_000.jpg	99
1479.506	1.692	1691.9	navigation	Trial3	navigation/STIM_000.jpg	100
1483.552	2.317	2317.3	navigation	Trial3	navigation/STIM_001.jpg	100
1488.368	3.058	3058.4	navigation	Trial3	navigation/STIM_001.jpg	100
1493.878	2.706	2706.5	navigation	Trial3	navigation/STIM_001.jpg	100
1500.194	3.008	3007.8	navigation	Trial3	navigation/STIM_001.jpg	99
1506.452	3.242	3241.9	navigation	Trial3	navigation/STIM_001.jpg	99
1512.793	1.653	1653.3	navigation	Trial3	navigation/STIM_001.jpg	100
1516.626	2.396	2396.4	navigation	Trial3	navigation/STIM_002.jpg	99
1522.072	2.7	2699.6	navigation	Trial3	navigation/STIM_002.jpg	99
1528.191	2.882	2882.2	navigation	Trial3	navigation/STIM_002.jpg	99
1533.236	3.2	3200.5	navigation	Trial3	navigation/STIM_002.jpg	99
1538.896	3.259	3259.4	navigation	Trial3	navigation/STIM_002.jpg	100
1545.427	2.539	2538.6	navigation	Trial3	navigation/STIM_002.jpg	99
1549.911	2.465	2464.8	navigation	Trial3	navigation/STIM_003.jpg	100
1555.867	3.768	3768.4	navigation	Trial3	navigation/STIM_003.jpg	99
1562.025	2.047	2046.9	navigation	Trial3	navigation/STIM_003.jpg	100
1566.604	2.763	2763.3	navigation	Trial3	navigation/STIM_003.jpg	100
1572.895	3.973	3972.8	navigation	Trial3	navigation/STIM_003.jpg	99
1579.877	2.86	2859.9	navigation	Trial3	navigation/STIM_003.jpg	99
1585.519	3.528	3528.2	navigation	Trial3	navigation/STIM_004.jpg	100
1591.377	2.743	2742.7	navigation	Trial3	navigation/STIM_004.jpg	99
1596.939	2.217	2217.3	navigation	Trial3	navigation/STIM_004.jpg	100
1602.004	3.784	3783.8	navigation	Trial3	navigation/STIM_004.jpg	100
1607.708	3.433	3432.8	navigation	Trial3	navigation/STIM_004.jpg	100
1613.475	2.476	2475.6	navigation	Trial3	navigation/STIM_004.jpg	99
1617.958	2.996	2996.1	navigation	Trial3	navigation/STIM_005.jpg	99
1622.592	3.248	3247.5	navigation	Trial3	navigation/STIM_005.jpg	100
1628.339	2.401	2400.6	navigation	Trial3	navigation/STIM_005.jpg	99
1633.832	3.852	3852.5	navigation	Trial3	navigation/STIM_005.jpg	100
1640.044	2.207	2207.4	navigation	Trial3	navigation/STIM_005.jpg	99
1645.822	3.611	3610.8	navigation	Trial3	navigation/STIM_005.jpg	99
1651.929	2.501	2501.0	navigation	Trial3	navigation/STIM_006.jpg	99
1657.344	1.617	1617.4	navigation	Trial3	navigation/STIM_006.jpg	99
1661.039	3.423	3423.0	navigation	Trial3	navigation/STIM_006.jpg	100
1667.884	2.4	2400.3	navigation	Trial3	navigation/STIM_006.jpg	99
1672.929	1.931	1931.3	navigation	Trial3	navigation/STIM_006.jpg	99
1676.769	1.848	1847.7	navigation	Trial3	navigation/STIM_006.jpg	100
1680.695	3.68	3679.6	navigation	Trial3	navigation/STIM_007.jpg	100
1686.36	3.141	3141.4	navigation	Trial3	navigation/STIM_007.jpg	99
1692.001	2.11	2110.0	navigation	Trial3	navigation/STIM_007.jpg	100
1697.479	3.363	3363.3	navigation	Trial3	navigation/STIM_007.jpg	100
1703.434	2.896	2896.3	navigation	Trial3	navigation/STIM_007.jpg	100
1709.556	1.699	1698.9	navigation	Trial3	navigation/STIM_007.jpg	100
1713.632	2.617	2616.7	navigation	Trial3	navigation/STIM_008.jpg	99
1717.941	3.553	3553.1	navigation	Trial3	navigation/STIM_008.jpg	100
1723.832	1.976	1976.4	navigation	Trial3	navigation/STIM_008.jpg	100
1728.471	3.413	3413.0	navigation	Trial3	navigation/STIM_008.jpg	100
1735.049	2.297	2296.9	navigation	Trial3	navigation/STIM_008.jpg	99
1739.644	3.337	3337.3	navigation	Trial3	navigation/STIM_008.jpg	99
1745.775	3.15	3149.6	navigation	Trial3	navigation/STIM_009.jpg	100
1752.425	2.226	2225.6	navigation	Trial3	navigation/STIM_009.jpg	99
1756.415	2.792	2791.7	navigation	Trial3	navigation/STIM_009.jpg	99
1762.418	1.796	1795.7	navigation	Trial3	navigation/STIM_009.jpg	99
1766.176	1.732	1731.7	navigation	Trial3	navigation/STIM_009.jpg	100
1770.035	3.288	3288.3	navigation	Trial3	navigation/STIM_009.jpg	100
1776.355	2.111	2110.9	navigation	Trial3	navigation/STIM_010.jpg	100
1781.901	1.715	1714.9	navigation	Trial3	navigation/STIM_010.jpg	100
1787.236	1.706	1705.8	navigation	Trial3	navigation/STIM_010.jpg	100
1791.471	3.671	3670.8	navigation	Trial3	navigation/STIM_010.jpg	100
1797.217	3.039	3038.9	navigation	Trial3	navigation/STIM_010.jpg	100
1803.204	2.156	2155.5	navigation	Trial3	navigation/STIM_010.jpg	99
1808.906	2.929	2928.6	navigation	Trial3	navigation/STIM_011.jpg	100
1814.416	3.683	3683.1	navigation	Trial3	navigation/STIM_011.jpg	100
1820.797	2.5	2499.6	navigation	Trial3	navigation/STIM_011.jpg	100
1826.43	1.672	1672.5	navigation	Trial3	navigation/STIM_011.jpg	100
1831.139	2.134	2133.9	navigation	Trial3	navigation/STIM_011.jpg	100
1835.202	2.843	2843.3	navigation	Trial3	navigation/STIM_011.jpg	100
1840.177	1.182	1181.5	pointing	Trial3	pointing/STIM_000.jpg	99
1844.164	1.243	1243.0	pointing	Trial3	pointing/STIM_000.jpg	100
1847.638	0.944	944.2	pointing	Trial3	pointing/STIM_000.jpg	100
1850.516	1.677	1676.6	pointing	Trial3	pointing/STIM_000.jpg	99
1855.299	1.462	1462.2	pointing	Trial3	pointing/STIM_000.jpg	99
1859.006	1.046	1046.4	pointing	Trial3	pointing/STIM_000.jpg	99
1863.004	1.094	1093.9	pointing	Trial3	pointing/STIM_001.jpg	99
1866.715	1.228	1228.3	pointing	Trial3	pointing/STIM_001.jpg	100
1871.141	1.145	1145.0	pointing	Trial3	pointing/STIM_001.jpg	99
1875.966	1.213	1212.6	pointing	Trial3	pointing/STIM_001.jpg	99
1880.459	1.185	1184.6	pointing	Trial3	pointing/STIM_001.jpg	99
1884.707	1.307	1306.8	pointing	Trial3	pointing/STIM_001.jpg	100
1888.27	1.039	1038.8	pointing	Trial3	pointing/STIM_002.jpg	99
1892.521	1.171	1171.1	pointing	Trial3	pointing/STIM_002.jpg	100
1897.502	0.964	963.9	pointing	Trial3	pointing/STIM_002.jpg	99
1901.455	1.134	1133.7	pointing	Trial3	pointing/STIM_002.jpg	99
1906.393	1.082	1081.7	pointing	Trial3	pointing/STIM_002.jpg	100
1910.572	1.21	1210.2	pointing	Trial3	pointing/STIM_002.jpg	100
1914.287	1.31	1309.7	pointing	Trial3	pointing/STIM_003.jpg	99
1918.417	1.045	1045.0	pointing	Trial3	pointing/STIM_003.jpg	99
1923.211	1.312	1311.8	pointing	Trial3	pointing/STIM_003.jpg	99
1926.778	1.499	1499.1	pointing	Trial3	pointing/STIM_003.jpg	99
1930.637	0.998	998.0	pointing	Trial3	pointing/STIM_003.jpg	100
1935.246	0.946	946.1	pointing	Trial3	pointing/STIM_003.jpg	99
1938.656	0.928	928.3	pointing	Trial3	pointing/STIM_004.jpg	99
1942.475	1.36	1359.5	pointing	Trial3	pointing/STIM_004.jpg	99
1947.488	1.368	1368.5	pointing	Trial3	pointing/STIM_004.jpg	99
1951.804	1.492	1492.4	pointing	Trial3	pointing/STIM_004.jpg	100
1956.725	1.361	1361.1	pointing	Trial3	pointing/STIM_004.jpg	100
1961.462	1.583	1582.8	pointing	Trial3	pointing/STIM_004.jpg	100
1966.013	1.568	1568.2	pointing	Trial3	pointing/STIM_005.jpg	100
1971.029	1.564	1564.2	pointing	Trial3	pointing/STIM_005.jpg	100
1974.684	1.24	1239.7	pointing	Trial3	pointing/STIM_005.jpg	99
1978.012	1.429	1429.3	pointing	Trial3	pointing/STIM_005.jpg	100
1982.691	1.714	1714.4	pointing	Trial3	pointing/STIM_005.jpg	99
1987.714	1.677	1676.6	pointing	Trial3	pointing/STIM_005.jpg	100
1992.776	1.216	1215.5	pointing	Trial3	pointing/STIM_006.jpg	100
1996.218	1.588	1588.1	pointing	Trial3	pointing/STIM_006.jpg	99
2000.181	1.143	1143.1	pointing	Trial3	pointing/STIM_006.jpg	99
2003.89	1.66	1659.6	pointing	Trial3	pointing/STIM_006.jpg	100
2007.439	1.5	1500.4	pointing	Trial3	pointing/STIM_006.jpg	100
2012.334	1.332	1331.5	pointing	Trial3	pointing/STIM_006.jpg	99
2016.306	1.375	1374.8	pointing	Trial3	pointing/STIM_007.jpg	100
2020.54	1.715	1714.9	pointing	Trial3	pointing/STIM_007.jpg	100
2024.596	1.034	1034.2	pointing	Trial3	pointing/STIM_007.jpg	99
2028.785	0.929	929.4	pointing	Trial3	pointing/STIM_007.jpg	99
2032.21	1.003	1002.9	pointing	Trial3	pointing/STIM_007.jpg	100
2036.101	1.382	1381.6	pointing	Trial3	pointing/STIM_007.jpg	99
2039.587	1.414	1414.5	pointing	Trial3	pointing/STIM_008.jpg	99
2043.966	1.685	1685.0	pointing	Trial3	pointing/STIM_008.jpg	100
2048.093	1.545	1545.4	pointing	Trial3	pointing/STIM_008.jpg	100
2052.339	1.372	1371.9	pointing	Trial3	pointing/STIM_008.jpg	100
2056.256	1.658	1657.6	pointing	Trial3	pointing/STIM_008.jpg	100
2061.138	1.316	1316.1	pointing	Trial3	pointing/STIM_008.jpg	100
2065.374	1.046	1045.6	pointing	Trial3	pointing/STIM_009.jpg	99
2069.863	1.231	1231.4	pointing	Trial3	pointing/STIM_009.jpg	100
2073.593	0.994	994.0	pointing	Trial3	pointing/STIM_009.jpg	100
2077.812	1.608	1607.7	pointing	Trial3	pointing/STIM_009.jpg	99
2081.596	1.627	1627.4	pointing	Trial3	pointing/STIM_009.jpg	99
2085.74	1.248	1248.0	pointing	Trial3	pointing/STIM_009.jpg	100
2088.984	1.59	1589.7	pointing	Trial3	pointing/STIM_010.jpg	100
2093.027	1.499	1498.9	pointing	Trial3	pointing/STIM_010.jpg	100
2097.28	1.538	1537.6	pointing	Trial3	pointing/STIM_010.jpg	99
2101.249	1.5	1500.0	pointing	Trial3	pointing/STIM_010.jpg	100
2105.035	1.308	1307.7	pointing	Trial3	pointing/STIM_010.jpg	99
2109.08	1.465	1465.0	pointing	Trial3	pointing/STIM_010.jpg	99
2114.084	1.197	1197.2	pointing	Trial3	pointing/STIM_011.jpg	99
2117.178	1.502	1502.3	pointing	Trial3	pointing/STIM_011.jpg	99
2120.822	1.31	1309.7	pointing	Trial3	pointing/STIM_011.jpg	99
2124.929	1.554	1553.9	pointing	Trial3	pointing/STIM_011.jpg	100
2130.228	0.966	965.6	pointing	Trial3	pointing/STIM_011.jpg	100
2133.118	1.34	1340.3	pointing	Trial3	pointing/STIM_011.jpg	99
