onset	duration	response_time_ms	trial_type	learning_stage	stimulus	response_port
0.0	2.033	2033.4	study	Phase1	study/STIM_000.jpg	99
5.448	1.629	1628.7	study	Phase1	study/STIM_000.jpg	99
10.726	1.446	1446.2	study	Phase1	study/STIM_000.jpg	99
14.435	1.0	999.9	study	Phase1	study/STIM_001.jpg	99
19.244	1.427	1427.0	study	Phase1	study/STIM_001.jpg	100
23.907	1.008	1007.5	study	Phase1	study/STIM_001.jpg	100
27.737	1.975	1975.1	study	Phase1	study/STIM_002.jpg	99
32.483	1.795	1794.9	study	Phase1	study/STIM_002.jpg	100
36.778	1.34	1339.6	study	Phase1	study/STIM_002.jpg	99
41.293	1.826	1825.7	study	Phase1	study/STIM_003.jpg	99
44.98	0.951	950.6	study	Phase1	study/STIM_003.jpg	100
48.726	1.358	1358.0	study	Phase1	study/STIM_003.jpg	100
53.073	1.205	1204.7	study	Phase1	study/STIM_004.jpg	99
57.097	1.517	1517.0	study	Phase1	study/STIM_004.jpg	99
62.184	1.447	1447.4	study	Phase1	study/STIM_004.jpg	100
66.906	0.888	888.0	study	Phase1	study/STIM_005.jpg	99
70.177	1.134	1134.0	study	Phase1	study/STIM_005.jpg	99
74.195	1.148	1148.4	study	Phase1	study/STIM_005.jpg	100
77.573	1.014	1013.7	study	Phase1	study/STIM_006.jpg	100
80.943	0.812	812.1	study	Phase1	study/STIM_006.jpg	100
85.64	1.204	1203.8	study	Phase1	study/STIM_006.jpg	100
89.521	1.83	1830.1	study	Phase1	study/STIM_007.jpg	99
93.425	1.409	1409.4	study	Phase1	study/STIM_007.jpg	100
97.441	1.122	1122.5	study	Phase1	study/STIM_007.jpg	100
101.905	1.959	1959.1	study	Phase1	study/STIM_008.jpg	99
107.105	0.996	996.1	study	Phase1	study/STIM_008.jpg	100
111.285	1.781	1780.8	study	Phase1	study/STIM_008.jpg	100
115.785	1.465	1465.1	study	Phase1	study/STIM_009.jpg	99
121.018	0.832	832.5	study	Phase1	study/STIM_009.jpg	100
123.872	1.228	1227.9	study	Phase1	study/STIM_009.jpg	99
128.097	1.874	1874.1	study	Phase1	study/STIM_010.jpg	99
133.558	1.75	1749.9	study	Phase1	study/STIM_010.jpg	99
138.558	1.404	1404.0	study	Phase1	study/STIM_010.jpg	100
142.719	0.916	915.9	study	Phase1	study/STIM_011.jpg	100
147.061	1.045	1045.0	study	Phase1	study/STIM_011.jpg	99
150.44	1.396	1395.8	study	Phase1	study/STIM_011.jpg	99
153.931	1.424	1424.4	study	Phase1	study/STIM_012.jpg	99
157.484	0.853	853.1	study	Phase1	study/STIM_012.jpg	99
160.435	1.808	1807.7	study	Phase1	study/STIM_012.jpg	100
165.554	1.416	1416.2	study	Phase1	study/STIM_013.jpg	100
170.316	1.168	1167.7	study	Phase1	study/STIM_013.jpg	99
174.293	1.392	1391.8	study	Phase1	study/STIM_013.jpg	100
179.389	1.697	1696.6	study	Phase1	study/STIM_014.jpg	100
184.308	1.195	1195.2	study	Phase1	study/STIM_014.jpg	99
189.163	1.822	1822.3	study	Phase1	study/STIM_014.jpg	100
193.314	1.079	1078.8	study	Phase1	study/STIM_015.jpg	100
196.79	1.334	1333.9	study	Phase1	study/STIM_015.jpg	100
201.691	1.457	1456.9	study	Phase1	study/STIM_015.jpg	99
205.082	1.745	1745.2	study	Phase1	study/STIM_016.jpg	99
209.092	1.673	1673.2	study	Phase1	study/STIM_016.jpg	100
213.894	0.97	970.0	study	Phase1	study/STIM_016.jpg	100
217.543	1.604	1604.2	study	Phase1	study/STIM_017.jpg	99
222.651	1.892	1892.5	study	Phase1	study/STIM_017.jpg	100
226.739	1.325	1324.7	study	Phase1	study/STIM_017.jpg	99
231.469	1.977	1977.4	study	Phase1	study/STIM_018.jpg	100
236.625	1.022	1022.3	study	Phase1	study/STIM_018.jpg	99
240.773	1.246	1245.7	study	Phase1	study/STIM_018.jpg	99
245.827	1.069	1069.2	study	Phase1	study/STIM_019.jpg	100
250.162	0.988	987.5	study	Phase1	study/STIM_019.jpg	100
254.004	1.504	1503.5	study	Phase1	study/STIM_019.jpg	100
258.001	1.597	1597.1	study	Phase1	study/STIM_020.jpg	99
262.652	1.652	1651.9	study	Phase1	study/STIM_020.jpg	100
266.5	1.425	1424.6	study	Phase1	study/STIM_020.jpg	99
270.678	1.162	1161.9	study	Phase1	study/STIM_021.jpg	99
274.798	0.875	875.4	study	Phase1	study/STIM_021.jpg	100
278.857	1.094	1093.8	study	Phase1	study/STIM_021.jpg	100
283.588	1.069	1069.2	study	Phase1	study/STIM_022.jpg	99
286.928	1.1	1100.2	study	Phase1	study/STIM_022.jpg	100
291.813	1.671	1670.8	study	Phase1	study/STIM_022.jpg	99
296.929	1.417	1417.3	study	Phase1	study/STIM_023.jpg	99
300.505	1.454	1454.4	study	Phase1	study/STIM_023.jpg	100
304.92	1.609	1608.8	study	Phase1	study/STIM_023.jpg	100
308.45	1.635	1634.8	study	Phase1	study/STIM_024.jpg	100
312.921	1.25	1250.4	study	Phase1	study/STIM_024.jpg	100
317.887	1.352	1352.5	study	Phase1	study/STIM_024.jpg	100
322.162	1.794	1794.2	study	Phase1	study/STIM_025.jpg	99
326.6	1.676	1676.4	study	Phase1	study/STIM_025.jpg	99
330.404	1.636	1635.8	study	Phase1	study/STIM_025.jpg	99
333.96	1.698	1697.9	study	Phase1	study/STIM_026.jpg	99
337.71	1.464	1463.9	study	Phase1	study/STIM_026.jpg	100
342.017	0.975	975.1	study	Phase1	study/STIM_026.jpg	100
346.209	1.996	1996.4	study	Phase1	study/STIM_027.jpg	99
350.633	1.632	1632.1	study	Phase1	study/STIM_027.jpg	100
355.367	1.643	1642.9	study	Phase1	study/STIM_027.jpg	100
360.052	1.058	1057.7	study	Phase1	study/STIM_028.jpg	100
362.98	1.614	1613.9	study	Phase1	study/STIM_028.jpg	99
368.247	0.969	968.7	study	Phase1	study/STIM_028.jpg	99
371.81	1.951	1951.4	study	Phase1	study/STIM_029.jpg	100
376.943	1.112	1112.2	study	Phase1	study/STIM_029.jpg	100
381.895	1.693	1693.1	study	Phase1	study/STIM_029.jpg	99
387.192	1.232	1232.3	test	Phase1	test/STIM_000.jpg	99
391.404	0.837	836.8	test	Phase1	test/STIM_000.jpg	100
396.115	1.153	1152.7	test	Phase1	test/STIM_000.jpg	100
399.635	0.912	912.1	test	Phase1	test/STIM_001.jpg	99
403.716	1.196	1196.2	test	Phase1	test/STIM_001.jpg	100
408.585	1.099	1098.8	test	Phase1	test/STIM_001.jpg	100
412.149	1.068	1068.5	test	Phase1	test/STIM_002.jpg	99
415.76	1.188	1187.7	test	Phase1	test/STIM_002.jpg	99
418.874	0.924	924.4	test	Phase1	test/STIM_002.jpg	99
423.037	1.117	1116.9	test	Phase1	test/STIM_003.jpg	100
427.691	0.687	687.4	test	Phase1	test/STIM_003.jpg	99
431.512	1.211	1211.0	test	Phase1	test/STIM_003.jpg	99
436.189	1.006	1006.4	test	Phase1	test/STIM_004.jpg	99
440.031	1.471	1470.6	test	Phase1	test/STIM_004.jpg	100
443.959	1.117	1116.6	test	Phase1	test/STIM_004.jpg	100
448.104	1.016	1016.0	test	Phase1	test/STIM_005.jpg	100
452.403	0.782	781.6	test	Phase1	test/STIM_005.jpg	100
456.228	0.915	914.6	test	Phase1	test/STIM_005.jpg	99
460.46	0.85	849.7	test	Phase1	test/STIM_006.jpg	99
464.662	1.402	1401.6	test	Phase1	test/STIM_006.jpg	99
469.061	1.158	1158.4	test	Phase1	test/STIM_006.jpg	100
473.704	1.077	1076.9	test	Phase1	test/STIM_007.jpg	100
477.392	1.01	1009.8	test	Phase1	test/STIM_007.jpg	99
482.17	1.195	1194.9	test	Phase1	test/STIM_007.jpg	100
485.471	0.668	668.5	test	Phase1	test/STIM_008.jpg	100
489.906	1.006	1005.8	test	Phase1	test/STIM_008.jpg	99
493.683	1.359	1358.6	test	Phase1	test/STIM_008.jpg	99
497.632	1.051	1050.9	test	Phase1	test/STIM_009.jpg	100
501.593	0.942	942.0	test	Phase1	test/STIM_009.jpg	100
505.238	0.907	906.8	test	Phase1	test/STIM_009.jpg	99
509.835	0.958	957.7	test	Phase1	test/STIM_010.jpg	99
513.245	0.897	896.9	test	Phase1	test/STIM_010.jpg	100
517.904	1.358	1358.1	test	Phase1	test/STIM_010.jpg	100
521.808	1.18	1179.9	test	Phase1	test/STIM_011.jpg	99
526.578	1.094	1094.0	test	Phase1	test/STIM_011.jpg	100
530.073	1.233	1233.2	test	Phase1	test/STIM_011.jpg	100
533.364	0.958	957.6	test	Phase1	test/STIM_012.jpg	100
536.874	1.186	1186.4	test	Phase1	test/STIM_012.jpg	99
540.138	0.858	858.2	test	Phase1	test/STIM_012.jpg	100
543.919	0.695	694.6	test	Phase1	test/STIM_013.jpg	99
547.859	0.95	949.5	test	Phase1	test/STIM_013.jpg	100
550.801	0.912	912.1	test	Phase1	test/STIM_013.jpg	100
554.237	0.769	769.4	test	Phase1	test/STIM_014.jpg	100
557.313	0.806	806.4	test	Phase1	test/STIM_014.jpg	100
561.245	1.441	1440.6	test	Phase1	test/STIM_014.jpg	99
565.864	0.97	969.8	test	Phase1	test/STIM_015.jpg	99
569.881	0.731	730.9	test	Phase1	test/STIM_015.jpg	99
573.879	0.911	911.3	test	Phase1	test/STIM_015.jpg	100
577.055	0.947	946.9	test	Phase1	test/STIM_016.jpg	100
581.329	1.024	1024.5	test	Phase1	test/STIM_016.jpg	99
585.045	1.135	1134.8	test	Phase1	test/STIM_016.jpg	100
588.776	1.163	1162.6	test	Phase1	test/STIM_017.jpg	99
593.624	0.925	925.2	test	Phase1	test/STIM_017.jpg	99
598.085	0.618	617.5	test	Phase1	test/STIM_017.jpg	99
602.227	0.619	618.7	test	Phase1	test/STIM_018.jpg	100
606.735	1.51	1509.6	test	Phase1	test/STIM_018.jpg	99
611.666	1.013	1013.4	test	Phase1	test/STIM_018.jpg	100
616.472	1.365	1364.6	test	Phase1	test/STIM_019.jpg	100
619.746	1.12	1120.0	test	Phase1	test/STIM_019.jpg	99
623.224	0.987	987.1	test	Phase1	test/STIM_019.jpg	100
626.691	0.99	989.7	test	Phase1	test/STIM_020.jpg	100
629.866	0.887	887.3	test	Phase1	test/STIM_020.jpg	99
633.257	1.227	1227.2	test	Phase1	test/STIM_020.jpg	100
637.866	1.355	1355.1	test	Phase1	test/STIM_021.jpg	99
643.05	1.176	1176.4	test	Phase1	test/STIM_021.jpg	99
647.137	0.872	871.9	test	Phase1	test/STIM_021.jpg	99
651.836	1.357	1357.1	test	Phase1	test/STIM_022.jpg	99
655.368	0.767	767.2	test	Phase1	test/STIM_022.jpg	100
658.641	1.414	1414.0	test	Phase1	test/STIM_022.jpg	99
663.683	1.264	1263.6	test	Phase1	test/STIM_023.jpg	99
668.276	1.45	1449.9	test	Phase1	test/STIM_023.jpg	99
672.182	1.048	1047.6	test	Phase1	test/STIM_023.jpg	99
676.986	1.046	1046.0	test	Phase1	test/STIM_024.jpg	99
680.275	1.162	1161.5	test	Phase1	test/STIM_024.jpg	99
684.156	1.202	1202.2	test	Phase1	test/STIM_024.jpg	99
688.12	1.429	1429.4	test	Phase1	test/STIM_025.jpg	99
691.476	1.193	1192.9	test	Phase1	test/STIM_025.jpg	100
695.54	1.296	1295.9	test	Phase1	test/STIM_025.jpg	99
700.31	1.077	1077.0	test	Phase1	test/STIM_026.jpg	100
703.624	1.139	1138.6	test	Phase1	test/STIM_026.jpg	100
707.282	1.254	1254.1	test	Phase1	test/STIM_026.jpg	100
711.249	1.054	1053.7	test	Phase1	test/STIM_027.jpg	100
714.544	1.149	1149.4	test	Phase1	test/STIM_027.jpg	99
719.353	0.779	779.0	test	Phase1	test/STIM_027.jpg	99
723.838	1.191	1190.7	test	Phase1	test/STIM_028.jpg	99
727.859	1.43	1430.3	test	Phase1	test/STIM_028.jpg	99
731.654	0.651	650.6	test	Phase1	test/STIM_028.jpg	99
735.766	1.343	1342.7	test	Phase1	test/STIM_029.jpg	99
740.278	0.894	894.3	test	Phase1	test/STIM_029.jpg	100
744.834	1.101	1101.4	test	Phase1	test/STIM_029.jpg	99
747.96	1.773	1772.7	study	Phase2	study/STIM_000.jpg	100
751.598	0.851	850.7	study	Phase2	study/STIM_000.jpg	99
755.221	1.205	1204.8	study	Phase2	study/STIM_000.jpg	100
758.6	1.242	1242.1	study	Phase2	study/STIM_001.jpg	99
762.531	1.172	1172.0	study	Phase2	study/STIM_001.jpg	99
767.526	0.958	958.2	study	Phase2	study/STIM_001.jpg	99
770.857	1.742	1742.1	study	Phase2	study/STIM_002.jpg	100
775.548	1.053	1053.3	study	Phase2	study/STIM_002.jpg	100
778.801	1.465	1465.1	study	Phase2	study/STIM_002.jpg	99
784.048	1.241	1241.3	study	Phase2	study/STIM_003.jpg	99
787.507	0.838	838.3	study	Phase2	study/STIM_003.jpg	99
791.023	1.339	1339.1	study	Phase2	study/STIM_003.jpg	100
796.063	1.566	1565.7	study	Phase2	study/STIM_004.jpg	99
801.081	1.343	1343.4	study	Phase2	study/STIM_004.jpg	99
805.95	0.909	909.2	study	Phase2	study/STIM_004.jpg	99
810.379	1.54	1540.1	study	Phase2	study/STIM_005.jpg	100
814.927	1.108	1107.8	study	Phase2	study/STIM_005.jpg	100
819.276	0.72	720.3	study	Phase2	study/STIM_005.jpg	99
823.759	1.131	1130.9	study	Phase2	study/STIM_006.jpg	99
827.257	0.933	932.8	study	Phase2	study/STIM_006.jpg	100
830.199	0.766	765.6	study	Phase2	study/STIM_006.jpg	100
834.92	1.127	1126.7	study	Phase2	study/STIM_007.jpg	99
839.142	1.522	1522.4	study	Phase2	study/STIM_007.jpg	99
842.895	1.323	1323.4	study	Phase2	study/STIM_007.jpg	100
847.766	1.439	1438.6	study	Phase2	study/STIM_008.jpg	100
852.819	1.054	1054.0	study	Phase2	study/STIM_008.jpg	100
857.409	1.057	1057.3	study	Phase2	study/STIM_008.jpg	99
860.678	1.256	1256.1	study	Phase2	study/STIM_009.jpg	99
864.634	1.296	1295.6	study	Phase2	study/STIM_009.jpg	99
868.517	0.702	701.8	study	Phase2	study/STIM_009.jpg	99
871.353	0.948	948.4	study	Phase2	study/STIM_010.jpg	100
875.105	1.548	1547.7	study	Phase2	study/STIM_010.jpg	99
879.355	0.788	788.5	study	Phase2	study/STIM_010.jpg	100
882.311	1.397	1396.9	study	Phase2	study/STIM_011.jpg	100
887.464	1.111	1110.6	study	Phase2	study/STIM_011.jpg	99
892.073	0.865	864.6	study	Phase2	study/STIM_011.jpg	100
896.663	0.755	754.6	study	Phase2	study/STIM_012.jpg	99
899.676	0.926	926.2	study	Phase2	study/STIM_012.jpg	100
904.427	1.105	1104.6	study	Phase2	study/STIM_012.jpg	100
907.835	1.57	1570.2	study	Phase2	study/STIM_013.jpg	100
913.174	1.497	1497.0	study	Phase2	study/STIM_013.jpg	100
916.659	1.233	1233.3	study	Phase2	study/STIM_013.jpg	100
920.281	1.246	1245.7	study	Phase2	study/STIM_014.jpg	99
923.526	1.57	1570.0	study	Phase2	study/STIM_014.jpg	100
927.465	1.021	1020.7	study	Phase2	study/STIM_014.jpg	99
931.778	1.009	1009.0	study	Phase2	study/STIM_015.jpg	99
935.4	1.058	1057.7	study	Phase2	study/STIM_015.jpg	99
939.356	0.779	779.3	study	Phase2	study/STIM_015.jpg	99
942.611	1.137	1137.2	study	Phase2	study/STIM_016.jpg	100
945.803	0.952	951.5	study	Phase2	study/STIM_016.jpg	99
950.392	1.503	1503.4	study	Phase2	study/STIM_016.jpg	100
955.502	1.124	1124.0	study	Phase2	study/STIM_017.jpg	100
959.729	0.874	874.5	study	Phase2	study/STIM_017.jpg	100
962.933	0.918	917.6	study	Phase2	study/STIM_017.jpg	99
966.644	1.128	1128.2	study	Phase2	study/STIM_018.jpg	99
969.944	1.615	1615.1	study	Phase2	study/STIM_018.jpg	100
973.433	1.016	1015.7	study	Phase2	study/STIM_018.jpg	99
977.085	1.212	1211.7	study	Phase2	study/STIM_019.jpg	99
981.635	0.915	914.8	study	Phase2	study/STIM_019.jpg	100
986.102	0.91	910.2	study	Phase2	study/STIM_019.jpg	100
989.572	1.627	1627.2	study	Phase2	study/STIM_020.jpg	99
994.197	0.634	633.9	study	Phase2	study/STIM_020.jpg	100
998.44	1.265	1264.7	study	Phase2	study/STIM_020.jpg	99
1003.214	1.3	1300.0	study	Phase2	study/STIM_021.jpg	100
1006.657	0.872	871.6	study	Phase2	study/STIM_021.jpg	99
1011.186	0.942	942.5	study	Phase2	study/STIM_021.jpg	99
1014.348	0.865	864.9	study	Phase2	study/STIM_022.jpg	99
1017.411	0.858	858.4	study	Phase2	study/STIM_022.jpg	99
1020.33	1.365	1365.4	study	Phase2	study/STIM_022.jpg	100
1024.345	1.08	1079.8	study	Phase2	study/STIM_023.jpg	99
1029.045	1.406	1405.9	study	Phase2	study/STIM_023.jpg	99
1032.643	0.73	729.7	study	Phase2	study/STIM_023.jpg	99
1036.355	1.347	1346.7	study	Phase2	study/STIM_024.jpg	100
1040.62	1.068	1067.7	study	Phase2	study/STIM_024.jpg	100
1044.814	0.656	656.0	study	Phase2	study/STIM_024.jpg	100
1048.816	0.888	888.3	study	Phase2	study/STIM_025.jpg	99
1053.382	0.884	884.3	study	Phase2	study/STIM_025.jpg	99
1056.811	1.019	1018.7	study	Phase2	study/STIM_025.jpg	99
1059.825	1.587	1587.3	study	Phase2	study/STIM_026.jpg	99
1063.65	0.817	816.7	study	Phase2	study/STIM_026.jpg	100
1067.834	1.121	1121.0	study	Phase2	study/STIM_026.jpg	100
1071.689	1.33	1329.6	study	Phase2	study/STIM_027.jpg	100
1076.366	0.902	902.1	study	Phase2	study/STIM_027.jpg	100
1079.242	1.359	1359.1	study	Phase2	study/STIM_027.jpg	100
1082.716	0.826	826.2	study	Phase2	study/STIM_028.jpg	100
1085.494	1.415	1414.9	study	Phase2	study/STIM_028.jpg	100
1088.822	1.239	1239.0	study	Phase2	study/STIM_028.jpg	100
1092.207	1.326	1325.5	study	Phase2	study/STIM_029.jpg	99
1096.138	1.355	1355.1	study	Phase2	study/STIM_029.jpg	100
1100.305	0.816	815.6	study	Phase2	study/STIM_029.jpg	100
1103.727	0.916	916.1	test	Phase2	test/STIM_000.jpg	99
1107.788	0.88	879.9	test	Phase2	test/STIM_000.jpg	100
1111.769	1.18	1180.0	test	Phase2	test/STIM_000.jpg	99
1115.831	1.243	1243.3	test	Phase2	test/STIM_001.jpg	99
1120.74	1.328	1327.6	test	Phase2	test/STIM_001.jpg	100
1123.985	1.338	1338.0	test	Phase2	test/STIM_001.jpg	99
1128.285	1.231	1231.3	test	Phase2	test/STIM_002.jpg	99
1132.857	1.266	1265.6	test	Phase2	test/STIM_002.jpg	99
1136.193	0.847	847.2	test	Phase2	test/STIM_002.jpg	99
1139.284	1.05	1050.1	test	Phase2	test/STIM_003.jpg	100
1142.794	1.227	1227.1	test	Phase2	test/STIM_003.jpg	100
1146.316	0.877	877.2	test	Phase2	test/STIM_003.jpg	99
1149.923	0.914	914.1	test	Phase2	test/STIM_004.jpg	100
1154.655	0.783	783.4	test	Phase2	test/STIM_004.jpg	99
1159.131	0.962	961.8	test	Phase2	test/STIM_004.jpg	99
1163.749	0.735	734.8	test	Phase2	test/STIM_005.jpg	100
1167.787	1.086	1086.3	test	Phase2	test/STIM_005.jpg	99
1171.17	1.42	1420.5	test	Phase2	test/STIM_005.jpg	100
1174.393	0.852	851.9	test	Phase2	test/STIM_006.jpg	99
1178.992	0.752	752.2	test	Phase2	test/STIM_006.jpg	99
1182.915	0.844	843.6	test	Phase2	test/STIM_006.jpg	100
1186.195	0.948	947.9	test	Phase2	test/STIM_007.jpg	99
1190.055	1.403	1403.2	test	Phase2	test/STIM_007.jpg	99
1193.692	1.13	1130.1	test	Phase2	test/STIM_007.jpg	100
1198.05	1.299	1298.8	test	Phase2	test/STIM_008.jpg	100
1203.059	1.214	1214.2	test	Phase2	test/STIM_008.jpg	99
1206.31	1.154	1153.7	test	Phase2	test/STIM_008.jpg	100
1209.678	1.188	1188.0	test	Phase2	test/STIM_009.jpg	99
1213.76	1.202	1201.6	test	Phase2	test/STIM_009.jpg	100
1218.488	1.36	1359.7	test	Phase2	test/STIM_009.jpg	99
1222.841	1.044	1043.6	test	Phase2	test/STIM_010.jpg	100
1227.551	0.849	849.1	test	Phase2	test/STIM_010.jpg	100
1230.79	0.956	956.4	test	Phase2	test/STIM_010.jpg	100
1235.167	0.978	977.9	test	Phase2	test/STIM_011.jpg	100
1239.691	1.132	1131.5	test	Phase2	test/STIM_011.jpg	100
1244.373	1.398	1398.4	test	Phase2	test/STIM_011.jpg	99
1249.217	0.857	856.7	test	Phase2	test/STIM_012.jpg	100
1252.321	0.846	846.4	test	Phase2	test/STIM_012.jpg	100
1256.756	0.718	718.4	test	Phase2	test/STIM_012.jpg	100
1260.948	1.347	1346.9	test	Phase2	test/STIM_013.jpg	99
1265.43	0.828	828.0	test	Phase2	test/STIM_013.jpg	99
1268.142	0.885	884.6	test	Phase2	test/STIM_013.jpg	99
1271.496	0.79	790.4	test	Phase2	test/STIM_014.jpg	99
1275.878	0.781	781.1	test	Phase2	test/STIM_014.jpg	100
1280.414	0.837	836.8	test	Phase2	test/STIM_014.jpg	100
1283.541	1.171	1170.8	test	Phase2	test/STIM_015.jpg	99
1288.337	1.354	1354.4	test	Phase2	test/STIM_015.jpg	99
1292.395	0.879	878.6	test	Phase2	test/STIM_015.jpg	100
1295.199	0.849	849.1	test	Phase2	test/STIM_016.jpg	100
1299.787	1.125	1124.6	test	Phase2	test/STIM_016.jpg	99
1303.307	1.206	1205.9	test	Phase2	test/STIM_016.jpg	100
1308.053	0.862	862.1	test	Phase2	test/STIM_017.jpg	100
1311.148	1.298	1297.9	test	Phase2	test/STIM_017.jpg	99
1315.082	1.47	1469.8	test	Phase2	test/STIM_017.jpg	99
1318.771	1.062	1062.1	test	Phase2	test/STIM_018.jpg	99
1322.578	1.09	1090.4	test	Phase2	test/STIM_018.jpg	100
1326.512	1.463	1463.0	test	Phase2	test/STIM_018.jpg	100
1331.221	1.181	1181.2	test	Phase2	test/STIM_019.jpg	100
1336.037	1.376	1375.7	test	Phase2	test/STIM_019.jpg	99
1340.85	1.056	1055.6	test	Phase2	test/STIM_019.jpg	100
1345.541	0.753	753.2	test	Phase2	test/STIM_020.jpg	99
1349.548	0.737	736.6	test	Phase2	test/STIM_020.jpg	100
1353.708	1.193	1193.2	test	Phase2	test/STIM_020.jpg	100
1357.127	1.31	1309.5	test	Phase2	test/STIM_021.jpg	99
1362.233	0.821	820.7	test	Phase2	test/STIM_021.jpg	100
1366.492	0.684	684.2	test	Phase2	test/STIM_021.jpg	100
1369.546	0.846	846.4	test	Phase2	test/STIM_022.jpg	99
1372.655	1.186	1185.5	test	Phase2	test/STIM_022.jpg	99
1376.817	1.156	1156.0	test	Phase2	test/STIM_022.jpg	100
1379.915	1.259	1259.2	test	Phase2	test/STIM_023.jpg	100
1384.466	1.255	1255.1	test	Phase2	test/STIM_023.jpg	100
1389.201	1.399	1399.4	test	Phase2	test/STIM_023.jpg	100
1393.294	1.105	1105.0	test	Phase2	test/STIM_024.jpg	100
1397.513	1.082	1082.3	test	Phase2	test/STIM_024.jpg	99
1400.56	0.823	822.8	test	Phase2	test/STIM_024.jpg	99
1404.555	0.816	815.6	test	Phase2	test/STIM_025.jpg	100
1408.327	1.221	1221.3	test	Phase2	test/STIM_025.jpg	100
1412.252	0.827	826.6	test	Phase2	test/STIM_025.jpg	100
1415.245	1.345	1344.9	test	Phase2	test/STIM_026.jpg	99
1420.419	1.376	1375.9	test	Phase2	test/STIM_026.jpg	100
1425.352	1.271	1271.3	test	Phase2	test/STIM_026.jpg	100
1430.273	0.951	950.6	test	Phase2	test/STIM_027.jpg	99
1434.398	1.433	1432.6	test	Phase2	test/STIM_027.jpg	99
1438.539	1.136	1135.9	test	Phase2	test/STIM_027.jpg	100
1441.839	1.254	1254.2	test	Phase2	test/STIM_028.jpg	100
1445.409	0.854	853.5	test	Phase2	test/STIM_028.jpg	100
1449.135	0.928	928.2	test	Phase2	test/STIM_028.jpg	99
1453.462	0.989	989.3	test	Phase2	test/STIM_029.jpg	99
1457.356	0.787	787.0	test	Phase2	test/STIM_029.jpg	99
1460.179	1.399	1399.0	test	Phase2	test/STIM_029.jpg	100
1465.282	0.896	895.5	study	Phase3	study/STIM_000.jpg	99
1469.343	0.781	781.4	study	Phase3	study/STIM_000.jpg	99
1472.094	0.941	941.1	study	Phase3	study/STIM_000.jpg	99
1475.232	0.79	790.5	study	Phase3	study/STIM_001.jpg	100
1478.451	1.249	1249.0	study	Phase3	study/STIM_001.jpg	100
1482.703	0.861	861.0	study	Phase3	study/STIM_001.jpg	99
1486.788	0.68	680.0	study	Phase3	study/STIM_002.jpg	99
1489.649	1.296	1295.5	study	Phase3	study/STIM_002.jpg	99
1492.756	1.368	1367.6	study	Phase3	study/STIM_002.jpg	100
1496.081	0.937	936.9	study	Phase3	study/STIM_003.jpg	99
1500.412	0.602	602.5	study	Phase3	study/STIM_003.jpg	100
1503.685	0.849	848.6	study	Phase3	study/STIM_003.jpg	100
1507.229	1.013	1013.2	study	Phase3	study/STIM_004.jpg	99
1511.933	1.142	1141.9	study	Phase3	study/STIM_004.jpg	100
1514.958	0.742	741.7	study	Phase3	study/STIM_004.jpg	99
1519.54	0.897	896.9	study	Phase3	study/STIM_005.jpg	100
1523.025	1.36	1360.3	study	Phase3	study/STIM_005.jpg	100
1526.309	0.643	643.0	study	Phase3	study/STIM_005.jpg	100
1529.534	0.648	648.1	study	Phase3	study/STIM_006.jpg	100
1533.163	0.857	856.9	study	Phase3	study/STIM_006.jpg	99
1537.652	1.004	1003.9	study	Phase3	study/STIM_006.jpg	99
1541.916	0.967	967.1	study	Phase3	study/STIM_007.jpg	100
1546.323	0.627	627.4	study	Phase3	study/STIM_007.jpg	99
1549.152	0.913	913.2	study	Phase3	study/STIM_007.jpg	100
1552.571	0.696	695.7	study	Phase3	study/STIM_008.jpg	100
1556.165	1.326	1325.7	study	Phase3	study/STIM_008.jpg	100
1560.009	1.378	1377.5	study	Phase3	study/STIM_008.jpg	99
1564.923	0.651	650.9	study	Phase3	study/STIM_009.jpg	100
1568.337	0.97	970.2	study	Phase3	study/STIM_009.jpg	100
1571.703	1.086	1086.1	study	Phase3	study/STIM_009.jpg	99
1574.935	1.028	1028.0	study	Phase3	study/STIM_010.jpg	99
1579.651	1.402	1401.7	study	Phase3	study/STIM_010.jpg	99
1583.18	1.376	1376.3	study	Phase3	study/STIM_010.jpg	100
1586.612	1.162	1162.1	study	Phase3	study/STIM_011.jpg	99
1590.763	1.002	1002.5	study	Phase3	study/STIM_011.jpg	99
1594.09	1.344	1343.8	study	Phase3	study/STIM_011.jpg	99
1598.434	1.024	1024.4	study	Phase3	study/STIM_012.jpg	100
1602.05	0.77	769.9	study	Phase3	study/STIM_012.jpg	99
1606.013	0.865	865.2	study	Phase3	study/STIM_012.jpg	99
1610.466	1.214	1213.5	study	Phase3	study/STIM_013.jpg	100
1613.953	0.698	698.4	study	Phase3	study/STIM_013.jpg	100
1618.44	0.828	828.3	study	Phase3	study/STIM_013.jpg	100
1621.159	1.326	1326.5	study	Phase3	study/STIM_014.jpg	99
1624.951	0.706	705.9	study	Phase3	study/STIM_014.jpg	99
1628.674	1.505	1504.9	study	Phase3	study/STIM_014.jpg	99
1632.238	1.303	1303.1	study	Phase3	study/STIM_015.jpg	99
1635.597	1.295	1295.1	study	Phase3	study/STIM_015.jpg	100
1639.813	1.145	1144.8	study	Phase3	study/STIM_015.jpg	100
1643.104	0.61	609.8	study	Phase3	study/STIM_016.jpg	99
1646.937	1.394	1394.0	study	Phase3	study/STIM_016.jpg	99
1650.988	1.16	1159.6	study	Phase3	study/STIM_016.jpg	99
1655.954	0.641	641.1	study	Phase3	study/STIM_017.jpg	100
1659.804	1.156	1155.8	study	Phase3	study/STIM_017.jpg	100
1664.285	0.766	765.7	study	Phase3	study/STIM_017.jpg	99
1667.455	1.034	1034.4	study	Phase3	study/STIM_018.jpg	100
1670.499	0.796	796.5	study	Phase3	study/STIM_018.jpg	99
1673.216	0.591	591.1	study	Phase3	study/STIM_018.jpg	100
1676.541	1.21	1210.0	study	Phase3	study/STIM_019.jpg	99
1680.014	0.912	912.0	study	Phase3	study/STIM_019.jpg	99
1682.999	1.433	1432.6	study	Phase3	study/STIM_019.jpg	100
1686.61	0.971	971.2	study	Phase3	study/STIM_020.jpg	99
1691.354	0.973	972.9	study	Phase3	study/STIM_020.jpg	99
1695.165	1.188	1188.3	study	Phase3	study/STIM_020.jpg	99
1698.603	1.223	1222.6	study	Phase3	study/STIM_021.jpg	100
1703.031	0.897	896.7	study	Phase3	study/STIM_021.jpg	100
1706.696	1.017	1017.4	study	Phase3	study/STIM_021.jpg	100
1710.853	1.161	1160.9	study	Phase3	study/STIM_022.jpg	99
1714.006	0.788	788.1	study	Phase3	study/STIM_022.jpg	99
1717.738	1.35	1349.6	study	Phase3	study/STIM_022.jpg	99
1722.61	0.864	863.7	study	Phase3	study/STIM_023.jpg	100
1726.804	1.336	1336.4	study	Phase3	study/STIM_023.jpg	99
1730.691	1.108	1107.6	study	Phase3	study/STIM_023.jpg	100
1735.497	1.176	1176.2	study	Phase3	study/STIM_024.jpg	100
1740.109	1.113	1112.8	study	Phase3	study/STIM_024.jpg	99
1743.714	0.549	548.7	study	Phase3	study/STIM_024.jpg	99
1746.922	1.163	1163.2	study	Phase3	study/STIM_025.jpg	99
1751.951	1.27	1270.5	study	Phase3	study/STIM_025.jpg	100
1756.353	0.683	683.1	study	Phase3	study/STIM_025.jpg	99
1759.166	1.198	1197.5	study	Phase3	study/STIM_026.jpg	100
1763.991	1.158	1157.6	study	Phase3	study/STIM_026.jpg	100
1768.807	0.992	991.8	study	Phase3	study/STIM_026.jpg	100
1773.595	1.396	1395.6	study	Phase3	study/STIM_027.jpg	100
1778.623	0.956	956.0	study	Phase3	study/STIM_027.jpg	100
1783.328	1.264	1264.1	study	Phase3	study/STIM_027.jpg	100
1787.155	0.898	898.1	study	Phase3	study/STIM_028.jpg	100
1790.311	0.636	635.8	study	Phase3	study/STIM_028.jpg	100
1793.576	1.193	1192.9	study	Phase3	study/STIM_028.jpg	99
1797.08	0.89	889.8	study	Phase3	study/STIM_029.jpg	99
1801.194	1.389	1388.7	study	Phase3	study/STIM_029.jpg	100
1804.887	1.31	1310.3	study	Phase3	study/STIM_029.jpg	100
1809.305	1.381	1380.8	test	Phase3	test/STIM_000.jpg	99
1813.42	1.308	1308.1	test	Phase3	test/STIM_000.jpg	100
1817.789	0.951	950.6	test	Phase3	test/STIM_000.jpg	99
1820.798	1.222	1222.3	test	Phase3	test/STIM_001.jpg	99
1823.907	0.963	962.7	test	Phase3	test/STIM_001.jpg	100
1827.621	0.916	915.9	test	Phase3	test/STIM_001.jpg	99
1831.547	0.621	620.6	test	Phase3	test/STIM_002.jpg	100
1834.447	1.412	1411.7	test	Phase3	test/STIM_002.jpg	99
1838.094	1.284	1284.3	test	Phase3	test/STIM_002.jpg	99
1842.547	0.994	993.8	test	Phase3	test/STIM_003.jpg	99
1846.437	0.931	931.4	test	Phase3	test/STIM_003.jpg	100
1850.984	1.409	1408.8	test	Phase3	test/STIM_003.jpg	100
1855.987	1.333	1332.9	test	Phase3	test/STIM_004.jpg	99
1860.471	0.694	694.5	test	Phase3	test/STIM_004.jpg	99
1863.604	1.512	1511.9	test	Phase3	test/STIM_004.jpg	99
1868.102	1.421	1420.7	test	Phase3	test/STIM_005.jpg	99
1872.173	1.388	1388.1	test	Phase3	test/STIM_005.jpg	99
1877.211	0.818	817.8	test	Phase3	test/STIM_005.jpg	100
1881.576	1.408	1407.7	test	Phase3	test/STIM_006.jpg	99
1886.404	1.17	1170.0	test	Phase3	test/STIM_006.jpg	100
1890.822	0.953	952.9	test	Phase3	test/STIM_006.jpg	99
1894.473	1.057	1057.1	test	Phase3	test/STIM_007.jpg	100
1897.878	1.299	1298.9	test	Phase3	test/STIM_007.jpg	100
1902.468	0.953	952.7	test	Phase3	test/STIM_007.jpg	100
1906.44	0.828	828.2	test	Phase3	test/STIM_008.jpg	99
1909.456	0.977	977.0	test	Phase3	test/STIM_008.jpg	99
1912.362	1.118	1118.3	test	Phase3	test/STIM_008.jpg	99
1916.688	1.452	1451.9	test	Phase3	test/STIM_009.jpg	99
1920.973	0.78	780.0	test	Phase3	test/STIM_009.jpg	100
1924.434	0.707	706.8	test	Phase3	test/STIM_009.jpg	100
1928.753	1.061	1060.8	test	Phase3	test/STIM_010.jpg	100
1931.81	1.4	1400.4	test	Phase3	test/STIM_010.jpg	99
1935.373	0.85	850.2	test	Phase3	test/STIM_010.jpg	99
1938.934	0.693	693.3	test	Phase3	test/STIM_011.jpg	99
1942.424	1.254	1254.1	test	Phase3	test/STIM_011.jpg	99
1945.809	1.032	1032.1	test	Phase3	test/STIM_011.jpg	100
1949.766	1.062	1062.3	test	Phase3	test/STIM_012.jpg	100
1953.503	0.632	632.2	test	Phase3	test/STIM_012.jpg	100
1956.933	1.375	1374.9	test	Phase3	test/STIM_012.jpg	99
1961.299	1.236	1236.2	test	Phase3	test/STIM_013.jpg	100
1964.988	1.266	1266.1	test	Phase3	test/STIM_013.jpg	100
1968.751	1.445	1444.7	test	Phase3	test/STIM_013.jpg	100
1973.48	1.129	1129.2	test	Phase3	test/STIM_014.jpg	100
1977.722	0.997	996.9	test	Phase3	test/STIM_014.jpg	99
1982.412	0.814	814.5	test	Phase3	test/STIM_014.jpg	100
1985.606	1.04	1039.5	test	Phase3	test/STIM_015.jpg	100
1988.895	1.009	1009.3	test	Phase3	test/STIM_015.jpg	99
1992.065	1.451	1451.2	test	Phase3	test/STIM_015.jpg	99
1996.308	1.101	1101.4	test	Phase3	test/STIM_016.jpg	99
1999.69	0.675	674.7	test	Phase3	test/STIM_016.jpg	100
2004.132	1.088	1088.4	test	Phase3	test/STIM_016.jpg	99
2007.341	0.865	864.6	test	Phase3	test/STIM_017.jpg	99
2010.18	0.863	863.1	test	Phase3	test/STIM_017.jpg	99
2013.919	1.424	1423.6	test	Phase3	test/STIM_017.jpg	99
2017.248	1.122	1122.4	test	Phase3	test/STIM_018.jpg	100
2022.1	1.08	1079.9	test	Phase3	test/STIM_018.jpg	99
2025.09	1.066	1065.9	test	Phase3	test/STIM_018.jpg	100
2028.96	0.955	955.2	test	Phase3	test/STIM_019.jpg	100
2033.662	1.276	1275.7	test	Phase3	test/STIM_019.jpg	99
2037.846	1.366	1365.7	test	Phase3	test/STIM_019.jpg	100
2041.449	1.16	1159.7	test	Phase3	test/STIM_020.jpg	100
2044.893	1.42	1420.0	test	Phase3	test/STIM_020.jpg	99
2048.207	0.99	990.2	test	Phase3	test/STIM_020.jpg	99
2051.351	1.432	1432.0	test	Phase3	test/STIM_021.jpg	100
2056.057	0.992	991.8	test	Phase3	test/STIM_021.jpg	100
2059.335	0.77	769.8	test	Phase3	test/STIM_021.jpg	99
2062.148	1.322	1321.9	test	Phase3	test/STIM_022.jpg	99
2066.155	0.792	792.0	test	Phase3	test/STIM_022.jpg	100
2070.065	0.706	706.3	test	Phase3	test/STIM_022.jpg	100
2073.297	0.857	857.0	test	Phase3	test/STIM_023.jpg	99
2077.902	0.918	918.2	test	Phase3	test/STIM_023.jpg	99
2082.184	0.94	940.3	test	Phase3	test/STIM_023.jpg	99
2087.004	1.007	1006.8	test	Phase3	test/STIM_024.jpg	100
2091.544	0.703	702.8	test	Phase3	test/STIM_024.jpg	100
2095.575	1.355	1355.1	test	Phase3	test/STIM_024.jpg	99
2099.873	1.041	1040.7	test	Phase3	test/STIM_025.jpg	100
2103.738	1.408	1408.0	test	Phase3	test/STIM_025.jpg	100
2107.645	0.723	722.7	test	Phase3	test/STIM_025.jpg	100
2111.745	1.311	1311.4	test	Phase3	test/STIM_026.jpg	99
2116.159	1.168	1168.4	test	Phase3	test/STIM_026.jpg	100
2120.754	1.228	1227.9	test	Phase3	test/STIM_026.jpg	100
2123.848	1.11	1109.7	test	Phase3	test/STIM_027.jpg	99
2127.513	1.473	1473.2	test	Phase3	test/STIM_027.jpg	99
2132.446	1.166	1165.8	test	Phase3	test/STIM_027.jpg	99
2136.263	1.138	1137.6	test	Phase3	test/STIM_028.jpg	99
2140.748	0.98	980.2	test	Phase3	test/STIM_028.jpg	100
2144.868	0.768	768.0	test	Phase3	test/STIM_028.jpg	100
2148.026	1.393	1392.6	test	Phase3	test/STIM_029.jpg	100
2151.477	1.133	1133.4	test	Phase3	test/STIM_029.jpg	100
2154.654	1.149	1149.2	test	Phase3	test/STIM_029.jpg	99
