onset	duration	accuracy_binary	trial_type	learning_stage	stimulus
0.0	2.033	0	study	Phase1	study/STIM_000.jpg
5.448	1.629	1	study	Phase1	study/STIM_000.jpg
10.726	1.446	1	study	Phase1	study/STIM_000.jpg
14.435	1.0	1	study	Phase1	study/STIM_001.jpg
19.244	1.427	1	study	Phase1	study/STIM_001.jpg
23.907	1.008	0	study	Phase1	study/STIM_001.jpg
27.737	1.975	1	study	Phase1	study/STIM_002.jpg
32.483	1.795	1	study	Phase1	study/STIM_002.jpg
36.778	1.34	1	study	Phase1	study/STIM_002.jpg
41.293	1.826	0	study	Phase1	study/STIM_003.jpg
44.98	0.951	1	study	Phase1	study/STIM_003.jpg
48.726	1.358	1	study	Phase1	study/STIM_003.jpg
53.073	1.205	1	study	Phase1	study/STIM_004.jpg
57.097	1.517	1	study	Phase1	study/STIM_004.jpg
62.184	1.447	1	study	Phase1	study/STIM_004.jpg
66.906	0.888	1	study	Phase1	study/STIM_005.jpg
70.177	1.134	0	study	Phase1	study/STIM_005.jpg
74.195	1.148	1	study	Phase1	study/STIM_005.jpg
77.573	1.014	1	study	Phase1	study/STIM_006.jpg
80.943	0.812	1	study	Phase1	study/STIM_006.jpg
85.64	1.204	1	study	Phase1	study/STIM_006.jpg
89.521	1.83	1	study	Phase1	study/STIM_007.jpg
93.425	1.409	1	study	Phase1	study/STIM_007.jpg
97.441	1.122	1	study	Phase1	study/STIM_007.jpg
101.905	1.959	1	study	Phase1	study/STIM_008.jpg
107.105	0.996	1	study	Phase1	study/STIM_008.jpg
111.285	1.781	1	study	Phase1	study/STIM_008.jpg
115.785	1.465	1	study	Phase1	study/STIM_009.jpg
121.018	0.832	1	study	Phase1	study/STIM_009.jpg
123.872	1.228	1	study	Phase1	study/STIM_009.jpg
128.097	1.874	1	study	Phase1	study/STIM_010.jpg
133.558	1.75	0	study	Phase1	study/STIM_010.jpg
138.558	1.404	1	study	Phase1	study/STIM_010.jpg
142.719	0.916	1	study	Phase1	study/STIM_011.jpg
147.061	1.045	0	study	Phase1	study/STIM_011.jpg
150.44	1.396	1	study	Phase1	study/STIM_011.jpg
153.931	1.424	1	study	Phase1	study/STIM_012.jpg
157.484	0.853	1	study	Phase1	study/STIM_012.jpg
160.435	1.808	1	study	Phase1	study/STIM_012.jpg
165.554	1.416	1	study	Phase1	study/STIM_013.jpg
170.316	1.168	0	study	Phase1	study/STIM_013.jpg
174.293	1.392	1	study	Phase1	study/STIM_013.jpg
179.389	1.697	1	study	Phase1	study/STIM_014.jpg
184.308	1.195	1	study	Phase1	study/STIM_014.jpg
189.163	1.822	0	study	Phase1	study/STIM_014.jpg
193.314	1.079	1	study	Phase1	study/STIM_015.jpg
196.79	1.334	1	study	Phase1	study/STIM_015.jpg
201.691	1.457	1	study	Phase1	study/STIM_015.jpg
205.082	1.745	0	study	Phase1	study/STIM_016.jpg
209.092	1.673	1	study	Phase1	study/STIM_016.jpg
213.894	0.97	0	study	Phase1	study/STIM_016.jpg
217.543	1.604	1	study	Phase1	study/STIM_017.jpg
222.651	1.892	1	study	Phase1	study/STIM_017.jpg
226.739	1.325	1	study	Phase1	study/STIM_017.jpg
231.469	1.977	1	study	Phase1	study/STIM_018.jpg
236.625	1.022	1	study	Phase1	study/STIM_018.jpg
240.773	1.246	1	study	Phase1	study/STIM_018.jpg
245.827	1.069	1	study	Phase1	study/STIM_019.jpg
250.162	0.988	1	study	Phase1	study/STIM_019.jpg
254.004	1.504	1	study	Phase1	study/STIM_019.jpg
258.001	1.597	1	study	Phase1	study/STIM_020.jpg
262.652	1.652	1	study	Phase1	study/STIM_020.jpg
266.5	1.425	1	study	Phase1	study/STIM_020.jpg
270.678	1.162	0	study	Phase1	study/STIM_021.jpg
274.798	0.875	1	study	Phase1	study/STIM_021.jpg
278.857	1.094	0	study	Phase1	study/STIM_021.jpg
283.588	1.069	1	study	Phase1	study/STIM_022.jpg
286.928	1.1	1	study	Phase1	study/STIM_022.jpg
291.813	1.671	1	study	Phase1	study/STIM_022.jpg
296.929	1.417	1	study	Phase1	study/STIM_023.jpg
300.505	1.454	1	study	Phase1	study/STIM_023.jpg
304.92	1.609	1	study	Phase1	study/STIM_023.jpg
308.45	1.635	1	study	Phase1	study/STIM_024.jpg
312.921	1.25	0	study	Phase1	study/STIM_024.jpg
317.887	1.352	1	study	Phase1	study/STIM_024.jpg
322.162	1.794	1	study	Phase1	study/STIM_025.jpg
326.6	1.676	1	study	Phase1	study/STIM_025.jpg
330.404	1.636	1	study	Phase1	study/STIM_025.jpg
333.96	1.698	1	study	Phase1	study/STIM_026.jpg
337.71	1.464	1	study	Phase1	study/STIM_026.jpg
342.017	0.975	1	study	Phase1	study/STIM_026.jpg
346.209	1.996	1	study	Phase1	study/STIM_027.jpg
350.633	1.632	1	study	Phase1	study/STIM_027.jpg
355.367	1.643	0	study	Phase1	study/STIM_027.jpg
360.052	1.058	0	study	Phase1	study/STIM_028.jpg
362.98	1.614	0	study	Phase1	study/STIM_028.jpg
368.247	0.969	1	study	Phase1	study/STIM_028.jpg
371.81	1.951	1	study	Phase1	study/STIM_029.jpg
376.943	1.112	1	study	Phase1	study/STIM_029.jpg
381.895	1.693	1	study	Phase1	study/STIM_029.jpg
387.192	1.232	1	test	Phase1	test/STIM_000.jpg
391.404	0.837	1	test	Phase1	test/STIM_000.jpg
396.115	1.153	0	test	Phase1	test/STIM_000.jpg
399.635	0.912	0	test	Phase1	test/STIM_001.jpg
403.716	1.196	1	test	Phase1	test/STIM_001.jpg
408.585	1.099	0	test	Phase1	test/STIM_001.jpg
412.149	1.068	1	test	Phase1	test/STIM_002.jpg
415.76	1.188	0	test	Phase1	test/STIM_002.jpg
418.874	0.924	1	test	Phase1	test/STIM_002.jpg
423.037	1.117	1	test	Phase1	test/STIM_003.jpg
427.691	0.687	0	test	Phase1	test/STIM_003.jpg
431.512	1.211	1	test	Phase1	test/STIM_003.jpg
436.189	1.006	1	test	Phase1	test/STIM_004.jpg
440.031	1.471	1	test	Phase1	test/STIM_004.jpg
443.959	1.117	1	test	Phase1	test/STIM_004.jpg
448.104	1.016	1	test	Phase1	test/STIM_005.jpg
452.403	0.782	1	test	Phase1	test/STIM_005.jpg
456.228	0.915	1	test	Phase1	test/STIM_005.jpg
460.46	0.85	1	test	Phase1	test/STIM_006.jpg
464.662	1.402	1	test	Phase1	test/STIM_006.jpg
469.061	1.158	0	test	Phase1	test/STIM_006.jpg
473.704	1.077	1	test	Phase1	test/STIM_007.jpg
477.392	1.01	1	test	Phase1	test/STIM_007.jpg
482.17	1.195	1	test	Phase1	test/STIM_007.jpg
485.471	0.668	1	test	Phase1	test/STIM_008.jpg
489.906	1.006	0	test	Phase1	test/STIM_008.jpg
493.683	1.359	1	test	Phase1	test/STIM_008.jpg
497.632	1.051	1	test	Phase1	test/STIM_009.jpg
501.593	0.942	1	test	Phase1	test/STIM_009.jpg
505.238	0.907	1	test	Phase1	test/STIM_009.jpg
509.835	0.958	1	test	Phase1	test/STIM_010.jpg
513.245	0.897	0	test	Phase1	test/STIM_010.jpg
517.904	1.358	1	test	Phase1	test/STIM_010.jpg
521.808	1.18	1	test	Phase1	test/STIM_011.jpg
526.578	1.094	1	test	Phase1	test/STIM_011.jpg
530.073	1.233	1	test	Phase1	test/STIM_011.jpg
533.364	0.958	1	test	Phase1	test/STIM_012.jpg
536.874	1.186	1	test	Phase1	test/STIM_012.jpg
540.138	0.858	1	test	Phase1	test/STIM_012.jpg
543.919	0.695	1	test	Phase1	test/STIM_013.jpg
547.859	0.95	1	test	Phase1	test/STIM_013.jpg
550.801	0.912	0	test	Phase1	test/STIM_013.jpg
554.237	0.769	1	test	Phase1	test/STIM_014.jpg
557.313	0.806	1	test	Phase1	test/STIM_014.jpg
561.245	1.441	0	test	Phase1	test/STIM_014.jpg
565.864	0.97	1	test	Phase1	test/STIM_015.jpg
569.881	0.731	1	test	Phase1	test/STIM_015.jpg
573.879	0.911	1	test	Phase1	test/STIM_015.jpg
577.055	0.947	1	test	Phase1	test/STIM_016.jpg
581.329	1.024	0	test	Phase1	test/STIM_016.jpg
585.045	1.135	1	test	Phase1	test/STIM_016.jpg
588.776	1.163	1	test	Phase1	test/STIM_017.jpg
593.624	0.925	1	test	Phase1	test/STIM_017.jpg
598.085	0.618	1	test	Phase1	test/STIM_017.jpg
602.227	0.619	1	test	Phase1	test/STIM_018.jpg
606.735	1.51	1	test	Phase1	test/STIM_018.jpg
611.666	1.013	1	test	Phase1	test/STIM_018.jpg
616.472	1.365	1	test	Phase1	test/STIM_019.jpg
619.746	1.12	1	test	Phase1	test/STIM_019.jpg
623.224	0.987	1	test	Phase1	test/STIM_019.jpg
626.691	0.99	1	test	Phase1	test/STIM_020.jpg
629.866	0.887	0	test	Phase1	test/STIM_020.jpg
633.257	1.227	1	test	Phase1	test/STIM_020.jpg
637.866	1.355	1	test	Phase1	test/STIM_021.jpg
643.05	1.176	0	test	Phase1	test/STIM_021.jpg
647.137	0.872	1	test	Phase1	test/STIM_021.jpg
651.836	1.357	1	test	Phase1	test/STIM_022.jpg
655.368	0.767	1	test	Phase1	test/STIM_022.jpg
658.641	1.414	0	test	Phase1	test/STIM_022.jpg
663.683	1.264	1	test	Phase1	test/STIM_023.jpg
668.276	1.45	1	test	Phase1	test/STIM_023.jpg
672.182	1.048	1	test	Phase1	test/STIM_023.jpg
676.986	1.046	1	test	Phase1	test/STIM_024.jpg
680.275	1.162	0	test	Phase1	test/STIM_024.jpg
684.156	1.202	1	test	Phase1	test/STIM_024.jpg
688.12	1.429	1	test	Phase1	test/STIM_025.jpg
691.476	1.193	1	test	Phase1	test/STIM_025.jpg
695.54	1.296	1	test	Phase1	test/STIM_025.jpg
700.31	1.077	1	test	Phase1	test/STIM_026.jpg
703.624	1.139	1	test	Phase1	test/STIM_026.jpg
707.282	1.254	1	test	Phase1	test/STIM_026.jpg
711.249	1.054	1	test	Phase1	test/STIM_027.jpg
714.544	1.149	1	test	Phase1	test/STIM_027.jpg
719.353	0.779	1	test	Phase1	test/STIM_027.jpg
723.838	1.191	1	test	Phase1	test/STIM_028.jpg
727.859	1.43	1	test	Phase1	test/STIM_028.jpg
731.654	0.651	1	test	Phase1	test/STIM_028.jpg
735.766	1.343	1	test	Phase1	test/STIM_029.jpg
740.278	0.894	1	test	Phase1	test/STIM_029.jpg
744.834	1.101	1	test	Phase1	test/STIM_029.jpg
747.96	1.773	0	study	Phase2	study/STIM_000.jpg
751.598	0.851	1	study	Phase2	study/STIM_000.jpg
755.221	1.205	1	study	Phase2	study/STIM_000.jpg
758.6	1.242	1	study	Phase2	study/STIM_001.jpg
762.531	1.172	0	study	Phase2	study/STIM_001.jpg
767.526	0.958	1	study	Phase2	study/STIM_001.jpg
770.857	1.742	1	study	Phase2	study/STIM_002.jpg
775.548	1.053	1	study	Phase2	study/STIM_002.jpg
778.801	1.465	1	study	Phase2	study/STIM_002.jpg
784.048	1.241	1	study	Phase2	study/STIM_003.jpg
787.507	0.838	1	study	Phase2	study/STIM_003.jpg
791.023	1.339	1	study	Phase2	study/STIM_003.jpg
796.063	1.566	1	study	Phase2	study/STIM_004.jpg
801.081	1.343	1	study	Phase2	study/STIM_004.jpg
805.95	0.909	1	study	Phase2	study/STIM_004.jpg
810.379	1.54	1	study	Phase2	study/STIM_005.jpg
814.927	1.108	1	study	Phase2	study/STIM_005.jpg
819.276	0.72	1	study	Phase2	study/STIM_005.jpg
823.759	1.131	1	study	Phase2	study/STIM_006.jpg
827.257	0.933	1	study	Phase2	study/STIM_006.jpg
830.199	0.766	1	study	Phase2	study/STIM_006.jpg
834.92	1.127	1	study	Phase2	study/STIM_007.jpg
839.142	1.522	1	study	Phase2	study/STIM_007.jpg
842.895	1.323	1	study	Phase2	study/STIM_007.jpg
847.766	1.439	1	study	Phase2	study/STIM_008.jpg
852.819	1.054	1	study	Phase2	study/STIM_008.jpg
857.409	1.057	1	study	Phase2	study/STIM_008.jpg
860.678	1.256	1	study	Phase2	study/STIM_009.jpg
864.634	1.296	1	study	Phase2	study/STIM_009.jpg
868.517	0.702	1	study	Phase2	study/STIM_009.jpg
871.353	0.948	1	study	Phase2	study/STIM_010.jpg
875.105	1.548	1	study	Phase2	study/STIM_010.jpg
879.355	0.788	1	study	Phase2	study/STIM_010.jpg
882.311	1.397	0	study	Phase2	study/STIM_011.jpg
887.464	1.111	1	study	Phase2	study/STIM_011.jpg
892.073	0.865	1	study	Phase2	study/STIM_011.jpg
896.663	0.755	1	study	Phase2	study/STIM_012.jpg
899.676	0.926	1	study	Phase2	study/STIM_012.jpg
904.427	1.105	1	study	Phase2	study/STIM_012.jpg
907.835	1.57	1	study	Phase2	study/STIM_013.jpg
913.174	1.497	1	study	Phase2	study/STIM_013.jpg
916.659	1.233	1	study	Phase2	study/STIM_013.jpg
920.281	1.246	1	study	Phase2	study/STIM_014.jpg
923.526	1.57	1	study	Phase2	study/STIM_014.jpg
927.465	1.021	1	study	Phase2	study/STIM_014.jpg
931.778	1.009	1	study	Phase2	study/STIM_015.jpg
935.4	1.058	1	study	Phase2	study/STIM_015.jpg
939.356	0.779	1	study	Phase2	study/STIM_015.jpg
942.611	1.137	1	study	Phase2	study/STIM_016.jpg
945.803	0.952	1	study	Phase2	study/STIM_016.jpg
950.392	1.503	1	study	Phase2	study/STIM_016.jpg
955.502	1.124	1	study	Phase2	study/STIM_017.jpg
959.729	0.874	0	study	Phase2	study/STIM_017.jpg
962.933	0.918	1	study	Phase2	study/STIM_017.jpg
966.644	1.128	1	study	Phase2	study/STIM_018.jpg
969.944	1.615	1	study	Phase2	study/STIM_018.jpg
973.433	1.016	1	study	Phase2	study/STIM_018.jpg
977.085	1.212	1	study	Phase2	study/STIM_019.jpg
981.635	0.915	1	study	Phase2	study/STIM_019.jpg
986.102	0.91	0	study	Phase2	study/STIM_019.jpg
989.572	1.627	1	study	Phase2	study/STIM_020.jpg
994.197	0.634	0	study	Phase2	study/STIM_020.jpg
998.44	1.265	1	study	Phase2	study/STIM_020.jpg
1003.214	1.3	1	study	Phase2	study/STIM_021.jpg
1006.657	0.872	1	study	Phase2	study/STIM_021.jpg
1011.186	0.942	1	study	Phase2	study/STIM_021.jpg
1014.348	0.865	1	study	Phase2	study/STIM_022.jpg
1017.411	0.858	0	study	Phase2	study/STIM_022.jpg
1020.33	1.365	1	study	Phase2	study/STIM_022.jpg
1024.345	1.08	1	study	Phase2	study/STIM_023.jpg
1029.045	1.406	1	study	Phase2	study/STIM_023.jpg
1032.643	0.73	1	study	Phase2	study/STIM_023.jpg
1036.355	1.347	1	study	Phase2	study/STIM_024.jpg
1040.62	1.068	1	study	Phase2	study/STIM_024.jpg
1044.814	0.656	0	study	Phase2	study/STIM_024.jpg
1048.816	0.888	1	study	Phase2	study/STIM_025.jpg
1053.382	0.884	1	study	Phase2	study/STIM_025.jpg
1056.811	1.019	1	study	Phase2	study/STIM_025.jpg
1059.825	1.587	1	study	Phase2	study/STIM_026.jpg
1063.65	0.817	1	study	Phase2	study/STIM_026.jpg
1067.834	1.121	1	study	Phase2	study/STIM_026.jpg
1071.689	1.33	1	study	Phase2	study/STIM_027.jpg
1076.366	0.902	1	study	Phase2	study/STIM_027.jpg
1079.242	1.359	1	study	Phase2	study/STIM_027.jpg
1082.716	0.826	1	study	Phase2	study/STIM_028.jpg
1085.494	1.415	1	study	Phase2	study/STIM_028.jpg
1088.822	1.239	1	study	Phase2	study/STIM_028.jpg
1092.207	1.326	1	study	Phase2	study/STIM_029.jpg
1096.138	1.355	1	study	Phase2	study/STIM_029.jpg
1100.305	0.816	1	study	Phase2	study/STIM_029.jpg
1103.727	0.916	1	test	Phase2	test/STIM_000.jpg
1107.788	0.88	1	test	Phase2	test/STIM_000.jpg
1111.769	1.18	1	test	Phase2	test/STIM_000.jpg
1115.831	1.243	1	test	Phase2	test/STIM_001.jpg
1120.74	1.328	1	test	Phase2	test/STIM_001.jpg
1123.985	1.338	1	test	Phase2	test/STIM_001.jpg
1128.285	1.231	1	test	Phase2	test/STIM_002.jpg
1132.857	1.266	1	test	Phase2	test/STIM_002.jpg
1136.193	0.847	1	test	Phase2	test/STIM_002.jpg
1139.284	1.05	1	test	Phase2	test/STIM_003.jpg
1142.794	1.227	1	test	Phase2	test/STIM_003.jpg
1146.316	0.877	1	test	Phase2	test/STIM_003.jpg
1149.923	0.914	1	test	Phase2	test/STIM_004.jpg
1154.655	0.783	1	test	Phase2	test/STIM_004.jpg
1159.131	0.962	1	test	Phase2	test/STIM_004.jpg
1163.749	0.735	1	test	Phase2	test/STIM_005.jpg
1167.787	1.086	1	test	Phase2	test/STIM_005.jpg
1171.17	1.42	1	test	Phase2	test/STIM_005.jpg
1174.393	0.852	1	test	Phase2	test/STIM_006.jpg
1178.992	0.752	1	test	Phase2	test/STIM_006.jpg
1182.915	0.844	1	test	Phase2	test/STIM_006.jpg
1186.195	0.948	1	test	Phase2	test/STIM_007.jpg
1190.055	1.403	1	test	Phase2	test/STIM_007.jpg
1193.692	1.13	1	test	Phase2	test/STIM_007.jpg
1198.05	1.299	1	test	Phase2	test/STIM_008.jpg
1203.059	1.214	1	test	Phase2	test/STIM_008.jpg
1206.31	1.154	1	test	Phase2	test/STIM_008.jpg
1209.678	1.188	1	test	Phase2	test/STIM_009.jpg
1213.76	1.202	1	test	Phase2	test/STIM_009.jpg
1218.488	1.36	1	test	Phase2	test/STIM_009.jpg
1222.841	1.044	1	test	Phase2	test/STIM_010.jpg
1227.551	0.849	1	test	Phase2	test/STIM_010.jpg
1230.79	0.956	1	test	Phase2	test/STIM_010.jpg
1235.167	0.978	1	test	Phase2	test/STIM_011.jpg
1239.691	1.132	1	test	Phase2	test/STIM_011.jpg
1244.373	1.398	0	test	Phase2	test/STIM_011.jpg
1249.217	0.857	1	test	Phase2	test/STIM_012.jpg
1252.321	0.846	1	test	Phase2	test/STIM_012.jpg
1256.756	0.718	1	test	Phase2	test/STIM_012.jpg
1260.948	1.347	1	test	Phase2	test/STIM_013.jpg
1265.43	0.828	1	test	Phase2	test/STIM_013.jpg
1268.142	0.885	1	test	Phase2	test/STIM_013.jpg
1271.496	0.79	1	test	Phase2	test/STIM_014.jpg
1275.878	0.781	1	test	Phase2	test/STIM_014.jpg
1280.414	0.837	1	test	Phase2	test/STIM_014.jpg
1283.541	1.171	0	test	Phase2	test/STIM_015.jpg
1288.337	1.354	0	test	Phase2	test/STIM_015.jpg
1292.395	0.879	1	test	Phase2	test/STIM_015.jpg
1295.199	0.849	1	test	Phase2	test/STIM_016.jpg
1299.787	1.125	1	test	Phase2	test/STIM_016.jpg
1303.307	1.206	0	test	Phase2	test/STIM_016.jpg
1308.053	0.862	0	test	Phase2	test/STIM_017.jpg
1311.148	1.298	1	test	Phase2	test/STIM_017.jpg
1315.082	1.47	1	test	Phase2	test/STIM_017.jpg
1318.771	1.062	0	test	Phase2	test/STIM_018.jpg
1322.578	1.09	1	test	Phase2	test/STIM_018.jpg
1326.512	1.463	1	test	Phase2	test/STIM_018.jpg
1331.221	1.181	1	test	Phase2	test/STIM_019.jpg
1336.037	1.376	1	test	Phase2	test/STIM_019.jpg
1340.85	1.056	0	test	Phase2	test/STIM_019.jpg
1345.541	0.753	1	test	Phase2	test/STIM_020.jpg
1349.548	0.737	1	test	Phase2	test/STIM_020.jpg
1353.708	1.193	0	test	Phase2	test/STIM_020.jpg
1357.127	1.31	1	test	Phase2	test/STIM_021.jpg
1362.233	0.821	1	test	Phase2	test/STIM_021.jpg
1366.492	0.684	1	test	Phase2	test/STIM_021.jpg
1369.546	0.846	1	test	Phase2	test/STIM_022.jpg
1372.655	1.186	1	test	Phase2	test/STIM_022.jpg
1376.817	1.156	1	test	Phase2	test/STIM_022.jpg
1379.915	1.259	1	test	Phase2	test/STIM_023.jpg
1384.466	1.255	1	test	Phase2	test/STIM_023.jpg
1389.201	1.399	1	test	Phase2	test/STIM_023.jpg
1393.294	1.105	0	test	Phase2	test/STIM_024.jpg
1397.513	1.082	1	test	Phase2	test/STIM_024.jpg
1400.56	0.823	1	test	Phase2	test/STIM_024.jpg
1404.555	0.816	1	test	Phase2	test/STIM_025.jpg
1408.327	1.221	1	test	Phase2	test/STIM_025.jpg
1412.252	0.827	1	test	Phase2	test/STIM_025.jpg
1415.245	1.345	0	test	Phase2	test/STIM_026.jpg
1420.419	1.376	1	test	Phase2	test/STIM_026.jpg
1425.352	1.271	1	test	Phase2	test/STIM_026.jpg
1430.273	0.951	1	test	Phase2	test/STIM_027.jpg
1434.398	1.433	1	test	Phase2	test/STIM_027.jpg
1438.539	1.136	0	test	Phase2	test/STIM_027.jpg
1441.839	1.254	1	test	Phase2	test/STIM_028.jpg
1445.409	0.854	1	test	Phase2	test/STIM_028.jpg
1449.135	0.928	1	test	Phase2	test/STIM_028.jpg
1453.462	0.989	1	test	Phase2	test/STIM_029.jpg
1457.356	0.787	1	test	Phase2	test/STIM_029.jpg
1460.179	1.399	1	test	Phase2	test/STIM_029.jpg
1465.282	0.896	1	study	Phase3	study/STIM_000.jpg
1469.343	0.781	1	study	Phase3	study/STIM_000.jpg
1472.094	0.941	1	study	Phase3	study/STIM_000.jpg
1475.232	0.79	1	study	Phase3	study/STIM_001.jpg
1478.451	1.249	1	study	Phase3	study/STIM_001.jpg
1482.703	0.861	1	study	Phase3	study/STIM_001.jpg
1486.788	0.68	1	study	Phase3	study/STIM_002.jpg
1489.649	1.296	1	study	Phase3	study/STIM_002.jpg
1492.756	1.368	1	study	Phase3	study/STIM_002.jpg
1496.081	0.937	1	study	Phase3	study/STIM_003.jpg
1500.412	0.602	1	study	Phase3	study/STIM_003.jpg
1503.685	0.849	1	study	Phase3	study/STIM_003.jpg
1507.229	1.013	1	study	Phase3	study/STIM_004.jpg
1511.933	1.142	1	study	Phase3	study/STIM_004.jpg
1514.958	0.742	1	study	Phase3	study/STIM_004.jpg
1519.54	0.897	1	study	Phase3	study/STIM_005.jpg
1523.025	1.36	1	study	Phase3	study/STIM_005.jpg
1526.309	0.643	1	study	Phase3	study/STIM_005.jpg
1529.534	0.648	1	study	Phase3	study/STIM_006.jpg
1533.163	0.857	1	study	Phase3	study/STIM_006.jpg
1537.652	1.004	1	study	Phase3	study/STIM_006.jpg
1541.916	0.967	1	study	Phase3	study/STIM_007.jpg
1546.323	0.627	1	study	Phase3	study/STIM_007.jpg
1549.152	0.913	1	study	Phase3	study/STIM_007.jpg
1552.571	0.696	1	study	Phase3	study/STIM_008.jpg
1556.165	1.326	1	study	Phase3	study/STIM_008.jpg
1560.009	1.378	1	study	Phase3	study/STIM_008.jpg
1564.923	0.651	1	study	Phase3	study/STIM_009.jpg
1568.337	0.97	1	study	Phase3	study/STIM_009.jpg
1571.703	1.086	1	study	Phase3	study/STIM_009.jpg
1574.935	1.028	0	study	Phase3	study/STIM_010.jpg
1579.651	1.402	1	study	Phase3	study/STIM_010.jpg
1583.18	1.376	1	study	Phase3	study/STIM_010.jpg
1586.612	1.162	1	study	Phase3	study/STIM_011.jpg
1590.763	1.002	1	study	Phase3	study/STIM_011.jpg
1594.09	1.344	1	study	Phase3	study/STIM_011.jpg
1598.434	1.024	1	study	Phase3	study/STIM_012.jpg
1602.05	0.77	1	study	Phase3	study/STIM_012.jpg
1606.013	0.865	1	study	Phase3	study/STIM_012.jpg
1610.466	1.214	1	study	Phase3	study/STIM_013.jpg
1613.953	0.698	1	study	Phase3	study/STIM_013.jpg
1618.44	0.828	1	study	Phase3	study/STIM_013.jpg
1621.159	1.326	1	study	Phase3	study/STIM_014.jpg
1624.951	0.706	1	study	Phase3	study/STIM_014.jpg
1628.674	1.505	1	study	Phase3	study/STIM_014.jpg
1632.238	1.303	1	study	Phase3	study/STIM_015.jpg
1635.597	1.295	1	study	Phase3	study/STIM_015.jpg
1639.813	1.145	1	study	Phase3	study/STIM_015.jpg
1643.104	0.61	1	study	Phase3	study/STIM_016.jpg
1646.937	1.394	1	study	Phase3	study/STIM_016.jpg
1650.988	1.16	1	study	Phase3	study/STIM_016.jpg
1655.954	0.641	1	study	Phase3	study/STIM_017.jpg
1659.804	1.156	1	study	Phase3	study/STIM_017.jpg
1664.285	0.766	1	study	Phase3	study/STIM_017.jpg
1667.455	1.034	1	study	Phase3	study/STIM_018.jpg
1670.499	0.796	1	study	Phase3	study/STIM_018.jpg
1673.216	0.591	1	study	Phase3	study/STIM_018.jpg
1676.541	1.21	1	study	Phase3	study/STIM_019.jpg
1680.014	0.912	1	study	Phase3	study/STIM_019.jpg
1682.999	1.433	1	study	Phase3	study/STIM_019.jpg
1686.61	0.971	1	study	Phase3	study/STIM_020.jpg
1691.354	0.973	1	study	Phase3	study/STIM_020.jpg
1695.165	1.188	1	study	Phase3	study/STIM_020.jpg
1698.603	1.223	1	study	Phase3	study/STIM_021.jpg
1703.031	0.897	1	study	Phase3	study/STIM_021.jpg
1706.696	1.017	1	study	Phase3	study/STIM_021.jpg
1710.853	1.161	1	study	Phase3	study/STIM_022.jpg
1714.006	0.788	1	study	Phase3	study/STIM_022.jpg
1717.738	1.35	1	study	Phase3	study/STIM_022.jpg
1722.61	0.864	0	study	Phase3	study/STIM_023.jpg
1726.804	1.336	1	study	Phase3	study/STIM_023.jpg
1730.691	1.108	1	study	Phase3	study/STIM_023.jpg
1735.497	1.176	1	study	Phase3	study/STIM_024.jpg
1740.109	1.113	1	study	Phase3	study/STIM_024.jpg
1743.714	0.549	1	study	Phase3	study/STIM_024.jpg
1746.922	1.163	1	study	Phase3	study/STIM_025.jpg
1751.951	1.27	1	study	Phase3	study/STIM_025.jpg
1756.353	0.683	1	study	Phase3	study/STIM_025.jpg
1759.166	1.198	1	study	Phase3	study/STIM_026.jpg
1763.991	1.158	1	study	Phase3	study/STIM_026.jpg
1768.807	0.992	1	study	Phase3	study/STIM_026.jpg
1773.595	1.396	1	study	Phase3	study/STIM_027.jpg
1778.623	0.956	0	study	Phase3	study/STIM_027.jpg
1783.328	1.264	1	study	Phase3	study/STIM_027.jpg
1787.155	0.898	1	study	Phase3	study/STIM_028.jpg
1790.311	0.636	1	study	Phase3	study/STIM_028.jpg
1793.576	1.193	1	study	Phase3	study/STIM_028.jpg
1797.08	0.89	1	study	Phase3	study/STIM_029.jpg
1801.194	1.389	1	study	Phase3	study/STIM_029.jpg
1804.887	1.31	1	study	Phase3	study/STIM_029.jpg
1809.305	1.381	1	test	Phase3	test/STIM_000.jpg
1813.42	1.308	1	test	Phase3	test/STIM_000.jpg
1817.789	0.951	1	test	Phase3	test/STIM_000.jpg
1820.798	1.222	1	test	Phase3	test/STIM_001.jpg
1823.907	0.963	1	test	Phase3	test/STIM_001.jpg
1827.621	0.916	1	test	Phase3	test/STIM_001.jpg
1831.547	0.621	1	test	Phase3	test/STIM_002.jpg
1834.447	1.412	1	test	Phase3	test/STIM_002.jpg
1838.094	1.284	1	test	Phase3	test/STIM_002.jpg
1842.547	0.994	1	test	Phase3	test/STIM_003.jpg
1846.437	0.931	1	test	Phase3	test/STIM_003.jpg
1850.984	1.409	1	test	Phase3	test/STIM_003.jpg
1855.987	1.333	1	test	Phase3	test/STIM_004.jpg
1860.471	0.694	1	test	Phase3	test/STIM_004.jpg
1863.604	1.512	1	test	Phase3	test/STIM_004.jpg
1868.102	1.421	1	test	Phase3	test/STIM_005.jpg
1872.173	1.388	1	test	Phase3	test/STIM_005.jpg
1877.211	0.818	1	test	Phase3	test/STIM_005.jpg
1881.576	1.408	1	test	Phase3	test/STIM_006.jpg
1886.404	1.17	1	test	Phase3	test/STIM_006.jpg
1890.822	0.953	1	test	Phase3	test/STIM_006.jpg
1894.473	1.057	1	test	Phase3	test/STIM_007.jpg
1897.878	1.299	1	test	Phase3	test/STIM_007.jpg
1902.468	0.953	1	test	Phase3	test/STIM_007.jpg
1906.44	0.828	1	test	Phase3	test/STIM_008.jpg
1909.456	0.977	1	test	Phase3	test/STIM_008.jpg
1912.362	1.118	1	test	Phase3	test/STIM_008.jpg
1916.688	1.452	1	test	Phase3	test/STIM_009.jpg
1920.973	0.78	1	test	Phase3	test/STIM_009.jpg
1924.434	0.707	1	test	Phase3	test/STIM_009.jpg
1928.753	1.061	1	test	Phase3	test/STIM_010.jpg
1931.81	1.4	1	test	Phase3	test/STIM_010.jpg
1935.373	0.85	1	test	Phase3	test/STIM_010.jpg
1938.934	0.693	1	test	Phase3	test/STIM_011.jpg
1942.424	1.254	0	test	Phase3	test/STIM_011.jpg
1945.809	1.032	1	test	Phase3	test/STIM_011.jpg
1949.766	1.062	1	test	Phase3	test/STIM_012.jpg
1953.503	0.632	1	test	Phase3	test/STIM_012.jpg
1956.933	1.375	1	test	Phase3	test/STIM_012.jpg
1961.299	1.236	1	test	Phase3	test/STIM_013.jpg
1964.988	1.266	1	test	Phase3	test/STIM_013.jpg
1968.751	1.445	1	test	Phase3	test/STIM_013.jpg
1973.48	1.129	1	test	Phase3	test/STIM_014.jpg
1977.722	0.997	1	test	Phase3	test/STIM_014.jpg
1982.412	0.814	1	test	Phase3	test/STIM_014.jpg
1985.606	1.04	1	test	Phase3	test/STIM_015.jpg
1988.895	1.009	1	test	Phase3	test/STIM_015.jpg
1992.065	1.451	1	test	Phase3	test/STIM_015.jpg
1996.308	1.101	1	test	Phase3	test/STIM_016.jpg
1999.69	0.675	1	test	Phase3	test/STIM_016.jpg
2004.132	1.088	1	test	Phase3	test/STIM_016.jpg
2007.341	0.865	1	test	Phase3	test/STIM_017.jpg
2010.18	0.863	1	test	Phase3	test/STIM_017.jpg
2013.919	1.424	1	test	Phase3	test/STIM_017.jpg
2017.248	1.122	1	test	Phase3	test/STIM_018.jpg
2022.1	1.08	1	test	Phase3	test/STIM_018.jpg
2025.09	1.066	1	test	Phase3	test/STIM_018.jpg
2028.96	0.955	1	test	Phase3	test/STIM_019.jpg
2033.662	1.276	1	test	Phase3	test/STIM_019.jpg
2037.846	1.366	1	test	Phase3	test/STIM_019.jpg
2041.449	1.16	1	test	Phase3	test/STIM_020.jpg
2044.893	1.42	1	test	Phase3	test/STIM_020.jpg
2048.207	0.99	1	test	Phase3	test/STIM_020.jpg
2051.351	1.432	0	test	Phase3	test/STIM_021.jpg
2056.057	0.992	0	test	Phase3	test/STIM_021.jpg
2059.335	0.77	1	test	Phase3	test/STIM_021.jpg
2062.148	1.322	0	test	Phase3	test/STIM_022.jpg
2066.155	0.792	1	test	Phase3	test/STIM_022.jpg
2070.065	0.706	1	test	Phase3	test/STIM_022.jpg
2073.297	0.857	1	test	Phase3	test/STIM_023.jpg
2077.902	0.918	1	test	Phase3	test/STIM_023.jpg
2082.184	0.94	1	test	Phase3	test/STIM_023.jpg
2087.004	1.007	1	test	Phase3	test/STIM_024.jpg
2091.544	0.703	1	test	Phase3	test/STIM_024.jpg
2095.575	1.355	0	test	Phase3	test/STIM_024.jpg
2099.873	1.041	1	test	Phase3	test/STIM_025.jpg
2103.738	1.408	1	test	Phase3	test/STIM_025.jpg
2107.645	0.723	1	test	Phase3	test/STIM_025.jpg
2111.745	1.311	1	test	Phase3	test/STIM_026.jpg
2116.159	1.168	1	test	Phase3	test/STIM_026.jpg
2120.754	1.228	1	test	Phase3	test/STIM_026.jpg
2123.848	1.11	1	test	Phase3	test/STIM_027.jpg
2127.513	1.473	1	test	Phase3	test/STIM_027.jpg
2132.446	1.166	1	test	Phase3	test/STIM_027.jpg
2136.263	1.138	1	test	Phase3	test/STIM_028.jpg
2140.748	0.98	1	test	Phase3	test/STIM_028.jpg
2144.868	0.768	1	test	Phase3	test/STIM_028.jpg
2148.026	1.393	1	test	Phase3	test/STIM_029.jpg
2151.477	1.133	1	test	Phase3	test/STIM_029.jpg
2154.654	1.149	1	test	Phase3	test/STIM_029.jpg
