onset	duration	response_time_ms	trial_type	learning_stage	stimulus	response_port
0.0	1.19	1189.9	study	Phase1	study/STIM_000.jpg	99
4.688	1.142	1142.4	study	Phase1	study/STIM_000.jpg	99
9.347	1.273	1273.1	study	Phase1	study/STIM_000.jpg	100
14.493	1.333	1332.9	study	Phase1	study/STIM_001.jpg	99
19.642	0.873	873.4	study	Phase1	study/STIM_001.jpg	100
23.341	1.207	1207.2	study	Phase1	study/STIM_001.jpg	100
28.42	0.997	996.9	study	Phase1	study/STIM_002.jpg	100
31.925	0.877	876.6	study	Phase1	study/STIM_002.jpg	99
35.257	1.207	1206.9	study	Phase1	study/STIM_002.jpg	99
39.492	1.769	1769.2	study	Phase1	study/STIM_003.jpg	100
44.449	1.323	1323.3	study	Phase1	study/STIM_003.jpg	99
49.154	0.958	958.0	study	Phase1	study/STIM_003.jpg	100
53.215	1.473	1472.8	study	Phase1	study/STIM_004.jpg	100
58.608	0.846	846.0	study	Phase1	study/STIM_004.jpg	99
62.47	1.125	1125.3	study	Phase1	study/STIM_004.jpg	99
66.991	1.611	1610.9	study	Phase1	study/STIM_005.jpg	100
71.995	0.833	833.2	study	Phase1	study/STIM_005.jpg	100
75.235	1.667	1667.4	study	Phase1	study/STIM_005.jpg	100
79.915	1.869	1868.7	study	Phase1	study/STIM_006.jpg	99
85.731	1.031	1030.6	study	Phase1	study/STIM_006.jpg	100
90.29	0.765	764.6	study	Phase1	study/STIM_006.jpg	100
94.068	1.384	1384.2	study	Phase1	study/STIM_007.jpg	100
99.264	0.988	987.8	study	Phase1	study/STIM_007.jpg	99
102.337	1.173	1173.3	study	Phase1	study/STIM_007.jpg	100
105.997	1.663	1663.4	study	Phase1	study/STIM_008.jpg	100
111.3	1.109	1109.3	study	Phase1	study/STIM_008.jpg	99
115.075	1.285	1285.2	study	Phase1	study/STIM_008.jpg	99
119.018	1.232	1231.7	study	Phase1	study/STIM_009.jpg	100
122.289	1.499	1499.4	study	Phase1	study/STIM_009.jpg	99
127.678	1.694	1693.9	study	Phase1	study/STIM_009.jpg	100
132.251	1.028	1027.9	study	Phase1	study/STIM_010.jpg	99
136.936	1.568	1567.5	study	Phase1	study/STIM_010.jpg	100
141.037	1.149	1148.7	study	Phase1	study/STIM_010.jpg	99
144.924	1.125	1125.1	study	Phase1	study/STIM_011.jpg	99
148.995	1.002	1001.9	study	Phase1	study/STIM_011.jpg	100
153.274	1.01	1009.5	study	Phase1	study/STIM_011.jpg	100
158.188	1.03	1030.1	study	Phase1	study/STIM_012.jpg	100
163.215	1.288	1288.3	study	Phase1	study/STIM_012.jpg	100
167.919	1.222	1221.5	study	Phase1	study/STIM_012.jpg	99
172.494	1.462	1462.5	study	Phase1	study/STIM_013.jpg	100
176.197	1.572	1571.5	study	Phase1	study/STIM_013.jpg	100
180.433	1.05	1050.2	study	Phase1	study/STIM_013.jpg	99
184.184	1.653	1653.1	study	Phase1	study/STIM_014.jpg	100
188.024	0.937	936.9	study	Phase1	study/STIM_014.jpg	99
191.864	0.996	995.7	study	Phase1	study/STIM_014.jpg	99
196.336	1.757	1757.3	study	Phase1	study/STIM_015.jpg	100
201.861	1.711	1710.7	study	Phase1	study/STIM_015.jpg	100
205.582	1.202	1202.4	study	Phase1	study/STIM_015.jpg	100
210.344	1.069	1069.0	study	Phase1	study/STIM_016.jpg	99
214.333	1.465	1464.9	study	Phase1	study/STIM_016.jpg	99
218.713	0.787	786.9	study	Phase1	study/STIM_016.jpg	100
223.489	1.679	1678.7	study	Phase1	study/STIM_017.jpg	100
228.564	1.211	1211.3	study	Phase1	study/STIM_017.jpg	100
232.605	1.388	1388.4	study	Phase1	study/STIM_017.jpg	99
236.127	1.616	1616.3	study	Phase1	study/STIM_018.jpg	99
241.126	1.185	1184.7	study	Phase1	study/STIM_018.jpg	99
245.243	1.346	1345.6	study	Phase1	study/STIM_018.jpg	100
248.621	1.502	1502.4	study	Phase1	study/STIM_019.jpg	99
252.225	0.985	984.7	study	Phase1	study/STIM_019.jpg	99
255.736	1.342	1342.3	study	Phase1	study/STIM_019.jpg	100
259.519	1.481	1480.8	study	Phase1	study/STIM_020.jpg	100
264.373	1.032	1031.6	study	Phase1	study/STIM_020.jpg	99
267.964	1.694	1694.2	study	Phase1	study/STIM_020.jpg	99
271.882	1.835	1835.2	study	Phase1	study/STIM_021.jpg	99
276.821	1.124	1124.0	study	Phase1	study/STIM_021.jpg	100
281.254	0.956	955.6	study	Phase1	study/STIM_021.jpg	99
285.537	1.402	1402.0	study	Phase1	study/STIM_022.jpg	100
289.51	1.712	1711.5	study	Phase1	study/STIM_022.jpg	99
293.905	0.894	893.7	study	Phase1	study/STIM_022.jpg	99
297.253	1.795	1794.7	study	Phase1	study/STIM_023.jpg	99
302.395	0.865	864.6	study	Phase1	study/STIM_023.jpg	99
307.031	1.23	1229.9	study	Phase1	study/STIM_023.jpg	100
311.315	1.739	1739.1	study	Phase1	study/STIM_024.jpg	99
315.661	1.536	1536.0	study	Phase1	study/STIM_024.jpg	100
319.833	1.485	1485.0	study	Phase1	study/STIM_024.jpg	100
324.458	1.294	1294.0	study	Phase1	study/STIM_025.jpg	100
329.097	1.781	1780.6	study	Phase1	study/STIM_025.jpg	100
333.148	1.092	1092.5	study	Phase1	study/STIM_025.jpg	99
337.75	1.335	1334.6	study	Phase1	study/STIM_026.jpg	99
341.823	1.693	1693.0	study	Phase1	study/STIM_026.jpg	99
345.682	0.891	890.8	study	Phase1	study/STIM_026.jpg	99
349.402	0.86	859.5	study	Phase1	study/STIM_027.jpg	99
353.272	1.58	1579.6	study	Phase1	study/STIM_027.jpg	99
357.188	1.59	1590.5	study	Phase1	study/STIM_027.jpg	99
361.145	1.235	1235.1	study	Phase1	study/STIM_028.jpg	99
366.209	1.745	1744.7	study	Phase1	study/STIM_028.jpg	99
370.417	1.442	1441.7	study	Phase1	study/STIM_028.jpg	99
374.898	1.186	1186.1	study	Phase1	study/STIM_029.jpg	99
379.158	0.8	800.4	study	Phase1	study/STIM_029.jpg	99
383.103	1.236	1236.1	study	Phase1	study/STIM_029.jpg	99
386.69	0.706	705.8	test	Phase1	test/STIM_000.jpg	100
391.134	1.055	1055.4	test	Phase1	test/STIM_000.jpg	100
395.705	0.738	737.9	test	Phase1	test/STIM_000.jpg	100
400.075	0.84	839.6	test	Phase1	test/STIM_001.jpg	99
404.142	0.778	778.4	test	Phase1	test/STIM_001.jpg	99
408.118	1.034	1034.4	test	Phase1	test/STIM_001.jpg	100
411.611	1.024	1024.1	test	Phase1	test/STIM_002.jpg	99
415.05	0.851	851.0	test	Phase1	test/STIM_002.jpg	100
418.659	1.337	1337.2	test	Phase1	test/STIM_002.jpg	99
423.32	1.178	1178.0	test	Phase1	test/STIM_003.jpg	100
428.048	1.253	1252.6	test	Phase1	test/STIM_003.jpg	100
431.689	1.232	1232.5	test	Phase1	test/STIM_003.jpg	99
436.348	1.25	1249.9	test	Phase1	test/STIM_004.jpg	99
440.751	1.126	1125.6	test	Phase1	test/STIM_004.jpg	99
444.105	1.023	1023.4	test	Phase1	test/STIM_004.jpg	99
448.72	0.77	769.9	test	Phase1	test/STIM_005.jpg	100
453.072	1.164	1164.1	test	Phase1	test/STIM_005.jpg	99
456.878	0.937	936.8	test	Phase1	test/STIM_005.jpg	99
460.214	1.117	1117.0	test	Phase1	test/STIM_006.jpg	99
465.223	0.754	754.0	test	Phase1	test/STIM_006.jpg	100
468.017	1.057	1057.0	test	Phase1	test/STIM_006.jpg	100
471.252	0.953	952.6	test	Phase1	test/STIM_007.jpg	99
475.108	0.65	650.0	test	Phase1	test/STIM_007.jpg	100
477.902	0.724	724.1	test	Phase1	test/STIM_007.jpg	100
481.507	0.867	867.3	test	Phase1	test/STIM_008.jpg	99
486.094	1.09	1090.5	test	Phase1	test/STIM_008.jpg	100
489.807	1.285	1285.0	test	Phase1	test/STIM_008.jpg	99
494.393	1.304	1303.8	test	Phase1	test/STIM_009.jpg	100
498.108	1.267	1267.1	test	Phase1	test/STIM_009.jpg	99
501.52	0.758	758.4	test	Phase1	test/STIM_009.jpg	100
505.297	1.206	1206.1	test	Phase1	test/STIM_010.jpg	99
509.938	1.36	1360.4	test	Phase1	test/STIM_010.jpg	100
514.383	1.194	1193.9	test	Phase1	test/STIM_010.jpg	100
519.141	1.097	1097.1	test	Phase1	test/STIM_011.jpg	99
523.204	0.96	959.8	test	Phase1	test/STIM_011.jpg	99
527.57	0.989	988.8	test	Phase1	test/STIM_011.jpg	100
532.452	1.126	1126.3	test	Phase1	test/STIM_012.jpg	99
535.934	1.363	1363.4	test	Phase1	test/STIM_012.jpg	100
540.62	1.002	1001.9	test	Phase1	test/STIM_012.jpg	99
544.539	1.271	1270.9	test	Phase1	test/STIM_013.jpg	99
549.799	1.083	1083.1	test	Phase1	test/STIM_013.jpg	99
553.795	0.921	921.2	test	Phase1	test/STIM_013.jpg	100
557.311	0.972	971.5	test	Phase1	test/STIM_014.jpg	99
560.461	0.766	766.3	test	Phase1	test/STIM_014.jpg	99
563.429	0.84	839.9	test	Phase1	test/STIM_014.jpg	99
566.709	0.87	870.1	test	Phase1	test/STIM_015.jpg	99
571.132	0.807	807.3	test	Phase1	test/STIM_015.jpg	99
574.436	0.675	675.4	test	Phase1	test/STIM_015.jpg	99
578.56	0.786	786.0	test	Phase1	test/STIM_016.jpg	99
581.807	1.171	1171.3	test	Phase1	test/STIM_016.jpg	99
586.905	0.904	903.8	test	Phase1	test/STIM_016.jpg	99
591.376	0.866	865.6	test	Phase1	test/STIM_017.jpg	100
595.058	1.09	1090.1	test	Phase1	test/STIM_017.jpg	99
598.918	1.292	1292.0	test	Phase1	test/STIM_017.jpg	100
602.439	1.113	1113.1	test	Phase1	test/STIM_018.jpg	99
606.265	0.644	644.1	test	Phase1	test/STIM_018.jpg	99
609.374	0.969	968.6	test	Phase1	test/STIM_018.jpg	100
613.45	0.945	945.3	test	Phase1	test/STIM_019.jpg	100
617.257	0.896	895.7	test	Phase1	test/STIM_019.jpg	100
621.84	0.705	704.6	test	Phase1	test/STIM_019.jpg	99
626.535	1.083	1083.2	test	Phase1	test/STIM_020.jpg	100
630.96	0.766	766.3	test	Phase1	test/STIM_020.jpg	99
634.779	0.829	829.4	test	Phase1	test/STIM_020.jpg	100
639.042	0.714	714.3	test	Phase1	test/STIM_021.jpg	99
641.997	0.933	932.8	test	Phase1	test/STIM_021.jpg	99
646.495	0.701	701.0	test	Phase1	test/STIM_021.jpg	100
649.897	1.302	1301.8	test	Phase1	test/STIM_022.jpg	99
654.999	1.258	1258.4	test	Phase1	test/STIM_022.jpg	100
659.654	1.276	1275.9	test	Phase1	test/STIM_022.jpg	99
663.899	0.802	802.4	test	Phase1	test/STIM_023.jpg	100
667.408	1.157	1156.9	test	Phase1	test/STIM_023.jpg	100
671.586	0.974	973.5	test	Phase1	test/STIM_023.jpg	100
675.061	1.153	1153.0	test	Phase1	test/STIM_024.jpg	99
680.016	1.076	1076.3	test	Phase1	test/STIM_024.jpg	99
684.928	0.736	736.3	test	Phase1	test/STIM_024.jpg	99
688.017	1.32	1320.0	test	Phase1	test/STIM_025.jpg	100
691.712	0.754	754.2	test	Phase1	test/STIM_025.jpg	99
695.703	0.727	727.0	test	Phase1	test/STIM_025.jpg	99
700.083	0.739	738.7	test	Phase1	test/STIM_026.jpg	99
703.087	0.765	765.3	test	Phase1	test/STIM_026.jpg	100
706.527	0.706	706.4	test	Phase1	test/STIM_026.jpg	99
710.408	0.854	853.9	test	Phase1	test/STIM_027.jpg	99
715.085	0.925	924.7	test	Phase1	test/STIM_027.jpg	99
719.73	0.646	645.5	test	Phase1	test/STIM_027.jpg	99
723.055	0.816	816.4	test	Phase1	test/STIM_028.jpg	99
727.33	1.134	1134.5	test	Phase1	test/STIM_028.jpg	100
731.65	1.067	1066.7	test	Phase1	test/STIM_028.jpg	100
736.277	0.894	894.5	test	Phase1	test/STIM_029.jpg	100
740.951	1.227	1227.2	test	Phase1	test/STIM_029.jpg	100
746.03	1.344	1344.5	test	Phase1	test/STIM_029.jpg	100
749.726	1.38	1379.8	study	Phase2	study/STIM_000.jpg	100
753.594	0.768	767.9	study	Phase2	study/STIM_000.jpg	99
757.169	1.072	1071.5	study	Phase2	study/STIM_000.jpg	99
761.973	0.843	842.6	study	Phase2	study/STIM_001.jpg	100
764.881	1.229	1229.3	study	Phase2	study/STIM_001.jpg	100
768.203	1.1	1100.1	study	Phase2	study/STIM_001.jpg	99
772.619	1.031	1031.1	study	Phase2	study/STIM_002.jpg	100
777.171	1.294	1293.6	study	Phase2	study/STIM_002.jpg	100
781.913	1.374	1373.8	study	Phase2	study/STIM_002.jpg	100
786.351	1.015	1015.2	study	Phase2	study/STIM_003.jpg	100
790.896	1.42	1419.8	study	Phase2	study/STIM_003.jpg	100
796.275	1.393	1392.8	study	Phase2	study/STIM_003.jpg	100
801.11	0.73	729.6	study	Phase2	study/STIM_004.jpg	100
804.657	1.369	1369.0	study	Phase2	study/STIM_004.jpg	99
808.454	0.993	993.3	study	Phase2	study/STIM_004.jpg	99
811.798	1.136	1136.1	study	Phase2	study/STIM_005.jpg	99
815.178	0.886	885.8	study	Phase2	study/STIM_005.jpg	99
818.281	0.704	704.5	study	Phase2	study/STIM_005.jpg	100
821.31	1.059	1058.8	study	Phase2	study/STIM_006.jpg	99
824.665	1.274	1274.2	study	Phase2	study/STIM_006.jpg	99
829.494	1.365	1365.3	study	Phase2	study/STIM_006.jpg	100
834.623	1.375	1374.7	study	Phase2	study/STIM_007.jpg	100
838.458	1.427	1426.8	study	Phase2	study/STIM_007.jpg	100
842.965	0.894	894.1	study	Phase2	study/STIM_007.jpg	99
846.19	1.042	1042.0	study	Phase2	study/STIM_008.jpg	100
851.108	0.953	953.3	study	Phase2	study/STIM_008.jpg	100
854.183	0.71	710.0	study	Phase2	study/STIM_008.jpg	100
858.186	1.26	1259.9	study	Phase2	study/STIM_009.jpg	99
862.705	0.885	884.7	study	Phase2	study/STIM_009.jpg	100
866.082	1.276	1275.6	study	Phase2	study/STIM_009.jpg	99
869.867	1.231	1231.0	study	Phase2	study/STIM_010.jpg	99
873.847	1.095	1094.8	study	Phase2	study/STIM_010.jpg	99
877.708	0.664	664.3	study	Phase2	study/STIM_010.jpg	99
881.605	1.32	1320.1	study	Phase2	study/STIM_011.jpg	99
885.279	1.131	1131.1	study	Phase2	study/STIM_011.jpg	100
890.047	0.649	648.7	study	Phase2	study/STIM_011.jpg	100
893.624	1.239	1239.1	study	Phase2	study/STIM_012.jpg	100
897.64	1.154	1154.3	study	Phase2	study/STIM_012.jpg	99
901.575	1.161	1161.1	study	Phase2	study/STIM_012.jpg	99
905.25	1.39	1390.3	study	Phase2	study/STIM_013.jpg	100
909.016	1.352	1352.0	study	Phase2	study/STIM_013.jpg	100
913.453	0.76	760.5	study	Phase2	study/STIM_013.jpg	100
918.106	1.209	1208.6	study	Phase2	study/STIM_014.jpg	99
922.492	0.904	903.7	study	Phase2	study/STIM_014.jpg	100
925.741	0.844	843.7	study	Phase2	study/STIM_014.jpg	99
928.684	1.601	1600.6	study	Phase2	study/STIM_015.jpg	99
933.68	0.741	740.9	study	Phase2	study/STIM_015.jpg	100
937.492	0.837	837.0	study	Phase2	study/STIM_015.jpg	100
942.027	0.921	921.4	study	Phase2	study/STIM_016.jpg	99
945.848	1.099	1099.2	study	Phase2	study/STIM_016.jpg	100
950.518	0.633	633.2	study	Phase2	study/STIM_016.jpg	99
953.868	0.899	898.6	study	Phase2	study/STIM_017.jpg	100
958.147	1.165	1165.3	study	Phase2	study/STIM_017.jpg	99
962.695	1.328	1328.3	study	Phase2	study/STIM_017.jpg	100
967.359	1.539	1538.9	study	Phase2	study/STIM_018.jpg	99
971.312	0.947	947.1	study	Phase2	study/STIM_018.jpg	100
974.969	1.199	1199.3	study	Phase2	study/STIM_018.jpg	100
978.195	0.816	816.2	study	Phase2	study/STIM_019.jpg	100
981.229	0.713	713.4	study	Phase2	study/STIM_019.jpg	100
985.38	0.893	893.3	study	Phase2	study/STIM_019.jpg	99
988.965	0.83	829.7	study	Phase2	study/STIM_020.jpg	99
992.781	0.733	733.3	study	Phase2	study/STIM_020.jpg	99
996.533	0.953	952.8	study	Phase2	study/STIM_020.jpg	99
1001.353	1.004	1003.7	study	Phase2	study/STIM_021.jpg	99
1005.836	0.881	881.4	study	Phase2	study/STIM_021.jpg	100
1009.272	0.72	719.9	study	Phase2	study/STIM_021.jpg	99
1013.052	1.376	1376.5	study	Phase2	study/STIM_022.jpg	100
1018.244	1.366	1365.7	study	Phase2	study/STIM_022.jpg	100
1023.206	1.088	1087.9	study	Phase2	study/STIM_022.jpg	99
1027.599	0.958	958.3	study	Phase2	study/STIM_023.jpg	99
1031.916	0.748	748.4	study	Phase2	study/STIM_023.jpg	100
1035.611	1.377	1377.4	study	Phase2	study/STIM_023.jpg	99
1040.675	1.092	1091.9	study	Phase2	study/STIM_024.jpg	100
1044.211	0.914	913.8	study	Phase2	study/STIM_024.jpg	99
1048.603	0.973	972.9	study	Phase2	study/STIM_024.jpg	99
1052.85	0.996	995.7	study	Phase2	study/STIM_025.jpg	100
1057.423	0.923	923.1	study	Phase2	study/STIM_025.jpg	100
1061.805	0.68	680.4	study	Phase2	study/STIM_025.jpg	99
1066.182	1.197	1197.4	study	Phase2	study/STIM_026.jpg	99
1071.096	1.353	1353.3	study	Phase2	study/STIM_026.jpg	99
1075.16	0.785	785.4	study	Phase2	study/STIM_026.jpg	99
1079.055	0.755	754.7	study	Phase2	study/STIM_027.jpg	99
1082.884	1.08	1079.6	study	Phase2	study/STIM_027.jpg	99
1086.388	0.753	753.3	study	Phase2	study/STIM_027.jpg	100
1091.013	1.481	1480.7	study	Phase2	study/STIM_028.jpg	99
1095.49	1.415	1415.4	study	Phase2	study/STIM_028.jpg	99
1099.682	0.771	771.2	study	Phase2	study/STIM_028.jpg	100
1103.637	1.039	1038.7	study	Phase2	study/STIM_029.jpg	99
1108.017	1.26	1260.2	study	Phase2	study/STIM_029.jpg	99
1112.42	0.931	930.8	study	Phase2	study/STIM_029.jpg	100
1116.055	1.164	1164.1	test	Phase2	test/STIM_000.jpg	100
1119.753	1.113	1112.6	test	Phase2	test/STIM_000.jpg	100
1124.398	0.959	959.3	test	Phase2	test/STIM_000.jpg	99
1128.196	0.956	956.4	test	Phase2	test/STIM_001.jpg	99
1131.571	0.788	787.8	test	Phase2	test/STIM_001.jpg	100
1135.359	0.809	808.8	test	Phase2	test/STIM_001.jpg	99
1139.999	1.354	1354.0	test	Phase2	test/STIM_002.jpg	100
1144.802	1.276	1276.2	test	Phase2	test/STIM_002.jpg	99
1149.722	1.062	1062.1	test	Phase2	test/STIM_002.jpg	100
1153.955	1.024	1024.1	test	Phase2	test/STIM_003.jpg	99
1157.38	0.784	783.9	test	Phase2	test/STIM_003.jpg	99
1161.334	1.163	1162.6	test	Phase2	test/STIM_003.jpg	99
1165.593	0.85	850.4	test	Phase2	test/STIM_004.jpg	99
1170.172	1.261	1261.1	test	Phase2	test/STIM_004.jpg	100
1173.68	1.344	1344.2	test	Phase2	test/STIM_004.jpg	99
1178.963	1.136	1135.9	test	Phase2	test/STIM_005.jpg	100
1183.54	1.206	1206.3	test	Phase2	test/STIM_005.jpg	100
1188.589	0.822	821.8	test	Phase2	test/STIM_005.jpg	99
1192.574	1.298	1298.1	test	Phase2	test/STIM_006.jpg	100
1196.614	0.813	812.9	test	Phase2	test/STIM_006.jpg	99
1200.776	0.668	668.5	test	Phase2	test/STIM_006.jpg	99
1203.653	0.922	922.1	test	Phase2	test/STIM_007.jpg	100
1207.415	0.661	661.4	test	Phase2	test/STIM_007.jpg	100
1211.51	0.98	980.5	test	Phase2	test/STIM_007.jpg	100
1215.98	1.224	1223.8	test	Phase2	test/STIM_008.jpg	99
1220.55	1.06	1059.8	test	Phase2	test/STIM_008.jpg	100
1223.99	1.259	1258.8	test	Phase2	test/STIM_008.jpg	99
1228.317	1.221	1220.9	test	Phase2	test/STIM_009.jpg	99
1231.584	0.909	909.3	test	Phase2	test/STIM_009.jpg	99
1234.587	0.706	705.7	test	Phase2	test/STIM_009.jpg	100
1237.993	1.017	1016.6	test	Phase2	test/STIM_010.jpg	99
1241.084	1.029	1029.3	test	Phase2	test/STIM_010.jpg	100
1245.524	1.321	1321.1	test	Phase2	test/STIM_010.jpg	100
1249.731	1.105	1105.4	test	Phase2	test/STIM_011.jpg	99
1253.191	0.978	977.6	test	Phase2	test/STIM_011.jpg	99
1257.205	1.219	1219.0	test	Phase2	test/STIM_011.jpg	99
1261.401	0.68	680.3	test	Phase2	test/STIM_012.jpg	100
1264.35	1.164	1163.6	test	Phase2	test/STIM_012.jpg	100
1268.139	1.008	1007.5	test	Phase2	test/STIM_012.jpg	100
1271.318	0.749	749.1	test	Phase2	test/STIM_013.jpg	99
1274.921	0.912	911.5	test	Phase2	test/STIM_013.jpg	100
1278.294	0.696	695.9	test	Phase2	test/STIM_013.jpg	99
1281.264	1.094	1094.3	test	Phase2	test/STIM_014.jpg	99
1284.376	1.17	1169.5	test	Phase2	test/STIM_014.jpg	100
1289.242	0.922	921.5	test	Phase2	test/STIM_014.jpg	100
1293.983	1.24	1240.2	test	Phase2	test/STIM_015.jpg	100
1299.192	0.797	797.3	test	Phase2	test/STIM_015.jpg	99
1302.764	0.692	692.2	test	Phase2	test/STIM_015.jpg	100
1306.949	0.663	663.4	test	Phase2	test/STIM_016.jpg	99
1309.882	1.206	1205.6	test	Phase2	test/STIM_016.jpg	100
1314.2	0.876	875.6	test	Phase2	test/STIM_016.jpg	100
1317.651	0.646	645.5	test	Phase2	test/STIM_017.jpg	99
1320.519	1.204	1203.5	test	Phase2	test/STIM_017.jpg	99
1324.634	0.815	815.3	test	Phase2	test/STIM_017.jpg	99
1327.545	0.641	641.3	test	Phase2	test/STIM_018.jpg	100
1331.979	0.796	796.4	test	Phase2	test/STIM_018.jpg	100
1335.835	0.996	995.6	test	Phase2	test/STIM_018.jpg	100
1339.224	1.262	1262.5	test	Phase2	test/STIM_019.jpg	99
1343.53	1.102	1102.5	test	Phase2	test/STIM_019.jpg	100
1346.737	0.696	695.7	test	Phase2	test/STIM_019.jpg	99
1349.434	0.827	827.4	test	Phase2	test/STIM_020.jpg	100
1353.02	0.718	718.5	test	Phase2	test/STIM_020.jpg	99
1357.613	1.276	1275.8	test	Phase2	test/STIM_020.jpg	99
1362.064	1.086	1085.6	test	Phase2	test/STIM_021.jpg	99
1365.43	0.76	760.0	test	Phase2	test/STIM_021.jpg	100
1369.457	0.888	888.1	test	Phase2	test/STIM_021.jpg	99
1373.398	0.71	710.5	test	Phase2	test/STIM_022.jpg	99
1377.793	0.665	664.8	test	Phase2	test/STIM_022.jpg	99
1380.909	0.736	735.7	test	Phase2	test/STIM_022.jpg	99
1383.826	0.7	699.6	test	Phase2	test/STIM_023.jpg	99
1387.614	0.914	914.1	test	Phase2	test/STIM_023.jpg	99
1391.445	0.821	821.4	test	Phase2	test/STIM_023.jpg	99
1396.136	1.338	1337.5	test	Phase2	test/STIM_024.jpg	100
1401.34	0.957	957.2	test	Phase2	test/STIM_024.jpg	100
1405.007	1.189	1188.6	test	Phase2	test/STIM_024.jpg	100
1408.205	1.15	1150.4	test	Phase2	test/STIM_025.jpg	99
1412.833	1.095	1094.8	test	Phase2	test/STIM_025.jpg	99
1417.232	1.345	1345.3	test	Phase2	test/STIM_025.jpg	100
1420.988	0.762	762.3	test	Phase2	test/STIM_026.jpg	100
1425.158	1.228	1228.2	test	Phase2	test/STIM_026.jpg	99
1430.348	1.117	1117.1	test	Phase2	test/STIM_026.jpg	100
1434.067	1.179	1178.7	test	Phase2	test/STIM_027.jpg	100
1437.956	0.718	717.6	test	Phase2	test/STIM_027.jpg	100
1441.648	1.156	1155.8	test	Phase2	test/STIM_027.jpg	100
1445.704	1.343	1343.2	test	Phase2	test/STIM_028.jpg	100
1450.201	1.237	1237.0	test	Phase2	test/STIM_028.jpg	99
1454.471	1.23	1230.4	test	Phase2	test/STIM_028.jpg	100
1458.873	0.676	675.6	test	Phase2	test/STIM_029.jpg	100
1461.564	1.005	1005.3	test	Phase2	test/STIM_029.jpg	99
1464.739	0.798	798.2	test	Phase2	test/STIM_029.jpg	99
1469.331	0.711	710.9	study	Phase3	study/STIM_000.jpg	100
1472.4	1.039	1039.3	study	Phase3	study/STIM_000.jpg	99
1476.786	1.145	1144.9	study	Phase3	study/STIM_000.jpg	99
1479.986	0.977	976.6	study	Phase3	study/STIM_001.jpg	100
1484.115	0.703	702.7	study	Phase3	study/STIM_001.jpg	99
1487.81	0.677	677.0	study	Phase3	study/STIM_001.jpg	100
1491.638	1.287	1287.3	study	Phase3	study/STIM_002.jpg	99
1495.86	0.825	824.8	study	Phase3	study/STIM_002.jpg	100
1499.756	1.026	1026.1	study	Phase3	study/STIM_002.jpg	99
1504.406	0.72	720.3	study	Phase3	study/STIM_003.jpg	100
1507.365	1.031	1031.2	study	Phase3	study/STIM_003.jpg	99
1511.174	0.976	975.7	study	Phase3	study/STIM_003.jpg	99
1514.953	0.614	613.8	study	Phase3	study/STIM_004.jpg	99
1517.748	1.196	1196.2	study	Phase3	study/STIM_004.jpg	100
1522.415	0.839	838.6	study	Phase3	study/STIM_004.jpg	100
1525.548	0.848	847.5	study	Phase3	study/STIM_005.jpg	99
1528.731	0.991	991.3	study	Phase3	study/STIM_005.jpg	99
1533.492	0.775	775.0	study	Phase3	study/STIM_005.jpg	100
1537.054	0.758	758.0	study	Phase3	study/STIM_006.jpg	100
1540.909	0.762	762.0	study	Phase3	study/STIM_006.jpg	100
1544.499	0.938	937.7	study	Phase3	study/STIM_006.jpg	100
1547.574	0.648	648.1	study	Phase3	study/STIM_007.jpg	100
1551.826	1.133	1132.9	study	Phase3	study/STIM_007.jpg	100
1555.477	1.278	1277.8	study	Phase3	study/STIM_007.jpg	100
1559.848	0.998	997.6	study	Phase3	study/STIM_008.jpg	99
1564.276	0.823	823.3	study	Phase3	study/STIM_008.jpg	100
1567.263	1.318	1317.9	study	Phase3	study/STIM_008.jpg	99
1571.648	0.646	645.6	study	Phase3	study/STIM_009.jpg	100
1575.416	1.122	1121.9	study	Phase3	study/STIM_009.jpg	100
1580.465	0.778	778.1	study	Phase3	study/STIM_009.jpg	99
1584.674	0.632	632.5	study	Phase3	study/STIM_010.jpg	100
1589.303	0.694	694.5	study	Phase3	study/STIM_010.jpg	100
1593.158	1.149	1148.7	study	Phase3	study/STIM_010.jpg	99
1596.829	0.926	925.8	study	Phase3	study/STIM_011.jpg	100
1600.399	0.974	974.4	study	Phase3	study/STIM_011.jpg	100
1604.417	1.085	1085.3	study	Phase3	study/STIM_011.jpg	100
1607.894	0.864	864.1	study	Phase3	study/STIM_012.jpg	100
1611.466	0.847	847.1	study	Phase3	study/STIM_012.jpg	99
1615.971	0.894	893.6	study	Phase3	study/STIM_012.jpg	100
1620.177	1.263	1263.4	study	Phase3	study/STIM_013.jpg	100
1623.505	0.918	917.6	study	Phase3	study/STIM_013.jpg	99
1627.085	0.708	707.7	study	Phase3	study/STIM_013.jpg	100
1630.527	1.144	1144.4	study	Phase3	study/STIM_014.jpg	99
1634.753	0.672	671.5	study	Phase3	study/STIM_014.jpg	100
1638.841	0.919	919.1	study	Phase3	study/STIM_014.jpg	99
1643.247	1.173	1173.1	study	Phase3	study/STIM_015.jpg	100
1647.538	1.052	1051.8	study	Phase3	study/STIM_015.jpg	99
1652.433	0.704	703.5	study	Phase3	study/STIM_015.jpg	100
1656.124	0.752	752.5	study	Phase3	study/STIM_016.jpg	99
1660.463	0.794	793.6	study	Phase3	study/STIM_016.jpg	99
1663.753	0.793	793.4	study	Phase3	study/STIM_016.jpg	99
1668.351	1.186	1185.6	study	Phase3	study/STIM_017.jpg	99
1671.757	0.982	982.2	study	Phase3	study/STIM_017.jpg	99
1675.944	1.036	1035.7	study	Phase3	study/STIM_017.jpg	99
1679.599	0.625	624.7	study	Phase3	study/STIM_018.jpg	99
1683.656	0.865	864.6	study	Phase3	study/STIM_018.jpg	100
1688.494	1.121	1120.6	study	Phase3	study/STIM_018.jpg	99
1692.377	0.997	996.8	study	Phase3	study/STIM_019.jpg	100
1696.21	0.762	761.7	study	Phase3	study/STIM_019.jpg	100
1700.138	0.717	717.4	study	Phase3	study/STIM_019.jpg	99
1703.253	0.906	905.5	study	Phase3	study/STIM_020.jpg	100
1706.533	0.946	946.2	study	Phase3	study/STIM_020.jpg	99
1709.627	0.682	682.5	study	Phase3	study/STIM_020.jpg	100
1712.469	1.096	1096.2	study	Phase3	study/STIM_021.jpg	100
1716.984	1.023	1023.4	study	Phase3	study/STIM_021.jpg	99
1720.783	0.6	600.2	study	Phase3	study/STIM_021.jpg	100
1725.205	1.301	1301.0	study	Phase3	study/STIM_022.jpg	100
1730.344	0.708	707.6	study	Phase3	study/STIM_022.jpg	100
1734.559	0.879	879.4	study	Phase3	study/STIM_022.jpg	99
1738.794	1.272	1272.0	study	Phase3	study/STIM_023.jpg	99
1743.095	1.153	1153.3	study	Phase3	study/STIM_023.jpg	100
1746.971	1.276	1275.5	study	Phase3	study/STIM_023.jpg	99
1752.051	0.785	785.3	study	Phase3	study/STIM_024.jpg	99
1755.686	0.892	892.5	study	Phase3	study/STIM_024.jpg	100
1759.157	1.172	1172.5	study	Phase3	study/STIM_024.jpg	100
1762.819	1.182	1182.2	study	Phase3	study/STIM_025.jpg	100
1766.849	1.294	1293.5	study	Phase3	study/STIM_025.jpg	100
1770.248	0.618	618.2	study	Phase3	study/STIM_025.jpg	100
1774.24	1.048	1048.5	study	Phase3	study/STIM_026.jpg	99
1778.649	1.14	1140.4	study	Phase3	study/STIM_026.jpg	99
1782.266	0.686	686.5	study	Phase3	study/STIM_026.jpg	100
1785.461	0.774	774.4	study	Phase3	study/STIM_027.jpg	99
1790.053	0.94	940.3	study	Phase3	study/STIM_027.jpg	100
1793.348	0.912	912.0	study	Phase3	study/STIM_027.jpg	100
1797.165	1.318	1318.3	study	Phase3	study/STIM_028.jpg	100
1801.383	1.311	1311.1	study	Phase3	study/STIM_028.jpg	100
1806.072	0.998	998.2	study	Phase3	study/STIM_028.jpg	100
1810.058	0.972	971.6	study	Phase3	study/STIM_029.jpg	100
1814.43	1.07	1069.6	study	Phase3	study/STIM_029.jpg	99
1818.395	0.752	752.4	study	Phase3	study/STIM_029.jpg	99
1822.918	1.128	1127.6	test	Phase3	test/STIM_000.jpg	100
1827.341	1.226	1226.3	test	Phase3	test/STIM_000.jpg	99
1830.767	1.01	1010.4	test	Phase3	test/STIM_000.jpg	100
1833.96	1.293	1292.8	test	Phase3	test/STIM_001.jpg	99
1837.434	1.022	1022.5	test	Phase3	test/STIM_001.jpg	99
1841.535	0.944	944.4	test	Phase3	test/STIM_001.jpg	99
1846.454	0.79	789.9	test	Phase3	test/STIM_002.jpg	99
1849.772	0.949	949.3	test	Phase3	test/STIM_002.jpg	100
1853.723	0.65	650.4	test	Phase3	test/STIM_002.jpg	100
1857.53	0.703	703.4	test	Phase3	test/STIM_003.jpg	99
1861.787	0.954	953.6	test	Phase3	test/STIM_003.jpg	99
1866.433	0.791	790.6	test	Phase3	test/STIM_003.jpg	99
1869.876	0.853	853.3	test	Phase3	test/STIM_004.jpg	99
1874.001	1.268	1268.0	test	Phase3	test/STIM_004.jpg	99
1877.904	1.232	1232.0	test	Phase3	test/STIM_004.jpg	100
1881.398	0.921	921.0	test	Phase3	test/STIM_005.jpg	99
1885.568	1.233	1233.1	test	Phase3	test/STIM_005.jpg	100
1889.284	0.698	698.1	test	Phase3	test/STIM_005.jpg	100
1892.075	0.861	861.2	test	Phase3	test/STIM_006.jpg	100
1895.288	1.036	1036.5	test	Phase3	test/STIM_006.jpg	100
1900.083	0.792	792.0	test	Phase3	test/STIM_006.jpg	99
1904.498	1.136	1135.9	test	Phase3	test/STIM_007.jpg	100
1908.699	1.168	1168.1	test	Phase3	test/STIM_007.jpg	99
1912.9	0.914	914.1	test	Phase3	test/STIM_007.jpg	100
1916.118	1.276	1276.4	test	Phase3	test/STIM_008.jpg	99
1920.601	1.306	1306.0	test	Phase3	test/STIM_008.jpg	99
1924.329	1.228	1228.4	test	Phase3	test/STIM_008.jpg	100
1928.224	0.826	825.6	test	Phase3	test/STIM_009.jpg	99
1932.922	0.846	845.6	test	Phase3	test/STIM_009.jpg	99
1935.909	1.174	1173.6	test	Phase3	test/STIM_009.jpg	100
1939.548	1.28	1279.6	test	Phase3	test/STIM_010.jpg	99
1943.355	1.063	1063.0	test	Phase3	test/STIM_010.jpg	99
1947.085	1.111	1110.7	test	Phase3	test/STIM_010.jpg	100
1951.626	0.904	904.0	test	Phase3	test/STIM_011.jpg	99
1955.86	0.838	838.0	test	Phase3	test/STIM_011.jpg	100
1958.753	1.104	1103.6	test	Phase3	test/STIM_011.jpg	100
1963.21	1.015	1015.2	test	Phase3	test/STIM_012.jpg	100
1966.904	0.834	833.6	test	Phase3	test/STIM_012.jpg	99
1970.724	1.117	1117.2	test	Phase3	test/STIM_012.jpg	99
1975.669	0.823	823.2	test	Phase3	test/STIM_013.jpg	99
1980.343	0.805	804.7	test	Phase3	test/STIM_013.jpg	99
1983.219	1.082	1082.4	test	Phase3	test/STIM_013.jpg	99
1986.7	0.676	675.8	test	Phase3	test/STIM_014.jpg	100
1991.233	1.237	1236.8	test	Phase3	test/STIM_014.jpg	99
1994.47	0.806	806.5	test	Phase3	test/STIM_014.jpg	100
1997.937	0.727	727.1	test	Phase3	test/STIM_015.jpg	100
2002.274	0.86	859.8	test	Phase3	test/STIM_015.jpg	99
2006.327	1.049	1048.7	test	Phase3	test/STIM_015.jpg	100
2010.392	0.819	819.2	test	Phase3	test/STIM_016.jpg	100
2013.654	1.058	1058.0	test	Phase3	test/STIM_016.jpg	99
2016.989	0.922	922.3	test	Phase3	test/STIM_016.jpg	99
2019.976	1.218	1217.6	test	Phase3	test/STIM_017.jpg	100
2023.706	0.81	810.4	test	Phase3	test/STIM_017.jpg	100
2028.118	1.291	1291.0	test	Phase3	test/STIM_017.jpg	99
2031.422	1.175	1175.0	test	Phase3	test/STIM_018.jpg	99
2035.905	1.271	1271.2	test	Phase3	test/STIM_018.jpg	100
2039.989	0.81	810.2	test	Phase3	test/STIM_018.jpg	99
2043.554	0.702	701.5	test	Phase3	test/STIM_019.jpg	100
2047.739	0.778	778.3	test	Phase3	test/STIM_019.jpg	100
2050.757	0.86	860.1	test	Phase3	test/STIM_019.jpg	100
2055.39	1.006	1006.0	test	Phase3	test/STIM_020.jpg	100
2058.772	1.2	1199.6	test	Phase3	test/STIM_020.jpg	99
2063.61	0.904	903.7	test	Phase3	test/STIM_020.jpg	99
2068.399	1.218	1218.4	test	Phase3	test/STIM_021.jpg	99
2073.04	0.891	890.7	test	Phase3	test/STIM_021.jpg	100
2076.105	0.636	635.6	test	Phase3	test/STIM_021.jpg	99
2080.63	0.738	737.8	test	Phase3	test/STIM_022.jpg	100
2084.504	1.048	1047.9	test	Phase3	test/STIM_022.jpg	99
2089.076	0.804	804.1	test	Phase3	test/STIM_022.jpg	99
2093.515	0.766	765.8	test	Phase3	test/STIM_023.jpg	99
2097.768	1.06	1059.9	test	Phase3	test/STIM_023.jpg	99
2101.394	1.344	1344.5	test	Phase3	test/STIM_023.jpg	100
2105.263	1.226	1225.9	test	Phase3	test/STIM_024.jpg	100
2110.383	1.222	1221.5	test	Phase3	test/STIM_024.jpg	100
2113.7	0.678	677.8	test	Phase3	test/STIM_024.jpg	100
2117.279	1.317	1317.0	test	Phase3	test/STIM_025.jpg	99
2121.267	0.824	823.7	test	Phase3	test/STIM_025.jpg	99
2124.414	1.037	1036.8	test	Phase3	test/STIM_025.jpg	100
2129.254	1.357	1356.9	test	Phase3	test/STIM_026.jpg	99
2132.735	1.342	1342.3	test	Phase3	test/STIM_026.jpg	99
2136.963	0.931	930.8	test	Phase3	test/STIM_026.jpg	100
2140.092	1.239	1238.8	test	Phase3	test/STIM_027.jpg	100
2144.26	0.79	789.9	test	Phase3	test/STIM_027.jpg	100
2148.096	0.767	767.3	test	Phase3	test/STIM_027.jpg	99
2151.316	1.066	1065.7	test	Phase3	test/STIM_028.jpg	100
2154.51	0.724	724.0	test	Phase3	test/STIM_028.jpg	99
2157.719	1.257	1256.9	test	Phase3	test/STIM_028.jpg	99
2162.517	1.24	1239.6	test	Phase3	test/STIM_029.jpg	100
2167.582	1.3	1300.0	test	Phase3	test/STIM_029.jpg	100
2170.953	0.749	749.4	test	Phase3	test/STIM_029.jpg	99
