onset	duration	response_time_ms	trial_type	learning_stage	stimulus	response_port
0.0	1.348	1347.9	incongruent	Block1	incongruent/STIM_000.jpg	100
3.577	0.964	963.5	incongruent	Block1	incongruent/STIM_000.jpg	100
6.939	0.672	672.2	incongruent	Block1	incongruent/STIM_000.jpg	100
10.285	0.627	626.9	incongruent	Block1	incongruent/STIM_000.jpg	100
14.635	0.761	761.0	incongruent	Block1	incongruent/STIM_000.jpg	99
18.972	0.954	953.5	incongruent	Block1	incongruent/STIM_001.jpg	99
23.218	0.975	975.2	incongruent	Block1	incongruent/STIM_001.jpg	100
27.612	0.939	938.6	incongruent	Block1	incongruent/STIM_001.jpg	100
32.314	0.621	621.1	incongruent	Block1	incongruent/STIM_001.jpg	100
36.357	0.732	732.2	incongruent	Block1	incongruent/STIM_001.jpg	99
39.249	0.861	861.1	incongruent	Block1	incongruent/STIM_002.jpg	100
42.572	0.885	885.2	incongruent	Block1	incongruent/STIM_002.jpg	100
46.624	1.022	1022.1	incongruent	Block1	incongruent/STIM_002.jpg	99
51.15	0.661	661.4	incongruent	Block1	incongruent/STIM_002.jpg	99
54.504	0.892	891.9	incongruent	Block1	incongruent/STIM_002.jpg	100
58.428	1.339	1339.0	incongruent	Block1	incongruent/STIM_003.jpg	100
63.638	1.192	1192.3	incongruent	Block1	incongruent/STIM_003.jpg	100
67.737	0.767	766.6	incongruent	Block1	incongruent/STIM_003.jpg	100
70.901	1.103	1102.7	incongruent	Block1	incongruent/STIM_003.jpg	100
74.638	0.52	519.5	incongruent	Block1	incongruent/STIM_003.jpg	100
78.932	1.248	1247.6	incongruent	Block1	incongruent/STIM_004.jpg	99
82.222	0.899	899.3	incongruent	Block1	incongruent/STIM_004.jpg	100
85.567	0.671	670.7	incongruent	Block1	incongruent/STIM_004.jpg	100
89.4	1.069	1069.2	incongruent	Block1	incongruent/STIM_004.jpg	99
93.506	0.612	611.7	incongruent	Block1	incongruent/STIM_004.jpg	100
96.746	0.729	729.2	incongruent	Block1	incongruent/STIM_005.jpg	99
101.019	1.2	1200.4	incongruent	Block1	incongruent/STIM_005.jpg	99
104.39	0.866	865.9	incongruent	Block1	incongruent/STIM_005.jpg	100
107.632	0.685	684.8	incongruent	Block1	incongruent/STIM_005.jpg	99
110.877	0.872	872.0	incongruent	Block1	incongruent/STIM_005.jpg	99
113.997	1.234	1234.0	incongruent	Block1	incongruent/STIM_006.jpg	99
117.663	1.082	1081.5	incongruent	Block1	incongruent/STIM_006.jpg	99
122.089	0.949	949.4	incongruent	Block1	incongruent/STIM_006.jpg	99
125.928	1.007	1007.0	incongruent	Block1	incongruent/STIM_006.jpg	99
130.255	0.869	869.3	incongruent	Block1	incongruent/STIM_006.jpg	99
133.717	0.949	949.1	incongruent	Block1	incongruent/STIM_007.jpg	100
138.202	0.665	664.6	incongruent	Block1	incongruent/STIM_007.jpg	99
140.926	0.813	812.8	incongruent	Block1	incongruent/STIM_007.jpg	100
144.614	0.915	914.9	incongruent	Block1	incongruent/STIM_007.jpg	99
148.757	0.794	794.3	incongruent	Block1	incongruent/STIM_007.jpg	100
152.544	0.998	998.0	incongruent	Block1	incongruent/STIM_008.jpg	99
157.527	1.176	1175.8	incongruent	Block1	incongruent/STIM_008.jpg	100
161.327	0.89	889.5	incongruent	Block1	incongruent/STIM_008.jpg	100
164.407	1.083	1082.7	incongruent	Block1	incongruent/STIM_008.jpg	99
169.181	0.59	589.9	incongruent	Block1	incongruent/STIM_008.jpg	99
173.581	1.01	1010.1	incongruent	Block1	incongruent/STIM_009.jpg	100
177.817	0.843	842.6	incongruent	Block1	incongruent/STIM_009.jpg	99
181.064	0.931	930.6	incongruent	Block1	incongruent/STIM_009.jpg	99
184.044	0.596	595.5	incongruent	Block1	incongruent/STIM_009.jpg	99
188.163	0.837	836.9	incongruent	Block1	incongruent/STIM_009.jpg	100
192.715	1.146	1145.9	incongruent	Block1	incongruent/STIM_010.jpg	100
196.336	0.657	657.2	incongruent	Block1	incongruent/STIM_010.jpg	100
199.498	1.066	1066.4	incongruent	Block1	incongruent/STIM_010.jpg	100
204.298	0.55	550.2	incongruent	Block1	incongruent/STIM_010.jpg	100
207.002	0.677	677.3	incongruent	Block1	incongruent/STIM_010.jpg	99
211.559	1.229	1229.0	incongruent	Block1	incongruent/STIM_011.jpg	100
216.32	1.283	1282.8	incongruent	Block1	incongruent/STIM_011.jpg	99
219.985	0.891	891.0	incongruent	Block1	incongruent/STIM_011.jpg	99
224.501	0.674	674.3	incongruent	Block1	incongruent/STIM_011.jpg	100
227.63	0.676	676.5	incongruent	Block1	incongruent/STIM_011.jpg	99
230.672	0.894	893.8	incongruent	Block1	incongruent/STIM_012.jpg	99
234.096	1.019	1019.0	incongruent	Block1	incongruent/STIM_012.jpg	99
237.292	0.907	906.9	incongruent	Block1	incongruent/STIM_012.jpg	99
241.636	0.826	826.2	incongruent	Block1	incongruent/STIM_012.jpg	99
245.027	0.693	693.4	incongruent	Block1	incongruent/STIM_012.jpg	100
248.693	0.86	860.5	incongruent	Block1	incongruent/STIM_013.jpg	100
252.769	0.667	667.0	incongruent	Block1	incongruent/STIM_013.jpg	100
256.151	0.625	624.7	incongruent	Block1	incongruent/STIM_013.jpg	100
259.646	0.788	787.6	incongruent	Block1	incongruent/STIM_013.jpg	100
263.849	0.553	552.9	incongruent	Block1	incongruent/STIM_013.jpg	100
266.824	0.774	774.1	incongruent	Block1	incongruent/STIM_014.jpg	100
270.29	1.235	1234.8	incongruent	Block1	incongruent/STIM_014.jpg	99
273.975	0.818	818.0	incongruent	Block1	incongruent/STIM_014.jpg	100
278.309	0.712	712.3	incongruent	Block1	incongruent/STIM_014.jpg	99
283.021	0.753	753.2	incongruent	Block1	incongruent/STIM_014.jpg	99
287.617	1.226	1226.2	incongruent	Block1	incongruent/STIM_015.jpg	100
292.32	1.146	1145.6	incongruent	Block1	incongruent/STIM_015.jpg	100
296.904	0.658	658.4	incongruent	Block1	incongruent/STIM_015.jpg	100
300.033	0.997	997.1	incongruent	Block1	incongruent/STIM_015.jpg	99
304.05	0.815	815.1	incongruent	Block1	incongruent/STIM_015.jpg	100
308.55	1.059	1059.0	incongruent	Block1	incongruent/STIM_016.jpg	99
313.207	1.009	1009.4	incongruent	Block1	incongruent/STIM_016.jpg	100
316.921	0.784	784.4	incongruent	Block1	incongruent/STIM_016.jpg	100
321.197	0.753	753.0	incongruent	Block1	incongruent/STIM_016.jpg	100
324.625	0.601	601.0	incongruent	Block1	incongruent/STIM_016.jpg	99
327.424	0.907	907.1	incongruent	Block1	incongruent/STIM_017.jpg	99
331.514	1.143	1143.0	incongruent	Block1	incongruent/STIM_017.jpg	99
335.133	1.185	1185.3	incongruent	Block1	incongruent/STIM_017.jpg	100
339.043	1.059	1058.8	incongruent	Block1	incongruent/STIM_017.jpg	99
343.97	0.882	882.3	incongruent	Block1	incongruent/STIM_017.jpg	99
347.476	1.06	1059.7	incongruent	Block1	incongruent/STIM_018.jpg	99
352.015	0.878	878.5	incongruent	Block1	incongruent/STIM_018.jpg	99
355.328	1.154	1153.7	incongruent	Block1	incongruent/STIM_018.jpg	100
358.601	0.796	795.6	incongruent	Block1	incongruent/STIM_018.jpg	100
362.492	0.674	674.4	incongruent	Block1	incongruent/STIM_018.jpg	100
366.777	1.248	1247.7	incongruent	Block1	incongruent/STIM_019.jpg	100
371.296	0.752	752.5	incongruent	Block1	incongruent/STIM_019.jpg	100
375.602	0.954	953.8	incongruent	Block1	incongruent/STIM_019.jpg	100
379.513	0.586	585.6	incongruent	Block1	incongruent/STIM_019.jpg	99
383.263	0.576	576.1	incongruent	Block1	incongruent/STIM_019.jpg	100
387.402	1.184	1183.6	incongruent	Block1	incongruent/STIM_020.jpg	99
392.06	1.28	1280.5	incongruent	Block1	incongruent/STIM_020.jpg	100
395.861	1.142	1141.8	incongruent	Block1	incongruent/STIM_020.jpg	99
399.967	1.08	1080.2	incongruent	Block1	incongruent/STIM_020.jpg	100
403.32	0.619	618.6	incongruent	Block1	incongruent/STIM_020.jpg	99
405.968	1.151	1150.9	incongruent	Block1	incongruent/STIM_021.jpg	100
409.5	1.301	1301.2	incongruent	Block1	incongruent/STIM_021.jpg	99
413.591	0.946	946.3	incongruent	Block1	incongruent/STIM_021.jpg	99
417.004	0.748	748.3	incongruent	Block1	incongruent/STIM_021.jpg	99
419.789	0.577	577.2	incongruent	Block1	incongruent/STIM_021.jpg	100
422.84	1.204	1203.6	incongruent	Block1	incongruent/STIM_022.jpg	99
427.68	1.2	1199.7	incongruent	Block1	incongruent/STIM_022.jpg	99
431.103	0.935	935.2	incongruent	Block1	incongruent/STIM_022.jpg	100
435.876	1.122	1122.5	incongruent	Block1	incongruent/STIM_022.jpg	100
439.555	0.872	871.8	incongruent	Block1	incongruent/STIM_022.jpg	100
443.445	0.89	889.9	incongruent	Block1	incongruent/STIM_023.jpg	100
446.568	1.014	1014.1	incongruent	Block1	incongruent/STIM_023.jpg	100
450.659	0.853	852.8	incongruent	Block1	incongruent/STIM_023.jpg	99
454.166	0.947	946.9	incongruent	Block1	incongruent/STIM_023.jpg	99
457.866	1.006	1005.7	incongruent	Block1	incongruent/STIM_023.jpg	100
460.929	0.86	860.0	incongruent	Block1	incongruent/STIM_024.jpg	99
464.223	0.796	796.0	incongruent	Block1	incongruent/STIM_024.jpg	100
468.778	0.639	639.0	incongruent	Block1	incongruent/STIM_024.jpg	100
472.292	0.87	869.8	incongruent	Block1	incongruent/STIM_024.jpg	100
476.748	0.564	564.4	incongruent	Block1	incongruent/STIM_024.jpg	100
480.322	0.94	939.8	incongruent	Block1	incongruent/STIM_025.jpg	99
483.723	0.792	792.3	incongruent	Block1	incongruent/STIM_025.jpg	99
486.732	1.186	1186.0	incongruent	Block1	incongruent/STIM_025.jpg	99
490.138	0.565	565.0	incongruent	Block1	incongruent/STIM_025.jpg	100
493.079	0.667	667.2	incongruent	Block1	incongruent/STIM_025.jpg	100
497.495	0.705	705.3	incongruent	Block1	incongruent/STIM_026.jpg	100
500.607	0.922	921.9	incongruent	Block1	incongruent/STIM_026.jpg	99
503.709	0.778	777.6	incongruent	Block1	incongruent/STIM_026.jpg	100
506.98	0.761	760.6	incongruent	Block1	incongruent/STIM_026.jpg	99
510.222	0.581	581.0	incongruent	Block1	incongruent/STIM_026.jpg	100
514.146	1.252	1252.5	incongruent	Block1	incongruent/STIM_027.jpg	99
519.075	1.01	1010.2	incongruent	Block1	incongruent/STIM_027.jpg	99
522.98	1.18	1180.0	incongruent	Block1	incongruent/STIM_027.jpg	100
527.217	0.836	836.1	incongruent	Block1	incongruent/STIM_027.jpg	100
531.524	0.985	985.2	incongruent	Block1	incongruent/STIM_027.jpg	99
534.672	1.234	1233.9	incongruent	Block1	incongruent/STIM_028.jpg	100
539.42	0.609	609.1	incongruent	Block1	incongruent/STIM_028.jpg	99
543.997	1.138	1138.3	incongruent	Block1	incongruent/STIM_028.jpg	100
548.543	1.13	1130.4	incongruent	Block1	incongruent/STIM_028.jpg	99
552.983	1.001	1001.4	incongruent	Block1	incongruent/STIM_028.jpg	99
556.019	0.715	715.0	incongruent	Block1	incongruent/STIM_029.jpg	99
559.994	1.06	1060.4	incongruent	Block1	incongruent/STIM_029.jpg	99
564.625	0.59	589.9	incongruent	Block1	incongruent/STIM_029.jpg	99
568.419	0.647	647.3	incongruent	Block1	incongruent/STIM_029.jpg	99
571.542	0.815	814.9	incongruent	Block1	incongruent/STIM_029.jpg	99
575.355	0.79	789.9	congruent	Block1	congruent/STIM_000.jpg	100
578.678	0.623	623.0	congruent	Block1	congruent/STIM_000.jpg	100
581.789	0.575	575.2	congruent	Block1	congruent/STIM_000.jpg	100
584.442	0.654	654.0	congruent	Block1	congruent/STIM_000.jpg	99
587.169	0.471	470.8	congruent	Block1	congruent/STIM_000.jpg	100
590.117	0.517	517.0	congruent	Block1	congruent/STIM_001.jpg	100
593.836	0.548	548.3	congruent	Block1	congruent/STIM_001.jpg	100
598.167	0.794	794.3	congruent	Block1	congruent/STIM_001.jpg	100
602.839	0.686	685.9	congruent	Block1	congruent/STIM_001.jpg	99
607.003	0.582	582.4	congruent	Block1	congruent/STIM_001.jpg	99
610.925	0.758	758.1	congruent	Block1	congruent/STIM_002.jpg	100
615.609	0.577	576.7	congruent	Block1	congruent/STIM_002.jpg	100
619.811	0.776	776.1	congruent	Block1	congruent/STIM_002.jpg	99
622.618	0.479	479.4	congruent	Block1	congruent/STIM_002.jpg	100
626.603	0.709	709.2	congruent	Block1	congruent/STIM_002.jpg	100
630.19	0.515	515.0	congruent	Block1	congruent/STIM_003.jpg	100
633.874	0.581	581.4	congruent	Block1	congruent/STIM_003.jpg	99
636.757	0.807	807.4	congruent	Block1	congruent/STIM_003.jpg	100
640.125	0.5	499.8	congruent	Block1	congruent/STIM_003.jpg	99
644.092	0.6	600.2	congruent	Block1	congruent/STIM_003.jpg	99
647.937	0.733	732.7	congruent	Block1	congruent/STIM_004.jpg	99
652.152	0.796	796.3	congruent	Block1	congruent/STIM_004.jpg	99
655.617	0.811	811.0	congruent	Block1	congruent/STIM_004.jpg	99
660.05	0.73	729.6	congruent	Block1	congruent/STIM_004.jpg	100
663.118	0.525	524.9	congruent	Block1	congruent/STIM_004.jpg	99
665.733	0.74	740.0	congruent	Block1	congruent/STIM_005.jpg	99
668.839	0.615	614.7	congruent	Block1	congruent/STIM_005.jpg	100
671.476	0.57	570.4	congruent	Block1	congruent/STIM_005.jpg	99
674.898	0.523	523.2	congruent	Block1	congruent/STIM_005.jpg	100
677.653	0.553	553.4	congruent	Block1	congruent/STIM_005.jpg	100
681.536	0.776	776.3	congruent	Block1	congruent/STIM_006.jpg	99
684.809	0.816	815.8	congruent	Block1	congruent/STIM_006.jpg	100
688.852	0.806	805.5	congruent	Block1	congruent/STIM_006.jpg	99
692.661	0.798	797.7	congruent	Block1	congruent/STIM_006.jpg	100
696.676	0.459	458.8	congruent	Block1	congruent/STIM_006.jpg	100
699.935	0.715	714.8	congruent	Block1	congruent/STIM_007.jpg	99
704.157	0.697	697.2	congruent	Block1	congruent/STIM_007.jpg	99
708.604	0.515	515.4	congruent	Block1	congruent/STIM_007.jpg	100
712.574	0.731	730.6	congruent	Block1	congruent/STIM_007.jpg	99
717.218	0.537	537.4	congruent	Block1	congruent/STIM_007.jpg	100
721.249	0.499	499.2	congruent	Block1	congruent/STIM_008.jpg	99
723.81	0.534	534.4	congruent	Block1	congruent/STIM_008.jpg	99
727.828	0.812	812.4	congruent	Block1	congruent/STIM_008.jpg	100
730.845	0.814	813.6	congruent	Block1	congruent/STIM_008.jpg	100
734.33	0.638	638.1	congruent	Block1	congruent/STIM_008.jpg	100
738.445	0.636	636.1	congruent	Block1	congruent/STIM_009.jpg	99
741.916	0.49	490.1	congruent	Block1	congruent/STIM_009.jpg	99
745.635	0.748	747.7	congruent	Block1	congruent/STIM_009.jpg	99
749.8	0.463	462.7	congruent	Block1	congruent/STIM_009.jpg	100
753.673	0.732	731.6	congruent	Block1	congruent/STIM_009.jpg	100
758.027	0.589	589.2	congruent	Block1	congruent/STIM_010.jpg	100
762.177	0.57	570.2	congruent	Block1	congruent/STIM_010.jpg	100
765.709	0.687	687.3	congruent	Block1	congruent/STIM_010.jpg	100
769.045	0.751	751.1	congruent	Block1	congruent/STIM_010.jpg	100
773.431	0.566	565.8	congruent	Block1	congruent/STIM_010.jpg	99
776.597	0.721	721.4	congruent	Block1	congruent/STIM_011.jpg	99
779.995	0.814	813.5	congruent	Block1	congruent/STIM_011.jpg	99
784.704	0.566	566.2	congruent	Block1	congruent/STIM_011.jpg	99
788.732	0.501	501.0	congruent	Block1	congruent/STIM_011.jpg	99
793.023	0.617	616.6	congruent	Block1	congruent/STIM_011.jpg	99
795.783	0.645	645.3	congruent	Block1	congruent/STIM_012.jpg	99
798.452	0.691	691.4	congruent	Block1	congruent/STIM_012.jpg	99
802.39	0.813	812.9	congruent	Block1	congruent/STIM_012.jpg	99
805.635	0.656	656.4	congruent	Block1	congruent/STIM_012.jpg	99
808.378	0.602	601.6	congruent	Block1	congruent/STIM_012.jpg	100
812.163	0.559	558.6	congruent	Block1	congruent/STIM_013.jpg	100
815.565	0.656	656.2	congruent	Block1	congruent/STIM_013.jpg	100
818.914	0.72	720.2	congruent	Block1	congruent/STIM_013.jpg	99
822.066	0.756	756.1	congruent	Block1	congruent/STIM_013.jpg	99
825.749	0.795	794.8	congruent	Block1	congruent/STIM_013.jpg	99
830.021	0.67	670.5	congruent	Block1	congruent/STIM_014.jpg	99
834.526	0.502	502.2	congruent	Block1	congruent/STIM_014.jpg	100
837.496	0.463	462.7	congruent	Block1	congruent/STIM_014.jpg	100
840.565	0.766	766.5	congruent	Block1	congruent/STIM_014.jpg	100
844.11	0.554	554.4	congruent	Block1	congruent/STIM_014.jpg	100
847.485	0.47	470.5	congruent	Block1	congruent/STIM_015.jpg	99
850.813	0.678	678.5	congruent	Block1	congruent/STIM_015.jpg	100
854.668	0.783	782.6	congruent	Block1	congruent/STIM_015.jpg	99
858.166	0.73	729.8	congruent	Block1	congruent/STIM_015.jpg	99
860.995	0.715	714.9	congruent	Block1	congruent/STIM_015.jpg	99
864.121	0.462	461.9	congruent	Block1	congruent/STIM_016.jpg	99
868.165	0.464	463.9	congruent	Block1	congruent/STIM_016.jpg	99
871.521	0.48	480.3	congruent	Block1	congruent/STIM_016.jpg	100
874.838	0.811	810.6	congruent	Block1	congruent/STIM_016.jpg	100
878.012	0.784	783.5	congruent	Block1	congruent/STIM_016.jpg	100
882.388	0.486	486.1	congruent	Block1	congruent/STIM_017.jpg	100
885.391	0.742	741.7	congruent	Block1	congruent/STIM_017.jpg	99
889.575	0.755	754.6	congruent	Block1	congruent/STIM_017.jpg	99
893.337	0.799	798.8	congruent	Block1	congruent/STIM_017.jpg	99
897.237	0.64	639.7	congruent	Block1	congruent/STIM_017.jpg	99
901.545	0.731	730.6	congruent	Block1	congruent/STIM_018.jpg	99
906.269	0.592	592.3	congruent	Block1	congruent/STIM_018.jpg	100
909.063	0.759	759.0	congruent	Block1	congruent/STIM_018.jpg	100
911.826	0.512	511.6	congruent	Block1	congruent/STIM_018.jpg	100
915.721	0.521	520.8	congruent	Block1	congruent/STIM_018.jpg	100
919.423	0.745	745.0	congruent	Block1	congruent/STIM_019.jpg	99
924.157	0.639	639.4	congruent	Block1	congruent/STIM_019.jpg	100
927.187	0.498	498.2	congruent	Block1	congruent/STIM_019.jpg	100
931.428	0.617	617.2	congruent	Block1	congruent/STIM_019.jpg	99
934.208	0.797	796.7	congruent	Block1	congruent/STIM_019.jpg	99
938.603	0.516	516.1	congruent	Block1	congruent/STIM_020.jpg	99
942.219	0.672	671.5	congruent	Block1	congruent/STIM_020.jpg	99
946.162	0.572	572.5	congruent	Block1	congruent/STIM_020.jpg	99
948.873	0.528	527.8	congruent	Block1	congruent/STIM_020.jpg	99
952.818	0.665	665.3	congruent	Block1	congruent/STIM_020.jpg	99
957.035	0.729	729.0	congruent	Block1	congruent/STIM_021.jpg	100
959.857	0.753	753.0	congruent	Block1	congruent/STIM_021.jpg	99
963.528	0.69	690.5	congruent	Block1	congruent/STIM_021.jpg	99
967.508	0.504	503.7	congruent	Block1	congruent/STIM_021.jpg	99
970.44	0.606	606.1	congruent	Block1	congruent/STIM_021.jpg	100
973.135	0.485	484.6	congruent	Block1	congruent/STIM_022.jpg	99
975.814	0.478	477.9	congruent	Block1	congruent/STIM_022.jpg	100
980.154	0.641	641.2	congruent	Block1	congruent/STIM_022.jpg	99
984.476	0.514	514.0	congruent	Block1	congruent/STIM_022.jpg	99
987.345	0.692	692.0	congruent	Block1	congruent/STIM_022.jpg	99
991.63	0.608	608.1	congruent	Block1	congruent/STIM_023.jpg	99
995.699	0.523	522.9	congruent	Block1	congruent/STIM_023.jpg	100
999.678	0.774	773.9	congruent	Block1	congruent/STIM_023.jpg	99
1004.397	0.496	496.2	congruent	Block1	congruent/STIM_023.jpg	100
1007.052	0.702	701.5	congruent	Block1	congruent/STIM_023.jpg	100
1011.096	0.63	629.9	congruent	Block1	congruent/STIM_024.jpg	99
1013.891	0.466	466.1	congruent	Block1	congruent/STIM_024.jpg	100
1018.255	0.568	567.7	congruent	Block1	congruent/STIM_024.jpg	100
1022.244	0.663	663.3	congruent	Block1	congruent/STIM_024.jpg	99
1026.673	0.688	688.4	congruent	Block1	congruent/STIM_024.jpg	100
1030.618	0.528	527.8	congruent	Block1	congruent/STIM_025.jpg	99
1033.683	0.636	636.4	congruent	Block1	congruent/STIM_025.jpg	99
1038.266	0.68	679.6	congruent	Block1	congruent/STIM_025.jpg	99
1041.914	0.715	715.4	congruent	Block1	congruent/STIM_025.jpg	99
1045.437	0.674	674.1	congruent	Block1	congruent/STIM_025.jpg	99
1049.622	0.563	563.1	congruent	Block1	congruent/STIM_026.jpg	100
1052.427	0.498	498.3	congruent	Block1	congruent/STIM_026.jpg	100
1055.504	0.669	668.7	congruent	Block1	congruent/STIM_026.jpg	100
1059.757	0.793	793.3	congruent	Block1	congruent/STIM_026.jpg	99
1062.623	0.801	801.0	congruent	Block1	congruent/STIM_026.jpg	99
1066.28	0.601	600.8	congruent	Block1	congruent/STIM_027.jpg	100
1069.917	0.693	693.4	congruent	Block1	congruent/STIM_027.jpg	99
1073.352	0.522	521.6	congruent	Block1	congruent/STIM_027.jpg	100
1077.053	0.573	573.4	congruent	Block1	congruent/STIM_027.jpg	100
1080.996	0.654	654.3	congruent	Block1	congruent/STIM_027.jpg	100
1084.404	0.711	711.4	congruent	Block1	congruent/STIM_028.jpg	99
1088.652	0.769	769.3	congruent	Block1	congruent/STIM_028.jpg	100
1092.636	0.718	718.0	congruent	Block1	congruent/STIM_028.jpg	100
1096.688	0.759	758.6	congruent	Block1	congruent/STIM_028.jpg	99
1099.781	0.624	623.6	congruent	Block1	congruent/STIM_028.jpg	100
1104.362	0.746	745.7	congruent	Block1	congruent/STIM_029.jpg	100
1107.787	0.778	778.1	congruent	Block1	congruent/STIM_029.jpg	100
1111.416	0.506	505.6	congruent	Block1	congruent/STIM_029.jpg	100
1115.513	0.725	725.3	congruent	Block1	congruent/STIM_029.jpg	99
1119.29	0.745	745.0	congruent	Block1	congruent/STIM_029.jpg	100
1123.787	1.016	1016.2	incongruent	Block2	incongruent/STIM_000.jpg	100
1127.562	0.994	993.5	incongruent	Block2	incongruent/STIM_000.jpg	99
1132.068	0.756	755.9	incongruent	Block2	incongruent/STIM_000.jpg	99
1135.081	0.88	879.9	incongruent	Block2	incongruent/STIM_000.jpg	100
1139.809	0.486	486.5	incongruent	Block2	incongruent/STIM_000.jpg	100
1143.415	0.96	959.5	incongruent	Block2	incongruent/STIM_001.jpg	99
1146.836	0.887	887.1	incongruent	Block2	incongruent/STIM_001.jpg	100
1149.83	0.623	623.4	incongruent	Block2	incongruent/STIM_001.jpg	100
1152.456	0.639	639.1	incongruent	Block2	incongruent/STIM_001.jpg	100
1155.483	0.557	557.1	incongruent	Block2	incongruent/STIM_001.jpg	100
1159.096	0.67	669.6	incongruent	Block2	incongruent/STIM_002.jpg	100
1163.319	0.811	810.6	incongruent	Block2	incongruent/STIM_002.jpg	99
1167.874	0.547	547.0	incongruent	Block2	incongruent/STIM_002.jpg	99
1171.697	0.665	664.6	incongruent	Block2	incongruent/STIM_002.jpg	99
1176.339	0.567	567.1	incongruent	Block2	incongruent/STIM_002.jpg	99
1179.007	1.093	1093.0	incongruent	Block2	incongruent/STIM_003.jpg	99
1183.494	0.993	993.0	incongruent	Block2	incongruent/STIM_003.jpg	100
1186.804	0.752	752.4	incongruent	Block2	incongruent/STIM_003.jpg	100
1190.624	0.492	492.2	incongruent	Block2	incongruent/STIM_003.jpg	100
1193.144	0.905	904.9	incongruent	Block2	incongruent/STIM_003.jpg	99
1197.676	1.085	1084.7	incongruent	Block2	incongruent/STIM_004.jpg	99
1200.925	0.811	811.4	incongruent	Block2	incongruent/STIM_004.jpg	100
1204.066	0.664	664.0	incongruent	Block2	incongruent/STIM_004.jpg	100
1208.302	0.732	732.1	incongruent	Block2	incongruent/STIM_004.jpg	100
1211.937	0.635	634.8	incongruent	Block2	incongruent/STIM_004.jpg	100
1216.188	0.658	657.5	incongruent	Block2	incongruent/STIM_005.jpg	99
1220.669	0.904	904.0	incongruent	Block2	incongruent/STIM_005.jpg	100
1225.315	1.011	1011.1	incongruent	Block2	incongruent/STIM_005.jpg	99
1229.998	0.642	641.7	incongruent	Block2	incongruent/STIM_005.jpg	99
1233.522	0.887	886.8	incongruent	Block2	incongruent/STIM_005.jpg	99
1237.49	0.948	948.5	incongruent	Block2	incongruent/STIM_006.jpg	99
1240.861	1.017	1017.1	incongruent	Block2	incongruent/STIM_006.jpg	99
1244.981	0.703	702.6	incongruent	Block2	incongruent/STIM_006.jpg	100
1247.741	0.678	677.5	incongruent	Block2	incongruent/STIM_006.jpg	100
1251.217	0.711	711.3	incongruent	Block2	incongruent/STIM_006.jpg	100
1254.43	0.817	816.6	incongruent	Block2	incongruent/STIM_007.jpg	100
1257.522	0.801	801.0	incongruent	Block2	incongruent/STIM_007.jpg	99
1262.232	0.626	625.6	incongruent	Block2	incongruent/STIM_007.jpg	99
1265.519	0.913	912.9	incongruent	Block2	incongruent/STIM_007.jpg	99
1270.395	0.935	935.4	incongruent	Block2	incongruent/STIM_007.jpg	99
1274.545	0.631	630.8	incongruent	Block2	incongruent/STIM_008.jpg	99
1279.096	0.774	774.5	incongruent	Block2	incongruent/STIM_008.jpg	99
1282.517	0.484	483.6	incongruent	Block2	incongruent/STIM_008.jpg	100
1286.665	0.499	499.0	incongruent	Block2	incongruent/STIM_008.jpg	99
1289.486	0.501	500.6	incongruent	Block2	incongruent/STIM_008.jpg	99
1293.106	0.761	760.6	incongruent	Block2	incongruent/STIM_009.jpg	99
1296.607	0.923	922.7	incongruent	Block2	incongruent/STIM_009.jpg	99
1300.695	0.656	656.4	incongruent	Block2	incongruent/STIM_009.jpg	99
1303.696	0.9	900.0	incongruent	Block2	incongruent/STIM_009.jpg	100
1308.45	0.847	847.2	incongruent	Block2	incongruent/STIM_009.jpg	99
1312.322	0.74	740.3	incongruent	Block2	incongruent/STIM_010.jpg	99
1316.749	0.583	582.6	incongruent	Block2	incongruent/STIM_010.jpg	100
1319.983	0.654	653.7	incongruent	Block2	incongruent/STIM_010.jpg	100
1323.804	0.651	651.0	incongruent	Block2	incongruent/STIM_010.jpg	99
1327.844	0.883	883.4	incongruent	Block2	incongruent/STIM_010.jpg	99
1332.451	0.898	898.3	incongruent	Block2	incongruent/STIM_011.jpg	100
1336.273	0.828	828.4	incongruent	Block2	incongruent/STIM_011.jpg	100
1340.617	0.759	758.9	incongruent	Block2	incongruent/STIM_011.jpg	99
1343.967	0.781	781.3	incongruent	Block2	incongruent/STIM_011.jpg	100
1346.901	0.658	658.2	incongruent	Block2	incongruent/STIM_011.jpg	100
1349.869	0.891	890.9	incongruent	Block2	incongruent/STIM_012.jpg	100
1354.175	0.624	623.6	incongruent	Block2	incongruent/STIM_012.jpg	99
1357.746	0.527	526.8	incongruent	Block2	incongruent/STIM_012.jpg	100
1362.211	0.899	898.8	incongruent	Block2	incongruent/STIM_012.jpg	100
1366.781	0.572	572.1	incongruent	Block2	incongruent/STIM_012.jpg	99
1370.808	1.058	1058.1	incongruent	Block2	incongruent/STIM_013.jpg	99
1374.544	1.048	1047.8	incongruent	Block2	incongruent/STIM_013.jpg	99
1378.129	0.688	688.2	incongruent	Block2	incongruent/STIM_013.jpg	100
1382.073	0.907	906.7	incongruent	Block2	incongruent/STIM_013.jpg	99
1385.464	0.906	905.8	incongruent	Block2	incongruent/STIM_013.jpg	99
1390.196	1.057	1057.4	incongruent	Block2	incongruent/STIM_014.jpg	100
1394.027	0.581	580.7	incongruent	Block2	incongruent/STIM_014.jpg	99
1398.427	0.886	885.5	incongruent	Block2	incongruent/STIM_014.jpg	99
1401.664	0.894	893.5	incongruent	Block2	incongruent/STIM_014.jpg	99
1406.26	0.95	949.7	incongruent	Block2	incongruent/STIM_014.jpg	99
1409.454	0.676	676.5	incongruent	Block2	incongruent/STIM_015.jpg	99
1412.538	0.542	541.7	incongruent	Block2	incongruent/STIM_015.jpg	99
1416.445	0.833	832.6	incongruent	Block2	incongruent/STIM_015.jpg	100
1420.667	0.847	846.7	incongruent	Block2	incongruent/STIM_015.jpg	99
1423.782	0.691	691.4	incongruent	Block2	incongruent/STIM_015.jpg	100
1428.276	1.102	1102.4	incongruent	Block2	incongruent/STIM_016.jpg	100
1432.944	0.693	693.3	incongruent	Block2	incongruent/STIM_016.jpg	99
1436.521	0.858	858.5	incongruent	Block2	incongruent/STIM_016.jpg	100
1441.153	0.448	447.9	incongruent	Block2	incongruent/STIM_016.jpg	99
1444.858	0.856	856.4	incongruent	Block2	incongruent/STIM_016.jpg	100
1448.481	0.597	596.7	incongruent	Block2	incongruent/STIM_017.jpg	100
1452.832	1.002	1001.8	incongruent	Block2	incongruent/STIM_017.jpg	100
1456.162	0.899	899.3	incongruent	Block2	incongruent/STIM_017.jpg	99
1460.344	0.493	493.0	incongruent	Block2	incongruent/STIM_017.jpg	100
1464.748	0.761	761.2	incongruent	Block2	incongruent/STIM_017.jpg	99
1468.348	0.551	550.8	incongruent	Block2	incongruent/STIM_018.jpg	99
1471.317	0.946	946.2	incongruent	Block2	incongruent/STIM_018.jpg	100
1475.537	0.789	789.1	incongruent	Block2	incongruent/STIM_018.jpg	99
1479.872	0.701	700.8	incongruent	Block2	incongruent/STIM_018.jpg	100
1484.405	0.714	713.6	incongruent	Block2	incongruent/STIM_018.jpg	99
1487.167	0.987	987.3	incongruent	Block2	incongruent/STIM_019.jpg	100
1491.234	0.614	614.3	incongruent	Block2	incongruent/STIM_019.jpg	99
1494.221	0.969	969.4	incongruent	Block2	incongruent/STIM_019.jpg	99
1498.157	0.466	465.5	incongruent	Block2	incongruent/STIM_019.jpg	100
1502.521	0.501	500.8	incongruent	Block2	incongruent/STIM_019.jpg	100
1506.144	0.863	863.4	incongruent	Block2	incongruent/STIM_020.jpg	99
1509.644	0.734	734.5	incongruent	Block2	incongruent/STIM_020.jpg	99
1513.488	0.569	569.2	incongruent	Block2	incongruent/STIM_020.jpg	99
1516.097	0.48	479.8	incongruent	Block2	incongruent/STIM_020.jpg	99
1519.511	0.926	925.8	incongruent	Block2	incongruent/STIM_020.jpg	99
1523.102	0.778	778.0	incongruent	Block2	incongruent/STIM_021.jpg	100
1527.326	0.72	719.5	incongruent	Block2	incongruent/STIM_021.jpg	100
1531.965	0.62	620.0	incongruent	Block2	incongruent/STIM_021.jpg	100
1535.329	0.529	528.7	incongruent	Block2	incongruent/STIM_021.jpg	100
1538.543	0.719	718.7	incongruent	Block2	incongruent/STIM_021.jpg	99
1542.736	0.672	672.3	incongruent	Block2	incongruent/STIM_022.jpg	99
1545.715	0.52	519.6	incongruent	Block2	incongruent/STIM_022.jpg	99
1548.745	0.943	942.6	incongruent	Block2	incongruent/STIM_022.jpg	99
1552.875	0.803	803.3	incongruent	Block2	incongruent/STIM_022.jpg	100
1557.674	0.591	590.8	incongruent	Block2	incongruent/STIM_022.jpg	99
1561.1	0.768	768.1	incongruent	Block2	incongruent/STIM_023.jpg	100
1565.043	0.642	642.2	incongruent	Block2	incongruent/STIM_023.jpg	100
1567.917	0.647	647.3	incongruent	Block2	incongruent/STIM_023.jpg	99
1571.71	0.748	747.8	incongruent	Block2	incongruent/STIM_023.jpg	100
1574.844	0.791	791.4	incongruent	Block2	incongruent/STIM_023.jpg	100
1578.886	0.811	810.9	incongruent	Block2	incongruent/STIM_024.jpg	99
1581.819	0.636	635.9	incongruent	Block2	incongruent/STIM_024.jpg	100
1585.149	0.625	624.9	incongruent	Block2	incongruent/STIM_024.jpg	99
1589.435	0.958	958.3	incongruent	Block2	incongruent/STIM_024.jpg	100
1593.886	0.517	517.2	incongruent	Block2	incongruent/STIM_024.jpg	100
1597.815	1.106	1106.0	incongruent	Block2	incongruent/STIM_025.jpg	99
1602.325	0.806	805.7	incongruent	Block2	incongruent/STIM_025.jpg	99
1605.785	0.602	602.4	incongruent	Block2	incongruent/STIM_025.jpg	100
1608.552	0.675	675.0	incongruent	Block2	incongruent/STIM_025.jpg	99
1611.713	0.622	622.1	incongruent	Block2	incongruent/STIM_025.jpg	99
1614.578	0.794	793.9	incongruent	Block2	incongruent/STIM_026.jpg	100
1618.817	0.908	908.3	incongruent	Block2	incongruent/STIM_026.jpg	99
1622.078	0.793	792.9	incongruent	Block2	incongruent/STIM_026.jpg	99
1625.687	0.643	642.7	incongruent	Block2	incongruent/STIM_026.jpg	99
1629.62	0.71	710.1	incongruent	Block2	incongruent/STIM_026.jpg	100
1634.177	0.858	858.0	incongruent	Block2	incongruent/STIM_027.jpg	100
1638.755	0.719	719.1	incongruent	Block2	incongruent/STIM_027.jpg	100
1641.91	0.628	627.9	incongruent	Block2	incongruent/STIM_027.jpg	100
1645.449	0.612	612.5	incongruent	Block2	incongruent/STIM_027.jpg	100
1648.884	0.899	898.8	incongruent	Block2	incongruent/STIM_027.jpg	99
1652.334	1.075	1075.0	incongruent	Block2	incongruent/STIM_028.jpg	99
1655.962	1.06	1059.7	incongruent	Block2	incongruent/STIM_028.jpg	99
1659.416	0.81	810.3	incongruent	Block2	incongruent/STIM_028.jpg	100
1663.756	0.914	914.4	incongruent	Block2	incongruent/STIM_028.jpg	100
1666.776	0.92	920.4	incongruent	Block2	incongruent/STIM_028.jpg	99
1669.967	1.131	1131.3	incongruent	Block2	incongruent/STIM_029.jpg	99
1673.519	0.709	709.0	incongruent	Block2	incongruent/STIM_029.jpg	99
1677.16	0.897	897.2	incongruent	Block2	incongruent/STIM_029.jpg	99
1681.831	0.843	843.1	incongruent	Block2	incongruent/STIM_029.jpg	99
1686.411	0.894	894.3	incongruent	Block2	incongruent/STIM_029.jpg	100
1690.621	0.487	486.9	congruent	Block2	congruent/STIM_000.jpg	100
1694.335	0.646	646.3	congruent	Block2	congruent/STIM_000.jpg	100
1698.402	0.799	799.1	congruent	Block2	congruent/STIM_000.jpg	100
1701.336	0.616	615.9	congruent	Block2	congruent/STIM_000.jpg	100
1705.085	0.629	629.2	congruent	Block2	congruent/STIM_000.jpg	100
1708.785	0.679	679.2	congruent	Block2	congruent/STIM_001.jpg	99
1713.377	0.716	716.2	congruent	Block2	congruent/STIM_001.jpg	99
1717.243	0.473	473.0	congruent	Block2	congruent/STIM_001.jpg	99
1720.295	0.703	703.0	congruent	Block2	congruent/STIM_001.jpg	100
1723.273	0.591	591.4	congruent	Block2	congruent/STIM_001.jpg	99
1727.846	0.486	486.3	congruent	Block2	congruent/STIM_002.jpg	99
1731.117	0.753	752.8	congruent	Block2	congruent/STIM_002.jpg	99
1735.536	0.474	473.9	congruent	Block2	congruent/STIM_002.jpg	99
1739.205	0.809	809.2	congruent	Block2	congruent/STIM_002.jpg	100
1742.409	0.76	760.4	congruent	Block2	congruent/STIM_002.jpg	99
1746.72	0.818	818.0	congruent	Block2	congruent/STIM_003.jpg	100
1751.062	0.82	819.5	congruent	Block2	congruent/STIM_003.jpg	100
1754.982	0.635	635.1	congruent	Block2	congruent/STIM_003.jpg	99
1758.511	0.53	529.6	congruent	Block2	congruent/STIM_003.jpg	99
1762.429	0.486	486.4	congruent	Block2	congruent/STIM_003.jpg	100
1766.31	0.811	810.6	congruent	Block2	congruent/STIM_004.jpg	99
1769.741	0.658	658.4	congruent	Block2	congruent/STIM_004.jpg	100
1772.837	0.631	630.6	congruent	Block2	congruent/STIM_004.jpg	99
1777.361	0.512	512.3	congruent	Block2	congruent/STIM_004.jpg	99
1781.575	0.464	464.5	congruent	Block2	congruent/STIM_004.jpg	99
1784.95	0.659	659.1	congruent	Block2	congruent/STIM_005.jpg	99
1788.754	0.471	470.9	congruent	Block2	congruent/STIM_005.jpg	99
1791.549	0.78	779.9	congruent	Block2	congruent/STIM_005.jpg	100
1794.587	0.797	797.2	congruent	Block2	congruent/STIM_005.jpg	99
1797.701	0.514	514.2	congruent	Block2	congruent/STIM_005.jpg	100
1800.504	0.53	530.4	congruent	Block2	congruent/STIM_006.jpg	99
1804.854	0.581	581.3	congruent	Block2	congruent/STIM_006.jpg	100
1808.151	0.641	640.8	congruent	Block2	congruent/STIM_006.jpg	99
1811.599	0.576	575.9	congruent	Block2	congruent/STIM_006.jpg	99
1814.741	0.772	771.8	congruent	Block2	congruent/STIM_006.jpg	100
1817.936	0.509	508.9	congruent	Block2	congruent/STIM_007.jpg	100
1822.227	0.581	580.7	congruent	Block2	congruent/STIM_007.jpg	99
1825.347	0.656	656.4	congruent	Block2	congruent/STIM_007.jpg	99
1828.76	0.52	519.6	congruent	Block2	congruent/STIM_007.jpg	100
1832.048	0.732	731.9	congruent	Block2	congruent/STIM_007.jpg	99
1836.275	0.719	719.3	congruent	Block2	congruent/STIM_008.jpg	99
1839.127	0.617	617.0	congruent	Block2	congruent/STIM_008.jpg	99
1842.162	0.733	732.7	congruent	Block2	congruent/STIM_008.jpg	99
1845.381	0.498	498.0	congruent	Block2	congruent/STIM_008.jpg	100
1848.747	0.579	579.1	congruent	Block2	congruent/STIM_008.jpg	99
1852.908	0.573	572.8	congruent	Block2	congruent/STIM_009.jpg	99
1856.909	0.597	597.0	congruent	Block2	congruent/STIM_009.jpg	99
1861.345	0.529	529.0	congruent	Block2	congruent/STIM_009.jpg	100
1865.461	0.516	516.1	congruent	Block2	congruent/STIM_009.jpg	100
1868.495	0.576	576.3	congruent	Block2	congruent/STIM_009.jpg	100
1871.329	0.571	570.7	congruent	Block2	congruent/STIM_010.jpg	100
1874.998	0.795	794.6	congruent	Block2	congruent/STIM_010.jpg	100
1878.203	0.464	463.6	congruent	Block2	congruent/STIM_010.jpg	99
1880.706	0.673	673.3	congruent	Block2	congruent/STIM_010.jpg	100
1885.143	0.74	739.5	congruent	Block2	congruent/STIM_010.jpg	99
1889.508	0.811	810.9	congruent	Block2	congruent/STIM_011.jpg	99
1892.441	0.69	690.2	congruent	Block2	congruent/STIM_011.jpg	100
1896.188	0.61	610.2	congruent	Block2	congruent/STIM_011.jpg	99
1899.482	0.505	504.9	congruent	Block2	congruent/STIM_011.jpg	99
1902.448	0.607	606.6	congruent	Block2	congruent/STIM_011.jpg	100
1906.52	0.811	810.6	congruent	Block2	congruent/STIM_012.jpg	100
1910.001	0.56	559.9	congruent	Block2	congruent/STIM_012.jpg	99
1913.454	0.575	574.8	congruent	Block2	congruent/STIM_012.jpg	100
1916.585	0.635	634.7	congruent	Block2	congruent/STIM_012.jpg	100
1920.458	0.698	697.8	congruent	Block2	congruent/STIM_012.jpg	99
1923.712	0.818	817.6	congruent	Block2	congruent/STIM_013.jpg	99
1928.068	0.794	793.6	congruent	Block2	congruent/STIM_013.jpg	100
1931.741	0.629	629.1	congruent	Block2	congruent/STIM_013.jpg	100
1935.002	0.624	624.5	congruent	Block2	congruent/STIM_013.jpg	100
1939.539	0.645	644.7	congruent	Block2	congruent/STIM_013.jpg	99
1943.309	0.747	747.3	congruent	Block2	congruent/STIM_014.jpg	99
1946.734	0.486	485.9	congruent	Block2	congruent/STIM_014.jpg	99
1949.241	0.55	549.7	congruent	Block2	congruent/STIM_014.jpg	100
1951.902	0.733	732.9	congruent	Block2	congruent/STIM_014.jpg	100
1954.889	0.741	740.6	congruent	Block2	congruent/STIM_014.jpg	99
1958.649	0.572	572.1	congruent	Block2	congruent/STIM_015.jpg	99
1962.895	0.787	786.6	congruent	Block2	congruent/STIM_015.jpg	99
1966.069	0.52	519.8	congruent	Block2	congruent/STIM_015.jpg	99
1969.518	0.795	794.8	congruent	Block2	congruent/STIM_015.jpg	100
1973.548	0.564	563.6	congruent	Block2	congruent/STIM_015.jpg	99
1977.327	0.626	625.7	congruent	Block2	congruent/STIM_016.jpg	99
1981.536	0.484	484.0	congruent	Block2	congruent/STIM_016.jpg	99
1985.965	0.773	773.0	congruent	Block2	congruent/STIM_016.jpg	99
1989.864	0.467	467.4	congruent	Block2	congruent/STIM_016.jpg	99
1993.512	0.498	498.5	congruent	Block2	congruent/STIM_016.jpg	99
1997.07	0.809	809.3	congruent	Block2	congruent/STIM_017.jpg	99
1999.985	0.536	535.5	congruent	Block2	congruent/STIM_017.jpg	100
2003.86	0.503	503.4	congruent	Block2	congruent/STIM_017.jpg	100
2006.78	0.802	801.5	congruent	Block2	congruent/STIM_017.jpg	100
2010.116	0.731	730.6	congruent	Block2	congruent/STIM_017.jpg	99
2013.635	0.762	761.7	congruent	Block2	congruent/STIM_018.jpg	100
2016.856	0.766	766.5	congruent	Block2	congruent/STIM_018.jpg	99
2019.643	0.513	512.7	congruent	Block2	congruent/STIM_018.jpg	100
2022.481	0.714	713.9	congruent	Block2	congruent/STIM_018.jpg	100
2025.965	0.474	474.3	congruent	Block2	congruent/STIM_018.jpg	100
2028.722	0.563	562.8	congruent	Block2	congruent/STIM_019.jpg	100
2032.632	0.759	758.6	congruent	Block2	congruent/STIM_019.jpg	99
2035.797	0.576	576.0	congruent	Block2	congruent/STIM_019.jpg	99
2039.111	0.689	688.7	congruent	Block2	congruent/STIM_019.jpg	100
2042.423	0.459	459.4	congruent	Block2	congruent/STIM_019.jpg	100
2045.624	0.794	794.4	congruent	Block2	congruent/STIM_020.jpg	99
2049.116	0.736	736.0	congruent	Block2	congruent/STIM_020.jpg	99
2052.59	0.564	563.8	congruent	Block2	congruent/STIM_020.jpg	100
2055.614	0.647	646.9	congruent	Block2	congruent/STIM_020.jpg	99
2058.757	0.595	595.4	congruent	Block2	congruent/STIM_020.jpg	99
2061.802	0.691	691.2	congruent	Block2	congruent/STIM_021.jpg	100
2065.333	0.744	744.2	congruent	Block2	congruent/STIM_021.jpg	99
2069.753	0.754	754.4	congruent	Block2	congruent/STIM_021.jpg	100
2073.004	0.554	554.3	congruent	Block2	congruent/STIM_021.jpg	99
2077.538	0.662	662.1	congruent	Block2	congruent/STIM_021.jpg	99
2081.285	0.537	536.9	congruent	Block2	congruent/STIM_022.jpg	99
2085.489	0.685	685.4	congruent	Block2	congruent/STIM_022.jpg	99
2088.753	0.656	655.6	congruent	Block2	congruent/STIM_022.jpg	99
2091.586	0.708	707.9	congruent	Block2	congruent/STIM_022.jpg	99
2095.262	0.553	553.3	congruent	Block2	congruent/STIM_022.jpg	100
2097.928	0.735	735.3	congruent	Block2	congruent/STIM_023.jpg	100
2101.686	0.69	690.2	congruent	Block2	congruent/STIM_023.jpg	99
2104.499	0.544	544.3	congruent	Block2	congruent/STIM_023.jpg	99
2108.905	0.486	486.2	congruent	Block2	congruent/STIM_023.jpg	99
2112.819	0.799	799.1	congruent	Block2	congruent/STIM_023.jpg	99
2116.959	0.539	539.2	congruent	Block2	congruent/STIM_024.jpg	100
2120.603	0.802	802.5	congruent	Block2	congruent/STIM_024.jpg	100
2124.917	0.598	598.0	congruent	Block2	congruent/STIM_024.jpg	100
2128.343	0.787	786.9	congruent	Block2	congruent/STIM_024.jpg	100
2132.858	0.549	549.0	congruent	Block2	congruent/STIM_024.jpg	99
2136.603	0.627	626.8	congruent	Block2	congruent/STIM_025.jpg	100
2139.475	0.616	616.4	congruent	Block2	congruent/STIM_025.jpg	100
2142.536	0.503	503.5	congruent	Block2	congruent/STIM_025.jpg	99
2145.97	0.591	590.7	congruent	Block2	congruent/STIM_025.jpg	99
2150.318	0.66	659.8	congruent	Block2	congruent/STIM_025.jpg	100
2154.895	0.482	482.5	congruent	Block2	congruent/STIM_026.jpg	100
2158.767	0.805	805.2	congruent	Block2	congruent/STIM_026.jpg	99
2162.921	0.686	686.2	congruent	Block2	congruent/STIM_026.jpg	99
2166.052	0.541	540.8	congruent	Block2	congruent/STIM_026.jpg	100
2168.739	0.551	550.6	congruent	Block2	congruent/STIM_026.jpg	100
2171.606	0.57	570.0	congruent	Block2	congruent/STIM_027.jpg	100
2174.923	0.551	551.0	congruent	Block2	congruent/STIM_027.jpg	99
2178.459	0.65	650.5	congruent	Block2	congruent/STIM_027.jpg	99
2182.777	0.763	762.6	congruent	Block2	congruent/STIM_027.jpg	99
2187.488	0.801	801.0	congruent	Block2	congruent/STIM_027.jpg	99
2190.793	0.799	798.8	congruent	Block2	congruent/STIM_028.jpg	99
2195.421	0.736	735.9	congruent	Block2	congruent/STIM_028.jpg	100
2198.712	0.767	767.3	congruent	Block2	congruent/STIM_028.jpg	100
2201.828	0.468	468.5	congruent	Block2	congruent/STIM_028.jpg	99
2205.71	0.68	679.9	congruent	Block2	congruent/STIM_028.jpg	100
2208.482	0.604	603.7	congruent	Block2	congruent/STIM_029.jpg	100
2212.435	0.544	543.6	congruent	Block2	congruent/STIM_029.jpg	99
2215.767	0.668	668.0	congruent	Block2	congruent/STIM_029.jpg	99
2219.88	0.596	595.7	congruent	Block2	congruent/STIM_029.jpg	100
2223.089	0.728	728.4	congruent	Block2	congruent/STIM_029.jpg	99
2227.61	0.783	782.7	incongruent	Block3	incongruent/STIM_000.jpg	99
2230.544	0.483	482.9	incongruent	Block3	incongruent/STIM_000.jpg	100
2233.385	0.668	668.5	incongruent	Block3	incongruent/STIM_000.jpg	100
2236.19	0.519	519.2	incongruent	Block3	incongruent/STIM_000.jpg	99
2240.702	0.598	598.0	incongruent	Block3	incongruent/STIM_000.jpg	99
2244.996	0.926	926.4	incongruent	Block3	incongruent/STIM_001.jpg	99
2248.654	0.51	510.1	incongruent	Block3	incongruent/STIM_001.jpg	100
2253.157	0.68	679.9	incongruent	Block3	incongruent/STIM_001.jpg	100
2257.578	0.5	499.7	incongruent	Block3	incongruent/STIM_001.jpg	100
2261.066	0.641	640.7	incongruent	Block3	incongruent/STIM_001.jpg	99
2264.032	0.611	611.0	incongruent	Block3	incongruent/STIM_002.jpg	100
2268.111	0.846	845.6	incongruent	Block3	incongruent/STIM_002.jpg	100
2271.437	0.742	742.1	incongruent	Block3	incongruent/STIM_002.jpg	100
2274.543	0.895	895.4	incongruent	Block3	incongruent/STIM_002.jpg	100
2279.098	0.704	704.0	incongruent	Block3	incongruent/STIM_002.jpg	99
2283.355	0.959	959.1	incongruent	Block3	incongruent/STIM_003.jpg	100
2287.17	0.829	829.3	incongruent	Block3	incongruent/STIM_003.jpg	100
2290.708	0.484	483.5	incongruent	Block3	incongruent/STIM_003.jpg	100
2294.829	0.811	811.0	incongruent	Block3	incongruent/STIM_003.jpg	99
2299.591	0.564	564.2	incongruent	Block3	incongruent/STIM_003.jpg	100
2304.068	0.663	662.8	incongruent	Block3	incongruent/STIM_004.jpg	100
2307.676	0.49	489.7	incongruent	Block3	incongruent/STIM_004.jpg	100
2311.993	0.619	619.4	incongruent	Block3	incongruent/STIM_004.jpg	100
2315.373	0.868	868.5	incongruent	Block3	incongruent/STIM_004.jpg	100
2318.739	0.938	938.2	incongruent	Block3	incongruent/STIM_004.jpg	100
2321.699	0.505	505.1	incongruent	Block3	incongruent/STIM_005.jpg	99
2325.023	0.791	791.2	incongruent	Block3	incongruent/STIM_005.jpg	99
2328.947	0.889	889.1	incongruent	Block3	incongruent/STIM_005.jpg	99
2332.96	0.57	570.1	incongruent	Block3	incongruent/STIM_005.jpg	100
2336.644	0.867	866.7	incongruent	Block3	incongruent/STIM_005.jpg	100
2340.209	0.852	851.9	incongruent	Block3	incongruent/STIM_006.jpg	99
2344.745	0.711	711.4	incongruent	Block3	incongruent/STIM_006.jpg	100
2349.272	0.92	920.2	incongruent	Block3	incongruent/STIM_006.jpg	99
2354.009	0.553	553.2	incongruent	Block3	incongruent/STIM_006.jpg	99
2356.631	0.948	948.0	incongruent	Block3	incongruent/STIM_006.jpg	99
2359.963	0.761	761.2	incongruent	Block3	incongruent/STIM_007.jpg	100
2363.117	0.711	711.0	incongruent	Block3	incongruent/STIM_007.jpg	100
2366.276	0.818	817.8	incongruent	Block3	incongruent/STIM_007.jpg	100
2370.804	0.465	464.8	incongruent	Block3	incongruent/STIM_007.jpg	100
2374.341	0.532	532.1	incongruent	Block3	incongruent/STIM_007.jpg	100
2378.614	0.506	505.8	incongruent	Block3	incongruent/STIM_008.jpg	99
2382.127	0.562	562.5	incongruent	Block3	incongruent/STIM_008.jpg	100
2385.676	0.827	827.1	incongruent	Block3	incongruent/STIM_008.jpg	99
2389.128	0.889	888.8	incongruent	Block3	incongruent/STIM_008.jpg	99
2392.675	0.571	571.0	incongruent	Block3	incongruent/STIM_008.jpg	99
2395.963	0.757	757.4	incongruent	Block3	incongruent/STIM_009.jpg	99
2399.92	0.629	629.1	incongruent	Block3	incongruent/STIM_009.jpg	100
2403.915	0.707	706.8	incongruent	Block3	incongruent/STIM_009.jpg	100
2407.695	0.604	603.7	incongruent	Block3	incongruent/STIM_009.jpg	99
2410.896	0.737	737.2	incongruent	Block3	incongruent/STIM_009.jpg	100
2415.467	0.53	530.2	incongruent	Block3	incongruent/STIM_010.jpg	99
2418.305	0.516	516.4	incongruent	Block3	incongruent/STIM_010.jpg	100
2420.986	0.682	681.7	incongruent	Block3	incongruent/STIM_010.jpg	99
2423.899	0.745	745.4	incongruent	Block3	incongruent/STIM_010.jpg	100
2428.449	0.546	546.5	incongruent	Block3	incongruent/STIM_010.jpg	99
2431.125	0.782	781.6	incongruent	Block3	incongruent/STIM_011.jpg	99
2433.959	0.766	765.5	incongruent	Block3	incongruent/STIM_011.jpg	99
2438.171	0.738	738.2	incongruent	Block3	incongruent/STIM_011.jpg	100
2441.527	0.74	739.5	incongruent	Block3	incongruent/STIM_011.jpg	100
2445.939	0.496	496.2	incongruent	Block3	incongruent/STIM_011.jpg	100
2448.813	0.547	547.1	incongruent	Block3	incongruent/STIM_012.jpg	99
2451.477	0.901	901.2	incongruent	Block3	incongruent/STIM_012.jpg	99
2454.794	0.56	560.3	incongruent	Block3	incongruent/STIM_012.jpg	99
2457.781	0.884	884.2	incongruent	Block3	incongruent/STIM_012.jpg	99
2461.201	0.866	865.8	incongruent	Block3	incongruent/STIM_012.jpg	100
2465.226	0.721	720.7	incongruent	Block3	incongruent/STIM_013.jpg	99
2469.256	0.621	621.3	incongruent	Block3	incongruent/STIM_013.jpg	99
2472.848	0.874	874.3	incongruent	Block3	incongruent/STIM_013.jpg	99
2476.931	0.574	574.3	incongruent	Block3	incongruent/STIM_013.jpg	100
2479.533	0.944	943.6	incongruent	Block3	incongruent/STIM_013.jpg	100
2484.367	0.752	752.5	incongruent	Block3	incongruent/STIM_014.jpg	100
2487.363	0.869	869.2	incongruent	Block3	incongruent/STIM_014.jpg	100
2490.958	0.933	932.6	incongruent	Block3	incongruent/STIM_014.jpg	100
2495.431	0.632	631.7	incongruent	Block3	incongruent/STIM_014.jpg	99
2498.866	0.71	709.9	incongruent	Block3	incongruent/STIM_014.jpg	99
2502.02	0.509	508.9	incongruent	Block3	incongruent/STIM_015.jpg	100
2504.674	0.612	612.3	incongruent	Block3	incongruent/STIM_015.jpg	100
2507.463	0.506	506.2	incongruent	Block3	incongruent/STIM_015.jpg	100
2511.828	0.471	471.0	incongruent	Block3	incongruent/STIM_015.jpg	100
2514.709	0.647	646.8	incongruent	Block3	incongruent/STIM_015.jpg	99
2517.996	0.511	511.0	incongruent	Block3	incongruent/STIM_016.jpg	99
2522.446	0.931	931.4	incongruent	Block3	incongruent/STIM_016.jpg	100
2526.966	0.757	756.6	incongruent	Block3	incongruent/STIM_016.jpg	99
2531.132	0.719	719.0	incongruent	Block3	incongruent/STIM_016.jpg	100
2534.534	0.515	515.2	incongruent	Block3	incongruent/STIM_016.jpg	100
2538.898	0.655	655.1	incongruent	Block3	incongruent/STIM_017.jpg	100
2543.408	0.812	811.6	incongruent	Block3	incongruent/STIM_017.jpg	99
2547.888	0.546	546.5	incongruent	Block3	incongruent/STIM_017.jpg	100
2550.577	0.916	916.1	incongruent	Block3	incongruent/STIM_017.jpg	99
2554.568	0.507	507.0	incongruent	Block3	incongruent/STIM_017.jpg	100
2558.061	0.662	661.8	incongruent	Block3	incongruent/STIM_018.jpg	100
2561.843	0.466	465.5	incongruent	Block3	incongruent/STIM_018.jpg	99
2564.356	0.485	485.0	incongruent	Block3	incongruent/STIM_018.jpg	99
2568.714	0.564	564.5	incongruent	Block3	incongruent/STIM_018.jpg	100
2571.279	0.784	783.5	incongruent	Block3	incongruent/STIM_018.jpg	100
2574.365	0.51	509.7	incongruent	Block3	incongruent/STIM_019.jpg	99
2577.994	0.796	795.6	incongruent	Block3	incongruent/STIM_019.jpg	99
2581.047	0.902	902.0	incongruent	Block3	incongruent/STIM_019.jpg	99
2585.375	0.597	597.4	incongruent	Block3	incongruent/STIM_019.jpg	100
2588.57	0.758	758.0	incongruent	Block3	incongruent/STIM_019.jpg	100
2592.702	0.722	721.8	incongruent	Block3	incongruent/STIM_020.jpg	99
2597.314	0.502	502.2	incongruent	Block3	incongruent/STIM_020.jpg	99
2601.072	0.842	842.0	incongruent	Block3	incongruent/STIM_020.jpg	100
2605.286	0.898	898.2	incongruent	Block3	incongruent/STIM_020.jpg	100
2608.707	0.544	544.3	incongruent	Block3	incongruent/STIM_020.jpg	99
2612.073	0.471	471.4	incongruent	Block3	incongruent/STIM_021.jpg	100
2616.522	0.52	519.5	incongruent	Block3	incongruent/STIM_021.jpg	100
2619.527	0.836	835.6	incongruent	Block3	incongruent/STIM_021.jpg	99
2623.701	0.846	845.5	incongruent	Block3	incongruent/STIM_021.jpg	100
2626.64	0.825	824.9	incongruent	Block3	incongruent/STIM_021.jpg	99
2631.036	0.699	699.4	incongruent	Block3	incongruent/STIM_022.jpg	99
2633.906	0.926	926.2	incongruent	Block3	incongruent/STIM_022.jpg	100
2638.114	0.57	569.8	incongruent	Block3	incongruent/STIM_022.jpg	99
2642.087	0.767	767.1	incongruent	Block3	incongruent/STIM_022.jpg	100
2646.294	0.591	591.4	incongruent	Block3	incongruent/STIM_022.jpg	99
2650.342	0.936	935.7	incongruent	Block3	incongruent/STIM_023.jpg	100
2654.915	0.865	865.4	incongruent	Block3	incongruent/STIM_023.jpg	100
2658.983	0.706	706.5	incongruent	Block3	incongruent/STIM_023.jpg	99
2661.782	0.581	580.7	incongruent	Block3	incongruent/STIM_023.jpg	100
2665.543	0.636	636.2	incongruent	Block3	incongruent/STIM_023.jpg	100
2668.967	0.843	843.0	incongruent	Block3	incongruent/STIM_024.jpg	100
2671.964	0.567	567.3	incongruent	Block3	incongruent/STIM_024.jpg	100
2675.613	0.803	803.2	incongruent	Block3	incongruent/STIM_024.jpg	99
2679.435	0.705	704.8	incongruent	Block3	incongruent/STIM_024.jpg	100
2683.366	0.506	506.2	incongruent	Block3	incongruent/STIM_024.jpg	99
2686.476	0.888	888.4	incongruent	Block3	incongruent/STIM_025.jpg	100
2689.667	0.85	850.0	incongruent	Block3	incongruent/STIM_025.jpg	100
2693.228	0.777	777.0	incongruent	Block3	incongruent/STIM_025.jpg	99
2696.502	0.853	853.1	incongruent	Block3	incongruent/STIM_025.jpg	99
2700.156	0.656	656.2	incongruent	Block3	incongruent/STIM_025.jpg	100
2704.734	0.922	921.7	incongruent	Block3	incongruent/STIM_026.jpg	100
2707.967	0.79	789.7	incongruent	Block3	incongruent/STIM_026.jpg	100
2711.157	0.696	696.2	incongruent	Block3	incongruent/STIM_026.jpg	100
2714.363	0.556	555.9	incongruent	Block3	incongruent/STIM_026.jpg	99
2718.276	0.562	562.5	incongruent	Block3	incongruent/STIM_026.jpg	100
2722.09	0.94	939.7	incongruent	Block3	incongruent/STIM_027.jpg	99
2726.647	0.493	492.6	incongruent	Block3	incongruent/STIM_027.jpg	99
2730.22	0.822	822.1	incongruent	Block3	incongruent/STIM_027.jpg	99
2734.855	0.527	526.6	incongruent	Block3	incongruent/STIM_027.jpg	100
2738.828	0.549	549.0	incongruent	Block3	incongruent/STIM_027.jpg	99
2742.836	0.585	585.2	incongruent	Block3	incongruent/STIM_028.jpg	99
2745.441	0.806	806.3	incongruent	Block3	incongruent/STIM_028.jpg	100
2749.683	0.684	683.5	incongruent	Block3	incongruent/STIM_028.jpg	99
2753.888	0.493	492.6	incongruent	Block3	incongruent/STIM_028.jpg	100
2758.21	0.574	573.9	incongruent	Block3	incongruent/STIM_028.jpg	99
2761.389	0.763	763.2	incongruent	Block3	incongruent/STIM_029.jpg	99
2765.107	0.667	667.0	incongruent	Block3	incongruent/STIM_029.jpg	100
2769.651	0.512	512.4	incongruent	Block3	incongruent/STIM_029.jpg	100
2774.094	0.562	562.4	incongruent	Block3	incongruent/STIM_029.jpg	100
2777.78	0.531	531.2	incongruent	Block3	incongruent/STIM_029.jpg	99
2781.177	0.76	760.4	congruent	Block3	congruent/STIM_000.jpg	99
2784.264	0.804	804.4	congruent	Block3	congruent/STIM_000.jpg	100
2787.085	0.57	569.6	congruent	Block3	congruent/STIM_000.jpg	99
2790.418	0.482	482.2	congruent	Block3	congruent/STIM_000.jpg	99
2794.65	0.672	672.5	congruent	Block3	congruent/STIM_000.jpg	99
2797.909	0.46	459.7	congruent	Block3	congruent/STIM_001.jpg	99
2801.828	0.588	587.6	congruent	Block3	congruent/STIM_001.jpg	100
2806.023	0.522	521.9	congruent	Block3	congruent/STIM_001.jpg	99
2809.088	0.463	462.9	congruent	Block3	congruent/STIM_001.jpg	100
2811.86	0.67	670.3	congruent	Block3	congruent/STIM_001.jpg	100
2814.974	0.748	748.1	congruent	Block3	congruent/STIM_002.jpg	100
2819.12	0.572	571.5	congruent	Block3	congruent/STIM_002.jpg	100
2823.267	0.625	625.2	congruent	Block3	congruent/STIM_002.jpg	99
2826.587	0.794	793.8	congruent	Block3	congruent/STIM_002.jpg	99
2830.312	0.542	542.1	congruent	Block3	congruent/STIM_002.jpg	100
2834.212	0.767	767.4	congruent	Block3	congruent/STIM_003.jpg	100
2837.587	0.545	544.6	congruent	Block3	congruent/STIM_003.jpg	100
2841.376	0.725	725.2	congruent	Block3	congruent/STIM_003.jpg	99
2844.613	0.552	552.2	congruent	Block3	congruent/STIM_003.jpg	100
2848.711	0.549	549.0	congruent	Block3	congruent/STIM_003.jpg	100
2852.149	0.771	770.8	congruent	Block3	congruent/STIM_004.jpg	100
2856.625	0.791	791.1	congruent	Block3	congruent/STIM_004.jpg	99
2861.196	0.766	766.1	congruent	Block3	congruent/STIM_004.jpg	100
2865.096	0.702	701.6	congruent	Block3	congruent/STIM_004.jpg	99
2868.77	0.458	458.0	congruent	Block3	congruent/STIM_004.jpg	99
2871.338	0.807	806.8	congruent	Block3	congruent/STIM_005.jpg	99
2875.897	0.508	507.7	congruent	Block3	congruent/STIM_005.jpg	99
2880.084	0.498	497.8	congruent	Block3	congruent/STIM_005.jpg	100
2883.113	0.697	696.6	congruent	Block3	congruent/STIM_005.jpg	99
2886.431	0.491	491.0	congruent	Block3	congruent/STIM_005.jpg	100
2889.939	0.604	603.5	congruent	Block3	congruent/STIM_006.jpg	100
2894.146	0.528	527.6	congruent	Block3	congruent/STIM_006.jpg	99
2897.334	0.601	601.0	congruent	Block3	congruent/STIM_006.jpg	100
2900.454	0.55	549.6	congruent	Block3	congruent/STIM_006.jpg	100
2903.201	0.744	743.8	congruent	Block3	congruent/STIM_006.jpg	100
2907.943	0.655	654.8	congruent	Block3	congruent/STIM_007.jpg	100
2911.756	0.606	606.2	congruent	Block3	congruent/STIM_007.jpg	100
2915.29	0.787	787.2	congruent	Block3	congruent/STIM_007.jpg	99
2919.982	0.614	613.9	congruent	Block3	congruent/STIM_007.jpg	100
2923.104	0.723	722.8	congruent	Block3	congruent/STIM_007.jpg	100
2927.269	0.81	810.2	congruent	Block3	congruent/STIM_008.jpg	100
2931.619	0.468	468.0	congruent	Block3	congruent/STIM_008.jpg	100
2934.746	0.484	484.1	congruent	Block3	congruent/STIM_008.jpg	99
2937.499	0.524	524.3	congruent	Block3	congruent/STIM_008.jpg	99
2940.845	0.671	670.7	congruent	Block3	congruent/STIM_008.jpg	100
2943.729	0.535	535.3	congruent	Block3	congruent/STIM_009.jpg	100
2946.395	0.768	768.0	congruent	Block3	congruent/STIM_009.jpg	100
2949.488	0.487	487.0	congruent	Block3	congruent/STIM_009.jpg	100
2953.651	0.786	786.3	congruent	Block3	congruent/STIM_009.jpg	99
2956.6	0.469	468.7	congruent	Block3	congruent/STIM_009.jpg	99
2960.508	0.709	708.6	congruent	Block3	congruent/STIM_010.jpg	99
2964.16	0.629	628.9	congruent	Block3	congruent/STIM_010.jpg	100
2967.558	0.75	749.8	congruent	Block3	congruent/STIM_010.jpg	100
2971.798	0.506	505.7	congruent	Block3	congruent/STIM_010.jpg	99
2974.514	0.501	501.2	congruent	Block3	congruent/STIM_010.jpg	99
2978.823	0.726	726.2	congruent	Block3	congruent/STIM_011.jpg	99
2982.956	0.475	475.1	congruent	Block3	congruent/STIM_011.jpg	100
2986.684	0.585	584.6	congruent	Block3	congruent/STIM_011.jpg	100
2990.955	0.819	818.8	congruent	Block3	congruent/STIM_011.jpg	100
2993.998	0.703	702.9	congruent	Block3	congruent/STIM_011.jpg	100
2998.087	0.503	502.7	congruent	Block3	congruent/STIM_012.jpg	100
3001.828	0.674	673.5	congruent	Block3	congruent/STIM_012.jpg	100
3005.192	0.464	463.9	congruent	Block3	congruent/STIM_012.jpg	99
3008.637	0.503	503.4	congruent	Block3	congruent/STIM_012.jpg	100
3012.386	0.776	776.0	congruent	Block3	congruent/STIM_012.jpg	99
3015.234	0.822	821.6	congruent	Block3	congruent/STIM_013.jpg	100
3018.734	0.773	772.9	congruent	Block3	congruent/STIM_013.jpg	100
3021.957	0.789	789.2	congruent	Block3	congruent/STIM_013.jpg	100
3026.271	0.603	603.0	congruent	Block3	congruent/STIM_013.jpg	100
3028.896	0.487	487.3	congruent	Block3	congruent/STIM_013.jpg	100
3032.962	0.506	505.6	congruent	Block3	congruent/STIM_014.jpg	99
3036.23	0.799	799.4	congruent	Block3	congruent/STIM_014.jpg	99
3039.991	0.71	710.5	congruent	Block3	congruent/STIM_014.jpg	99
3042.799	0.756	755.5	congruent	Block3	congruent/STIM_014.jpg	100
3046.093	0.815	815.1	congruent	Block3	congruent/STIM_014.jpg	100
3049.467	0.525	525.2	congruent	Block3	congruent/STIM_015.jpg	100
3053.214	0.605	605.0	congruent	Block3	congruent/STIM_015.jpg	99
3056.493	0.738	737.6	congruent	Block3	congruent/STIM_015.jpg	99
3061.189	0.632	631.7	congruent	Block3	congruent/STIM_015.jpg	100
3064.886	0.655	654.6	congruent	Block3	congruent/STIM_015.jpg	99
3068.529	0.725	725.0	congruent	Block3	congruent/STIM_016.jpg	99
3072.407	0.767	766.6	congruent	Block3	congruent/STIM_016.jpg	99
3075.428	0.543	543.2	congruent	Block3	congruent/STIM_016.jpg	100
3078.522	0.731	730.7	congruent	Block3	congruent/STIM_016.jpg	99
3081.888	0.506	505.7	congruent	Block3	congruent/STIM_016.jpg	100
3085.34	0.543	542.8	congruent	Block3	congruent/STIM_017.jpg	99
3088.809	0.699	698.8	congruent	Block3	congruent/STIM_017.jpg	99
3091.707	0.495	494.9	congruent	Block3	congruent/STIM_017.jpg	100
3096.013	0.508	508.1	congruent	Block3	congruent/STIM_017.jpg	99
3099.635	0.761	760.6	congruent	Block3	congruent/STIM_017.jpg	99
3102.658	0.786	785.8	congruent	Block3	congruent/STIM_018.jpg	99
3107.049	0.572	572.2	congruent	Block3	congruent/STIM_018.jpg	99
3109.806	0.814	814.3	congruent	Block3	congruent/STIM_018.jpg	99
3114.465	0.702	701.8	congruent	Block3	congruent/STIM_018.jpg	100
3118.449	0.587	587.0	congruent	Block3	congruent/STIM_018.jpg	99
3122.169	0.468	467.6	congruent	Block3	congruent/STIM_019.jpg	100
3125.742	0.525	525.0	congruent	Block3	congruent/STIM_019.jpg	99
3128.715	0.784	784.1	congruent	Block3	congruent/STIM_019.jpg	99
3132.445	0.464	464.0	congruent	Block3	congruent/STIM_019.jpg	99
3136.877	0.687	687.2	congruent	Block3	congruent/STIM_019.jpg	100
3141.331	0.466	466.2	congruent	Block3	congruent/STIM_020.jpg	99
3144.242	0.699	699.2	congruent	Block3	congruent/STIM_020.jpg	99
3148.917	0.789	789.1	congruent	Block3	congruent/STIM_020.jpg	99
3152.688	0.532	532.3	congruent	Block3	congruent/STIM_020.jpg	100
3155.994	0.806	806.5	congruent	Block3	congruent/STIM_020.jpg	100
3159.904	0.674	673.7	congruent	Block3	congruent/STIM_021.jpg	100
3163.166	0.724	724.1	congruent	Block3	congruent/STIM_021.jpg	100
3167.017	0.472	471.7	congruent	Block3	congruent/STIM_021.jpg	100
3169.573	0.731	731.0	congruent	Block3	congruent/STIM_021.jpg	99
3173.534	0.8	799.7	congruent	Block3	congruent/STIM_021.jpg	99
3176.353	0.714	714.0	congruent	Block3	congruent/STIM_022.jpg	99
3179.556	0.748	747.8	congruent	Block3	congruent/STIM_022.jpg	100
3184.0	0.542	542.3	congruent	Block3	congruent/STIM_022.jpg	100
3188.075	0.711	711.3	congruent	Block3	congruent/STIM_022.jpg	99
3191.026	0.516	516.5	congruent	Block3	congruent/STIM_022.jpg	100
3195.395	0.665	665.0	congruent	Block3	congruent/STIM_023.jpg	100
3199.147	0.47	470.2	congruent	Block3	congruent/STIM_023.jpg	100
3202.375	0.625	625.1	congruent	Block3	congruent/STIM_023.jpg	100
3206.475	0.638	638.5	congruent	Block3	congruent/STIM_023.jpg	100
3210.9	0.717	717.4	congruent	Block3	congruent/STIM_023.jpg	100
3214.834	0.515	515.0	congruent	Block3	congruent/STIM_024.jpg	100
3218.952	0.623	622.8	congruent	Block3	congruent/STIM_024.jpg	99
3222.688	0.775	774.6	congruent	Block3	congruent/STIM_024.jpg	100
3226.841	0.618	618.2	congruent	Block3	congruent/STIM_024.jpg	99
3230.118	0.773	773.0	congruent	Block3	congruent/STIM_024.jpg	99
3234.851	0.741	741.4	congruent	Block3	congruent/STIM_025.jpg	99
3237.984	0.804	803.7	congruent	Block3	congruent/STIM_025.jpg	100
3242.717	0.591	590.8	congruent	Block3	congruent/STIM_025.jpg	100
3245.849	0.789	788.6	congruent	Block3	congruent/STIM_025.jpg	100
3249.778	0.624	623.8	congruent	Block3	congruent/STIM_025.jpg	100
3253.985	0.59	590.4	congruent	Block3	congruent/STIM_026.jpg	99
3258.304	0.64	639.8	congruent	Block3	congruent/STIM_026.jpg	99
3262.205	0.652	651.6	congruent	Block3	congruent/STIM_026.jpg	100
3265.065	0.716	715.7	congruent	Block3	congruent/STIM_026.jpg	100
3268.394	0.802	801.6	congruent	Block3	congruent/STIM_026.jpg	100
3271.375	0.624	624.1	congruent	Block3	congruent/STIM_027.jpg	99
3275.616	0.659	659.1	congruent	Block3	congruent/STIM_027.jpg	100
3278.877	0.643	642.8	congruent	Block3	congruent/STIM_027.jpg	99
3282.007	0.686	685.7	congruent	Block3	congruent/STIM_027.jpg	100
3285.121	0.519	518.9	congruent	Block3	congruent/STIM_027.jpg	99
3288.438	0.56	559.5	congruent	Block3	congruent/STIM_028.jpg	100
3292.845	0.582	582.3	congruent	Block3	congruent/STIM_028.jpg	99
3296.387	0.474	473.6	congruent	Block3	congruent/STIM_028.jpg	100
3299.357	0.77	769.8	congruent	Block3	congruent/STIM_028.jpg	99
3303.116	0.592	592.3	congruent	Block3	congruent/STIM_028.jpg	100
3306.067	0.532	532.4	congruent	Block3	congruent/STIM_029.jpg	99
3308.612	0.806	806.4	congruent	Block3	congruent/STIM_029.jpg	100
3311.968	0.633	633.3	congruent	Block3	congruent/STIM_029.jpg	100
3315.343	0.667	667.2	congruent	Block3	congruent/STIM_029.jpg	99
3319.216	0.723	723.2	congruent	Block3	congruent/STIM_029.jpg	99
