onset	duration	accuracy_binary	trial_type	learning_stage	stimulus
0.0	1.348	1	incongruent	Block1	incongruent/STIM_000.jpg
3.577	0.964	1	incongruent	Block1	incongruent/STIM_000.jpg
6.939	0.672	1	incongruent	Block1	incongruent/STIM_000.jpg
10.285	0.627	0	incongruent	Block1	incongruent/STIM_000.jpg
14.635	0.761	1	incongruent	Block1	incongruent/STIM_000.jpg
18.972	0.954	1	incongruent	Block1	incongruent/STIM_001.jpg
23.218	0.975	0	incongruent	Block1	incongruent/STIM_001.jpg
27.612	0.939	0	incongruent	Block1	incongruent/STIM_001.jpg
32.314	0.621	1	incongruent	Block1	incongruent/STIM_001.jpg
36.357	0.732	1	incongruent	Block1	incongruent/STIM_001.jpg
39.249	0.861	1	incongruent	Block1	incongruent/STIM_002.jpg
42.572	0.885	1	incongruent	Block1	incongruent/STIM_002.jpg
46.624	1.022	1	incongruent	Block1	incongruent/STIM_002.jpg
51.15	0.661	1	incongruent	Block1	incongruent/STIM_002.jpg
54.504	0.892	1	incongruent	Block1	incongruent/STIM_002.jpg
58.428	1.339	1	incongruent	Block1	incongruent/STIM_003.jpg
63.638	1.192	1	incongruent	Block1	incongruent/STIM_003.jpg
67.737	0.767	1	incongruent	Block1	incongruent/STIM_003.jpg
70.901	1.103	1	incongruent	Block1	incongruent/STIM_003.jpg
74.638	0.52	1	incongruent	Block1	incongruent/STIM_003.jpg
78.932	1.248	1	incongruent	Block1	incongruent/STIM_004.jpg
82.222	0.899	1	incongruent	Block1	incongruent/STIM_004.jpg
85.567	0.671	1	incongruent	Block1	incongruent/STIM_004.jpg
89.4	1.069	0	incongruent	Block1	incongruent/STIM_004.jpg
93.506	0.612	1	incongruent	Block1	incongruent/STIM_004.jpg
96.746	0.729	1	incongruent	Block1	incongruent/STIM_005.jpg
101.019	1.2	1	incongruent	Block1	incongruent/STIM_005.jpg
104.39	0.866	1	incongruent	Block1	incongruent/STIM_005.jpg
107.632	0.685	1	incongruent	Block1	incongruent/STIM_005.jpg
110.877	0.872	1	incongruent	Block1	incongruent/STIM_005.jpg
113.997	1.234	1	incongruent	Block1	incongruent/STIM_006.jpg
117.663	1.082	1	incongruent	Block1	incongruent/STIM_006.jpg
122.089	0.949	1	incongruent	Block1	incongruent/STIM_006.jpg
125.928	1.007	1	incongruent	Block1	incongruent/STIM_006.jpg
130.255	0.869	1	incongruent	Block1	incongruent/STIM_006.jpg
133.717	0.949	1	incongruent	Block1	incongruent/STIM_007.jpg
138.202	0.665	1	incongruent	Block1	incongruent/STIM_007.jpg
140.926	0.813	1	incongruent	Block1	incongruent/STIM_007.jpg
144.614	0.915	1	incongruent	Block1	incongruent/STIM_007.jpg
148.757	0.794	1	incongruent	Block1	incongruent/STIM_007.jpg
152.544	0.998	1	incongruent	Block1	incongruent/STIM_008.jpg
157.527	1.176	1	incongruent	Block1	incongruent/STIM_008.jpg
161.327	0.89	1	incongruent	Block1	incongruent/STIM_008.jpg
164.407	1.083	1	incongruent	Block1	incongruent/STIM_008.jpg
169.181	0.59	1	incongruent	Block1	incongruent/STIM_008.jpg
173.581	1.01	1	incongruent	Block1	incongruent/STIM_009.jpg
177.817	0.843	1	incongruent	Block1	incongruent/STIM_009.jpg
181.064	0.931	1	incongruent	Block1	incongruent/STIM_009.jpg
184.044	0.596	1	incongruent	Block1	incongruent/STIM_009.jpg
188.163	0.837	1	incongruent	Block1	incongruent/STIM_009.jpg
192.715	1.146	1	incongruent	Block1	incongruent/STIM_010.jpg
196.336	0.657	1	incongruent	Block1	incongruent/STIM_010.jpg
199.498	1.066	1	incongruent	Block1	incongruent/STIM_010.jpg
204.298	0.55	1	incongruent	Block1	incongruent/STIM_010.jpg
207.002	0.677	1	incongruent	Block1	incongruent/STIM_010.jpg
211.559	1.229	1	incongruent	Block1	incongruent/STIM_011.jpg
216.32	1.283	1	incongruent	Block1	incongruent/STIM_011.jpg
219.985	0.891	1	incongruent	Block1	incongruent/STIM_011.jpg
224.501	0.674	1	incongruent	Block1	incongruent/STIM_011.jpg
227.63	0.676	1	incongruent	Block1	incongruent/STIM_011.jpg
230.672	0.894	1	incongruent	Block1	incongruent/STIM_012.jpg
234.096	1.019	1	incongruent	Block1	incongruent/STIM_012.jpg
237.292	0.907	1	incongruent	Block1	incongruent/STIM_012.jpg
241.636	0.826	1	incongruent	Block1	incongruent/STIM_012.jpg
245.027	0.693	1	incongruent	Block1	incongruent/STIM_012.jpg
248.693	0.86	1	incongruent	Block1	incongruent/STIM_013.jpg
252.769	0.667	1	incongruent	Block1	incongruent/STIM_013.jpg
256.151	0.625	1	incongruent	Block1	incongruent/STIM_013.jpg
259.646	0.788	1	incongruent	Block1	incongruent/STIM_013.jpg
263.849	0.553	1	incongruent	Block1	incongruent/STIM_013.jpg
266.824	0.774	1	incongruent	Block1	incongruent/STIM_014.jpg
270.29	1.235	1	incongruent	Block1	incongruent/STIM_014.jpg
273.975	0.818	1	incongruent	Block1	incongruent/STIM_014.jpg
278.309	0.712	1	incongruent	Block1	incongruent/STIM_014.jpg
283.021	0.753	1	incongruent	Block1	incongruent/STIM_014.jpg
287.617	1.226	1	incongruent	Block1	incongruent/STIM_015.jpg
292.32	1.146	1	incongruent	Block1	incongruent/STIM_015.jpg
296.904	0.658	1	incongruent	Block1	incongruent/STIM_015.jpg
300.033	0.997	1	incongruent	Block1	incongruent/STIM_015.jpg
304.05	0.815	1	incongruent	Block1	incongruent/STIM_015.jpg
308.55	1.059	1	incongruent	Block1	incongruent/STIM_016.jpg
313.207	1.009	1	incongruent	Block1	incongruent/STIM_016.jpg
316.921	0.784	1	incongruent	Block1	incongruent/STIM_016.jpg
321.197	0.753	1	incongruent	Block1	incongruent/STIM_016.jpg
324.625	0.601	1	incongruent	Block1	incongruent/STIM_016.jpg
327.424	0.907	1	incongruent	Block1	incongruent/STIM_017.jpg
331.514	1.143	1	incongruent	Block1	incongruent/STIM_017.jpg
335.133	1.185	1	incongruent	Block1	incongruent/STIM_017.jpg
339.043	1.059	1	incongruent	Block1	incongruent/STIM_017.jpg
343.97	0.882	1	incongruent	Block1	incongruent/STIM_017.jpg
347.476	1.06	1	incongruent	Block1	incongruent/STIM_018.jpg
352.015	0.878	1	incongruent	Block1	incongruent/STIM_018.jpg
355.328	1.154	1	incongruent	Block1	incongruent/STIM_018.jpg
358.601	0.796	1	incongruent	Block1	incongruent/STIM_018.jpg
362.492	0.674	1	incongruent	Block1	incongruent/STIM_018.jpg
366.777	1.248	1	incongruent	Block1	incongruent/STIM_019.jpg
371.296	0.752	1	incongruent	Block1	incongruent/STIM_019.jpg
375.602	0.954	1	incongruent	Block1	incongruent/STIM_019.jpg
379.513	0.586	1	incongruent	Block1	incongruent/STIM_019.jpg
383.263	0.576	1	incongruent	Block1	incongruent/STIM_019.jpg
387.402	1.184	0	incongruent	Block1	incongruent/STIM_020.jpg
392.06	1.28	1	incongruent	Block1	incongruent/STIM_020.jpg
395.861	1.142	1	incongruent	Block1	incongruent/STIM_020.jpg
399.967	1.08	1	incongruent	Block1	incongruent/STIM_020.jpg
403.32	0.619	1	incongruent	Block1	incongruent/STIM_020.jpg
405.968	1.151	1	incongruent	Block1	incongruent/STIM_021.jpg
409.5	1.301	1	incongruent	Block1	incongruent/STIM_021.jpg
413.591	0.946	1	incongruent	Block1	incongruent/STIM_021.jpg
417.004	0.748	1	incongruent	Block1	incongruent/STIM_021.jpg
419.789	0.577	1	incongruent	Block1	incongruent/STIM_021.jpg
422.84	1.204	1	incongruent	Block1	incongruent/STIM_022.jpg
427.68	1.2	1	incongruent	Block1	incongruent/STIM_022.jpg
431.103	0.935	1	incongruent	Block1	incongruent/STIM_022.jpg
435.876	1.122	1	incongruent	Block1	incongruent/STIM_022.jpg
439.555	0.872	1	incongruent	Block1	incongruent/STIM_022.jpg
443.445	0.89	1	incongruent	Block1	incongruent/STIM_023.jpg
446.568	1.014	1	incongruent	Block1	incongruent/STIM_023.jpg
450.659	0.853	1	incongruent	Block1	incongruent/STIM_023.jpg
454.166	0.947	1	incongruent	Block1	incongruent/STIM_023.jpg
457.866	1.006	0	incongruent	Block1	incongruent/STIM_023.jpg
460.929	0.86	1	incongruent	Block1	incongruent/STIM_024.jpg
464.223	0.796	0	incongruent	Block1	incongruent/STIM_024.jpg
468.778	0.639	1	incongruent	Block1	incongruent/STIM_024.jpg
472.292	0.87	1	incongruent	Block1	incongruent/STIM_024.jpg
476.748	0.564	0	incongruent	Block1	incongruent/STIM_024.jpg
480.322	0.94	1	incongruent	Block1	incongruent/STIM_025.jpg
483.723	0.792	1	incongruent	Block1	incongruent/STIM_025.jpg
486.732	1.186	1	incongruent	Block1	incongruent/STIM_025.jpg
490.138	0.565	1	incongruent	Block1	incongruent/STIM_025.jpg
493.079	0.667	1	incongruent	Block1	incongruent/STIM_025.jpg
497.495	0.705	1	incongruent	Block1	incongruent/STIM_026.jpg
500.607	0.922	1	incongruent	Block1	incongruent/STIM_026.jpg
503.709	0.778	1	incongruent	Block1	incongruent/STIM_026.jpg
506.98	0.761	1	incongruent	Block1	incongruent/STIM_026.jpg
510.222	0.581	1	incongruent	Block1	incongruent/STIM_026.jpg
514.146	1.252	1	incongruent	Block1	incongruent/STIM_027.jpg
519.075	1.01	1	incongruent	Block1	incongruent/STIM_027.jpg
522.98	1.18	1	incongruent	Block1	incongruent/STIM_027.jpg
527.217	0.836	1	incongruent	Block1	incongruent/STIM_027.jpg
531.524	0.985	1	incongruent	Block1	incongruent/STIM_027.jpg
534.672	1.234	1	incongruent	Block1	incongruent/STIM_028.jpg
539.42	0.609	1	incongruent	Block1	incongruent/STIM_028.jpg
543.997	1.138	1	incongruent	Block1	incongruent/STIM_028.jpg
548.543	1.13	1	incongruent	Block1	incongruent/STIM_028.jpg
552.983	1.001	1	incongruent	Block1	incongruent/STIM_028.jpg
556.019	0.715	1	incongruent	Block1	incongruent/STIM_029.jpg
559.994	1.06	1	incongruent	Block1	incongruent/STIM_029.jpg
564.625	0.59	1	incongruent	Block1	incongruent/STIM_029.jpg
568.419	0.647	1	incongruent	Block1	incongruent/STIM_029.jpg
571.542	0.815	1	incongruent	Block1	incongruent/STIM_029.jpg
575.355	0.79	1	congruent	Block1	congruent/STIM_000.jpg
578.678	0.623	1	congruent	Block1	congruent/STIM_000.jpg
581.789	0.575	1	congruent	Block1	congruent/STIM_000.jpg
584.442	0.654	1	congruent	Block1	congruent/STIM_000.jpg
587.169	0.471	1	congruent	Block1	congruent/STIM_000.jpg
590.117	0.517	1	congruent	Block1	congruent/STIM_001.jpg
593.836	0.548	1	congruent	Block1	congruent/STIM_001.jpg
598.167	0.794	1	congruent	Block1	congruent/STIM_001.jpg
602.839	0.686	1	congruent	Block1	congruent/STIM_001.jpg
607.003	0.582	1	congruent	Block1	congruent/STIM_001.jpg
610.925	0.758	1	congruent	Block1	congruent/STIM_002.jpg
615.609	0.577	1	congruent	Block1	congruent/STIM_002.jpg
619.811	0.776	1	congruent	Block1	congruent/STIM_002.jpg
622.618	0.479	1	congruent	Block1	congruent/STIM_002.jpg
626.603	0.709	0	congruent	Block1	congruent/STIM_002.jpg
630.19	0.515	1	congruent	Block1	congruent/STIM_003.jpg
633.874	0.581	1	congruent	Block1	congruent/STIM_003.jpg
636.757	0.807	1	congruent	Block1	congruent/STIM_003.jpg
640.125	0.5	1	congruent	Block1	congruent/STIM_003.jpg
644.092	0.6	1	congruent	Block1	congruent/STIM_003.jpg
647.937	0.733	1	congruent	Block1	congruent/STIM_004.jpg
652.152	0.796	1	congruent	Block1	congruent/STIM_004.jpg
655.617	0.811	1	congruent	Block1	congruent/STIM_004.jpg
660.05	0.73	1	congruent	Block1	congruent/STIM_004.jpg
663.118	0.525	1	congruent	Block1	congruent/STIM_004.jpg
665.733	0.74	1	congruent	Block1	congruent/STIM_005.jpg
668.839	0.615	1	congruent	Block1	congruent/STIM_005.jpg
671.476	0.57	1	congruent	Block1	congruent/STIM_005.jpg
674.898	0.523	1	congruent	Block1	congruent/STIM_005.jpg
677.653	0.553	0	congruent	Block1	congruent/STIM_005.jpg
681.536	0.776	1	congruent	Block1	congruent/STIM_006.jpg
684.809	0.816	1	congruent	Block1	congruent/STIM_006.jpg
688.852	0.806	1	congruent	Block1	congruent/STIM_006.jpg
692.661	0.798	1	congruent	Block1	congruent/STIM_006.jpg
696.676	0.459	1	congruent	Block1	congruent/STIM_006.jpg
699.935	0.715	1	congruent	Block1	congruent/STIM_007.jpg
704.157	0.697	1	congruent	Block1	congruent/STIM_007.jpg
708.604	0.515	1	congruent	Block1	congruent/STIM_007.jpg
712.574	0.731	1	congruent	Block1	congruent/STIM_007.jpg
717.218	0.537	1	congruent	Block1	congruent/STIM_007.jpg
721.249	0.499	1	congruent	Block1	congruent/STIM_008.jpg
723.81	0.534	1	congruent	Block1	congruent/STIM_008.jpg
727.828	0.812	1	congruent	Block1	congruent/STIM_008.jpg
730.845	0.814	1	congruent	Block1	congruent/STIM_008.jpg
734.33	0.638	1	congruent	Block1	congruent/STIM_008.jpg
738.445	0.636	1	congruent	Block1	congruent/STIM_009.jpg
741.916	0.49	1	congruent	Block1	congruent/STIM_009.jpg
745.635	0.748	1	congruent	Block1	congruent/STIM_009.jpg
749.8	0.463	1	congruent	Block1	congruent/STIM_009.jpg
753.673	0.732	1	congruent	Block1	congruent/STIM_009.jpg
758.027	0.589	1	congruent	Block1	congruent/STIM_010.jpg
762.177	0.57	1	congruent	Block1	congruent/STIM_010.jpg
765.709	0.687	1	congruent	Block1	congruent/STIM_010.jpg
769.045	0.751	1	congruent	Block1	congruent/STIM_010.jpg
773.431	0.566	1	congruent	Block1	congruent/STIM_010.jpg
776.597	0.721	1	congruent	Block1	congruent/STIM_011.jpg
779.995	0.814	1	congruent	Block1	congruent/STIM_011.jpg
784.704	0.566	1	congruent	Block1	congruent/STIM_011.jpg
788.732	0.501	1	congruent	Block1	congruent/STIM_011.jpg
793.023	0.617	1	congruent	Block1	congruent/STIM_011.jpg
795.783	0.645	1	congruent	Block1	congruent/STIM_012.jpg
798.452	0.691	1	congruent	Block1	congruent/STIM_012.jpg
802.39	0.813	1	congruent	Block1	congruent/STIM_012.jpg
805.635	0.656	1	congruent	Block1	congruent/STIM_012.jpg
808.378	0.602	0	congruent	Block1	congruent/STIM_012.jpg
812.163	0.559	1	congruent	Block1	congruent/STIM_013.jpg
815.565	0.656	1	congruent	Block1	congruent/STIM_013.jpg
818.914	0.72	1	congruent	Block1	congruent/STIM_013.jpg
822.066	0.756	1	congruent	Block1	congruent/STIM_013.jpg
825.749	0.795	1	congruent	Block1	congruent/STIM_013.jpg
830.021	0.67	1	congruent	Block1	congruent/STIM_014.jpg
834.526	0.502	1	congruent	Block1	congruent/STIM_014.jpg
837.496	0.463	1	congruent	Block1	congruent/STIM_014.jpg
840.565	0.766	1	congruent	Block1	congruent/STIM_014.jpg
844.11	0.554	1	congruent	Block1	congruent/STIM_014.jpg
847.485	0.47	1	congruent	Block1	congruent/STIM_015.jpg
850.813	0.678	1	congruent	Block1	congruent/STIM_015.jpg
854.668	0.783	1	congruent	Block1	congruent/STIM_015.jpg
858.166	0.73	1	congruent	Block1	congruent/STIM_015.jpg
860.995	0.715	1	congruent	Block1	congruent/STIM_015.jpg
864.121	0.462	1	congruent	Block1	congruent/STIM_016.jpg
868.165	0.464	1	congruent	Block1	congruent/STIM_016.jpg
871.521	0.48	1	congruent	Block1	congruent/STIM_016.jpg
874.838	0.811	1	congruent	Block1	congruent/STIM_016.jpg
878.012	0.784	1	congruent	Block1	congruent/STIM_016.jpg
882.388	0.486	1	congruent	Block1	congruent/STIM_017.jpg
885.391	0.742	1	congruent	Block1	congruent/STIM_017.jpg
889.575	0.755	1	congruent	Block1	congruent/STIM_017.jpg
893.337	0.799	1	congruent	Block1	congruent/STIM_017.jpg
897.237	0.64	1	congruent	Block1	congruent/STIM_017.jpg
901.545	0.731	1	congruent	Block1	congruent/STIM_018.jpg
906.269	0.592	0	congruent	Block1	congruent/STIM_018.jpg
909.063	0.759	1	congruent	Block1	congruent/STIM_018.jpg
911.826	0.512	1	congruent	Block1	congruent/STIM_018.jpg
915.721	0.521	1	congruent	Block1	congruent/STIM_018.jpg
919.423	0.745	1	congruent	Block1	congruent/STIM_019.jpg
924.157	0.639	1	congruent	Block1	congruent/STIM_019.jpg
927.187	0.498	1	congruent	Block1	congruent/STIM_019.jpg
931.428	0.617	1	congruent	Block1	congruent/STIM_019.jpg
934.208	0.797	1	congruent	Block1	congruent/STIM_019.jpg
938.603	0.516	1	congruent	Block1	congruent/STIM_020.jpg
942.219	0.672	1	congruent	Block1	congruent/STIM_020.jpg
946.162	0.572	1	congruent	Block1	congruent/STIM_020.jpg
948.873	0.528	1	congruent	Block1	congruent/STIM_020.jpg
952.818	0.665	1	congruent	Block1	congruent/STIM_020.jpg
957.035	0.729	1	congruent	Block1	congruent/STIM_021.jpg
959.857	0.753	1	congruent	Block1	congruent/STIM_021.jpg
963.528	0.69	1	congruent	Block1	congruent/STIM_021.jpg
967.508	0.504	1	congruent	Block1	congruent/STIM_021.jpg
970.44	0.606	1	congruent	Block1	congruent/STIM_021.jpg
973.135	0.485	1	congruent	Block1	congruent/STIM_022.jpg
975.814	0.478	1	congruent	Block1	congruent/STIM_022.jpg
980.154	0.641	1	congruent	Block1	congruent/STIM_022.jpg
984.476	0.514	1	congruent	Block1	congruent/STIM_022.jpg
987.345	0.692	1	congruent	Block1	congruent/STIM_022.jpg
991.63	0.608	1	congruent	Block1	congruent/STIM_023.jpg
995.699	0.523	1	congruent	Block1	congruent/STIM_023.jpg
999.678	0.774	1	congruent	Block1	congruent/STIM_023.jpg
1004.397	0.496	1	congruent	Block1	congruent/STIM_023.jpg
1007.052	0.702	1	congruent	Block1	congruent/STIM_023.jpg
1011.096	0.63	1	congruent	Block1	congruent/STIM_024.jpg
1013.891	0.466	1	congruent	Block1	congruent/STIM_024.jpg
1018.255	0.568	1	congruent	Block1	congruent/STIM_024.jpg
1022.244	0.663	1	congruent	Block1	congruent/STIM_024.jpg
1026.673	0.688	1	congruent	Block1	congruent/STIM_024.jpg
1030.618	0.528	1	congruent	Block1	congruent/STIM_025.jpg
1033.683	0.636	1	congruent	Block1	congruent/STIM_025.jpg
1038.266	0.68	1	congruent	Block1	congruent/STIM_025.jpg
1041.914	0.715	1	congruent	Block1	congruent/STIM_025.jpg
1045.437	0.674	1	congruent	Block1	congruent/STIM_025.jpg
1049.622	0.563	1	congruent	Block1	congruent/STIM_026.jpg
1052.427	0.498	1	congruent	Block1	congruent/STIM_026.jpg
1055.504	0.669	1	congruent	Block1	congruent/STIM_026.jpg
1059.757	0.793	1	congruent	Block1	congruent/STIM_026.jpg
1062.623	0.801	1	congruent	Block1	congruent/STIM_026.jpg
1066.28	0.601	1	congruent	Block1	congruent/STIM_027.jpg
1069.917	0.693	1	congruent	Block1	congruent/STIM_027.jpg
1073.352	0.522	1	congruent	Block1	congruent/STIM_027.jpg
1077.053	0.573	1	congruent	Block1	congruent/STIM_027.jpg
1080.996	0.654	1	congruent	Block1	congruent/STIM_027.jpg
1084.404	0.711	1	congruent	Block1	congruent/STIM_028.jpg
1088.652	0.769	1	congruent	Block1	congruent/STIM_028.jpg
1092.636	0.718	1	congruent	Block1	congruent/STIM_028.jpg
1096.688	0.759	1	congruent	Block1	congruent/STIM_028.jpg
1099.781	0.624	1	congruent	Block1	congruent/STIM_028.jpg
1104.362	0.746	1	congruent	Block1	congruent/STIM_029.jpg
1107.787	0.778	1	congruent	Block1	congruent/STIM_029.jpg
1111.416	0.506	1	congruent	Block1	congruent/STIM_029.jpg
1115.513	0.725	1	congruent	Block1	congruent/STIM_029.jpg
1119.29	0.745	1	congruent	Block1	congruent/STIM_029.jpg
1123.787	1.016	1	incongruent	Block2	incongruent/STIM_000.jpg
1127.562	0.994	1	incongruent	Block2	incongruent/STIM_000.jpg
1132.068	0.756	1	incongruent	Block2	incongruent/STIM_000.jpg
1135.081	0.88	1	incongruent	Block2	incongruent/STIM_000.jpg
1139.809	0.486	0	incongruent	Block2	incongruent/STIM_000.jpg
1143.415	0.96	1	incongruent	Block2	incongruent/STIM_001.jpg
1146.836	0.887	1	incongruent	Block2	incongruent/STIM_001.jpg
1149.83	0.623	1	incongruent	Block2	incongruent/STIM_001.jpg
1152.456	0.639	1	incongruent	Block2	incongruent/STIM_001.jpg
1155.483	0.557	1	incongruent	Block2	incongruent/STIM_001.jpg
1159.096	0.67	0	incongruent	Block2	incongruent/STIM_002.jpg
1163.319	0.811	1	incongruent	Block2	incongruent/STIM_002.jpg
1167.874	0.547	1	incongruent	Block2	incongruent/STIM_002.jpg
1171.697	0.665	1	incongruent	Block2	incongruent/STIM_002.jpg
1176.339	0.567	0	incongruent	Block2	incongruent/STIM_002.jpg
1179.007	1.093	1	incongruent	Block2	incongruent/STIM_003.jpg
1183.494	0.993	1	incongruent	Block2	incongruent/STIM_003.jpg
1186.804	0.752	1	incongruent	Block2	incongruent/STIM_003.jpg
1190.624	0.492	1	incongruent	Block2	incongruent/STIM_003.jpg
1193.144	0.905	1	incongruent	Block2	incongruent/STIM_003.jpg
1197.676	1.085	1	incongruent	Block2	incongruent/STIM_004.jpg
1200.925	0.811	1	incongruent	Block2	incongruent/STIM_004.jpg
1204.066	0.664	1	incongruent	Block2	incongruent/STIM_004.jpg
1208.302	0.732	1	incongruent	Block2	incongruent/STIM_004.jpg
1211.937	0.635	1	incongruent	Block2	incongruent/STIM_004.jpg
1216.188	0.658	1	incongruent	Block2	incongruent/STIM_005.jpg
1220.669	0.904	1	incongruent	Block2	incongruent/STIM_005.jpg
1225.315	1.011	1	incongruent	Block2	incongruent/STIM_005.jpg
1229.998	0.642	1	incongruent	Block2	incongruent/STIM_005.jpg
1233.522	0.887	1	incongruent	Block2	incongruent/STIM_005.jpg
1237.49	0.948	1	incongruent	Block2	incongruent/STIM_006.jpg
1240.861	1.017	1	incongruent	Block2	incongruent/STIM_006.jpg
1244.981	0.703	1	incongruent	Block2	incongruent/STIM_006.jpg
1247.741	0.678	1	incongruent	Block2	incongruent/STIM_006.jpg
1251.217	0.711	1	incongruent	Block2	incongruent/STIM_006.jpg
1254.43	0.817	1	incongruent	Block2	incongruent/STIM_007.jpg
1257.522	0.801	1	incongruent	Block2	incongruent/STIM_007.jpg
1262.232	0.626	1	incongruent	Block2	incongruent/STIM_007.jpg
1265.519	0.913	1	incongruent	Block2	incongruent/STIM_007.jpg
1270.395	0.935	1	incongruent	Block2	incongruent/STIM_007.jpg
1274.545	0.631	1	incongruent	Block2	incongruent/STIM_008.jpg
1279.096	0.774	1	incongruent	Block2	incongruent/STIM_008.jpg
1282.517	0.484	0	incongruent	Block2	incongruent/STIM_008.jpg
1286.665	0.499	1	incongruent	Block2	incongruent/STIM_008.jpg
1289.486	0.501	1	incongruent	Block2	incongruent/STIM_008.jpg
1293.106	0.761	1	incongruent	Block2	incongruent/STIM_009.jpg
1296.607	0.923	1	incongruent	Block2	incongruent/STIM_009.jpg
1300.695	0.656	1	incongruent	Block2	incongruent/STIM_009.jpg
1303.696	0.9	1	incongruent	Block2	incongruent/STIM_009.jpg
1308.45	0.847	1	incongruent	Block2	incongruent/STIM_009.jpg
1312.322	0.74	1	incongruent	Block2	incongruent/STIM_010.jpg
1316.749	0.583	1	incongruent	Block2	incongruent/STIM_010.jpg
1319.983	0.654	1	incongruent	Block2	incongruent/STIM_010.jpg
1323.804	0.651	1	incongruent	Block2	incongruent/STIM_010.jpg
1327.844	0.883	1	incongruent	Block2	incongruent/STIM_010.jpg
1332.451	0.898	1	incongruent	Block2	incongruent/STIM_011.jpg
1336.273	0.828	0	incongruent	Block2	incongruent/STIM_011.jpg
1340.617	0.759	1	incongruent	Block2	incongruent/STIM_011.jpg
1343.967	0.781	1	incongruent	Block2	incongruent/STIM_011.jpg
1346.901	0.658	1	incongruent	Block2	incongruent/STIM_011.jpg
1349.869	0.891	1	incongruent	Block2	incongruent/STIM_012.jpg
1354.175	0.624	1	incongruent	Block2	incongruent/STIM_012.jpg
1357.746	0.527	1	incongruent	Block2	incongruent/STIM_012.jpg
1362.211	0.899	1	incongruent	Block2	incongruent/STIM_012.jpg
1366.781	0.572	1	incongruent	Block2	incongruent/STIM_012.jpg
1370.808	1.058	1	incongruent	Block2	incongruent/STIM_013.jpg
1374.544	1.048	1	incongruent	Block2	incongruent/STIM_013.jpg
1378.129	0.688	1	incongruent	Block2	incongruent/STIM_013.jpg
1382.073	0.907	1	incongruent	Block2	incongruent/STIM_013.jpg
1385.464	0.906	1	incongruent	Block2	incongruent/STIM_013.jpg
1390.196	1.057	1	incongruent	Block2	incongruent/STIM_014.jpg
1394.027	0.581	1	incongruent	Block2	incongruent/STIM_014.jpg
1398.427	0.886	1	incongruent	Block2	incongruent/STIM_014.jpg
1401.664	0.894	1	incongruent	Block2	incongruent/STIM_014.jpg
1406.26	0.95	1	incongruent	Block2	incongruent/STIM_014.jpg
1409.454	0.676	0	incongruent	Block2	incongruent/STIM_015.jpg
1412.538	0.542	1	incongruent	Block2	incongruent/STIM_015.jpg
1416.445	0.833	1	incongruent	Block2	incongruent/STIM_015.jpg
1420.667	0.847	1	incongruent	Block2	incongruent/STIM_015.jpg
1423.782	0.691	1	incongruent	Block2	incongruent/STIM_015.jpg
1428.276	1.102	1	incongruent	Block2	incongruent/STIM_016.jpg
1432.944	0.693	1	incongruent	Block2	incongruent/STIM_016.jpg
1436.521	0.858	1	incongruent	Block2	incongruent/STIM_016.jpg
1441.153	0.448	1	incongruent	Block2	incongruent/STIM_016.jpg
1444.858	0.856	1	incongruent	Block2	incongruent/STIM_016.jpg
1448.481	0.597	0	incongruent	Block2	incongruent/STIM_017.jpg
1452.832	1.002	1	incongruent	Block2	incongruent/STIM_017.jpg
1456.162	0.899	1	incongruent	Block2	incongruent/STIM_017.jpg
1460.344	0.493	1	incongruent	Block2	incongruent/STIM_017.jpg
1464.748	0.761	1	incongruent	Block2	incongruent/STIM_017.jpg
1468.348	0.551	1	incongruent	Block2	incongruent/STIM_018.jpg
1471.317	0.946	1	incongruent	Block2	incongruent/STIM_018.jpg
1475.537	0.789	1	incongruent	Block2	incongruent/STIM_018.jpg
1479.872	0.701	1	incongruent	Block2	incongruent/STIM_018.jpg
1484.405	0.714	1	incongruent	Block2	incongruent/STIM_018.jpg
1487.167	0.987	1	incongruent	Block2	incongruent/STIM_019.jpg
1491.234	0.614	1	incongruent	Block2	incongruent/STIM_019.jpg
1494.221	0.969	1	incongruent	Block2	incongruent/STIM_019.jpg
1498.157	0.466	1	incongruent	Block2	incongruent/STIM_019.jpg
1502.521	0.501	1	incongruent	Block2	incongruent/STIM_019.jpg
1506.144	0.863	1	incongruent	Block2	incongruent/STIM_020.jpg
1509.644	0.734	1	incongruent	Block2	incongruent/STIM_020.jpg
1513.488	0.569	1	incongruent	Block2	incongruent/STIM_020.jpg
1516.097	0.48	1	incongruent	Block2	incongruent/STIM_020.jpg
1519.511	0.926	1	incongruent	Block2	incongruent/STIM_020.jpg
1523.102	0.778	1	incongruent	Block2	incongruent/STIM_021.jpg
1527.326	0.72	1	incongruent	Block2	incongruent/STIM_021.jpg
1531.965	0.62	1	incongruent	Block2	incongruent/STIM_021.jpg
1535.329	0.529	1	incongruent	Block2	incongruent/STIM_021.jpg
1538.543	0.719	1	incongruent	Block2	incongruent/STIM_021.jpg
1542.736	0.672	1	incongruent	Block2	incongruent/STIM_022.jpg
1545.715	0.52	1	incongruent	Block2	incongruent/STIM_022.jpg
1548.745	0.943	1	incongruent	Block2	incongruent/STIM_022.jpg
1552.875	0.803	1	incongruent	Block2	incongruent/STIM_022.jpg
1557.674	0.591	1	incongruent	Block2	incongruent/STIM_022.jpg
1561.1	0.768	1	incongruent	Block2	incongruent/STIM_023.jpg
1565.043	0.642	1	incongruent	Block2	incongruent/STIM_023.jpg
1567.917	0.647	1	incongruent	Block2	incongruent/STIM_023.jpg
1571.71	0.748	1	incongruent	Block2	incongruent/STIM_023.jpg
1574.844	0.791	1	incongruent	Block2	incongruent/STIM_023.jpg
1578.886	0.811	1	incongruent	Block2	incongruent/STIM_024.jpg
1581.819	0.636	1	incongruent	Block2	incongruent/STIM_024.jpg
1585.149	0.625	1	incongruent	Block2	incongruent/STIM_024.jpg
1589.435	0.958	1	incongruent	Block2	incongruent/STIM_024.jpg
1593.886	0.517	1	incongruent	Block2	incongruent/STIM_024.jpg
1597.815	1.106	1	incongruent	Block2	incongruent/STIM_025.jpg
1602.325	0.806	1	incongruent	Block2	incongruent/STIM_025.jpg
1605.785	0.602	1	incongruent	Block2	incongruent/STIM_025.jpg
1608.552	0.675	1	incongruent	Block2	incongruent/STIM_025.jpg
1611.713	0.622	1	incongruent	Block2	incongruent/STIM_025.jpg
1614.578	0.794	1	incongruent	Block2	incongruent/STIM_026.jpg
1618.817	0.908	1	incongruent	Block2	incongruent/STIM_026.jpg
1622.078	0.793	1	incongruent	Block2	incongruent/STIM_026.jpg
1625.687	0.643	1	incongruent	Block2	incongruent/STIM_026.jpg
1629.62	0.71	1	incongruent	Block2	incongruent/STIM_026.jpg
1634.177	0.858	1	incongruent	Block2	incongruent/STIM_027.jpg
1638.755	0.719	1	incongruent	Block2	incongruent/STIM_027.jpg
1641.91	0.628	1	incongruent	Block2	incongruent/STIM_027.jpg
1645.449	0.612	1	incongruent	Block2	incongruent/STIM_027.jpg
1648.884	0.899	1	incongruent	Block2	incongruent/STIM_027.jpg
1652.334	1.075	1	incongruent	Block2	incongruent/STIM_028.jpg
1655.962	1.06	1	incongruent	Block2	incongruent/STIM_028.jpg
1659.416	0.81	1	incongruent	Block2	incongruent/STIM_028.jpg
1663.756	0.914	0	incongruent	Block2	incongruent/STIM_028.jpg
1666.776	0.92	1	incongruent	Block2	incongruent/STIM_028.jpg
1669.967	1.131	1	incongruent	Block2	incongruent/STIM_029.jpg
1673.519	0.709	1	incongruent	Block2	incongruent/STIM_029.jpg
1677.16	0.897	1	incongruent	Block2	incongruent/STIM_029.jpg
1681.831	0.843	1	incongruent	Block2	incongruent/STIM_029.jpg
1686.411	0.894	1	incongruent	Block2	incongruent/STIM_029.jpg
1690.621	0.487	0	congruent	Block2	congruent/STIM_000.jpg
1694.335	0.646	1	congruent	Block2	congruent/STIM_000.jpg
1698.402	0.799	1	congruent	Block2	congruent/STIM_000.jpg
1701.336	0.616	1	congruent	Block2	congruent/STIM_000.jpg
1705.085	0.629	1	congruent	Block2	congruent/STIM_000.jpg
1708.785	0.679	1	congruent	Block2	congruent/STIM_001.jpg
1713.377	0.716	1	congruent	Block2	congruent/STIM_001.jpg
1717.243	0.473	1	congruent	Block2	congruent/STIM_001.jpg
1720.295	0.703	1	congruent	Block2	congruent/STIM_001.jpg
1723.273	0.591	1	congruent	Block2	congruent/STIM_001.jpg
1727.846	0.486	1	congruent	Block2	congruent/STIM_002.jpg
1731.117	0.753	1	congruent	Block2	congruent/STIM_002.jpg
1735.536	0.474	1	congruent	Block2	congruent/STIM_002.jpg
1739.205	0.809	1	congruent	Block2	congruent/STIM_002.jpg
1742.409	0.76	1	congruent	Block2	congruent/STIM_002.jpg
1746.72	0.818	1	congruent	Block2	congruent/STIM_003.jpg
1751.062	0.82	1	congruent	Block2	congruent/STIM_003.jpg
1754.982	0.635	1	congruent	Block2	congruent/STIM_003.jpg
1758.511	0.53	1	congruent	Block2	congruent/STIM_003.jpg
1762.429	0.486	1	congruent	Block2	congruent/STIM_003.jpg
1766.31	0.811	0	congruent	Block2	congruent/STIM_004.jpg
1769.741	0.658	1	congruent	Block2	congruent/STIM_004.jpg
1772.837	0.631	1	congruent	Block2	congruent/STIM_004.jpg
1777.361	0.512	1	congruent	Block2	congruent/STIM_004.jpg
1781.575	0.464	1	congruent	Block2	congruent/STIM_004.jpg
1784.95	0.659	1	congruent	Block2	congruent/STIM_005.jpg
1788.754	0.471	1	congruent	Block2	congruent/STIM_005.jpg
1791.549	0.78	1	congruent	Block2	congruent/STIM_005.jpg
1794.587	0.797	1	congruent	Block2	congruent/STIM_005.jpg
1797.701	0.514	1	congruent	Block2	congruent/STIM_005.jpg
1800.504	0.53	1	congruent	Block2	congruent/STIM_006.jpg
1804.854	0.581	1	congruent	Block2	congruent/STIM_006.jpg
1808.151	0.641	1	congruent	Block2	congruent/STIM_006.jpg
1811.599	0.576	1	congruent	Block2	congruent/STIM_006.jpg
1814.741	0.772	1	congruent	Block2	congruent/STIM_006.jpg
1817.936	0.509	1	congruent	Block2	congruent/STIM_007.jpg
1822.227	0.581	1	congruent	Block2	congruent/STIM_007.jpg
1825.347	0.656	1	congruent	Block2	congruent/STIM_007.jpg
1828.76	0.52	1	congruent	Block2	congruent/STIM_007.jpg
1832.048	0.732	1	congruent	Block2	congruent/STIM_007.jpg
1836.275	0.719	1	congruent	Block2	congruent/STIM_008.jpg
1839.127	0.617	1	congruent	Block2	congruent/STIM_008.jpg
1842.162	0.733	1	congruent	Block2	congruent/STIM_008.jpg
1845.381	0.498	1	congruent	Block2	congruent/STIM_008.jpg
1848.747	0.579	1	congruent	Block2	congruent/STIM_008.jpg
1852.908	0.573	1	congruent	Block2	congruent/STIM_009.jpg
1856.909	0.597	1	congruent	Block2	congruent/STIM_009.jpg
1861.345	0.529	1	congruent	Block2	congruent/STIM_009.jpg
1865.461	0.516	1	congruent	Block2	congruent/STIM_009.jpg
1868.495	0.576	0	congruent	Block2	congruent/STIM_009.jpg
1871.329	0.571	1	congruent	Block2	congruent/STIM_010.jpg
1874.998	0.795	1	congruent	Block2	congruent/STIM_010.jpg
1878.203	0.464	1	congruent	Block2	congruent/STIM_010.jpg
1880.706	0.673	1	congruent	Block2	congruent/STIM_010.jpg
1885.143	0.74	1	congruent	Block2	congruent/STIM_010.jpg
1889.508	0.811	1	congruent	Block2	congruent/STIM_011.jpg
1892.441	0.69	1	congruent	Block2	congruent/STIM_011.jpg
1896.188	0.61	1	congruent	Block2	congruent/STIM_011.jpg
1899.482	0.505	1	congruent	Block2	congruent/STIM_011.jpg
1902.448	0.607	1	congruent	Block2	congruent/STIM_011.jpg
1906.52	0.811	1	congruent	Block2	congruent/STIM_012.jpg
1910.001	0.56	1	congruent	Block2	congruent/STIM_012.jpg
1913.454	0.575	1	congruent	Block2	congruent/STIM_012.jpg
1916.585	0.635	1	congruent	Block2	congruent/STIM_012.jpg
1920.458	0.698	1	congruent	Block2	congruent/STIM_012.jpg
1923.712	0.818	1	congruent	Block2	congruent/STIM_013.jpg
1928.068	0.794	1	congruent	Block2	congruent/STIM_013.jpg
1931.741	0.629	1	congruent	Block2	congruent/STIM_013.jpg
1935.002	0.624	1	congruent	Block2	congruent/STIM_013.jpg
1939.539	0.645	1	congruent	Block2	congruent/STIM_013.jpg
1943.309	0.747	1	congruent	Block2	congruent/STIM_014.jpg
1946.734	0.486	1	congruent	Block2	congruent/STIM_014.jpg
1949.241	0.55	1	congruent	Block2	congruent/STIM_014.jpg
1951.902	0.733	1	congruent	Block2	congruent/STIM_014.jpg
1954.889	0.741	1	congruent	Block2	congruent/STIM_014.jpg
1958.649	0.572	1	congruent	Block2	congruent/STIM_015.jpg
1962.895	0.787	1	congruent	Block2	congruent/STIM_015.jpg
1966.069	0.52	1	congruent	Block2	congruent/STIM_015.jpg
1969.518	0.795	1	congruent	Block2	congruent/STIM_015.jpg
1973.548	0.564	1	congruent	Block2	congruent/STIM_015.jpg
1977.327	0.626	1	congruent	Block2	congruent/STIM_016.jpg
1981.536	0.484	1	congruent	Block2	congruent/STIM_016.jpg
1985.965	0.773	1	congruent	Block2	congruent/STIM_016.jpg
1989.864	0.467	1	congruent	Block2	congruent/STIM_016.jpg
1993.512	0.498	0	congruent	Block2	congruent/STIM_016.jpg
1997.07	0.809	1	congruent	Block2	congruent/STIM_017.jpg
1999.985	0.536	1	congruent	Block2	congruent/STIM_017.jpg
2003.86	0.503	1	congruent	Block2	congruent/STIM_017.jpg
2006.78	0.802	1	congruent	Block2	congruent/STIM_017.jpg
2010.116	0.731	1	congruent	Block2	congruent/STIM_017.jpg
2013.635	0.762	1	congruent	Block2	congruent/STIM_018.jpg
2016.856	0.766	1	congruent	Block2	congruent/STIM_018.jpg
2019.643	0.513	1	congruent	Block2	congruent/STIM_018.jpg
2022.481	0.714	1	congruent	Block2	congruent/STIM_018.jpg
2025.965	0.474	1	congruent	Block2	congruent/STIM_018.jpg
2028.722	0.563	1	congruent	Block2	congruent/STIM_019.jpg
2032.632	0.759	1	congruent	Block2	congruent/STIM_019.jpg
2035.797	0.576	1	congruent	Block2	congruent/STIM_019.jpg
2039.111	0.689	1	congruent	Block2	congruent/STIM_019.jpg
2042.423	0.459	1	congruent	Block2	congruent/STIM_019.jpg
2045.624	0.794	1	congruent	Block2	congruent/STIM_020.jpg
2049.116	0.736	1	congruent	Block2	congruent/STIM_020.jpg
2052.59	0.564	0	congruent	Block2	congruent/STIM_020.jpg
2055.614	0.647	1	congruent	Block2	congruent/STIM_020.jpg
2058.757	0.595	1	congruent	Block2	congruent/STIM_020.jpg
2061.802	0.691	1	congruent	Block2	congruent/STIM_021.jpg
2065.333	0.744	1	congruent	Block2	congruent/STIM_021.jpg
2069.753	0.754	1	congruent	Block2	congruent/STIM_021.jpg
2073.004	0.554	1	congruent	Block2	congruent/STIM_021.jpg
2077.538	0.662	1	congruent	Block2	congruent/STIM_021.jpg
2081.285	0.537	1	congruent	Block2	congruent/STIM_022.jpg
2085.489	0.685	1	congruent	Block2	congruent/STIM_022.jpg
2088.753	0.656	1	congruent	Block2	congruent/STIM_022.jpg
2091.586	0.708	1	congruent	Block2	congruent/STIM_022.jpg
2095.262	0.553	1	congruent	Block2	congruent/STIM_022.jpg
2097.928	0.735	1	congruent	Block2	congruent/STIM_023.jpg
2101.686	0.69	1	congruent	Block2	congruent/STIM_023.jpg
2104.499	0.544	1	congruent	Block2	congruent/STIM_023.jpg
2108.905	0.486	1	congruent	Block2	congruent/STIM_023.jpg
2112.819	0.799	1	congruent	Block2	congruent/STIM_023.jpg
2116.959	0.539	1	congruent	Block2	congruent/STIM_024.jpg
2120.603	0.802	1	congruent	Block2	congruent/STIM_024.jpg
2124.917	0.598	1	congruent	Block2	congruent/STIM_024.jpg
2128.343	0.787	1	congruent	Block2	congruent/STIM_024.jpg
2132.858	0.549	1	congruent	Block2	congruent/STIM_024.jpg
2136.603	0.627	1	congruent	Block2	congruent/STIM_025.jpg
2139.475	0.616	1	congruent	Block2	congruent/STIM_025.jpg
2142.536	0.503	0	congruent	Block2	congruent/STIM_025.jpg
2145.97	0.591	0	congruent	Block2	congruent/STIM_025.jpg
2150.318	0.66	1	congruent	Block2	congruent/STIM_025.jpg
2154.895	0.482	1	congruent	Block2	congruent/STIM_026.jpg
2158.767	0.805	1	congruent	Block2	congruent/STIM_026.jpg
2162.921	0.686	1	congruent	Block2	congruent/STIM_026.jpg
2166.052	0.541	1	congruent	Block2	congruent/STIM_026.jpg
2168.739	0.551	1	congruent	Block2	congruent/STIM_026.jpg
2171.606	0.57	1	congruent	Block2	congruent/STIM_027.jpg
2174.923	0.551	1	congruent	Block2	congruent/STIM_027.jpg
2178.459	0.65	1	congruent	Block2	congruent/STIM_027.jpg
2182.777	0.763	1	congruent	Block2	congruent/STIM_027.jpg
2187.488	0.801	1	congruent	Block2	congruent/STIM_027.jpg
2190.793	0.799	1	congruent	Block2	congruent/STIM_028.jpg
2195.421	0.736	1	congruent	Block2	congruent/STIM_028.jpg
2198.712	0.767	1	congruent	Block2	congruent/STIM_028.jpg
2201.828	0.468	1	congruent	Block2	congruent/STIM_028.jpg
2205.71	0.68	1	congruent	Block2	congruent/STIM_028.jpg
2208.482	0.604	1	congruent	Block2	congruent/STIM_029.jpg
2212.435	0.544	1	congruent	Block2	congruent/STIM_029.jpg
2215.767	0.668	1	congruent	Block2	congruent/STIM_029.jpg
2219.88	0.596	1	congruent	Block2	congruent/STIM_029.jpg
2223.089	0.728	1	congruent	Block2	congruent/STIM_029.jpg
2227.61	0.783	1	incongruent	Block3	incongruent/STIM_000.jpg
2230.544	0.483	1	incongruent	Block3	incongruent/STIM_000.jpg
2233.385	0.668	1	incongruent	Block3	incongruent/STIM_000.jpg
2236.19	0.519	1	incongruent	Block3	incongruent/STIM_000.jpg
2240.702	0.598	1	incongruent	Block3	incongruent/STIM_000.jpg
2244.996	0.926	1	incongruent	Block3	incongruent/STIM_001.jpg
2248.654	0.51	1	incongruent	Block3	incongruent/STIM_001.jpg
2253.157	0.68	1	incongruent	Block3	incongruent/STIM_001.jpg
2257.578	0.5	1	incongruent	Block3	incongruent/STIM_001.jpg
2261.066	0.641	1	incongruent	Block3	incongruent/STIM_001.jpg
2264.032	0.611	1	incongruent	Block3	incongruent/STIM_002.jpg
2268.111	0.846	1	incongruent	Block3	incongruent/STIM_002.jpg
2271.437	0.742	1	incongruent	Block3	incongruent/STIM_002.jpg
2274.543	0.895	1	incongruent	Block3	incongruent/STIM_002.jpg
2279.098	0.704	1	incongruent	Block3	incongruent/STIM_002.jpg
2283.355	0.959	1	incongruent	Block3	incongruent/STIM_003.jpg
2287.17	0.829	1	incongruent	Block3	incongruent/STIM_003.jpg
2290.708	0.484	1	incongruent	Block3	incongruent/STIM_003.jpg
2294.829	0.811	1	incongruent	Block3	incongruent/STIM_003.jpg
2299.591	0.564	1	incongruent	Block3	incongruent/STIM_003.jpg
2304.068	0.663	1	incongruent	Block3	incongruent/STIM_004.jpg
2307.676	0.49	1	incongruent	Block3	incongruent/STIM_004.jpg
2311.993	0.619	1	incongruent	Block3	incongruent/STIM_004.jpg
2315.373	0.868	1	incongruent	Block3	incongruent/STIM_004.jpg
2318.739	0.938	1	incongruent	Block3	incongruent/STIM_004.jpg
2321.699	0.505	1	incongruent	Block3	incongruent/STIM_005.jpg
2325.023	0.791	1	incongruent	Block3	incongruent/STIM_005.jpg
2328.947	0.889	1	incongruent	Block3	incongruent/STIM_005.jpg
2332.96	0.57	1	incongruent	Block3	incongruent/STIM_005.jpg
2336.644	0.867	1	incongruent	Block3	incongruent/STIM_005.jpg
2340.209	0.852	1	incongruent	Block3	incongruent/STIM_006.jpg
2344.745	0.711	1	incongruent	Block3	incongruent/STIM_006.jpg
2349.272	0.92	1	incongruent	Block3	incongruent/STIM_006.jpg
2354.009	0.553	1	incongruent	Block3	incongruent/STIM_006.jpg
2356.631	0.948	1	incongruent	Block3	incongruent/STIM_006.jpg
2359.963	0.761	1	incongruent	Block3	incongruent/STIM_007.jpg
2363.117	0.711	1	incongruent	Block3	incongruent/STIM_007.jpg
2366.276	0.818	1	incongruent	Block3	incongruent/STIM_007.jpg
2370.804	0.465	1	incongruent	Block3	incongruent/STIM_007.jpg
2374.341	0.532	1	incongruent	Block3	incongruent/STIM_007.jpg
2378.614	0.506	1	incongruent	Block3	incongruent/STIM_008.jpg
2382.127	0.562	1	incongruent	Block3	incongruent/STIM_008.jpg
2385.676	0.827	1	incongruent	Block3	incongruent/STIM_008.jpg
2389.128	0.889	1	incongruent	Block3	incongruent/STIM_008.jpg
2392.675	0.571	1	incongruent	Block3	incongruent/STIM_008.jpg
2395.963	0.757	1	incongruent	Block3	incongruent/STIM_009.jpg
2399.92	0.629	1	incongruent	Block3	incongruent/STIM_009.jpg
2403.915	0.707	1	incongruent	Block3	incongruent/STIM_009.jpg
2407.695	0.604	1	incongruent	Block3	incongruent/STIM_009.jpg
2410.896	0.737	1	incongruent	Block3	incongruent/STIM_009.jpg
2415.467	0.53	1	incongruent	Block3	incongruent/STIM_010.jpg
2418.305	0.516	1	incongruent	Block3	incongruent/STIM_010.jpg
2420.986	0.682	1	incongruent	Block3	incongruent/STIM_010.jpg
2423.899	0.745	1	incongruent	Block3	incongruent/STIM_010.jpg
2428.449	0.546	1	incongruent	Block3	incongruent/STIM_010.jpg
2431.125	0.782	1	incongruent	Block3	incongruent/STIM_011.jpg
2433.959	0.766	1	incongruent	Block3	incongruent/STIM_011.jpg
2438.171	0.738	1	incongruent	Block3	incongruent/STIM_011.jpg
2441.527	0.74	1	incongruent	Block3	incongruent/STIM_011.jpg
2445.939	0.496	1	incongruent	Block3	incongruent/STIM_011.jpg
2448.813	0.547	1	incongruent	Block3	incongruent/STIM_012.jpg
2451.477	0.901	1	incongruent	Block3	incongruent/STIM_012.jpg
2454.794	0.56	1	incongruent	Block3	incongruent/STIM_012.jpg
2457.781	0.884	1	incongruent	Block3	incongruent/STIM_012.jpg
2461.201	0.866	0	incongruent	Block3	incongruent/STIM_012.jpg
2465.226	0.721	1	incongruent	Block3	incongruent/STIM_013.jpg
2469.256	0.621	1	incongruent	Block3	incongruent/STIM_013.jpg
2472.848	0.874	1	incongruent	Block3	incongruent/STIM_013.jpg
2476.931	0.574	1	incongruent	Block3	incongruent/STIM_013.jpg
2479.533	0.944	1	incongruent	Block3	incongruent/STIM_013.jpg
2484.367	0.752	1	incongruent	Block3	incongruent/STIM_014.jpg
2487.363	0.869	1	incongruent	Block3	incongruent/STIM_014.jpg
2490.958	0.933	1	incongruent	Block3	incongruent/STIM_014.jpg
2495.431	0.632	1	incongruent	Block3	incongruent/STIM_014.jpg
2498.866	0.71	1	incongruent	Block3	incongruent/STIM_014.jpg
2502.02	0.509	1	incongruent	Block3	incongruent/STIM_015.jpg
2504.674	0.612	1	incongruent	Block3	incongruent/STIM_015.jpg
2507.463	0.506	1	incongruent	Block3	incongruent/STIM_015.jpg
2511.828	0.471	1	incongruent	Block3	incongruent/STIM_015.jpg
2514.709	0.647	1	incongruent	Block3	incongruent/STIM_015.jpg
2517.996	0.511	1	incongruent	Block3	incongruent/STIM_016.jpg
2522.446	0.931	1	incongruent	Block3	incongruent/STIM_016.jpg
2526.966	0.757	1	incongruent	Block3	incongruent/STIM_016.jpg
2531.132	0.719	1	incongruent	Block3	incongruent/STIM_016.jpg
2534.534	0.515	1	incongruent	Block3	incongruent/STIM_016.jpg
2538.898	0.655	1	incongruent	Block3	incongruent/STIM_017.jpg
2543.408	0.812	1	incongruent	Block3	incongruent/STIM_017.jpg
2547.888	0.546	1	incongruent	Block3	incongruent/STIM_017.jpg
2550.577	0.916	1	incongruent	Block3	incongruent/STIM_017.jpg
2554.568	0.507	1	incongruent	Block3	incongruent/STIM_017.jpg
2558.061	0.662	1	incongruent	Block3	incongruent/STIM_018.jpg
2561.843	0.466	1	incongruent	Block3	incongruent/STIM_018.jpg
2564.356	0.485	1	incongruent	Block3	incongruent/STIM_018.jpg
2568.714	0.564	1	incongruent	Block3	incongruent/STIM_018.jpg
2571.279	0.784	1	incongruent	Block3	incongruent/STIM_018.jpg
2574.365	0.51	1	incongruent	Block3	incongruent/STIM_019.jpg
2577.994	0.796	1	incongruent	Block3	incongruent/STIM_019.jpg
2581.047	0.902	1	incongruent	Block3	incongruent/STIM_019.jpg
2585.375	0.597	1	incongruent	Block3	incongruent/STIM_019.jpg
2588.57	0.758	1	incongruent	Block3	incongruent/STIM_019.jpg
2592.702	0.722	1	incongruent	Block3	incongruent/STIM_020.jpg
2597.314	0.502	1	incongruent	Block3	incongruent/STIM_020.jpg
2601.072	0.842	1	incongruent	Block3	incongruent/STIM_020.jpg
2605.286	0.898	1	incongruent	Block3	incongruent/STIM_020.jpg
2608.707	0.544	1	incongruent	Block3	incongruent/STIM_020.jpg
2612.073	0.471	1	incongruent	Block3	incongruent/STIM_021.jpg
2616.522	0.52	1	incongruent	Block3	incongruent/STIM_021.jpg
2619.527	0.836	1	incongruent	Block3	incongruent/STIM_021.jpg
2623.701	0.846	1	incongruent	Block3	incongruent/STIM_021.jpg
2626.64	0.825	1	incongruent	Block3	incongruent/STIM_021.jpg
2631.036	0.699	1	incongruent	Block3	incongruent/STIM_022.jpg
2633.906	0.926	1	incongruent	Block3	incongruent/STIM_022.jpg
2638.114	0.57	1	incongruent	Block3	incongruent/STIM_022.jpg
2642.087	0.767	1	incongruent	Block3	incongruent/STIM_022.jpg
2646.294	0.591	1	incongruent	Block3	incongruent/STIM_022.jpg
2650.342	0.936	1	incongruent	Block3	incongruent/STIM_023.jpg
2654.915	0.865	1	incongruent	Block3	incongruent/STIM_023.jpg
2658.983	0.706	1	incongruent	Block3	incongruent/STIM_023.jpg
2661.782	0.581	1	incongruent	Block3	incongruent/STIM_023.jpg
2665.543	0.636	1	incongruent	Block3	incongruent/STIM_023.jpg
2668.967	0.843	1	incongruent	Block3	incongruent/STIM_024.jpg
2671.964	0.567	1	incongruent	Block3	incongruent/STIM_024.jpg
2675.613	0.803	1	incongruent	Block3	incongruent/STIM_024.jpg
2679.435	0.705	1	incongruent	Block3	incongruent/STIM_024.jpg
2683.366	0.506	1	incongruent	Block3	incongruent/STIM_024.jpg
2686.476	0.888	1	incongruent	Block3	incongruent/STIM_025.jpg
2689.667	0.85	1	incongruent	Block3	incongruent/STIM_025.jpg
2693.228	0.777	1	incongruent	Block3	incongruent/STIM_025.jpg
2696.502	0.853	1	incongruent	Block3	incongruent/STIM_025.jpg
2700.156	0.656	1	incongruent	Block3	incongruent/STIM_025.jpg
2704.734	0.922	1	incongruent	Block3	incongruent/STIM_026.jpg
2707.967	0.79	1	incongruent	Block3	incongruent/STIM_026.jpg
2711.157	0.696	1	incongruent	Block3	incongruent/STIM_026.jpg
2714.363	0.556	0	incongruent	Block3	incongruent/STIM_026.jpg
2718.276	0.562	1	incongruent	Block3	incongruent/STIM_026.jpg
2722.09	0.94	1	incongruent	Block3	incongruent/STIM_027.jpg
2726.647	0.493	0	incongruent	Block3	incongruent/STIM_027.jpg
2730.22	0.822	1	incongruent	Block3	incongruent/STIM_027.jpg
2734.855	0.527	1	incongruent	Block3	incongruent/STIM_027.jpg
2738.828	0.549	1	incongruent	Block3	incongruent/STIM_027.jpg
2742.836	0.585	1	incongruent	Block3	incongruent/STIM_028.jpg
2745.441	0.806	1	incongruent	Block3	incongruent/STIM_028.jpg
2749.683	0.684	1	incongruent	Block3	incongruent/STIM_028.jpg
2753.888	0.493	1	incongruent	Block3	incongruent/STIM_028.jpg
2758.21	0.574	1	incongruent	Block3	incongruent/STIM_028.jpg
2761.389	0.763	1	incongruent	Block3	incongruent/STIM_029.jpg
2765.107	0.667	1	incongruent	Block3	incongruent/STIM_029.jpg
2769.651	0.512	1	incongruent	Block3	incongruent/STIM_029.jpg
2774.094	0.562	1	incongruent	Block3	incongruent/STIM_029.jpg
2777.78	0.531	1	incongruent	Block3	incongruent/STIM_029.jpg
2781.177	0.76	1	congruent	Block3	congruent/STIM_000.jpg
2784.264	0.804	1	congruent	Block3	congruent/STIM_000.jpg
2787.085	0.57	1	congruent	Block3	congruent/STIM_000.jpg
2790.418	0.482	1	congruent	Block3	congruent/STIM_000.jpg
2794.65	0.672	1	congruent	Block3	congruent/STIM_000.jpg
2797.909	0.46	1	congruent	Block3	congruent/STIM_001.jpg
2801.828	0.588	1	congruent	Block3	congruent/STIM_001.jpg
2806.023	0.522	1	congruent	Block3	congruent/STIM_001.jpg
2809.088	0.463	1	congruent	Block3	congruent/STIM_001.jpg
2811.86	0.67	1	congruent	Block3	congruent/STIM_001.jpg
2814.974	0.748	1	congruent	Block3	congruent/STIM_002.jpg
2819.12	0.572	1	congruent	Block3	congruent/STIM_002.jpg
2823.267	0.625	1	congruent	Block3	congruent/STIM_002.jpg
2826.587	0.794	1	congruent	Block3	congruent/STIM_002.jpg
2830.312	0.542	1	congruent	Block3	congruent/STIM_002.jpg
2834.212	0.767	1	congruent	Block3	congruent/STIM_003.jpg
2837.587	0.545	1	congruent	Block3	congruent/STIM_003.jpg
2841.376	0.725	1	congruent	Block3	congruent/STIM_003.jpg
2844.613	0.552	1	congruent	Block3	congruent/STIM_003.jpg
2848.711	0.549	1	congruent	Block3	congruent/STIM_003.jpg
2852.149	0.771	1	congruent	Block3	congruent/STIM_004.jpg
2856.625	0.791	1	congruent	Block3	congruent/STIM_004.jpg
2861.196	0.766	1	congruent	Block3	congruent/STIM_004.jpg
2865.096	0.702	1	congruent	Block3	congruent/STIM_004.jpg
2868.77	0.458	1	congruent	Block3	congruent/STIM_004.jpg
2871.338	0.807	1	congruent	Block3	congruent/STIM_005.jpg
2875.897	0.508	1	congruent	Block3	congruent/STIM_005.jpg
2880.084	0.498	1	congruent	Block3	congruent/STIM_005.jpg
2883.113	0.697	1	congruent	Block3	congruent/STIM_005.jpg
2886.431	0.491	1	congruent	Block3	congruent/STIM_005.jpg
2889.939	0.604	1	congruent	Block3	congruent/STIM_006.jpg
2894.146	0.528	1	congruent	Block3	congruent/STIM_006.jpg
2897.334	0.601	1	congruent	Block3	congruent/STIM_006.jpg
2900.454	0.55	1	congruent	Block3	congruent/STIM_006.jpg
2903.201	0.744	1	congruent	Block3	congruent/STIM_006.jpg
2907.943	0.655	1	congruent	Block3	congruent/STIM_007.jpg
2911.756	0.606	1	congruent	Block3	congruent/STIM_007.jpg
2915.29	0.787	1	congruent	Block3	congruent/STIM_007.jpg
2919.982	0.614	1	congruent	Block3	congruent/STIM_007.jpg
2923.104	0.723	1	congruent	Block3	congruent/STIM_007.jpg
2927.269	0.81	1	congruent	Block3	congruent/STIM_008.jpg
2931.619	0.468	1	congruent	Block3	congruent/STIM_008.jpg
2934.746	0.484	1	congruent	Block3	congruent/STIM_008.jpg
2937.499	0.524	1	congruent	Block3	congruent/STIM_008.jpg
2940.845	0.671	1	congruent	Block3	congruent/STIM_008.jpg
2943.729	0.535	1	congruent	Block3	congruent/STIM_009.jpg
2946.395	0.768	1	congruent	Block3	congruent/STIM_009.jpg
2949.488	0.487	1	congruent	Block3	congruent/STIM_009.jpg
2953.651	0.786	1	congruent	Block3	congruent/STIM_009.jpg
2956.6	0.469	1	congruent	Block3	congruent/STIM_009.jpg
2960.508	0.709	1	congruent	Block3	congruent/STIM_010.jpg
2964.16	0.629	1	congruent	Block3	congruent/STIM_010.jpg
2967.558	0.75	1	congruent	Block3	congruent/STIM_010.jpg
2971.798	0.506	1	congruent	Block3	congruent/STIM_010.jpg
2974.514	0.501	1	congruent	Block3	congruent/STIM_010.jpg
2978.823	0.726	1	congruent	Block3	congruent/STIM_011.jpg
2982.956	0.475	1	congruent	Block3	congruent/STIM_011.jpg
2986.684	0.585	1	congruent	Block3	congruent/STIM_011.jpg
2990.955	0.819	1	congruent	Block3	congruent/STIM_011.jpg
2993.998	0.703	1	congruent	Block3	congruent/STIM_011.jpg
2998.087	0.503	1	congruent	Block3	congruent/STIM_012.jpg
3001.828	0.674	1	congruent	Block3	congruent/STIM_012.jpg
3005.192	0.464	1	congruent	Block3	congruent/STIM_012.jpg
3008.637	0.503	1	congruent	Block3	congruent/STIM_012.jpg
3012.386	0.776	1	congruent	Block3	congruent/STIM_012.jpg
3015.234	0.822	1	congruent	Block3	congruent/STIM_013.jpg
3018.734	0.773	1	congruent	Block3	congruent/STIM_013.jpg
3021.957	0.789	1	congruent	Block3	congruent/STIM_013.jpg
3026.271	0.603	1	congruent	Block3	congruent/STIM_013.jpg
3028.896	0.487	1	congruent	Block3	congruent/STIM_013.jpg
3032.962	0.506	1	congruent	Block3	congruent/STIM_014.jpg
3036.23	0.799	1	congruent	Block3	congruent/STIM_014.jpg
3039.991	0.71	1	congruent	Block3	congruent/STIM_014.jpg
3042.799	0.756	1	congruent	Block3	congruent/STIM_014.jpg
3046.093	0.815	1	congruent	Block3	congruent/STIM_014.jpg
3049.467	0.525	1	congruent	Block3	congruent/STIM_015.jpg
3053.214	0.605	1	congruent	Block3	congruent/STIM_015.jpg
3056.493	0.738	1	congruent	Block3	congruent/STIM_015.jpg
3061.189	0.632	1	congruent	Block3	congruent/STIM_015.jpg
3064.886	0.655	1	congruent	Block3	congruent/STIM_015.jpg
3068.529	0.725	1	congruent	Block3	congruent/STIM_016.jpg
3072.407	0.767	1	congruent	Block3	congruent/STIM_016.jpg
3075.428	0.543	1	congruent	Block3	congruent/STIM_016.jpg
3078.522	0.731	1	congruent	Block3	congruent/STIM_016.jpg
3081.888	0.506	1	congruent	Block3	congruent/STIM_016.jpg
3085.34	0.543	1	congruent	Block3	congruent/STIM_017.jpg
3088.809	0.699	1	congruent	Block3	congruent/STIM_017.jpg
3091.707	0.495	1	congruent	Block3	congruent/STIM_017.jpg
3096.013	0.508	1	congruent	Block3	congruent/STIM_017.jpg
3099.635	0.761	1	congruent	Block3	congruent/STIM_017.jpg
3102.658	0.786	1	congruent	Block3	congruent/STIM_018.jpg
3107.049	0.572	1	congruent	Block3	congruent/STIM_018.jpg
3109.806	0.814	1	congruent	Block3	congruent/STIM_018.jpg
3114.465	0.702	1	congruent	Block3	congruent/STIM_018.jpg
3118.449	0.587	1	congruent	Block3	congruent/STIM_018.jpg
3122.169	0.468	1	congruent	Block3	congruent/STIM_019.jpg
3125.742	0.525	1	congruent	Block3	congruent/STIM_019.jpg
3128.715	0.784	1	congruent	Block3	congruent/STIM_019.jpg
3132.445	0.464	1	congruent	Block3	congruent/STIM_019.jpg
3136.877	0.687	1	congruent	Block3	congruent/STIM_019.jpg
3141.331	0.466	1	congruent	Block3	congruent/STIM_020.jpg
3144.242	0.699	1	congruent	Block3	congruent/STIM_020.jpg
3148.917	0.789	1	congruent	Block3	congruent/STIM_020.jpg
3152.688	0.532	0	congruent	Block3	congruent/STIM_020.jpg
3155.994	0.806	1	congruent	Block3	congruent/STIM_020.jpg
3159.904	0.674	1	congruent	Block3	congruent/STIM_021.jpg
3163.166	0.724	1	congruent	Block3	congruent/STIM_021.jpg
3167.017	0.472	1	congruent	Block3	congruent/STIM_021.jpg
3169.573	0.731	1	congruent	Block3	congruent/STIM_021.jpg
3173.534	0.8	1	congruent	Block3	congruent/STIM_021.jpg
3176.353	0.714	1	congruent	Block3	congruent/STIM_022.jpg
3179.556	0.748	1	congruent	Block3	congruent/STIM_022.jpg
3184.0	0.542	1	congruent	Block3	congruent/STIM_022.jpg
3188.075	0.711	1	congruent	Block3	congruent/STIM_022.jpg
3191.026	0.516	1	congruent	Block3	congruent/STIM_022.jpg
3195.395	0.665	1	congruent	Block3	congruent/STIM_023.jpg
3199.147	0.47	1	congruent	Block3	congruent/STIM_023.jpg
3202.375	0.625	1	congruent	Block3	congruent/STIM_023.jpg
3206.475	0.638	1	congruent	Block3	congruent/STIM_023.jpg
3210.9	0.717	1	congruent	Block3	congruent/STIM_023.jpg
3214.834	0.515	1	congruent	Block3	congruent/STIM_024.jpg
3218.952	0.623	1	congruent	Block3	congruent/STIM_024.jpg
3222.688	0.775	1	congruent	Block3	congruent/STIM_024.jpg
3226.841	0.618	1	congruent	Block3	congruent/STIM_024.jpg
3230.118	0.773	1	congruent	Block3	congruent/STIM_024.jpg
3234.851	0.741	1	congruent	Block3	congruent/STIM_025.jpg
3237.984	0.804	1	congruent	Block3	congruent/STIM_025.jpg
3242.717	0.591	1	congruent	Block3	congruent/STIM_025.jpg
3245.849	0.789	1	congruent	Block3	congruent/STIM_025.jpg
3249.778	0.624	1	congruent	Block3	congruent/STIM_025.jpg
3253.985	0.59	1	congruent	Block3	congruent/STIM_026.jpg
3258.304	0.64	1	congruent	Block3	congruent/STIM_026.jpg
3262.205	0.652	1	congruent	Block3	congruent/STIM_026.jpg
3265.065	0.716	1	congruent	Block3	congruent/STIM_026.jpg
3268.394	0.802	1	congruent	Block3	congruent/STIM_026.jpg
3271.375	0.624	1	congruent	Block3	congruent/STIM_027.jpg
3275.616	0.659	1	congruent	Block3	congruent/STIM_027.jpg
3278.877	0.643	1	congruent	Block3	congruent/STIM_027.jpg
3282.007	0.686	1	congruent	Block3	congruent/STIM_027.jpg
3285.121	0.519	1	congruent	Block3	congruent/STIM_027.jpg
3288.438	0.56	1	congruent	Block3	congruent/STIM_028.jpg
3292.845	0.582	1	congruent	Block3	congruent/STIM_028.jpg
3296.387	0.474	1	congruent	Block3	congruent/STIM_028.jpg
3299.357	0.77	1	congruent	Block3	congruent/STIM_028.jpg
3303.116	0.592	1	congruent	Block3	congruent/STIM_028.jpg
3306.067	0.532	1	congruent	Block3	congruent/STIM_029.jpg
3308.612	0.806	1	congruent	Block3	congruent/STIM_029.jpg
3311.968	0.633	1	congruent	Block3	congruent/STIM_029.jpg
3315.343	0.667	1	congruent	Block3	congruent/STIM_029.jpg
3319.216	0.723	1	congruent	Block3	congruent/STIM_029.jpg
