onset	duration	accuracy_binary	trial_type	learning_stage	stimulus
0.0	0.938	1	incongruent	Block1	incongruent/STIM_000.jpg
3.769	1.198	1	incongruent	Block1	incongruent/STIM_000.jpg
7.436	1.231	1	incongruent	Block1	incongruent/STIM_000.jpg
10.756	0.75	0	incongruent	Block1	incongruent/STIM_000.jpg
14.847	0.585	1	incongruent	Block1	incongruent/STIM_000.jpg
17.539	1.246	1	incongruent	Block1	incongruent/STIM_001.jpg
21.739	0.661	0	incongruent	Block1	incongruent/STIM_001.jpg
26.267	0.85	0	incongruent	Block1	incongruent/STIM_001.jpg
30.783	0.716	1	incongruent	Block1	incongruent/STIM_001.jpg
34.882	0.76	1	incongruent	Block1	incongruent/STIM_001.jpg
38.786	0.878	1	incongruent	Block1	incongruent/STIM_002.jpg
41.728	0.957	1	incongruent	Block1	incongruent/STIM_002.jpg
45.651	1.154	1	incongruent	Block1	incongruent/STIM_002.jpg
49.778	1.202	1	incongruent	Block1	incongruent/STIM_002.jpg
54.952	0.836	1	incongruent	Block1	incongruent/STIM_002.jpg
58.522	1.222	1	incongruent	Block1	incongruent/STIM_003.jpg
62.478	1.018	1	incongruent	Block1	incongruent/STIM_003.jpg
65.951	0.644	1	incongruent	Block1	incongruent/STIM_003.jpg
70.407	1.024	1	incongruent	Block1	incongruent/STIM_003.jpg
73.723	0.909	1	incongruent	Block1	incongruent/STIM_003.jpg
77.311	0.766	1	incongruent	Block1	incongruent/STIM_004.jpg
80.465	0.96	1	incongruent	Block1	incongruent/STIM_004.jpg
85.355	0.914	1	incongruent	Block1	incongruent/STIM_004.jpg
89.394	0.985	0	incongruent	Block1	incongruent/STIM_004.jpg
92.961	0.987	1	incongruent	Block1	incongruent/STIM_004.jpg
97.64	1.249	1	incongruent	Block1	incongruent/STIM_005.jpg
100.956	0.809	1	incongruent	Block1	incongruent/STIM_005.jpg
104.385	1.146	1	incongruent	Block1	incongruent/STIM_005.jpg
109.02	0.71	1	incongruent	Block1	incongruent/STIM_005.jpg
113.319	0.634	1	incongruent	Block1	incongruent/STIM_005.jpg
117.442	1.245	1	incongruent	Block1	incongruent/STIM_006.jpg
120.756	0.738	1	incongruent	Block1	incongruent/STIM_006.jpg
125.432	1.262	1	incongruent	Block1	incongruent/STIM_006.jpg
129.777	0.844	1	incongruent	Block1	incongruent/STIM_006.jpg
133.847	0.937	1	incongruent	Block1	incongruent/STIM_006.jpg
138.647	1.059	1	incongruent	Block1	incongruent/STIM_007.jpg
142.053	0.681	1	incongruent	Block1	incongruent/STIM_007.jpg
145.806	0.672	1	incongruent	Block1	incongruent/STIM_007.jpg
148.682	0.901	1	incongruent	Block1	incongruent/STIM_007.jpg
152.219	0.638	1	incongruent	Block1	incongruent/STIM_007.jpg
156.794	0.704	1	incongruent	Block1	incongruent/STIM_008.jpg
160.36	1.14	1	incongruent	Block1	incongruent/STIM_008.jpg
165.314	0.936	1	incongruent	Block1	incongruent/STIM_008.jpg
169.354	1.152	1	incongruent	Block1	incongruent/STIM_008.jpg
174.391	0.866	1	incongruent	Block1	incongruent/STIM_008.jpg
178.948	1.061	1	incongruent	Block1	incongruent/STIM_009.jpg
183.159	1.009	0	incongruent	Block1	incongruent/STIM_009.jpg
187.451	0.863	1	incongruent	Block1	incongruent/STIM_009.jpg
190.659	1.189	1	incongruent	Block1	incongruent/STIM_009.jpg
194.466	0.818	1	incongruent	Block1	incongruent/STIM_009.jpg
199.001	1.2	1	incongruent	Block1	incongruent/STIM_010.jpg
203.575	0.939	1	incongruent	Block1	incongruent/STIM_010.jpg
206.647	0.863	1	incongruent	Block1	incongruent/STIM_010.jpg
209.675	0.86	1	incongruent	Block1	incongruent/STIM_010.jpg
214.354	0.762	1	incongruent	Block1	incongruent/STIM_010.jpg
218.742	0.767	1	incongruent	Block1	incongruent/STIM_011.jpg
221.82	0.785	1	incongruent	Block1	incongruent/STIM_011.jpg
226.252	1.279	1	incongruent	Block1	incongruent/STIM_011.jpg
230.821	1.201	1	incongruent	Block1	incongruent/STIM_011.jpg
234.488	0.845	1	incongruent	Block1	incongruent/STIM_011.jpg
238.927	1.422	0	incongruent	Block1	incongruent/STIM_012.jpg
243.091	1.24	1	incongruent	Block1	incongruent/STIM_012.jpg
247.948	0.614	1	incongruent	Block1	incongruent/STIM_012.jpg
251.286	1.014	1	incongruent	Block1	incongruent/STIM_012.jpg
255.044	1.024	1	incongruent	Block1	incongruent/STIM_012.jpg
258.924	1.033	1	incongruent	Block1	incongruent/STIM_013.jpg
263.19	1.005	1	incongruent	Block1	incongruent/STIM_013.jpg
266.347	1.231	1	incongruent	Block1	incongruent/STIM_013.jpg
271.264	0.778	1	incongruent	Block1	incongruent/STIM_013.jpg
275.336	0.81	1	incongruent	Block1	incongruent/STIM_013.jpg
279.539	0.804	1	incongruent	Block1	incongruent/STIM_014.jpg
284.333	0.919	1	incongruent	Block1	incongruent/STIM_014.jpg
288.13	1.076	1	incongruent	Block1	incongruent/STIM_014.jpg
293.036	1.032	1	incongruent	Block1	incongruent/STIM_014.jpg
296.687	0.908	1	incongruent	Block1	incongruent/STIM_014.jpg
300.445	1.414	1	incongruent	Block1	incongruent/STIM_015.jpg
305.505	1.319	1	incongruent	Block1	incongruent/STIM_015.jpg
310.214	1.119	1	incongruent	Block1	incongruent/STIM_015.jpg
313.456	0.885	1	incongruent	Block1	incongruent/STIM_015.jpg
317.828	0.626	1	incongruent	Block1	incongruent/STIM_015.jpg
320.946	1.024	1	incongruent	Block1	incongruent/STIM_016.jpg
324.942	1.206	0	incongruent	Block1	incongruent/STIM_016.jpg
328.517	0.719	1	incongruent	Block1	incongruent/STIM_016.jpg
331.354	0.642	1	incongruent	Block1	incongruent/STIM_016.jpg
336.023	0.778	1	incongruent	Block1	incongruent/STIM_016.jpg
339.011	1.231	1	incongruent	Block1	incongruent/STIM_017.jpg
343.512	0.824	1	incongruent	Block1	incongruent/STIM_017.jpg
346.732	1.089	1	incongruent	Block1	incongruent/STIM_017.jpg
350.623	0.651	1	incongruent	Block1	incongruent/STIM_017.jpg
353.351	1.103	1	incongruent	Block1	incongruent/STIM_017.jpg
357.125	1.037	1	incongruent	Block1	incongruent/STIM_018.jpg
361.305	0.887	1	incongruent	Block1	incongruent/STIM_018.jpg
364.89	1.15	1	incongruent	Block1	incongruent/STIM_018.jpg
369.59	0.685	1	incongruent	Block1	incongruent/STIM_018.jpg
373.285	0.738	1	incongruent	Block1	incongruent/STIM_018.jpg
376.385	1.315	1	incongruent	Block1	incongruent/STIM_019.jpg
380.62	0.69	1	incongruent	Block1	incongruent/STIM_019.jpg
384.474	0.97	1	incongruent	Block1	incongruent/STIM_019.jpg
388.946	0.912	1	incongruent	Block1	incongruent/STIM_019.jpg
393.535	0.658	1	incongruent	Block1	incongruent/STIM_019.jpg
396.593	0.856	0	incongruent	Block1	incongruent/STIM_020.jpg
400.561	0.931	1	incongruent	Block1	incongruent/STIM_020.jpg
404.435	0.95	1	incongruent	Block1	incongruent/STIM_020.jpg
409.193	0.628	1	incongruent	Block1	incongruent/STIM_020.jpg
411.903	0.915	1	incongruent	Block1	incongruent/STIM_020.jpg
414.936	1.372	1	incongruent	Block1	incongruent/STIM_021.jpg
418.838	1.161	1	incongruent	Block1	incongruent/STIM_021.jpg
423.059	1.075	1	incongruent	Block1	incongruent/STIM_021.jpg
427.294	1.004	0	incongruent	Block1	incongruent/STIM_021.jpg
431.977	0.646	1	incongruent	Block1	incongruent/STIM_021.jpg
435.75	1.257	1	incongruent	Block1	incongruent/STIM_022.jpg
440.424	0.78	1	incongruent	Block1	incongruent/STIM_022.jpg
444.8	1.142	1	incongruent	Block1	incongruent/STIM_022.jpg
449.838	1.174	1	incongruent	Block1	incongruent/STIM_022.jpg
454.448	0.694	1	incongruent	Block1	incongruent/STIM_022.jpg
458.657	1.186	1	incongruent	Block1	incongruent/STIM_023.jpg
462.607	1.208	1	incongruent	Block1	incongruent/STIM_023.jpg
467.167	0.795	1	incongruent	Block1	incongruent/STIM_023.jpg
471.516	1.186	1	incongruent	Block1	incongruent/STIM_023.jpg
475.839	0.782	0	incongruent	Block1	incongruent/STIM_023.jpg
480.154	0.758	1	incongruent	Block1	incongruent/STIM_024.jpg
484.845	1.03	0	incongruent	Block1	incongruent/STIM_024.jpg
489.271	1.083	1	incongruent	Block1	incongruent/STIM_024.jpg
493.67	0.898	1	incongruent	Block1	incongruent/STIM_024.jpg
497.81	0.598	0	incongruent	Block1	incongruent/STIM_024.jpg
502.382	0.762	1	incongruent	Block1	incongruent/STIM_025.jpg
505.362	0.946	0	incongruent	Block1	incongruent/STIM_025.jpg
508.706	1.201	1	incongruent	Block1	incongruent/STIM_025.jpg
512.427	0.994	1	incongruent	Block1	incongruent/STIM_025.jpg
516.394	1.063	1	incongruent	Block1	incongruent/STIM_025.jpg
520.851	0.922	1	incongruent	Block1	incongruent/STIM_026.jpg
524.079	0.683	1	incongruent	Block1	incongruent/STIM_026.jpg
528.74	1.132	1	incongruent	Block1	incongruent/STIM_026.jpg
533.495	0.956	1	incongruent	Block1	incongruent/STIM_026.jpg
538.488	0.819	1	incongruent	Block1	incongruent/STIM_026.jpg
542.045	1.156	1	incongruent	Block1	incongruent/STIM_027.jpg
546.427	1.21	1	incongruent	Block1	incongruent/STIM_027.jpg
550.206	0.6	1	incongruent	Block1	incongruent/STIM_027.jpg
554.142	0.577	1	incongruent	Block1	incongruent/STIM_027.jpg
558.383	0.797	1	incongruent	Block1	incongruent/STIM_027.jpg
563.07	0.892	0	incongruent	Block1	incongruent/STIM_028.jpg
566.27	1.14	1	incongruent	Block1	incongruent/STIM_028.jpg
570.031	1.214	1	incongruent	Block1	incongruent/STIM_028.jpg
574.052	0.764	1	incongruent	Block1	incongruent/STIM_028.jpg
578.156	0.798	1	incongruent	Block1	incongruent/STIM_028.jpg
581.34	1.399	1	incongruent	Block1	incongruent/STIM_029.jpg
585.209	1.076	1	incongruent	Block1	incongruent/STIM_029.jpg
588.896	1.166	1	incongruent	Block1	incongruent/STIM_029.jpg
592.624	1.168	1	incongruent	Block1	incongruent/STIM_029.jpg
596.634	0.767	1	incongruent	Block1	incongruent/STIM_029.jpg
600.744	0.538	1	congruent	Block1	congruent/STIM_000.jpg
604.384	0.512	1	congruent	Block1	congruent/STIM_000.jpg
608.204	0.477	1	congruent	Block1	congruent/STIM_000.jpg
611.603	0.52	1	congruent	Block1	congruent/STIM_000.jpg
614.163	0.802	1	congruent	Block1	congruent/STIM_000.jpg
618.042	0.779	1	congruent	Block1	congruent/STIM_001.jpg
622.862	0.483	1	congruent	Block1	congruent/STIM_001.jpg
627.283	0.776	1	congruent	Block1	congruent/STIM_001.jpg
630.741	0.634	1	congruent	Block1	congruent/STIM_001.jpg
633.856	0.85	1	congruent	Block1	congruent/STIM_001.jpg
636.763	0.635	0	congruent	Block1	congruent/STIM_002.jpg
640.159	0.85	1	congruent	Block1	congruent/STIM_002.jpg
643.183	0.573	1	congruent	Block1	congruent/STIM_002.jpg
645.851	0.707	1	congruent	Block1	congruent/STIM_002.jpg
650.474	0.533	1	congruent	Block1	congruent/STIM_002.jpg
653.103	0.56	1	congruent	Block1	congruent/STIM_003.jpg
657.4	0.741	1	congruent	Block1	congruent/STIM_003.jpg
661.505	0.683	1	congruent	Block1	congruent/STIM_003.jpg
665.69	0.583	1	congruent	Block1	congruent/STIM_003.jpg
669.369	0.714	1	congruent	Block1	congruent/STIM_003.jpg
673.655	0.808	1	congruent	Block1	congruent/STIM_004.jpg
677.906	0.694	1	congruent	Block1	congruent/STIM_004.jpg
681.895	0.64	1	congruent	Block1	congruent/STIM_004.jpg
686.513	0.514	1	congruent	Block1	congruent/STIM_004.jpg
690.156	0.479	1	congruent	Block1	congruent/STIM_004.jpg
693.72	0.488	1	congruent	Block1	congruent/STIM_005.jpg
697.458	0.577	1	congruent	Block1	congruent/STIM_005.jpg
701.834	0.686	1	congruent	Block1	congruent/STIM_005.jpg
704.813	0.622	1	congruent	Block1	congruent/STIM_005.jpg
709.104	0.78	0	congruent	Block1	congruent/STIM_005.jpg
712.299	0.808	1	congruent	Block1	congruent/STIM_006.jpg
715.212	0.786	1	congruent	Block1	congruent/STIM_006.jpg
718.388	0.701	1	congruent	Block1	congruent/STIM_006.jpg
722.108	0.567	1	congruent	Block1	congruent/STIM_006.jpg
725.912	0.756	1	congruent	Block1	congruent/STIM_006.jpg
729.081	0.502	1	congruent	Block1	congruent/STIM_007.jpg
731.834	0.686	1	congruent	Block1	congruent/STIM_007.jpg
735.922	0.559	1	congruent	Block1	congruent/STIM_007.jpg
740.312	0.659	1	congruent	Block1	congruent/STIM_007.jpg
744.711	0.682	1	congruent	Block1	congruent/STIM_007.jpg
748.487	0.621	1	congruent	Block1	congruent/STIM_008.jpg
752.812	0.602	1	congruent	Block1	congruent/STIM_008.jpg
755.555	0.774	1	congruent	Block1	congruent/STIM_008.jpg
759.99	0.684	1	congruent	Block1	congruent/STIM_008.jpg
762.837	0.645	1	congruent	Block1	congruent/STIM_008.jpg
766.496	0.565	1	congruent	Block1	congruent/STIM_009.jpg
771.03	0.725	0	congruent	Block1	congruent/STIM_009.jpg
775.742	0.498	1	congruent	Block1	congruent/STIM_009.jpg
779.265	0.704	1	congruent	Block1	congruent/STIM_009.jpg
782.304	0.475	1	congruent	Block1	congruent/STIM_009.jpg
785.972	0.803	1	congruent	Block1	congruent/STIM_010.jpg
790.348	0.744	1	congruent	Block1	congruent/STIM_010.jpg
793.244	0.786	1	congruent	Block1	congruent/STIM_010.jpg
797.466	0.8	1	congruent	Block1	congruent/STIM_010.jpg
801.048	0.563	1	congruent	Block1	congruent/STIM_010.jpg
805.254	0.804	1	congruent	Block1	congruent/STIM_011.jpg
809.196	0.608	1	congruent	Block1	congruent/STIM_011.jpg
813.737	0.499	1	congruent	Block1	congruent/STIM_011.jpg
817.417	0.51	1	congruent	Block1	congruent/STIM_011.jpg
820.896	0.761	1	congruent	Block1	congruent/STIM_011.jpg
825.689	0.657	1	congruent	Block1	congruent/STIM_012.jpg
829.684	0.739	1	congruent	Block1	congruent/STIM_012.jpg
832.848	0.735	1	congruent	Block1	congruent/STIM_012.jpg
835.894	0.802	1	congruent	Block1	congruent/STIM_012.jpg
840.17	0.853	0	congruent	Block1	congruent/STIM_012.jpg
843.705	0.545	1	congruent	Block1	congruent/STIM_013.jpg
846.746	0.56	1	congruent	Block1	congruent/STIM_013.jpg
850.646	0.584	1	congruent	Block1	congruent/STIM_013.jpg
854.83	0.85	1	congruent	Block1	congruent/STIM_013.jpg
858.448	0.567	1	congruent	Block1	congruent/STIM_013.jpg
861.375	0.492	1	congruent	Block1	congruent/STIM_014.jpg
864.769	0.782	1	congruent	Block1	congruent/STIM_014.jpg
868.646	0.742	1	congruent	Block1	congruent/STIM_014.jpg
872.749	0.498	1	congruent	Block1	congruent/STIM_014.jpg
876.443	0.652	1	congruent	Block1	congruent/STIM_014.jpg
879.493	0.717	1	congruent	Block1	congruent/STIM_015.jpg
883.73	0.691	1	congruent	Block1	congruent/STIM_015.jpg
887.899	0.596	1	congruent	Block1	congruent/STIM_015.jpg
891.564	0.602	1	congruent	Block1	congruent/STIM_015.jpg
895.726	0.691	1	congruent	Block1	congruent/STIM_015.jpg
899.713	0.609	1	congruent	Block1	congruent/STIM_016.jpg
903.92	0.664	1	congruent	Block1	congruent/STIM_016.jpg
907.094	0.826	1	congruent	Block1	congruent/STIM_016.jpg
911.212	0.685	1	congruent	Block1	congruent/STIM_016.jpg
914.906	0.79	1	congruent	Block1	congruent/STIM_016.jpg
919.045	0.814	1	congruent	Block1	congruent/STIM_017.jpg
923.597	0.723	1	congruent	Block1	congruent/STIM_017.jpg
926.475	0.644	1	congruent	Block1	congruent/STIM_017.jpg
929.654	0.796	1	congruent	Block1	congruent/STIM_017.jpg
932.835	0.788	1	congruent	Block1	congruent/STIM_017.jpg
937.466	0.652	1	congruent	Block1	congruent/STIM_018.jpg
940.619	0.715	0	congruent	Block1	congruent/STIM_018.jpg
944.784	0.664	1	congruent	Block1	congruent/STIM_018.jpg
949.194	0.536	1	congruent	Block1	congruent/STIM_018.jpg
952.044	0.62	1	congruent	Block1	congruent/STIM_018.jpg
954.914	0.585	1	congruent	Block1	congruent/STIM_019.jpg
957.668	0.526	1	congruent	Block1	congruent/STIM_019.jpg
961.365	0.752	1	congruent	Block1	congruent/STIM_019.jpg
964.755	0.768	1	congruent	Block1	congruent/STIM_019.jpg
967.761	0.796	1	congruent	Block1	congruent/STIM_019.jpg
972.214	0.724	1	congruent	Block1	congruent/STIM_020.jpg
975.904	0.675	1	congruent	Block1	congruent/STIM_020.jpg
980.103	0.673	1	congruent	Block1	congruent/STIM_020.jpg
983.192	0.775	1	congruent	Block1	congruent/STIM_020.jpg
986.345	0.544	1	congruent	Block1	congruent/STIM_020.jpg
990.254	0.562	1	congruent	Block1	congruent/STIM_021.jpg
993.4	0.51	1	congruent	Block1	congruent/STIM_021.jpg
997.245	0.494	1	congruent	Block1	congruent/STIM_021.jpg
999.955	0.78	1	congruent	Block1	congruent/STIM_021.jpg
1002.884	0.832	1	congruent	Block1	congruent/STIM_021.jpg
1006.124	0.499	1	congruent	Block1	congruent/STIM_022.jpg
1008.726	0.584	1	congruent	Block1	congruent/STIM_022.jpg
1011.586	0.603	1	congruent	Block1	congruent/STIM_022.jpg
1014.353	0.736	1	congruent	Block1	congruent/STIM_022.jpg
1017.654	0.661	1	congruent	Block1	congruent/STIM_022.jpg
1022.006	0.83	1	congruent	Block1	congruent/STIM_023.jpg
1026.249	0.544	1	congruent	Block1	congruent/STIM_023.jpg
1029.232	0.744	1	congruent	Block1	congruent/STIM_023.jpg
1033.596	0.758	1	congruent	Block1	congruent/STIM_023.jpg
1036.942	0.74	1	congruent	Block1	congruent/STIM_023.jpg
1040.748	0.584	1	congruent	Block1	congruent/STIM_024.jpg
1044.091	0.482	1	congruent	Block1	congruent/STIM_024.jpg
1047.541	0.577	1	congruent	Block1	congruent/STIM_024.jpg
1050.883	0.838	1	congruent	Block1	congruent/STIM_024.jpg
1054.793	0.576	1	congruent	Block1	congruent/STIM_024.jpg
1057.917	0.753	1	congruent	Block1	congruent/STIM_025.jpg
1062.51	0.478	1	congruent	Block1	congruent/STIM_025.jpg
1066.099	0.554	1	congruent	Block1	congruent/STIM_025.jpg
1070.313	0.509	1	congruent	Block1	congruent/STIM_025.jpg
1074.576	0.531	1	congruent	Block1	congruent/STIM_025.jpg
1078.2	0.555	1	congruent	Block1	congruent/STIM_026.jpg
1081.171	0.526	1	congruent	Block1	congruent/STIM_026.jpg
1084.195	0.747	1	congruent	Block1	congruent/STIM_026.jpg
1088.385	0.778	1	congruent	Block1	congruent/STIM_026.jpg
1092.304	0.696	1	congruent	Block1	congruent/STIM_026.jpg
1095.324	0.618	1	congruent	Block1	congruent/STIM_027.jpg
1099.415	0.707	1	congruent	Block1	congruent/STIM_027.jpg
1102.175	0.789	1	congruent	Block1	congruent/STIM_027.jpg
1106.75	0.802	1	congruent	Block1	congruent/STIM_027.jpg
1110.673	0.838	1	congruent	Block1	congruent/STIM_027.jpg
1115.125	0.709	1	congruent	Block1	congruent/STIM_028.jpg
1119.407	0.614	1	congruent	Block1	congruent/STIM_028.jpg
1123.928	0.546	1	congruent	Block1	congruent/STIM_028.jpg
1128.084	0.788	1	congruent	Block1	congruent/STIM_028.jpg
1132.6	0.699	1	congruent	Block1	congruent/STIM_028.jpg
1136.079	0.604	1	congruent	Block1	congruent/STIM_029.jpg
1140.29	0.696	1	congruent	Block1	congruent/STIM_029.jpg
1144.808	0.498	1	congruent	Block1	congruent/STIM_029.jpg
1148.562	0.544	1	congruent	Block1	congruent/STIM_029.jpg
1151.286	0.739	1	congruent	Block1	congruent/STIM_029.jpg
1154.991	1.023	1	incongruent	Block2	incongruent/STIM_000.jpg
1159.029	0.962	1	incongruent	Block2	incongruent/STIM_000.jpg
1162.764	0.806	1	incongruent	Block2	incongruent/STIM_000.jpg
1166.162	0.916	1	incongruent	Block2	incongruent/STIM_000.jpg
1170.117	0.527	0	incongruent	Block2	incongruent/STIM_000.jpg
1174.046	0.822	1	incongruent	Block2	incongruent/STIM_001.jpg
1177.44	0.893	1	incongruent	Block2	incongruent/STIM_001.jpg
1181.685	0.845	1	incongruent	Block2	incongruent/STIM_001.jpg
1184.913	0.966	1	incongruent	Block2	incongruent/STIM_001.jpg
1189.178	0.469	1	incongruent	Block2	incongruent/STIM_001.jpg
1193.172	1.038	0	incongruent	Block2	incongruent/STIM_002.jpg
1197.362	0.541	1	incongruent	Block2	incongruent/STIM_002.jpg
1200.446	0.71	1	incongruent	Block2	incongruent/STIM_002.jpg
1204.005	0.907	1	incongruent	Block2	incongruent/STIM_002.jpg
1207.178	0.667	0	incongruent	Block2	incongruent/STIM_002.jpg
1211.734	1.018	1	incongruent	Block2	incongruent/STIM_003.jpg
1215.392	0.57	1	incongruent	Block2	incongruent/STIM_003.jpg
1219.588	0.952	1	incongruent	Block2	incongruent/STIM_003.jpg
1223.195	0.546	1	incongruent	Block2	incongruent/STIM_003.jpg
1226.92	0.592	1	incongruent	Block2	incongruent/STIM_003.jpg
1230.186	0.994	1	incongruent	Block2	incongruent/STIM_004.jpg
1235.044	0.902	1	incongruent	Block2	incongruent/STIM_004.jpg
1238.21	1.064	1	incongruent	Block2	incongruent/STIM_004.jpg
1243.07	0.908	1	incongruent	Block2	incongruent/STIM_004.jpg
1247.575	0.738	1	incongruent	Block2	incongruent/STIM_004.jpg
1250.862	0.74	1	incongruent	Block2	incongruent/STIM_005.jpg
1255.604	1.116	1	incongruent	Block2	incongruent/STIM_005.jpg
1260.372	0.717	1	incongruent	Block2	incongruent/STIM_005.jpg
1263.656	0.472	1	incongruent	Block2	incongruent/STIM_005.jpg
1267.123	0.758	1	incongruent	Block2	incongruent/STIM_005.jpg
1270.36	1.017	1	incongruent	Block2	incongruent/STIM_006.jpg
1273.552	0.848	1	incongruent	Block2	incongruent/STIM_006.jpg
1277.521	0.818	1	incongruent	Block2	incongruent/STIM_006.jpg
1281.837	0.601	1	incongruent	Block2	incongruent/STIM_006.jpg
1285.529	0.594	1	incongruent	Block2	incongruent/STIM_006.jpg
1289.65	0.869	1	incongruent	Block2	incongruent/STIM_007.jpg
1293.028	0.705	1	incongruent	Block2	incongruent/STIM_007.jpg
1296.726	0.509	1	incongruent	Block2	incongruent/STIM_007.jpg
1300.926	0.909	1	incongruent	Block2	incongruent/STIM_007.jpg
1305.702	0.814	1	incongruent	Block2	incongruent/STIM_007.jpg
1309.993	0.897	1	incongruent	Block2	incongruent/STIM_008.jpg
1313.208	0.564	1	incongruent	Block2	incongruent/STIM_008.jpg
1316.136	0.984	0	incongruent	Block2	incongruent/STIM_008.jpg
1319.958	0.824	1	incongruent	Block2	incongruent/STIM_008.jpg
1323.45	0.665	1	incongruent	Block2	incongruent/STIM_008.jpg
1327.011	0.567	1	incongruent	Block2	incongruent/STIM_009.jpg
1331.27	0.542	1	incongruent	Block2	incongruent/STIM_009.jpg
1334.604	0.892	1	incongruent	Block2	incongruent/STIM_009.jpg
1339.327	0.71	1	incongruent	Block2	incongruent/STIM_009.jpg
1342.198	0.961	1	incongruent	Block2	incongruent/STIM_009.jpg
1346.322	0.72	1	incongruent	Block2	incongruent/STIM_010.jpg
1350.228	0.746	1	incongruent	Block2	incongruent/STIM_010.jpg
1353.747	0.516	1	incongruent	Block2	incongruent/STIM_010.jpg
1356.591	0.828	1	incongruent	Block2	incongruent/STIM_010.jpg
1360.347	0.775	1	incongruent	Block2	incongruent/STIM_010.jpg
1363.446	0.658	1	incongruent	Block2	incongruent/STIM_011.jpg
1367.096	0.984	0	incongruent	Block2	incongruent/STIM_011.jpg
1370.151	0.812	1	incongruent	Block2	incongruent/STIM_011.jpg
1374.22	0.523	1	incongruent	Block2	incongruent/STIM_011.jpg
1376.779	0.694	1	incongruent	Block2	incongruent/STIM_011.jpg
1380.744	1.114	1	incongruent	Block2	incongruent/STIM_012.jpg
1385.124	0.973	1	incongruent	Block2	incongruent/STIM_012.jpg
1390.021	0.773	1	incongruent	Block2	incongruent/STIM_012.jpg
1393.351	0.803	1	incongruent	Block2	incongruent/STIM_012.jpg
1397.476	0.871	1	incongruent	Block2	incongruent/STIM_012.jpg
1400.87	0.956	1	incongruent	Block2	incongruent/STIM_013.jpg
1404.087	0.818	1	incongruent	Block2	incongruent/STIM_013.jpg
1408.647	0.785	1	incongruent	Block2	incongruent/STIM_013.jpg
1412.053	0.952	1	incongruent	Block2	incongruent/STIM_013.jpg
1415.453	0.852	1	incongruent	Block2	incongruent/STIM_013.jpg
1419.288	0.946	1	incongruent	Block2	incongruent/STIM_014.jpg
1422.67	1.012	1	incongruent	Block2	incongruent/STIM_014.jpg
1425.847	0.554	1	incongruent	Block2	incongruent/STIM_014.jpg
1430.378	0.685	1	incongruent	Block2	incongruent/STIM_014.jpg
1433.906	0.834	1	incongruent	Block2	incongruent/STIM_014.jpg
1437.865	0.763	0	incongruent	Block2	incongruent/STIM_015.jpg
1441.011	0.712	1	incongruent	Block2	incongruent/STIM_015.jpg
1444.655	0.695	1	incongruent	Block2	incongruent/STIM_015.jpg
1448.272	0.931	1	incongruent	Block2	incongruent/STIM_015.jpg
1451.72	0.876	1	incongruent	Block2	incongruent/STIM_015.jpg
1455.669	0.666	1	incongruent	Block2	incongruent/STIM_016.jpg
1459.418	1.072	1	incongruent	Block2	incongruent/STIM_016.jpg
1463.703	0.674	1	incongruent	Block2	incongruent/STIM_016.jpg
1467.109	0.817	0	incongruent	Block2	incongruent/STIM_016.jpg
1471.493	0.898	1	incongruent	Block2	incongruent/STIM_016.jpg
1475.166	1.205	0	incongruent	Block2	incongruent/STIM_017.jpg
1480.266	0.871	1	incongruent	Block2	incongruent/STIM_017.jpg
1483.509	0.574	1	incongruent	Block2	incongruent/STIM_017.jpg
1486.382	0.549	1	incongruent	Block2	incongruent/STIM_017.jpg
1490.691	0.686	1	incongruent	Block2	incongruent/STIM_017.jpg
1494.939	1.086	1	incongruent	Block2	incongruent/STIM_018.jpg
1499.259	0.992	1	incongruent	Block2	incongruent/STIM_018.jpg
1502.493	0.998	1	incongruent	Block2	incongruent/STIM_018.jpg
1506.261	0.564	1	incongruent	Block2	incongruent/STIM_018.jpg
1509.537	0.659	1	incongruent	Block2	incongruent/STIM_018.jpg
1513.277	0.79	1	incongruent	Block2	incongruent/STIM_019.jpg
1517.234	1.059	1	incongruent	Block2	incongruent/STIM_019.jpg
1522.172	1.001	1	incongruent	Block2	incongruent/STIM_019.jpg
1526.575	0.928	1	incongruent	Block2	incongruent/STIM_019.jpg
1530.146	0.984	1	incongruent	Block2	incongruent/STIM_019.jpg
1534.492	0.847	1	incongruent	Block2	incongruent/STIM_020.jpg
1538.871	0.861	1	incongruent	Block2	incongruent/STIM_020.jpg
1543.536	0.598	1	incongruent	Block2	incongruent/STIM_020.jpg
1546.493	0.95	1	incongruent	Block2	incongruent/STIM_020.jpg
1550.946	0.596	1	incongruent	Block2	incongruent/STIM_020.jpg
1555.039	1.025	1	incongruent	Block2	incongruent/STIM_021.jpg
1560.089	0.667	1	incongruent	Block2	incongruent/STIM_021.jpg
1563.503	0.994	1	incongruent	Block2	incongruent/STIM_021.jpg
1566.926	0.529	1	incongruent	Block2	incongruent/STIM_021.jpg
1570.713	0.534	1	incongruent	Block2	incongruent/STIM_021.jpg
1574.112	0.671	1	incongruent	Block2	incongruent/STIM_022.jpg
1577.717	0.561	1	incongruent	Block2	incongruent/STIM_022.jpg
1582.122	0.697	1	incongruent	Block2	incongruent/STIM_022.jpg
1586.301	0.551	1	incongruent	Block2	incongruent/STIM_022.jpg
1590.387	0.944	1	incongruent	Block2	incongruent/STIM_022.jpg
1594.8	1.165	1	incongruent	Block2	incongruent/STIM_023.jpg
1598.345	0.957	1	incongruent	Block2	incongruent/STIM_023.jpg
1602.56	0.97	0	incongruent	Block2	incongruent/STIM_023.jpg
1607.237	0.987	1	incongruent	Block2	incongruent/STIM_023.jpg
1610.359	0.701	1	incongruent	Block2	incongruent/STIM_023.jpg
1614.125	0.606	1	incongruent	Block2	incongruent/STIM_024.jpg
1617.584	0.81	1	incongruent	Block2	incongruent/STIM_024.jpg
1621.163	0.967	1	incongruent	Block2	incongruent/STIM_024.jpg
1624.646	0.654	1	incongruent	Block2	incongruent/STIM_024.jpg
1627.977	0.729	1	incongruent	Block2	incongruent/STIM_024.jpg
1630.843	0.91	1	incongruent	Block2	incongruent/STIM_025.jpg
1634.079	0.754	1	incongruent	Block2	incongruent/STIM_025.jpg
1637.116	0.844	1	incongruent	Block2	incongruent/STIM_025.jpg
1640.975	0.619	1	incongruent	Block2	incongruent/STIM_025.jpg
1644.287	0.851	1	incongruent	Block2	incongruent/STIM_025.jpg
1647.423	0.849	1	incongruent	Block2	incongruent/STIM_026.jpg
1651.042	0.783	1	incongruent	Block2	incongruent/STIM_026.jpg
1654.356	0.579	1	incongruent	Block2	incongruent/STIM_026.jpg
1657.587	0.974	1	incongruent	Block2	incongruent/STIM_026.jpg
1661.155	0.598	1	incongruent	Block2	incongruent/STIM_026.jpg
1664.692	1.115	1	incongruent	Block2	incongruent/STIM_027.jpg
1669.783	0.966	1	incongruent	Block2	incongruent/STIM_027.jpg
1674.059	0.917	1	incongruent	Block2	incongruent/STIM_027.jpg
1678.026	0.806	1	incongruent	Block2	incongruent/STIM_027.jpg
1682.272	0.667	1	incongruent	Block2	incongruent/STIM_027.jpg
1685.43	1.103	1	incongruent	Block2	incongruent/STIM_028.jpg
1689.957	0.651	1	incongruent	Block2	incongruent/STIM_028.jpg
1694.401	1.008	1	incongruent	Block2	incongruent/STIM_028.jpg
1697.9	0.766	0	incongruent	Block2	incongruent/STIM_028.jpg
1701.351	0.954	1	incongruent	Block2	incongruent/STIM_028.jpg
1705.444	0.896	1	incongruent	Block2	incongruent/STIM_029.jpg
1709.128	0.704	1	incongruent	Block2	incongruent/STIM_029.jpg
1712.148	0.619	1	incongruent	Block2	incongruent/STIM_029.jpg
1715.304	0.741	1	incongruent	Block2	incongruent/STIM_029.jpg
1718.486	0.962	0	incongruent	Block2	incongruent/STIM_029.jpg
1722.739	0.651	0	congruent	Block2	congruent/STIM_000.jpg
1726.435	0.648	1	congruent	Block2	congruent/STIM_000.jpg
1729.229	0.574	1	congruent	Block2	congruent/STIM_000.jpg
1733.334	0.814	1	congruent	Block2	congruent/STIM_000.jpg
1737.361	0.541	1	congruent	Block2	congruent/STIM_000.jpg
1741.79	0.559	1	congruent	Block2	congruent/STIM_001.jpg
1746.171	0.823	1	congruent	Block2	congruent/STIM_001.jpg
1750.621	0.639	1	congruent	Block2	congruent/STIM_001.jpg
1753.72	0.577	1	congruent	Block2	congruent/STIM_001.jpg
1758.169	0.484	1	congruent	Block2	congruent/STIM_001.jpg
1761.667	0.784	1	congruent	Block2	congruent/STIM_002.jpg
1766.114	0.638	0	congruent	Block2	congruent/STIM_002.jpg
1770.112	0.724	1	congruent	Block2	congruent/STIM_002.jpg
1772.999	0.764	1	congruent	Block2	congruent/STIM_002.jpg
1776.917	0.545	1	congruent	Block2	congruent/STIM_002.jpg
1781.354	0.504	1	congruent	Block2	congruent/STIM_003.jpg
1785.549	0.679	1	congruent	Block2	congruent/STIM_003.jpg
1788.754	0.665	1	congruent	Block2	congruent/STIM_003.jpg
1792.731	0.722	1	congruent	Block2	congruent/STIM_003.jpg
1796.454	0.711	1	congruent	Block2	congruent/STIM_003.jpg
1800.613	0.594	0	congruent	Block2	congruent/STIM_004.jpg
1805.168	0.729	1	congruent	Block2	congruent/STIM_004.jpg
1809.61	0.767	1	congruent	Block2	congruent/STIM_004.jpg
1812.666	0.814	1	congruent	Block2	congruent/STIM_004.jpg
1816.271	0.598	1	congruent	Block2	congruent/STIM_004.jpg
1819.367	0.794	1	congruent	Block2	congruent/STIM_005.jpg
1822.517	0.803	1	congruent	Block2	congruent/STIM_005.jpg
1825.371	0.656	1	congruent	Block2	congruent/STIM_005.jpg
1830.046	0.586	1	congruent	Block2	congruent/STIM_005.jpg
1833.845	0.823	1	congruent	Block2	congruent/STIM_005.jpg
1837.142	0.583	1	congruent	Block2	congruent/STIM_006.jpg
1839.93	0.77	1	congruent	Block2	congruent/STIM_006.jpg
1843.74	0.733	1	congruent	Block2	congruent/STIM_006.jpg
1847.378	0.632	1	congruent	Block2	congruent/STIM_006.jpg
1850.765	0.732	1	congruent	Block2	congruent/STIM_006.jpg
1853.687	0.545	1	congruent	Block2	congruent/STIM_007.jpg
1858.077	0.504	1	congruent	Block2	congruent/STIM_007.jpg
1862.027	0.529	1	congruent	Block2	congruent/STIM_007.jpg
1865.873	0.582	1	congruent	Block2	congruent/STIM_007.jpg
1868.891	0.521	1	congruent	Block2	congruent/STIM_007.jpg
1872.096	0.624	1	congruent	Block2	congruent/STIM_008.jpg
1876.101	0.577	1	congruent	Block2	congruent/STIM_008.jpg
1879.585	0.559	1	congruent	Block2	congruent/STIM_008.jpg
1883.752	0.764	1	congruent	Block2	congruent/STIM_008.jpg
1887.097	0.81	1	congruent	Block2	congruent/STIM_008.jpg
1891.266	0.566	1	congruent	Block2	congruent/STIM_009.jpg
1895.019	0.784	1	congruent	Block2	congruent/STIM_009.jpg
1898.791	0.846	1	congruent	Block2	congruent/STIM_009.jpg
1902.415	0.75	1	congruent	Block2	congruent/STIM_009.jpg
1905.455	0.841	0	congruent	Block2	congruent/STIM_009.jpg
1910.27	0.692	1	congruent	Block2	congruent/STIM_010.jpg
1913.79	0.815	1	congruent	Block2	congruent/STIM_010.jpg
1918.29	0.666	1	congruent	Block2	congruent/STIM_010.jpg
1921.757	0.751	1	congruent	Block2	congruent/STIM_010.jpg
1925.745	0.561	0	congruent	Block2	congruent/STIM_010.jpg
1929.53	0.512	1	congruent	Block2	congruent/STIM_011.jpg
1932.692	0.663	1	congruent	Block2	congruent/STIM_011.jpg
1936.394	0.851	1	congruent	Block2	congruent/STIM_011.jpg
1939.56	0.657	1	congruent	Block2	congruent/STIM_011.jpg
1943.963	0.798	1	congruent	Block2	congruent/STIM_011.jpg
1947.816	0.74	1	congruent	Block2	congruent/STIM_012.jpg
1951.831	0.652	0	congruent	Block2	congruent/STIM_012.jpg
1955.729	0.76	1	congruent	Block2	congruent/STIM_012.jpg
1959.407	0.808	1	congruent	Block2	congruent/STIM_012.jpg
1963.362	0.539	1	congruent	Block2	congruent/STIM_012.jpg
1966.771	0.5	1	congruent	Block2	congruent/STIM_013.jpg
1970.609	0.664	1	congruent	Block2	congruent/STIM_013.jpg
1974.916	0.488	1	congruent	Block2	congruent/STIM_013.jpg
1979.339	0.538	1	congruent	Block2	congruent/STIM_013.jpg
1982.831	0.528	1	congruent	Block2	congruent/STIM_013.jpg
1986.305	0.656	1	congruent	Block2	congruent/STIM_014.jpg
1990.888	0.847	1	congruent	Block2	congruent/STIM_014.jpg
1994.098	0.563	1	congruent	Block2	congruent/STIM_014.jpg
1997.29	0.518	1	congruent	Block2	congruent/STIM_014.jpg
2000.039	0.746	1	congruent	Block2	congruent/STIM_014.jpg
2003.926	0.736	1	congruent	Block2	congruent/STIM_015.jpg
2007.488	0.62	1	congruent	Block2	congruent/STIM_015.jpg
2010.607	0.553	1	congruent	Block2	congruent/STIM_015.jpg
2013.54	0.58	1	congruent	Block2	congruent/STIM_015.jpg
2017.605	0.778	1	congruent	Block2	congruent/STIM_015.jpg
2020.49	0.628	1	congruent	Block2	congruent/STIM_016.jpg
2024.189	0.736	1	congruent	Block2	congruent/STIM_016.jpg
2028.478	0.63	1	congruent	Block2	congruent/STIM_016.jpg
2031.471	0.769	1	congruent	Block2	congruent/STIM_016.jpg
2035.988	0.55	0	congruent	Block2	congruent/STIM_016.jpg
2039.184	0.752	1	congruent	Block2	congruent/STIM_017.jpg
2042.533	0.49	1	congruent	Block2	congruent/STIM_017.jpg
2045.21	0.542	1	congruent	Block2	congruent/STIM_017.jpg
2047.835	0.671	1	congruent	Block2	congruent/STIM_017.jpg
2051.35	0.804	0	congruent	Block2	congruent/STIM_017.jpg
2054.34	0.598	1	congruent	Block2	congruent/STIM_018.jpg
2057.255	0.491	1	congruent	Block2	congruent/STIM_018.jpg
2060.251	0.585	1	congruent	Block2	congruent/STIM_018.jpg
2064.181	0.514	1	congruent	Block2	congruent/STIM_018.jpg
2066.874	0.479	1	congruent	Block2	congruent/STIM_018.jpg
2070.406	0.744	1	congruent	Block2	congruent/STIM_019.jpg
2073.486	0.679	1	congruent	Block2	congruent/STIM_019.jpg
2077.233	0.559	1	congruent	Block2	congruent/STIM_019.jpg
2080.136	0.686	1	congruent	Block2	congruent/STIM_019.jpg
2083.266	0.693	1	congruent	Block2	congruent/STIM_019.jpg
2086.672	0.589	1	congruent	Block2	congruent/STIM_020.jpg
2089.714	0.578	1	congruent	Block2	congruent/STIM_020.jpg
2093.644	0.671	0	congruent	Block2	congruent/STIM_020.jpg
2097.423	0.843	1	congruent	Block2	congruent/STIM_020.jpg
2100.353	0.807	1	congruent	Block2	congruent/STIM_020.jpg
2103.836	0.749	1	congruent	Block2	congruent/STIM_021.jpg
2107.079	0.753	1	congruent	Block2	congruent/STIM_021.jpg
2111.387	0.583	1	congruent	Block2	congruent/STIM_021.jpg
2114.944	0.819	1	congruent	Block2	congruent/STIM_021.jpg
2118.347	0.783	1	congruent	Block2	congruent/STIM_021.jpg
2121.441	0.758	1	congruent	Block2	congruent/STIM_022.jpg
2125.675	0.498	1	congruent	Block2	congruent/STIM_022.jpg
2130.164	0.836	1	congruent	Block2	congruent/STIM_022.jpg
2134.588	0.687	1	congruent	Block2	congruent/STIM_022.jpg
2139.071	0.692	1	congruent	Block2	congruent/STIM_022.jpg
2142.954	0.605	1	congruent	Block2	congruent/STIM_023.jpg
2146.354	0.784	1	congruent	Block2	congruent/STIM_023.jpg
2150.368	0.755	1	congruent	Block2	congruent/STIM_023.jpg
2154.033	0.521	1	congruent	Block2	congruent/STIM_023.jpg
2157.37	0.649	1	congruent	Block2	congruent/STIM_023.jpg
2161.716	0.554	1	congruent	Block2	congruent/STIM_024.jpg
2165.534	0.5	1	congruent	Block2	congruent/STIM_024.jpg
2169.284	0.7	0	congruent	Block2	congruent/STIM_024.jpg
2172.753	0.694	1	congruent	Block2	congruent/STIM_024.jpg
2176.56	0.717	1	congruent	Block2	congruent/STIM_024.jpg
2180.601	0.85	1	congruent	Block2	congruent/STIM_025.jpg
2184.801	0.484	1	congruent	Block2	congruent/STIM_025.jpg
2187.65	0.49	0	congruent	Block2	congruent/STIM_025.jpg
2191.083	0.68	0	congruent	Block2	congruent/STIM_025.jpg
2193.928	0.529	1	congruent	Block2	congruent/STIM_025.jpg
2197.328	0.585	1	congruent	Block2	congruent/STIM_026.jpg
2201.159	0.717	1	congruent	Block2	congruent/STIM_026.jpg
2205.551	0.765	1	congruent	Block2	congruent/STIM_026.jpg
2209.775	0.656	1	congruent	Block2	congruent/STIM_026.jpg
2213.637	0.813	1	congruent	Block2	congruent/STIM_026.jpg
2217.245	0.611	1	congruent	Block2	congruent/STIM_027.jpg
2221.23	0.714	1	congruent	Block2	congruent/STIM_027.jpg
2224.181	0.768	1	congruent	Block2	congruent/STIM_027.jpg
2228.655	0.568	1	congruent	Block2	congruent/STIM_027.jpg
2232.546	0.843	1	congruent	Block2	congruent/STIM_027.jpg
2236.371	0.814	1	congruent	Block2	congruent/STIM_028.jpg
2240.364	0.707	1	congruent	Block2	congruent/STIM_028.jpg
2244.819	0.475	1	congruent	Block2	congruent/STIM_028.jpg
2248.414	0.552	1	congruent	Block2	congruent/STIM_028.jpg
2252.126	0.701	1	congruent	Block2	congruent/STIM_028.jpg
2255.107	0.822	1	congruent	Block2	congruent/STIM_029.jpg
2258.985	0.714	1	congruent	Block2	congruent/STIM_029.jpg
2262.354	0.526	1	congruent	Block2	congruent/STIM_029.jpg
2265.375	0.598	1	congruent	Block2	congruent/STIM_029.jpg
2268.099	0.752	1	congruent	Block2	congruent/STIM_029.jpg
2271.633	0.472	1	incongruent	Block3	incongruent/STIM_000.jpg
2275.236	0.844	1	incongruent	Block3	incongruent/STIM_000.jpg
2279.651	0.545	1	incongruent	Block3	incongruent/STIM_000.jpg
2283.821	0.64	1	incongruent	Block3	incongruent/STIM_000.jpg
2287.793	0.954	1	incongruent	Block3	incongruent/STIM_000.jpg
2290.887	0.505	1	incongruent	Block3	incongruent/STIM_001.jpg
2294.105	0.936	0	incongruent	Block3	incongruent/STIM_001.jpg
2298.76	0.993	1	incongruent	Block3	incongruent/STIM_001.jpg
2302.238	0.913	1	incongruent	Block3	incongruent/STIM_001.jpg
2306.559	0.906	1	incongruent	Block3	incongruent/STIM_001.jpg
2310.386	0.83	1	incongruent	Block3	incongruent/STIM_002.jpg
2314.367	0.6	1	incongruent	Block3	incongruent/STIM_002.jpg
2317.361	0.972	1	incongruent	Block3	incongruent/STIM_002.jpg
2321.723	0.666	1	incongruent	Block3	incongruent/STIM_002.jpg
2326.114	0.576	1	incongruent	Block3	incongruent/STIM_002.jpg
2329.004	0.743	1	incongruent	Block3	incongruent/STIM_003.jpg
2333.689	0.549	1	incongruent	Block3	incongruent/STIM_003.jpg
2336.271	0.802	1	incongruent	Block3	incongruent/STIM_003.jpg
2340.998	0.937	1	incongruent	Block3	incongruent/STIM_003.jpg
2344.305	0.938	1	incongruent	Block3	incongruent/STIM_003.jpg
2348.248	0.938	1	incongruent	Block3	incongruent/STIM_004.jpg
2351.513	0.598	1	incongruent	Block3	incongruent/STIM_004.jpg
2355.234	0.7	1	incongruent	Block3	incongruent/STIM_004.jpg
2359.945	0.921	1	incongruent	Block3	incongruent/STIM_004.jpg
2362.932	0.564	1	incongruent	Block3	incongruent/STIM_004.jpg
2365.663	0.594	1	incongruent	Block3	incongruent/STIM_005.jpg
2368.78	0.483	1	incongruent	Block3	incongruent/STIM_005.jpg
2372.231	0.511	1	incongruent	Block3	incongruent/STIM_005.jpg
2376.117	0.597	1	incongruent	Block3	incongruent/STIM_005.jpg
2379.445	0.484	1	incongruent	Block3	incongruent/STIM_005.jpg
2383.424	0.565	1	incongruent	Block3	incongruent/STIM_006.jpg
2386.835	0.638	1	incongruent	Block3	incongruent/STIM_006.jpg
2390.677	0.52	1	incongruent	Block3	incongruent/STIM_006.jpg
2393.325	0.957	1	incongruent	Block3	incongruent/STIM_006.jpg
2397.757	0.794	1	incongruent	Block3	incongruent/STIM_006.jpg
2402.536	0.964	1	incongruent	Block3	incongruent/STIM_007.jpg
2405.884	0.652	1	incongruent	Block3	incongruent/STIM_007.jpg
2409.375	0.97	1	incongruent	Block3	incongruent/STIM_007.jpg
2413.508	0.763	1	incongruent	Block3	incongruent/STIM_007.jpg
2416.384	0.53	1	incongruent	Block3	incongruent/STIM_007.jpg
2419.016	0.851	1	incongruent	Block3	incongruent/STIM_008.jpg
2422.647	0.581	1	incongruent	Block3	incongruent/STIM_008.jpg
2425.962	0.725	1	incongruent	Block3	incongruent/STIM_008.jpg
2430.093	0.757	1	incongruent	Block3	incongruent/STIM_008.jpg
2434.658	0.558	1	incongruent	Block3	incongruent/STIM_008.jpg
2438.473	0.506	1	incongruent	Block3	incongruent/STIM_009.jpg
2441.219	0.538	1	incongruent	Block3	incongruent/STIM_009.jpg
2443.946	0.499	1	incongruent	Block3	incongruent/STIM_009.jpg
2447.222	0.789	1	incongruent	Block3	incongruent/STIM_009.jpg
2450.862	0.88	1	incongruent	Block3	incongruent/STIM_009.jpg
2454.277	0.785	1	incongruent	Block3	incongruent/STIM_010.jpg
2457.766	0.73	1	incongruent	Block3	incongruent/STIM_010.jpg
2460.601	0.952	1	incongruent	Block3	incongruent/STIM_010.jpg
2464.59	0.818	1	incongruent	Block3	incongruent/STIM_010.jpg
2467.706	0.766	1	incongruent	Block3	incongruent/STIM_010.jpg
2470.799	0.754	1	incongruent	Block3	incongruent/STIM_011.jpg
2473.893	0.478	1	incongruent	Block3	incongruent/STIM_011.jpg
2477.079	0.583	1	incongruent	Block3	incongruent/STIM_011.jpg
2481.416	0.671	1	incongruent	Block3	incongruent/STIM_011.jpg
2485.036	0.523	1	incongruent	Block3	incongruent/STIM_011.jpg
2488.047	0.68	1	incongruent	Block3	incongruent/STIM_012.jpg
2492.134	0.777	1	incongruent	Block3	incongruent/STIM_012.jpg
2495.203	0.567	1	incongruent	Block3	incongruent/STIM_012.jpg
2497.972	0.889	1	incongruent	Block3	incongruent/STIM_012.jpg
2502.761	0.822	0	incongruent	Block3	incongruent/STIM_012.jpg
2506.065	0.661	1	incongruent	Block3	incongruent/STIM_013.jpg
2510.192	0.898	1	incongruent	Block3	incongruent/STIM_013.jpg
2513.192	0.888	1	incongruent	Block3	incongruent/STIM_013.jpg
2516.368	0.594	1	incongruent	Block3	incongruent/STIM_013.jpg
2520.168	0.823	1	incongruent	Block3	incongruent/STIM_013.jpg
2523.489	0.837	1	incongruent	Block3	incongruent/STIM_014.jpg
2526.76	0.696	1	incongruent	Block3	incongruent/STIM_014.jpg
2530.19	0.967	1	incongruent	Block3	incongruent/STIM_014.jpg
2533.783	0.858	1	incongruent	Block3	incongruent/STIM_014.jpg
2537.147	0.674	1	incongruent	Block3	incongruent/STIM_014.jpg
2541.286	0.504	1	incongruent	Block3	incongruent/STIM_015.jpg
2545.564	0.98	1	incongruent	Block3	incongruent/STIM_015.jpg
2550.172	0.95	1	incongruent	Block3	incongruent/STIM_015.jpg
2554.631	0.606	1	incongruent	Block3	incongruent/STIM_015.jpg
2557.604	0.608	1	incongruent	Block3	incongruent/STIM_015.jpg
2562.209	0.647	1	incongruent	Block3	incongruent/STIM_016.jpg
2565.039	0.742	1	incongruent	Block3	incongruent/STIM_016.jpg
2569.317	0.757	1	incongruent	Block3	incongruent/STIM_016.jpg
2572.509	0.986	1	incongruent	Block3	incongruent/STIM_016.jpg
2575.681	0.496	1	incongruent	Block3	incongruent/STIM_016.jpg
2579.276	0.481	1	incongruent	Block3	incongruent/STIM_017.jpg
2583.482	0.796	1	incongruent	Block3	incongruent/STIM_017.jpg
2586.49	0.54	1	incongruent	Block3	incongruent/STIM_017.jpg
2589.957	0.54	1	incongruent	Block3	incongruent/STIM_017.jpg
2594.213	0.775	1	incongruent	Block3	incongruent/STIM_017.jpg
2598.044	0.601	1	incongruent	Block3	incongruent/STIM_018.jpg
2601.637	0.491	1	incongruent	Block3	incongruent/STIM_018.jpg
2604.228	0.91	1	incongruent	Block3	incongruent/STIM_018.jpg
2607.574	0.81	1	incongruent	Block3	incongruent/STIM_018.jpg
2611.063	0.878	1	incongruent	Block3	incongruent/STIM_018.jpg
2614.868	0.903	1	incongruent	Block3	incongruent/STIM_019.jpg
2619.35	0.707	0	incongruent	Block3	incongruent/STIM_019.jpg
2623.319	0.97	1	incongruent	Block3	incongruent/STIM_019.jpg
2627.289	0.62	1	incongruent	Block3	incongruent/STIM_019.jpg
2630.1	0.797	1	incongruent	Block3	incongruent/STIM_019.jpg
2633.185	0.87	1	incongruent	Block3	incongruent/STIM_020.jpg
2636.335	0.987	1	incongruent	Block3	incongruent/STIM_020.jpg
2640.553	0.831	1	incongruent	Block3	incongruent/STIM_020.jpg
2644.258	0.994	1	incongruent	Block3	incongruent/STIM_020.jpg
2649.212	0.532	1	incongruent	Block3	incongruent/STIM_020.jpg
2652.074	0.773	1	incongruent	Block3	incongruent/STIM_021.jpg
2655.156	0.976	1	incongruent	Block3	incongruent/STIM_021.jpg
2660.157	0.79	1	incongruent	Block3	incongruent/STIM_021.jpg
2663.944	0.882	1	incongruent	Block3	incongruent/STIM_021.jpg
2668.444	0.508	1	incongruent	Block3	incongruent/STIM_021.jpg
2671.238	0.749	1	incongruent	Block3	incongruent/STIM_022.jpg
2674.109	0.565	1	incongruent	Block3	incongruent/STIM_022.jpg
2677.413	0.769	1	incongruent	Block3	incongruent/STIM_022.jpg
2680.264	0.824	1	incongruent	Block3	incongruent/STIM_022.jpg
2684.97	0.736	1	incongruent	Block3	incongruent/STIM_022.jpg
2688.207	0.477	1	incongruent	Block3	incongruent/STIM_023.jpg
2691.363	0.621	1	incongruent	Block3	incongruent/STIM_023.jpg
2694.828	0.886	1	incongruent	Block3	incongruent/STIM_023.jpg
2697.784	0.684	1	incongruent	Block3	incongruent/STIM_023.jpg
2701.945	0.672	1	incongruent	Block3	incongruent/STIM_023.jpg
2706.186	0.945	1	incongruent	Block3	incongruent/STIM_024.jpg
2710.531	0.849	1	incongruent	Block3	incongruent/STIM_024.jpg
2713.912	0.562	1	incongruent	Block3	incongruent/STIM_024.jpg
2718.451	0.701	1	incongruent	Block3	incongruent/STIM_024.jpg
2722.386	0.616	1	incongruent	Block3	incongruent/STIM_024.jpg
2726.607	0.728	1	incongruent	Block3	incongruent/STIM_025.jpg
2731.055	0.734	1	incongruent	Block3	incongruent/STIM_025.jpg
2735.287	0.978	1	incongruent	Block3	incongruent/STIM_025.jpg
2739.288	0.574	1	incongruent	Block3	incongruent/STIM_025.jpg
2743.769	0.783	1	incongruent	Block3	incongruent/STIM_025.jpg
2748.024	0.796	1	incongruent	Block3	incongruent/STIM_026.jpg
2752.199	0.777	1	incongruent	Block3	incongruent/STIM_026.jpg
2755.123	0.579	1	incongruent	Block3	incongruent/STIM_026.jpg
2759.437	0.727	0	incongruent	Block3	incongruent/STIM_026.jpg
2763.799	0.677	1	incongruent	Block3	incongruent/STIM_026.jpg
2768.435	0.933	1	incongruent	Block3	incongruent/STIM_027.jpg
2772.398	0.792	0	incongruent	Block3	incongruent/STIM_027.jpg
2776.08	0.64	1	incongruent	Block3	incongruent/STIM_027.jpg
2780.658	0.585	1	incongruent	Block3	incongruent/STIM_027.jpg
2783.591	0.82	1	incongruent	Block3	incongruent/STIM_027.jpg
2788.347	0.854	1	incongruent	Block3	incongruent/STIM_028.jpg
2792.73	0.933	1	incongruent	Block3	incongruent/STIM_028.jpg
2796.015	0.939	1	incongruent	Block3	incongruent/STIM_028.jpg
2799.354	0.94	1	incongruent	Block3	incongruent/STIM_028.jpg
2802.761	0.468	1	incongruent	Block3	incongruent/STIM_028.jpg
2807.242	0.495	1	incongruent	Block3	incongruent/STIM_029.jpg
2809.948	0.561	1	incongruent	Block3	incongruent/STIM_029.jpg
2814.444	0.684	1	incongruent	Block3	incongruent/STIM_029.jpg
2817.269	0.579	1	incongruent	Block3	incongruent/STIM_029.jpg
2820.367	0.742	1	incongruent	Block3	incongruent/STIM_029.jpg
2824.967	0.776	1	congruent	Block3	congruent/STIM_000.jpg
2829.679	0.656	1	congruent	Block3	congruent/STIM_000.jpg
2832.546	0.504	1	congruent	Block3	congruent/STIM_000.jpg
2835.685	0.667	1	congruent	Block3	congruent/STIM_000.jpg
2839.092	0.577	1	congruent	Block3	congruent/STIM_000.jpg
2842.228	0.581	1	congruent	Block3	congruent/STIM_001.jpg
2845.488	0.758	1	congruent	Block3	congruent/STIM_001.jpg
2849.337	0.742	1	congruent	Block3	congruent/STIM_001.jpg
2853.359	0.656	1	congruent	Block3	congruent/STIM_001.jpg
2857.334	0.49	1	congruent	Block3	congruent/STIM_001.jpg
2861.734	0.549	1	congruent	Block3	congruent/STIM_002.jpg
2864.465	0.674	1	congruent	Block3	congruent/STIM_002.jpg
2869.061	0.836	1	congruent	Block3	congruent/STIM_002.jpg
2872.467	0.806	0	congruent	Block3	congruent/STIM_002.jpg
2876.16	0.543	1	congruent	Block3	congruent/STIM_002.jpg
2880.426	0.552	1	congruent	Block3	congruent/STIM_003.jpg
2883.12	0.778	1	congruent	Block3	congruent/STIM_003.jpg
2887.274	0.838	1	congruent	Block3	congruent/STIM_003.jpg
2891.015	0.484	1	congruent	Block3	congruent/STIM_003.jpg
2894.954	0.795	1	congruent	Block3	congruent/STIM_003.jpg
2899.355	0.594	1	congruent	Block3	congruent/STIM_004.jpg
2903.873	0.784	1	congruent	Block3	congruent/STIM_004.jpg
2907.438	0.666	1	congruent	Block3	congruent/STIM_004.jpg
2911.055	0.552	1	congruent	Block3	congruent/STIM_004.jpg
2914.89	0.746	1	congruent	Block3	congruent/STIM_004.jpg
2918.838	0.762	1	congruent	Block3	congruent/STIM_005.jpg
2922.021	0.7	1	congruent	Block3	congruent/STIM_005.jpg
2925.066	0.532	1	congruent	Block3	congruent/STIM_005.jpg
2927.893	0.643	1	congruent	Block3	congruent/STIM_005.jpg
2932.197	0.496	1	congruent	Block3	congruent/STIM_005.jpg
2935.768	0.7	1	congruent	Block3	congruent/STIM_006.jpg
2939.018	0.615	1	congruent	Block3	congruent/STIM_006.jpg
2942.439	0.537	1	congruent	Block3	congruent/STIM_006.jpg
2945.579	0.849	1	congruent	Block3	congruent/STIM_006.jpg
2948.928	0.83	1	congruent	Block3	congruent/STIM_006.jpg
2952.262	0.695	1	congruent	Block3	congruent/STIM_007.jpg
2956.402	0.82	1	congruent	Block3	congruent/STIM_007.jpg
2960.286	0.524	1	congruent	Block3	congruent/STIM_007.jpg
2964.488	0.515	1	congruent	Block3	congruent/STIM_007.jpg
2968.681	0.806	1	congruent	Block3	congruent/STIM_007.jpg
2971.923	0.582	1	congruent	Block3	congruent/STIM_008.jpg
2975.821	0.853	1	congruent	Block3	congruent/STIM_008.jpg
2980.114	0.773	1	congruent	Block3	congruent/STIM_008.jpg
2984.909	0.667	1	congruent	Block3	congruent/STIM_008.jpg
2989.063	0.683	1	congruent	Block3	congruent/STIM_008.jpg
2993.061	0.84	1	congruent	Block3	congruent/STIM_009.jpg
2996.617	0.606	1	congruent	Block3	congruent/STIM_009.jpg
3000.353	0.475	1	congruent	Block3	congruent/STIM_009.jpg
3004.159	0.842	1	congruent	Block3	congruent/STIM_009.jpg
3008.957	0.812	1	congruent	Block3	congruent/STIM_009.jpg
3013.335	0.814	1	congruent	Block3	congruent/STIM_010.jpg
3017.11	0.777	1	congruent	Block3	congruent/STIM_010.jpg
3021.123	0.694	1	congruent	Block3	congruent/STIM_010.jpg
3025.805	0.61	1	congruent	Block3	congruent/STIM_010.jpg
3029.83	0.754	1	congruent	Block3	congruent/STIM_010.jpg
3032.954	0.82	1	congruent	Block3	congruent/STIM_011.jpg
3036.588	0.801	1	congruent	Block3	congruent/STIM_011.jpg
3039.612	0.688	1	congruent	Block3	congruent/STIM_011.jpg
3042.415	0.638	1	congruent	Block3	congruent/STIM_011.jpg
3045.731	0.819	1	congruent	Block3	congruent/STIM_011.jpg
3049.789	0.749	1	congruent	Block3	congruent/STIM_012.jpg
3054.406	0.771	1	congruent	Block3	congruent/STIM_012.jpg
3058.402	0.524	1	congruent	Block3	congruent/STIM_012.jpg
3062.152	0.553	1	congruent	Block3	congruent/STIM_012.jpg
3066.014	0.564	1	congruent	Block3	congruent/STIM_012.jpg
3070.004	0.61	1	congruent	Block3	congruent/STIM_013.jpg
3074.114	0.521	1	congruent	Block3	congruent/STIM_013.jpg
3076.708	0.708	1	congruent	Block3	congruent/STIM_013.jpg
3080.709	0.681	1	congruent	Block3	congruent/STIM_013.jpg
3085.117	0.604	1	congruent	Block3	congruent/STIM_013.jpg
3088.905	0.677	1	congruent	Block3	congruent/STIM_014.jpg
3092.76	0.827	1	congruent	Block3	congruent/STIM_014.jpg
3096.611	0.79	1	congruent	Block3	congruent/STIM_014.jpg
3100.838	0.512	1	congruent	Block3	congruent/STIM_014.jpg
3104.374	0.691	1	congruent	Block3	congruent/STIM_014.jpg
3107.928	0.688	1	congruent	Block3	congruent/STIM_015.jpg
3111.895	0.846	1	congruent	Block3	congruent/STIM_015.jpg
3114.838	0.758	1	congruent	Block3	congruent/STIM_015.jpg
3119.507	0.652	1	congruent	Block3	congruent/STIM_015.jpg
3123.474	0.53	1	congruent	Block3	congruent/STIM_015.jpg
3126.812	0.802	1	congruent	Block3	congruent/STIM_016.jpg
3130.751	0.706	1	congruent	Block3	congruent/STIM_016.jpg
3135.214	0.648	1	congruent	Block3	congruent/STIM_016.jpg
3139.003	0.494	1	congruent	Block3	congruent/STIM_016.jpg
3142.191	0.786	1	congruent	Block3	congruent/STIM_016.jpg
3146.557	0.547	1	congruent	Block3	congruent/STIM_017.jpg
3150.233	0.785	1	congruent	Block3	congruent/STIM_017.jpg
3153.775	0.784	1	congruent	Block3	congruent/STIM_017.jpg
3158.376	0.674	1	congruent	Block3	congruent/STIM_017.jpg
3161.329	0.475	1	congruent	Block3	congruent/STIM_017.jpg
3164.217	0.704	1	congruent	Block3	congruent/STIM_018.jpg
3168.073	0.579	1	congruent	Block3	congruent/STIM_018.jpg
3171.473	0.524	1	congruent	Block3	congruent/STIM_018.jpg
3175.493	0.637	1	congruent	Block3	congruent/STIM_018.jpg
3178.697	0.683	1	congruent	Block3	congruent/STIM_018.jpg
3182.044	0.639	1	congruent	Block3	congruent/STIM_019.jpg
3186.03	0.48	1	congruent	Block3	congruent/STIM_019.jpg
3190.172	0.623	1	congruent	Block3	congruent/STIM_019.jpg
3193.491	0.488	1	congruent	Block3	congruent/STIM_019.jpg
3196.549	0.496	0	congruent	Block3	congruent/STIM_019.jpg
3200.277	0.721	1	congruent	Block3	congruent/STIM_020.jpg
3204.629	0.544	1	congruent	Block3	congruent/STIM_020.jpg
3208.137	0.819	1	congruent	Block3	congruent/STIM_020.jpg
3211.657	0.732	0	congruent	Block3	congruent/STIM_020.jpg
3216.209	0.607	1	congruent	Block3	congruent/STIM_020.jpg
3219.718	0.605	1	congruent	Block3	congruent/STIM_021.jpg
3223.133	0.686	1	congruent	Block3	congruent/STIM_021.jpg
3226.144	0.545	1	congruent	Block3	congruent/STIM_021.jpg
3229.849	0.843	1	congruent	Block3	congruent/STIM_021.jpg
3234.46	0.625	1	congruent	Block3	congruent/STIM_021.jpg
3238.053	0.702	1	congruent	Block3	congruent/STIM_022.jpg
3241.653	0.769	1	congruent	Block3	congruent/STIM_022.jpg
3246.224	0.729	1	congruent	Block3	congruent/STIM_022.jpg
3250.675	0.545	1	congruent	Block3	congruent/STIM_022.jpg
3254.643	0.526	1	congruent	Block3	congruent/STIM_022.jpg
3257.981	0.555	1	congruent	Block3	congruent/STIM_023.jpg
3261.386	0.672	1	congruent	Block3	congruent/STIM_023.jpg
3266.032	0.62	1	congruent	Block3	congruent/STIM_023.jpg
3269.456	0.741	1	congruent	Block3	congruent/STIM_023.jpg
3273.281	0.601	1	congruent	Block3	congruent/STIM_023.jpg
3277.19	0.526	1	congruent	Block3	congruent/STIM_024.jpg
3281.142	0.502	1	congruent	Block3	congruent/STIM_024.jpg
3284.028	0.569	1	congruent	Block3	congruent/STIM_024.jpg
3286.664	0.527	1	congruent	Block3	congruent/STIM_024.jpg
3289.629	0.739	1	congruent	Block3	congruent/STIM_024.jpg
3293.975	0.755	1	congruent	Block3	congruent/STIM_025.jpg
3297.808	0.733	1	congruent	Block3	congruent/STIM_025.jpg
3300.735	0.765	0	congruent	Block3	congruent/STIM_025.jpg
3305.074	0.71	1	congruent	Block3	congruent/STIM_025.jpg
3308.779	0.728	0	congruent	Block3	congruent/STIM_025.jpg
3311.685	0.507	1	congruent	Block3	congruent/STIM_026.jpg
3315.892	0.688	1	congruent	Block3	congruent/STIM_026.jpg
3318.685	0.814	1	congruent	Block3	congruent/STIM_026.jpg
3323.497	0.8	1	congruent	Block3	congruent/STIM_026.jpg
3327.579	0.6	1	congruent	Block3	congruent/STIM_026.jpg
3332.15	0.627	1	congruent	Block3	congruent/STIM_027.jpg
3335.251	0.566	1	congruent	Block3	congruent/STIM_027.jpg
3339.269	0.629	1	congruent	Block3	congruent/STIM_027.jpg
3342.85	0.823	1	congruent	Block3	congruent/STIM_027.jpg
3346.287	0.619	1	congruent	Block3	congruent/STIM_027.jpg
3349.192	0.742	1	congruent	Block3	congruent/STIM_028.jpg
3352.735	0.805	1	congruent	Block3	congruent/STIM_028.jpg
3357.44	0.549	1	congruent	Block3	congruent/STIM_028.jpg
3360.688	0.531	1	congruent	Block3	congruent/STIM_028.jpg
3364.8	0.845	1	congruent	Block3	congruent/STIM_028.jpg
3368.193	0.846	1	congruent	Block3	congruent/STIM_029.jpg
3372.913	0.826	1	congruent	Block3	congruent/STIM_029.jpg
3376.14	0.653	1	congruent	Block3	congruent/STIM_029.jpg
3379.892	0.836	1	congruent	Block3	congruent/STIM_029.jpg
3383.385	0.542	1	congruent	Block3	congruent/STIM_029.jpg
