onset	duration	response_time_ms	trial_type	learning_stage	stimulus	response_port
0.0	1.041	1041.0	study	Phase1	study/STIM_000.jpg	100
3.358	1.794	1793.6	study	Phase1	study/STIM_000.jpg	100
8.414	1.288	1288.1	study	Phase1	study/STIM_000.jpg	100
12.483	1.258	1258.1	study	Phase1	study/STIM_001.jpg	99
16.861	1.802	1801.7	study	Phase1	study/STIM_001.jpg	99
22.07	1.391	1391.2	study	Phase1	study/STIM_001.jpg	99
27.013	1.194	1193.9	study	Phase1	study/STIM_002.jpg	100
30.904	1.392	1392.3	study	Phase1	study/STIM_002.jpg	99
35.884	1.055	1055.4	study	Phase1	study/STIM_002.jpg	100
38.982	1.309	1309.1	study	Phase1	study/STIM_003.jpg	99
42.236	1.604	1603.8	study	Phase1	study/STIM_003.jpg	100
47.374	1.088	1088.0	study	Phase1	study/STIM_003.jpg	99
50.586	1.053	1052.9	study	Phase1	study/STIM_004.jpg	100
54.458	1.004	1004.0	study	Phase1	study/STIM_004.jpg	100
57.971	1.174	1174.1	study	Phase1	study/STIM_004.jpg	100
63.066	1.219	1218.8	study	Phase1	study/STIM_005.jpg	100
68.027	0.967	966.8	study	Phase1	study/STIM_005.jpg	99
72.073	0.979	978.9	study	Phase1	study/STIM_005.jpg	99
76.416	0.892	892.3	study	Phase1	study/STIM_006.jpg	99
79.875	1.624	1624.0	study	Phase1	study/STIM_006.jpg	99
83.901	1.185	1185.3	study	Phase1	study/STIM_006.jpg	99
87.585	1.747	1747.3	study	Phase1	study/STIM_007.jpg	100
91.575	0.967	967.4	study	Phase1	study/STIM_007.jpg	99
95.263	1.591	1591.4	study	Phase1	study/STIM_007.jpg	99
100.436	1.106	1105.8	study	Phase1	study/STIM_008.jpg	99
104.746	1.318	1318.5	study	Phase1	study/STIM_008.jpg	100
109.821	1.093	1093.0	study	Phase1	study/STIM_008.jpg	100
113.34	1.884	1884.3	study	Phase1	study/STIM_009.jpg	99
118.88	0.947	946.7	study	Phase1	study/STIM_009.jpg	99
123.009	1.687	1687.1	study	Phase1	study/STIM_009.jpg	99
126.6	1.658	1658.3	study	Phase1	study/STIM_010.jpg	99
130.531	1.434	1434.4	study	Phase1	study/STIM_010.jpg	100
133.889	1.698	1697.6	study	Phase1	study/STIM_010.jpg	99
138.701	1.145	1145.4	study	Phase1	study/STIM_011.jpg	100
142.81	1.073	1073.4	study	Phase1	study/STIM_011.jpg	100
146.524	1.004	1004.2	study	Phase1	study/STIM_011.jpg	99
150.745	1.0	999.7	study	Phase1	study/STIM_012.jpg	99
153.699	1.088	1087.5	study	Phase1	study/STIM_012.jpg	99
156.854	0.851	851.4	study	Phase1	study/STIM_012.jpg	99
160.379	1.239	1238.7	study	Phase1	study/STIM_013.jpg	99
164.993	1.522	1522.3	study	Phase1	study/STIM_013.jpg	100
169.838	1.649	1649.3	study	Phase1	study/STIM_013.jpg	100
174.54	1.784	1784.4	study	Phase1	study/STIM_014.jpg	99
178.394	1.767	1767.0	study	Phase1	study/STIM_014.jpg	100
183.506	0.906	906.5	study	Phase1	study/STIM_014.jpg	100
187.076	1.473	1472.8	study	Phase1	study/STIM_015.jpg	99
190.828	0.962	962.3	study	Phase1	study/STIM_015.jpg	99
195.018	1.41	1409.9	study	Phase1	study/STIM_015.jpg	99
200.044	1.632	1631.5	study	Phase1	study/STIM_016.jpg	99
204.543	1.613	1613.4	study	Phase1	study/STIM_016.jpg	100
209.759	1.24	1240.2	study	Phase1	study/STIM_016.jpg	100
214.499	1.466	1466.2	study	Phase1	study/STIM_017.jpg	99
219.652	1.306	1306.1	study	Phase1	study/STIM_017.jpg	99
223.987	1.136	1135.5	study	Phase1	study/STIM_017.jpg	99
227.745	1.085	1084.9	study	Phase1	study/STIM_018.jpg	99
231.967	1.636	1636.1	study	Phase1	study/STIM_018.jpg	99
235.63	1.166	1166.1	study	Phase1	study/STIM_018.jpg	100
238.953	1.689	1688.6	study	Phase1	study/STIM_019.jpg	99
242.872	1.545	1545.0	study	Phase1	study/STIM_019.jpg	100
246.37	0.975	975.3	study	Phase1	study/STIM_019.jpg	99
250.351	1.432	1432.0	study	Phase1	study/STIM_020.jpg	100
253.99	1.026	1025.5	study	Phase1	study/STIM_020.jpg	100
258.369	1.576	1575.7	study	Phase1	study/STIM_020.jpg	100
262.197	1.118	1117.9	study	Phase1	study/STIM_021.jpg	100
265.676	1.505	1504.6	study	Phase1	study/STIM_021.jpg	99
270.412	0.999	999.3	study	Phase1	study/STIM_021.jpg	99
273.398	1.382	1382.2	study	Phase1	study/STIM_022.jpg	100
278.186	1.717	1717.0	study	Phase1	study/STIM_022.jpg	99
282.058	1.458	1457.5	study	Phase1	study/STIM_022.jpg	99
285.628	1.0	999.6	study	Phase1	study/STIM_023.jpg	99
289.7	0.967	967.2	study	Phase1	study/STIM_023.jpg	100
293.783	0.925	925.4	study	Phase1	study/STIM_023.jpg	100
298.511	1.649	1649.2	study	Phase1	study/STIM_024.jpg	99
302.073	1.036	1036.1	study	Phase1	study/STIM_024.jpg	99
305.803	1.61	1609.6	study	Phase1	study/STIM_024.jpg	99
309.417	0.99	989.9	study	Phase1	study/STIM_025.jpg	99
312.483	1.37	1369.8	study	Phase1	study/STIM_025.jpg	100
316.522	0.915	914.7	study	Phase1	study/STIM_025.jpg	99
320.145	0.973	972.7	study	Phase1	study/STIM_026.jpg	99
325.027	1.529	1528.9	study	Phase1	study/STIM_026.jpg	100
330.249	1.29	1290.3	study	Phase1	study/STIM_026.jpg	100
335.277	1.779	1778.7	study	Phase1	study/STIM_027.jpg	99
340.594	1.556	1556.5	study	Phase1	study/STIM_027.jpg	100
344.3	1.452	1451.5	study	Phase1	study/STIM_027.jpg	99
349.622	0.902	902.3	study	Phase1	study/STIM_028.jpg	99
353.706	1.181	1180.6	study	Phase1	study/STIM_028.jpg	100
357.728	1.65	1649.8	study	Phase1	study/STIM_028.jpg	100
361.639	1.566	1565.8	study	Phase1	study/STIM_029.jpg	100
365.224	1.617	1617.2	study	Phase1	study/STIM_029.jpg	100
370.73	1.064	1063.8	study	Phase1	study/STIM_029.jpg	100
374.053	1.034	1034.3	test	Phase1	test/STIM_000.jpg	100
378.39	0.659	658.9	test	Phase1	test/STIM_000.jpg	100
382.046	0.92	920.5	test	Phase1	test/STIM_000.jpg	99
385.036	1.227	1227.2	test	Phase1	test/STIM_001.jpg	99
389.122	0.643	642.9	test	Phase1	test/STIM_001.jpg	99
393.058	0.695	695.0	test	Phase1	test/STIM_001.jpg	99
395.848	1.285	1285.0	test	Phase1	test/STIM_002.jpg	99
399.805	1.108	1107.8	test	Phase1	test/STIM_002.jpg	99
404.153	1.254	1254.5	test	Phase1	test/STIM_002.jpg	100
407.34	0.739	739.1	test	Phase1	test/STIM_003.jpg	99
410.291	1.099	1098.8	test	Phase1	test/STIM_003.jpg	99
415.245	0.806	805.5	test	Phase1	test/STIM_003.jpg	99
419.55	1.128	1127.5	test	Phase1	test/STIM_004.jpg	99
424.007	1.367	1366.9	test	Phase1	test/STIM_004.jpg	100
427.774	0.972	971.9	test	Phase1	test/STIM_004.jpg	99
431.322	0.957	957.0	test	Phase1	test/STIM_005.jpg	100
434.936	0.829	828.8	test	Phase1	test/STIM_005.jpg	99
439.459	1.158	1158.2	test	Phase1	test/STIM_005.jpg	99
444.493	1.152	1151.8	test	Phase1	test/STIM_006.jpg	100
448.966	1.312	1311.8	test	Phase1	test/STIM_006.jpg	99
453.659	0.75	750.0	test	Phase1	test/STIM_006.jpg	100
457.621	0.936	935.6	test	Phase1	test/STIM_007.jpg	100
461.116	0.977	976.8	test	Phase1	test/STIM_007.jpg	100
464.25	0.968	968.3	test	Phase1	test/STIM_007.jpg	100
468.904	0.884	883.6	test	Phase1	test/STIM_008.jpg	100
472.342	0.867	866.8	test	Phase1	test/STIM_008.jpg	100
476.281	0.915	915.2	test	Phase1	test/STIM_008.jpg	99
480.831	1.193	1192.7	test	Phase1	test/STIM_009.jpg	100
485.707	1.136	1136.0	test	Phase1	test/STIM_009.jpg	99
489.5	1.05	1050.4	test	Phase1	test/STIM_009.jpg	99
493.85	1.367	1367.0	test	Phase1	test/STIM_010.jpg	100
498.512	1.142	1142.2	test	Phase1	test/STIM_010.jpg	99
502.207	0.97	970.2	test	Phase1	test/STIM_010.jpg	99
506.265	1.266	1265.9	test	Phase1	test/STIM_011.jpg	99
510.289	0.823	823.3	test	Phase1	test/STIM_011.jpg	100
513.844	1.046	1046.0	test	Phase1	test/STIM_011.jpg	99
518.237	1.034	1034.0	test	Phase1	test/STIM_012.jpg	99
521.71	1.274	1274.3	test	Phase1	test/STIM_012.jpg	100
525.783	0.709	708.7	test	Phase1	test/STIM_012.jpg	100
529.743	1.084	1083.8	test	Phase1	test/STIM_013.jpg	99
534.599	1.101	1100.7	test	Phase1	test/STIM_013.jpg	100
537.894	0.93	930.4	test	Phase1	test/STIM_013.jpg	100
541.461	1.179	1179.0	test	Phase1	test/STIM_014.jpg	100
545.576	0.822	822.1	test	Phase1	test/STIM_014.jpg	99
549.168	0.681	680.7	test	Phase1	test/STIM_014.jpg	99
553.445	0.963	963.3	test	Phase1	test/STIM_015.jpg	100
556.36	1.323	1322.7	test	Phase1	test/STIM_015.jpg	99
560.851	1.263	1263.1	test	Phase1	test/STIM_015.jpg	99
564.109	1.311	1311.4	test	Phase1	test/STIM_016.jpg	99
568.383	0.732	731.5	test	Phase1	test/STIM_016.jpg	100
572.13	0.881	880.6	test	Phase1	test/STIM_016.jpg	99
575.288	0.76	760.2	test	Phase1	test/STIM_017.jpg	100
578.537	0.944	944.4	test	Phase1	test/STIM_017.jpg	100
582.991	0.842	842.2	test	Phase1	test/STIM_017.jpg	99
587.255	0.859	859.3	test	Phase1	test/STIM_018.jpg	99
590.701	0.94	940.3	test	Phase1	test/STIM_018.jpg	100
594.723	1.245	1245.2	test	Phase1	test/STIM_018.jpg	99
598.998	1.306	1306.0	test	Phase1	test/STIM_019.jpg	99
604.218	0.981	980.6	test	Phase1	test/STIM_019.jpg	99
607.233	1.158	1157.6	test	Phase1	test/STIM_019.jpg	99
610.577	0.748	748.0	test	Phase1	test/STIM_020.jpg	100
614.46	1.161	1161.1	test	Phase1	test/STIM_020.jpg	99
619.282	0.689	688.8	test	Phase1	test/STIM_020.jpg	99
622.386	0.714	713.5	test	Phase1	test/STIM_021.jpg	100
625.783	1.087	1087.4	test	Phase1	test/STIM_021.jpg	99
629.9	1.035	1034.7	test	Phase1	test/STIM_021.jpg	99
634.265	1.032	1031.8	test	Phase1	test/STIM_022.jpg	100
638.471	1.353	1353.3	test	Phase1	test/STIM_022.jpg	99
642.638	1.09	1089.9	test	Phase1	test/STIM_022.jpg	100
646.704	1.184	1183.6	test	Phase1	test/STIM_023.jpg	99
649.94	0.76	760.3	test	Phase1	test/STIM_023.jpg	99
654.062	1.13	1129.5	test	Phase1	test/STIM_023.jpg	100
658.434	0.981	981.4	test	Phase1	test/STIM_024.jpg	100
663.126	1.032	1032.1	test	Phase1	test/STIM_024.jpg	99
666.933	1.109	1108.8	test	Phase1	test/STIM_024.jpg	100
670.634	1.276	1275.9	test	Phase1	test/STIM_025.jpg	99
674.238	1.188	1188.5	test	Phase1	test/STIM_025.jpg	100
679.263	1.236	1236.3	test	Phase1	test/STIM_025.jpg	99
684.399	0.908	908.4	test	Phase1	test/STIM_026.jpg	99
687.401	0.669	668.7	test	Phase1	test/STIM_026.jpg	100
690.055	0.844	844.3	test	Phase1	test/STIM_026.jpg	100
694.231	0.825	824.8	test	Phase1	test/STIM_027.jpg	100
697.773	0.882	881.5	test	Phase1	test/STIM_027.jpg	99
701.578	0.786	785.5	test	Phase1	test/STIM_027.jpg	99
704.838	0.685	685.1	test	Phase1	test/STIM_028.jpg	99
709.351	1.014	1013.7	test	Phase1	test/STIM_028.jpg	99
712.755	0.855	855.0	test	Phase1	test/STIM_028.jpg	100
716.27	0.906	906.5	test	Phase1	test/STIM_029.jpg	99
719.181	1.133	1133.4	test	Phase1	test/STIM_029.jpg	100
722.596	0.938	938.0	test	Phase1	test/STIM_029.jpg	100
726.549	1.046	1046.0	study	Phase2	study/STIM_000.jpg	99
730.182	1.213	1212.8	study	Phase2	study/STIM_000.jpg	100
733.774	0.65	649.5	study	Phase2	study/STIM_000.jpg	99
736.646	1.263	1263.2	study	Phase2	study/STIM_001.jpg	99
740.266	0.79	790.3	study	Phase2	study/STIM_001.jpg	100
743.371	1.07	1069.6	study	Phase2	study/STIM_001.jpg	100
746.416	1.594	1594.1	study	Phase2	study/STIM_002.jpg	100
751.706	1.006	1006.1	study	Phase2	study/STIM_002.jpg	99
754.866	1.045	1044.9	study	Phase2	study/STIM_002.jpg	99
759.684	0.905	904.8	study	Phase2	study/STIM_003.jpg	99
762.906	1.422	1421.6	study	Phase2	study/STIM_003.jpg	100
767.906	0.986	986.5	study	Phase2	study/STIM_003.jpg	100
771.913	0.969	969.1	study	Phase2	study/STIM_004.jpg	100
776.632	1.149	1149.3	study	Phase2	study/STIM_004.jpg	99
781.265	0.639	638.6	study	Phase2	study/STIM_004.jpg	99
785.413	0.966	965.6	study	Phase2	study/STIM_005.jpg	99
788.435	0.759	759.0	study	Phase2	study/STIM_005.jpg	100
791.156	0.89	889.6	study	Phase2	study/STIM_005.jpg	99
795.103	1.247	1247.4	study	Phase2	study/STIM_006.jpg	100
798.727	0.993	992.6	study	Phase2	study/STIM_006.jpg	99
803.378	0.779	779.3	study	Phase2	study/STIM_006.jpg	100
807.09	1.335	1334.8	study	Phase2	study/STIM_007.jpg	99
811.028	1.14	1140.1	study	Phase2	study/STIM_007.jpg	100
814.847	1.285	1285.1	study	Phase2	study/STIM_007.jpg	99
818.677	1.475	1474.6	study	Phase2	study/STIM_008.jpg	99
823.451	0.97	970.1	study	Phase2	study/STIM_008.jpg	99
826.532	0.849	849.3	study	Phase2	study/STIM_008.jpg	100
829.552	1.259	1258.7	study	Phase2	study/STIM_009.jpg	100
834.095	0.977	977.0	study	Phase2	study/STIM_009.jpg	99
837.586	0.956	956.1	study	Phase2	study/STIM_009.jpg	99
841.505	1.177	1177.1	study	Phase2	study/STIM_010.jpg	100
846.411	0.867	867.4	study	Phase2	study/STIM_010.jpg	100
850.335	0.833	833.4	study	Phase2	study/STIM_010.jpg	99
853.131	1.577	1576.9	study	Phase2	study/STIM_011.jpg	99
858.392	0.714	714.5	study	Phase2	study/STIM_011.jpg	100
862.168	0.656	656.3	study	Phase2	study/STIM_011.jpg	100
866.731	1.046	1045.7	study	Phase2	study/STIM_012.jpg	100
869.952	1.008	1007.8	study	Phase2	study/STIM_012.jpg	99
874.083	0.91	910.2	study	Phase2	study/STIM_012.jpg	99
878.529	1.221	1220.8	study	Phase2	study/STIM_013.jpg	99
882.622	1.316	1316.3	study	Phase2	study/STIM_013.jpg	100
887.592	1.24	1240.4	study	Phase2	study/STIM_013.jpg	100
891.808	1.513	1513.3	study	Phase2	study/STIM_014.jpg	100
896.186	0.947	947.1	study	Phase2	study/STIM_014.jpg	99
899.465	0.752	752.5	study	Phase2	study/STIM_014.jpg	100
903.498	1.007	1007.1	study	Phase2	study/STIM_015.jpg	99
907.057	1.422	1422.2	study	Phase2	study/STIM_015.jpg	99
910.938	1.274	1274.3	study	Phase2	study/STIM_015.jpg	99
915.072	1.345	1345.1	study	Phase2	study/STIM_016.jpg	99
918.436	1.425	1424.8	study	Phase2	study/STIM_016.jpg	100
923.739	1.362	1361.9	study	Phase2	study/STIM_016.jpg	100
928.262	1.595	1594.8	study	Phase2	study/STIM_017.jpg	100
932.993	1.472	1472.0	study	Phase2	study/STIM_017.jpg	99
936.867	1.005	1004.7	study	Phase2	study/STIM_017.jpg	100
940.146	0.916	916.3	study	Phase2	study/STIM_018.jpg	99
943.346	0.901	900.8	study	Phase2	study/STIM_018.jpg	100
946.925	1.189	1188.6	study	Phase2	study/STIM_018.jpg	100
951.207	1.278	1277.7	study	Phase2	study/STIM_019.jpg	100
955.2	0.838	838.3	study	Phase2	study/STIM_019.jpg	100
958.945	1.384	1383.9	study	Phase2	study/STIM_019.jpg	100
962.464	1.298	1298.2	study	Phase2	study/STIM_020.jpg	99
967.009	1.312	1312.0	study	Phase2	study/STIM_020.jpg	99
971.736	0.912	912.4	study	Phase2	study/STIM_020.jpg	99
976.155	1.447	1446.9	study	Phase2	study/STIM_021.jpg	100
979.55	1.247	1247.1	study	Phase2	study/STIM_021.jpg	100
983.066	0.795	795.0	study	Phase2	study/STIM_021.jpg	100
986.217	0.886	886.2	study	Phase2	study/STIM_022.jpg	99
990.583	0.796	795.8	study	Phase2	study/STIM_022.jpg	100
993.932	0.784	783.6	study	Phase2	study/STIM_022.jpg	100
997.184	1.114	1114.3	study	Phase2	study/STIM_023.jpg	99
1000.334	0.836	836.1	study	Phase2	study/STIM_023.jpg	100
1005.056	1.095	1095.3	study	Phase2	study/STIM_023.jpg	99
1008.62	1.532	1531.8	study	Phase2	study/STIM_024.jpg	99
1012.873	1.191	1191.0	study	Phase2	study/STIM_024.jpg	100
1016.62	1.068	1067.6	study	Phase2	study/STIM_024.jpg	100
1020.058	1.619	1619.0	study	Phase2	study/STIM_025.jpg	100
1024.741	1.508	1508.0	study	Phase2	study/STIM_025.jpg	100
1030.054	1.237	1237.1	study	Phase2	study/STIM_025.jpg	99
1034.028	0.96	960.3	study	Phase2	study/STIM_026.jpg	99
1038.465	1.262	1262.2	study	Phase2	study/STIM_026.jpg	99
1042.457	1.422	1422.5	study	Phase2	study/STIM_026.jpg	100
1046.043	1.264	1263.8	study	Phase2	study/STIM_027.jpg	100
1051.147	1.097	1097.4	study	Phase2	study/STIM_027.jpg	99
1055.906	0.989	989.0	study	Phase2	study/STIM_027.jpg	100
1059.88	1.198	1197.6	study	Phase2	study/STIM_028.jpg	99
1063.291	0.802	801.5	study	Phase2	study/STIM_028.jpg	100
1067.047	1.225	1224.9	study	Phase2	study/STIM_028.jpg	99
1071.783	0.865	864.6	study	Phase2	study/STIM_029.jpg	100
1075.589	1.277	1276.6	study	Phase2	study/STIM_029.jpg	99
1079.36	1.324	1324.3	study	Phase2	study/STIM_029.jpg	99
1084.35	1.155	1154.6	test	Phase2	test/STIM_000.jpg	99
1088.658	1.331	1330.7	test	Phase2	test/STIM_000.jpg	99
1092.144	1.373	1373.3	test	Phase2	test/STIM_000.jpg	99
1096.492	1.358	1357.5	test	Phase2	test/STIM_001.jpg	99
1101.121	1.166	1166.1	test	Phase2	test/STIM_001.jpg	100
1105.818	0.693	693.4	test	Phase2	test/STIM_001.jpg	100
1109.562	1.035	1035.0	test	Phase2	test/STIM_002.jpg	100
1113.149	1.126	1125.8	test	Phase2	test/STIM_002.jpg	100
1117.73	0.96	960.0	test	Phase2	test/STIM_002.jpg	100
1122.45	1.198	1198.3	test	Phase2	test/STIM_003.jpg	100
1125.707	0.92	919.8	test	Phase2	test/STIM_003.jpg	100
1129.124	1.375	1374.9	test	Phase2	test/STIM_003.jpg	99
1134.147	0.645	644.6	test	Phase2	test/STIM_004.jpg	100
1137.936	1.078	1077.7	test	Phase2	test/STIM_004.jpg	100
1142.169	1.031	1031.2	test	Phase2	test/STIM_004.jpg	100
1145.522	1.042	1041.9	test	Phase2	test/STIM_005.jpg	99
1148.545	0.796	796.4	test	Phase2	test/STIM_005.jpg	99
1152.501	1.303	1303.2	test	Phase2	test/STIM_005.jpg	99
1156.427	1.159	1158.6	test	Phase2	test/STIM_006.jpg	99
1160.279	0.984	984.5	test	Phase2	test/STIM_006.jpg	100
1163.611	1.087	1086.7	test	Phase2	test/STIM_006.jpg	100
1167.814	0.786	786.5	test	Phase2	test/STIM_007.jpg	99
1172.396	1.278	1278.4	test	Phase2	test/STIM_007.jpg	99
1177.4	1.14	1140.0	test	Phase2	test/STIM_007.jpg	99
1182.025	0.862	862.5	test	Phase2	test/STIM_008.jpg	99
1185.496	1.229	1229.0	test	Phase2	test/STIM_008.jpg	100
1190.486	0.775	775.3	test	Phase2	test/STIM_008.jpg	100
1194.033	0.652	651.5	test	Phase2	test/STIM_009.jpg	100
1197.051	1.051	1051.0	test	Phase2	test/STIM_009.jpg	100
1200.185	1.347	1347.0	test	Phase2	test/STIM_009.jpg	99
1203.543	0.84	839.7	test	Phase2	test/STIM_010.jpg	99
1206.975	0.848	847.5	test	Phase2	test/STIM_010.jpg	99
1210.161	1.12	1120.4	test	Phase2	test/STIM_010.jpg	99
1213.865	0.724	723.8	test	Phase2	test/STIM_011.jpg	100
1217.912	1.206	1206.1	test	Phase2	test/STIM_011.jpg	99
1222.539	0.7	700.5	test	Phase2	test/STIM_011.jpg	99
1226.199	1.36	1360.5	test	Phase2	test/STIM_012.jpg	100
1230.435	1.237	1236.8	test	Phase2	test/STIM_012.jpg	100
1235.102	1.124	1123.8	test	Phase2	test/STIM_012.jpg	100
1239.038	1.258	1257.7	test	Phase2	test/STIM_013.jpg	100
1243.633	1.285	1285.3	test	Phase2	test/STIM_013.jpg	99
1247.862	1.031	1030.9	test	Phase2	test/STIM_013.jpg	99
1251.016	1.111	1111.4	test	Phase2	test/STIM_014.jpg	99
1254.332	1.317	1316.8	test	Phase2	test/STIM_014.jpg	100
1258.485	1.041	1041.4	test	Phase2	test/STIM_014.jpg	99
1261.854	1.103	1103.1	test	Phase2	test/STIM_015.jpg	99
1266.321	1.212	1212.1	test	Phase2	test/STIM_015.jpg	99
1270.894	0.9	900.1	test	Phase2	test/STIM_015.jpg	100
1274.487	1.066	1066.0	test	Phase2	test/STIM_016.jpg	100
1278.886	0.969	969.0	test	Phase2	test/STIM_016.jpg	99
1282.816	1.065	1065.0	test	Phase2	test/STIM_016.jpg	100
1287.617	1.157	1156.6	test	Phase2	test/STIM_017.jpg	100
1290.812	1.011	1011.0	test	Phase2	test/STIM_017.jpg	99
1295.1	0.811	811.0	test	Phase2	test/STIM_017.jpg	99
1298.602	1.319	1318.6	test	Phase2	test/STIM_018.jpg	99
1303.416	1.093	1093.1	test	Phase2	test/STIM_018.jpg	99
1307.752	0.645	644.9	test	Phase2	test/STIM_018.jpg	100
1312.29	0.792	791.8	test	Phase2	test/STIM_019.jpg	99
1315.371	1.003	1003.4	test	Phase2	test/STIM_019.jpg	100
1318.698	1.2	1200.1	test	Phase2	test/STIM_019.jpg	99
1323.505	0.644	644.0	test	Phase2	test/STIM_020.jpg	99
1326.214	0.971	971.4	test	Phase2	test/STIM_020.jpg	100
1330.941	1.067	1066.9	test	Phase2	test/STIM_020.jpg	100
1334.833	0.939	938.7	test	Phase2	test/STIM_021.jpg	99
1338.847	1.246	1245.7	test	Phase2	test/STIM_021.jpg	99
1343.628	1.256	1255.7	test	Phase2	test/STIM_021.jpg	100
1348.692	1.35	1349.5	test	Phase2	test/STIM_022.jpg	100
1353.717	1.267	1266.8	test	Phase2	test/STIM_022.jpg	99
1358.292	1.327	1327.3	test	Phase2	test/STIM_022.jpg	100
1362.25	1.362	1362.5	test	Phase2	test/STIM_023.jpg	99
1365.715	1.353	1352.8	test	Phase2	test/STIM_023.jpg	99
1370.601	1.228	1228.3	test	Phase2	test/STIM_023.jpg	100
1375.507	0.865	865.3	test	Phase2	test/STIM_024.jpg	99
1378.753	0.938	937.7	test	Phase2	test/STIM_024.jpg	100
1382.315	1.152	1151.5	test	Phase2	test/STIM_024.jpg	100
1386.933	0.994	994.2	test	Phase2	test/STIM_025.jpg	99
1391.353	0.687	686.9	test	Phase2	test/STIM_025.jpg	99
1395.681	1.354	1354.4	test	Phase2	test/STIM_025.jpg	100
1399.917	0.781	781.4	test	Phase2	test/STIM_026.jpg	100
1403.14	1.272	1272.3	test	Phase2	test/STIM_026.jpg	100
1406.787	0.834	834.3	test	Phase2	test/STIM_026.jpg	99
1410.833	0.739	739.2	test	Phase2	test/STIM_027.jpg	99
1415.221	0.974	974.3	test	Phase2	test/STIM_027.jpg	99
1419.201	0.904	904.0	test	Phase2	test/STIM_027.jpg	100
1422.424	1.342	1342.5	test	Phase2	test/STIM_028.jpg	99
1426.282	1.094	1094.5	test	Phase2	test/STIM_028.jpg	99
1429.916	0.804	803.8	test	Phase2	test/STIM_028.jpg	99
1434.219	1.16	1160.5	test	Phase2	test/STIM_029.jpg	99
1438.162	1.112	1112.4	test	Phase2	test/STIM_029.jpg	100
1442.844	0.948	947.6	test	Phase2	test/STIM_029.jpg	100
1447.358	0.651	651.3	study	Phase3	study/STIM_000.jpg	99
1450.577	0.862	862.3	study	Phase3	study/STIM_000.jpg	100
1455.303	1.193	1193.3	study	Phase3	study/STIM_000.jpg	99
1459.841	0.839	839.1	study	Phase3	study/STIM_001.jpg	100
1462.876	1.216	1216.0	study	Phase3	study/STIM_001.jpg	99
1467.746	0.762	761.6	study	Phase3	study/STIM_001.jpg	99
1472.094	1.249	1249.3	study	Phase3	study/STIM_002.jpg	100
1476.553	0.718	718.0	study	Phase3	study/STIM_002.jpg	100
1480.313	1.302	1302.3	study	Phase3	study/STIM_002.jpg	100
1484.397	0.805	805.1	study	Phase3	study/STIM_003.jpg	99
1487.68	0.751	750.9	study	Phase3	study/STIM_003.jpg	100
1491.901	0.83	829.9	study	Phase3	study/STIM_003.jpg	99
1495.89	1.29	1290.4	study	Phase3	study/STIM_004.jpg	99
1499.487	0.903	903.4	study	Phase3	study/STIM_004.jpg	100
1502.439	0.846	845.7	study	Phase3	study/STIM_004.jpg	100
1506.139	1.011	1011.0	study	Phase3	study/STIM_005.jpg	99
1509.416	0.906	905.5	study	Phase3	study/STIM_005.jpg	99
1514.126	1.148	1148.0	study	Phase3	study/STIM_005.jpg	100
1518.626	0.638	637.6	study	Phase3	study/STIM_006.jpg	99
1522.781	1.035	1035.3	study	Phase3	study/STIM_006.jpg	100
1527.679	0.779	779.4	study	Phase3	study/STIM_006.jpg	99
1530.654	1.28	1279.8	study	Phase3	study/STIM_007.jpg	100
1535.296	1.178	1178.1	study	Phase3	study/STIM_007.jpg	100
1539.28	0.721	721.3	study	Phase3	study/STIM_007.jpg	100
1543.248	0.787	787.1	study	Phase3	study/STIM_008.jpg	99
1546.583	1.276	1276.0	study	Phase3	study/STIM_008.jpg	99
1551.549	0.634	633.6	study	Phase3	study/STIM_008.jpg	100
1554.68	1.152	1151.9	study	Phase3	study/STIM_009.jpg	99
1559.296	1.273	1273.0	study	Phase3	study/STIM_009.jpg	99
1563.742	0.949	948.6	study	Phase3	study/STIM_009.jpg	100
1567.76	1.123	1123.4	study	Phase3	study/STIM_010.jpg	99
1572.541	0.988	988.3	study	Phase3	study/STIM_010.jpg	100
1577.369	1.009	1009.0	study	Phase3	study/STIM_010.jpg	100
1581.676	0.916	916.5	study	Phase3	study/STIM_011.jpg	100
1586.004	0.768	767.6	study	Phase3	study/STIM_011.jpg	100
1590.726	0.811	810.7	study	Phase3	study/STIM_011.jpg	100
1594.723	0.733	733.1	study	Phase3	study/STIM_012.jpg	99
1597.617	1.07	1069.6	study	Phase3	study/STIM_012.jpg	100
1602.281	0.6	599.8	study	Phase3	study/STIM_012.jpg	99
1605.023	0.788	788.4	study	Phase3	study/STIM_013.jpg	100
1609.534	1.086	1085.7	study	Phase3	study/STIM_013.jpg	100
1613.188	1.212	1211.5	study	Phase3	study/STIM_013.jpg	100
1617.795	0.659	659.0	study	Phase3	study/STIM_014.jpg	100
1620.513	0.707	707.3	study	Phase3	study/STIM_014.jpg	100
1624.35	1.161	1160.6	study	Phase3	study/STIM_014.jpg	100
1627.551	1.253	1252.7	study	Phase3	study/STIM_015.jpg	100
1631.626	0.679	679.1	study	Phase3	study/STIM_015.jpg	99
1634.478	1.162	1162.5	study	Phase3	study/STIM_015.jpg	99
1638.432	0.908	908.2	study	Phase3	study/STIM_016.jpg	100
1642.146	0.648	648.1	study	Phase3	study/STIM_016.jpg	99
1646.205	0.846	846.2	study	Phase3	study/STIM_016.jpg	99
1649.245	0.912	911.7	study	Phase3	study/STIM_017.jpg	99
1652.65	1.072	1072.2	study	Phase3	study/STIM_017.jpg	100
1656.281	1.332	1331.8	study	Phase3	study/STIM_017.jpg	100
1659.834	1.241	1240.7	study	Phase3	study/STIM_018.jpg	99
1664.361	1.186	1186.3	study	Phase3	study/STIM_018.jpg	99
1668.045	1.003	1003.0	study	Phase3	study/STIM_018.jpg	100
1671.281	0.824	823.6	study	Phase3	study/STIM_019.jpg	99
1674.711	1.13	1129.6	study	Phase3	study/STIM_019.jpg	99
1679.205	0.976	976.5	study	Phase3	study/STIM_019.jpg	100
1683.165	1.044	1044.4	study	Phase3	study/STIM_020.jpg	100
1686.265	1.202	1202.1	study	Phase3	study/STIM_020.jpg	99
1691.098	1.192	1191.8	study	Phase3	study/STIM_020.jpg	100
1695.369	1.202	1201.6	study	Phase3	study/STIM_021.jpg	100
1700.416	1.1	1099.5	study	Phase3	study/STIM_021.jpg	100
1705.441	0.993	993.0	study	Phase3	study/STIM_021.jpg	100
1708.4	1.005	1004.6	study	Phase3	study/STIM_022.jpg	99
1712.136	0.661	660.6	study	Phase3	study/STIM_022.jpg	100
1715.897	1.132	1131.9	study	Phase3	study/STIM_022.jpg	100
1719.426	1.187	1187.1	study	Phase3	study/STIM_023.jpg	99
1724.33	1.038	1037.8	study	Phase3	study/STIM_023.jpg	100
1727.817	0.873	872.8	study	Phase3	study/STIM_023.jpg	99
1730.796	1.21	1210.2	study	Phase3	study/STIM_024.jpg	100
1734.639	0.99	990.0	study	Phase3	study/STIM_024.jpg	99
1737.664	1.023	1022.6	study	Phase3	study/STIM_024.jpg	99
1742.327	0.71	710.3	study	Phase3	study/STIM_025.jpg	100
1745.943	1.226	1225.9	study	Phase3	study/STIM_025.jpg	100
1749.259	1.043	1042.7	study	Phase3	study/STIM_025.jpg	100
1753.404	0.96	959.7	study	Phase3	study/STIM_026.jpg	100
1757.385	0.622	622.2	study	Phase3	study/STIM_026.jpg	100
1760.948	1.304	1304.0	study	Phase3	study/STIM_026.jpg	100
1764.218	1.161	1160.9	study	Phase3	study/STIM_027.jpg	99
1768.399	0.755	755.1	study	Phase3	study/STIM_027.jpg	99
1772.272	1.088	1087.6	study	Phase3	study/STIM_027.jpg	100
1775.417	1.039	1039.4	study	Phase3	study/STIM_028.jpg	99
1779.446	0.782	781.5	study	Phase3	study/STIM_028.jpg	100
1783.262	0.66	660.5	study	Phase3	study/STIM_028.jpg	99
1786.102	0.728	727.6	study	Phase3	study/STIM_029.jpg	99
1790.385	1.208	1208.3	study	Phase3	study/STIM_029.jpg	99
1794.597	0.665	665.0	study	Phase3	study/STIM_029.jpg	100
1798.531	0.805	804.6	test	Phase3	test/STIM_000.jpg	99
1801.987	0.843	842.6	test	Phase3	test/STIM_000.jpg	99
1805.752	0.663	662.7	test	Phase3	test/STIM_000.jpg	100
1810.271	1.245	1244.6	test	Phase3	test/STIM_001.jpg	100
1814.99	0.903	903.2	test	Phase3	test/STIM_001.jpg	100
1818.468	0.766	766.4	test	Phase3	test/STIM_001.jpg	99
1822.031	1.242	1242.0	test	Phase3	test/STIM_002.jpg	99
1825.487	1.286	1285.5	test	Phase3	test/STIM_002.jpg	100
1829.809	0.73	729.5	test	Phase3	test/STIM_002.jpg	99
1832.61	1.306	1306.1	test	Phase3	test/STIM_003.jpg	99
1836.886	1.339	1338.6	test	Phase3	test/STIM_003.jpg	99
1841.391	1.258	1257.5	test	Phase3	test/STIM_003.jpg	99
1845.546	0.729	728.7	test	Phase3	test/STIM_004.jpg	100
1848.595	1.004	1003.8	test	Phase3	test/STIM_004.jpg	100
1852.244	0.679	678.9	test	Phase3	test/STIM_004.jpg	100
1856.273	1.364	1364.2	test	Phase3	test/STIM_005.jpg	100
1859.895	0.918	917.9	test	Phase3	test/STIM_005.jpg	100
1862.854	1.317	1317.1	test	Phase3	test/STIM_005.jpg	100
1866.391	1.193	1192.6	test	Phase3	test/STIM_006.jpg	99
1869.926	1.085	1085.4	test	Phase3	test/STIM_006.jpg	100
1874.737	1.082	1081.8	test	Phase3	test/STIM_006.jpg	99
1878.704	1.178	1178.5	test	Phase3	test/STIM_007.jpg	99
1882.455	0.925	925.3	test	Phase3	test/STIM_007.jpg	99
1886.364	0.693	692.6	test	Phase3	test/STIM_007.jpg	99
1889.925	1.244	1244.2	test	Phase3	test/STIM_008.jpg	100
1893.097	1.248	1248.4	test	Phase3	test/STIM_008.jpg	99
1896.335	0.802	802.2	test	Phase3	test/STIM_008.jpg	100
1899.432	0.876	875.9	test	Phase3	test/STIM_009.jpg	99
1902.615	1.118	1117.8	test	Phase3	test/STIM_009.jpg	100
1906.129	0.709	709.4	test	Phase3	test/STIM_009.jpg	100
1910.193	1.243	1243.1	test	Phase3	test/STIM_010.jpg	100
1914.436	0.829	829.2	test	Phase3	test/STIM_010.jpg	99
1918.273	1.185	1184.9	test	Phase3	test/STIM_010.jpg	100
1921.729	1.096	1096.3	test	Phase3	test/STIM_011.jpg	100
1925.18	0.686	686.1	test	Phase3	test/STIM_011.jpg	100
1928.551	0.943	943.3	test	Phase3	test/STIM_011.jpg	99
1932.916	1.376	1376.0	test	Phase3	test/STIM_012.jpg	99
1936.833	1.353	1352.9	test	Phase3	test/STIM_012.jpg	100
1940.88	1.257	1256.6	test	Phase3	test/STIM_012.jpg	99
1945.012	0.971	970.7	test	Phase3	test/STIM_013.jpg	100
1948.742	1.279	1279.0	test	Phase3	test/STIM_013.jpg	100
1952.159	0.756	756.1	test	Phase3	test/STIM_013.jpg	99
1954.941	1.088	1087.5	test	Phase3	test/STIM_014.jpg	99
1958.237	0.82	819.5	test	Phase3	test/STIM_014.jpg	100
1961.465	0.932	932.3	test	Phase3	test/STIM_014.jpg	100
1965.135	1.329	1329.0	test	Phase3	test/STIM_015.jpg	99
1968.53	0.72	720.1	test	Phase3	test/STIM_015.jpg	99
1971.983	1.271	1271.1	test	Phase3	test/STIM_015.jpg	99
1975.888	1.196	1196.4	test	Phase3	test/STIM_016.jpg	100
1979.402	1.355	1355.0	test	Phase3	test/STIM_016.jpg	100
1982.906	1.229	1229.0	test	Phase3	test/STIM_016.jpg	99
1986.122	1.207	1206.7	test	Phase3	test/STIM_017.jpg	99
1990.058	0.656	655.6	test	Phase3	test/STIM_017.jpg	99
1993.141	1.042	1042.3	test	Phase3	test/STIM_017.jpg	100
1997.366	0.831	831.4	test	Phase3	test/STIM_018.jpg	99
2001.653	1.039	1038.7	test	Phase3	test/STIM_018.jpg	99
2005.886	0.851	851.4	test	Phase3	test/STIM_018.jpg	100
2009.439	0.806	806.3	test	Phase3	test/STIM_019.jpg	99
2013.828	1.36	1360.3	test	Phase3	test/STIM_019.jpg	100
2018.985	0.844	844.5	test	Phase3	test/STIM_019.jpg	100
2021.981	1.09	1090.2	test	Phase3	test/STIM_020.jpg	100
2026.365	1.084	1084.5	test	Phase3	test/STIM_020.jpg	99
2030.925	1.356	1356.1	test	Phase3	test/STIM_020.jpg	99
2034.764	1.034	1033.6	test	Phase3	test/STIM_021.jpg	100
2038.591	0.936	936.3	test	Phase3	test/STIM_021.jpg	99
2042.954	1.117	1116.9	test	Phase3	test/STIM_021.jpg	99
2046.752	0.964	963.9	test	Phase3	test/STIM_022.jpg	99
2050.817	0.742	742.1	test	Phase3	test/STIM_022.jpg	100
2054.347	0.67	669.6	test	Phase3	test/STIM_022.jpg	100
2058.329	1.093	1092.8	test	Phase3	test/STIM_023.jpg	100
2062.856	0.64	640.1	test	Phase3	test/STIM_023.jpg	100
2066.11	0.684	683.6	test	Phase3	test/STIM_023.jpg	99
2069.916	0.978	977.8	test	Phase3	test/STIM_024.jpg	100
2073.283	1.036	1036.1	test	Phase3	test/STIM_024.jpg	99
2076.379	1.285	1285.1	test	Phase3	test/STIM_024.jpg	100
2081.307	1.145	1145.1	test	Phase3	test/STIM_025.jpg	100
2084.48	1.338	1338.1	test	Phase3	test/STIM_025.jpg	99
2087.956	1.208	1208.4	test	Phase3	test/STIM_025.jpg	99
2092.952	1.015	1014.6	test	Phase3	test/STIM_026.jpg	99
2097.073	0.859	858.7	test	Phase3	test/STIM_026.jpg	100
2100.959	1.251	1251.2	test	Phase3	test/STIM_026.jpg	99
2104.398	0.738	737.5	test	Phase3	test/STIM_027.jpg	100
2108.285	0.789	788.7	test	Phase3	test/STIM_027.jpg	100
2112.478	1.277	1276.6	test	Phase3	test/STIM_027.jpg	99
2116.108	0.87	870.1	test	Phase3	test/STIM_028.jpg	99
2120.287	1.149	1148.8	test	Phase3	test/STIM_028.jpg	99
2123.698	0.887	886.9	test	Phase3	test/STIM_028.jpg	100
2127.635	0.668	667.9	test	Phase3	test/STIM_029.jpg	100
2131.195	1.08	1079.7	test	Phase3	test/STIM_029.jpg	99
2135.113	1.06	1060.0	test	Phase3	test/STIM_029.jpg	99
