onset	duration	response_time_ms	trial_type	learning_stage	stimulus	response_port
0.0	0.866	865.5	study	Phase1	study/STIM_000.jpg	100
3.769	1.054	1054.0	study	Phase1	study/STIM_000.jpg	99
6.828	1.623	1622.6	study	Phase1	study/STIM_000.jpg	99
12.414	1.269	1269.4	study	Phase1	study/STIM_001.jpg	99
17.483	1.461	1461.1	study	Phase1	study/STIM_001.jpg	100
21.922	1.637	1637.3	study	Phase1	study/STIM_001.jpg	99
27.545	1.702	1702.2	study	Phase1	study/STIM_002.jpg	99
32.136	1.59	1590.0	study	Phase1	study/STIM_002.jpg	99
36.272	1.403	1402.9	study	Phase1	study/STIM_002.jpg	100
40.705	1.699	1699.0	study	Phase1	study/STIM_003.jpg	99
44.582	0.844	843.5	study	Phase1	study/STIM_003.jpg	99
48.576	1.44	1440.0	study	Phase1	study/STIM_003.jpg	100
53.303	1.201	1200.7	study	Phase1	study/STIM_004.jpg	100
57.698	0.797	797.4	study	Phase1	study/STIM_004.jpg	99
61.815	1.543	1543.4	study	Phase1	study/STIM_004.jpg	99
66.446	1.244	1243.6	study	Phase1	study/STIM_005.jpg	99
71.552	1.507	1507.0	study	Phase1	study/STIM_005.jpg	99
75.429	1.363	1362.8	study	Phase1	study/STIM_005.jpg	99
79.658	1.61	1609.7	study	Phase1	study/STIM_006.jpg	99
83.792	1.207	1207.3	study	Phase1	study/STIM_006.jpg	99
87.65	0.986	985.7	study	Phase1	study/STIM_006.jpg	99
91.297	1.274	1273.8	study	Phase1	study/STIM_007.jpg	100
95.453	1.628	1627.6	study	Phase1	study/STIM_007.jpg	99
99.418	1.382	1382.3	study	Phase1	study/STIM_007.jpg	100
104.792	1.635	1635.0	study	Phase1	study/STIM_008.jpg	99
109.509	0.822	821.8	study	Phase1	study/STIM_008.jpg	100
113.587	0.974	974.5	study	Phase1	study/STIM_008.jpg	100
116.981	1.593	1592.8	study	Phase1	study/STIM_009.jpg	99
121.219	1.534	1533.7	study	Phase1	study/STIM_009.jpg	100
124.908	1.438	1437.7	study	Phase1	study/STIM_009.jpg	100
129.515	1.042	1041.7	study	Phase1	study/STIM_010.jpg	99
134.283	0.989	988.7	study	Phase1	study/STIM_010.jpg	99
138.096	1.282	1282.2	study	Phase1	study/STIM_010.jpg	100
142.272	1.403	1402.6	study	Phase1	study/STIM_011.jpg	99
147.633	1.673	1672.9	study	Phase1	study/STIM_011.jpg	99
152.506	1.614	1614.3	study	Phase1	study/STIM_011.jpg	99
157.182	1.338	1337.8	study	Phase1	study/STIM_012.jpg	100
160.967	0.976	975.6	study	Phase1	study/STIM_012.jpg	100
165.126	1.218	1217.6	study	Phase1	study/STIM_012.jpg	100
169.511	0.911	911.3	study	Phase1	study/STIM_013.jpg	100
173.807	1.673	1673.4	study	Phase1	study/STIM_013.jpg	99
178.692	0.986	985.8	study	Phase1	study/STIM_013.jpg	99
182.263	1.641	1641.1	study	Phase1	study/STIM_014.jpg	99
187.585	1.623	1623.0	study	Phase1	study/STIM_014.jpg	99
192.24	1.168	1167.7	study	Phase1	study/STIM_014.jpg	99
196.781	1.728	1727.5	study	Phase1	study/STIM_015.jpg	100
202.398	1.352	1351.8	study	Phase1	study/STIM_015.jpg	99
207.689	1.319	1318.7	study	Phase1	study/STIM_015.jpg	100
212.315	1.319	1318.6	study	Phase1	study/STIM_016.jpg	99
216.513	0.892	892.4	study	Phase1	study/STIM_016.jpg	99
221.122	1.316	1316.2	study	Phase1	study/STIM_016.jpg	99
224.813	1.549	1548.7	study	Phase1	study/STIM_017.jpg	100
228.704	1.07	1070.0	study	Phase1	study/STIM_017.jpg	99
232.241	1.502	1501.7	study	Phase1	study/STIM_017.jpg	99
236.003	0.85	849.6	study	Phase1	study/STIM_018.jpg	99
238.967	0.982	981.8	study	Phase1	study/STIM_018.jpg	99
243.5	1.586	1586.0	study	Phase1	study/STIM_018.jpg	99
249.056	1.14	1140.5	study	Phase1	study/STIM_019.jpg	99
253.263	1.749	1748.7	study	Phase1	study/STIM_019.jpg	99
258.688	0.983	983.3	study	Phase1	study/STIM_019.jpg	100
261.739	1.125	1125.1	study	Phase1	study/STIM_020.jpg	100
265.391	0.983	982.6	study	Phase1	study/STIM_020.jpg	99
269.551	1.008	1007.5	study	Phase1	study/STIM_020.jpg	100
273.052	1.051	1050.7	study	Phase1	study/STIM_021.jpg	100
278.06	1.718	1718.2	study	Phase1	study/STIM_021.jpg	100
283.738	1.489	1488.8	study	Phase1	study/STIM_021.jpg	100
289.184	1.681	1680.7	study	Phase1	study/STIM_022.jpg	100
294.17	0.791	790.8	study	Phase1	study/STIM_022.jpg	99
298.283	1.43	1429.8	study	Phase1	study/STIM_022.jpg	99
302.71	1.738	1737.6	study	Phase1	study/STIM_023.jpg	99
307.04	1.554	1553.5	study	Phase1	study/STIM_023.jpg	99
311.394	0.847	847.2	study	Phase1	study/STIM_023.jpg	100
315.505	1.034	1034.5	study	Phase1	study/STIM_024.jpg	100
320.277	1.135	1134.8	study	Phase1	study/STIM_024.jpg	100
325.287	1.198	1198.4	study	Phase1	study/STIM_024.jpg	99
330.298	1.338	1337.6	study	Phase1	study/STIM_025.jpg	100
335.244	1.076	1076.1	study	Phase1	study/STIM_025.jpg	100
339.509	1.205	1205.2	study	Phase1	study/STIM_025.jpg	99
344.529	1.528	1527.8	study	Phase1	study/STIM_026.jpg	100
348.562	1.045	1044.9	study	Phase1	study/STIM_026.jpg	100
351.945	1.395	1394.7	study	Phase1	study/STIM_026.jpg	100
356.083	1.615	1614.7	study	Phase1	study/STIM_027.jpg	100
359.895	1.478	1477.8	study	Phase1	study/STIM_027.jpg	100
363.747	1.337	1337.4	study	Phase1	study/STIM_027.jpg	99
369.068	1.732	1732.5	study	Phase1	study/STIM_028.jpg	99
373.984	1.715	1715.3	study	Phase1	study/STIM_028.jpg	99
378.444	1.318	1318.1	study	Phase1	study/STIM_028.jpg	99
382.018	1.351	1351.2	study	Phase1	study/STIM_029.jpg	99
385.436	0.99	989.7	study	Phase1	study/STIM_029.jpg	99
389.764	1.663	1662.6	study	Phase1	study/STIM_029.jpg	100
394.862	0.837	836.8	test	Phase1	test/STIM_000.jpg	99
399.188	1.107	1106.6	test	Phase1	test/STIM_000.jpg	99
403.399	0.966	966.1	test	Phase1	test/STIM_000.jpg	99
407.477	1.163	1162.9	test	Phase1	test/STIM_001.jpg	99
412.462	1.149	1149.0	test	Phase1	test/STIM_001.jpg	100
417.373	0.784	784.5	test	Phase1	test/STIM_001.jpg	99
421.255	0.704	703.5	test	Phase1	test/STIM_002.jpg	99
425.668	1.24	1239.8	test	Phase1	test/STIM_002.jpg	99
429.081	0.83	830.5	test	Phase1	test/STIM_002.jpg	99
431.957	0.814	813.7	test	Phase1	test/STIM_003.jpg	99
436.517	1.333	1333.3	test	Phase1	test/STIM_003.jpg	99
441.116	1.021	1020.6	test	Phase1	test/STIM_003.jpg	100
445.947	0.965	965.3	test	Phase1	test/STIM_004.jpg	100
448.954	0.928	928.3	test	Phase1	test/STIM_004.jpg	100
451.911	0.721	721.2	test	Phase1	test/STIM_004.jpg	100
456.165	1.272	1271.7	test	Phase1	test/STIM_005.jpg	99
460.274	1.131	1131.4	test	Phase1	test/STIM_005.jpg	99
463.564	0.872	871.8	test	Phase1	test/STIM_005.jpg	99
467.598	1.004	1004.3	test	Phase1	test/STIM_006.jpg	99
471.37	0.816	815.6	test	Phase1	test/STIM_006.jpg	99
476.03	0.896	896.5	test	Phase1	test/STIM_006.jpg	100
480.504	1.326	1326.4	test	Phase1	test/STIM_007.jpg	99
483.93	1.142	1142.1	test	Phase1	test/STIM_007.jpg	99
487.74	1.025	1025.1	test	Phase1	test/STIM_007.jpg	99
492.114	1.131	1130.6	test	Phase1	test/STIM_008.jpg	100
496.83	0.642	641.7	test	Phase1	test/STIM_008.jpg	100
501.202	0.662	661.7	test	Phase1	test/STIM_008.jpg	100
505.321	0.858	858.5	test	Phase1	test/STIM_009.jpg	100
510.071	0.892	892.5	test	Phase1	test/STIM_009.jpg	99
513.456	1.3	1299.9	test	Phase1	test/STIM_009.jpg	100
517.155	1.248	1248.0	test	Phase1	test/STIM_010.jpg	99
522.098	0.734	733.9	test	Phase1	test/STIM_010.jpg	99
525.577	0.867	867.4	test	Phase1	test/STIM_010.jpg	100
529.875	0.876	875.7	test	Phase1	test/STIM_011.jpg	99
533.478	1.084	1083.7	test	Phase1	test/STIM_011.jpg	99
538.277	1.304	1303.5	test	Phase1	test/STIM_011.jpg	99
542.874	0.948	948.0	test	Phase1	test/STIM_012.jpg	99
547.268	0.904	904.3	test	Phase1	test/STIM_012.jpg	99
550.833	0.64	639.5	test	Phase1	test/STIM_012.jpg	99
554.997	1.211	1210.8	test	Phase1	test/STIM_013.jpg	99
558.353	1.29	1290.4	test	Phase1	test/STIM_013.jpg	100
561.87	0.674	674.3	test	Phase1	test/STIM_013.jpg	99
566.416	1.004	1003.6	test	Phase1	test/STIM_014.jpg	100
570.822	1.124	1124.5	test	Phase1	test/STIM_014.jpg	99
575.73	1.041	1041.4	test	Phase1	test/STIM_014.jpg	100
580.315	1.061	1061.4	test	Phase1	test/STIM_015.jpg	100
584.484	1.023	1022.9	test	Phase1	test/STIM_015.jpg	100
588.149	0.775	775.4	test	Phase1	test/STIM_015.jpg	99
592.821	1.305	1304.8	test	Phase1	test/STIM_016.jpg	100
597.934	0.692	691.7	test	Phase1	test/STIM_016.jpg	100
602.431	0.778	778.0	test	Phase1	test/STIM_016.jpg	100
607.157	1.288	1288.4	test	Phase1	test/STIM_017.jpg	99
611.679	1.283	1282.8	test	Phase1	test/STIM_017.jpg	99
616.862	1.022	1022.3	test	Phase1	test/STIM_017.jpg	100
620.675	0.796	796.0	test	Phase1	test/STIM_018.jpg	100
623.993	0.881	880.7	test	Phase1	test/STIM_018.jpg	99
627.725	0.757	756.8	test	Phase1	test/STIM_018.jpg	100
631.19	0.832	831.5	test	Phase1	test/STIM_019.jpg	99
634.609	0.876	876.5	test	Phase1	test/STIM_019.jpg	100
637.662	0.626	626.3	test	Phase1	test/STIM_019.jpg	99
640.966	1.241	1241.0	test	Phase1	test/STIM_020.jpg	99
644.816	1.258	1258.3	test	Phase1	test/STIM_020.jpg	100
648.082	0.806	806.3	test	Phase1	test/STIM_020.jpg	99
652.251	1.32	1319.9	test	Phase1	test/STIM_021.jpg	99
657.187	1.178	1178.0	test	Phase1	test/STIM_021.jpg	99
660.625	1.271	1270.9	test	Phase1	test/STIM_021.jpg	100
665.041	1.308	1307.8	test	Phase1	test/STIM_022.jpg	99
669.632	0.907	906.6	test	Phase1	test/STIM_022.jpg	100
674.018	1.149	1149.1	test	Phase1	test/STIM_022.jpg	99
678.292	0.765	764.6	test	Phase1	test/STIM_023.jpg	99
681.996	1.312	1312.2	test	Phase1	test/STIM_023.jpg	100
686.987	1.039	1038.8	test	Phase1	test/STIM_023.jpg	99
691.254	0.675	675.2	test	Phase1	test/STIM_024.jpg	99
694.274	1.098	1098.3	test	Phase1	test/STIM_024.jpg	100
698.601	1.327	1326.8	test	Phase1	test/STIM_024.jpg	100
703.262	0.884	883.6	test	Phase1	test/STIM_025.jpg	100
706.973	1.337	1336.8	test	Phase1	test/STIM_025.jpg	100
711.617	0.933	932.6	test	Phase1	test/STIM_025.jpg	99
715.478	1.105	1105.4	test	Phase1	test/STIM_026.jpg	99
719.213	1.226	1226.5	test	Phase1	test/STIM_026.jpg	99
724.07	1.204	1204.2	test	Phase1	test/STIM_026.jpg	99
728.285	0.636	636.4	test	Phase1	test/STIM_027.jpg	99
731.249	0.881	880.7	test	Phase1	test/STIM_027.jpg	99
734.858	0.966	966.1	test	Phase1	test/STIM_027.jpg	99
739.458	0.799	798.9	test	Phase1	test/STIM_028.jpg	100
742.577	1.297	1296.6	test	Phase1	test/STIM_028.jpg	99
746.262	0.949	949.4	test	Phase1	test/STIM_028.jpg	100
749.997	0.747	746.9	test	Phase1	test/STIM_029.jpg	100
753.078	0.726	726.5	test	Phase1	test/STIM_029.jpg	99
757.152	0.944	944.0	test	Phase1	test/STIM_029.jpg	100
760.466	1.428	1427.7	study	Phase2	study/STIM_000.jpg	99
765.099	0.819	818.8	study	Phase2	study/STIM_000.jpg	99
768.768	1.205	1204.9	study	Phase2	study/STIM_000.jpg	100
772.973	1.358	1357.5	study	Phase2	study/STIM_001.jpg	100
777.046	1.323	1322.9	study	Phase2	study/STIM_001.jpg	100
781.914	0.882	881.5	study	Phase2	study/STIM_001.jpg	100
786.661	1.17	1169.8	study	Phase2	study/STIM_002.jpg	100
791.253	0.738	737.8	study	Phase2	study/STIM_002.jpg	99
794.679	1.202	1202.5	study	Phase2	study/STIM_002.jpg	100
799.72	1.073	1072.9	study	Phase2	study/STIM_003.jpg	99
803.175	0.93	929.9	study	Phase2	study/STIM_003.jpg	99
806.528	1.322	1321.9	study	Phase2	study/STIM_003.jpg	100
810.658	1.546	1545.5	study	Phase2	study/STIM_004.jpg	99
814.212	1.319	1319.1	study	Phase2	study/STIM_004.jpg	99
819.057	1.181	1181.4	study	Phase2	study/STIM_004.jpg	99
822.712	1.54	1539.7	study	Phase2	study/STIM_005.jpg	99
827.926	0.989	988.7	study	Phase2	study/STIM_005.jpg	100
831.675	1.276	1275.8	study	Phase2	study/STIM_005.jpg	99
834.957	1.254	1253.8	study	Phase2	study/STIM_006.jpg	99
839.097	0.785	785.1	study	Phase2	study/STIM_006.jpg	99
843.779	0.636	636.4	study	Phase2	study/STIM_006.jpg	100
847.966	0.788	787.8	study	Phase2	study/STIM_007.jpg	99
852.475	1.483	1483.3	study	Phase2	study/STIM_007.jpg	100
857.489	1.134	1133.9	study	Phase2	study/STIM_007.jpg	99
861.384	1.358	1357.9	study	Phase2	study/STIM_008.jpg	99
864.804	1.123	1122.8	study	Phase2	study/STIM_008.jpg	100
868.009	0.809	809.3	study	Phase2	study/STIM_008.jpg	100
871.27	0.784	784.3	study	Phase2	study/STIM_009.jpg	100
874.445	0.841	840.8	study	Phase2	study/STIM_009.jpg	99
878.687	1.247	1247.2	study	Phase2	study/STIM_009.jpg	99
882.152	0.904	903.8	study	Phase2	study/STIM_010.jpg	99
886.692	1.058	1058.5	study	Phase2	study/STIM_010.jpg	100
890.807	0.769	768.6	study	Phase2	study/STIM_010.jpg	99
893.74	1.152	1151.6	study	Phase2	study/STIM_011.jpg	99
897.594	1.127	1126.8	study	Phase2	study/STIM_011.jpg	100
902.603	0.805	804.7	study	Phase2	study/STIM_011.jpg	99
905.966	0.758	758.3	study	Phase2	study/STIM_012.jpg	99
910.255	1.387	1387.3	study	Phase2	study/STIM_012.jpg	99
914.053	1.257	1257.1	study	Phase2	study/STIM_012.jpg	100
918.833	0.792	792.3	study	Phase2	study/STIM_013.jpg	99
921.65	1.431	1431.2	study	Phase2	study/STIM_013.jpg	100
925.328	1.087	1086.6	study	Phase2	study/STIM_013.jpg	99
928.804	1.303	1302.8	study	Phase2	study/STIM_014.jpg	99
933.42	1.237	1237.2	study	Phase2	study/STIM_014.jpg	100
938.511	0.97	970.3	study	Phase2	study/STIM_014.jpg	99
941.761	1.059	1059.0	study	Phase2	study/STIM_015.jpg	99
944.851	0.871	871.0	study	Phase2	study/STIM_015.jpg	99
949.717	1.384	1383.6	study	Phase2	study/STIM_015.jpg	99
954.454	1.048	1048.3	study	Phase2	study/STIM_016.jpg	99
958.228	0.736	736.1	study	Phase2	study/STIM_016.jpg	100
961.352	1.34	1339.7	study	Phase2	study/STIM_016.jpg	99
966.179	0.874	873.7	study	Phase2	study/STIM_017.jpg	99
970.033	1.37	1370.2	study	Phase2	study/STIM_017.jpg	99
973.79	1.369	1369.1	study	Phase2	study/STIM_017.jpg	99
979.125	1.478	1477.7	study	Phase2	study/STIM_018.jpg	99
983.371	1.169	1168.8	study	Phase2	study/STIM_018.jpg	100
986.769	1.035	1034.9	study	Phase2	study/STIM_018.jpg	100
989.924	1.387	1387.2	study	Phase2	study/STIM_019.jpg	100
994.493	0.67	669.6	study	Phase2	study/STIM_019.jpg	100
997.265	0.632	632.1	study	Phase2	study/STIM_019.jpg	99
1000.325	1.2	1199.8	study	Phase2	study/STIM_020.jpg	99
1004.525	0.744	744.4	study	Phase2	study/STIM_020.jpg	100
1008.037	1.18	1179.5	study	Phase2	study/STIM_020.jpg	100
1011.86	1.533	1532.8	study	Phase2	study/STIM_021.jpg	99
1015.784	0.852	852.5	study	Phase2	study/STIM_021.jpg	99
1020.29	1.147	1147.4	study	Phase2	study/STIM_021.jpg	99
1024.39	1.3	1299.5	study	Phase2	study/STIM_022.jpg	99
1028.047	0.778	777.7	study	Phase2	study/STIM_022.jpg	100
1031.286	0.65	650.2	study	Phase2	study/STIM_022.jpg	100
1035.635	1.285	1285.3	study	Phase2	study/STIM_023.jpg	99
1039.739	1.149	1149.1	study	Phase2	study/STIM_023.jpg	99
1044.221	1.155	1155.3	study	Phase2	study/STIM_023.jpg	99
1047.617	0.867	867.3	study	Phase2	study/STIM_024.jpg	100
1051.202	1.269	1268.7	study	Phase2	study/STIM_024.jpg	100
1056.407	1.038	1038.2	study	Phase2	study/STIM_024.jpg	99
1060.76	1.166	1165.5	study	Phase2	study/STIM_025.jpg	100
1064.196	0.772	771.7	study	Phase2	study/STIM_025.jpg	100
1067.789	1.328	1327.8	study	Phase2	study/STIM_025.jpg	99
1071.976	1.187	1186.7	study	Phase2	study/STIM_026.jpg	100
1075.965	1.34	1339.5	study	Phase2	study/STIM_026.jpg	99
1080.542	0.906	906.0	study	Phase2	study/STIM_026.jpg	100
1084.599	0.726	726.5	study	Phase2	study/STIM_027.jpg	99
1087.331	1.462	1462.3	study	Phase2	study/STIM_027.jpg	99
1091.673	0.94	939.9	study	Phase2	study/STIM_027.jpg	100
1096.145	1.006	1006.0	study	Phase2	study/STIM_028.jpg	100
1100.961	1.442	1441.9	study	Phase2	study/STIM_028.jpg	99
1104.57	1.119	1118.8	study	Phase2	study/STIM_028.jpg	99
1108.844	0.731	731.0	study	Phase2	study/STIM_029.jpg	99
1113.14	0.884	883.5	study	Phase2	study/STIM_029.jpg	100
1117.962	1.356	1356.0	study	Phase2	study/STIM_029.jpg	100
1121.798	1.056	1056.1	test	Phase2	test/STIM_000.jpg	100
1126.168	1.26	1260.5	test	Phase2	test/STIM_000.jpg	100
1129.455	0.917	917.1	test	Phase2	test/STIM_000.jpg	100
1132.493	0.755	754.8	test	Phase2	test/STIM_001.jpg	99
1136.879	1.014	1013.7	test	Phase2	test/STIM_001.jpg	99
1141.693	0.681	680.6	test	Phase2	test/STIM_001.jpg	99
1144.418	1.226	1225.6	test	Phase2	test/STIM_002.jpg	100
1147.693	0.88	879.8	test	Phase2	test/STIM_002.jpg	99
1151.612	0.913	912.6	test	Phase2	test/STIM_002.jpg	100
1156.134	1.025	1025.3	test	Phase2	test/STIM_003.jpg	99
1159.889	0.974	973.6	test	Phase2	test/STIM_003.jpg	99
1162.874	1.303	1303.4	test	Phase2	test/STIM_003.jpg	100
1166.334	0.759	758.9	test	Phase2	test/STIM_004.jpg	99
1169.631	1.108	1107.6	test	Phase2	test/STIM_004.jpg	100
1173.21	0.712	711.8	test	Phase2	test/STIM_004.jpg	100
1177.637	1.274	1274.5	test	Phase2	test/STIM_005.jpg	100
1182.388	1.288	1288.1	test	Phase2	test/STIM_005.jpg	99
1185.88	1.334	1333.6	test	Phase2	test/STIM_005.jpg	99
1191.06	0.755	754.7	test	Phase2	test/STIM_006.jpg	99
1195.671	0.669	668.7	test	Phase2	test/STIM_006.jpg	99
1198.663	0.754	754.0	test	Phase2	test/STIM_006.jpg	99
1202.99	0.705	704.6	test	Phase2	test/STIM_007.jpg	99
1206.799	1.016	1015.7	test	Phase2	test/STIM_007.jpg	99
1211.336	0.684	683.8	test	Phase2	test/STIM_007.jpg	99
1214.987	0.882	881.9	test	Phase2	test/STIM_008.jpg	100
1218.929	0.643	643.4	test	Phase2	test/STIM_008.jpg	100
1223.34	1.265	1265.1	test	Phase2	test/STIM_008.jpg	99
1226.95	0.688	688.2	test	Phase2	test/STIM_009.jpg	100
1229.724	1.167	1166.9	test	Phase2	test/STIM_009.jpg	99
1234.306	1.131	1130.8	test	Phase2	test/STIM_009.jpg	100
1238.918	1.297	1297.3	test	Phase2	test/STIM_010.jpg	100
1242.695	1.27	1270.4	test	Phase2	test/STIM_010.jpg	99
1247.101	1.012	1012.2	test	Phase2	test/STIM_010.jpg	100
1251.31	1.072	1071.5	test	Phase2	test/STIM_011.jpg	99
1255.145	0.784	783.9	test	Phase2	test/STIM_011.jpg	100
1258.947	0.951	950.8	test	Phase2	test/STIM_011.jpg	100
1263.197	0.907	907.4	test	Phase2	test/STIM_012.jpg	100
1266.26	0.907	907.2	test	Phase2	test/STIM_012.jpg	99
1269.467	0.782	782.0	test	Phase2	test/STIM_012.jpg	99
1273.324	0.771	770.6	test	Phase2	test/STIM_013.jpg	100
1277.689	1.012	1011.8	test	Phase2	test/STIM_013.jpg	100
1281.23	0.684	684.5	test	Phase2	test/STIM_013.jpg	99
1284.059	0.862	862.3	test	Phase2	test/STIM_014.jpg	99
1287.557	0.75	750.1	test	Phase2	test/STIM_014.jpg	99
1291.078	1.316	1315.7	test	Phase2	test/STIM_014.jpg	100
1295.994	1.086	1086.5	test	Phase2	test/STIM_015.jpg	99
1300.245	1.026	1026.0	test	Phase2	test/STIM_015.jpg	99
1304.04	1.066	1066.1	test	Phase2	test/STIM_015.jpg	100
1308.385	0.761	760.8	test	Phase2	test/STIM_016.jpg	99
1312.542	0.68	680.3	test	Phase2	test/STIM_016.jpg	100
1316.424	0.703	702.8	test	Phase2	test/STIM_016.jpg	99
1319.516	1.152	1152.4	test	Phase2	test/STIM_017.jpg	99
1324.308	0.954	953.6	test	Phase2	test/STIM_017.jpg	100
1328.461	0.865	865.2	test	Phase2	test/STIM_017.jpg	99
1332.245	0.989	988.7	test	Phase2	test/STIM_018.jpg	99
1336.115	0.803	802.8	test	Phase2	test/STIM_018.jpg	99
1339.318	1.159	1158.9	test	Phase2	test/STIM_018.jpg	100
1342.687	1.014	1013.7	test	Phase2	test/STIM_019.jpg	100
1346.085	0.681	681.0	test	Phase2	test/STIM_019.jpg	100
1350.361	1.213	1213.1	test	Phase2	test/STIM_019.jpg	100
1355.554	1.319	1318.8	test	Phase2	test/STIM_020.jpg	99
1360.716	1.232	1231.9	test	Phase2	test/STIM_020.jpg	99
1364.752	1.084	1083.5	test	Phase2	test/STIM_020.jpg	100
1368.457	0.941	941.4	test	Phase2	test/STIM_021.jpg	100
1372.817	1.015	1015.0	test	Phase2	test/STIM_021.jpg	100
1376.807	0.662	661.9	test	Phase2	test/STIM_021.jpg	100
1379.62	1.136	1136.5	test	Phase2	test/STIM_022.jpg	100
1382.859	0.762	761.7	test	Phase2	test/STIM_022.jpg	99
1387.04	1.129	1128.9	test	Phase2	test/STIM_022.jpg	99
1391.051	0.947	947.4	test	Phase2	test/STIM_023.jpg	99
1394.503	1.111	1111.2	test	Phase2	test/STIM_023.jpg	100
1399.105	0.677	677.2	test	Phase2	test/STIM_023.jpg	100
1401.889	0.748	747.7	test	Phase2	test/STIM_024.jpg	100
1406.203	1.045	1045.1	test	Phase2	test/STIM_024.jpg	99
1410.884	0.874	874.1	test	Phase2	test/STIM_024.jpg	99
1415.365	0.957	956.7	test	Phase2	test/STIM_025.jpg	99
1419.255	1.001	1000.8	test	Phase2	test/STIM_025.jpg	100
1422.565	0.681	680.8	test	Phase2	test/STIM_025.jpg	99
1427.015	1.235	1234.8	test	Phase2	test/STIM_026.jpg	99
1432.196	0.798	798.1	test	Phase2	test/STIM_026.jpg	99
1436.491	1.229	1229.1	test	Phase2	test/STIM_026.jpg	99
1440.128	1.046	1045.5	test	Phase2	test/STIM_027.jpg	100
1443.346	1.115	1115.1	test	Phase2	test/STIM_027.jpg	99
1447.816	0.62	620.0	test	Phase2	test/STIM_027.jpg	99
1450.627	0.771	771.2	test	Phase2	test/STIM_028.jpg	99
1454.568	1.004	1003.8	test	Phase2	test/STIM_028.jpg	100
1458.629	0.921	921.1	test	Phase2	test/STIM_028.jpg	99
1463.296	1.016	1015.5	test	Phase2	test/STIM_029.jpg	99
1467.886	1.18	1180.5	test	Phase2	test/STIM_029.jpg	100
1471.627	0.782	781.9	test	Phase2	test/STIM_029.jpg	100
1475.895	0.7	700.0	study	Phase3	study/STIM_000.jpg	99
1478.797	0.778	777.6	study	Phase3	study/STIM_000.jpg	100
1483.31	1.296	1296.3	study	Phase3	study/STIM_000.jpg	100
1488.571	0.683	682.9	study	Phase3	study/STIM_001.jpg	99
1491.66	0.783	783.4	study	Phase3	study/STIM_001.jpg	100
1496.169	0.618	618.4	study	Phase3	study/STIM_001.jpg	100
1499.024	0.903	903.4	study	Phase3	study/STIM_002.jpg	100
1503.27	1.228	1228.2	study	Phase3	study/STIM_002.jpg	100
1506.554	0.914	914.0	study	Phase3	study/STIM_002.jpg	100
1509.747	1.056	1056.1	study	Phase3	study/STIM_003.jpg	99
1513.705	1.036	1036.4	study	Phase3	study/STIM_003.jpg	99
1517.692	1.291	1291.0	study	Phase3	study/STIM_003.jpg	100
1521.333	0.794	794.0	study	Phase3	study/STIM_004.jpg	99
1524.315	1.014	1014.0	study	Phase3	study/STIM_004.jpg	99
1527.571	1.073	1073.2	study	Phase3	study/STIM_004.jpg	100
1532.372	0.616	616.5	study	Phase3	study/STIM_005.jpg	100
1536.063	1.228	1227.7	study	Phase3	study/STIM_005.jpg	99
1539.392	0.727	726.8	study	Phase3	study/STIM_005.jpg	100
1542.734	1.147	1147.3	study	Phase3	study/STIM_006.jpg	99
1547.039	1.138	1137.9	study	Phase3	study/STIM_006.jpg	100
1551.514	1.057	1057.0	study	Phase3	study/STIM_006.jpg	100
1554.974	0.773	772.6	study	Phase3	study/STIM_007.jpg	99
1558.038	1.162	1161.5	study	Phase3	study/STIM_007.jpg	100
1561.27	1.042	1042.5	study	Phase3	study/STIM_007.jpg	99
1564.653	0.79	790.2	study	Phase3	study/STIM_008.jpg	100
1568.704	1.198	1197.7	study	Phase3	study/STIM_008.jpg	99
1572.27	0.6	599.6	study	Phase3	study/STIM_008.jpg	100
1576.02	0.734	733.6	study	Phase3	study/STIM_009.jpg	100
1580.522	0.794	793.6	study	Phase3	study/STIM_009.jpg	100
1584.254	1.261	1261.3	study	Phase3	study/STIM_009.jpg	100
1589.339	0.827	826.6	study	Phase3	study/STIM_010.jpg	100
1592.168	0.735	735.3	study	Phase3	study/STIM_010.jpg	100
1596.634	1.183	1183.3	study	Phase3	study/STIM_010.jpg	100
1600.83	0.971	971.0	study	Phase3	study/STIM_011.jpg	99
1604.489	1.265	1265.4	study	Phase3	study/STIM_011.jpg	99
1609.063	1.065	1064.7	study	Phase3	study/STIM_011.jpg	99
1613.388	1.225	1224.8	study	Phase3	study/STIM_012.jpg	99
1617.948	0.757	756.6	study	Phase3	study/STIM_012.jpg	100
1622.683	1.162	1161.9	study	Phase3	study/STIM_012.jpg	99
1627.135	0.868	867.5	study	Phase3	study/STIM_013.jpg	100
1630.791	1.075	1074.7	study	Phase3	study/STIM_013.jpg	100
1634.652	0.631	631.0	study	Phase3	study/STIM_013.jpg	100
1637.395	0.675	674.8	study	Phase3	study/STIM_014.jpg	100
1641.323	0.955	954.7	study	Phase3	study/STIM_014.jpg	100
1644.32	1.052	1052.0	study	Phase3	study/STIM_014.jpg	99
1648.797	0.882	881.9	study	Phase3	study/STIM_015.jpg	100
1652.085	1.071	1071.1	study	Phase3	study/STIM_015.jpg	100
1655.406	1.258	1258.1	study	Phase3	study/STIM_015.jpg	100
1659.491	0.663	663.2	study	Phase3	study/STIM_016.jpg	99
1663.463	1.199	1199.1	study	Phase3	study/STIM_016.jpg	100
1667.573	0.91	909.8	study	Phase3	study/STIM_016.jpg	99
1671.431	0.686	686.3	study	Phase3	study/STIM_017.jpg	100
1675.757	0.596	595.9	study	Phase3	study/STIM_017.jpg	99
1679.021	0.861	860.9	study	Phase3	study/STIM_017.jpg	100
1683.365	1.258	1258.3	study	Phase3	study/STIM_018.jpg	100
1687.538	1.08	1080.0	study	Phase3	study/STIM_018.jpg	100
1691.705	0.981	981.2	study	Phase3	study/STIM_018.jpg	100
1695.533	0.684	684.4	study	Phase3	study/STIM_019.jpg	99
1699.942	0.79	789.9	study	Phase3	study/STIM_019.jpg	100
1702.899	1.088	1087.6	study	Phase3	study/STIM_019.jpg	99
1706.345	1.144	1144.3	study	Phase3	study/STIM_020.jpg	99
1710.059	0.646	645.6	study	Phase3	study/STIM_020.jpg	99
1714.203	0.765	764.7	study	Phase3	study/STIM_020.jpg	100
1718.519	0.847	847.0	study	Phase3	study/STIM_021.jpg	99
1723.297	1.024	1024.3	study	Phase3	study/STIM_021.jpg	99
1726.722	0.93	930.4	study	Phase3	study/STIM_021.jpg	99
1729.972	0.956	956.4	study	Phase3	study/STIM_022.jpg	100
1733.143	1.108	1108.2	study	Phase3	study/STIM_022.jpg	99
1737.65	0.676	675.9	study	Phase3	study/STIM_022.jpg	99
1740.707	1.217	1217.2	study	Phase3	study/STIM_023.jpg	99
1744.968	0.95	950.3	study	Phase3	study/STIM_023.jpg	99
1748.752	0.747	747.0	study	Phase3	study/STIM_023.jpg	100
1753.237	0.918	917.5	study	Phase3	study/STIM_024.jpg	99
1756.186	1.293	1292.9	study	Phase3	study/STIM_024.jpg	99
1761.229	0.961	961.3	study	Phase3	study/STIM_024.jpg	100
1764.899	0.752	751.6	study	Phase3	study/STIM_025.jpg	100
1768.47	1.034	1034.5	study	Phase3	study/STIM_025.jpg	99
1772.951	1.21	1210.0	study	Phase3	study/STIM_025.jpg	99
1776.72	1.24	1240.3	study	Phase3	study/STIM_026.jpg	99
1780.769	0.884	884.0	study	Phase3	study/STIM_026.jpg	99
1784.459	1.253	1252.6	study	Phase3	study/STIM_026.jpg	100
1789.067	0.696	695.5	study	Phase3	study/STIM_027.jpg	99
1791.939	0.603	603.4	study	Phase3	study/STIM_027.jpg	100
1796.527	1.258	1258.2	study	Phase3	study/STIM_027.jpg	99
1801.413	0.819	818.8	study	Phase3	study/STIM_028.jpg	100
1805.033	0.952	952.5	study	Phase3	study/STIM_028.jpg	99
1808.199	1.254	1254.4	study	Phase3	study/STIM_028.jpg	99
1812.846	0.776	776.4	study	Phase3	study/STIM_029.jpg	99
1815.97	0.806	806.4	study	Phase3	study/STIM_029.jpg	100
1818.825	0.806	805.6	study	Phase3	study/STIM_029.jpg	99
1823.308	1.253	1253.1	test	Phase3	test/STIM_000.jpg	99
1827.281	1.325	1324.7	test	Phase3	test/STIM_000.jpg	100
1832.533	1.302	1301.6	test	Phase3	test/STIM_000.jpg	99
1836.222	1.195	1195.0	test	Phase3	test/STIM_001.jpg	100
1840.696	1.206	1205.5	test	Phase3	test/STIM_001.jpg	99
1844.26	1.273	1273.4	test	Phase3	test/STIM_001.jpg	100
1848.907	0.825	825.2	test	Phase3	test/STIM_002.jpg	100
1852.2	1.056	1055.7	test	Phase3	test/STIM_002.jpg	99
1855.553	1.112	1112.2	test	Phase3	test/STIM_002.jpg	99
1860.386	0.867	867.0	test	Phase3	test/STIM_003.jpg	99
1863.688	1.193	1193.2	test	Phase3	test/STIM_003.jpg	99
1867.621	0.928	928.4	test	Phase3	test/STIM_003.jpg	99
1870.558	1.188	1188.0	test	Phase3	test/STIM_004.jpg	99
1875.647	0.708	708.5	test	Phase3	test/STIM_004.jpg	99
1880.161	1.09	1089.7	test	Phase3	test/STIM_004.jpg	99
1884.046	0.934	934.5	test	Phase3	test/STIM_005.jpg	100
1887.905	1.331	1330.8	test	Phase3	test/STIM_005.jpg	100
1893.028	0.808	807.5	test	Phase3	test/STIM_005.jpg	100
1897.771	1.323	1322.9	test	Phase3	test/STIM_006.jpg	99
1901.83	0.731	731.4	test	Phase3	test/STIM_006.jpg	99
1905.08	0.99	990.5	test	Phase3	test/STIM_006.jpg	99
1908.243	1.07	1070.3	test	Phase3	test/STIM_007.jpg	100
1911.499	0.635	635.1	test	Phase3	test/STIM_007.jpg	100
1915.798	1.27	1270.3	test	Phase3	test/STIM_007.jpg	99
1921.02	0.83	829.6	test	Phase3	test/STIM_008.jpg	99
1925.124	0.911	911.2	test	Phase3	test/STIM_008.jpg	100
1928.575	1.228	1227.8	test	Phase3	test/STIM_008.jpg	100
1932.912	1.086	1086.5	test	Phase3	test/STIM_009.jpg	100
1937.025	1.253	1253.2	test	Phase3	test/STIM_009.jpg	100
1940.675	0.663	662.6	test	Phase3	test/STIM_009.jpg	100
1945.17	1.288	1288.0	test	Phase3	test/STIM_010.jpg	99
1949.102	1.047	1047.0	test	Phase3	test/STIM_010.jpg	100
1953.85	1.058	1057.8	test	Phase3	test/STIM_010.jpg	100
1957.872	1.102	1102.3	test	Phase3	test/STIM_011.jpg	99
1962.769	0.795	795.2	test	Phase3	test/STIM_011.jpg	100
1965.745	0.756	755.9	test	Phase3	test/STIM_011.jpg	100
1969.588	1.026	1026.5	test	Phase3	test/STIM_012.jpg	100
1973.999	1.214	1214.1	test	Phase3	test/STIM_012.jpg	99
1978.457	1.284	1284.3	test	Phase3	test/STIM_012.jpg	100
1982.027	0.69	690.2	test	Phase3	test/STIM_013.jpg	100
1985.322	0.871	870.6	test	Phase3	test/STIM_013.jpg	100
1989.506	0.738	737.5	test	Phase3	test/STIM_013.jpg	100
1993.531	0.905	904.6	test	Phase3	test/STIM_014.jpg	100
1997.927	1.208	1207.8	test	Phase3	test/STIM_014.jpg	99
2001.674	0.998	998.2	test	Phase3	test/STIM_014.jpg	100
2005.862	0.877	877.3	test	Phase3	test/STIM_015.jpg	99
2009.875	1.022	1022.2	test	Phase3	test/STIM_015.jpg	99
2013.888	1.273	1273.0	test	Phase3	test/STIM_015.jpg	99
2017.387	0.994	994.3	test	Phase3	test/STIM_016.jpg	99
2022.208	1.001	1001.0	test	Phase3	test/STIM_016.jpg	99
2025.331	0.911	911.0	test	Phase3	test/STIM_016.jpg	99
2028.465	0.661	661.0	test	Phase3	test/STIM_017.jpg	99
2031.353	0.995	995.3	test	Phase3	test/STIM_017.jpg	99
2034.375	1.234	1234.3	test	Phase3	test/STIM_017.jpg	99
2039.474	0.977	976.7	test	Phase3	test/STIM_018.jpg	100
2043.478	1.072	1072.1	test	Phase3	test/STIM_018.jpg	99
2048.025	1.333	1332.8	test	Phase3	test/STIM_018.jpg	100
2052.602	0.664	664.3	test	Phase3	test/STIM_019.jpg	99
2057.216	0.943	942.9	test	Phase3	test/STIM_019.jpg	100
2060.935	1.307	1307.0	test	Phase3	test/STIM_019.jpg	100
2065.867	1.185	1184.9	test	Phase3	test/STIM_020.jpg	100
2070.747	1.128	1128.0	test	Phase3	test/STIM_020.jpg	100
2074.369	0.86	859.6	test	Phase3	test/STIM_020.jpg	100
2078.412	1.107	1107.2	test	Phase3	test/STIM_021.jpg	99
2082.173	1.15	1150.0	test	Phase3	test/STIM_021.jpg	100
2085.508	1.012	1011.7	test	Phase3	test/STIM_021.jpg	100
2089.712	1.125	1125.2	test	Phase3	test/STIM_022.jpg	99
2094.702	1.205	1204.7	test	Phase3	test/STIM_022.jpg	100
2098.481	0.626	625.5	test	Phase3	test/STIM_022.jpg	99
2101.522	1.091	1090.7	test	Phase3	test/STIM_023.jpg	100
2106.22	1.337	1336.6	test	Phase3	test/STIM_023.jpg	100
2111.096	0.952	951.5	test	Phase3	test/STIM_023.jpg	100
2114.243	1.057	1057.0	test	Phase3	test/STIM_024.jpg	99
2118.278	0.995	995.2	test	Phase3	test/STIM_024.jpg	99
2122.045	0.896	895.8	test	Phase3	test/STIM_024.jpg	99
2125.689	1.186	1186.2	test	Phase3	test/STIM_025.jpg	99
2129.774	0.946	945.7	test	Phase3	test/STIM_025.jpg	99
2133.455	0.741	740.9	test	Phase3	test/STIM_025.jpg	100
2137.722	0.945	945.1	test	Phase3	test/STIM_026.jpg	100
2141.313	0.656	656.4	test	Phase3	test/STIM_026.jpg	100
2145.521	1.298	1297.7	test	Phase3	test/STIM_026.jpg	99
2149.121	0.91	910.3	test	Phase3	test/STIM_027.jpg	99
2153.119	0.749	749.4	test	Phase3	test/STIM_027.jpg	100
2157.733	1.226	1226.3	test	Phase3	test/STIM_027.jpg	100
2161.048	1.034	1033.9	test	Phase3	test/STIM_028.jpg	99
2165.179	0.856	855.7	test	Phase3	test/STIM_028.jpg	100
2168.036	0.678	677.7	test	Phase3	test/STIM_028.jpg	99
2170.899	0.996	995.7	test	Phase3	test/STIM_029.jpg	100
2175.811	1.184	1183.7	test	Phase3	test/STIM_029.jpg	100
2179.702	1.246	1245.8	test	Phase3	test/STIM_029.jpg	100
