onset	duration	response_time_ms	trial_type	learning_stage	stimulus	response_port
0.0	1.467	1466.9	study	Phase1	study/STIM_000.jpg	100
3.75	1.597	1596.7	study	Phase1	study/STIM_000.jpg	99
8.415	0.848	848.0	study	Phase1	study/STIM_000.jpg	99
12.981	1.987	1987.0	study	Phase1	study/STIM_001.jpg	99
17.024	1.85	1849.8	study	Phase1	study/STIM_001.jpg	100
21.545	1.128	1128.3	study	Phase1	study/STIM_001.jpg	99
26.183	1.222	1222.1	study	Phase1	study/STIM_002.jpg	99
30.497	0.997	997.1	study	Phase1	study/STIM_002.jpg	99
34.952	1.5	1500.0	study	Phase1	study/STIM_002.jpg	100
38.576	1.691	1690.9	study	Phase1	study/STIM_003.jpg	99
42.421	1.15	1149.8	study	Phase1	study/STIM_003.jpg	99
45.694	1.498	1497.7	study	Phase1	study/STIM_003.jpg	100
49.563	1.765	1765.3	study	Phase1	study/STIM_004.jpg	100
54.904	1.505	1504.9	study	Phase1	study/STIM_004.jpg	99
59.926	1.293	1292.9	study	Phase1	study/STIM_004.jpg	99
64.484	1.124	1123.9	study	Phase1	study/STIM_005.jpg	99
68.276	1.226	1226.5	study	Phase1	study/STIM_005.jpg	99
72.299	1.846	1845.9	study	Phase1	study/STIM_005.jpg	99
77.222	1.185	1184.8	study	Phase1	study/STIM_006.jpg	99
80.612	1.729	1729.4	study	Phase1	study/STIM_006.jpg	99
84.576	1.279	1279.1	study	Phase1	study/STIM_006.jpg	99
87.712	2.026	2025.8	study	Phase1	study/STIM_007.jpg	100
93.054	1.949	1948.6	study	Phase1	study/STIM_007.jpg	99
96.999	1.434	1434.3	study	Phase1	study/STIM_007.jpg	100
100.921	1.504	1504.1	study	Phase1	study/STIM_008.jpg	99
105.493	1.031	1030.6	study	Phase1	study/STIM_008.jpg	100
108.422	1.285	1284.8	study	Phase1	study/STIM_008.jpg	100
111.577	1.981	1981.1	study	Phase1	study/STIM_009.jpg	99
117.246	1.763	1763.3	study	Phase1	study/STIM_009.jpg	100
122.413	0.953	952.7	study	Phase1	study/STIM_009.jpg	100
126.912	1.154	1153.5	study	Phase1	study/STIM_010.jpg	99
130.446	1.898	1898.3	study	Phase1	study/STIM_010.jpg	99
136.075	1.839	1839.2	study	Phase1	study/STIM_010.jpg	100
141.048	2.021	2020.8	study	Phase1	study/STIM_011.jpg	99
146.496	1.071	1071.3	study	Phase1	study/STIM_011.jpg	99
149.606	1.12	1120.1	study	Phase1	study/STIM_011.jpg	99
153.042	0.972	972.5	study	Phase1	study/STIM_012.jpg	100
156.878	1.551	1551.1	study	Phase1	study/STIM_012.jpg	100
161.849	0.874	873.8	study	Phase1	study/STIM_012.jpg	100
166.598	1.902	1902.2	study	Phase1	study/STIM_013.jpg	100
171.996	1.538	1537.9	study	Phase1	study/STIM_013.jpg	99
176.445	1.633	1633.1	study	Phase1	study/STIM_013.jpg	99
181.409	1.881	1880.9	study	Phase1	study/STIM_014.jpg	99
185.097	1.914	1914.3	study	Phase1	study/STIM_014.jpg	99
189.378	0.986	985.9	study	Phase1	study/STIM_014.jpg	99
192.414	1.375	1375.1	study	Phase1	study/STIM_015.jpg	100
196.836	1.86	1860.2	study	Phase1	study/STIM_015.jpg	99
200.794	1.131	1131.2	study	Phase1	study/STIM_015.jpg	100
203.897	1.005	1005.0	study	Phase1	study/STIM_016.jpg	99
207.368	0.952	951.7	study	Phase1	study/STIM_016.jpg	99
211.626	1.514	1514.2	study	Phase1	study/STIM_016.jpg	99
215.792	1.789	1788.8	study	Phase1	study/STIM_017.jpg	100
219.896	1.097	1096.9	study	Phase1	study/STIM_017.jpg	99
224.626	1.719	1719.2	study	Phase1	study/STIM_017.jpg	99
230.056	0.95	949.7	study	Phase1	study/STIM_018.jpg	99
232.923	1.667	1666.7	study	Phase1	study/STIM_018.jpg	99
236.726	0.838	838.0	study	Phase1	study/STIM_018.jpg	99
240.892	1.077	1077.1	study	Phase1	study/STIM_019.jpg	99
245.638	1.312	1312.0	study	Phase1	study/STIM_019.jpg	99
250.029	0.99	989.6	study	Phase1	study/STIM_019.jpg	100
253.793	0.984	983.9	study	Phase1	study/STIM_020.jpg	100
257.345	1.361	1361.1	study	Phase1	study/STIM_020.jpg	99
260.868	1.616	1615.6	study	Phase1	study/STIM_020.jpg	100
264.969	0.956	955.8	study	Phase1	study/STIM_021.jpg	100
268.296	1.044	1043.8	study	Phase1	study/STIM_021.jpg	100
272.107	1.186	1186.0	study	Phase1	study/STIM_021.jpg	100
276.885	1.08	1080.2	study	Phase1	study/STIM_022.jpg	100
281.115	1.407	1406.6	study	Phase1	study/STIM_022.jpg	99
286.032	1.597	1596.8	study	Phase1	study/STIM_022.jpg	99
289.806	1.689	1688.9	study	Phase1	study/STIM_023.jpg	99
295.141	1.233	1233.1	study	Phase1	study/STIM_023.jpg	99
299.965	1.18	1179.9	study	Phase1	study/STIM_023.jpg	100
303.8	1.257	1257.3	study	Phase1	study/STIM_024.jpg	100
308.096	0.95	949.8	study	Phase1	study/STIM_024.jpg	100
311.721	1.446	1445.6	study	Phase1	study/STIM_024.jpg	99
316.689	1.641	1640.9	study	Phase1	study/STIM_025.jpg	100
320.289	1.481	1480.6	study	Phase1	study/STIM_025.jpg	100
324.423	1.601	1600.6	study	Phase1	study/STIM_025.jpg	99
329.662	1.832	1831.7	study	Phase1	study/STIM_026.jpg	100
334.352	0.974	974.3	study	Phase1	study/STIM_026.jpg	100
337.279	1.752	1752.4	study	Phase1	study/STIM_026.jpg	100
341.773	0.943	943.2	study	Phase1	study/STIM_027.jpg	100
345.44	1.111	1111.1	study	Phase1	study/STIM_027.jpg	100
350.171	1.536	1536.2	study	Phase1	study/STIM_027.jpg	99
354.109	1.177	1177.1	study	Phase1	study/STIM_028.jpg	99
357.853	1.822	1822.0	study	Phase1	study/STIM_028.jpg	99
362.091	1.756	1755.7	study	Phase1	study/STIM_028.jpg	99
366.483	1.715	1715.3	study	Phase1	study/STIM_029.jpg	99
370.33	1.687	1686.6	study	Phase1	study/STIM_029.jpg	99
374.082	1.339	1339.1	study	Phase1	study/STIM_029.jpg	100
377.388	0.904	903.7	test	Phase1	test/STIM_000.jpg	99
382.022	1.171	1171.2	test	Phase1	test/STIM_000.jpg	99
386.408	0.99	990.5	test	Phase1	test/STIM_000.jpg	99
389.295	1.03	1030.2	test	Phase1	test/STIM_001.jpg	99
393.735	1.444	1444.0	test	Phase1	test/STIM_001.jpg	100
398.851	1.334	1333.8	test	Phase1	test/STIM_001.jpg	99
403.314	1.427	1427.0	test	Phase1	test/STIM_002.jpg	99
408.426	1.295	1295.3	test	Phase1	test/STIM_002.jpg	99
413.189	0.926	925.7	test	Phase1	test/STIM_002.jpg	99
417.018	1.448	1448.2	test	Phase1	test/STIM_003.jpg	99
421.44	1.438	1438.3	test	Phase1	test/STIM_003.jpg	99
425.661	1.357	1357.3	test	Phase1	test/STIM_003.jpg	100
429.423	1.181	1180.6	test	Phase1	test/STIM_004.jpg	100
433.531	1.128	1128.2	test	Phase1	test/STIM_004.jpg	100
438.015	1.437	1436.7	test	Phase1	test/STIM_004.jpg	100
441.928	1.403	1403.4	test	Phase1	test/STIM_005.jpg	99
445.998	0.859	858.6	test	Phase1	test/STIM_005.jpg	99
450.662	0.98	979.6	test	Phase1	test/STIM_005.jpg	99
454.604	1.326	1325.7	test	Phase1	test/STIM_006.jpg	99
458.066	0.98	980.2	test	Phase1	test/STIM_006.jpg	99
461.879	0.976	976.3	test	Phase1	test/STIM_006.jpg	100
465.984	1.226	1226.4	test	Phase1	test/STIM_007.jpg	99
469.136	0.72	720.2	test	Phase1	test/STIM_007.jpg	99
472.411	0.787	787.3	test	Phase1	test/STIM_007.jpg	99
476.563	0.948	947.8	test	Phase1	test/STIM_008.jpg	100
480.547	1.159	1158.7	test	Phase1	test/STIM_008.jpg	100
484.757	1.288	1288.5	test	Phase1	test/STIM_008.jpg	100
489.19	1.076	1076.5	test	Phase1	test/STIM_009.jpg	100
493.194	1.182	1181.5	test	Phase1	test/STIM_009.jpg	99
496.565	1.456	1456.3	test	Phase1	test/STIM_009.jpg	100
501.521	1.192	1191.9	test	Phase1	test/STIM_010.jpg	99
505.482	1.46	1460.2	test	Phase1	test/STIM_010.jpg	99
508.774	0.781	781.4	test	Phase1	test/STIM_010.jpg	100
513.325	1.014	1013.6	test	Phase1	test/STIM_011.jpg	99
517.156	1.402	1401.8	test	Phase1	test/STIM_011.jpg	99
521.449	0.871	870.8	test	Phase1	test/STIM_011.jpg	99
524.385	1.46	1460.1	test	Phase1	test/STIM_012.jpg	99
527.69	0.888	888.4	test	Phase1	test/STIM_012.jpg	99
531.373	1.055	1054.9	test	Phase1	test/STIM_012.jpg	99
534.963	1.008	1007.6	test	Phase1	test/STIM_013.jpg	99
538.221	1.282	1282.1	test	Phase1	test/STIM_013.jpg	100
542.446	0.763	763.2	test	Phase1	test/STIM_013.jpg	99
545.993	1.358	1357.6	test	Phase1	test/STIM_014.jpg	100
550.46	1.028	1028.0	test	Phase1	test/STIM_014.jpg	99
554.22	1.104	1103.8	test	Phase1	test/STIM_014.jpg	100
558.482	1.332	1332.3	test	Phase1	test/STIM_015.jpg	100
563.204	1.429	1428.6	test	Phase1	test/STIM_015.jpg	100
566.96	1.189	1189.3	test	Phase1	test/STIM_015.jpg	99
571.326	1.255	1254.7	test	Phase1	test/STIM_016.jpg	100
576.261	1.265	1265.3	test	Phase1	test/STIM_016.jpg	100
580.73	1.337	1336.9	test	Phase1	test/STIM_016.jpg	100
583.986	0.924	924.0	test	Phase1	test/STIM_017.jpg	99
587.101	1.115	1115.2	test	Phase1	test/STIM_017.jpg	99
590.771	1.093	1093.4	test	Phase1	test/STIM_017.jpg	100
594.294	1.446	1446.1	test	Phase1	test/STIM_018.jpg	100
599.293	0.758	758.5	test	Phase1	test/STIM_018.jpg	99
603.816	0.715	715.4	test	Phase1	test/STIM_018.jpg	100
607.995	1.387	1386.6	test	Phase1	test/STIM_019.jpg	99
611.934	0.93	930.3	test	Phase1	test/STIM_019.jpg	100
614.812	0.791	791.1	test	Phase1	test/STIM_019.jpg	99
618.415	0.74	740.0	test	Phase1	test/STIM_020.jpg	99
621.643	1.083	1083.2	test	Phase1	test/STIM_020.jpg	100
626.124	1.484	1484.0	test	Phase1	test/STIM_020.jpg	99
629.603	0.996	995.6	test	Phase1	test/STIM_021.jpg	99
633.34	0.802	802.5	test	Phase1	test/STIM_021.jpg	99
637.134	1.197	1196.9	test	Phase1	test/STIM_021.jpg	100
641.6	0.833	833.3	test	Phase1	test/STIM_022.jpg	99
644.656	1.034	1034.4	test	Phase1	test/STIM_022.jpg	100
648.488	0.722	722.3	test	Phase1	test/STIM_022.jpg	99
651.258	1.086	1085.8	test	Phase1	test/STIM_023.jpg	99
656.036	1.024	1024.2	test	Phase1	test/STIM_023.jpg	100
659.542	0.998	997.9	test	Phase1	test/STIM_023.jpg	99
663.587	0.853	852.8	test	Phase1	test/STIM_024.jpg	99
666.953	1.042	1041.9	test	Phase1	test/STIM_024.jpg	100
670.717	0.744	744.3	test	Phase1	test/STIM_024.jpg	100
673.596	1.387	1386.9	test	Phase1	test/STIM_025.jpg	100
678.153	1.476	1476.0	test	Phase1	test/STIM_025.jpg	100
681.664	0.743	742.7	test	Phase1	test/STIM_025.jpg	99
685.891	1.134	1133.5	test	Phase1	test/STIM_026.jpg	99
689.694	0.902	901.5	test	Phase1	test/STIM_026.jpg	99
694.022	1.337	1337.4	test	Phase1	test/STIM_026.jpg	99
698.945	0.836	836.1	test	Phase1	test/STIM_027.jpg	99
702.781	0.69	689.9	test	Phase1	test/STIM_027.jpg	99
705.493	0.698	698.0	test	Phase1	test/STIM_027.jpg	99
708.564	0.755	754.9	test	Phase1	test/STIM_028.jpg	100
711.999	1.023	1023.2	test	Phase1	test/STIM_028.jpg	99
715.884	0.949	949.2	test	Phase1	test/STIM_028.jpg	100
720.598	1.108	1108.5	test	Phase1	test/STIM_029.jpg	100
724.866	1.155	1155.3	test	Phase1	test/STIM_029.jpg	99
729.288	1.393	1392.9	test	Phase1	test/STIM_029.jpg	100
733.522	1.714	1714.0	study	Phase2	study/STIM_000.jpg	99
737.637	1.208	1207.5	study	Phase2	study/STIM_000.jpg	99
742.508	1.311	1311.2	study	Phase2	study/STIM_000.jpg	100
745.831	0.909	909.0	study	Phase2	study/STIM_001.jpg	100
750.127	1.569	1569.4	study	Phase2	study/STIM_001.jpg	100
754.074	0.933	932.6	study	Phase2	study/STIM_001.jpg	100
758.471	1.127	1127.1	study	Phase2	study/STIM_002.jpg	100
762.683	1.248	1247.6	study	Phase2	study/STIM_002.jpg	99
766.382	1.464	1463.7	study	Phase2	study/STIM_002.jpg	100
770.816	1.004	1004.0	study	Phase2	study/STIM_003.jpg	99
774.768	0.777	776.8	study	Phase2	study/STIM_003.jpg	99
779.01	0.865	865.1	study	Phase2	study/STIM_003.jpg	100
783.606	1.22	1220.5	study	Phase2	study/STIM_004.jpg	99
786.699	1.576	1576.4	study	Phase2	study/STIM_004.jpg	99
792.038	0.984	983.5	study	Phase2	study/STIM_004.jpg	99
796.812	1.434	1433.9	study	Phase2	study/STIM_005.jpg	99
801.377	1.342	1341.8	study	Phase2	study/STIM_005.jpg	100
804.838	1.448	1448.5	study	Phase2	study/STIM_005.jpg	99
808.477	1.286	1286.2	study	Phase2	study/STIM_006.jpg	99
811.845	1.284	1284.3	study	Phase2	study/STIM_006.jpg	99
815.527	1.013	1012.6	study	Phase2	study/STIM_006.jpg	100
819.265	1.204	1203.5	study	Phase2	study/STIM_007.jpg	99
823.552	1.602	1602.4	study	Phase2	study/STIM_007.jpg	100
827.592	0.756	756.0	study	Phase2	study/STIM_007.jpg	99
831.422	0.83	829.6	study	Phase2	study/STIM_008.jpg	99
835.987	0.734	734.2	study	Phase2	study/STIM_008.jpg	100
840.059	1.364	1363.5	study	Phase2	study/STIM_008.jpg	100
844.378	1.476	1475.6	study	Phase2	study/STIM_009.jpg	100
848.001	1.63	1630.0	study	Phase2	study/STIM_009.jpg	99
853.0	1.516	1516.5	study	Phase2	study/STIM_009.jpg	99
857.514	0.927	927.3	study	Phase2	study/STIM_010.jpg	99
860.94	1.006	1005.7	study	Phase2	study/STIM_010.jpg	100
864.761	0.774	773.6	study	Phase2	study/STIM_010.jpg	99
868.466	1.029	1029.2	study	Phase2	study/STIM_011.jpg	99
872.227	1.448	1448.2	study	Phase2	study/STIM_011.jpg	100
876.312	0.933	933.2	study	Phase2	study/STIM_011.jpg	99
880.463	0.911	910.8	study	Phase2	study/STIM_012.jpg	99
883.728	1.14	1139.5	study	Phase2	study/STIM_012.jpg	99
888.309	0.838	838.0	study	Phase2	study/STIM_012.jpg	100
891.523	1.123	1123.3	study	Phase2	study/STIM_013.jpg	99
895.175	1.018	1018.1	study	Phase2	study/STIM_013.jpg	100
898.743	0.927	927.1	study	Phase2	study/STIM_013.jpg	99
902.526	0.986	986.2	study	Phase2	study/STIM_014.jpg	99
905.909	1.105	1104.7	study	Phase2	study/STIM_014.jpg	100
910.607	1.352	1351.5	study	Phase2	study/STIM_014.jpg	99
914.298	0.885	885.4	study	Phase2	study/STIM_015.jpg	99
917.557	1.604	1603.7	study	Phase2	study/STIM_015.jpg	99
921.85	1.44	1439.5	study	Phase2	study/STIM_015.jpg	99
925.485	1.708	1707.7	study	Phase2	study/STIM_016.jpg	99
929.958	1.63	1630.3	study	Phase2	study/STIM_016.jpg	100
934.32	0.755	754.7	study	Phase2	study/STIM_016.jpg	99
938.67	0.985	985.0	study	Phase2	study/STIM_017.jpg	99
941.869	1.042	1041.7	study	Phase2	study/STIM_017.jpg	99
945.703	1.299	1298.8	study	Phase2	study/STIM_017.jpg	99
949.7	1.608	1607.7	study	Phase2	study/STIM_018.jpg	99
954.387	1.076	1076.5	study	Phase2	study/STIM_018.jpg	100
957.572	1.021	1021.3	study	Phase2	study/STIM_018.jpg	100
961.172	0.786	785.6	study	Phase2	study/STIM_019.jpg	100
964.109	0.833	833.4	study	Phase2	study/STIM_019.jpg	100
968.139	1.329	1328.9	study	Phase2	study/STIM_019.jpg	99
971.919	1.431	1430.7	study	Phase2	study/STIM_020.jpg	99
975.354	1.12	1120.5	study	Phase2	study/STIM_020.jpg	100
978.619	1.284	1284.2	study	Phase2	study/STIM_020.jpg	100
982.266	0.903	903.1	study	Phase2	study/STIM_021.jpg	99
986.224	1.122	1121.6	study	Phase2	study/STIM_021.jpg	99
990.01	1.331	1331.3	study	Phase2	study/STIM_021.jpg	99
993.528	1.728	1727.7	study	Phase2	study/STIM_022.jpg	99
997.757	1.507	1507.3	study	Phase2	study/STIM_022.jpg	100
1001.514	1.406	1406.2	study	Phase2	study/STIM_022.jpg	100
1006.254	1.079	1078.6	study	Phase2	study/STIM_023.jpg	99
1011.022	0.895	895.1	study	Phase2	study/STIM_023.jpg	99
1015.305	1.514	1514.2	study	Phase2	study/STIM_023.jpg	99
1020.004	1.664	1663.8	study	Phase2	study/STIM_024.jpg	100
1024.155	0.784	784.2	study	Phase2	study/STIM_024.jpg	100
1027.376	1.263	1263.0	study	Phase2	study/STIM_024.jpg	99
1031.717	1.347	1347.2	study	Phase2	study/STIM_025.jpg	100
1035.073	1.182	1181.5	study	Phase2	study/STIM_025.jpg	100
1038.187	1.311	1310.9	study	Phase2	study/STIM_025.jpg	99
1043.065	0.871	871.4	study	Phase2	study/STIM_026.jpg	100
1046.014	0.96	960.3	study	Phase2	study/STIM_026.jpg	99
1050.211	1.048	1047.5	study	Phase2	study/STIM_026.jpg	100
1054.551	0.881	881.1	study	Phase2	study/STIM_027.jpg	99
1058.753	0.822	822.1	study	Phase2	study/STIM_027.jpg	99
1061.474	1.524	1524.5	study	Phase2	study/STIM_027.jpg	100
1066.027	1.433	1432.6	study	Phase2	study/STIM_028.jpg	100
1069.801	0.997	997.2	study	Phase2	study/STIM_028.jpg	99
1074.07	0.911	911.4	study	Phase2	study/STIM_028.jpg	99
1077.527	1.007	1007.4	study	Phase2	study/STIM_029.jpg	99
1080.923	1.228	1227.6	study	Phase2	study/STIM_029.jpg	100
1084.636	1.362	1362.2	study	Phase2	study/STIM_029.jpg	100
1088.662	1.034	1033.6	test	Phase2	test/STIM_000.jpg	100
1092.533	1.344	1343.6	test	Phase2	test/STIM_000.jpg	100
1097.609	1.106	1105.5	test	Phase2	test/STIM_000.jpg	100
1101.957	1.394	1394.1	test	Phase2	test/STIM_001.jpg	99
1105.559	1.07	1069.6	test	Phase2	test/STIM_001.jpg	99
1109.717	1.463	1462.6	test	Phase2	test/STIM_001.jpg	99
1114.327	1.386	1386.0	test	Phase2	test/STIM_002.jpg	100
1117.934	1.084	1083.6	test	Phase2	test/STIM_002.jpg	99
1121.815	1.02	1019.9	test	Phase2	test/STIM_002.jpg	100
1124.794	0.775	774.6	test	Phase2	test/STIM_003.jpg	99
1128.418	0.789	789.4	test	Phase2	test/STIM_003.jpg	99
1131.422	1.318	1318.4	test	Phase2	test/STIM_003.jpg	100
1135.465	1.325	1324.9	test	Phase2	test/STIM_004.jpg	99
1139.956	1.335	1335.3	test	Phase2	test/STIM_004.jpg	100
1143.789	1.37	1369.5	test	Phase2	test/STIM_004.jpg	100
1147.118	1.386	1386.5	test	Phase2	test/STIM_005.jpg	100
1152.295	0.767	767.4	test	Phase2	test/STIM_005.jpg	99
1155.44	1.24	1239.9	test	Phase2	test/STIM_005.jpg	99
1159.303	1.223	1222.8	test	Phase2	test/STIM_006.jpg	99
1163.997	0.876	876.2	test	Phase2	test/STIM_006.jpg	99
1167.478	0.976	976.5	test	Phase2	test/STIM_006.jpg	99
1172.211	1.228	1228.1	test	Phase2	test/STIM_007.jpg	99
1176.425	0.947	947.4	test	Phase2	test/STIM_007.jpg	99
1180.852	0.787	787.2	test	Phase2	test/STIM_007.jpg	99
1184.115	1.372	1371.8	test	Phase2	test/STIM_008.jpg	100
1188.997	1.374	1373.9	test	Phase2	test/STIM_008.jpg	100
1193.085	1.216	1216.3	test	Phase2	test/STIM_008.jpg	99
1197.177	1.284	1283.9	test	Phase2	test/STIM_009.jpg	100
1200.983	1.278	1278.1	test	Phase2	test/STIM_009.jpg	99
1204.458	0.882	882.3	test	Phase2	test/STIM_009.jpg	100
1209.031	1.253	1253.0	test	Phase2	test/STIM_010.jpg	100
1213.885	0.996	995.5	test	Phase2	test/STIM_010.jpg	99
1217.331	1.462	1461.7	test	Phase2	test/STIM_010.jpg	100
1222.291	1.344	1343.7	test	Phase2	test/STIM_011.jpg	99
1226.638	1.367	1366.6	test	Phase2	test/STIM_011.jpg	100
1230.449	0.75	749.5	test	Phase2	test/STIM_011.jpg	100
1233.8	0.948	948.1	test	Phase2	test/STIM_012.jpg	100
1238.411	1.169	1168.9	test	Phase2	test/STIM_012.jpg	99
1241.498	0.981	981.0	test	Phase2	test/STIM_012.jpg	99
1245.063	1.393	1393.2	test	Phase2	test/STIM_013.jpg	100
1249.189	1.479	1479.4	test	Phase2	test/STIM_013.jpg	100
1253.023	0.904	904.2	test	Phase2	test/STIM_013.jpg	99
1257.411	0.942	942.3	test	Phase2	test/STIM_014.jpg	99
1260.371	1.137	1137.1	test	Phase2	test/STIM_014.jpg	99
1264.659	0.915	914.8	test	Phase2	test/STIM_014.jpg	100
1269.198	0.737	737.0	test	Phase2	test/STIM_015.jpg	99
1272.898	1.265	1265.3	test	Phase2	test/STIM_015.jpg	99
1277.629	1.204	1203.5	test	Phase2	test/STIM_015.jpg	100
1281.996	1.239	1239.2	test	Phase2	test/STIM_016.jpg	99
1286.3	1.295	1294.7	test	Phase2	test/STIM_016.jpg	100
1289.858	1.4	1399.8	test	Phase2	test/STIM_016.jpg	99
1293.535	1.052	1051.8	test	Phase2	test/STIM_017.jpg	99
1296.791	1.344	1343.7	test	Phase2	test/STIM_017.jpg	100
1301.452	1.406	1406.5	test	Phase2	test/STIM_017.jpg	99
1304.742	0.928	928.2	test	Phase2	test/STIM_018.jpg	99
1309.13	1.287	1287.2	test	Phase2	test/STIM_018.jpg	99
1312.507	0.791	791.1	test	Phase2	test/STIM_018.jpg	100
1315.519	1.064	1063.9	test	Phase2	test/STIM_019.jpg	100
1319.949	1.098	1097.9	test	Phase2	test/STIM_019.jpg	100
1323.862	0.739	739.1	test	Phase2	test/STIM_019.jpg	100
1326.65	0.806	805.7	test	Phase2	test/STIM_020.jpg	99
1330.844	0.758	758.0	test	Phase2	test/STIM_020.jpg	99
1334.959	0.88	879.6	test	Phase2	test/STIM_020.jpg	100
1338.367	0.956	955.6	test	Phase2	test/STIM_021.jpg	100
1342.906	1.232	1231.6	test	Phase2	test/STIM_021.jpg	100
1347.638	1.377	1377.4	test	Phase2	test/STIM_021.jpg	100
1350.975	1.182	1182.1	test	Phase2	test/STIM_022.jpg	100
1355.558	1.269	1269.0	test	Phase2	test/STIM_022.jpg	99
1359.14	0.974	974.3	test	Phase2	test/STIM_022.jpg	99
1362.511	1.089	1089.0	test	Phase2	test/STIM_023.jpg	99
1365.657	1.07	1070.5	test	Phase2	test/STIM_023.jpg	100
1370.296	0.769	769.0	test	Phase2	test/STIM_023.jpg	100
1374.929	0.893	893.3	test	Phase2	test/STIM_024.jpg	100
1377.861	1.064	1063.9	test	Phase2	test/STIM_024.jpg	99
1381.598	1.26	1260.3	test	Phase2	test/STIM_024.jpg	99
1386.017	0.93	930.3	test	Phase2	test/STIM_025.jpg	99
1389.614	1.045	1044.9	test	Phase2	test/STIM_025.jpg	100
1394.024	1.025	1024.9	test	Phase2	test/STIM_025.jpg	99
1398.182	1.48	1479.5	test	Phase2	test/STIM_026.jpg	99
1402.007	1.083	1083.1	test	Phase2	test/STIM_026.jpg	99
1406.155	1.401	1401.1	test	Phase2	test/STIM_026.jpg	99
1410.076	0.816	816.4	test	Phase2	test/STIM_027.jpg	100
1414.623	1.35	1350.3	test	Phase2	test/STIM_027.jpg	99
1418.539	1.084	1083.9	test	Phase2	test/STIM_027.jpg	99
1422.82	1.454	1453.5	test	Phase2	test/STIM_028.jpg	99
1427.058	1.383	1383.2	test	Phase2	test/STIM_028.jpg	100
1432.208	1.285	1285.0	test	Phase2	test/STIM_028.jpg	99
1436.188	1.235	1234.7	test	Phase2	test/STIM_029.jpg	99
1441.107	0.797	796.9	test	Phase2	test/STIM_029.jpg	100
1444.219	1.227	1226.6	test	Phase2	test/STIM_029.jpg	100
1447.554	0.664	663.7	study	Phase3	study/STIM_000.jpg	99
1450.836	0.885	884.9	study	Phase3	study/STIM_000.jpg	100
1454.191	0.779	779.2	study	Phase3	study/STIM_000.jpg	100
1458.534	0.828	827.7	study	Phase3	study/STIM_001.jpg	99
1462.938	1.144	1143.5	study	Phase3	study/STIM_001.jpg	100
1466.243	0.819	818.9	study	Phase3	study/STIM_001.jpg	100
1469.361	1.25	1249.5	study	Phase3	study/STIM_002.jpg	100
1473.546	0.846	846.4	study	Phase3	study/STIM_002.jpg	100
1478.262	1.361	1360.7	study	Phase3	study/STIM_002.jpg	100
1482.34	1.231	1231.3	study	Phase3	study/STIM_003.jpg	99
1487.023	0.647	647.2	study	Phase3	study/STIM_003.jpg	99
1489.616	1.265	1264.6	study	Phase3	study/STIM_003.jpg	100
1493.658	1.367	1367.1	study	Phase3	study/STIM_004.jpg	99
1498.659	0.869	869.4	study	Phase3	study/STIM_004.jpg	99
1501.542	1.254	1254.5	study	Phase3	study/STIM_004.jpg	100
1506.251	0.755	754.8	study	Phase3	study/STIM_005.jpg	100
1509.368	0.999	999.2	study	Phase3	study/STIM_005.jpg	99
1512.393	1.399	1399.0	study	Phase3	study/STIM_005.jpg	100
1515.927	1.386	1386.5	study	Phase3	study/STIM_006.jpg	99
1520.301	1.291	1290.9	study	Phase3	study/STIM_006.jpg	100
1524.691	1.322	1322.3	study	Phase3	study/STIM_006.jpg	100
1529.472	0.641	641.2	study	Phase3	study/STIM_007.jpg	99
1533.475	0.801	800.8	study	Phase3	study/STIM_007.jpg	100
1537.504	0.872	871.7	study	Phase3	study/STIM_007.jpg	99
1542.25	1.175	1175.2	study	Phase3	study/STIM_008.jpg	100
1545.3	1.127	1127.1	study	Phase3	study/STIM_008.jpg	99
1549.042	1.432	1432.4	study	Phase3	study/STIM_008.jpg	100
1553.873	1.011	1010.7	study	Phase3	study/STIM_009.jpg	100
1557.383	1.312	1312.0	study	Phase3	study/STIM_009.jpg	100
1560.604	0.942	941.7	study	Phase3	study/STIM_009.jpg	100
1564.432	1.424	1423.7	study	Phase3	study/STIM_010.jpg	100
1568.171	1.255	1255.3	study	Phase3	study/STIM_010.jpg	100
1572.698	0.962	962.0	study	Phase3	study/STIM_010.jpg	100
1576.271	0.842	841.5	study	Phase3	study/STIM_011.jpg	99
1579.27	1.434	1434.2	study	Phase3	study/STIM_011.jpg	99
1583.31	1.238	1238.1	study	Phase3	study/STIM_011.jpg	99
1586.499	0.641	641.4	study	Phase3	study/STIM_012.jpg	99
1589.18	0.9	899.7	study	Phase3	study/STIM_012.jpg	100
1593.696	0.69	690.3	study	Phase3	study/STIM_012.jpg	99
1597.478	1.272	1272.4	study	Phase3	study/STIM_013.jpg	100
1602.478	0.789	788.8	study	Phase3	study/STIM_013.jpg	100
1606.521	1.164	1163.6	study	Phase3	study/STIM_013.jpg	100
1610.004	1.052	1052.2	study	Phase3	study/STIM_014.jpg	100
1613.719	0.835	835.3	study	Phase3	study/STIM_014.jpg	100
1617.211	0.769	768.8	study	Phase3	study/STIM_014.jpg	99
1620.279	1.203	1203.1	study	Phase3	study/STIM_015.jpg	100
1625.034	0.687	686.8	study	Phase3	study/STIM_015.jpg	100
1628.312	0.868	868.1	study	Phase3	study/STIM_015.jpg	100
1631.479	1.062	1061.5	study	Phase3	study/STIM_016.jpg	99
1636.303	1.105	1104.9	study	Phase3	study/STIM_016.jpg	100
1640.723	0.859	859.2	study	Phase3	study/STIM_016.jpg	99
1643.481	1.083	1082.7	study	Phase3	study/STIM_017.jpg	100
1646.571	1.149	1149.0	study	Phase3	study/STIM_017.jpg	99
1650.121	0.893	893.3	study	Phase3	study/STIM_017.jpg	100
1653.11	0.907	906.9	study	Phase3	study/STIM_018.jpg	100
1656.389	1.014	1014.2	study	Phase3	study/STIM_018.jpg	100
1661.107	0.872	872.0	study	Phase3	study/STIM_018.jpg	100
1664.523	1.036	1035.8	study	Phase3	study/STIM_019.jpg	99
1668.446	1.021	1021.0	study	Phase3	study/STIM_019.jpg	100
1671.915	1.045	1044.7	study	Phase3	study/STIM_019.jpg	99
1675.116	1.436	1435.7	study	Phase3	study/STIM_020.jpg	99
1678.904	1.417	1417.4	study	Phase3	study/STIM_020.jpg	99
1682.936	1.169	1168.7	study	Phase3	study/STIM_020.jpg	100
1686.822	1.008	1008.4	study	Phase3	study/STIM_021.jpg	99
1691.265	0.716	716.2	study	Phase3	study/STIM_021.jpg	99
1694.062	1.436	1435.5	study	Phase3	study/STIM_021.jpg	99
1698.382	1.185	1185.4	study	Phase3	study/STIM_022.jpg	100
1703.205	0.718	717.6	study	Phase3	study/STIM_022.jpg	99
1707.103	1.311	1311.3	study	Phase3	study/STIM_022.jpg	99
1711.552	1.129	1129.3	study	Phase3	study/STIM_023.jpg	99
1714.574	1.339	1338.7	study	Phase3	study/STIM_023.jpg	99
1717.762	1.137	1137.1	study	Phase3	study/STIM_023.jpg	100
1721.656	0.696	695.6	study	Phase3	study/STIM_024.jpg	99
1725.675	0.722	721.6	study	Phase3	study/STIM_024.jpg	99
1729.879	0.862	861.7	study	Phase3	study/STIM_024.jpg	100
1734.091	0.649	648.6	study	Phase3	study/STIM_025.jpg	100
1737.09	0.762	762.4	study	Phase3	study/STIM_025.jpg	99
1740.216	1.333	1333.3	study	Phase3	study/STIM_025.jpg	99
1744.098	0.806	806.0	study	Phase3	study/STIM_026.jpg	99
1747.21	1.426	1425.6	study	Phase3	study/STIM_026.jpg	99
1751.614	1.414	1413.8	study	Phase3	study/STIM_026.jpg	100
1755.742	0.747	747.4	study	Phase3	study/STIM_027.jpg	99
1758.847	0.775	774.6	study	Phase3	study/STIM_027.jpg	100
1761.985	0.992	992.1	study	Phase3	study/STIM_027.jpg	99
1765.433	0.663	662.6	study	Phase3	study/STIM_028.jpg	100
1768.882	0.777	777.2	study	Phase3	study/STIM_028.jpg	99
1772.324	1.077	1076.8	study	Phase3	study/STIM_028.jpg	99
1776.173	0.998	997.7	study	Phase3	study/STIM_029.jpg	99
1780.547	1.422	1421.5	study	Phase3	study/STIM_029.jpg	100
1785.454	1.019	1019.2	study	Phase3	study/STIM_029.jpg	99
1790.009	1.249	1248.9	test	Phase3	test/STIM_000.jpg	99
1794.972	0.693	692.7	test	Phase3	test/STIM_000.jpg	100
1799.415	0.792	791.7	test	Phase3	test/STIM_000.jpg	99
1803.034	0.719	718.6	test	Phase3	test/STIM_001.jpg	100
1805.7	1.136	1135.7	test	Phase3	test/STIM_001.jpg	99
1809.344	1.271	1271.2	test	Phase3	test/STIM_001.jpg	100
1812.711	0.848	848.2	test	Phase3	test/STIM_002.jpg	100
1815.595	0.798	798.2	test	Phase3	test/STIM_002.jpg	99
1819.557	0.821	821.3	test	Phase3	test/STIM_002.jpg	99
1823.145	0.832	832.0	test	Phase3	test/STIM_003.jpg	99
1826.021	1.29	1290.4	test	Phase3	test/STIM_003.jpg	99
1830.914	1.48	1480.3	test	Phase3	test/STIM_003.jpg	99
1835.929	0.89	889.5	test	Phase3	test/STIM_004.jpg	99
1839.991	1.179	1178.9	test	Phase3	test/STIM_004.jpg	99
1844.07	0.963	962.8	test	Phase3	test/STIM_004.jpg	99
1848.504	0.987	987.3	test	Phase3	test/STIM_005.jpg	100
1852.452	1.137	1137.3	test	Phase3	test/STIM_005.jpg	100
1855.57	1.374	1374.3	test	Phase3	test/STIM_005.jpg	100
1859.554	0.889	888.7	test	Phase3	test/STIM_006.jpg	99
1862.534	1.062	1062.1	test	Phase3	test/STIM_006.jpg	99
1866.565	1.116	1115.8	test	Phase3	test/STIM_006.jpg	99
1869.585	1.428	1427.6	test	Phase3	test/STIM_007.jpg	100
1873.971	0.79	790.3	test	Phase3	test/STIM_007.jpg	100
1877.328	0.988	987.7	test	Phase3	test/STIM_007.jpg	99
1880.874	1.293	1292.6	test	Phase3	test/STIM_008.jpg	99
1884.229	1.301	1301.1	test	Phase3	test/STIM_008.jpg	100
1888.043	0.968	968.4	test	Phase3	test/STIM_008.jpg	100
1891.858	1.01	1009.9	test	Phase3	test/STIM_009.jpg	100
1896.636	1.435	1435.2	test	Phase3	test/STIM_009.jpg	100
1900.494	0.808	808.5	test	Phase3	test/STIM_009.jpg	100
1903.773	0.902	902.2	test	Phase3	test/STIM_010.jpg	99
1907.764	0.902	902.1	test	Phase3	test/STIM_010.jpg	100
1910.726	1.125	1125.1	test	Phase3	test/STIM_010.jpg	100
1914.045	1.068	1068.3	test	Phase3	test/STIM_011.jpg	99
1917.828	0.851	851.0	test	Phase3	test/STIM_011.jpg	100
1921.766	0.861	861.1	test	Phase3	test/STIM_011.jpg	100
1925.21	1.078	1077.5	test	Phase3	test/STIM_012.jpg	100
1928.371	1.025	1024.8	test	Phase3	test/STIM_012.jpg	99
1932.35	0.886	886.3	test	Phase3	test/STIM_012.jpg	100
1936.051	1.102	1102.2	test	Phase3	test/STIM_013.jpg	100
1940.273	0.767	766.9	test	Phase3	test/STIM_013.jpg	100
1943.445	1.279	1279.3	test	Phase3	test/STIM_013.jpg	100
1946.724	1.174	1173.9	test	Phase3	test/STIM_014.jpg	100
1951.378	0.773	773.2	test	Phase3	test/STIM_014.jpg	99
1954.856	1.24	1240.3	test	Phase3	test/STIM_014.jpg	100
1959.162	0.865	865.1	test	Phase3	test/STIM_015.jpg	99
1963.233	1.283	1283.1	test	Phase3	test/STIM_015.jpg	99
1967.501	1.084	1083.7	test	Phase3	test/STIM_015.jpg	99
1971.885	1.066	1065.6	test	Phase3	test/STIM_016.jpg	99
1974.927	0.723	722.9	test	Phase3	test/STIM_016.jpg	99
1979.259	0.791	790.8	test	Phase3	test/STIM_016.jpg	99
1982.683	1.325	1324.8	test	Phase3	test/STIM_017.jpg	99
1986.892	1.377	1376.9	test	Phase3	test/STIM_017.jpg	99
1990.101	0.828	828.1	test	Phase3	test/STIM_017.jpg	99
1993.1	0.733	733.4	test	Phase3	test/STIM_018.jpg	100
1996.168	1.289	1288.6	test	Phase3	test/STIM_018.jpg	99
2000.066	0.877	876.6	test	Phase3	test/STIM_018.jpg	100
2003.079	1.008	1008.1	test	Phase3	test/STIM_019.jpg	99
2006.553	0.768	767.9	test	Phase3	test/STIM_019.jpg	100
2010.294	0.962	961.5	test	Phase3	test/STIM_019.jpg	100
2014.858	1.215	1215.1	test	Phase3	test/STIM_020.jpg	100
2019.678	1.316	1316.1	test	Phase3	test/STIM_020.jpg	100
2023.088	1.29	1290.2	test	Phase3	test/STIM_020.jpg	100
2027.797	1.374	1373.5	test	Phase3	test/STIM_021.jpg	99
2032.775	1.019	1019.2	test	Phase3	test/STIM_021.jpg	100
2036.374	0.811	811.1	test	Phase3	test/STIM_021.jpg	100
2039.511	1.116	1116.0	test	Phase3	test/STIM_022.jpg	99
2044.404	1.133	1133.0	test	Phase3	test/STIM_022.jpg	100
2049.121	1.243	1243.0	test	Phase3	test/STIM_022.jpg	99
2052.659	1.202	1201.7	test	Phase3	test/STIM_023.jpg	100
2056.142	1.119	1118.7	test	Phase3	test/STIM_023.jpg	100
2059.279	1.159	1159.4	test	Phase3	test/STIM_023.jpg	100
2062.716	1.267	1267.2	test	Phase3	test/STIM_024.jpg	99
2066.44	0.774	773.5	test	Phase3	test/STIM_024.jpg	99
2069.68	0.95	949.5	test	Phase3	test/STIM_024.jpg	99
2073.462	0.881	881.1	test	Phase3	test/STIM_025.jpg	99
2077.548	1.144	1143.7	test	Phase3	test/STIM_025.jpg	99
2081.531	1.45	1449.8	test	Phase3	test/STIM_025.jpg	100
2084.932	0.889	888.6	test	Phase3	test/STIM_026.jpg	100
2087.865	1.204	1204.0	test	Phase3	test/STIM_026.jpg	100
2091.695	0.792	791.7	test	Phase3	test/STIM_026.jpg	99
2095.027	1.166	1166.5	test	Phase3	test/STIM_027.jpg	99
2099.181	1.043	1043.2	test	Phase3	test/STIM_027.jpg	100
2102.481	1.406	1405.6	test	Phase3	test/STIM_027.jpg	100
2107.14	1.047	1047.4	test	Phase3	test/STIM_028.jpg	99
2111.319	1.291	1290.8	test	Phase3	test/STIM_028.jpg	100
2116.338	1.092	1092.3	test	Phase3	test/STIM_028.jpg	99
2121.093	0.736	735.6	test	Phase3	test/STIM_029.jpg	100
2125.656	1.17	1170.3	test	Phase3	test/STIM_029.jpg	100
2128.881	1.36	1359.6	test	Phase3	test/STIM_029.jpg	100
