onset	duration	response_time_ms	trial_type	learning_stage	stimulus	response_port
0.0	3.12	3120.3	navigation	Trial1	navigation/STIM_000.jpg	100
5.143	4.731	4731.1	navigation	Trial1	navigation/STIM_000.jpg	99
12.121	1.97	1970.5	navigation	Trial1	navigation/STIM_000.jpg	99
16.883	3.285	3285.1	navigation	Trial1	navigation/STIM_000.jpg	100
23.863	2.108	2107.7	navigation	Trial1	navigation/STIM_000.jpg	99
27.971	3.637	3637.4	navigation	Trial1	navigation/STIM_000.jpg	100
33.894	2.899	2899.2	navigation	Trial1	navigation/STIM_001.jpg	99
39.328	4.387	4387.0	navigation	Trial1	navigation/STIM_001.jpg	99
46.25	4.734	4733.5	navigation	Trial1	navigation/STIM_001.jpg	100
54.563	3.703	3702.9	navigation	Trial1	navigation/STIM_001.jpg	99
61.423	3.474	3474.3	navigation	Trial1	navigation/STIM_001.jpg	99
68.174	3.289	3288.8	navigation	Trial1	navigation/STIM_001.jpg	99
74.975	4.306	4306.3	navigation	Trial1	navigation/STIM_002.jpg	100
82.336	4.6	4599.8	navigation	Trial1	navigation/STIM_002.jpg	100
88.756	3.369	3368.9	navigation	Trial1	navigation/STIM_002.jpg	100
94.508	3.281	3281.2	navigation	Trial1	navigation/STIM_002.jpg	99
99.679	3.989	3989.2	navigation	Trial1	navigation/STIM_002.jpg	99
107.142	1.695	1695.2	navigation	Trial1	navigation/STIM_002.jpg	99
111.908	4.691	4691.1	navigation	Trial1	navigation/STIM_003.jpg	99
118.96	3.992	3992.4	navigation	Trial1	navigation/STIM_003.jpg	99
125.14	4.209	4209.3	navigation	Trial1	navigation/STIM_003.jpg	100
132.182	3.556	3555.7	navigation	Trial1	navigation/STIM_003.jpg	100
139.319	3.583	3582.9	navigation	Trial1	navigation/STIM_003.jpg	99
146.112	2.274	2274.3	navigation	Trial1	navigation/STIM_003.jpg	100
151.916	4.292	4291.8	navigation	Trial1	navigation/STIM_004.jpg	100
159.299	3.624	3623.7	navigation	Trial1	navigation/STIM_004.jpg	100
165.994	3.913	3912.6	navigation	Trial1	navigation/STIM_004.jpg	99
173.486	2.776	2776.5	navigation	Trial1	navigation/STIM_004.jpg	100
179.123	1.968	1968.2	navigation	Trial1	navigation/STIM_004.jpg	99
184.207	2.278	2277.6	navigation	Trial1	navigation/STIM_004.jpg	100
189.865	3.649	3648.9	navigation	Trial1	navigation/STIM_005.jpg	100
195.651	4.654	4653.7	navigation	Trial1	navigation/STIM_005.jpg	99
202.962	2.574	2574.2	navigation	Trial1	navigation/STIM_005.jpg	100
208.401	2.22	2220.0	navigation	Trial1	navigation/STIM_005.jpg	99
213.924	2.263	2263.4	navigation	Trial1	navigation/STIM_005.jpg	99
219.68	3.52	3519.5	navigation	Trial1	navigation/STIM_005.jpg	99
225.082	4.326	4326.0	navigation	Trial1	navigation/STIM_006.jpg	100
232.469	3.232	3232.0	navigation	Trial1	navigation/STIM_006.jpg	99
238.567	2.947	2946.6	navigation	Trial1	navigation/STIM_006.jpg	99
243.525	2.714	2714.4	navigation	Trial1	navigation/STIM_006.jpg	99
248.996	3.588	3588.5	navigation	Trial1	navigation/STIM_006.jpg	99
256.016	2.22	2220.1	navigation	Trial1	navigation/STIM_006.jpg	100
261.95	4.695	4695.3	navigation	Trial1	navigation/STIM_007.jpg	99
269.568	2.712	2712.2	navigation	Trial1	navigation/STIM_007.jpg	100
275.328	3.406	3405.6	navigation	Trial1	navigation/STIM_007.jpg	100
282.034	2.863	2863.1	navigation	Trial1	navigation/STIM_007.jpg	99
287.992	2.037	2036.5	navigation	Trial1	navigation/STIM_007.jpg	100
292.892	3.347	3347.3	navigation	Trial1	navigation/STIM_007.jpg	100
299.29	3.034	3034.1	navigation	Trial1	navigation/STIM_008.jpg	100
305.485	4.693	4692.7	navigation	Trial1	navigation/STIM_008.jpg	99
312.081	2.186	2186.4	navigation	Trial1	navigation/STIM_008.jpg	99
317.869	4.293	4292.9	navigation	Trial1	navigation/STIM_008.jpg	100
324.768	2.696	2696.3	navigation	Trial1	navigation/STIM_008.jpg	99
330.666	2.357	2357.2	navigation	Trial1	navigation/STIM_008.jpg	100
335.299	4.616	4616.1	navigation	Trial1	navigation/STIM_009.jpg	99
342.268	3.277	3276.7	navigation	Trial1	navigation/STIM_009.jpg	100
348.021	2.76	2760.3	navigation	Trial1	navigation/STIM_009.jpg	100
354.08	1.861	1860.8	navigation	Trial1	navigation/STIM_009.jpg	99
358.056	1.826	1826.5	navigation	Trial1	navigation/STIM_009.jpg	100
361.874	2.595	2595.0	navigation	Trial1	navigation/STIM_009.jpg	100
367.69	4.997	4997.2	navigation	Trial1	navigation/STIM_010.jpg	100
375.691	2.604	2604.0	navigation	Trial1	navigation/STIM_010.jpg	100
381.606	3.789	3788.8	navigation	Trial1	navigation/STIM_010.jpg	100
388.741	2.538	2538.3	navigation	Trial1	navigation/STIM_010.jpg	99
393.925	3.144	3143.8	navigation	Trial1	navigation/STIM_010.jpg	99
400.744	3.156	3155.9	navigation	Trial1	navigation/STIM_010.jpg	100
406.704	3.599	3599.3	navigation	Trial1	navigation/STIM_011.jpg	99
412.468	3.886	3886.4	navigation	Trial1	navigation/STIM_011.jpg	100
418.761	4.044	4043.5	navigation	Trial1	navigation/STIM_011.jpg	99
424.578	3.048	3048.0	navigation	Trial1	navigation/STIM_011.jpg	100
429.601	3.203	3203.2	navigation	Trial1	navigation/STIM_011.jpg	100
435.882	2.658	2658.1	navigation	Trial1	navigation/STIM_011.jpg	99
441.781	1.417	1417.0	pointing	Trial1	pointing/STIM_000.jpg	100
446.086	1.194	1194.3	pointing	Trial1	pointing/STIM_000.jpg	99
450.115	1.54	1540.3	pointing	Trial1	pointing/STIM_000.jpg	99
455.042	1.217	1217.4	pointing	Trial1	pointing/STIM_000.jpg	100
459.941	1.207	1206.9	pointing	Trial1	pointing/STIM_000.jpg	100
463.601	0.86	860.3	pointing	Trial1	pointing/STIM_000.jpg	100
466.733	1.543	1542.6	pointing	Trial1	pointing/STIM_001.jpg	100
470.546	1.113	1112.7	pointing	Trial1	pointing/STIM_001.jpg	100
473.758	1.328	1328.1	pointing	Trial1	pointing/STIM_001.jpg	99
477.138	1.198	1198.0	pointing	Trial1	pointing/STIM_001.jpg	100
480.413	1.182	1181.9	pointing	Trial1	pointing/STIM_001.jpg	99
484.99	1.438	1438.5	pointing	Trial1	pointing/STIM_001.jpg	99
489.651	0.915	915.4	pointing	Trial1	pointing/STIM_002.jpg	99
493.411	1.245	1244.7	pointing	Trial1	pointing/STIM_002.jpg	100
497.772	1.482	1482.0	pointing	Trial1	pointing/STIM_002.jpg	99
501.592	1.213	1212.7	pointing	Trial1	pointing/STIM_002.jpg	99
505.737	1.44	1439.5	pointing	Trial1	pointing/STIM_002.jpg	99
510.869	1.071	1071.3	pointing	Trial1	pointing/STIM_002.jpg	99
514.472	1.021	1021.3	pointing	Trial1	pointing/STIM_003.jpg	99
517.561	1.201	1201.2	pointing	Trial1	pointing/STIM_003.jpg	99
522.516	1.511	1510.9	pointing	Trial1	pointing/STIM_003.jpg	99
526.498	1.516	1515.7	pointing	Trial1	pointing/STIM_003.jpg	100
531.472	1.274	1274.2	pointing	Trial1	pointing/STIM_003.jpg	100
535.216	1.178	1178.4	pointing	Trial1	pointing/STIM_003.jpg	100
538.345	0.921	921.1	pointing	Trial1	pointing/STIM_004.jpg	99
543.152	1.304	1303.7	pointing	Trial1	pointing/STIM_004.jpg	100
546.633	1.216	1216.2	pointing	Trial1	pointing/STIM_004.jpg	99
551.186	1.036	1036.2	pointing	Trial1	pointing/STIM_004.jpg	100
554.692	1.103	1103.1	pointing	Trial1	pointing/STIM_004.jpg	99
557.895	1.242	1242.2	pointing	Trial1	pointing/STIM_004.jpg	100
562.849	1.037	1036.7	pointing	Trial1	pointing/STIM_005.jpg	99
565.895	1.528	1528.1	pointing	Trial1	pointing/STIM_005.jpg	100
571.236	1.155	1155.1	pointing	Trial1	pointing/STIM_005.jpg	100
574.938	0.85	849.7	pointing	Trial1	pointing/STIM_005.jpg	99
577.834	1.041	1040.7	pointing	Trial1	pointing/STIM_005.jpg	100
582.737	1.044	1044.0	pointing	Trial1	pointing/STIM_005.jpg	100
585.919	1.405	1405.2	pointing	Trial1	pointing/STIM_006.jpg	100
591.189	1.168	1168.4	pointing	Trial1	pointing/STIM_006.jpg	100
596.246	1.231	1230.9	pointing	Trial1	pointing/STIM_006.jpg	99
600.171	1.286	1285.7	pointing	Trial1	pointing/STIM_006.jpg	100
604.432	1.262	1262.3	pointing	Trial1	pointing/STIM_006.jpg	99
608.326	1.053	1053.2	pointing	Trial1	pointing/STIM_006.jpg	100
611.615	1.357	1356.7	pointing	Trial1	pointing/STIM_007.jpg	99
616.879	1.015	1015.1	pointing	Trial1	pointing/STIM_007.jpg	100
621.013	1.343	1342.9	pointing	Trial1	pointing/STIM_007.jpg	99
624.673	0.865	865.2	pointing	Trial1	pointing/STIM_007.jpg	100
628.889	1.092	1092.1	pointing	Trial1	pointing/STIM_007.jpg	99
632.4	1.434	1434.3	pointing	Trial1	pointing/STIM_007.jpg	99
637.612	1.429	1429.1	pointing	Trial1	pointing/STIM_008.jpg	99
641.834	1.556	1556.3	pointing	Trial1	pointing/STIM_008.jpg	99
645.336	1.175	1175.1	pointing	Trial1	pointing/STIM_008.jpg	100
648.679	0.932	932.4	pointing	Trial1	pointing/STIM_008.jpg	100
652.078	1.211	1211.4	pointing	Trial1	pointing/STIM_008.jpg	100
655.923	1.203	1202.7	pointing	Trial1	pointing/STIM_008.jpg	99
660.964	0.975	975.0	pointing	Trial1	pointing/STIM_009.jpg	99
664.565	1.079	1079.2	pointing	Trial1	pointing/STIM_009.jpg	99
668.853	1.115	1114.6	pointing	Trial1	pointing/STIM_009.jpg	99
672.83	1.176	1175.9	pointing	Trial1	pointing/STIM_009.jpg	99
676.231	1.237	1237.2	pointing	Trial1	pointing/STIM_009.jpg	100
680.778	1.27	1269.7	pointing	Trial1	pointing/STIM_009.jpg	100
684.329	1.181	1181.2	pointing	Trial1	pointing/STIM_010.jpg	100
689.196	1.233	1232.8	pointing	Trial1	pointing/STIM_010.jpg	99
694.204	1.156	1155.8	pointing	Trial1	pointing/STIM_010.jpg	100
698.732	1.471	1471.4	pointing	Trial1	pointing/STIM_010.jpg	99
703.633	0.994	993.9	pointing	Trial1	pointing/STIM_010.jpg	99
707.04	1.313	1312.6	pointing	Trial1	pointing/STIM_010.jpg	99
711.948	1.106	1106.1	pointing	Trial1	pointing/STIM_011.jpg	100
715.803	1.155	1155.0	pointing	Trial1	pointing/STIM_011.jpg	99
720.698	0.92	919.6	pointing	Trial1	pointing/STIM_011.jpg	99
724.66	1.134	1134.2	pointing	Trial1	pointing/STIM_011.jpg	99
727.921	0.884	884.5	pointing	Trial1	pointing/STIM_011.jpg	99
731.138	1.239	1238.8	pointing	Trial1	pointing/STIM_011.jpg	99
734.612	3.793	3792.9	navigation	Trial2	navigation/STIM_000.jpg	100
741.32	3.166	3165.5	navigation	Trial2	navigation/STIM_000.jpg	100
748.122	2.839	2839.0	navigation	Trial2	navigation/STIM_000.jpg	99
753.888	2.235	2234.8	navigation	Trial2	navigation/STIM_000.jpg	100
759.55	3.061	3061.3	navigation	Trial2	navigation/STIM_000.jpg	99
765.674	3.329	3329.2	navigation	Trial2	navigation/STIM_000.jpg	100
771.332	3.321	3320.9	navigation	Trial2	navigation/STIM_001.jpg	99
777.369	2.474	2473.6	navigation	Trial2	navigation/STIM_001.jpg	100
781.923	3.735	3735.4	navigation	Trial2	navigation/STIM_001.jpg	100
788.057	3.712	3712.2	navigation	Trial2	navigation/STIM_001.jpg	100
795.191	3.623	3623.4	navigation	Trial2	navigation/STIM_001.jpg	100
800.668	3.257	3257.0	navigation	Trial2	navigation/STIM_001.jpg	100
806.489	2.571	2570.6	navigation	Trial2	navigation/STIM_002.jpg	99
812.093	3.101	3100.6	navigation	Trial2	navigation/STIM_002.jpg	99
818.852	3.697	3697.2	navigation	Trial2	navigation/STIM_002.jpg	100
826.272	1.886	1886.0	navigation	Trial2	navigation/STIM_002.jpg	99
830.699	1.896	1895.6	navigation	Trial2	navigation/STIM_002.jpg	100
834.949	1.875	1874.8	navigation	Trial2	navigation/STIM_002.jpg	99
840.077	2.242	2242.2	navigation	Trial2	navigation/STIM_003.jpg	100
846.101	2.223	2223.1	navigation	Trial2	navigation/STIM_003.jpg	99
851.43	3.801	3800.6	navigation	Trial2	navigation/STIM_003.jpg	99
857.981	2.261	2261.1	navigation	Trial2	navigation/STIM_003.jpg	100
862.843	2.309	2308.8	navigation	Trial2	navigation/STIM_003.jpg	99
867.994	3.165	3164.6	navigation	Trial2	navigation/STIM_003.jpg	100
874.221	2.275	2275.1	navigation	Trial2	navigation/STIM_004.jpg	99
879.557	3.409	3409.0	navigation	Trial2	navigation/STIM_004.jpg	100
884.777	2.155	2155.4	navigation	Trial2	navigation/STIM_004.jpg	100
890.662	2.859	2858.6	navigation	Trial2	navigation/STIM_004.jpg	99
896.002	3.158	3157.6	navigation	Trial2	navigation/STIM_004.jpg	100
901.741	2.451	2451.0	navigation	Trial2	navigation/STIM_004.jpg	100
907.773	4.058	4058.3	navigation	Trial2	navigation/STIM_005.jpg	100
914.134	2.509	2509.1	navigation	Trial2	navigation/STIM_005.jpg	99
919.314	3.762	3762.4	navigation	Trial2	navigation/STIM_005.jpg	100
925.411	2.172	2172.1	navigation	Trial2	navigation/STIM_005.jpg	99
930.565	2.498	2497.5	navigation	Trial2	navigation/STIM_005.jpg	99
935.667	3.483	3483.0	navigation	Trial2	navigation/STIM_005.jpg	100
941.208	2.702	2701.9	navigation	Trial2	navigation/STIM_006.jpg	99
946.827	1.768	1768.2	navigation	Trial2	navigation/STIM_006.jpg	99
951.06	3.837	3837.2	navigation	Trial2	navigation/STIM_006.jpg	99
957.235	2.355	2354.7	navigation	Trial2	navigation/STIM_006.jpg	99
961.941	3.011	3010.8	navigation	Trial2	navigation/STIM_006.jpg	100
967.675	3.329	3328.9	navigation	Trial2	navigation/STIM_006.jpg	99
973.351	1.832	1831.8	navigation	Trial2	navigation/STIM_007.jpg	99
977.736	3.0	2999.5	navigation	Trial2	navigation/STIM_007.jpg	99
983.408	3.714	3714.5	navigation	Trial2	navigation/STIM_007.jpg	100
988.976	2.907	2906.9	navigation	Trial2	navigation/STIM_007.jpg	100
995.078	3.137	3137.1	navigation	Trial2	navigation/STIM_007.jpg	99
1001.793	2.2	2199.6	navigation	Trial2	navigation/STIM_007.jpg	99
1006.755	2.612	2611.9	navigation	Trial2	navigation/STIM_008.jpg	99
1011.542	2.992	2991.6	navigation	Trial2	navigation/STIM_008.jpg	99
1017.457	2.757	2756.8	navigation	Trial2	navigation/STIM_008.jpg	99
1022.445	1.702	1702.0	navigation	Trial2	navigation/STIM_008.jpg	99
1026.579	3.28	3280.1	navigation	Trial2	navigation/STIM_008.jpg	100
1031.875	1.857	1856.6	navigation	Trial2	navigation/STIM_008.jpg	100
1036.081	3.714	3713.7	navigation	Trial2	navigation/STIM_009.jpg	99
1041.665	2.989	2988.7	navigation	Trial2	navigation/STIM_009.jpg	100
1046.761	3.772	3771.8	navigation	Trial2	navigation/STIM_009.jpg	100
1053.561	2.258	2257.7	navigation	Trial2	navigation/STIM_009.jpg	99
1057.828	3.548	3547.6	navigation	Trial2	navigation/STIM_009.jpg	99
1064.007	3.35	3349.7	navigation	Trial2	navigation/STIM_009.jpg	100
1069.895	3.68	3680.2	navigation	Trial2	navigation/STIM_010.jpg	100
1077.083	2.776	2775.5	navigation	Trial2	navigation/STIM_010.jpg	99
1083.162	3.499	3498.8	navigation	Trial2	navigation/STIM_010.jpg	100
1089.465	2.16	2160.4	navigation	Trial2	navigation/STIM_010.jpg	99
1095.061	3.126	3126.3	navigation	Trial2	navigation/STIM_010.jpg	100
1100.016	2.783	2782.7	navigation	Trial2	navigation/STIM_010.jpg	100
1105.015	3.874	3873.9	navigation	Trial2	navigation/STIM_011.jpg	99
1112.319	3.544	3544.5	navigation	Trial2	navigation/STIM_011.jpg	100
1118.75	2.794	2794.4	navigation	Trial2	navigation/STIM_011.jpg	99
1124.76	3.344	3343.7	navigation	Trial2	navigation/STIM_011.jpg	99
1130.349	3.548	3547.6	navigation	Trial2	navigation/STIM_011.jpg	100
1135.968	2.259	2258.7	navigation	Trial2	navigation/STIM_011.jpg	99
1140.949	1.049	1049.1	pointing	Trial2	pointing/STIM_000.jpg	99
1144.045	1.256	1255.8	pointing	Trial2	pointing/STIM_000.jpg	99
1149.047	1.182	1182.2	pointing	Trial2	pointing/STIM_000.jpg	99
1153.151	1.589	1589.3	pointing	Trial2	pointing/STIM_000.jpg	100
1157.638	1.008	1008.0	pointing	Trial2	pointing/STIM_000.jpg	100
1162.373	1.17	1170.2	pointing	Trial2	pointing/STIM_000.jpg	99
1166.628	1.101	1100.8	pointing	Trial2	pointing/STIM_001.jpg	99
1170.872	1.372	1372.2	pointing	Trial2	pointing/STIM_001.jpg	99
1175.25	1.084	1084.1	pointing	Trial2	pointing/STIM_001.jpg	100
1179.018	1.376	1376.1	pointing	Trial2	pointing/STIM_001.jpg	100
1182.808	1.029	1029.1	pointing	Trial2	pointing/STIM_001.jpg	99
1187.383	1.585	1585.0	pointing	Trial2	pointing/STIM_001.jpg	99
1191.6	0.992	991.8	pointing	Trial2	pointing/STIM_002.jpg	100
1196.414	1.127	1127.3	pointing	Trial2	pointing/STIM_002.jpg	99
1199.666	1.047	1047.4	pointing	Trial2	pointing/STIM_002.jpg	99
1203.233	1.385	1385.2	pointing	Trial2	pointing/STIM_002.jpg	100
1206.642	0.9	900.0	pointing	Trial2	pointing/STIM_002.jpg	99
1210.777	1.243	1242.7	pointing	Trial2	pointing/STIM_002.jpg	99
1215.89	1.462	1462.3	pointing	Trial2	pointing/STIM_003.jpg	100
1220.689	1.546	1545.5	pointing	Trial2	pointing/STIM_003.jpg	99
1225.672	1.537	1536.9	pointing	Trial2	pointing/STIM_003.jpg	100
1230.604	1.243	1242.7	pointing	Trial2	pointing/STIM_003.jpg	99
1235.538	1.148	1147.9	pointing	Trial2	pointing/STIM_003.jpg	99
1239.192	1.33	1330.4	pointing	Trial2	pointing/STIM_003.jpg	100
1244.04	0.924	924.2	pointing	Trial2	pointing/STIM_004.jpg	100
1248.353	1.253	1252.9	pointing	Trial2	pointing/STIM_004.jpg	99
1252.327	1.3	1300.5	pointing	Trial2	pointing/STIM_004.jpg	99
1255.615	1.072	1071.7	pointing	Trial2	pointing/STIM_004.jpg	100
1260.179	0.901	901.0	pointing	Trial2	pointing/STIM_004.jpg	100
1263.547	1.557	1557.4	pointing	Trial2	pointing/STIM_004.jpg	99
1268.231	1.576	1576.3	pointing	Trial2	pointing/STIM_005.jpg	99
1272.227	1.109	1109.0	pointing	Trial2	pointing/STIM_005.jpg	100
1276.714	1.154	1153.8	pointing	Trial2	pointing/STIM_005.jpg	99
1281.524	0.973	973.4	pointing	Trial2	pointing/STIM_005.jpg	100
1285.807	1.146	1146.1	pointing	Trial2	pointing/STIM_005.jpg	99
1289.966	1.438	1437.5	pointing	Trial2	pointing/STIM_005.jpg	100
1294.277	1.114	1113.9	pointing	Trial2	pointing/STIM_006.jpg	100
1299.18	0.991	991.2	pointing	Trial2	pointing/STIM_006.jpg	99
1303.042	1.183	1183.2	pointing	Trial2	pointing/STIM_006.jpg	100
1307.357	0.934	934.2	pointing	Trial2	pointing/STIM_006.jpg	99
1311.101	1.589	1588.6	pointing	Trial2	pointing/STIM_006.jpg	99
1315.35	1.514	1514.3	pointing	Trial2	pointing/STIM_006.jpg	100
1319.073	1.264	1263.5	pointing	Trial2	pointing/STIM_007.jpg	100
1324.122	1.425	1425.4	pointing	Trial2	pointing/STIM_007.jpg	99
1328.033	1.159	1159.0	pointing	Trial2	pointing/STIM_007.jpg	100
1331.959	1.107	1106.8	pointing	Trial2	pointing/STIM_007.jpg	99
1335.906	1.47	1469.5	pointing	Trial2	pointing/STIM_007.jpg	99
1340.232	0.926	925.5	pointing	Trial2	pointing/STIM_007.jpg	99
1344.333	1.188	1187.8	pointing	Trial2	pointing/STIM_008.jpg	100
1347.692	1.168	1167.9	pointing	Trial2	pointing/STIM_008.jpg	99
1352.479	1.405	1405.2	pointing	Trial2	pointing/STIM_008.jpg	99
1357.048	1.059	1059.2	pointing	Trial2	pointing/STIM_008.jpg	100
1361.391	1.122	1121.5	pointing	Trial2	pointing/STIM_008.jpg	99
1365.327	1.006	1005.7	pointing	Trial2	pointing/STIM_008.jpg	99
1369.678	1.412	1411.5	pointing	Trial2	pointing/STIM_009.jpg	100
1373.77	1.4	1399.6	pointing	Trial2	pointing/STIM_009.jpg	99
1377.608	1.047	1046.7	pointing	Trial2	pointing/STIM_009.jpg	100
1382.082	1.406	1406.5	pointing	Trial2	pointing/STIM_009.jpg	99
1385.743	1.034	1033.5	pointing	Trial2	pointing/STIM_009.jpg	99
1389.532	0.954	954.3	pointing	Trial2	pointing/STIM_009.jpg	100
1393.212	1.198	1198.1	pointing	Trial2	pointing/STIM_010.jpg	99
1397.583	0.969	969.3	pointing	Trial2	pointing/STIM_010.jpg	100
1401.828	0.896	896.5	pointing	Trial2	pointing/STIM_010.jpg	100
1404.737	1.558	1558.3	pointing	Trial2	pointing/STIM_010.jpg	99
1408.482	1.086	1086.1	pointing	Trial2	pointing/STIM_010.jpg	100
1413.23	1.046	1046.0	pointing	Trial2	pointing/STIM_010.jpg	99
1417.867	1.518	1518.0	pointing	Trial2	pointing/STIM_011.jpg	100
1421.935	1.501	1500.9	pointing	Trial2	pointing/STIM_011.jpg	99
1426.508	1.06	1059.9	pointing	Trial2	pointing/STIM_011.jpg	99
1430.679	1.43	1430.2	pointing	Trial2	pointing/STIM_011.jpg	99
1435.996	1.283	1282.9	pointing	Trial2	pointing/STIM_011.jpg	99
1440.857	1.282	1282.1	pointing	Trial2	pointing/STIM_011.jpg	99
1445.113	3.439	3438.7	navigation	Trial3	navigation/STIM_000.jpg	99
1451.525	1.822	1822.2	navigation	Trial3	navigation/STIM_000.jpg	99
1456.66	2.16	2159.7	navigation	Trial3	navigation/STIM_000.jpg	99
1462.048	3.544	3543.9	navigation	Trial3	navigation/STIM_000.jpg	99
1468.995	3.097	3096.7	navigation	Trial3	navigation/STIM_000.jpg	100
1474.355	1.553	1552.7	navigation	Trial3	navigation/STIM_000.jpg	100
1479.022	2.925	2924.6	navigation	Trial3	navigation/STIM_001.jpg	99
1485.684	1.654	1654.1	navigation	Trial3	navigation/STIM_001.jpg	100
1490.462	2.992	2992.1	navigation	Trial3	navigation/STIM_001.jpg	100
1495.981	3.231	3230.7	navigation	Trial3	navigation/STIM_001.jpg	99
1502.601	2.098	2097.8	navigation	Trial3	navigation/STIM_001.jpg	99
1506.588	3.708	3708.5	navigation	Trial3	navigation/STIM_001.jpg	100
1512.111	3.206	3206.2	navigation	Trial3	navigation/STIM_002.jpg	100
1517.182	2.353	2352.6	navigation	Trial3	navigation/STIM_002.jpg	99
1522.801	3.117	3117.0	navigation	Trial3	navigation/STIM_002.jpg	99
1529.511	2.224	2223.6	navigation	Trial3	navigation/STIM_002.jpg	100
1535.208	2.838	2838.5	navigation	Trial3	navigation/STIM_002.jpg	99
1541.46	3.3	3300.5	navigation	Trial3	navigation/STIM_002.jpg	100
1546.702	2.457	2456.9	navigation	Trial3	navigation/STIM_003.jpg	100
1551.177	1.664	1664.4	navigation	Trial3	navigation/STIM_003.jpg	100
1555.036	2.796	2796.5	navigation	Trial3	navigation/STIM_003.jpg	99
1560.816	1.913	1913.0	navigation	Trial3	navigation/STIM_003.jpg	99
1566.537	2.773	2773.1	navigation	Trial3	navigation/STIM_003.jpg	100
1572.784	1.81	1810.2	navigation	Trial3	navigation/STIM_003.jpg	99
1577.796	2.169	2169.2	navigation	Trial3	navigation/STIM_004.jpg	100
1583.132	3.62	3619.7	navigation	Trial3	navigation/STIM_004.jpg	99
1588.925	3.509	3508.7	navigation	Trial3	navigation/STIM_004.jpg	99
1595.913	1.874	1874.5	navigation	Trial3	navigation/STIM_004.jpg	99
1600.016	2.285	2285.1	navigation	Trial3	navigation/STIM_004.jpg	99
1605.479	3.154	3154.1	navigation	Trial3	navigation/STIM_004.jpg	100
1612.253	3.106	3106.5	navigation	Trial3	navigation/STIM_005.jpg	100
1617.762	2.553	2552.8	navigation	Trial3	navigation/STIM_005.jpg	100
1623.092	2.118	2118.4	navigation	Trial3	navigation/STIM_005.jpg	100
1628.277	3.37	3369.5	navigation	Trial3	navigation/STIM_005.jpg	99
1633.943	3.346	3346.3	navigation	Trial3	navigation/STIM_005.jpg	100
1639.913	3.146	3146.1	navigation	Trial3	navigation/STIM_005.jpg	99
1646.423	2.243	2243.4	navigation	Trial3	navigation/STIM_006.jpg	100
1650.904	3.2	3199.7	navigation	Trial3	navigation/STIM_006.jpg	99
1657.493	1.564	1564.3	navigation	Trial3	navigation/STIM_006.jpg	99
1661.803	2.397	2396.7	navigation	Trial3	navigation/STIM_006.jpg	100
1666.967	2.294	2294.2	navigation	Trial3	navigation/STIM_006.jpg	100
1671.663	2.49	2490.4	navigation	Trial3	navigation/STIM_006.jpg	99
1676.614	1.795	1795.4	navigation	Trial3	navigation/STIM_007.jpg	99
1680.888	2.646	2645.6	navigation	Trial3	navigation/STIM_007.jpg	100
1686.597	3.177	3176.8	navigation	Trial3	navigation/STIM_007.jpg	99
1692.752	2.275	2275.4	navigation	Trial3	navigation/STIM_007.jpg	100
1698.004	3.138	3137.8	navigation	Trial3	navigation/STIM_007.jpg	99
1704.152	1.604	1603.9	navigation	Trial3	navigation/STIM_007.jpg	99
1708.18	1.66	1659.7	navigation	Trial3	navigation/STIM_008.jpg	100
1711.855	2.061	2060.8	navigation	Trial3	navigation/STIM_008.jpg	100
1715.972	1.893	1893.0	navigation	Trial3	navigation/STIM_008.jpg	100
1721.018	1.811	1811.3	navigation	Trial3	navigation/STIM_008.jpg	100
1725.634	3.153	3153.1	navigation	Trial3	navigation/STIM_008.jpg	100
1732.489	2.82	2819.7	navigation	Trial3	navigation/STIM_008.jpg	99
1738.434	2.653	2653.3	navigation	Trial3	navigation/STIM_009.jpg	100
1744.051	1.971	1971.0	navigation	Trial3	navigation/STIM_009.jpg	99
1748.427	2.702	2702.3	navigation	Trial3	navigation/STIM_009.jpg	99
1753.756	3.11	3109.8	navigation	Trial3	navigation/STIM_009.jpg	99
1759.189	2.875	2874.7	navigation	Trial3	navigation/STIM_009.jpg	100
1765.03	1.62	1620.2	navigation	Trial3	navigation/STIM_009.jpg	100
1769.504	1.791	1791.2	navigation	Trial3	navigation/STIM_010.jpg	99
1773.265	2.24	2239.8	navigation	Trial3	navigation/STIM_010.jpg	100
1777.628	1.502	1501.6	navigation	Trial3	navigation/STIM_010.jpg	99
1782.675	2.405	2404.6	navigation	Trial3	navigation/STIM_010.jpg	100
1787.865	2.522	2521.7	navigation	Trial3	navigation/STIM_010.jpg	99
1793.58	3.431	3430.7	navigation	Trial3	navigation/STIM_010.jpg	99
1800.029	2.527	2527.0	navigation	Trial3	navigation/STIM_011.jpg	99
1804.468	2.214	2213.7	navigation	Trial3	navigation/STIM_011.jpg	100
1809.278	2.72	2720.4	navigation	Trial3	navigation/STIM_011.jpg	100
1815.525	2.692	2692.2	navigation	Trial3	navigation/STIM_011.jpg	100
1821.068	2.762	2762.4	navigation	Trial3	navigation/STIM_011.jpg	99
1827.051	3.264	3264.4	navigation	Trial3	navigation/STIM_011.jpg	99
1833.598	1.051	1050.9	pointing	Trial3	pointing/STIM_000.jpg	99
1838.32	0.872	872.1	pointing	Trial3	pointing/STIM_000.jpg	99
1842.715	1.082	1081.8	pointing	Trial3	pointing/STIM_000.jpg	99
1846.057	1.185	1184.7	pointing	Trial3	pointing/STIM_000.jpg	100
1850.69	1.084	1084.4	pointing	Trial3	pointing/STIM_000.jpg	99
1854.885	1.095	1094.7	pointing	Trial3	pointing/STIM_000.jpg	99
1858.016	1.043	1043.0	pointing	Trial3	pointing/STIM_001.jpg	100
1862.621	0.968	967.6	pointing	Trial3	pointing/STIM_001.jpg	99
1867.301	1.12	1120.5	pointing	Trial3	pointing/STIM_001.jpg	99
1872.216	1.007	1006.9	pointing	Trial3	pointing/STIM_001.jpg	99
1875.516	1.573	1572.9	pointing	Trial3	pointing/STIM_001.jpg	100
1879.856	0.94	939.6	pointing	Trial3	pointing/STIM_001.jpg	99
1882.804	1.475	1474.8	pointing	Trial3	pointing/STIM_002.jpg	99
1887.309	1.332	1332.5	pointing	Trial3	pointing/STIM_002.jpg	99
1891.152	1.375	1375.4	pointing	Trial3	pointing/STIM_002.jpg	100
1895.322	1.493	1493.0	pointing	Trial3	pointing/STIM_002.jpg	100
1899.658	1.556	1555.6	pointing	Trial3	pointing/STIM_002.jpg	99
1904.808	0.992	991.7	pointing	Trial3	pointing/STIM_002.jpg	99
1908.438	1.035	1035.1	pointing	Trial3	pointing/STIM_003.jpg	100
1912.616	1.241	1240.7	pointing	Trial3	pointing/STIM_003.jpg	99
1917.715	1.15	1150.5	pointing	Trial3	pointing/STIM_003.jpg	100
1922.253	0.92	919.5	pointing	Trial3	pointing/STIM_003.jpg	99
1926.36	1.35	1350.5	pointing	Trial3	pointing/STIM_003.jpg	99
1930.417	1.26	1260.4	pointing	Trial3	pointing/STIM_003.jpg	99
1934.592	1.567	1566.8	pointing	Trial3	pointing/STIM_004.jpg	100
1939.921	1.272	1272.3	pointing	Trial3	pointing/STIM_004.jpg	99
1943.268	1.178	1177.9	pointing	Trial3	pointing/STIM_004.jpg	99
1947.419	0.898	897.9	pointing	Trial3	pointing/STIM_004.jpg	99
1951.217	1.517	1517.1	pointing	Trial3	pointing/STIM_004.jpg	100
1956.366	0.919	918.9	pointing	Trial3	pointing/STIM_004.jpg	100
1960.149	1.361	1360.9	pointing	Trial3	pointing/STIM_005.jpg	100
1964.487	1.25	1250.0	pointing	Trial3	pointing/STIM_005.jpg	100
1968.558	1.288	1287.7	pointing	Trial3	pointing/STIM_005.jpg	99
1972.004	1.35	1350.1	pointing	Trial3	pointing/STIM_005.jpg	99
1976.696	1.513	1513.3	pointing	Trial3	pointing/STIM_005.jpg	99
1980.76	1.291	1291.4	pointing	Trial3	pointing/STIM_005.jpg	99
1984.463	1.185	1184.7	pointing	Trial3	pointing/STIM_006.jpg	100
1989.487	1.344	1343.9	pointing	Trial3	pointing/STIM_006.jpg	100
1993.989	1.204	1203.5	pointing	Trial3	pointing/STIM_006.jpg	100
1998.422	1.236	1236.2	pointing	Trial3	pointing/STIM_006.jpg	100
2002.841	1.5	1500.4	pointing	Trial3	pointing/STIM_006.jpg	99
2006.818	1.549	1549.0	pointing	Trial3	pointing/STIM_006.jpg	99
2010.859	0.856	856.2	pointing	Trial3	pointing/STIM_007.jpg	99
2014.391	1.536	1535.6	pointing	Trial3	pointing/STIM_007.jpg	100
2019.515	1.114	1113.7	pointing	Trial3	pointing/STIM_007.jpg	100
2024.165	1.15	1149.8	pointing	Trial3	pointing/STIM_007.jpg	99
2027.994	1.087	1087.1	pointing	Trial3	pointing/STIM_007.jpg	99
2031.278	0.951	951.4	pointing	Trial3	pointing/STIM_007.jpg	100
2035.847	1.441	1441.1	pointing	Trial3	pointing/STIM_008.jpg	100
2039.651	0.902	901.5	pointing	Trial3	pointing/STIM_008.jpg	100
2042.939	1.388	1387.9	pointing	Trial3	pointing/STIM_008.jpg	99
2047.442	1.405	1405.2	pointing	Trial3	pointing/STIM_008.jpg	100
2052.336	1.062	1062.3	pointing	Trial3	pointing/STIM_008.jpg	100
2055.449	1.483	1482.8	pointing	Trial3	pointing/STIM_008.jpg	99
2060.488	1.491	1491.0	pointing	Trial3	pointing/STIM_009.jpg	100
2064.793	0.917	917.4	pointing	Trial3	pointing/STIM_009.jpg	100
2068.304	1.524	1523.5	pointing	Trial3	pointing/STIM_009.jpg	100
2071.873	1.133	1133.3	pointing	Trial3	pointing/STIM_009.jpg	100
2076.701	1.277	1276.9	pointing	Trial3	pointing/STIM_009.jpg	99
2080.412	1.22	1220.4	pointing	Trial3	pointing/STIM_009.jpg	100
2085.222	1.026	1025.8	pointing	Trial3	pointing/STIM_010.jpg	99
2089.488	1.358	1357.6	pointing	Trial3	pointing/STIM_010.jpg	100
2093.181	0.908	908.0	pointing	Trial3	pointing/STIM_010.jpg	99
2096.909	1.168	1168.2	pointing	Trial3	pointing/STIM_010.jpg	99
2101.732	1.143	1143.3	pointing	Trial3	pointing/STIM_010.jpg	100
2106.464	0.94	939.8	pointing	Trial3	pointing/STIM_010.jpg	99
2109.533	1.247	1247.1	pointing	Trial3	pointing/STIM_011.jpg	99
2113.931	1.278	1278.5	pointing	Trial3	pointing/STIM_011.jpg	99
2118.172	1.566	1566.0	pointing	Trial3	pointing/STIM_011.jpg	100
2121.657	0.95	949.7	pointing	Trial3	pointing/STIM_011.jpg	100
2124.827	1.063	1063.2	pointing	Trial3	pointing/STIM_011.jpg	100
2129.757	1.3	1299.5	pointing	Trial3	pointing/STIM_011.jpg	99
