onset	duration	accuracy	trial_type	learning_stage	stimulus
0.0	4.115	correct	navigation	Trial1	navigation/STIM_000.jpg
7.687	4.088	incorrect	navigation	Trial1	navigation/STIM_000.jpg
14.72	3.951	correct	navigation	Trial1	navigation/STIM_000.jpg
22.021	2.332	incorrect	navigation	Trial1	navigation/STIM_000.jpg
28.124	2.983	correct	navigation	Trial1	navigation/STIM_000.jpg
33.983	2.193	correct	navigation	Trial1	navigation/STIM_000.jpg
39.269	5.077	correct	navigation	Trial1	navigation/STIM_001.jpg
47.932	4.397	correct	navigation	Trial1	navigation/STIM_001.jpg
55.505	3.597	incorrect	navigation	Trial1	navigation/STIM_001.jpg
62.742	4.293	correct	navigation	Trial1	navigation/STIM_001.jpg
69.247	3.279	incorrect	navigation	Trial1	navigation/STIM_001.jpg
75.758	1.905	correct	navigation	Trial1	navigation/STIM_001.jpg
80.146	2.86	incorrect	navigation	Trial1	navigation/STIM_002.jpg
85.483	4.233	correct	navigation	Trial1	navigation/STIM_002.jpg
93.386	3.408	correct	navigation	Trial1	navigation/STIM_002.jpg
99.919	4.684	correct	navigation	Trial1	navigation/STIM_002.jpg
107.95	1.864	incorrect	navigation	Trial1	navigation/STIM_002.jpg
113.27	2.016	correct	navigation	Trial1	navigation/STIM_002.jpg
118.84	4.267	correct	navigation	Trial1	navigation/STIM_003.jpg
127.095	5.517	incorrect	navigation	Trial1	navigation/STIM_003.jpg
136.306	2.239	incorrect	navigation	Trial1	navigation/STIM_003.jpg
142.313	4.198	correct	navigation	Trial1	navigation/STIM_003.jpg
149.1	4.054	correct	navigation	Trial1	navigation/STIM_003.jpg
156.527	4.003	correct	navigation	Trial1	navigation/STIM_003.jpg
163.399	5.516	incorrect	navigation	Trial1	navigation/STIM_004.jpg
171.479	3.859	incorrect	navigation	Trial1	navigation/STIM_004.jpg
178.631	4.293	incorrect	navigation	Trial1	navigation/STIM_004.jpg
186.634	4.72	incorrect	navigation	Trial1	navigation/STIM_004.jpg
194.935	4.057	correct	navigation	Trial1	navigation/STIM_004.jpg
202.423	2.996	correct	navigation	Trial1	navigation/STIM_004.jpg
209.242	3.18	correct	navigation	Trial1	navigation/STIM_005.jpg
216.216	3.971	correct	navigation	Trial1	navigation/STIM_005.jpg
223.519	3.914	correct	navigation	Trial1	navigation/STIM_005.jpg
230.401	2.808	correct	navigation	Trial1	navigation/STIM_005.jpg
236.709	4.632	correct	navigation	Trial1	navigation/STIM_005.jpg
244.885	4.3	incorrect	navigation	Trial1	navigation/STIM_005.jpg
252.605	4.045	correct	navigation	Trial1	navigation/STIM_006.jpg
259.442	3.116	correct	navigation	Trial1	navigation/STIM_006.jpg
266.213	2.244	incorrect	navigation	Trial1	navigation/STIM_006.jpg
272.095	3.536	correct	navigation	Trial1	navigation/STIM_006.jpg
278.333	2.114	correct	navigation	Trial1	navigation/STIM_006.jpg
283.438	3.635	incorrect	navigation	Trial1	navigation/STIM_006.jpg
289.102	2.66	correct	navigation	Trial1	navigation/STIM_007.jpg
294.259	3.744	correct	navigation	Trial1	navigation/STIM_007.jpg
301.159	3.342	correct	navigation	Trial1	navigation/STIM_007.jpg
307.575	4.81	correct	navigation	Trial1	navigation/STIM_007.jpg
316.284	3.996	incorrect	navigation	Trial1	navigation/STIM_007.jpg
323.614	2.958	correct	navigation	Trial1	navigation/STIM_007.jpg
329.517	5.374	incorrect	navigation	Trial1	navigation/STIM_008.jpg
337.663	4.181	incorrect	navigation	Trial1	navigation/STIM_008.jpg
344.522	3.656	correct	navigation	Trial1	navigation/STIM_008.jpg
350.854	2.439	correct	navigation	Trial1	navigation/STIM_008.jpg
356.782	3.184	correct	navigation	Trial1	navigation/STIM_008.jpg
363.775	2.391	correct	navigation	Trial1	navigation/STIM_008.jpg
368.838	5.431	incorrect	navigation	Trial1	navigation/STIM_009.jpg
377.185	4.854	correct	navigation	Trial1	navigation/STIM_009.jpg
385.528	3.558	correct	navigation	Trial1	navigation/STIM_009.jpg
391.457	2.433	correct	navigation	Trial1	navigation/STIM_009.jpg
395.954	3.218	correct	navigation	Trial1	navigation/STIM_009.jpg
402.014	2.176	incorrect	navigation	Trial1	navigation/STIM_009.jpg
406.294	3.977	correct	navigation	Trial1	navigation/STIM_010.jpg
413.586	2.72	incorrect	navigation	Trial1	navigation/STIM_010.jpg
418.684	4.004	incorrect	navigation	Trial1	navigation/STIM_010.jpg
425.587	2.767	correct	navigation	Trial1	navigation/STIM_010.jpg
430.999	2.289	correct	navigation	Trial1	navigation/STIM_010.jpg
437.017	2.304	incorrect	navigation	Trial1	navigation/STIM_010.jpg
441.569	5.698	correct	navigation	Trial1	navigation/STIM_011.jpg
450.063	4.104	incorrect	navigation	Trial1	navigation/STIM_011.jpg
456.613	4.522	correct	navigation	Trial1	navigation/STIM_011.jpg
463.46	2.968	correct	navigation	Trial1	navigation/STIM_011.jpg
470.193	2.309	correct	navigation	Trial1	navigation/STIM_011.jpg
476.058	2.292	correct	navigation	Trial1	navigation/STIM_011.jpg
480.812	1.531	correct	pointing	Trial1	pointing/STIM_000.jpg
484.984	1.202	correct	pointing	Trial1	pointing/STIM_000.jpg
488.709	1.266	correct	pointing	Trial1	pointing/STIM_000.jpg
492.054	1.565	correct	pointing	Trial1	pointing/STIM_000.jpg
496.344	1.388	correct	pointing	Trial1	pointing/STIM_000.jpg
501.067	0.943	correct	pointing	Trial1	pointing/STIM_000.jpg
504.7	1.378	correct	pointing	Trial1	pointing/STIM_001.jpg
509.982	1.671	correct	pointing	Trial1	pointing/STIM_001.jpg
514.913	1.197	correct	pointing	Trial1	pointing/STIM_001.jpg
519.984	1.067	correct	pointing	Trial1	pointing/STIM_001.jpg
523.365	1.2	correct	pointing	Trial1	pointing/STIM_001.jpg
527.245	1.565	correct	pointing	Trial1	pointing/STIM_001.jpg
530.845	1.72	correct	pointing	Trial1	pointing/STIM_002.jpg
535.932	1.346	correct	pointing	Trial1	pointing/STIM_002.jpg
539.916	1.151	correct	pointing	Trial1	pointing/STIM_002.jpg
543.083	0.986	correct	pointing	Trial1	pointing/STIM_002.jpg
547.88	1.445	correct	pointing	Trial1	pointing/STIM_002.jpg
552.051	1.168	correct	pointing	Trial1	pointing/STIM_002.jpg
555.873	1.074	correct	pointing	Trial1	pointing/STIM_003.jpg
560.232	1.384	correct	pointing	Trial1	pointing/STIM_003.jpg
564.442	1.393	correct	pointing	Trial1	pointing/STIM_003.jpg
568.385	1.104	correct	pointing	Trial1	pointing/STIM_003.jpg
573.327	1.02	correct	pointing	Trial1	pointing/STIM_003.jpg
576.388	1.326	correct	pointing	Trial1	pointing/STIM_003.jpg
581.424	0.964	correct	pointing	Trial1	pointing/STIM_004.jpg
584.841	1.492	correct	pointing	Trial1	pointing/STIM_004.jpg
588.834	1.301	correct	pointing	Trial1	pointing/STIM_004.jpg
593.765	1.235	correct	pointing	Trial1	pointing/STIM_004.jpg
597.165	1.724	correct	pointing	Trial1	pointing/STIM_004.jpg
602.046	1.374	correct	pointing	Trial1	pointing/STIM_004.jpg
606.627	1.331	correct	pointing	Trial1	pointing/STIM_005.jpg
611.338	1.176	correct	pointing	Trial1	pointing/STIM_005.jpg
616.175	1.651	correct	pointing	Trial1	pointing/STIM_005.jpg
620.297	1.195	correct	pointing	Trial1	pointing/STIM_005.jpg
625.222	1.009	correct	pointing	Trial1	pointing/STIM_005.jpg
629.372	1.538	correct	pointing	Trial1	pointing/STIM_005.jpg
633.506	0.969	correct	pointing	Trial1	pointing/STIM_006.jpg
637.039	1.436	correct	pointing	Trial1	pointing/STIM_006.jpg
641.199	1.451	correct	pointing	Trial1	pointing/STIM_006.jpg
644.9	0.963	correct	pointing	Trial1	pointing/STIM_006.jpg
649.707	1.488	correct	pointing	Trial1	pointing/STIM_006.jpg
653.772	1.29	correct	pointing	Trial1	pointing/STIM_006.jpg
657.657	1.56	correct	pointing	Trial1	pointing/STIM_007.jpg
662.83	1.28	correct	pointing	Trial1	pointing/STIM_007.jpg
667.422	0.979	correct	pointing	Trial1	pointing/STIM_007.jpg
671.054	1.575	correct	pointing	Trial1	pointing/STIM_007.jpg
675.839	1.027	correct	pointing	Trial1	pointing/STIM_007.jpg
679.958	1.071	correct	pointing	Trial1	pointing/STIM_007.jpg
684.177	1.242	correct	pointing	Trial1	pointing/STIM_008.jpg
688.617	1.307	correct	pointing	Trial1	pointing/STIM_008.jpg
692.069	1.086	correct	pointing	Trial1	pointing/STIM_008.jpg
696.66	1.224	correct	pointing	Trial1	pointing/STIM_008.jpg
700.831	1.01	correct	pointing	Trial1	pointing/STIM_008.jpg
704.871	1.05	correct	pointing	Trial1	pointing/STIM_008.jpg
709.603	1.364	correct	pointing	Trial1	pointing/STIM_009.jpg
714.008	1.283	incorrect	pointing	Trial1	pointing/STIM_009.jpg
718.816	1.362	correct	pointing	Trial1	pointing/STIM_009.jpg
724.135	1.58	correct	pointing	Trial1	pointing/STIM_009.jpg
728.743	1.534	correct	pointing	Trial1	pointing/STIM_009.jpg
732.943	1.134	correct	pointing	Trial1	pointing/STIM_009.jpg
736.761	1.011	correct	pointing	Trial1	pointing/STIM_010.jpg
741.494	1.653	correct	pointing	Trial1	pointing/STIM_010.jpg
745.515	1.498	correct	pointing	Trial1	pointing/STIM_010.jpg
750.026	1.342	correct	pointing	Trial1	pointing/STIM_010.jpg
755.289	1.129	correct	pointing	Trial1	pointing/STIM_010.jpg
759.861	1.145	correct	pointing	Trial1	pointing/STIM_010.jpg
763.695	1.212	correct	pointing	Trial1	pointing/STIM_011.jpg
768.048	1.363	correct	pointing	Trial1	pointing/STIM_011.jpg
772.611	1.672	correct	pointing	Trial1	pointing/STIM_011.jpg
777.997	1.136	incorrect	pointing	Trial1	pointing/STIM_011.jpg
783.012	1.562	correct	pointing	Trial1	pointing/STIM_011.jpg
788.216	1.357	correct	pointing	Trial1	pointing/STIM_011.jpg
791.586	2.516	incorrect	navigation	Trial2	navigation/STIM_000.jpg
796.104	3.663	correct	navigation	Trial2	navigation/STIM_000.jpg
801.878	1.747	correct	navigation	Trial2	navigation/STIM_000.jpg
806.505	3.685	correct	navigation	Trial2	navigation/STIM_000.jpg
813.778	3.0	correct	navigation	Trial2	navigation/STIM_000.jpg
819.035	3.43	correct	navigation	Trial2	navigation/STIM_000.jpg
826.001	3.818	correct	navigation	Trial2	navigation/STIM_001.jpg
832.745	2.317	correct	navigation	Trial2	navigation/STIM_001.jpg
837.586	2.285	correct	navigation	Trial2	navigation/STIM_001.jpg
843.39	2.777	correct	navigation	Trial2	navigation/STIM_001.jpg
848.904	1.73	correct	navigation	Trial2	navigation/STIM_001.jpg
854.616	1.695	correct	navigation	Trial2	navigation/STIM_001.jpg
858.813	3.82	incorrect	navigation	Trial2	navigation/STIM_002.jpg
866.071	4.376	correct	navigation	Trial2	navigation/STIM_002.jpg
872.875	3.872	correct	navigation	Trial2	navigation/STIM_002.jpg
880.505	3.178	correct	navigation	Trial2	navigation/STIM_002.jpg
887.669	3.213	correct	navigation	Trial2	navigation/STIM_002.jpg
893.674	2.965	incorrect	navigation	Trial2	navigation/STIM_002.jpg
899.035	2.723	correct	navigation	Trial2	navigation/STIM_003.jpg
904.797	4.362	incorrect	navigation	Trial2	navigation/STIM_003.jpg
912.179	2.169	correct	navigation	Trial2	navigation/STIM_003.jpg
917.758	3.102	incorrect	navigation	Trial2	navigation/STIM_003.jpg
923.647	1.832	incorrect	navigation	Trial2	navigation/STIM_003.jpg
927.748	2.914	correct	navigation	Trial2	navigation/STIM_003.jpg
934.413	3.003	incorrect	navigation	Trial2	navigation/STIM_004.jpg
940.924	4.211	correct	navigation	Trial2	navigation/STIM_004.jpg
948.758	3.886	correct	navigation	Trial2	navigation/STIM_004.jpg
955.368	2.6	correct	navigation	Trial2	navigation/STIM_004.jpg
961.952	2.174	correct	navigation	Trial2	navigation/STIM_004.jpg
967.312	3.812	correct	navigation	Trial2	navigation/STIM_004.jpg
973.584	2.323	incorrect	navigation	Trial2	navigation/STIM_005.jpg
978.696	2.201	correct	navigation	Trial2	navigation/STIM_005.jpg
984.392	1.763	incorrect	navigation	Trial2	navigation/STIM_005.jpg
989.294	1.827	correct	navigation	Trial2	navigation/STIM_005.jpg
994.111	3.605	correct	navigation	Trial2	navigation/STIM_005.jpg
1001.634	3.297	correct	navigation	Trial2	navigation/STIM_005.jpg
1008.005	4.88	correct	navigation	Trial2	navigation/STIM_006.jpg
1015.975	2.635	correct	navigation	Trial2	navigation/STIM_006.jpg
1021.665	4.056	correct	navigation	Trial2	navigation/STIM_006.jpg
1028.715	2.401	correct	navigation	Trial2	navigation/STIM_006.jpg
1033.801	1.962	correct	navigation	Trial2	navigation/STIM_006.jpg
1038.069	2.464	correct	navigation	Trial2	navigation/STIM_006.jpg
1043.701	4.389	correct	navigation	Trial2	navigation/STIM_007.jpg
1051.474	3.739	correct	navigation	Trial2	navigation/STIM_007.jpg
1058.041	3.46	correct	navigation	Trial2	navigation/STIM_007.jpg
1063.902	4.055	correct	navigation	Trial2	navigation/STIM_007.jpg
1071.24	1.768	correct	navigation	Trial2	navigation/STIM_007.jpg
1076.784	3.735	correct	navigation	Trial2	navigation/STIM_007.jpg
1084.338	3.898	correct	navigation	Trial2	navigation/STIM_008.jpg
1090.347	3.561	correct	navigation	Trial2	navigation/STIM_008.jpg
1097.257	1.94	correct	navigation	Trial2	navigation/STIM_008.jpg
1102.876	2.554	correct	navigation	Trial2	navigation/STIM_008.jpg
1109.251	3.634	correct	navigation	Trial2	navigation/STIM_008.jpg
1116.48	2.67	correct	navigation	Trial2	navigation/STIM_008.jpg
1122.076	4.908	correct	navigation	Trial2	navigation/STIM_009.jpg
1129.22	2.496	correct	navigation	Trial2	navigation/STIM_009.jpg
1134.609	2.761	correct	navigation	Trial2	navigation/STIM_009.jpg
1139.61	2.957	correct	navigation	Trial2	navigation/STIM_009.jpg
1144.86	3.334	correct	navigation	Trial2	navigation/STIM_009.jpg
1151.097	3.547	incorrect	navigation	Trial2	navigation/STIM_009.jpg
1157.489	2.763	correct	navigation	Trial2	navigation/STIM_010.jpg
1164.19	3.105	incorrect	navigation	Trial2	navigation/STIM_010.jpg
1169.315	2.642	correct	navigation	Trial2	navigation/STIM_010.jpg
1174.985	3.002	correct	navigation	Trial2	navigation/STIM_010.jpg
1181.438	2.87	correct	navigation	Trial2	navigation/STIM_010.jpg
1188.3	3.852	correct	navigation	Trial2	navigation/STIM_010.jpg
1195.044	2.724	correct	navigation	Trial2	navigation/STIM_011.jpg
1201.19	3.153	correct	navigation	Trial2	navigation/STIM_011.jpg
1206.535	1.893	correct	navigation	Trial2	navigation/STIM_011.jpg
1211.584	2.082	correct	navigation	Trial2	navigation/STIM_011.jpg
1216.292	2.708	correct	navigation	Trial2	navigation/STIM_011.jpg
1221.828	2.375	correct	navigation	Trial2	navigation/STIM_011.jpg
1226.935	1.203	correct	pointing	Trial2	pointing/STIM_000.jpg
1230.531	0.984	correct	pointing	Trial2	pointing/STIM_000.jpg
1234.413	0.93	correct	pointing	Trial2	pointing/STIM_000.jpg
1237.679	1.64	correct	pointing	Trial2	pointing/STIM_000.jpg
1242.913	1.716	correct	pointing	Trial2	pointing/STIM_000.jpg
1247.974	1.076	correct	pointing	Trial2	pointing/STIM_000.jpg
1252.569	0.976	correct	pointing	Trial2	pointing/STIM_001.jpg
1256.904	1.432	correct	pointing	Trial2	pointing/STIM_001.jpg
1261.383	1.564	incorrect	pointing	Trial2	pointing/STIM_001.jpg
1266.733	1.656	correct	pointing	Trial2	pointing/STIM_001.jpg
1271.493	1.576	correct	pointing	Trial2	pointing/STIM_001.jpg
1275.396	1.464	correct	pointing	Trial2	pointing/STIM_001.jpg
1279.609	1.041	incorrect	pointing	Trial2	pointing/STIM_002.jpg
1283.706	1.718	correct	pointing	Trial2	pointing/STIM_002.jpg
1287.655	0.964	correct	pointing	Trial2	pointing/STIM_002.jpg
1291.036	1.498	correct	pointing	Trial2	pointing/STIM_002.jpg
1295.272	1.093	correct	pointing	Trial2	pointing/STIM_002.jpg
1299.515	1.076	correct	pointing	Trial2	pointing/STIM_002.jpg
1303.901	1.067	correct	pointing	Trial2	pointing/STIM_003.jpg
1307.487	1.15	correct	pointing	Trial2	pointing/STIM_003.jpg
1311.33	1.708	correct	pointing	Trial2	pointing/STIM_003.jpg
1316.09	1.509	correct	pointing	Trial2	pointing/STIM_003.jpg
1320.955	1.626	correct	pointing	Trial2	pointing/STIM_003.jpg
1326.187	1.19	correct	pointing	Trial2	pointing/STIM_003.jpg
1330.957	1.357	correct	pointing	Trial2	pointing/STIM_004.jpg
1335.176	1.225	correct	pointing	Trial2	pointing/STIM_004.jpg
1339.06	1.183	correct	pointing	Trial2	pointing/STIM_004.jpg
1342.376	1.315	correct	pointing	Trial2	pointing/STIM_004.jpg
1346.016	1.586	correct	pointing	Trial2	pointing/STIM_004.jpg
1350.1	1.249	correct	pointing	Trial2	pointing/STIM_004.jpg
1354.685	1.611	correct	pointing	Trial2	pointing/STIM_005.jpg
1359.796	1.317	correct	pointing	Trial2	pointing/STIM_005.jpg
1363.839	1.356	correct	pointing	Trial2	pointing/STIM_005.jpg
1367.608	1.328	correct	pointing	Trial2	pointing/STIM_005.jpg
1371.918	1.178	correct	pointing	Trial2	pointing/STIM_005.jpg
1376.255	1.469	correct	pointing	Trial2	pointing/STIM_005.jpg
1380.217	0.95	incorrect	pointing	Trial2	pointing/STIM_006.jpg
1384.871	1.53	correct	pointing	Trial2	pointing/STIM_006.jpg
1388.578	1.292	correct	pointing	Trial2	pointing/STIM_006.jpg
1392.642	1.6	correct	pointing	Trial2	pointing/STIM_006.jpg
1397.704	1.262	correct	pointing	Trial2	pointing/STIM_006.jpg
1402.768	1.481	correct	pointing	Trial2	pointing/STIM_006.jpg
1407.731	0.971	correct	pointing	Trial2	pointing/STIM_007.jpg
1412.284	1.131	correct	pointing	Trial2	pointing/STIM_007.jpg
1417.325	1.641	correct	pointing	Trial2	pointing/STIM_007.jpg
1421.225	1.007	incorrect	pointing	Trial2	pointing/STIM_007.jpg
1424.739	1.316	correct	pointing	Trial2	pointing/STIM_007.jpg
1429.577	1.502	correct	pointing	Trial2	pointing/STIM_007.jpg
1434.219	1.548	correct	pointing	Trial2	pointing/STIM_008.jpg
1439.527	1.734	correct	pointing	Trial2	pointing/STIM_008.jpg
1444.419	1.027	correct	pointing	Trial2	pointing/STIM_008.jpg
1448.832	0.999	correct	pointing	Trial2	pointing/STIM_008.jpg
1453.479	1.04	correct	pointing	Trial2	pointing/STIM_008.jpg
1458.098	1.456	correct	pointing	Trial2	pointing/STIM_008.jpg
1463.339	1.55	correct	pointing	Trial2	pointing/STIM_009.jpg
1467.208	1.333	correct	pointing	Trial2	pointing/STIM_009.jpg
1472.061	1.054	correct	pointing	Trial2	pointing/STIM_009.jpg
1475.872	0.943	correct	pointing	Trial2	pointing/STIM_009.jpg
1479.103	1.413	correct	pointing	Trial2	pointing/STIM_009.jpg
1482.971	1.517	correct	pointing	Trial2	pointing/STIM_009.jpg
1486.854	1.03	correct	pointing	Trial2	pointing/STIM_010.jpg
1491.071	1.349	correct	pointing	Trial2	pointing/STIM_010.jpg
1496.402	1.497	correct	pointing	Trial2	pointing/STIM_010.jpg
1500.21	1.353	correct	pointing	Trial2	pointing/STIM_010.jpg
1503.6	1.278	correct	pointing	Trial2	pointing/STIM_010.jpg
1507.188	1.101	correct	pointing	Trial2	pointing/STIM_010.jpg
1511.502	1.174	correct	pointing	Trial2	pointing/STIM_011.jpg
1514.977	1.015	correct	pointing	Trial2	pointing/STIM_011.jpg
1518.57	1.246	correct	pointing	Trial2	pointing/STIM_011.jpg
1522.44	1.406	correct	pointing	Trial2	pointing/STIM_011.jpg
1526.303	1.364	correct	pointing	Trial2	pointing/STIM_011.jpg
1530.69	1.523	correct	pointing	Trial2	pointing/STIM_011.jpg
1535.352	2.438	correct	navigation	Trial3	navigation/STIM_000.jpg
1541.317	3.163	correct	navigation	Trial3	navigation/STIM_000.jpg
1548.367	3.333	correct	navigation	Trial3	navigation/STIM_000.jpg
1554.099	2.952	correct	navigation	Trial3	navigation/STIM_000.jpg
1559.857	1.961	correct	navigation	Trial3	navigation/STIM_000.jpg
1564.503	3.975	correct	navigation	Trial3	navigation/STIM_000.jpg
1571.116	2.846	correct	navigation	Trial3	navigation/STIM_001.jpg
1576.506	2.087	incorrect	navigation	Trial3	navigation/STIM_001.jpg
1582.073	3.788	correct	navigation	Trial3	navigation/STIM_001.jpg
1588.04	1.843	incorrect	navigation	Trial3	navigation/STIM_001.jpg
1591.95	3.585	correct	navigation	Trial3	navigation/STIM_001.jpg
1597.998	2.954	correct	navigation	Trial3	navigation/STIM_001.jpg
1604.587	3.094	correct	navigation	Trial3	navigation/STIM_002.jpg
1611.68	2.678	correct	navigation	Trial3	navigation/STIM_002.jpg
1617.343	2.47	incorrect	navigation	Trial3	navigation/STIM_002.jpg
1622.628	3.122	correct	navigation	Trial3	navigation/STIM_002.jpg
1628.87	3.962	correct	navigation	Trial3	navigation/STIM_002.jpg
1635.895	3.834	correct	navigation	Trial3	navigation/STIM_002.jpg
1642.761	3.383	correct	navigation	Trial3	navigation/STIM_003.jpg
1649.704	1.662	correct	navigation	Trial3	navigation/STIM_003.jpg
1654.984	1.922	correct	navigation	Trial3	navigation/STIM_003.jpg
1659.042	3.557	correct	navigation	Trial3	navigation/STIM_003.jpg
1664.791	3.618	correct	navigation	Trial3	navigation/STIM_003.jpg
1671.618	3.251	incorrect	navigation	Trial3	navigation/STIM_003.jpg
1678.047	1.795	correct	navigation	Trial3	navigation/STIM_004.jpg
1682.481	2.758	correct	navigation	Trial3	navigation/STIM_004.jpg
1689.025	2.522	correct	navigation	Trial3	navigation/STIM_004.jpg
1694.061	2.041	correct	navigation	Trial3	navigation/STIM_004.jpg
1698.593	3.661	correct	navigation	Trial3	navigation/STIM_004.jpg
1704.374	3.832	correct	navigation	Trial3	navigation/STIM_004.jpg
1710.464	1.71	correct	navigation	Trial3	navigation/STIM_005.jpg
1714.598	1.737	incorrect	navigation	Trial3	navigation/STIM_005.jpg
1720.237	3.88	correct	navigation	Trial3	navigation/STIM_005.jpg
1726.308	3.509	correct	navigation	Trial3	navigation/STIM_005.jpg
1733.078	3.71	correct	navigation	Trial3	navigation/STIM_005.jpg
1738.841	3.794	correct	navigation	Trial3	navigation/STIM_005.jpg
1746.27	1.819	correct	navigation	Trial3	navigation/STIM_006.jpg
1750.171	3.409	correct	navigation	Trial3	navigation/STIM_006.jpg
1757.284	2.069	incorrect	navigation	Trial3	navigation/STIM_006.jpg
1762.706	3.906	correct	navigation	Trial3	navigation/STIM_006.jpg
1769.731	2.812	correct	navigation	Trial3	navigation/STIM_006.jpg
1775.307	2.559	correct	navigation	Trial3	navigation/STIM_006.jpg
1780.303	2.722	correct	navigation	Trial3	navigation/STIM_007.jpg
1786.945	3.795	correct	navigation	Trial3	navigation/STIM_007.jpg
1793.615	3.786	correct	navigation	Trial3	navigation/STIM_007.jpg
1800.202	2.112	incorrect	navigation	Trial3	navigation/STIM_007.jpg
1804.477	2.576	incorrect	navigation	Trial3	navigation/STIM_007.jpg
1809.398	3.621	correct	navigation	Trial3	navigation/STIM_007.jpg
1815.196	3.835	incorrect	navigation	Trial3	navigation/STIM_008.jpg
1822.616	2.029	correct	navigation	Trial3	navigation/STIM_008.jpg
1828.05	2.084	correct	navigation	Trial3	navigation/STIM_008.jpg
1832.432	3.988	correct	navigation	Trial3	navigation/STIM_008.jpg
1839.946	2.536	correct	navigation	Trial3	navigation/STIM_008.jpg
1846.454	2.098	correct	navigation	Trial3	navigation/STIM_008.jpg
1851.94	3.7	correct	navigation	Trial3	navigation/STIM_009.jpg
1858.64	2.98	correct	navigation	Trial3	navigation/STIM_009.jpg
1864.554	3.301	correct	navigation	Trial3	navigation/STIM_009.jpg
1870.61	3.754	correct	navigation	Trial3	navigation/STIM_009.jpg
1876.855	3.479	correct	navigation	Trial3	navigation/STIM_009.jpg
1882.798	3.913	incorrect	navigation	Trial3	navigation/STIM_009.jpg
1888.913	3.785	correct	navigation	Trial3	navigation/STIM_010.jpg
1895.553	3.504	correct	navigation	Trial3	navigation/STIM_010.jpg
1902.118	2.294	correct	navigation	Trial3	navigation/STIM_010.jpg
1908.009	3.634	correct	navigation	Trial3	navigation/STIM_010.jpg
1914.392	2.414	correct	navigation	Trial3	navigation/STIM_010.jpg
1920.397	2.534	correct	navigation	Trial3	navigation/STIM_010.jpg
1925.438	2.87	correct	navigation	Trial3	navigation/STIM_011.jpg
1931.027	2.793	correct	navigation	Trial3	navigation/STIM_011.jpg
1937.279	2.387	incorrect	navigation	Trial3	navigation/STIM_011.jpg
1941.67	2.826	correct	navigation	Trial3	navigation/STIM_011.jpg
1946.662	3.821	correct	navigation	Trial3	navigation/STIM_011.jpg
1953.391	3.693	correct	navigation	Trial3	navigation/STIM_011.jpg
1960.286	1.51	correct	pointing	Trial3	pointing/STIM_000.jpg
1964.775	1.521	correct	pointing	Trial3	pointing/STIM_000.jpg
1969.464	1.478	correct	pointing	Trial3	pointing/STIM_000.jpg
1973.965	1.152	correct	pointing	Trial3	pointing/STIM_000.jpg
1978.945	1.333	correct	pointing	Trial3	pointing/STIM_000.jpg
1982.56	1.278	correct	pointing	Trial3	pointing/STIM_000.jpg
1986.168	1.608	correct	pointing	Trial3	pointing/STIM_001.jpg
1990.215	1.175	correct	pointing	Trial3	pointing/STIM_001.jpg
1994.815	1.159	correct	pointing	Trial3	pointing/STIM_001.jpg
1999.021	1.386	correct	pointing	Trial3	pointing/STIM_001.jpg
2002.491	1.532	correct	pointing	Trial3	pointing/STIM_001.jpg
2006.086	1.005	correct	pointing	Trial3	pointing/STIM_001.jpg
2009.627	1.629	correct	pointing	Trial3	pointing/STIM_002.jpg
2013.825	1.34	correct	pointing	Trial3	pointing/STIM_002.jpg
2017.703	1.281	correct	pointing	Trial3	pointing/STIM_002.jpg
2021.72	1.52	correct	pointing	Trial3	pointing/STIM_002.jpg
2025.604	1.634	correct	pointing	Trial3	pointing/STIM_002.jpg
2029.905	1.356	correct	pointing	Trial3	pointing/STIM_002.jpg
2034.818	1.008	correct	pointing	Trial3	pointing/STIM_003.jpg
2038.728	1.396	incorrect	pointing	Trial3	pointing/STIM_003.jpg
2042.471	1.625	correct	pointing	Trial3	pointing/STIM_003.jpg
2047.782	1.045	correct	pointing	Trial3	pointing/STIM_003.jpg
2051.438	1.508	incorrect	pointing	Trial3	pointing/STIM_003.jpg
2056.23	1.329	correct	pointing	Trial3	pointing/STIM_003.jpg
2060.552	1.543	correct	pointing	Trial3	pointing/STIM_004.jpg
2064.188	1.022	correct	pointing	Trial3	pointing/STIM_004.jpg
2068.075	1.048	correct	pointing	Trial3	pointing/STIM_004.jpg
2071.374	1.145	correct	pointing	Trial3	pointing/STIM_004.jpg
2074.918	0.954	correct	pointing	Trial3	pointing/STIM_004.jpg
2079.273	1.002	correct	pointing	Trial3	pointing/STIM_004.jpg
2084.041	1.34	correct	pointing	Trial3	pointing/STIM_005.jpg
2088.286	1.214	correct	pointing	Trial3	pointing/STIM_005.jpg
2092.23	1.012	correct	pointing	Trial3	pointing/STIM_005.jpg
2095.816	1.029	correct	pointing	Trial3	pointing/STIM_005.jpg
2099.074	1.098	correct	pointing	Trial3	pointing/STIM_005.jpg
2104.085	1.098	correct	pointing	Trial3	pointing/STIM_005.jpg
2108.548	1.362	correct	pointing	Trial3	pointing/STIM_006.jpg
2112.136	1.615	incorrect	pointing	Trial3	pointing/STIM_006.jpg
2117.397	1.544	correct	pointing	Trial3	pointing/STIM_006.jpg
2121.415	0.95	incorrect	pointing	Trial3	pointing/STIM_006.jpg
2124.537	1.694	correct	pointing	Trial3	pointing/STIM_006.jpg
2128.873	1.475	incorrect	pointing	Trial3	pointing/STIM_006.jpg
2133.712	1.173	correct	pointing	Trial3	pointing/STIM_007.jpg
2138.565	1.262	correct	pointing	Trial3	pointing/STIM_007.jpg
2143.289	1.379	correct	pointing	Trial3	pointing/STIM_007.jpg
2147.374	1.473	correct	pointing	Trial3	pointing/STIM_007.jpg
2151.267	1.13	correct	pointing	Trial3	pointing/STIM_007.jpg
2156.211	1.364	correct	pointing	Trial3	pointing/STIM_007.jpg
2161.165	1.672	correct	pointing	Trial3	pointing/STIM_008.jpg
2164.952	1.151	correct	pointing	Trial3	pointing/STIM_008.jpg
2168.991	1.165	correct	pointing	Trial3	pointing/STIM_008.jpg
2173.25	1.597	correct	pointing	Trial3	pointing/STIM_008.jpg
2178.314	1.64	correct	pointing	Trial3	pointing/STIM_008.jpg
2182.967	0.931	correct	pointing	Trial3	pointing/STIM_008.jpg
2186.395	1.416	correct	pointing	Trial3	pointing/STIM_009.jpg
2191.266	1.48	correct	pointing	Trial3	pointing/STIM_009.jpg
2195.366	0.934	correct	pointing	Trial3	pointing/STIM_009.jpg
2199.289	1.569	correct	pointing	Trial3	pointing/STIM_009.jpg
2204.455	1.029	correct	pointing	Trial3	pointing/STIM_009.jpg
2209.362	1.044	correct	pointing	Trial3	pointing/STIM_009.jpg
2214.384	1.01	correct	pointing	Trial3	pointing/STIM_010.jpg
2218.527	1.472	correct	pointing	Trial3	pointing/STIM_010.jpg
2223.584	1.311	incorrect	pointing	Trial3	pointing/STIM_010.jpg
2228.241	1.204	correct	pointing	Trial3	pointing/STIM_010.jpg
2232.895	1.57	correct	pointing	Trial3	pointing/STIM_010.jpg
2237.848	1.276	correct	pointing	Trial3	pointing/STIM_010.jpg
2241.339	1.42	correct	pointing	Trial3	pointing/STIM_011.jpg
2246.493	1.527	correct	pointing	Trial3	pointing/STIM_011.jpg
2251.109	0.991	correct	pointing	Trial3	pointing/STIM_011.jpg
2254.351	1.033	correct	pointing	Trial3	pointing/STIM_011.jpg
2258.697	1.256	correct	pointing	Trial3	pointing/STIM_011.jpg
2262.487	0.973	correct	pointing	Trial3	pointing/STIM_011.jpg
