onset	duration	accuracy	trial_type	learning_stage	stimulus
0.0	1.89	incorrect	generate	Run1	generate/STIM_000.jpg
4.113	1.161	correct	generate	Run1	generate/STIM_000.jpg
8.952	1.797	correct	generate	Run1	generate/STIM_000.jpg
14.053	2.264	incorrect	generate	Run1	generate/STIM_000.jpg
19.354	1.132	correct	generate	Run1	generate/STIM_000.jpg
22.575	1.819	correct	generate	Run1	generate/STIM_001.jpg
26.604	1.162	correct	generate	Run1	generate/STIM_001.jpg
31.049	1.973	correct	generate	Run1	generate/STIM_001.jpg
36.593	2.352	incorrect	generate	Run1	generate/STIM_001.jpg
42.437	2.228	correct	generate	Run1	generate/STIM_001.jpg
47.006	1.312	correct	generate	Run1	generate/STIM_002.jpg
52.37	1.52	correct	generate	Run1	generate/STIM_002.jpg
56.715	2.388	incorrect	generate	Run1	generate/STIM_002.jpg
62.754	1.418	incorrect	generate	Run1	generate/STIM_002.jpg
67.212	1.778	correct	generate	Run1	generate/STIM_002.jpg
71.409	2.227	incorrect	generate	Run1	generate/STIM_003.jpg
76.36	1.277	correct	generate	Run1	generate/STIM_003.jpg
79.952	2.573	incorrect	generate	Run1	generate/STIM_003.jpg
86.394	1.381	incorrect	generate	Run1	generate/STIM_003.jpg
90.003	1.994	correct	generate	Run1	generate/STIM_003.jpg
94.414	1.664	incorrect	generate	Run1	generate/STIM_004.jpg
99.027	1.143	incorrect	generate	Run1	generate/STIM_004.jpg
103.615	2.053	correct	generate	Run1	generate/STIM_004.jpg
107.932	1.285	correct	generate	Run1	generate/STIM_004.jpg
111.518	0.926	correct	generate	Run1	generate/STIM_004.jpg
115.009	2.214	correct	generate	Run1	generate/STIM_005.jpg
120.135	1.211	incorrect	generate	Run1	generate/STIM_005.jpg
125.142	2.418	correct	generate	Run1	generate/STIM_005.jpg
130.208	1.837	incorrect	generate	Run1	generate/STIM_005.jpg
134.326	1.57	correct	generate	Run1	generate/STIM_005.jpg
138.74	1.265	correct	generate	Run1	generate/STIM_006.jpg
143.593	1.798	correct	generate	Run1	generate/STIM_006.jpg
148.535	2.365	correct	generate	Run1	generate/STIM_006.jpg
154.869	2.274	correct	generate	Run1	generate/STIM_006.jpg
159.93	1.278	incorrect	generate	Run1	generate/STIM_006.jpg
164.328	1.535	correct	generate	Run1	generate/STIM_007.jpg
169.049	1.538	incorrect	generate	Run1	generate/STIM_007.jpg
172.98	1.7	incorrect	generate	Run1	generate/STIM_007.jpg
177.582	1.626	correct	generate	Run1	generate/STIM_007.jpg
181.739	1.176	correct	generate	Run1	generate/STIM_007.jpg
185.971	1.846	incorrect	generate	Run1	generate/STIM_008.jpg
191.681	2.52	correct	generate	Run1	generate/STIM_008.jpg
196.702	1.149	correct	generate	Run1	generate/STIM_008.jpg
201.633	1.062	correct	generate	Run1	generate/STIM_008.jpg
205.889	0.925	correct	generate	Run1	generate/STIM_008.jpg
209.765	2.302	incorrect	generate	Run1	generate/STIM_009.jpg
215.456	2.393	correct	generate	Run1	generate/STIM_009.jpg
220.396	1.757	incorrect	generate	Run1	generate/STIM_009.jpg
225.7	1.28	correct	generate	Run1	generate/STIM_009.jpg
229.607	2.057	correct	generate	Run1	generate/STIM_009.jpg
235.389	2.726	correct	generate	Run1	generate/STIM_010.jpg
240.274	1.503	correct	generate	Run1	generate/STIM_010.jpg
244.396	1.376	correct	generate	Run1	generate/STIM_010.jpg
247.985	2.18	incorrect	generate	Run1	generate/STIM_010.jpg
253.015	2.295	correct	generate	Run1	generate/STIM_010.jpg
257.719	2.675	incorrect	generate	Run1	generate/STIM_011.jpg
264.469	2.412	correct	generate	Run1	generate/STIM_011.jpg
269.771	1.178	correct	generate	Run1	generate/STIM_011.jpg
274.766	1.71	correct	generate	Run1	generate/STIM_011.jpg
280.406	1.953	correct	generate	Run1	generate/STIM_011.jpg
285.76	2.622	correct	generate	Run1	generate/STIM_012.jpg
291.067	1.935	incorrect	generate	Run1	generate/STIM_012.jpg
295.723	2.418	incorrect	generate	Run1	generate/STIM_012.jpg
301.159	1.513	incorrect	generate	Run1	generate/STIM_012.jpg
305.152	1.359	correct	generate	Run1	generate/STIM_012.jpg
308.953	1.653	correct	generate	Run1	generate/STIM_013.jpg
314.617	1.211	correct	generate	Run1	generate/STIM_013.jpg
318.871	1.218	correct	generate	Run1	generate/STIM_013.jpg
322.502	1.417	correct	generate	Run1	generate/STIM_013.jpg
327.129	1.549	correct	generate	Run1	generate/STIM_013.jpg
332.22	1.533	incorrect	generate	Run1	generate/STIM_014.jpg
337.031	2.335	correct	generate	Run1	generate/STIM_014.jpg
342.412	1.706	incorrect	generate	Run1	generate/STIM_014.jpg
347.007	1.761	incorrect	generate	Run1	generate/STIM_014.jpg
351.96	1.532	correct	generate	Run1	generate/STIM_014.jpg
357.455	2.294	correct	generate	Run1	generate/STIM_015.jpg
362.319	2.525	correct	generate	Run1	generate/STIM_015.jpg
368.813	2.419	correct	generate	Run1	generate/STIM_015.jpg
375.23	1.364	correct	generate	Run1	generate/STIM_015.jpg
379.44	2.021	correct	generate	Run1	generate/STIM_015.jpg
383.687	1.764	correct	generate	Run1	generate/STIM_016.jpg
389.418	1.778	correct	generate	Run1	generate/STIM_016.jpg
394.783	1.58	incorrect	generate	Run1	generate/STIM_016.jpg
398.53	1.281	correct	generate	Run1	generate/STIM_016.jpg
402.299	1.692	correct	generate	Run1	generate/STIM_016.jpg
407.171	2.437	correct	generate	Run1	generate/STIM_017.jpg
412.662	2.661	correct	generate	Run1	generate/STIM_017.jpg
418.445	1.726	correct	generate	Run1	generate/STIM_017.jpg
422.938	2.06	correct	generate	Run1	generate/STIM_017.jpg
428.82	2.093	correct	generate	Run1	generate/STIM_017.jpg
433.289	2.327	correct	generate	Run1	generate/STIM_018.jpg
439.496	1.154	correct	generate	Run1	generate/STIM_018.jpg
444.164	1.597	correct	generate	Run1	generate/STIM_018.jpg
448.023	2.193	correct	generate	Run1	generate/STIM_018.jpg
453.562	1.073	correct	generate	Run1	generate/STIM_018.jpg
458.157	1.342	correct	generate	Run1	generate/STIM_019.jpg
463.341	2.138	correct	generate	Run1	generate/STIM_019.jpg
469.308	2.403	incorrect	generate	Run1	generate/STIM_019.jpg
475.097	1.651	correct	generate	Run1	generate/STIM_019.jpg
479.201	1.845	correct	generate	Run1	generate/STIM_019.jpg
483.13	1.743	correct	generate	Run1	generate/STIM_020.jpg
488.785	1.49	incorrect	generate	Run1	generate/STIM_020.jpg
494.042	2.458	correct	generate	Run1	generate/STIM_020.jpg
499.099	1.588	correct	generate	Run1	generate/STIM_020.jpg
504.647	2.176	correct	generate	Run1	generate/STIM_020.jpg
509.622	2.393	correct	generate	Run1	generate/STIM_021.jpg
515.707	2.373	correct	generate	Run1	generate/STIM_021.jpg
521.216	2.033	correct	generate	Run1	generate/STIM_021.jpg
526.97	1.823	correct	generate	Run1	generate/STIM_021.jpg
532.045	2.052	correct	generate	Run1	generate/STIM_021.jpg
537.12	1.314	correct	generate	Run1	generate/STIM_022.jpg
541.475	1.149	correct	generate	Run1	generate/STIM_022.jpg
546.657	2.178	correct	generate	Run1	generate/STIM_022.jpg
551.808	1.18	correct	generate	Run1	generate/STIM_022.jpg
555.535	1.713	incorrect	generate	Run1	generate/STIM_022.jpg
561.103	2.137	correct	generate	Run1	generate/STIM_023.jpg
567.332	2.172	correct	generate	Run1	generate/STIM_023.jpg
571.707	1.81	correct	generate	Run1	generate/STIM_023.jpg
577.128	1.362	correct	generate	Run1	generate/STIM_023.jpg
581.094	1.49	correct	generate	Run1	generate/STIM_023.jpg
585.676	2.74	correct	generate	Run1	generate/STIM_024.jpg
592.287	1.491	correct	generate	Run1	generate/STIM_024.jpg
597.419	1.749	correct	generate	Run1	generate/STIM_024.jpg
601.751	1.306	incorrect	generate	Run1	generate/STIM_024.jpg
606.461	2.256	correct	generate	Run1	generate/STIM_024.jpg
612.364	0.679	correct	repeat	Run1	repeat/STIM_000.jpg
615.276	0.514	correct	repeat	Run1	repeat/STIM_000.jpg
619.391	0.77	correct	repeat	Run1	repeat/STIM_000.jpg
623.103	0.8	correct	repeat	Run1	repeat/STIM_000.jpg
627.635	0.665	correct	repeat	Run1	repeat/STIM_000.jpg
632.096	0.52	correct	repeat	Run1	repeat/STIM_001.jpg
635.814	0.948	correct	repeat	Run1	repeat/STIM_001.jpg
640.715	0.694	incorrect	repeat	Run1	repeat/STIM_001.jpg
645.135	0.94	correct	repeat	Run1	repeat/STIM_001.jpg
648.751	0.512	correct	repeat	Run1	repeat/STIM_001.jpg
652.155	0.666	correct	repeat	Run1	repeat/STIM_002.jpg
656.138	0.674	correct	repeat	Run1	repeat/STIM_002.jpg
660.161	0.498	correct	repeat	Run1	repeat/STIM_002.jpg
663.045	0.733	correct	repeat	Run1	repeat/STIM_002.jpg
667.161	0.562	correct	repeat	Run1	repeat/STIM_002.jpg
670.79	0.714	correct	repeat	Run1	repeat/STIM_003.jpg
675.237	0.729	correct	repeat	Run1	repeat/STIM_003.jpg
679.713	0.931	correct	repeat	Run1	repeat/STIM_003.jpg
683.57	0.94	correct	repeat	Run1	repeat/STIM_003.jpg
688.009	0.877	incorrect	repeat	Run1	repeat/STIM_003.jpg
692.776	0.704	correct	repeat	Run1	repeat/STIM_004.jpg
697.369	0.554	correct	repeat	Run1	repeat/STIM_004.jpg
701.544	0.689	correct	repeat	Run1	repeat/STIM_004.jpg
704.651	0.59	correct	repeat	Run1	repeat/STIM_004.jpg
708.386	0.809	correct	repeat	Run1	repeat/STIM_004.jpg
712.636	0.842	correct	repeat	Run1	repeat/STIM_005.jpg
716.594	0.906	correct	repeat	Run1	repeat/STIM_005.jpg
719.579	0.899	correct	repeat	Run1	repeat/STIM_005.jpg
723.56	0.495	correct	repeat	Run1	repeat/STIM_005.jpg
726.297	0.921	correct	repeat	Run1	repeat/STIM_005.jpg
730.79	0.523	correct	repeat	Run1	repeat/STIM_006.jpg
734.075	0.954	correct	repeat	Run1	repeat/STIM_006.jpg
738.102	0.754	correct	repeat	Run1	repeat/STIM_006.jpg
741.469	0.678	correct	repeat	Run1	repeat/STIM_006.jpg
745.224	0.624	correct	repeat	Run1	repeat/STIM_006.jpg
747.947	0.628	correct	repeat	Run1	repeat/STIM_007.jpg
752.508	0.843	correct	repeat	Run1	repeat/STIM_007.jpg
755.563	0.754	correct	repeat	Run1	repeat/STIM_007.jpg
758.73	0.772	correct	repeat	Run1	repeat/STIM_007.jpg
762.291	0.837	correct	repeat	Run1	repeat/STIM_007.jpg
766.989	0.505	correct	repeat	Run1	repeat/STIM_008.jpg
771.454	0.577	correct	repeat	Run1	repeat/STIM_008.jpg
775.493	0.876	correct	repeat	Run1	repeat/STIM_008.jpg
780.304	0.917	correct	repeat	Run1	repeat/STIM_008.jpg
784.841	0.602	correct	repeat	Run1	repeat/STIM_008.jpg
787.536	0.718	correct	repeat	Run1	repeat/STIM_009.jpg
791.063	0.484	correct	repeat	Run1	repeat/STIM_009.jpg
795.202	0.544	correct	repeat	Run1	repeat/STIM_009.jpg
797.831	0.879	correct	repeat	Run1	repeat/STIM_009.jpg
802.173	0.669	correct	repeat	Run1	repeat/STIM_009.jpg
805.309	0.88	correct	repeat	Run1	repeat/STIM_010.jpg
808.446	0.835	correct	repeat	Run1	repeat/STIM_010.jpg
812.54	0.636	incorrect	repeat	Run1	repeat/STIM_010.jpg
816.796	0.56	correct	repeat	Run1	repeat/STIM_010.jpg
820.133	0.559	correct	repeat	Run1	repeat/STIM_010.jpg
822.991	0.718	correct	repeat	Run1	repeat/STIM_011.jpg
826.022	0.925	correct	repeat	Run1	repeat/STIM_011.jpg
830.269	0.558	correct	repeat	Run1	repeat/STIM_011.jpg
833.887	0.564	correct	repeat	Run1	repeat/STIM_011.jpg
838.439	0.916	correct	repeat	Run1	repeat/STIM_011.jpg
842.858	0.849	correct	repeat	Run1	repeat/STIM_012.jpg
846.446	0.623	incorrect	repeat	Run1	repeat/STIM_012.jpg
850.339	0.709	correct	repeat	Run1	repeat/STIM_012.jpg
853.432	0.837	incorrect	repeat	Run1	repeat/STIM_012.jpg
856.367	0.743	correct	repeat	Run1	repeat/STIM_012.jpg
860.99	0.851	correct	repeat	Run1	repeat/STIM_013.jpg
864.254	0.901	correct	repeat	Run1	repeat/STIM_013.jpg
868.547	0.544	correct	repeat	Run1	repeat/STIM_013.jpg
872.392	0.908	correct	repeat	Run1	repeat/STIM_013.jpg
875.887	0.914	correct	repeat	Run1	repeat/STIM_013.jpg
880.814	0.95	correct	repeat	Run1	repeat/STIM_014.jpg
884.824	0.576	correct	repeat	Run1	repeat/STIM_014.jpg
887.957	0.868	correct	repeat	Run1	repeat/STIM_014.jpg
892.155	0.953	correct	repeat	Run1	repeat/STIM_014.jpg
896.433	0.937	correct	repeat	Run1	repeat/STIM_014.jpg
900.234	2.206	correct	generate	Run2	generate/STIM_000.jpg
905.881	2.263	correct	generate	Run2	generate/STIM_000.jpg
911.725	1.622	correct	generate	Run2	generate/STIM_000.jpg
915.9	1.165	correct	generate	Run2	generate/STIM_000.jpg
921.08	0.827	correct	generate	Run2	generate/STIM_000.jpg
925.436	1.318	incorrect	generate	Run2	generate/STIM_001.jpg
930.429	1.129	correct	generate	Run2	generate/STIM_001.jpg
935.199	1.377	correct	generate	Run2	generate/STIM_001.jpg
938.667	1.512	correct	generate	Run2	generate/STIM_001.jpg
943.455	1.738	correct	generate	Run2	generate/STIM_001.jpg
948.314	1.478	correct	generate	Run2	generate/STIM_002.jpg
953.585	1.364	correct	generate	Run2	generate/STIM_002.jpg
958.63	1.391	correct	generate	Run2	generate/STIM_002.jpg
963.626	1.311	incorrect	generate	Run2	generate/STIM_002.jpg
968.655	1.307	correct	generate	Run2	generate/STIM_002.jpg
973.086	1.288	correct	generate	Run2	generate/STIM_003.jpg
978.211	1.401	correct	generate	Run2	generate/STIM_003.jpg
982.085	1.87	incorrect	generate	Run2	generate/STIM_003.jpg
986.599	1.712	correct	generate	Run2	generate/STIM_003.jpg
991.116	1.592	correct	generate	Run2	generate/STIM_003.jpg
995.086	2.432	correct	generate	Run2	generate/STIM_004.jpg
1000.384	1.586	correct	generate	Run2	generate/STIM_004.jpg
1005.957	1.77	correct	generate	Run2	generate/STIM_004.jpg
1010.877	1.999	correct	generate	Run2	generate/STIM_004.jpg
1015.381	1.886	correct	generate	Run2	generate/STIM_004.jpg
1020.076	1.414	correct	generate	Run2	generate/STIM_005.jpg
1023.734	1.462	incorrect	generate	Run2	generate/STIM_005.jpg
1028.037	1.882	correct	generate	Run2	generate/STIM_005.jpg
1033.688	1.134	correct	generate	Run2	generate/STIM_005.jpg
1037.996	1.997	correct	generate	Run2	generate/STIM_005.jpg
1043.235	1.636	correct	generate	Run2	generate/STIM_006.jpg
1047.688	1.47	correct	generate	Run2	generate/STIM_006.jpg
1053.007	1.199	correct	generate	Run2	generate/STIM_006.jpg
1058.005	1.325	incorrect	generate	Run2	generate/STIM_006.jpg
1063.269	1.638	correct	generate	Run2	generate/STIM_006.jpg
1067.793	2.102	incorrect	generate	Run2	generate/STIM_007.jpg
1073.207	1.277	correct	generate	Run2	generate/STIM_007.jpg
1076.667	1.304	incorrect	generate	Run2	generate/STIM_007.jpg
1080.131	0.896	correct	generate	Run2	generate/STIM_007.jpg
1084.731	1.788	correct	generate	Run2	generate/STIM_007.jpg
1089.204	2.204	correct	generate	Run2	generate/STIM_008.jpg
1094.442	1.372	correct	generate	Run2	generate/STIM_008.jpg
1098.951	1.519	correct	generate	Run2	generate/STIM_008.jpg
1103.38	1.411	correct	generate	Run2	generate/STIM_008.jpg
1108.082	0.875	incorrect	generate	Run2	generate/STIM_008.jpg
1111.043	1.846	incorrect	generate	Run2	generate/STIM_009.jpg
1116.608	2.261	correct	generate	Run2	generate/STIM_009.jpg
1122.615	0.932	correct	generate	Run2	generate/STIM_009.jpg
1127.167	1.452	correct	generate	Run2	generate/STIM_009.jpg
1130.88	1.46	correct	generate	Run2	generate/STIM_009.jpg
1135.073	2.136	correct	generate	Run2	generate/STIM_010.jpg
1140.16	2.295	correct	generate	Run2	generate/STIM_010.jpg
1146.238	1.633	correct	generate	Run2	generate/STIM_010.jpg
1151.551	1.282	incorrect	generate	Run2	generate/STIM_010.jpg
1156.632	1.44	correct	generate	Run2	generate/STIM_010.jpg
1160.57	2.185	correct	generate	Run2	generate/STIM_011.jpg
1165.455	1.304	incorrect	generate	Run2	generate/STIM_011.jpg
1169.287	1.169	correct	generate	Run2	generate/STIM_011.jpg
1174.245	1.339	correct	generate	Run2	generate/STIM_011.jpg
1178.859	1.665	correct	generate	Run2	generate/STIM_011.jpg
1183.551	2.073	correct	generate	Run2	generate/STIM_012.jpg
1188.775	2.074	correct	generate	Run2	generate/STIM_012.jpg
1193.108	1.523	correct	generate	Run2	generate/STIM_012.jpg
1198.674	1.925	correct	generate	Run2	generate/STIM_012.jpg
1203.781	1.563	correct	generate	Run2	generate/STIM_012.jpg
1208.832	1.452	incorrect	generate	Run2	generate/STIM_013.jpg
1212.961	0.985	correct	generate	Run2	generate/STIM_013.jpg
1216.0	1.329	incorrect	generate	Run2	generate/STIM_013.jpg
1219.71	1.982	correct	generate	Run2	generate/STIM_013.jpg
1224.508	1.936	correct	generate	Run2	generate/STIM_013.jpg
1229.046	1.269	correct	generate	Run2	generate/STIM_014.jpg
1234.193	1.678	incorrect	generate	Run2	generate/STIM_014.jpg
1238.919	2.094	correct	generate	Run2	generate/STIM_014.jpg
1243.185	1.091	correct	generate	Run2	generate/STIM_014.jpg
1247.298	1.879	correct	generate	Run2	generate/STIM_014.jpg
1253.133	2.374	correct	generate	Run2	generate/STIM_015.jpg
1257.957	1.799	correct	generate	Run2	generate/STIM_015.jpg
1262.954	1.633	correct	generate	Run2	generate/STIM_015.jpg
1268.441	1.084	correct	generate	Run2	generate/STIM_015.jpg
1272.94	1.616	correct	generate	Run2	generate/STIM_015.jpg
1278.17	1.784	correct	generate	Run2	generate/STIM_016.jpg
1282.416	1.785	incorrect	generate	Run2	generate/STIM_016.jpg
1287.571	1.752	correct	generate	Run2	generate/STIM_016.jpg
1292.215	1.188	correct	generate	Run2	generate/STIM_016.jpg
1296.796	1.478	correct	generate	Run2	generate/STIM_016.jpg
1301.802	1.658	correct	generate	Run2	generate/STIM_017.jpg
1306.903	1.952	correct	generate	Run2	generate/STIM_017.jpg
1311.759	1.48	incorrect	generate	Run2	generate/STIM_017.jpg
1315.445	1.113	correct	generate	Run2	generate/STIM_017.jpg
1319.299	1.365	correct	generate	Run2	generate/STIM_017.jpg
1324.226	1.037	correct	generate	Run2	generate/STIM_018.jpg
1328.31	2.199	incorrect	generate	Run2	generate/STIM_018.jpg
1334.419	1.207	correct	generate	Run2	generate/STIM_018.jpg
1339.018	1.813	correct	generate	Run2	generate/STIM_018.jpg
1344.253	1.603	correct	generate	Run2	generate/STIM_018.jpg
1349.557	1.35	correct	generate	Run2	generate/STIM_019.jpg
1354.141	1.119	correct	generate	Run2	generate/STIM_019.jpg
1357.351	1.674	incorrect	generate	Run2	generate/STIM_019.jpg
1362.647	1.923	correct	generate	Run2	generate/STIM_019.jpg
1367.372	1.249	incorrect	generate	Run2	generate/STIM_019.jpg
1371.929	1.787	incorrect	generate	Run2	generate/STIM_020.jpg
1377.373	1.815	correct	generate	Run2	generate/STIM_020.jpg
1382.112	1.886	correct	generate	Run2	generate/STIM_020.jpg
1386.782	1.354	correct	generate	Run2	generate/STIM_020.jpg
1391.95	1.857	correct	generate	Run2	generate/STIM_020.jpg
1396.427	2.216	correct	generate	Run2	generate/STIM_021.jpg
1401.207	2.001	incorrect	generate	Run2	generate/STIM_021.jpg
1406.761	1.141	correct	generate	Run2	generate/STIM_021.jpg
1411.526	1.796	correct	generate	Run2	generate/STIM_021.jpg
1416.949	0.857	correct	generate	Run2	generate/STIM_021.jpg
1420.903	1.48	incorrect	generate	Run2	generate/STIM_022.jpg
1425.326	0.951	correct	generate	Run2	generate/STIM_022.jpg
1428.833	1.739	correct	generate	Run2	generate/STIM_022.jpg
1433.481	0.911	correct	generate	Run2	generate/STIM_022.jpg
1437.615	1.511	correct	generate	Run2	generate/STIM_022.jpg
1441.644	1.698	correct	generate	Run2	generate/STIM_023.jpg
1446.452	1.959	correct	generate	Run2	generate/STIM_023.jpg
1450.973	2.01	correct	generate	Run2	generate/STIM_023.jpg
1456.222	1.327	correct	generate	Run2	generate/STIM_023.jpg
1460.39	1.919	correct	generate	Run2	generate/STIM_023.jpg
1465.777	1.213	correct	generate	Run2	generate/STIM_024.jpg
1470.601	1.158	correct	generate	Run2	generate/STIM_024.jpg
1474.134	1.565	correct	generate	Run2	generate/STIM_024.jpg
1479.752	1.261	correct	generate	Run2	generate/STIM_024.jpg
1484.885	1.398	correct	generate	Run2	generate/STIM_024.jpg
1489.398	0.914	correct	repeat	Run2	repeat/STIM_000.jpg
1492.724	0.553	correct	repeat	Run2	repeat/STIM_000.jpg
1496.618	0.919	correct	repeat	Run2	repeat/STIM_000.jpg
1500.033	0.578	correct	repeat	Run2	repeat/STIM_000.jpg
1503.419	0.878	correct	repeat	Run2	repeat/STIM_000.jpg
1507.459	0.824	correct	repeat	Run2	repeat/STIM_001.jpg
1511.202	0.513	correct	repeat	Run2	repeat/STIM_001.jpg
1515.182	0.716	correct	repeat	Run2	repeat/STIM_001.jpg
1519.81	0.744	correct	repeat	Run2	repeat/STIM_001.jpg
1523.013	0.737	correct	repeat	Run2	repeat/STIM_001.jpg
1526.078	0.898	correct	repeat	Run2	repeat/STIM_002.jpg
1530.267	0.673	incorrect	repeat	Run2	repeat/STIM_002.jpg
1533.333	0.828	correct	repeat	Run2	repeat/STIM_002.jpg
1536.429	0.856	correct	repeat	Run2	repeat/STIM_002.jpg
1540.973	0.523	correct	repeat	Run2	repeat/STIM_002.jpg
1544.853	0.827	correct	repeat	Run2	repeat/STIM_003.jpg
1548.72	0.543	correct	repeat	Run2	repeat/STIM_003.jpg
1552.043	0.904	correct	repeat	Run2	repeat/STIM_003.jpg
1555.912	0.899	correct	repeat	Run2	repeat/STIM_003.jpg
1560.131	0.675	correct	repeat	Run2	repeat/STIM_003.jpg
1564.541	0.869	correct	repeat	Run2	repeat/STIM_004.jpg
1568.445	0.504	incorrect	repeat	Run2	repeat/STIM_004.jpg
1571.752	0.532	incorrect	repeat	Run2	repeat/STIM_004.jpg
1575.12	0.768	correct	repeat	Run2	repeat/STIM_004.jpg
1579.615	0.488	correct	repeat	Run2	repeat/STIM_004.jpg
1583.111	0.651	correct	repeat	Run2	repeat/STIM_005.jpg
1585.981	0.692	correct	repeat	Run2	repeat/STIM_005.jpg
1589.073	0.718	correct	repeat	Run2	repeat/STIM_005.jpg
1593.468	0.94	incorrect	repeat	Run2	repeat/STIM_005.jpg
1597.767	0.794	correct	repeat	Run2	repeat/STIM_005.jpg
1601.298	0.571	correct	repeat	Run2	repeat/STIM_006.jpg
1605.035	0.623	correct	repeat	Run2	repeat/STIM_006.jpg
1609.413	0.58	correct	repeat	Run2	repeat/STIM_006.jpg
1612.182	0.528	correct	repeat	Run2	repeat/STIM_006.jpg
1615.051	0.764	correct	repeat	Run2	repeat/STIM_006.jpg
1618.094	0.537	correct	repeat	Run2	repeat/STIM_007.jpg
1622.263	0.682	correct	repeat	Run2	repeat/STIM_007.jpg
1625.649	0.588	correct	repeat	Run2	repeat/STIM_007.jpg
1629.945	0.592	correct	repeat	Run2	repeat/STIM_007.jpg
1632.854	0.613	correct	repeat	Run2	repeat/STIM_007.jpg
1635.629	0.856	correct	repeat	Run2	repeat/STIM_008.jpg
1640.174	0.544	correct	repeat	Run2	repeat/STIM_008.jpg
1642.94	0.806	correct	repeat	Run2	repeat/STIM_008.jpg
1647.046	0.689	correct	repeat	Run2	repeat/STIM_008.jpg
1650.151	0.482	correct	repeat	Run2	repeat/STIM_008.jpg
1653.239	0.722	incorrect	repeat	Run2	repeat/STIM_009.jpg
1657.056	0.57	correct	repeat	Run2	repeat/STIM_009.jpg
1660.986	0.814	correct	repeat	Run2	repeat/STIM_009.jpg
1663.86	0.566	correct	repeat	Run2	repeat/STIM_009.jpg
1666.621	0.585	correct	repeat	Run2	repeat/STIM_009.jpg
1670.661	0.538	correct	repeat	Run2	repeat/STIM_010.jpg
1673.841	0.844	correct	repeat	Run2	repeat/STIM_010.jpg
1676.733	0.53	correct	repeat	Run2	repeat/STIM_010.jpg
1680.617	0.715	correct	repeat	Run2	repeat/STIM_010.jpg
1683.745	0.66	correct	repeat	Run2	repeat/STIM_010.jpg
1686.808	0.536	correct	repeat	Run2	repeat/STIM_011.jpg
1690.009	0.607	correct	repeat	Run2	repeat/STIM_011.jpg
1693.288	0.58	correct	repeat	Run2	repeat/STIM_011.jpg
1696.343	0.602	correct	repeat	Run2	repeat/STIM_011.jpg
1700.367	0.848	correct	repeat	Run2	repeat/STIM_011.jpg
1703.3	0.875	correct	repeat	Run2	repeat/STIM_012.jpg
1707.541	0.631	correct	repeat	Run2	repeat/STIM_012.jpg
1711.778	0.632	correct	repeat	Run2	repeat/STIM_012.jpg
1715.503	0.553	correct	repeat	Run2	repeat/STIM_012.jpg
1718.193	0.78	correct	repeat	Run2	repeat/STIM_012.jpg
1722.924	0.731	correct	repeat	Run2	repeat/STIM_013.jpg
1725.702	0.882	correct	repeat	Run2	repeat/STIM_013.jpg
1730.542	0.778	correct	repeat	Run2	repeat/STIM_013.jpg
1734.182	0.672	correct	repeat	Run2	repeat/STIM_013.jpg
1738.098	0.909	correct	repeat	Run2	repeat/STIM_013.jpg
1741.357	0.64	correct	repeat	Run2	repeat/STIM_014.jpg
1744.116	0.943	correct	repeat	Run2	repeat/STIM_014.jpg
1748.308	0.911	correct	repeat	Run2	repeat/STIM_014.jpg
1751.904	0.837	correct	repeat	Run2	repeat/STIM_014.jpg
1756.181	0.799	correct	repeat	Run2	repeat/STIM_014.jpg
1759.059	1.122	correct	generate	Run3	generate/STIM_000.jpg
1763.604	1.822	incorrect	generate	Run3	generate/STIM_000.jpg
1768.3	1.127	correct	generate	Run3	generate/STIM_000.jpg
1772.715	1.305	incorrect	generate	Run3	generate/STIM_000.jpg
1776.894	1.697	correct	generate	Run3	generate/STIM_000.jpg
1781.058	1.58	correct	generate	Run3	generate/STIM_001.jpg
1784.843	1.608	correct	generate	Run3	generate/STIM_001.jpg
1789.598	0.956	correct	generate	Run3	generate/STIM_001.jpg
1793.279	1.511	correct	generate	Run3	generate/STIM_001.jpg
1797.351	1.921	correct	generate	Run3	generate/STIM_001.jpg
1802.828	1.452	correct	generate	Run3	generate/STIM_002.jpg
1807.188	1.601	incorrect	generate	Run3	generate/STIM_002.jpg
1811.55	1.155	correct	generate	Run3	generate/STIM_002.jpg
1816.564	1.03	correct	generate	Run3	generate/STIM_002.jpg
1820.395	0.878	correct	generate	Run3	generate/STIM_002.jpg
1824.765	1.434	correct	generate	Run3	generate/STIM_003.jpg
1828.52	0.977	incorrect	generate	Run3	generate/STIM_003.jpg
1831.919	1.826	correct	generate	Run3	generate/STIM_003.jpg
1837.218	1.694	correct	generate	Run3	generate/STIM_003.jpg
1841.311	1.557	correct	generate	Run3	generate/STIM_003.jpg
1844.979	1.58	incorrect	generate	Run3	generate/STIM_004.jpg
1848.902	0.819	incorrect	generate	Run3	generate/STIM_004.jpg
1853.687	1.807	correct	generate	Run3	generate/STIM_004.jpg
1859.366	1.289	correct	generate	Run3	generate/STIM_004.jpg
1863.713	0.971	correct	generate	Run3	generate/STIM_004.jpg
1866.794	1.013	correct	generate	Run3	generate/STIM_005.jpg
1870.637	1.393	incorrect	generate	Run3	generate/STIM_005.jpg
1875.046	1.787	correct	generate	Run3	generate/STIM_005.jpg
1880.68	1.903	incorrect	generate	Run3	generate/STIM_005.jpg
1885.747	1.931	correct	generate	Run3	generate/STIM_005.jpg
1890.3	0.936	correct	generate	Run3	generate/STIM_006.jpg
1895.227	1.293	correct	generate	Run3	generate/STIM_006.jpg
1900.167	1.2	correct	generate	Run3	generate/STIM_006.jpg
1903.779	1.495	correct	generate	Run3	generate/STIM_006.jpg
1908.542	0.958	correct	generate	Run3	generate/STIM_006.jpg
1913.162	1.193	correct	generate	Run3	generate/STIM_007.jpg
1917.845	1.152	correct	generate	Run3	generate/STIM_007.jpg
1922.591	1.752	correct	generate	Run3	generate/STIM_007.jpg
1927.318	0.916	correct	generate	Run3	generate/STIM_007.jpg
1931.824	1.962	correct	generate	Run3	generate/STIM_007.jpg
1936.181	0.897	correct	generate	Run3	generate/STIM_008.jpg
1940.0	0.853	correct	generate	Run3	generate/STIM_008.jpg
1943.109	0.94	correct	generate	Run3	generate/STIM_008.jpg
1947.063	1.724	correct	generate	Run3	generate/STIM_008.jpg
1951.698	0.93	correct	generate	Run3	generate/STIM_008.jpg
1955.708	1.048	correct	generate	Run3	generate/STIM_009.jpg
1960.554	1.008	correct	generate	Run3	generate/STIM_009.jpg
1964.899	1.984	correct	generate	Run3	generate/STIM_009.jpg
1969.83	1.112	correct	generate	Run3	generate/STIM_009.jpg
1974.99	1.78	correct	generate	Run3	generate/STIM_009.jpg
1980.725	0.89	incorrect	generate	Run3	generate/STIM_010.jpg
1984.661	1.312	incorrect	generate	Run3	generate/STIM_010.jpg
1989.639	1.114	incorrect	generate	Run3	generate/STIM_010.jpg
1993.231	2.005	correct	generate	Run3	generate/STIM_010.jpg
1999.195	0.903	correct	generate	Run3	generate/STIM_010.jpg
2004.043	1.043	correct	generate	Run3	generate/STIM_011.jpg
2008.601	1.147	correct	generate	Run3	generate/STIM_011.jpg
2012.014	1.238	correct	generate	Run3	generate/STIM_011.jpg
2016.204	1.661	correct	generate	Run3	generate/STIM_011.jpg
2019.945	1.599	correct	generate	Run3	generate/STIM_011.jpg
2024.343	1.945	correct	generate	Run3	generate/STIM_012.jpg
2029.958	1.188	incorrect	generate	Run3	generate/STIM_012.jpg
2034.326	1.46	correct	generate	Run3	generate/STIM_012.jpg
2038.685	1.698	correct	generate	Run3	generate/STIM_012.jpg
2043.989	1.788	correct	generate	Run3	generate/STIM_012.jpg
2049.228	1.358	correct	generate	Run3	generate/STIM_013.jpg
2053.899	1.925	correct	generate	Run3	generate/STIM_013.jpg
2059.647	1.487	correct	generate	Run3	generate/STIM_013.jpg
2063.496	1.108	correct	generate	Run3	generate/STIM_013.jpg
2067.91	1.054	correct	generate	Run3	generate/STIM_013.jpg
2071.018	1.422	correct	generate	Run3	generate/STIM_014.jpg
2075.191	1.221	correct	generate	Run3	generate/STIM_014.jpg
2079.584	1.929	correct	generate	Run3	generate/STIM_014.jpg
2084.124	1.557	incorrect	generate	Run3	generate/STIM_014.jpg
2089.685	1.07	correct	generate	Run3	generate/STIM_014.jpg
2093.547	0.834	incorrect	generate	Run3	generate/STIM_015.jpg
2097.574	1.731	correct	generate	Run3	generate/STIM_015.jpg
2102.534	1.2	incorrect	generate	Run3	generate/STIM_015.jpg
2106.538	1.388	correct	generate	Run3	generate/STIM_015.jpg
2110.285	1.186	incorrect	generate	Run3	generate/STIM_015.jpg
2115.289	1.443	correct	generate	Run3	generate/STIM_016.jpg
2120.457	1.808	correct	generate	Run3	generate/STIM_016.jpg
2124.776	1.396	correct	generate	Run3	generate/STIM_016.jpg
2129.589	1.285	correct	generate	Run3	generate/STIM_016.jpg
2134.691	1.613	correct	generate	Run3	generate/STIM_016.jpg
2138.568	0.838	correct	generate	Run3	generate/STIM_017.jpg
2143.431	1.808	correct	generate	Run3	generate/STIM_017.jpg
2147.797	1.566	correct	generate	Run3	generate/STIM_017.jpg
2151.553	1.41	correct	generate	Run3	generate/STIM_017.jpg
2156.149	0.885	correct	generate	Run3	generate/STIM_017.jpg
2160.489	1.426	correct	generate	Run3	generate/STIM_018.jpg
2164.162	1.631	correct	generate	Run3	generate/STIM_018.jpg
2168.191	1.947	correct	generate	Run3	generate/STIM_018.jpg
2172.855	1.393	correct	generate	Run3	generate/STIM_018.jpg
2176.533	0.885	correct	generate	Run3	generate/STIM_018.jpg
2180.207	1.6	correct	generate	Run3	generate/STIM_019.jpg
2184.472	1.346	correct	generate	Run3	generate/STIM_019.jpg
2188.434	1.873	incorrect	generate	Run3	generate/STIM_019.jpg
2193.621	0.892	correct	generate	Run3	generate/STIM_019.jpg
2197.72	0.99	correct	generate	Run3	generate/STIM_019.jpg
2201.519	1.423	correct	generate	Run3	generate/STIM_020.jpg
2206.34	1.979	correct	generate	Run3	generate/STIM_020.jpg
2211.274	1.552	correct	generate	Run3	generate/STIM_020.jpg
2216.701	0.823	correct	generate	Run3	generate/STIM_020.jpg
2219.739	1.35	correct	generate	Run3	generate/STIM_020.jpg
2225.068	0.831	correct	generate	Run3	generate/STIM_021.jpg
2229.294	1.066	correct	generate	Run3	generate/STIM_021.jpg
2234.283	1.147	correct	generate	Run3	generate/STIM_021.jpg
2239.351	1.826	correct	generate	Run3	generate/STIM_021.jpg
2244.111	1.361	correct	generate	Run3	generate/STIM_021.jpg
2247.568	1.645	correct	generate	Run3	generate/STIM_022.jpg
2252.341	0.985	correct	generate	Run3	generate/STIM_022.jpg
2256.074	1.47	correct	generate	Run3	generate/STIM_022.jpg
2261.338	1.883	correct	generate	Run3	generate/STIM_022.jpg
2266.551	1.781	correct	generate	Run3	generate/STIM_022.jpg
2271.921	1.643	correct	generate	Run3	generate/STIM_023.jpg
2276.105	1.503	correct	generate	Run3	generate/STIM_023.jpg
2279.873	1.412	correct	generate	Run3	generate/STIM_023.jpg
2285.124	1.467	correct	generate	Run3	generate/STIM_023.jpg
2289.756	0.956	correct	generate	Run3	generate/STIM_023.jpg
2293.865	1.324	incorrect	generate	Run3	generate/STIM_024.jpg
2299.101	1.935	correct	generate	Run3	generate/STIM_024.jpg
2304.175	1.804	correct	generate	Run3	generate/STIM_024.jpg
2309.687	1.867	correct	generate	Run3	generate/STIM_024.jpg
2315.391	1.992	correct	generate	Run3	generate/STIM_024.jpg
2321.032	0.597	correct	repeat	Run3	repeat/STIM_000.jpg
2325.524	0.683	incorrect	repeat	Run3	repeat/STIM_000.jpg
2328.93	0.787	correct	repeat	Run3	repeat/STIM_000.jpg
2332.986	0.795	correct	repeat	Run3	repeat/STIM_000.jpg
2337.493	0.546	correct	repeat	Run3	repeat/STIM_000.jpg
2340.266	0.617	correct	repeat	Run3	repeat/STIM_001.jpg
2344.597	0.681	correct	repeat	Run3	repeat/STIM_001.jpg
2348.523	0.65	incorrect	repeat	Run3	repeat/STIM_001.jpg
2352.987	0.748	correct	repeat	Run3	repeat/STIM_001.jpg
2357.602	0.522	correct	repeat	Run3	repeat/STIM_001.jpg
2360.885	0.812	correct	repeat	Run3	repeat/STIM_002.jpg
2364.627	0.681	correct	repeat	Run3	repeat/STIM_002.jpg
2368.339	0.8	correct	repeat	Run3	repeat/STIM_002.jpg
2372.563	0.728	incorrect	repeat	Run3	repeat/STIM_002.jpg
2376.438	0.499	correct	repeat	Run3	repeat/STIM_002.jpg
2380.745	0.824	correct	repeat	Run3	repeat/STIM_003.jpg
2384.62	0.726	correct	repeat	Run3	repeat/STIM_003.jpg
2387.505	0.656	correct	repeat	Run3	repeat/STIM_003.jpg
2391.058	0.869	correct	repeat	Run3	repeat/STIM_003.jpg
2394.007	0.895	correct	repeat	Run3	repeat/STIM_003.jpg
2397.976	0.819	correct	repeat	Run3	repeat/STIM_004.jpg
2401.506	0.79	correct	repeat	Run3	repeat/STIM_004.jpg
2404.46	0.921	correct	repeat	Run3	repeat/STIM_004.jpg
2409.357	0.738	correct	repeat	Run3	repeat/STIM_004.jpg
2414.116	0.547	correct	repeat	Run3	repeat/STIM_004.jpg
2418.579	0.788	incorrect	repeat	Run3	repeat/STIM_005.jpg
2421.66	0.602	correct	repeat	Run3	repeat/STIM_005.jpg
2426.221	0.55	correct	repeat	Run3	repeat/STIM_005.jpg
2430.509	0.527	correct	repeat	Run3	repeat/STIM_005.jpg
2434.705	0.634	correct	repeat	Run3	repeat/STIM_005.jpg
2438.242	0.785	correct	repeat	Run3	repeat/STIM_006.jpg
2441.768	0.5	correct	repeat	Run3	repeat/STIM_006.jpg
2444.348	0.747	correct	repeat	Run3	repeat/STIM_006.jpg
2448.228	0.897	incorrect	repeat	Run3	repeat/STIM_006.jpg
2452.32	0.811	correct	repeat	Run3	repeat/STIM_006.jpg
2455.593	0.56	correct	repeat	Run3	repeat/STIM_007.jpg
2459.531	0.596	correct	repeat	Run3	repeat/STIM_007.jpg
2463.179	0.791	correct	repeat	Run3	repeat/STIM_007.jpg
2466.377	0.874	correct	repeat	Run3	repeat/STIM_007.jpg
2469.912	0.61	correct	repeat	Run3	repeat/STIM_007.jpg
2473.641	0.756	correct	repeat	Run3	repeat/STIM_008.jpg
2478.055	0.546	correct	repeat	Run3	repeat/STIM_008.jpg
2482.161	0.608	correct	repeat	Run3	repeat/STIM_008.jpg
2485.122	0.753	correct	repeat	Run3	repeat/STIM_008.jpg
2488.384	0.908	correct	repeat	Run3	repeat/STIM_008.jpg
2493.297	0.539	incorrect	repeat	Run3	repeat/STIM_009.jpg
2497.785	0.896	correct	repeat	Run3	repeat/STIM_009.jpg
2502.094	0.946	correct	repeat	Run3	repeat/STIM_009.jpg
2506.892	0.838	correct	repeat	Run3	repeat/STIM_009.jpg
2511.762	0.67	correct	repeat	Run3	repeat/STIM_009.jpg
2516.179	0.559	correct	repeat	Run3	repeat/STIM_010.jpg
2519.771	0.608	correct	repeat	Run3	repeat/STIM_010.jpg
2522.592	0.519	correct	repeat	Run3	repeat/STIM_010.jpg
2525.814	0.595	correct	repeat	Run3	repeat/STIM_010.jpg
2530.319	0.784	correct	repeat	Run3	repeat/STIM_010.jpg
2533.326	0.748	correct	repeat	Run3	repeat/STIM_011.jpg
2537.061	0.678	correct	repeat	Run3	repeat/STIM_011.jpg
2541.362	0.954	correct	repeat	Run3	repeat/STIM_011.jpg
2544.996	0.576	correct	repeat	Run3	repeat/STIM_011.jpg
2549.281	0.773	correct	repeat	Run3	repeat/STIM_011.jpg
2552.968	0.661	correct	repeat	Run3	repeat/STIM_012.jpg
2555.799	0.867	correct	repeat	Run3	repeat/STIM_012.jpg
2559.203	0.668	incorrect	repeat	Run3	repeat/STIM_012.jpg
2562.812	0.932	correct	repeat	Run3	repeat/STIM_012.jpg
2566.456	0.585	correct	repeat	Run3	repeat/STIM_012.jpg
2569.524	0.897	correct	repeat	Run3	repeat/STIM_013.jpg
2574.298	0.955	incorrect	repeat	Run3	repeat/STIM_013.jpg
2578.937	0.833	correct	repeat	Run3	repeat/STIM_013.jpg
2582.941	0.925	correct	repeat	Run3	repeat/STIM_013.jpg
2586.014	0.728	incorrect	repeat	Run3	repeat/STIM_013.jpg
2590.321	0.776	correct	repeat	Run3	repeat/STIM_014.jpg
2594.808	0.81	correct	repeat	Run3	repeat/STIM_014.jpg
2598.252	0.845	correct	repeat	Run3	repeat/STIM_014.jpg
2601.137	0.529	correct	repeat	Run3	repeat/STIM_014.jpg
2604.993	0.714	correct	repeat	Run3	repeat/STIM_014.jpg
2608.348	1.524	correct	generate	Run4	generate/STIM_000.jpg
2613.352	1.793	correct	generate	Run4	generate/STIM_000.jpg
2618.626	1.925	correct	generate	Run4	generate/STIM_000.jpg
2624.611	0.977	correct	generate	Run4	generate/STIM_000.jpg
2627.658	0.981	correct	generate	Run4	generate/STIM_000.jpg
2631.528	1.165	correct	generate	Run4	generate/STIM_001.jpg
2636.366	1.557	correct	generate	Run4	generate/STIM_001.jpg
2640.79	1.468	correct	generate	Run4	generate/STIM_001.jpg
2645.501	1.861	correct	generate	Run4	generate/STIM_001.jpg
2650.695	1.399	correct	generate	Run4	generate/STIM_001.jpg
2654.494	0.829	correct	generate	Run4	generate/STIM_002.jpg
2657.419	1.922	correct	generate	Run4	generate/STIM_002.jpg
2663.011	1.749	correct	generate	Run4	generate/STIM_002.jpg
2667.023	1.66	correct	generate	Run4	generate/STIM_002.jpg
2671.226	1.312	correct	generate	Run4	generate/STIM_002.jpg
2676.039	1.313	correct	generate	Run4	generate/STIM_003.jpg
2680.204	0.822	correct	generate	Run4	generate/STIM_003.jpg
2684.069	1.842	correct	generate	Run4	generate/STIM_003.jpg
2688.574	0.899	correct	generate	Run4	generate/STIM_003.jpg
2692.428	1.444	correct	generate	Run4	generate/STIM_003.jpg
2696.277	1.192	correct	generate	Run4	generate/STIM_004.jpg
2700.817	1.07	correct	generate	Run4	generate/STIM_004.jpg
2704.208	1.715	incorrect	generate	Run4	generate/STIM_004.jpg
2708.912	1.459	correct	generate	Run4	generate/STIM_004.jpg
2712.745	1.606	correct	generate	Run4	generate/STIM_004.jpg
2718.159	1.933	correct	generate	Run4	generate/STIM_005.jpg
2723.779	1.722	correct	generate	Run4	generate/STIM_005.jpg
2728.529	1.489	correct	generate	Run4	generate/STIM_005.jpg
2732.138	1.763	correct	generate	Run4	generate/STIM_005.jpg
2737.279	0.969	correct	generate	Run4	generate/STIM_005.jpg
2741.35	1.425	correct	generate	Run4	generate/STIM_006.jpg
2745.702	1.928	correct	generate	Run4	generate/STIM_006.jpg
2751.431	1.747	correct	generate	Run4	generate/STIM_006.jpg
2756.49	0.903	correct	generate	Run4	generate/STIM_006.jpg
2761.094	1.322	correct	generate	Run4	generate/STIM_006.jpg
2765.766	1.967	correct	generate	Run4	generate/STIM_007.jpg
2770.75	0.934	correct	generate	Run4	generate/STIM_007.jpg
2773.846	1.998	correct	generate	Run4	generate/STIM_007.jpg
2778.753	0.905	correct	generate	Run4	generate/STIM_007.jpg
2783.302	0.855	correct	generate	Run4	generate/STIM_007.jpg
2786.8	0.846	correct	generate	Run4	generate/STIM_008.jpg
2790.506	1.62	correct	generate	Run4	generate/STIM_008.jpg
2795.146	1.204	correct	generate	Run4	generate/STIM_008.jpg
2799.293	1.976	correct	generate	Run4	generate/STIM_008.jpg
2805.026	1.181	correct	generate	Run4	generate/STIM_008.jpg
2809.69	1.839	correct	generate	Run4	generate/STIM_009.jpg
2813.818	2.007	correct	generate	Run4	generate/STIM_009.jpg
2818.638	1.345	correct	generate	Run4	generate/STIM_009.jpg
2822.754	1.479	correct	generate	Run4	generate/STIM_009.jpg
2826.687	1.336	correct	generate	Run4	generate/STIM_009.jpg
2831.253	1.678	correct	generate	Run4	generate/STIM_010.jpg
2835.71	1.508	correct	generate	Run4	generate/STIM_010.jpg
2839.314	1.315	correct	generate	Run4	generate/STIM_010.jpg
2842.778	1.075	correct	generate	Run4	generate/STIM_010.jpg
2846.185	1.133	correct	generate	Run4	generate/STIM_010.jpg
2851.221	1.822	correct	generate	Run4	generate/STIM_011.jpg
2855.143	1.175	correct	generate	Run4	generate/STIM_011.jpg
2859.911	1.162	correct	generate	Run4	generate/STIM_011.jpg
2863.324	1.894	correct	generate	Run4	generate/STIM_011.jpg
2868.226	1.622	correct	generate	Run4	generate/STIM_011.jpg
2873.814	1.313	correct	generate	Run4	generate/STIM_012.jpg
2878.128	1.123	correct	generate	Run4	generate/STIM_012.jpg
2881.715	0.939	correct	generate	Run4	generate/STIM_012.jpg
2885.282	1.646	correct	generate	Run4	generate/STIM_012.jpg
2889.783	1.942	correct	generate	Run4	generate/STIM_012.jpg
2894.456	1.285	correct	generate	Run4	generate/STIM_013.jpg
2899.211	1.984	correct	generate	Run4	generate/STIM_013.jpg
2904.458	1.806	correct	generate	Run4	generate/STIM_013.jpg
2908.553	1.387	correct	generate	Run4	generate/STIM_013.jpg
2912.154	1.481	correct	generate	Run4	generate/STIM_013.jpg
2916.43	1.431	correct	generate	Run4	generate/STIM_014.jpg
2921.349	1.9	correct	generate	Run4	generate/STIM_014.jpg
2926.356	1.305	correct	generate	Run4	generate/STIM_014.jpg
2930.727	1.52	correct	generate	Run4	generate/STIM_014.jpg
2936.151	1.885	correct	generate	Run4	generate/STIM_014.jpg
2940.849	1.64	correct	generate	Run4	generate/STIM_015.jpg
2944.978	1.6	correct	generate	Run4	generate/STIM_015.jpg
2950.5	1.835	correct	generate	Run4	generate/STIM_015.jpg
2955.175	1.045	correct	generate	Run4	generate/STIM_015.jpg
2960.167	0.81	correct	generate	Run4	generate/STIM_015.jpg
2963.758	1.232	correct	generate	Run4	generate/STIM_016.jpg
2967.919	0.818	correct	generate	Run4	generate/STIM_016.jpg
2971.849	0.955	correct	generate	Run4	generate/STIM_016.jpg
2975.726	1.614	correct	generate	Run4	generate/STIM_016.jpg
2981.381	1.448	correct	generate	Run4	generate/STIM_016.jpg
2986.047	1.668	correct	generate	Run4	generate/STIM_017.jpg
2991.205	1.6	correct	generate	Run4	generate/STIM_017.jpg
2995.223	1.711	correct	generate	Run4	generate/STIM_017.jpg
2999.257	1.285	correct	generate	Run4	generate/STIM_017.jpg
3004.015	1.78	correct	generate	Run4	generate/STIM_017.jpg
3008.361	1.512	correct	generate	Run4	generate/STIM_018.jpg
3012.583	1.276	correct	generate	Run4	generate/STIM_018.jpg
3017.389	1.155	correct	generate	Run4	generate/STIM_018.jpg
3021.089	1.703	correct	generate	Run4	generate/STIM_018.jpg
3025.851	1.846	correct	generate	Run4	generate/STIM_018.jpg
3031.136	1.819	correct	generate	Run4	generate/STIM_019.jpg
3036.768	1.205	correct	generate	Run4	generate/STIM_019.jpg
3041.295	1.188	correct	generate	Run4	generate/STIM_019.jpg
3045.756	0.865	correct	generate	Run4	generate/STIM_019.jpg
3050.031	1.995	correct	generate	Run4	generate/STIM_019.jpg
3054.586	1.126	correct	generate	Run4	generate/STIM_020.jpg
3058.876	1.063	correct	generate	Run4	generate/STIM_020.jpg
3063.136	1.565	correct	generate	Run4	generate/STIM_020.jpg
3067.619	1.51	correct	generate	Run4	generate/STIM_020.jpg
3072.203	0.805	correct	generate	Run4	generate/STIM_020.jpg
3075.544	1.737	correct	generate	Run4	generate/STIM_021.jpg
3079.719	1.276	correct	generate	Run4	generate/STIM_021.jpg
3083.956	1.385	correct	generate	Run4	generate/STIM_021.jpg
3087.727	0.921	correct	generate	Run4	generate/STIM_021.jpg
3091.45	0.971	correct	generate	Run4	generate/STIM_021.jpg
3094.671	1.122	correct	generate	Run4	generate/STIM_022.jpg
3098.069	1.509	correct	generate	Run4	generate/STIM_022.jpg
3102.812	1.317	correct	generate	Run4	generate/STIM_022.jpg
3107.071	1.36	correct	generate	Run4	generate/STIM_022.jpg
3110.57	1.793	correct	generate	Run4	generate/STIM_022.jpg
3116.381	1.89	correct	generate	Run4	generate/STIM_023.jpg
3120.928	1.229	correct	generate	Run4	generate/STIM_023.jpg
3125.258	1.932	correct	generate	Run4	generate/STIM_023.jpg
3131.235	1.708	correct	generate	Run4	generate/STIM_023.jpg
3136.979	1.626	correct	generate	Run4	generate/STIM_023.jpg
3141.281	1.596	correct	generate	Run4	generate/STIM_024.jpg
3145.928	1.907	correct	generate	Run4	generate/STIM_024.jpg
3150.793	1.042	correct	generate	Run4	generate/STIM_024.jpg
3155.762	1.519	incorrect	generate	Run4	generate/STIM_024.jpg
3160.542	0.978	correct	generate	Run4	generate/STIM_024.jpg
3163.806	0.56	correct	repeat	Run4	repeat/STIM_000.jpg
3168.286	0.639	correct	repeat	Run4	repeat/STIM_000.jpg
3172.726	0.616	correct	repeat	Run4	repeat/STIM_000.jpg
3175.872	0.858	correct	repeat	Run4	repeat/STIM_000.jpg
3179.695	0.545	correct	repeat	Run4	repeat/STIM_000.jpg
3182.827	0.649	correct	repeat	Run4	repeat/STIM_001.jpg
3186.131	0.496	correct	repeat	Run4	repeat/STIM_001.jpg
3189.429	0.608	correct	repeat	Run4	repeat/STIM_001.jpg
3193.878	0.955	correct	repeat	Run4	repeat/STIM_001.jpg
3197.145	0.949	correct	repeat	Run4	repeat/STIM_001.jpg
3200.154	0.883	correct	repeat	Run4	repeat/STIM_002.jpg
3203.987	0.575	correct	repeat	Run4	repeat/STIM_002.jpg
3208.398	0.662	correct	repeat	Run4	repeat/STIM_002.jpg
3211.463	0.929	correct	repeat	Run4	repeat/STIM_002.jpg
3215.29	0.877	correct	repeat	Run4	repeat/STIM_002.jpg
3218.374	0.912	correct	repeat	Run4	repeat/STIM_003.jpg
3221.479	0.547	correct	repeat	Run4	repeat/STIM_003.jpg
3225.813	0.536	correct	repeat	Run4	repeat/STIM_003.jpg
3229.749	0.839	correct	repeat	Run4	repeat/STIM_003.jpg
3234.596	0.641	correct	repeat	Run4	repeat/STIM_003.jpg
3239.187	0.721	correct	repeat	Run4	repeat/STIM_004.jpg
3243.299	0.486	correct	repeat	Run4	repeat/STIM_004.jpg
3246.758	0.616	correct	repeat	Run4	repeat/STIM_004.jpg
3250.717	0.668	correct	repeat	Run4	repeat/STIM_004.jpg
3255.12	0.724	correct	repeat	Run4	repeat/STIM_004.jpg
3259.771	0.682	correct	repeat	Run4	repeat/STIM_005.jpg
3262.998	0.651	correct	repeat	Run4	repeat/STIM_005.jpg
3266.461	0.721	correct	repeat	Run4	repeat/STIM_005.jpg
3269.381	0.854	correct	repeat	Run4	repeat/STIM_005.jpg
3273.996	0.756	correct	repeat	Run4	repeat/STIM_005.jpg
3277.687	0.762	correct	repeat	Run4	repeat/STIM_006.jpg
3281.418	0.696	correct	repeat	Run4	repeat/STIM_006.jpg
3284.605	0.52	correct	repeat	Run4	repeat/STIM_006.jpg
3288.286	0.883	incorrect	repeat	Run4	repeat/STIM_006.jpg
3292.616	0.727	correct	repeat	Run4	repeat/STIM_006.jpg
3296.351	0.661	correct	repeat	Run4	repeat/STIM_007.jpg
3300.832	0.897	correct	repeat	Run4	repeat/STIM_007.jpg
3304.616	0.863	correct	repeat	Run4	repeat/STIM_007.jpg
3307.873	0.63	correct	repeat	Run4	repeat/STIM_007.jpg
3310.628	0.898	correct	repeat	Run4	repeat/STIM_007.jpg
3314.705	0.9	correct	repeat	Run4	repeat/STIM_008.jpg
3318.859	0.615	correct	repeat	Run4	repeat/STIM_008.jpg
3322.505	0.49	correct	repeat	Run4	repeat/STIM_008.jpg
3326.872	0.511	correct	repeat	Run4	repeat/STIM_008.jpg
3330.577	0.63	correct	repeat	Run4	repeat/STIM_008.jpg
3333.982	0.71	correct	repeat	Run4	repeat/STIM_009.jpg
3337.832	0.673	correct	repeat	Run4	repeat/STIM_009.jpg
3340.748	0.611	correct	repeat	Run4	repeat/STIM_009.jpg
3344.688	0.687	correct	repeat	Run4	repeat/STIM_009.jpg
3348.702	0.493	correct	repeat	Run4	repeat/STIM_009.jpg
3353.174	0.853	correct	repeat	Run4	repeat/STIM_010.jpg
3356.816	0.717	correct	repeat	Run4	repeat/STIM_010.jpg
3361.143	0.822	incorrect	repeat	Run4	repeat/STIM_010.jpg
3364.385	0.671	correct	repeat	Run4	repeat/STIM_010.jpg
3368.539	0.909	correct	repeat	Run4	repeat/STIM_010.jpg
3373.255	0.502	correct	repeat	Run4	repeat/STIM_011.jpg
3376.907	0.684	correct	repeat	Run4	repeat/STIM_011.jpg
3380.521	0.515	correct	repeat	Run4	repeat/STIM_011.jpg
3383.748	0.774	correct	repeat	Run4	repeat/STIM_011.jpg
3387.519	0.933	correct	repeat	Run4	repeat/STIM_011.jpg
3391.919	0.567	correct	repeat	Run4	repeat/STIM_012.jpg
3395.937	0.488	correct	repeat	Run4	repeat/STIM_012.jpg
3400.153	0.517	correct	repeat	Run4	repeat/STIM_012.jpg
3404.073	0.696	correct	repeat	Run4	repeat/STIM_012.jpg
3407.006	0.572	correct	repeat	Run4	repeat/STIM_012.jpg
3411.08	0.493	correct	repeat	Run4	repeat/STIM_013.jpg
3414.755	0.635	correct	repeat	Run4	repeat/STIM_013.jpg
3419.285	0.912	correct	repeat	Run4	repeat/STIM_013.jpg
3423.11	0.493	correct	repeat	Run4	repeat/STIM_013.jpg
3426.172	0.816	correct	repeat	Run4	repeat/STIM_013.jpg
3429.573	0.893	correct	repeat	Run4	repeat/STIM_014.jpg
3432.809	0.894	correct	repeat	Run4	repeat/STIM_014.jpg
3436.291	0.682	correct	repeat	Run4	repeat/STIM_014.jpg
3440.369	0.712	correct	repeat	Run4	repeat/STIM_014.jpg
3444.805	0.851	correct	repeat	Run4	repeat/STIM_014.jpg
