onset	duration	response_time_ms	trial_type	learning_stage	stimulus	response_port
0.0	1.89	1890.0	generate	Run1	generate/STIM_000.jpg	99
4.113	1.161	1161.1	generate	Run1	generate/STIM_000.jpg	100
8.952	1.797	1797.0	generate	Run1	generate/STIM_000.jpg	99
14.053	2.264	2263.6	generate	Run1	generate/STIM_000.jpg	100
19.354	1.132	1131.8	generate	Run1	generate/STIM_000.jpg	100
22.575	1.819	1819.0	generate	Run1	generate/STIM_001.jpg	100
26.604	1.162	1162.0	generate	Run1	generate/STIM_001.jpg	99
31.049	1.973	1973.0	generate	Run1	generate/STIM_001.jpg	100
36.593	2.352	2351.9	generate	Run1	generate/STIM_001.jpg	100
42.437	2.228	2228.1	generate	Run1	generate/STIM_001.jpg	99
47.006	1.312	1312.1	generate	Run1	generate/STIM_002.jpg	99
52.37	1.52	1520.2	generate	Run1	generate/STIM_002.jpg	99
56.715	2.388	2388.3	generate	Run1	generate/STIM_002.jpg	100
62.754	1.418	1418.4	generate	Run1	generate/STIM_002.jpg	100
67.212	1.778	1778.1	generate	Run1	generate/STIM_002.jpg	99
71.409	2.227	2227.1	generate	Run1	generate/STIM_003.jpg	99
76.36	1.277	1277.2	generate	Run1	generate/STIM_003.jpg	100
79.952	2.573	2572.7	generate	Run1	generate/STIM_003.jpg	99
86.394	1.381	1381.4	generate	Run1	generate/STIM_003.jpg	99
90.003	1.994	1993.7	generate	Run1	generate/STIM_003.jpg	100
94.414	1.664	1664.0	generate	Run1	generate/STIM_004.jpg	99
99.027	1.143	1143.4	generate	Run1	generate/STIM_004.jpg	100
103.615	2.053	2052.6	generate	Run1	generate/STIM_004.jpg	99
107.932	1.285	1285.0	generate	Run1	generate/STIM_004.jpg	100
111.518	0.926	925.9	generate	Run1	generate/STIM_004.jpg	100
115.009	2.214	2213.5	generate	Run1	generate/STIM_005.jpg	100
120.135	1.211	1210.7	generate	Run1	generate/STIM_005.jpg	99
125.142	2.418	2417.7	generate	Run1	generate/STIM_005.jpg	99
130.208	1.837	1837.3	generate	Run1	generate/STIM_005.jpg	100
134.326	1.57	1570.4	generate	Run1	generate/STIM_005.jpg	99
138.74	1.265	1264.7	generate	Run1	generate/STIM_006.jpg	99
143.593	1.798	1798.3	generate	Run1	generate/STIM_006.jpg	100
148.535	2.365	2365.0	generate	Run1	generate/STIM_006.jpg	99
154.869	2.274	2273.6	generate	Run1	generate/STIM_006.jpg	99
159.93	1.278	1277.5	generate	Run1	generate/STIM_006.jpg	100
164.328	1.535	1534.7	generate	Run1	generate/STIM_007.jpg	100
169.049	1.538	1537.5	generate	Run1	generate/STIM_007.jpg	100
172.98	1.7	1699.8	generate	Run1	generate/STIM_007.jpg	100
177.582	1.626	1626.4	generate	Run1	generate/STIM_007.jpg	99
181.739	1.176	1175.9	generate	Run1	generate/STIM_007.jpg	100
185.971	1.846	1846.4	generate	Run1	generate/STIM_008.jpg	99
191.681	2.52	2520.0	generate	Run1	generate/STIM_008.jpg	100
196.702	1.149	1148.8	generate	Run1	generate/STIM_008.jpg	100
201.633	1.062	1061.7	generate	Run1	generate/STIM_008.jpg	100
205.889	0.925	924.7	generate	Run1	generate/STIM_008.jpg	100
209.765	2.302	2302.2	generate	Run1	generate/STIM_009.jpg	100
215.456	2.393	2392.7	generate	Run1	generate/STIM_009.jpg	99
220.396	1.757	1757.0	generate	Run1	generate/STIM_009.jpg	99
225.7	1.28	1279.6	generate	Run1	generate/STIM_009.jpg	100
229.607	2.057	2057.2	generate	Run1	generate/STIM_009.jpg	100
235.389	2.726	2726.2	generate	Run1	generate/STIM_010.jpg	100
240.274	1.503	1502.9	generate	Run1	generate/STIM_010.jpg	100
244.396	1.376	1376.2	generate	Run1	generate/STIM_010.jpg	99
247.985	2.18	2180.3	generate	Run1	generate/STIM_010.jpg	99
253.015	2.295	2294.8	generate	Run1	generate/STIM_010.jpg	99
257.719	2.675	2675.3	generate	Run1	generate/STIM_011.jpg	99
264.469	2.412	2412.5	generate	Run1	generate/STIM_011.jpg	100
269.771	1.178	1177.7	generate	Run1	generate/STIM_011.jpg	100
274.766	1.71	1709.5	generate	Run1	generate/STIM_011.jpg	99
280.406	1.953	1953.1	generate	Run1	generate/STIM_011.jpg	100
285.76	2.622	2621.5	generate	Run1	generate/STIM_012.jpg	99
291.067	1.935	1935.4	generate	Run1	generate/STIM_012.jpg	100
295.723	2.418	2417.8	generate	Run1	generate/STIM_012.jpg	99
301.159	1.513	1513.0	generate	Run1	generate/STIM_012.jpg	100
305.152	1.359	1358.8	generate	Run1	generate/STIM_012.jpg	99
308.953	1.653	1652.6	generate	Run1	generate/STIM_013.jpg	99
314.617	1.211	1211.2	generate	Run1	generate/STIM_013.jpg	99
318.871	1.218	1218.4	generate	Run1	generate/STIM_013.jpg	100
322.502	1.417	1416.7	generate	Run1	generate/STIM_013.jpg	100
327.129	1.549	1549.3	generate	Run1	generate/STIM_013.jpg	100
332.22	1.533	1533.0	generate	Run1	generate/STIM_014.jpg	99
337.031	2.335	2334.6	generate	Run1	generate/STIM_014.jpg	100
342.412	1.706	1706.1	generate	Run1	generate/STIM_014.jpg	99
347.007	1.761	1761.0	generate	Run1	generate/STIM_014.jpg	100
351.96	1.532	1531.9	generate	Run1	generate/STIM_014.jpg	99
357.455	2.294	2293.6	generate	Run1	generate/STIM_015.jpg	100
362.319	2.525	2524.9	generate	Run1	generate/STIM_015.jpg	100
368.813	2.419	2419.3	generate	Run1	generate/STIM_015.jpg	100
375.23	1.364	1364.0	generate	Run1	generate/STIM_015.jpg	99
379.44	2.021	2020.9	generate	Run1	generate/STIM_015.jpg	100
383.687	1.764	1763.5	generate	Run1	generate/STIM_016.jpg	99
389.418	1.778	1777.9	generate	Run1	generate/STIM_016.jpg	99
394.783	1.58	1579.9	generate	Run1	generate/STIM_016.jpg	100
398.53	1.281	1281.3	generate	Run1	generate/STIM_016.jpg	99
402.299	1.692	1692.0	generate	Run1	generate/STIM_016.jpg	99
407.171	2.437	2437.0	generate	Run1	generate/STIM_017.jpg	100
412.662	2.661	2661.4	generate	Run1	generate/STIM_017.jpg	100
418.445	1.726	1726.3	generate	Run1	generate/STIM_017.jpg	99
422.938	2.06	2059.6	generate	Run1	generate/STIM_017.jpg	99
428.82	2.093	2093.0	generate	Run1	generate/STIM_017.jpg	99
433.289	2.327	2327.1	generate	Run1	generate/STIM_018.jpg	100
439.496	1.154	1153.6	generate	Run1	generate/STIM_018.jpg	100
444.164	1.597	1597.3	generate	Run1	generate/STIM_018.jpg	99
448.023	2.193	2192.8	generate	Run1	generate/STIM_018.jpg	100
453.562	1.073	1073.0	generate	Run1	generate/STIM_018.jpg	99
458.157	1.342	1341.9	generate	Run1	generate/STIM_019.jpg	99
463.341	2.138	2137.8	generate	Run1	generate/STIM_019.jpg	99
469.308	2.403	2403.0	generate	Run1	generate/STIM_019.jpg	99
475.097	1.651	1650.6	generate	Run1	generate/STIM_019.jpg	99
479.201	1.845	1844.6	generate	Run1	generate/STIM_019.jpg	99
483.13	1.743	1743.1	generate	Run1	generate/STIM_020.jpg	99
488.785	1.49	1490.1	generate	Run1	generate/STIM_020.jpg	100
494.042	2.458	2457.9	generate	Run1	generate/STIM_020.jpg	99
499.099	1.588	1587.8	generate	Run1	generate/STIM_020.jpg	100
504.647	2.176	2176.5	generate	Run1	generate/STIM_020.jpg	100
509.622	2.393	2392.9	generate	Run1	generate/STIM_021.jpg	99
515.707	2.373	2372.7	generate	Run1	generate/STIM_021.jpg	100
521.216	2.033	2033.0	generate	Run1	generate/STIM_021.jpg	100
526.97	1.823	1823.0	generate	Run1	generate/STIM_021.jpg	99
532.045	2.052	2052.4	generate	Run1	generate/STIM_021.jpg	100
537.12	1.314	1313.5	generate	Run1	generate/STIM_022.jpg	100
541.475	1.149	1148.7	generate	Run1	generate/STIM_022.jpg	99
546.657	2.178	2177.6	generate	Run1	generate/STIM_022.jpg	100
551.808	1.18	1179.5	generate	Run1	generate/STIM_022.jpg	99
555.535	1.713	1712.8	generate	Run1	generate/STIM_022.jpg	100
561.103	2.137	2137.4	generate	Run1	generate/STIM_023.jpg	100
567.332	2.172	2172.3	generate	Run1	generate/STIM_023.jpg	99
571.707	1.81	1810.0	generate	Run1	generate/STIM_023.jpg	100
577.128	1.362	1361.9	generate	Run1	generate/STIM_023.jpg	99
581.094	1.49	1489.9	generate	Run1	generate/STIM_023.jpg	99
585.676	2.74	2740.1	generate	Run1	generate/STIM_024.jpg	99
592.287	1.491	1491.3	generate	Run1	generate/STIM_024.jpg	100
597.419	1.749	1748.9	generate	Run1	generate/STIM_024.jpg	99
601.751	1.306	1306.4	generate	Run1	generate/STIM_024.jpg	100
606.461	2.256	2256.4	generate	Run1	generate/STIM_024.jpg	99
612.364	0.679	678.7	repeat	Run1	repeat/STIM_000.jpg	100
615.276	0.514	513.5	repeat	Run1	repeat/STIM_000.jpg	100
619.391	0.77	770.2	repeat	Run1	repeat/STIM_000.jpg	100
623.103	0.8	799.7	repeat	Run1	repeat/STIM_000.jpg	100
627.635	0.665	665.0	repeat	Run1	repeat/STIM_000.jpg	99
632.096	0.52	520.3	repeat	Run1	repeat/STIM_001.jpg	99
635.814	0.948	948.5	repeat	Run1	repeat/STIM_001.jpg	99
640.715	0.694	694.0	repeat	Run1	repeat/STIM_001.jpg	100
645.135	0.94	940.2	repeat	Run1	repeat/STIM_001.jpg	100
648.751	0.512	511.9	repeat	Run1	repeat/STIM_001.jpg	99
652.155	0.666	665.9	repeat	Run1	repeat/STIM_002.jpg	100
656.138	0.674	673.5	repeat	Run1	repeat/STIM_002.jpg	99
660.161	0.498	498.4	repeat	Run1	repeat/STIM_002.jpg	100
663.045	0.733	733.1	repeat	Run1	repeat/STIM_002.jpg	100
667.161	0.562	562.0	repeat	Run1	repeat/STIM_002.jpg	99
670.79	0.714	714.2	repeat	Run1	repeat/STIM_003.jpg	100
675.237	0.729	729.4	repeat	Run1	repeat/STIM_003.jpg	99
679.713	0.931	931.2	repeat	Run1	repeat/STIM_003.jpg	100
683.57	0.94	939.7	repeat	Run1	repeat/STIM_003.jpg	99
688.009	0.877	877.4	repeat	Run1	repeat/STIM_003.jpg	100
692.776	0.704	703.5	repeat	Run1	repeat/STIM_004.jpg	99
697.369	0.554	554.1	repeat	Run1	repeat/STIM_004.jpg	100
701.544	0.689	688.6	repeat	Run1	repeat/STIM_004.jpg	99
704.651	0.59	589.8	repeat	Run1	repeat/STIM_004.jpg	100
708.386	0.809	808.9	repeat	Run1	repeat/STIM_004.jpg	99
712.636	0.842	842.4	repeat	Run1	repeat/STIM_005.jpg	99
716.594	0.906	905.8	repeat	Run1	repeat/STIM_005.jpg	100
719.579	0.899	898.9	repeat	Run1	repeat/STIM_005.jpg	99
723.56	0.495	494.7	repeat	Run1	repeat/STIM_005.jpg	100
726.297	0.921	921.4	repeat	Run1	repeat/STIM_005.jpg	99
730.79	0.523	522.7	repeat	Run1	repeat/STIM_006.jpg	100
734.075	0.954	954.1	repeat	Run1	repeat/STIM_006.jpg	99
738.102	0.754	754.4	repeat	Run1	repeat/STIM_006.jpg	100
741.469	0.678	677.9	repeat	Run1	repeat/STIM_006.jpg	99
745.224	0.624	624.1	repeat	Run1	repeat/STIM_006.jpg	99
747.947	0.628	628.3	repeat	Run1	repeat/STIM_007.jpg	99
752.508	0.843	843.2	repeat	Run1	repeat/STIM_007.jpg	100
755.563	0.754	753.8	repeat	Run1	repeat/STIM_007.jpg	100
758.73	0.772	771.8	repeat	Run1	repeat/STIM_007.jpg	99
762.291	0.837	837.0	repeat	Run1	repeat/STIM_007.jpg	100
766.989	0.505	505.3	repeat	Run1	repeat/STIM_008.jpg	99
771.454	0.577	576.8	repeat	Run1	repeat/STIM_008.jpg	99
775.493	0.876	875.6	repeat	Run1	repeat/STIM_008.jpg	99
780.304	0.917	917.2	repeat	Run1	repeat/STIM_008.jpg	100
784.841	0.602	602.3	repeat	Run1	repeat/STIM_008.jpg	99
787.536	0.718	718.3	repeat	Run1	repeat/STIM_009.jpg	100
791.063	0.484	484.0	repeat	Run1	repeat/STIM_009.jpg	99
795.202	0.544	544.0	repeat	Run1	repeat/STIM_009.jpg	99
797.831	0.879	879.1	repeat	Run1	repeat/STIM_009.jpg	99
802.173	0.669	668.9	repeat	Run1	repeat/STIM_009.jpg	99
805.309	0.88	880.0	repeat	Run1	repeat/STIM_010.jpg	99
808.446	0.835	834.8	repeat	Run1	repeat/STIM_010.jpg	100
812.54	0.636	636.5	repeat	Run1	repeat/STIM_010.jpg	99
816.796	0.56	559.8	repeat	Run1	repeat/STIM_010.jpg	100
820.133	0.559	559.3	repeat	Run1	repeat/STIM_010.jpg	100
822.991	0.718	717.5	repeat	Run1	repeat/STIM_011.jpg	99
826.022	0.925	924.6	repeat	Run1	repeat/STIM_011.jpg	100
830.269	0.558	558.0	repeat	Run1	repeat/STIM_011.jpg	99
833.887	0.564	563.6	repeat	Run1	repeat/STIM_011.jpg	99
838.439	0.916	915.5	repeat	Run1	repeat/STIM_011.jpg	100
842.858	0.849	848.6	repeat	Run1	repeat/STIM_012.jpg	99
846.446	0.623	623.0	repeat	Run1	repeat/STIM_012.jpg	99
850.339	0.709	709.0	repeat	Run1	repeat/STIM_012.jpg	100
853.432	0.837	837.0	repeat	Run1	repeat/STIM_012.jpg	99
856.367	0.743	743.4	repeat	Run1	repeat/STIM_012.jpg	100
860.99	0.851	851.4	repeat	Run1	repeat/STIM_013.jpg	99
864.254	0.901	900.7	repeat	Run1	repeat/STIM_013.jpg	99
868.547	0.544	544.0	repeat	Run1	repeat/STIM_013.jpg	99
872.392	0.908	907.8	repeat	Run1	repeat/STIM_013.jpg	99
875.887	0.914	913.6	repeat	Run1	repeat/STIM_013.jpg	99
880.814	0.95	950.3	repeat	Run1	repeat/STIM_014.jpg	100
884.824	0.576	575.5	repeat	Run1	repeat/STIM_014.jpg	100
887.957	0.868	868.5	repeat	Run1	repeat/STIM_014.jpg	99
892.155	0.953	952.6	repeat	Run1	repeat/STIM_014.jpg	99
896.433	0.937	936.8	repeat	Run1	repeat/STIM_014.jpg	100
900.234	2.206	2205.7	generate	Run2	generate/STIM_000.jpg	100
905.881	2.263	2262.9	generate	Run2	generate/STIM_000.jpg	100
911.725	1.622	1621.7	generate	Run2	generate/STIM_000.jpg	99
915.9	1.165	1165.2	generate	Run2	generate/STIM_000.jpg	100
921.08	0.827	827.3	generate	Run2	generate/STIM_000.jpg	99
925.436	1.318	1318.3	generate	Run2	generate/STIM_001.jpg	100
930.429	1.129	1129.4	generate	Run2	generate/STIM_001.jpg	100
935.199	1.377	1376.6	generate	Run2	generate/STIM_001.jpg	100
938.667	1.512	1511.6	generate	Run2	generate/STIM_001.jpg	99
943.455	1.738	1737.7	generate	Run2	generate/STIM_001.jpg	99
948.314	1.478	1477.7	generate	Run2	generate/STIM_002.jpg	99
953.585	1.364	1364.3	generate	Run2	generate/STIM_002.jpg	99
958.63	1.391	1391.0	generate	Run2	generate/STIM_002.jpg	100
963.626	1.311	1310.6	generate	Run2	generate/STIM_002.jpg	99
968.655	1.307	1306.8	generate	Run2	generate/STIM_002.jpg	99
973.086	1.288	1288.5	generate	Run2	generate/STIM_003.jpg	99
978.211	1.401	1401.4	generate	Run2	generate/STIM_003.jpg	100
982.085	1.87	1870.0	generate	Run2	generate/STIM_003.jpg	100
986.599	1.712	1711.5	generate	Run2	generate/STIM_003.jpg	100
991.116	1.592	1591.7	generate	Run2	generate/STIM_003.jpg	100
995.086	2.432	2432.2	generate	Run2	generate/STIM_004.jpg	100
1000.384	1.586	1585.6	generate	Run2	generate/STIM_004.jpg	100
1005.957	1.77	1769.7	generate	Run2	generate/STIM_004.jpg	99
1010.877	1.999	1999.2	generate	Run2	generate/STIM_004.jpg	100
1015.381	1.886	1885.7	generate	Run2	generate/STIM_004.jpg	99
1020.076	1.414	1413.9	generate	Run2	generate/STIM_005.jpg	100
1023.734	1.462	1462.3	generate	Run2	generate/STIM_005.jpg	100
1028.037	1.882	1882.5	generate	Run2	generate/STIM_005.jpg	99
1033.688	1.134	1134.0	generate	Run2	generate/STIM_005.jpg	100
1037.996	1.997	1996.9	generate	Run2	generate/STIM_005.jpg	100
1043.235	1.636	1635.9	generate	Run2	generate/STIM_006.jpg	100
1047.688	1.47	1469.8	generate	Run2	generate/STIM_006.jpg	100
1053.007	1.199	1199.2	generate	Run2	generate/STIM_006.jpg	100
1058.005	1.325	1324.7	generate	Run2	generate/STIM_006.jpg	99
1063.269	1.638	1638.0	generate	Run2	generate/STIM_006.jpg	99
1067.793	2.102	2101.8	generate	Run2	generate/STIM_007.jpg	100
1073.207	1.277	1277.2	generate	Run2	generate/STIM_007.jpg	99
1076.667	1.304	1303.9	generate	Run2	generate/STIM_007.jpg	99
1080.131	0.896	896.1	generate	Run2	generate/STIM_007.jpg	99
1084.731	1.788	1787.6	generate	Run2	generate/STIM_007.jpg	100
1089.204	2.204	2203.8	generate	Run2	generate/STIM_008.jpg	99
1094.442	1.372	1371.7	generate	Run2	generate/STIM_008.jpg	99
1098.951	1.519	1519.4	generate	Run2	generate/STIM_008.jpg	99
1103.38	1.411	1410.9	generate	Run2	generate/STIM_008.jpg	99
1108.082	0.875	875.3	generate	Run2	generate/STIM_008.jpg	100
1111.043	1.846	1845.6	generate	Run2	generate/STIM_009.jpg	99
1116.608	2.261	2260.8	generate	Run2	generate/STIM_009.jpg	100
1122.615	0.932	931.8	generate	Run2	generate/STIM_009.jpg	100
1127.167	1.452	1452.0	generate	Run2	generate/STIM_009.jpg	99
1130.88	1.46	1460.3	generate	Run2	generate/STIM_009.jpg	99
1135.073	2.136	2136.3	generate	Run2	generate/STIM_010.jpg	99
1140.16	2.295	2294.7	generate	Run2	generate/STIM_010.jpg	100
1146.238	1.633	1632.8	generate	Run2	generate/STIM_010.jpg	100
1151.551	1.282	1282.1	generate	Run2	generate/STIM_010.jpg	100
1156.632	1.44	1440.3	generate	Run2	generate/STIM_010.jpg	100
1160.57	2.185	2185.2	generate	Run2	generate/STIM_011.jpg	99
1165.455	1.304	1304.2	generate	Run2	generate/STIM_011.jpg	99
1169.287	1.169	1168.9	generate	Run2	generate/STIM_011.jpg	100
1174.245	1.339	1338.7	generate	Run2	generate/STIM_011.jpg	99
1178.859	1.665	1665.1	generate	Run2	generate/STIM_011.jpg	100
1183.551	2.073	2073.3	generate	Run2	generate/STIM_012.jpg	100
1188.775	2.074	2074.1	generate	Run2	generate/STIM_012.jpg	99
1193.108	1.523	1522.9	generate	Run2	generate/STIM_012.jpg	99
1198.674	1.925	1925.0	generate	Run2	generate/STIM_012.jpg	100
1203.781	1.563	1563.3	generate	Run2	generate/STIM_012.jpg	100
1208.832	1.452	1451.6	generate	Run2	generate/STIM_013.jpg	99
1212.961	0.985	984.6	generate	Run2	generate/STIM_013.jpg	100
1216.0	1.329	1329.1	generate	Run2	generate/STIM_013.jpg	99
1219.71	1.982	1982.0	generate	Run2	generate/STIM_013.jpg	99
1224.508	1.936	1935.6	generate	Run2	generate/STIM_013.jpg	99
1229.046	1.269	1269.2	generate	Run2	generate/STIM_014.jpg	99
1234.193	1.678	1677.8	generate	Run2	generate/STIM_014.jpg	99
1238.919	2.094	2093.9	generate	Run2	generate/STIM_014.jpg	99
1243.185	1.091	1090.9	generate	Run2	generate/STIM_014.jpg	100
1247.298	1.879	1878.6	generate	Run2	generate/STIM_014.jpg	100
1253.133	2.374	2374.0	generate	Run2	generate/STIM_015.jpg	99
1257.957	1.799	1798.8	generate	Run2	generate/STIM_015.jpg	100
1262.954	1.633	1632.7	generate	Run2	generate/STIM_015.jpg	100
1268.441	1.084	1084.3	generate	Run2	generate/STIM_015.jpg	99
1272.94	1.616	1616.1	generate	Run2	generate/STIM_015.jpg	99
1278.17	1.784	1784.3	generate	Run2	generate/STIM_016.jpg	99
1282.416	1.785	1785.4	generate	Run2	generate/STIM_016.jpg	100
1287.571	1.752	1751.8	generate	Run2	generate/STIM_016.jpg	100
1292.215	1.188	1188.0	generate	Run2	generate/STIM_016.jpg	100
1296.796	1.478	1477.7	generate	Run2	generate/STIM_016.jpg	99
1301.802	1.658	1658.0	generate	Run2	generate/STIM_017.jpg	100
1306.903	1.952	1951.5	generate	Run2	generate/STIM_017.jpg	100
1311.759	1.48	1480.3	generate	Run2	generate/STIM_017.jpg	99
1315.445	1.113	1113.1	generate	Run2	generate/STIM_017.jpg	100
1319.299	1.365	1365.4	generate	Run2	generate/STIM_017.jpg	99
1324.226	1.037	1036.6	generate	Run2	generate/STIM_018.jpg	99
1328.31	2.199	2198.7	generate	Run2	generate/STIM_018.jpg	99
1334.419	1.207	1206.6	generate	Run2	generate/STIM_018.jpg	100
1339.018	1.813	1813.3	generate	Run2	generate/STIM_018.jpg	99
1344.253	1.603	1603.3	generate	Run2	generate/STIM_018.jpg	99
1349.557	1.35	1349.6	generate	Run2	generate/STIM_019.jpg	99
1354.141	1.119	1119.3	generate	Run2	generate/STIM_019.jpg	99
1357.351	1.674	1674.1	generate	Run2	generate/STIM_019.jpg	100
1362.647	1.923	1922.6	generate	Run2	generate/STIM_019.jpg	99
1367.372	1.249	1248.8	generate	Run2	generate/STIM_019.jpg	100
1371.929	1.787	1786.6	generate	Run2	generate/STIM_020.jpg	100
1377.373	1.815	1815.4	generate	Run2	generate/STIM_020.jpg	99
1382.112	1.886	1885.5	generate	Run2	generate/STIM_020.jpg	99
1386.782	1.354	1354.5	generate	Run2	generate/STIM_020.jpg	100
1391.95	1.857	1857.0	generate	Run2	generate/STIM_020.jpg	100
1396.427	2.216	2215.9	generate	Run2	generate/STIM_021.jpg	100
1401.207	2.001	2001.2	generate	Run2	generate/STIM_021.jpg	99
1406.761	1.141	1140.8	generate	Run2	generate/STIM_021.jpg	99
1411.526	1.796	1795.6	generate	Run2	generate/STIM_021.jpg	100
1416.949	0.857	857.4	generate	Run2	generate/STIM_021.jpg	100
1420.903	1.48	1480.1	generate	Run2	generate/STIM_022.jpg	99
1425.326	0.951	950.7	generate	Run2	generate/STIM_022.jpg	99
1428.833	1.739	1738.7	generate	Run2	generate/STIM_022.jpg	99
1433.481	0.911	911.1	generate	Run2	generate/STIM_022.jpg	100
1437.615	1.511	1510.7	generate	Run2	generate/STIM_022.jpg	99
1441.644	1.698	1697.6	generate	Run2	generate/STIM_023.jpg	99
1446.452	1.959	1959.4	generate	Run2	generate/STIM_023.jpg	100
1450.973	2.01	2009.9	generate	Run2	generate/STIM_023.jpg	99
1456.222	1.327	1327.2	generate	Run2	generate/STIM_023.jpg	100
1460.39	1.919	1918.6	generate	Run2	generate/STIM_023.jpg	99
1465.777	1.213	1212.6	generate	Run2	generate/STIM_024.jpg	99
1470.601	1.158	1158.5	generate	Run2	generate/STIM_024.jpg	99
1474.134	1.565	1564.6	generate	Run2	generate/STIM_024.jpg	100
1479.752	1.261	1260.6	generate	Run2	generate/STIM_024.jpg	99
1484.885	1.398	1397.5	generate	Run2	generate/STIM_024.jpg	99
1489.398	0.914	913.6	repeat	Run2	repeat/STIM_000.jpg	100
1492.724	0.553	553.3	repeat	Run2	repeat/STIM_000.jpg	99
1496.618	0.919	919.0	repeat	Run2	repeat/STIM_000.jpg	99
1500.033	0.578	577.9	repeat	Run2	repeat/STIM_000.jpg	100
1503.419	0.878	877.6	repeat	Run2	repeat/STIM_000.jpg	100
1507.459	0.824	823.9	repeat	Run2	repeat/STIM_001.jpg	99
1511.202	0.513	513.1	repeat	Run2	repeat/STIM_001.jpg	99
1515.182	0.716	716.3	repeat	Run2	repeat/STIM_001.jpg	99
1519.81	0.744	743.7	repeat	Run2	repeat/STIM_001.jpg	99
1523.013	0.737	737.1	repeat	Run2	repeat/STIM_001.jpg	99
1526.078	0.898	897.8	repeat	Run2	repeat/STIM_002.jpg	99
1530.267	0.673	672.8	repeat	Run2	repeat/STIM_002.jpg	99
1533.333	0.828	827.6	repeat	Run2	repeat/STIM_002.jpg	100
1536.429	0.856	855.8	repeat	Run2	repeat/STIM_002.jpg	100
1540.973	0.523	522.6	repeat	Run2	repeat/STIM_002.jpg	100
1544.853	0.827	826.7	repeat	Run2	repeat/STIM_003.jpg	100
1548.72	0.543	543.3	repeat	Run2	repeat/STIM_003.jpg	100
1552.043	0.904	904.4	repeat	Run2	repeat/STIM_003.jpg	100
1555.912	0.899	899.3	repeat	Run2	repeat/STIM_003.jpg	99
1560.131	0.675	674.8	repeat	Run2	repeat/STIM_003.jpg	99
1564.541	0.869	869.4	repeat	Run2	repeat/STIM_004.jpg	100
1568.445	0.504	504.5	repeat	Run2	repeat/STIM_004.jpg	100
1571.752	0.532	531.7	repeat	Run2	repeat/STIM_004.jpg	99
1575.12	0.768	768.2	repeat	Run2	repeat/STIM_004.jpg	99
1579.615	0.488	487.5	repeat	Run2	repeat/STIM_004.jpg	99
1583.111	0.651	650.9	repeat	Run2	repeat/STIM_005.jpg	99
1585.981	0.692	691.8	repeat	Run2	repeat/STIM_005.jpg	99
1589.073	0.718	718.4	repeat	Run2	repeat/STIM_005.jpg	99
1593.468	0.94	940.2	repeat	Run2	repeat/STIM_005.jpg	99
1597.767	0.794	794.1	repeat	Run2	repeat/STIM_005.jpg	100
1601.298	0.571	571.4	repeat	Run2	repeat/STIM_006.jpg	100
1605.035	0.623	622.7	repeat	Run2	repeat/STIM_006.jpg	99
1609.413	0.58	580.4	repeat	Run2	repeat/STIM_006.jpg	99
1612.182	0.528	527.5	repeat	Run2	repeat/STIM_006.jpg	100
1615.051	0.764	764.0	repeat	Run2	repeat/STIM_006.jpg	99
1618.094	0.537	536.8	repeat	Run2	repeat/STIM_007.jpg	100
1622.263	0.682	682.1	repeat	Run2	repeat/STIM_007.jpg	100
1625.649	0.588	588.0	repeat	Run2	repeat/STIM_007.jpg	99
1629.945	0.592	591.5	repeat	Run2	repeat/STIM_007.jpg	100
1632.854	0.613	612.7	repeat	Run2	repeat/STIM_007.jpg	99
1635.629	0.856	856.3	repeat	Run2	repeat/STIM_008.jpg	99
1640.174	0.544	544.1	repeat	Run2	repeat/STIM_008.jpg	100
1642.94	0.806	805.5	repeat	Run2	repeat/STIM_008.jpg	100
1647.046	0.689	688.7	repeat	Run2	repeat/STIM_008.jpg	100
1650.151	0.482	481.9	repeat	Run2	repeat/STIM_008.jpg	100
1653.239	0.722	721.9	repeat	Run2	repeat/STIM_009.jpg	100
1657.056	0.57	570.1	repeat	Run2	repeat/STIM_009.jpg	99
1660.986	0.814	813.9	repeat	Run2	repeat/STIM_009.jpg	99
1663.86	0.566	566.4	repeat	Run2	repeat/STIM_009.jpg	100
1666.621	0.585	584.7	repeat	Run2	repeat/STIM_009.jpg	100
1670.661	0.538	538.0	repeat	Run2	repeat/STIM_010.jpg	100
1673.841	0.844	844.1	repeat	Run2	repeat/STIM_010.jpg	100
1676.733	0.53	530.4	repeat	Run2	repeat/STIM_010.jpg	99
1680.617	0.715	714.9	repeat	Run2	repeat/STIM_010.jpg	99
1683.745	0.66	659.6	repeat	Run2	repeat/STIM_010.jpg	99
1686.808	0.536	535.7	repeat	Run2	repeat/STIM_011.jpg	100
1690.009	0.607	607.3	repeat	Run2	repeat/STIM_011.jpg	100
1693.288	0.58	580.5	repeat	Run2	repeat/STIM_011.jpg	100
1696.343	0.602	601.9	repeat	Run2	repeat/STIM_011.jpg	100
1700.367	0.848	848.3	repeat	Run2	repeat/STIM_011.jpg	100
1703.3	0.875	874.8	repeat	Run2	repeat/STIM_012.jpg	99
1707.541	0.631	631.2	repeat	Run2	repeat/STIM_012.jpg	100
1711.778	0.632	632.2	repeat	Run2	repeat/STIM_012.jpg	100
1715.503	0.553	553.2	repeat	Run2	repeat/STIM_012.jpg	100
1718.193	0.78	779.8	repeat	Run2	repeat/STIM_012.jpg	100
1722.924	0.731	731.3	repeat	Run2	repeat/STIM_013.jpg	99
1725.702	0.882	882.1	repeat	Run2	repeat/STIM_013.jpg	99
1730.542	0.778	777.9	repeat	Run2	repeat/STIM_013.jpg	100
1734.182	0.672	671.8	repeat	Run2	repeat/STIM_013.jpg	100
1738.098	0.909	909.3	repeat	Run2	repeat/STIM_013.jpg	100
1741.357	0.64	640.2	repeat	Run2	repeat/STIM_014.jpg	99
1744.116	0.943	943.2	repeat	Run2	repeat/STIM_014.jpg	99
1748.308	0.911	911.3	repeat	Run2	repeat/STIM_014.jpg	100
1751.904	0.837	836.8	repeat	Run2	repeat/STIM_014.jpg	100
1756.181	0.799	798.9	repeat	Run2	repeat/STIM_014.jpg	99
1759.059	1.122	1122.5	generate	Run3	generate/STIM_000.jpg	99
1763.604	1.822	1822.5	generate	Run3	generate/STIM_000.jpg	100
1768.3	1.127	1127.3	generate	Run3	generate/STIM_000.jpg	100
1772.715	1.305	1305.4	generate	Run3	generate/STIM_000.jpg	100
1776.894	1.697	1697.3	generate	Run3	generate/STIM_000.jpg	99
1781.058	1.58	1579.6	generate	Run3	generate/STIM_001.jpg	99
1784.843	1.608	1608.5	generate	Run3	generate/STIM_001.jpg	100
1789.598	0.956	956.2	generate	Run3	generate/STIM_001.jpg	99
1793.279	1.511	1511.4	generate	Run3	generate/STIM_001.jpg	100
1797.351	1.921	1920.6	generate	Run3	generate/STIM_001.jpg	100
1802.828	1.452	1452.2	generate	Run3	generate/STIM_002.jpg	99
1807.188	1.601	1600.6	generate	Run3	generate/STIM_002.jpg	99
1811.55	1.155	1154.9	generate	Run3	generate/STIM_002.jpg	100
1816.564	1.03	1030.1	generate	Run3	generate/STIM_002.jpg	100
1820.395	0.878	878.2	generate	Run3	generate/STIM_002.jpg	99
1824.765	1.434	1434.2	generate	Run3	generate/STIM_003.jpg	100
1828.52	0.977	977.0	generate	Run3	generate/STIM_003.jpg	99
1831.919	1.826	1825.9	generate	Run3	generate/STIM_003.jpg	99
1837.218	1.694	1694.2	generate	Run3	generate/STIM_003.jpg	99
1841.311	1.557	1556.9	generate	Run3	generate/STIM_003.jpg	100
1844.979	1.58	1579.7	generate	Run3	generate/STIM_004.jpg	100
1848.902	0.819	818.7	generate	Run3	generate/STIM_004.jpg	100
1853.687	1.807	1807.3	generate	Run3	generate/STIM_004.jpg	100
1859.366	1.289	1289.3	generate	Run3	generate/STIM_004.jpg	99
1863.713	0.971	970.6	generate	Run3	generate/STIM_004.jpg	100
1866.794	1.013	1013.1	generate	Run3	generate/STIM_005.jpg	99
1870.637	1.393	1393.2	generate	Run3	generate/STIM_005.jpg	99
1875.046	1.787	1786.6	generate	Run3	generate/STIM_005.jpg	99
1880.68	1.903	1903.2	generate	Run3	generate/STIM_005.jpg	100
1885.747	1.931	1930.9	generate	Run3	generate/STIM_005.jpg	100
1890.3	0.936	936.2	generate	Run3	generate/STIM_006.jpg	99
1895.227	1.293	1293.0	generate	Run3	generate/STIM_006.jpg	99
1900.167	1.2	1199.7	generate	Run3	generate/STIM_006.jpg	99
1903.779	1.495	1495.3	generate	Run3	generate/STIM_006.jpg	99
1908.542	0.958	958.0	generate	Run3	generate/STIM_006.jpg	99
1913.162	1.193	1193.0	generate	Run3	generate/STIM_007.jpg	99
1917.845	1.152	1151.8	generate	Run3	generate/STIM_007.jpg	99
1922.591	1.752	1752.0	generate	Run3	generate/STIM_007.jpg	99
1927.318	0.916	916.1	generate	Run3	generate/STIM_007.jpg	100
1931.824	1.962	1962.5	generate	Run3	generate/STIM_007.jpg	99
1936.181	0.897	896.6	generate	Run3	generate/STIM_008.jpg	99
1940.0	0.853	852.7	generate	Run3	generate/STIM_008.jpg	100
1943.109	0.94	939.8	generate	Run3	generate/STIM_008.jpg	100
1947.063	1.724	1723.7	generate	Run3	generate/STIM_008.jpg	100
1951.698	0.93	930.4	generate	Run3	generate/STIM_008.jpg	100
1955.708	1.048	1047.5	generate	Run3	generate/STIM_009.jpg	99
1960.554	1.008	1007.9	generate	Run3	generate/STIM_009.jpg	100
1964.899	1.984	1984.1	generate	Run3	generate/STIM_009.jpg	100
1969.83	1.112	1112.5	generate	Run3	generate/STIM_009.jpg	100
1974.99	1.78	1780.0	generate	Run3	generate/STIM_009.jpg	99
1980.725	0.89	890.3	generate	Run3	generate/STIM_010.jpg	100
1984.661	1.312	1311.7	generate	Run3	generate/STIM_010.jpg	100
1989.639	1.114	1114.5	generate	Run3	generate/STIM_010.jpg	99
1993.231	2.005	2005.3	generate	Run3	generate/STIM_010.jpg	99
1999.195	0.903	903.1	generate	Run3	generate/STIM_010.jpg	99
2004.043	1.043	1043.2	generate	Run3	generate/STIM_011.jpg	99
2008.601	1.147	1146.9	generate	Run3	generate/STIM_011.jpg	99
2012.014	1.238	1237.5	generate	Run3	generate/STIM_011.jpg	100
2016.204	1.661	1660.6	generate	Run3	generate/STIM_011.jpg	100
2019.945	1.599	1599.1	generate	Run3	generate/STIM_011.jpg	100
2024.343	1.945	1945.3	generate	Run3	generate/STIM_012.jpg	99
2029.958	1.188	1188.2	generate	Run3	generate/STIM_012.jpg	99
2034.326	1.46	1459.5	generate	Run3	generate/STIM_012.jpg	99
2038.685	1.698	1698.0	generate	Run3	generate/STIM_012.jpg	100
2043.989	1.788	1787.8	generate	Run3	generate/STIM_012.jpg	99
2049.228	1.358	1357.7	generate	Run3	generate/STIM_013.jpg	100
2053.899	1.925	1924.8	generate	Run3	generate/STIM_013.jpg	100
2059.647	1.487	1487.3	generate	Run3	generate/STIM_013.jpg	100
2063.496	1.108	1108.2	generate	Run3	generate/STIM_013.jpg	99
2067.91	1.054	1054.5	generate	Run3	generate/STIM_013.jpg	100
2071.018	1.422	1421.7	generate	Run3	generate/STIM_014.jpg	99
2075.191	1.221	1221.0	generate	Run3	generate/STIM_014.jpg	99
2079.584	1.929	1929.0	generate	Run3	generate/STIM_014.jpg	100
2084.124	1.557	1557.3	generate	Run3	generate/STIM_014.jpg	99
2089.685	1.07	1070.2	generate	Run3	generate/STIM_014.jpg	99
2093.547	0.834	834.2	generate	Run3	generate/STIM_015.jpg	99
2097.574	1.731	1731.0	generate	Run3	generate/STIM_015.jpg	99
2102.534	1.2	1200.5	generate	Run3	generate/STIM_015.jpg	100
2106.538	1.388	1387.7	generate	Run3	generate/STIM_015.jpg	99
2110.285	1.186	1186.4	generate	Run3	generate/STIM_015.jpg	99
2115.289	1.443	1442.9	generate	Run3	generate/STIM_016.jpg	100
2120.457	1.808	1807.8	generate	Run3	generate/STIM_016.jpg	100
2124.776	1.396	1395.9	generate	Run3	generate/STIM_016.jpg	99
2129.589	1.285	1285.0	generate	Run3	generate/STIM_016.jpg	100
2134.691	1.613	1612.7	generate	Run3	generate/STIM_016.jpg	99
2138.568	0.838	837.5	generate	Run3	generate/STIM_017.jpg	99
2143.431	1.808	1807.8	generate	Run3	generate/STIM_017.jpg	100
2147.797	1.566	1565.6	generate	Run3	generate/STIM_017.jpg	100
2151.553	1.41	1409.8	generate	Run3	generate/STIM_017.jpg	99
2156.149	0.885	885.4	generate	Run3	generate/STIM_017.jpg	99
2160.489	1.426	1426.5	generate	Run3	generate/STIM_018.jpg	99
2164.162	1.631	1630.9	generate	Run3	generate/STIM_018.jpg	100
2168.191	1.947	1947.4	generate	Run3	generate/STIM_018.jpg	99
2172.855	1.393	1392.7	generate	Run3	generate/STIM_018.jpg	100
2176.533	0.885	885.2	generate	Run3	generate/STIM_018.jpg	100
2180.207	1.6	1600.0	generate	Run3	generate/STIM_019.jpg	99
2184.472	1.346	1346.3	generate	Run3	generate/STIM_019.jpg	99
2188.434	1.873	1873.3	generate	Run3	generate/STIM_019.jpg	100
2193.621	0.892	892.2	generate	Run3	generate/STIM_019.jpg	99
2197.72	0.99	989.5	generate	Run3	generate/STIM_019.jpg	100
2201.519	1.423	1423.4	generate	Run3	generate/STIM_020.jpg	99
2206.34	1.979	1978.9	generate	Run3	generate/STIM_020.jpg	100
2211.274	1.552	1551.6	generate	Run3	generate/STIM_020.jpg	100
2216.701	0.823	823.1	generate	Run3	generate/STIM_020.jpg	100
2219.739	1.35	1349.6	generate	Run3	generate/STIM_020.jpg	99
2225.068	0.831	831.4	generate	Run3	generate/STIM_021.jpg	100
2229.294	1.066	1065.9	generate	Run3	generate/STIM_021.jpg	99
2234.283	1.147	1146.9	generate	Run3	generate/STIM_021.jpg	100
2239.351	1.826	1826.3	generate	Run3	generate/STIM_021.jpg	100
2244.111	1.361	1360.6	generate	Run3	generate/STIM_021.jpg	100
2247.568	1.645	1645.2	generate	Run3	generate/STIM_022.jpg	100
2252.341	0.985	985.2	generate	Run3	generate/STIM_022.jpg	100
2256.074	1.47	1469.8	generate	Run3	generate/STIM_022.jpg	100
2261.338	1.883	1883.0	generate	Run3	generate/STIM_022.jpg	99
2266.551	1.781	1780.8	generate	Run3	generate/STIM_022.jpg	100
2271.921	1.643	1643.2	generate	Run3	generate/STIM_023.jpg	99
2276.105	1.503	1502.9	generate	Run3	generate/STIM_023.jpg	100
2279.873	1.412	1412.4	generate	Run3	generate/STIM_023.jpg	99
2285.124	1.467	1467.0	generate	Run3	generate/STIM_023.jpg	100
2289.756	0.956	955.7	generate	Run3	generate/STIM_023.jpg	100
2293.865	1.324	1324.0	generate	Run3	generate/STIM_024.jpg	100
2299.101	1.935	1934.7	generate	Run3	generate/STIM_024.jpg	99
2304.175	1.804	1803.6	generate	Run3	generate/STIM_024.jpg	100
2309.687	1.867	1866.8	generate	Run3	generate/STIM_024.jpg	100
2315.391	1.992	1992.5	generate	Run3	generate/STIM_024.jpg	99
2321.032	0.597	596.9	repeat	Run3	repeat/STIM_000.jpg	99
2325.524	0.683	683.3	repeat	Run3	repeat/STIM_000.jpg	99
2328.93	0.787	786.6	repeat	Run3	repeat/STIM_000.jpg	100
2332.986	0.795	794.8	repeat	Run3	repeat/STIM_000.jpg	99
2337.493	0.546	546.0	repeat	Run3	repeat/STIM_000.jpg	100
2340.266	0.617	616.8	repeat	Run3	repeat/STIM_001.jpg	100
2344.597	0.681	681.1	repeat	Run3	repeat/STIM_001.jpg	100
2348.523	0.65	650.2	repeat	Run3	repeat/STIM_001.jpg	100
2352.987	0.748	747.6	repeat	Run3	repeat/STIM_001.jpg	99
2357.602	0.522	521.9	repeat	Run3	repeat/STIM_001.jpg	99
2360.885	0.812	811.7	repeat	Run3	repeat/STIM_002.jpg	99
2364.627	0.681	681.3	repeat	Run3	repeat/STIM_002.jpg	100
2368.339	0.8	800.4	repeat	Run3	repeat/STIM_002.jpg	100
2372.563	0.728	728.5	repeat	Run3	repeat/STIM_002.jpg	100
2376.438	0.499	498.9	repeat	Run3	repeat/STIM_002.jpg	100
2380.745	0.824	824.3	repeat	Run3	repeat/STIM_003.jpg	100
2384.62	0.726	726.1	repeat	Run3	repeat/STIM_003.jpg	99
2387.505	0.656	655.9	repeat	Run3	repeat/STIM_003.jpg	99
2391.058	0.869	869.0	repeat	Run3	repeat/STIM_003.jpg	99
2394.007	0.895	895.3	repeat	Run3	repeat/STIM_003.jpg	99
2397.976	0.819	818.6	repeat	Run3	repeat/STIM_004.jpg	100
2401.506	0.79	790.1	repeat	Run3	repeat/STIM_004.jpg	100
2404.46	0.921	920.8	repeat	Run3	repeat/STIM_004.jpg	100
2409.357	0.738	738.0	repeat	Run3	repeat/STIM_004.jpg	100
2414.116	0.547	546.7	repeat	Run3	repeat/STIM_004.jpg	100
2418.579	0.788	787.7	repeat	Run3	repeat/STIM_005.jpg	99
2421.66	0.602	601.6	repeat	Run3	repeat/STIM_005.jpg	99
2426.221	0.55	550.2	repeat	Run3	repeat/STIM_005.jpg	100
2430.509	0.527	527.1	repeat	Run3	repeat/STIM_005.jpg	99
2434.705	0.634	633.9	repeat	Run3	repeat/STIM_005.jpg	99
2438.242	0.785	784.7	repeat	Run3	repeat/STIM_006.jpg	100
2441.768	0.5	500.4	repeat	Run3	repeat/STIM_006.jpg	99
2444.348	0.747	746.9	repeat	Run3	repeat/STIM_006.jpg	100
2448.228	0.897	896.7	repeat	Run3	repeat/STIM_006.jpg	100
2452.32	0.811	811.0	repeat	Run3	repeat/STIM_006.jpg	100
2455.593	0.56	560.5	repeat	Run3	repeat/STIM_007.jpg	100
2459.531	0.596	596.0	repeat	Run3	repeat/STIM_007.jpg	100
2463.179	0.791	791.1	repeat	Run3	repeat/STIM_007.jpg	99
2466.377	0.874	874.0	repeat	Run3	repeat/STIM_007.jpg	99
2469.912	0.61	609.7	repeat	Run3	repeat/STIM_007.jpg	99
2473.641	0.756	756.1	repeat	Run3	repeat/STIM_008.jpg	100
2478.055	0.546	546.1	repeat	Run3	repeat/STIM_008.jpg	99
2482.161	0.608	608.4	repeat	Run3	repeat/STIM_008.jpg	99
2485.122	0.753	753.3	repeat	Run3	repeat/STIM_008.jpg	100
2488.384	0.908	907.7	repeat	Run3	repeat/STIM_008.jpg	100
2493.297	0.539	538.9	repeat	Run3	repeat/STIM_009.jpg	100
2497.785	0.896	896.1	repeat	Run3	repeat/STIM_009.jpg	100
2502.094	0.946	946.0	repeat	Run3	repeat/STIM_009.jpg	100
2506.892	0.838	838.0	repeat	Run3	repeat/STIM_009.jpg	100
2511.762	0.67	670.0	repeat	Run3	repeat/STIM_009.jpg	99
2516.179	0.559	559.4	repeat	Run3	repeat/STIM_010.jpg	99
2519.771	0.608	607.6	repeat	Run3	repeat/STIM_010.jpg	99
2522.592	0.519	519.4	repeat	Run3	repeat/STIM_010.jpg	100
2525.814	0.595	595.3	repeat	Run3	repeat/STIM_010.jpg	100
2530.319	0.784	783.9	repeat	Run3	repeat/STIM_010.jpg	99
2533.326	0.748	748.2	repeat	Run3	repeat/STIM_011.jpg	99
2537.061	0.678	677.8	repeat	Run3	repeat/STIM_011.jpg	99
2541.362	0.954	953.9	repeat	Run3	repeat/STIM_011.jpg	99
2544.996	0.576	575.6	repeat	Run3	repeat/STIM_011.jpg	100
2549.281	0.773	773.2	repeat	Run3	repeat/STIM_011.jpg	100
2552.968	0.661	661.2	repeat	Run3	repeat/STIM_012.jpg	100
2555.799	0.867	866.9	repeat	Run3	repeat/STIM_012.jpg	100
2559.203	0.668	667.8	repeat	Run3	repeat/STIM_012.jpg	100
2562.812	0.932	932.3	repeat	Run3	repeat/STIM_012.jpg	99
2566.456	0.585	584.8	repeat	Run3	repeat/STIM_012.jpg	100
2569.524	0.897	896.9	repeat	Run3	repeat/STIM_013.jpg	99
2574.298	0.955	955.1	repeat	Run3	repeat/STIM_013.jpg	100
2578.937	0.833	833.3	repeat	Run3	repeat/STIM_013.jpg	100
2582.941	0.925	924.9	repeat	Run3	repeat/STIM_013.jpg	99
2586.014	0.728	728.0	repeat	Run3	repeat/STIM_013.jpg	100
2590.321	0.776	776.4	repeat	Run3	repeat/STIM_014.jpg	100
2594.808	0.81	809.5	repeat	Run3	repeat/STIM_014.jpg	100
2598.252	0.845	844.7	repeat	Run3	repeat/STIM_014.jpg	99
2601.137	0.529	528.8	repeat	Run3	repeat/STIM_014.jpg	100
2604.993	0.714	714.2	repeat	Run3	repeat/STIM_014.jpg	100
2608.348	1.524	1524.2	generate	Run4	generate/STIM_000.jpg	100
2613.352	1.793	1792.6	generate	Run4	generate/STIM_000.jpg	99
2618.626	1.925	1925.4	generate	Run4	generate/STIM_000.jpg	99
2624.611	0.977	977.3	generate	Run4	generate/STIM_000.jpg	99
2627.658	0.981	981.1	generate	Run4	generate/STIM_000.jpg	100
2631.528	1.165	1165.2	generate	Run4	generate/STIM_001.jpg	100
2636.366	1.557	1557.0	generate	Run4	generate/STIM_001.jpg	100
2640.79	1.468	1467.8	generate	Run4	generate/STIM_001.jpg	100
2645.501	1.861	1860.6	generate	Run4	generate/STIM_001.jpg	100
2650.695	1.399	1399.4	generate	Run4	generate/STIM_001.jpg	100
2654.494	0.829	828.6	generate	Run4	generate/STIM_002.jpg	99
2657.419	1.922	1922.3	generate	Run4	generate/STIM_002.jpg	99
2663.011	1.749	1748.7	generate	Run4	generate/STIM_002.jpg	99
2667.023	1.66	1660.1	generate	Run4	generate/STIM_002.jpg	100
2671.226	1.312	1311.8	generate	Run4	generate/STIM_002.jpg	99
2676.039	1.313	1313.3	generate	Run4	generate/STIM_003.jpg	100
2680.204	0.822	822.3	generate	Run4	generate/STIM_003.jpg	99
2684.069	1.842	1842.5	generate	Run4	generate/STIM_003.jpg	99
2688.574	0.899	899.2	generate	Run4	generate/STIM_003.jpg	99
2692.428	1.444	1444.1	generate	Run4	generate/STIM_003.jpg	99
2696.277	1.192	1192.1	generate	Run4	generate/STIM_004.jpg	99
2700.817	1.07	1070.2	generate	Run4	generate/STIM_004.jpg	99
2704.208	1.715	1715.1	generate	Run4	generate/STIM_004.jpg	99
2708.912	1.459	1458.8	generate	Run4	generate/STIM_004.jpg	100
2712.745	1.606	1605.5	generate	Run4	generate/STIM_004.jpg	99
2718.159	1.933	1932.8	generate	Run4	generate/STIM_005.jpg	100
2723.779	1.722	1722.2	generate	Run4	generate/STIM_005.jpg	99
2728.529	1.489	1489.2	generate	Run4	generate/STIM_005.jpg	99
2732.138	1.763	1762.6	generate	Run4	generate/STIM_005.jpg	100
2737.279	0.969	969.3	generate	Run4	generate/STIM_005.jpg	99
2741.35	1.425	1425.4	generate	Run4	generate/STIM_006.jpg	100
2745.702	1.928	1927.5	generate	Run4	generate/STIM_006.jpg	99
2751.431	1.747	1746.9	generate	Run4	generate/STIM_006.jpg	99
2756.49	0.903	903.3	generate	Run4	generate/STIM_006.jpg	100
2761.094	1.322	1321.8	generate	Run4	generate/STIM_006.jpg	100
2765.766	1.967	1966.7	generate	Run4	generate/STIM_007.jpg	99
2770.75	0.934	933.8	generate	Run4	generate/STIM_007.jpg	99
2773.846	1.998	1997.9	generate	Run4	generate/STIM_007.jpg	99
2778.753	0.905	904.6	generate	Run4	generate/STIM_007.jpg	100
2783.302	0.855	855.1	generate	Run4	generate/STIM_007.jpg	100
2786.8	0.846	845.9	generate	Run4	generate/STIM_008.jpg	100
2790.506	1.62	1620.0	generate	Run4	generate/STIM_008.jpg	100
2795.146	1.204	1204.3	generate	Run4	generate/STIM_008.jpg	99
2799.293	1.976	1975.9	generate	Run4	generate/STIM_008.jpg	99
2805.026	1.181	1181.1	generate	Run4	generate/STIM_008.jpg	99
2809.69	1.839	1838.7	generate	Run4	generate/STIM_009.jpg	99
2813.818	2.007	2007.2	generate	Run4	generate/STIM_009.jpg	99
2818.638	1.345	1345.0	generate	Run4	generate/STIM_009.jpg	99
2822.754	1.479	1479.3	generate	Run4	generate/STIM_009.jpg	99
2826.687	1.336	1336.4	generate	Run4	generate/STIM_009.jpg	99
2831.253	1.678	1678.2	generate	Run4	generate/STIM_010.jpg	100
2835.71	1.508	1507.6	generate	Run4	generate/STIM_010.jpg	100
2839.314	1.315	1315.1	generate	Run4	generate/STIM_010.jpg	100
2842.778	1.075	1075.0	generate	Run4	generate/STIM_010.jpg	100
2846.185	1.133	1133.3	generate	Run4	generate/STIM_010.jpg	100
2851.221	1.822	1822.2	generate	Run4	generate/STIM_011.jpg	99
2855.143	1.175	1174.8	generate	Run4	generate/STIM_011.jpg	99
2859.911	1.162	1161.6	generate	Run4	generate/STIM_011.jpg	100
2863.324	1.894	1893.6	generate	Run4	generate/STIM_011.jpg	99
2868.226	1.622	1621.6	generate	Run4	generate/STIM_011.jpg	99
2873.814	1.313	1313.0	generate	Run4	generate/STIM_012.jpg	100
2878.128	1.123	1123.1	generate	Run4	generate/STIM_012.jpg	100
2881.715	0.939	938.9	generate	Run4	generate/STIM_012.jpg	99
2885.282	1.646	1646.0	generate	Run4	generate/STIM_012.jpg	99
2889.783	1.942	1942.1	generate	Run4	generate/STIM_012.jpg	99
2894.456	1.285	1285.4	generate	Run4	generate/STIM_013.jpg	99
2899.211	1.984	1984.0	generate	Run4	generate/STIM_013.jpg	99
2904.458	1.806	1805.7	generate	Run4	generate/STIM_013.jpg	100
2908.553	1.387	1386.6	generate	Run4	generate/STIM_013.jpg	100
2912.154	1.481	1481.1	generate	Run4	generate/STIM_013.jpg	99
2916.43	1.431	1431.3	generate	Run4	generate/STIM_014.jpg	99
2921.349	1.9	1900.1	generate	Run4	generate/STIM_014.jpg	100
2926.356	1.305	1304.9	generate	Run4	generate/STIM_014.jpg	100
2930.727	1.52	1519.5	generate	Run4	generate/STIM_014.jpg	99
2936.151	1.885	1885.1	generate	Run4	generate/STIM_014.jpg	99
2940.849	1.64	1639.5	generate	Run4	generate/STIM_015.jpg	100
2944.978	1.6	1599.7	generate	Run4	generate/STIM_015.jpg	100
2950.5	1.835	1834.8	generate	Run4	generate/STIM_015.jpg	100
2955.175	1.045	1044.6	generate	Run4	generate/STIM_015.jpg	100
2960.167	0.81	809.8	generate	Run4	generate/STIM_015.jpg	99
2963.758	1.232	1232.2	generate	Run4	generate/STIM_016.jpg	99
2967.919	0.818	817.5	generate	Run4	generate/STIM_016.jpg	100
2971.849	0.955	955.3	generate	Run4	generate/STIM_016.jpg	99
2975.726	1.614	1613.7	generate	Run4	generate/STIM_016.jpg	100
2981.381	1.448	1447.5	generate	Run4	generate/STIM_016.jpg	100
2986.047	1.668	1667.8	generate	Run4	generate/STIM_017.jpg	99
2991.205	1.6	1600.0	generate	Run4	generate/STIM_017.jpg	100
2995.223	1.711	1710.6	generate	Run4	generate/STIM_017.jpg	99
2999.257	1.285	1285.4	generate	Run4	generate/STIM_017.jpg	100
3004.015	1.78	1780.5	generate	Run4	generate/STIM_017.jpg	100
3008.361	1.512	1512.0	generate	Run4	generate/STIM_018.jpg	100
3012.583	1.276	1276.4	generate	Run4	generate/STIM_018.jpg	100
3017.389	1.155	1154.9	generate	Run4	generate/STIM_018.jpg	99
3021.089	1.703	1702.8	generate	Run4	generate/STIM_018.jpg	100
3025.851	1.846	1846.5	generate	Run4	generate/STIM_018.jpg	99
3031.136	1.819	1819.0	generate	Run4	generate/STIM_019.jpg	100
3036.768	1.205	1205.3	generate	Run4	generate/STIM_019.jpg	99
3041.295	1.188	1188.3	generate	Run4	generate/STIM_019.jpg	99
3045.756	0.865	864.8	generate	Run4	generate/STIM_019.jpg	99
3050.031	1.995	1994.8	generate	Run4	generate/STIM_019.jpg	99
3054.586	1.126	1126.2	generate	Run4	generate/STIM_020.jpg	100
3058.876	1.063	1062.6	generate	Run4	generate/STIM_020.jpg	100
3063.136	1.565	1564.7	generate	Run4	generate/STIM_020.jpg	99
3067.619	1.51	1509.9	generate	Run4	generate/STIM_020.jpg	100
3072.203	0.805	804.8	generate	Run4	generate/STIM_020.jpg	99
3075.544	1.737	1737.2	generate	Run4	generate/STIM_021.jpg	99
3079.719	1.276	1275.7	generate	Run4	generate/STIM_021.jpg	99
3083.956	1.385	1384.7	generate	Run4	generate/STIM_021.jpg	99
3087.727	0.921	921.1	generate	Run4	generate/STIM_021.jpg	99
3091.45	0.971	971.0	generate	Run4	generate/STIM_021.jpg	99
3094.671	1.122	1121.9	generate	Run4	generate/STIM_022.jpg	100
3098.069	1.509	1508.9	generate	Run4	generate/STIM_022.jpg	99
3102.812	1.317	1317.0	generate	Run4	generate/STIM_022.jpg	99
3107.071	1.36	1360.4	generate	Run4	generate/STIM_022.jpg	100
3110.57	1.793	1793.3	generate	Run4	generate/STIM_022.jpg	99
3116.381	1.89	1889.7	generate	Run4	generate/STIM_023.jpg	100
3120.928	1.229	1228.8	generate	Run4	generate/STIM_023.jpg	100
3125.258	1.932	1932.1	generate	Run4	generate/STIM_023.jpg	99
3131.235	1.708	1707.9	generate	Run4	generate/STIM_023.jpg	100
3136.979	1.626	1626.2	generate	Run4	generate/STIM_023.jpg	99
3141.281	1.596	1595.8	generate	Run4	generate/STIM_024.jpg	100
3145.928	1.907	1907.0	generate	Run4	generate/STIM_024.jpg	100
3150.793	1.042	1042.4	generate	Run4	generate/STIM_024.jpg	99
3155.762	1.519	1519.0	generate	Run4	generate/STIM_024.jpg	100
3160.542	0.978	978.2	generate	Run4	generate/STIM_024.jpg	99
3163.806	0.56	559.7	repeat	Run4	repeat/STIM_000.jpg	100
3168.286	0.639	638.8	repeat	Run4	repeat/STIM_000.jpg	99
3172.726	0.616	615.9	repeat	Run4	repeat/STIM_000.jpg	99
3175.872	0.858	857.6	repeat	Run4	repeat/STIM_000.jpg	100
3179.695	0.545	544.6	repeat	Run4	repeat/STIM_000.jpg	99
3182.827	0.649	649.1	repeat	Run4	repeat/STIM_001.jpg	100
3186.131	0.496	495.7	repeat	Run4	repeat/STIM_001.jpg	99
3189.429	0.608	607.8	repeat	Run4	repeat/STIM_001.jpg	100
3193.878	0.955	954.8	repeat	Run4	repeat/STIM_001.jpg	100
3197.145	0.949	949.3	repeat	Run4	repeat/STIM_001.jpg	100
3200.154	0.883	882.7	repeat	Run4	repeat/STIM_002.jpg	99
3203.987	0.575	575.1	repeat	Run4	repeat/STIM_002.jpg	100
3208.398	0.662	661.5	repeat	Run4	repeat/STIM_002.jpg	100
3211.463	0.929	928.8	repeat	Run4	repeat/STIM_002.jpg	100
3215.29	0.877	876.8	repeat	Run4	repeat/STIM_002.jpg	100
3218.374	0.912	912.3	repeat	Run4	repeat/STIM_003.jpg	99
3221.479	0.547	546.8	repeat	Run4	repeat/STIM_003.jpg	99
3225.813	0.536	535.6	repeat	Run4	repeat/STIM_003.jpg	99
3229.749	0.839	838.8	repeat	Run4	repeat/STIM_003.jpg	99
3234.596	0.641	640.6	repeat	Run4	repeat/STIM_003.jpg	99
3239.187	0.721	720.6	repeat	Run4	repeat/STIM_004.jpg	99
3243.299	0.486	486.0	repeat	Run4	repeat/STIM_004.jpg	99
3246.758	0.616	616.4	repeat	Run4	repeat/STIM_004.jpg	100
3250.717	0.668	667.6	repeat	Run4	repeat/STIM_004.jpg	99
3255.12	0.724	724.5	repeat	Run4	repeat/STIM_004.jpg	100
3259.771	0.682	682.1	repeat	Run4	repeat/STIM_005.jpg	100
3262.998	0.651	651.4	repeat	Run4	repeat/STIM_005.jpg	99
3266.461	0.721	720.9	repeat	Run4	repeat/STIM_005.jpg	100
3269.381	0.854	853.7	repeat	Run4	repeat/STIM_005.jpg	100
3273.996	0.756	756.5	repeat	Run4	repeat/STIM_005.jpg	99
3277.687	0.762	762.4	repeat	Run4	repeat/STIM_006.jpg	99
3281.418	0.696	696.0	repeat	Run4	repeat/STIM_006.jpg	100
3284.605	0.52	520.3	repeat	Run4	repeat/STIM_006.jpg	99
3288.286	0.883	882.7	repeat	Run4	repeat/STIM_006.jpg	100
3292.616	0.727	726.7	repeat	Run4	repeat/STIM_006.jpg	99
3296.351	0.661	661.3	repeat	Run4	repeat/STIM_007.jpg	100
3300.832	0.897	896.9	repeat	Run4	repeat/STIM_007.jpg	99
3304.616	0.863	863.4	repeat	Run4	repeat/STIM_007.jpg	100
3307.873	0.63	629.7	repeat	Run4	repeat/STIM_007.jpg	99
3310.628	0.898	898.5	repeat	Run4	repeat/STIM_007.jpg	99
3314.705	0.9	900.3	repeat	Run4	repeat/STIM_008.jpg	99
3318.859	0.615	614.7	repeat	Run4	repeat/STIM_008.jpg	99
3322.505	0.49	489.8	repeat	Run4	repeat/STIM_008.jpg	99
3326.872	0.511	510.6	repeat	Run4	repeat/STIM_008.jpg	100
3330.577	0.63	629.6	repeat	Run4	repeat/STIM_008.jpg	99
3333.982	0.71	710.3	repeat	Run4	repeat/STIM_009.jpg	99
3337.832	0.673	672.9	repeat	Run4	repeat/STIM_009.jpg	99
3340.748	0.611	610.9	repeat	Run4	repeat/STIM_009.jpg	100
3344.688	0.687	686.9	repeat	Run4	repeat/STIM_009.jpg	100
3348.702	0.493	492.6	repeat	Run4	repeat/STIM_009.jpg	100
3353.174	0.853	852.6	repeat	Run4	repeat/STIM_010.jpg	99
3356.816	0.717	716.7	repeat	Run4	repeat/STIM_010.jpg	100
3361.143	0.822	821.8	repeat	Run4	repeat/STIM_010.jpg	100
3364.385	0.671	670.8	repeat	Run4	repeat/STIM_010.jpg	99
3368.539	0.909	908.8	repeat	Run4	repeat/STIM_010.jpg	100
3373.255	0.502	501.8	repeat	Run4	repeat/STIM_011.jpg	100
3376.907	0.684	683.9	repeat	Run4	repeat/STIM_011.jpg	100
3380.521	0.515	515.2	repeat	Run4	repeat/STIM_011.jpg	99
3383.748	0.774	773.6	repeat	Run4	repeat/STIM_011.jpg	99
3387.519	0.933	932.7	repeat	Run4	repeat/STIM_011.jpg	100
3391.919	0.567	567.4	repeat	Run4	repeat/STIM_012.jpg	100
3395.937	0.488	488.3	repeat	Run4	repeat/STIM_012.jpg	100
3400.153	0.517	517.1	repeat	Run4	repeat/STIM_012.jpg	100
3404.073	0.696	695.8	repeat	Run4	repeat/STIM_012.jpg	99
3407.006	0.572	572.1	repeat	Run4	repeat/STIM_012.jpg	100
3411.08	0.493	493.0	repeat	Run4	repeat/STIM_013.jpg	100
3414.755	0.635	635.2	repeat	Run4	repeat/STIM_013.jpg	100
3419.285	0.912	911.8	repeat	Run4	repeat/STIM_013.jpg	100
3423.11	0.493	493.2	repeat	Run4	repeat/STIM_013.jpg	99
3426.172	0.816	816.0	repeat	Run4	repeat/STIM_013.jpg	100
3429.573	0.893	893.1	repeat	Run4	repeat/STIM_014.jpg	100
3432.809	0.894	894.4	repeat	Run4	repeat/STIM_014.jpg	99
3436.291	0.682	682.0	repeat	Run4	repeat/STIM_014.jpg	100
3440.369	0.712	712.5	repeat	Run4	repeat/STIM_014.jpg	99
3444.805	0.851	851.0	repeat	Run4	repeat/STIM_014.jpg	100
