onset	duration	accuracy_binary	trial_type	learning_stage	stimulus
0.0	4.04	1	navigation	Trial1	navigation/STIM_000.jpg
7.139	4.894	1	navigation	Trial1	navigation/STIM_000.jpg
14.923	2.292	1	navigation	Trial1	navigation/STIM_000.jpg
20.336	2.358	0	navigation	Trial1	navigation/STIM_000.jpg
26.226	3.572	1	navigation	Trial1	navigation/STIM_000.jpg
33.605	2.36	1	navigation	Trial1	navigation/STIM_000.jpg
38.337	5.401	1	navigation	Trial1	navigation/STIM_001.jpg
47.507	4.761	1	navigation	Trial1	navigation/STIM_001.jpg
55.362	2.625	0	navigation	Trial1	navigation/STIM_001.jpg
61.803	3.656	1	navigation	Trial1	navigation/STIM_001.jpg
68.287	3.96	1	navigation	Trial1	navigation/STIM_001.jpg
74.31	2.61	0	navigation	Trial1	navigation/STIM_001.jpg
80.851	3.065	0	navigation	Trial1	navigation/STIM_002.jpg
86.07	4.783	0	navigation	Trial1	navigation/STIM_002.jpg
94.657	4.665	1	navigation	Trial1	navigation/STIM_002.jpg
102.142	3.014	0	navigation	Trial1	navigation/STIM_002.jpg
107.459	2.95	1	navigation	Trial1	navigation/STIM_002.jpg
112.615	1.865	1	navigation	Trial1	navigation/STIM_002.jpg
118.116	4.858	1	navigation	Trial1	navigation/STIM_003.jpg
125.302	2.666	1	navigation	Trial1	navigation/STIM_003.jpg
130.217	3.99	0	navigation	Trial1	navigation/STIM_003.jpg
136.796	2.86	1	navigation	Trial1	navigation/STIM_003.jpg
142.354	2.642	1	navigation	Trial1	navigation/STIM_003.jpg
147.987	3.591	1	navigation	Trial1	navigation/STIM_003.jpg
155.512	5.37	1	navigation	Trial1	navigation/STIM_004.jpg
163.68	2.568	1	navigation	Trial1	navigation/STIM_004.jpg
169.886	4.148	1	navigation	Trial1	navigation/STIM_004.jpg
177.046	2.001	0	navigation	Trial1	navigation/STIM_004.jpg
181.27	1.891	1	navigation	Trial1	navigation/STIM_004.jpg
185.346	3.754	1	navigation	Trial1	navigation/STIM_004.jpg
191.775	5.005	1	navigation	Trial1	navigation/STIM_005.jpg
200.441	4.582	0	navigation	Trial1	navigation/STIM_005.jpg
207.991	4.297	1	navigation	Trial1	navigation/STIM_005.jpg
215.347	2.721	1	navigation	Trial1	navigation/STIM_005.jpg
221.236	3.435	1	navigation	Trial1	navigation/STIM_005.jpg
228.053	3.76	1	navigation	Trial1	navigation/STIM_005.jpg
234.809	4.91	1	navigation	Trial1	navigation/STIM_006.jpg
242.489	5.154	1	navigation	Trial1	navigation/STIM_006.jpg
251.412	3.255	0	navigation	Trial1	navigation/STIM_006.jpg
258.265	2.409	1	navigation	Trial1	navigation/STIM_006.jpg
264.019	3.325	1	navigation	Trial1	navigation/STIM_006.jpg
269.819	3.551	0	navigation	Trial1	navigation/STIM_006.jpg
276.758	3.813	1	navigation	Trial1	navigation/STIM_007.jpg
284.19	3.107	1	navigation	Trial1	navigation/STIM_007.jpg
289.858	3.675	0	navigation	Trial1	navigation/STIM_007.jpg
296.65	3.661	0	navigation	Trial1	navigation/STIM_007.jpg
302.379	3.102	1	navigation	Trial1	navigation/STIM_007.jpg
308.536	2.236	1	navigation	Trial1	navigation/STIM_007.jpg
313.119	4.272	1	navigation	Trial1	navigation/STIM_008.jpg
319.813	4.829	1	navigation	Trial1	navigation/STIM_008.jpg
328.37	2.517	1	navigation	Trial1	navigation/STIM_008.jpg
332.906	2.858	1	navigation	Trial1	navigation/STIM_008.jpg
338.156	3.331	0	navigation	Trial1	navigation/STIM_008.jpg
344.467	2.413	1	navigation	Trial1	navigation/STIM_008.jpg
349.124	4.798	1	navigation	Trial1	navigation/STIM_009.jpg
357.804	3.843	1	navigation	Trial1	navigation/STIM_009.jpg
364.324	1.994	0	navigation	Trial1	navigation/STIM_009.jpg
369.876	1.961	0	navigation	Trial1	navigation/STIM_009.jpg
375.251	3.65	1	navigation	Trial1	navigation/STIM_009.jpg
382.02	2.127	0	navigation	Trial1	navigation/STIM_009.jpg
388.09	2.642	0	navigation	Trial1	navigation/STIM_010.jpg
393.546	2.842	0	navigation	Trial1	navigation/STIM_010.jpg
399.436	3.352	1	navigation	Trial1	navigation/STIM_010.jpg
405.615	4.027	0	navigation	Trial1	navigation/STIM_010.jpg
411.907	3.665	1	navigation	Trial1	navigation/STIM_010.jpg
417.873	3.367	0	navigation	Trial1	navigation/STIM_010.jpg
424.833	5.111	1	navigation	Trial1	navigation/STIM_011.jpg
432.493	4.205	0	navigation	Trial1	navigation/STIM_011.jpg
438.974	3.484	0	navigation	Trial1	navigation/STIM_011.jpg
444.994	2.807	1	navigation	Trial1	navigation/STIM_011.jpg
451.646	2.112	1	navigation	Trial1	navigation/STIM_011.jpg
456.771	2.405	0	navigation	Trial1	navigation/STIM_011.jpg
462.558	1.066	0	pointing	Trial1	pointing/STIM_000.jpg
466.125	1.061	1	pointing	Trial1	pointing/STIM_000.jpg
470.125	1.502	1	pointing	Trial1	pointing/STIM_000.jpg
473.976	1.146	0	pointing	Trial1	pointing/STIM_000.jpg
478.98	1.46	1	pointing	Trial1	pointing/STIM_000.jpg
482.977	1.619	1	pointing	Trial1	pointing/STIM_000.jpg
486.959	0.928	1	pointing	Trial1	pointing/STIM_001.jpg
491.589	1.273	1	pointing	Trial1	pointing/STIM_001.jpg
495.386	1.296	1	pointing	Trial1	pointing/STIM_001.jpg
498.863	1.248	1	pointing	Trial1	pointing/STIM_001.jpg
502.681	0.907	1	pointing	Trial1	pointing/STIM_001.jpg
506.869	1.319	1	pointing	Trial1	pointing/STIM_001.jpg
510.653	1.269	1	pointing	Trial1	pointing/STIM_002.jpg
515.088	1.638	1	pointing	Trial1	pointing/STIM_002.jpg
520.258	1.332	0	pointing	Trial1	pointing/STIM_002.jpg
525.269	1.353	1	pointing	Trial1	pointing/STIM_002.jpg
529.262	1.493	1	pointing	Trial1	pointing/STIM_002.jpg
534.523	0.921	1	pointing	Trial1	pointing/STIM_002.jpg
538.517	1.305	1	pointing	Trial1	pointing/STIM_003.jpg
543.198	1.452	0	pointing	Trial1	pointing/STIM_003.jpg
547.0	1.278	0	pointing	Trial1	pointing/STIM_003.jpg
550.564	1.117	1	pointing	Trial1	pointing/STIM_003.jpg
555.181	1.596	0	pointing	Trial1	pointing/STIM_003.jpg
560.729	0.974	1	pointing	Trial1	pointing/STIM_003.jpg
565.424	1.555	1	pointing	Trial1	pointing/STIM_004.jpg
569.254	1.11	0	pointing	Trial1	pointing/STIM_004.jpg
573.477	1.586	1	pointing	Trial1	pointing/STIM_004.jpg
579.025	1.286	1	pointing	Trial1	pointing/STIM_004.jpg
582.913	1.263	0	pointing	Trial1	pointing/STIM_004.jpg
586.623	1.59	1	pointing	Trial1	pointing/STIM_004.jpg
590.583	1.08	0	pointing	Trial1	pointing/STIM_005.jpg
594.188	1.503	1	pointing	Trial1	pointing/STIM_005.jpg
598.595	1.154	1	pointing	Trial1	pointing/STIM_005.jpg
603.567	1.494	1	pointing	Trial1	pointing/STIM_005.jpg
608.144	1.043	0	pointing	Trial1	pointing/STIM_005.jpg
612.85	1.153	1	pointing	Trial1	pointing/STIM_005.jpg
616.395	1.473	1	pointing	Trial1	pointing/STIM_006.jpg
621.43	1.282	1	pointing	Trial1	pointing/STIM_006.jpg
624.864	1.076	1	pointing	Trial1	pointing/STIM_006.jpg
628.769	1.223	0	pointing	Trial1	pointing/STIM_006.jpg
633.621	1.507	1	pointing	Trial1	pointing/STIM_006.jpg
638.247	1.077	1	pointing	Trial1	pointing/STIM_006.jpg
642.772	0.976	1	pointing	Trial1	pointing/STIM_007.jpg
646.065	1.602	1	pointing	Trial1	pointing/STIM_007.jpg
650.971	1.049	1	pointing	Trial1	pointing/STIM_007.jpg
655.585	1.148	1	pointing	Trial1	pointing/STIM_007.jpg
659.263	1.004	1	pointing	Trial1	pointing/STIM_007.jpg
663.506	1.548	1	pointing	Trial1	pointing/STIM_007.jpg
667.665	0.983	0	pointing	Trial1	pointing/STIM_008.jpg
672.098	1.514	0	pointing	Trial1	pointing/STIM_008.jpg
677.011	1.357	1	pointing	Trial1	pointing/STIM_008.jpg
681.309	1.053	1	pointing	Trial1	pointing/STIM_008.jpg
684.981	1.014	1	pointing	Trial1	pointing/STIM_008.jpg
688.229	0.931	1	pointing	Trial1	pointing/STIM_008.jpg
691.966	1.206	1	pointing	Trial1	pointing/STIM_009.jpg
695.879	1.172	1	pointing	Trial1	pointing/STIM_009.jpg
699.331	1.583	1	pointing	Trial1	pointing/STIM_009.jpg
703.499	1.545	1	pointing	Trial1	pointing/STIM_009.jpg
707.831	0.96	1	pointing	Trial1	pointing/STIM_009.jpg
712.442	1.616	1	pointing	Trial1	pointing/STIM_009.jpg
717.277	1.013	1	pointing	Trial1	pointing/STIM_010.jpg
722.198	1.356	1	pointing	Trial1	pointing/STIM_010.jpg
727.075	1.628	1	pointing	Trial1	pointing/STIM_010.jpg
731.438	1.297	0	pointing	Trial1	pointing/STIM_010.jpg
735.242	1.364	1	pointing	Trial1	pointing/STIM_010.jpg
739.918	1.164	0	pointing	Trial1	pointing/STIM_010.jpg
743.62	0.948	1	pointing	Trial1	pointing/STIM_011.jpg
747.13	1.141	1	pointing	Trial1	pointing/STIM_011.jpg
750.668	1.382	0	pointing	Trial1	pointing/STIM_011.jpg
754.095	1.282	1	pointing	Trial1	pointing/STIM_011.jpg
758.808	1.632	0	pointing	Trial1	pointing/STIM_011.jpg
763.037	1.196	1	pointing	Trial1	pointing/STIM_011.jpg
767.24	3.921	1	navigation	Trial2	navigation/STIM_000.jpg
775.156	1.97	1	navigation	Trial2	navigation/STIM_000.jpg
780.269	2.187	1	navigation	Trial2	navigation/STIM_000.jpg
785.722	2.116	1	navigation	Trial2	navigation/STIM_000.jpg
790.116	2.814	0	navigation	Trial2	navigation/STIM_000.jpg
795.727	2.375	0	navigation	Trial2	navigation/STIM_000.jpg
800.162	2.146	0	navigation	Trial2	navigation/STIM_001.jpg
805.418	2.821	1	navigation	Trial2	navigation/STIM_001.jpg
811.933	3.259	1	navigation	Trial2	navigation/STIM_001.jpg
818.561	2.365	0	navigation	Trial2	navigation/STIM_001.jpg
822.927	3.477	1	navigation	Trial2	navigation/STIM_001.jpg
830.071	2.921	1	navigation	Trial2	navigation/STIM_001.jpg
835.206	3.574	1	navigation	Trial2	navigation/STIM_002.jpg
841.854	4.036	1	navigation	Trial2	navigation/STIM_002.jpg
849.245	3.938	0	navigation	Trial2	navigation/STIM_002.jpg
855.637	3.54	1	navigation	Trial2	navigation/STIM_002.jpg
861.842	3.547	1	navigation	Trial2	navigation/STIM_002.jpg
868.154	3.787	1	navigation	Trial2	navigation/STIM_002.jpg
875.189	3.315	1	navigation	Trial2	navigation/STIM_003.jpg
882.125	3.543	0	navigation	Trial2	navigation/STIM_003.jpg
887.872	1.66	1	navigation	Trial2	navigation/STIM_003.jpg
893.229	3.267	1	navigation	Trial2	navigation/STIM_003.jpg
900.079	2.117	1	navigation	Trial2	navigation/STIM_003.jpg
904.727	2.075	1	navigation	Trial2	navigation/STIM_003.jpg
909.345	4.505	1	navigation	Trial2	navigation/STIM_004.jpg
917.218	3.086	1	navigation	Trial2	navigation/STIM_004.jpg
923.952	1.841	1	navigation	Trial2	navigation/STIM_004.jpg
929.403	3.4	0	navigation	Trial2	navigation/STIM_004.jpg
935.791	2.387	1	navigation	Trial2	navigation/STIM_004.jpg
940.835	3.516	1	navigation	Trial2	navigation/STIM_004.jpg
948.273	4.372	1	navigation	Trial2	navigation/STIM_005.jpg
955.624	3.885	1	navigation	Trial2	navigation/STIM_005.jpg
961.633	3.82	1	navigation	Trial2	navigation/STIM_005.jpg
968.352	1.977	0	navigation	Trial2	navigation/STIM_005.jpg
973.267	2.687	1	navigation	Trial2	navigation/STIM_005.jpg
979.638	2.521	1	navigation	Trial2	navigation/STIM_005.jpg
984.937	3.572	0	navigation	Trial2	navigation/STIM_006.jpg
991.857	3.026	1	navigation	Trial2	navigation/STIM_006.jpg
998.13	2.346	0	navigation	Trial2	navigation/STIM_006.jpg
1003.77	3.149	0	navigation	Trial2	navigation/STIM_006.jpg
1010.294	3.231	1	navigation	Trial2	navigation/STIM_006.jpg
1016.291	2.095	0	navigation	Trial2	navigation/STIM_006.jpg
1021.804	2.559	1	navigation	Trial2	navigation/STIM_007.jpg
1028.289	1.796	1	navigation	Trial2	navigation/STIM_007.jpg
1032.635	2.555	0	navigation	Trial2	navigation/STIM_007.jpg
1037.765	3.482	1	navigation	Trial2	navigation/STIM_007.jpg
1045.221	3.091	1	navigation	Trial2	navigation/STIM_007.jpg
1050.753	3.263	1	navigation	Trial2	navigation/STIM_007.jpg
1056.508	2.344	1	navigation	Trial2	navigation/STIM_008.jpg
1061.668	2.576	1	navigation	Trial2	navigation/STIM_008.jpg
1066.421	1.962	1	navigation	Trial2	navigation/STIM_008.jpg
1071.075	2.3	1	navigation	Trial2	navigation/STIM_008.jpg
1077.203	3.544	0	navigation	Trial2	navigation/STIM_008.jpg
1082.98	3.096	1	navigation	Trial2	navigation/STIM_008.jpg
1088.746	1.918	1	navigation	Trial2	navigation/STIM_009.jpg
1093.012	3.537	1	navigation	Trial2	navigation/STIM_009.jpg
1100.42	2.754	1	navigation	Trial2	navigation/STIM_009.jpg
1106.326	2.678	1	navigation	Trial2	navigation/STIM_009.jpg
1112.842	1.845	1	navigation	Trial2	navigation/STIM_009.jpg
1117.27	2.065	1	navigation	Trial2	navigation/STIM_009.jpg
1122.279	4.305	1	navigation	Trial2	navigation/STIM_010.jpg
1130.429	1.856	1	navigation	Trial2	navigation/STIM_010.jpg
1134.305	2.634	1	navigation	Trial2	navigation/STIM_010.jpg
1139.79	2.215	1	navigation	Trial2	navigation/STIM_010.jpg
1144.251	2.105	1	navigation	Trial2	navigation/STIM_010.jpg
1149.125	3.163	0	navigation	Trial2	navigation/STIM_010.jpg
1154.777	2.869	1	navigation	Trial2	navigation/STIM_011.jpg
1160.128	2.099	1	navigation	Trial2	navigation/STIM_011.jpg
1165.057	1.654	0	navigation	Trial2	navigation/STIM_011.jpg
1169.497	3.445	1	navigation	Trial2	navigation/STIM_011.jpg
1176.607	3.203	1	navigation	Trial2	navigation/STIM_011.jpg
1183.064	1.838	0	navigation	Trial2	navigation/STIM_011.jpg
1188.707	1.553	1	pointing	Trial2	pointing/STIM_000.jpg
1192.632	1.169	1	pointing	Trial2	pointing/STIM_000.jpg
1196.966	1.402	1	pointing	Trial2	pointing/STIM_000.jpg
1200.556	0.964	1	pointing	Trial2	pointing/STIM_000.jpg
1203.874	1.445	0	pointing	Trial2	pointing/STIM_000.jpg
1208.221	1.606	1	pointing	Trial2	pointing/STIM_000.jpg
1212.549	1.084	1	pointing	Trial2	pointing/STIM_001.jpg
1215.829	1.594	1	pointing	Trial2	pointing/STIM_001.jpg
1220.889	1.155	0	pointing	Trial2	pointing/STIM_001.jpg
1224.975	1.011	1	pointing	Trial2	pointing/STIM_001.jpg
1229.804	1.188	1	pointing	Trial2	pointing/STIM_001.jpg
1234.439	1.098	0	pointing	Trial2	pointing/STIM_001.jpg
1239.437	1.515	0	pointing	Trial2	pointing/STIM_002.jpg
1244.33	0.928	1	pointing	Trial2	pointing/STIM_002.jpg
1247.983	1.43	1	pointing	Trial2	pointing/STIM_002.jpg
1252.35	1.399	1	pointing	Trial2	pointing/STIM_002.jpg
1255.841	1.576	0	pointing	Trial2	pointing/STIM_002.jpg
1260.102	1.596	1	pointing	Trial2	pointing/STIM_002.jpg
1265.412	0.885	1	pointing	Trial2	pointing/STIM_003.jpg
1270.024	1.398	1	pointing	Trial2	pointing/STIM_003.jpg
1274.265	1.482	1	pointing	Trial2	pointing/STIM_003.jpg
1278.964	1.539	0	pointing	Trial2	pointing/STIM_003.jpg
1282.873	1.342	1	pointing	Trial2	pointing/STIM_003.jpg
1286.243	1.019	1	pointing	Trial2	pointing/STIM_003.jpg
1290.6	1.518	1	pointing	Trial2	pointing/STIM_004.jpg
1295.083	1.127	0	pointing	Trial2	pointing/STIM_004.jpg
1299.763	1.308	1	pointing	Trial2	pointing/STIM_004.jpg
1303.906	1.422	1	pointing	Trial2	pointing/STIM_004.jpg
1309.246	0.888	0	pointing	Trial2	pointing/STIM_004.jpg
1313.971	0.969	1	pointing	Trial2	pointing/STIM_004.jpg
1316.968	1.159	1	pointing	Trial2	pointing/STIM_005.jpg
1320.206	1.465	1	pointing	Trial2	pointing/STIM_005.jpg
1324.748	1.375	1	pointing	Trial2	pointing/STIM_005.jpg
1329.257	0.943	1	pointing	Trial2	pointing/STIM_005.jpg
1332.564	1.636	1	pointing	Trial2	pointing/STIM_005.jpg
1336.707	1.19	1	pointing	Trial2	pointing/STIM_005.jpg
1340.367	1.572	1	pointing	Trial2	pointing/STIM_006.jpg
1345.237	1.532	1	pointing	Trial2	pointing/STIM_006.jpg
1350.715	1.488	1	pointing	Trial2	pointing/STIM_006.jpg
1354.813	1.006	1	pointing	Trial2	pointing/STIM_006.jpg
1359.11	0.888	1	pointing	Trial2	pointing/STIM_006.jpg
1362.043	1.221	1	pointing	Trial2	pointing/STIM_006.jpg
1366.499	1.419	1	pointing	Trial2	pointing/STIM_007.jpg
1369.976	1.388	1	pointing	Trial2	pointing/STIM_007.jpg
1373.744	0.874	1	pointing	Trial2	pointing/STIM_007.jpg
1378.551	1.151	1	pointing	Trial2	pointing/STIM_007.jpg
1383.287	1.471	1	pointing	Trial2	pointing/STIM_007.jpg
1388.138	1.418	1	pointing	Trial2	pointing/STIM_007.jpg
1391.703	0.976	0	pointing	Trial2	pointing/STIM_008.jpg
1396.486	1.275	1	pointing	Trial2	pointing/STIM_008.jpg
1401.73	1.155	1	pointing	Trial2	pointing/STIM_008.jpg
1406.587	0.996	1	pointing	Trial2	pointing/STIM_008.jpg
1411.582	1.311	1	pointing	Trial2	pointing/STIM_008.jpg
1416.485	1.626	1	pointing	Trial2	pointing/STIM_008.jpg
1421.606	1.217	1	pointing	Trial2	pointing/STIM_009.jpg
1424.925	1.353	1	pointing	Trial2	pointing/STIM_009.jpg
1428.67	1.438	0	pointing	Trial2	pointing/STIM_009.jpg
1432.848	1.163	1	pointing	Trial2	pointing/STIM_009.jpg
1436.177	1.351	1	pointing	Trial2	pointing/STIM_009.jpg
1439.865	1.53	1	pointing	Trial2	pointing/STIM_009.jpg
1445.006	1.354	1	pointing	Trial2	pointing/STIM_010.jpg
1449.52	1.134	1	pointing	Trial2	pointing/STIM_010.jpg
1452.799	1.323	0	pointing	Trial2	pointing/STIM_010.jpg
1456.342	1.347	1	pointing	Trial2	pointing/STIM_010.jpg
1461.233	1.139	1	pointing	Trial2	pointing/STIM_010.jpg
1464.549	1.62	1	pointing	Trial2	pointing/STIM_010.jpg
1468.823	0.949	1	pointing	Trial2	pointing/STIM_011.jpg
1471.806	1.577	1	pointing	Trial2	pointing/STIM_011.jpg
1475.721	1.399	1	pointing	Trial2	pointing/STIM_011.jpg
1480.21	1.482	1	pointing	Trial2	pointing/STIM_011.jpg
1484.026	0.968	1	pointing	Trial2	pointing/STIM_011.jpg
1487.72	1.605	1	pointing	Trial2	pointing/STIM_011.jpg
1492.413	1.769	0	navigation	Trial3	navigation/STIM_000.jpg
1498.17	1.751	0	navigation	Trial3	navigation/STIM_000.jpg
1503.135	1.971	1	navigation	Trial3	navigation/STIM_000.jpg
1507.439	2.438	1	navigation	Trial3	navigation/STIM_000.jpg
1513.115	2.104	1	navigation	Trial3	navigation/STIM_000.jpg
1518.525	1.667	1	navigation	Trial3	navigation/STIM_000.jpg
1524.088	2.122	1	navigation	Trial3	navigation/STIM_001.jpg
1529.545	3.331	0	navigation	Trial3	navigation/STIM_001.jpg
1536.402	2.711	1	navigation	Trial3	navigation/STIM_001.jpg
1541.964	2.917	0	navigation	Trial3	navigation/STIM_001.jpg
1547.97	2.019	1	navigation	Trial3	navigation/STIM_001.jpg
1552.323	2.146	0	navigation	Trial3	navigation/STIM_001.jpg
1557.451	2.689	1	navigation	Trial3	navigation/STIM_002.jpg
1563.294	2.959	1	navigation	Trial3	navigation/STIM_002.jpg
1569.914	2.446	1	navigation	Trial3	navigation/STIM_002.jpg
1574.801	3.449	1	navigation	Trial3	navigation/STIM_002.jpg
1580.61	3.082	1	navigation	Trial3	navigation/STIM_002.jpg
1586.484	3.387	1	navigation	Trial3	navigation/STIM_002.jpg
1592.701	2.806	1	navigation	Trial3	navigation/STIM_003.jpg
1598.216	2.281	1	navigation	Trial3	navigation/STIM_003.jpg
1604.348	3.08	1	navigation	Trial3	navigation/STIM_003.jpg
1610.563	1.744	1	navigation	Trial3	navigation/STIM_003.jpg
1615.08	3.711	1	navigation	Trial3	navigation/STIM_003.jpg
1621.534	3.238	1	navigation	Trial3	navigation/STIM_003.jpg
1627.055	2.684	1	navigation	Trial3	navigation/STIM_004.jpg
1632.294	2.942	1	navigation	Trial3	navigation/STIM_004.jpg
1638.197	3.762	0	navigation	Trial3	navigation/STIM_004.jpg
1645.429	2.695	1	navigation	Trial3	navigation/STIM_004.jpg
1651.567	1.674	1	navigation	Trial3	navigation/STIM_004.jpg
1656.549	3.392	1	navigation	Trial3	navigation/STIM_004.jpg
1663.915	2.551	1	navigation	Trial3	navigation/STIM_005.jpg
1669.91	3.157	0	navigation	Trial3	navigation/STIM_005.jpg
1676.967	3.557	1	navigation	Trial3	navigation/STIM_005.jpg
1682.529	2.339	1	navigation	Trial3	navigation/STIM_005.jpg
1688.27	3.238	1	navigation	Trial3	navigation/STIM_005.jpg
1695.145	1.597	1	navigation	Trial3	navigation/STIM_005.jpg
1700.738	2.877	1	navigation	Trial3	navigation/STIM_006.jpg
1707.569	3.415	1	navigation	Trial3	navigation/STIM_006.jpg
1714.264	2.622	1	navigation	Trial3	navigation/STIM_006.jpg
1718.89	3.537	1	navigation	Trial3	navigation/STIM_006.jpg
1726.172	3.819	1	navigation	Trial3	navigation/STIM_006.jpg
1733.167	3.017	1	navigation	Trial3	navigation/STIM_006.jpg
1739.168	2.26	0	navigation	Trial3	navigation/STIM_007.jpg
1743.962	3.341	1	navigation	Trial3	navigation/STIM_007.jpg
1751.198	2.29	1	navigation	Trial3	navigation/STIM_007.jpg
1756.083	3.513	1	navigation	Trial3	navigation/STIM_007.jpg
1763.14	3.458	0	navigation	Trial3	navigation/STIM_007.jpg
1769.003	1.886	1	navigation	Trial3	navigation/STIM_007.jpg
1774.054	2.968	1	navigation	Trial3	navigation/STIM_008.jpg
1779.419	3.685	1	navigation	Trial3	navigation/STIM_008.jpg
1785.886	3.545	1	navigation	Trial3	navigation/STIM_008.jpg
1791.493	2.014	1	navigation	Trial3	navigation/STIM_008.jpg
1795.924	3.797	1	navigation	Trial3	navigation/STIM_008.jpg
1801.736	2.141	1	navigation	Trial3	navigation/STIM_008.jpg
1807.489	3.457	1	navigation	Trial3	navigation/STIM_009.jpg
1814.389	2.249	1	navigation	Trial3	navigation/STIM_009.jpg
1819.363	2.953	0	navigation	Trial3	navigation/STIM_009.jpg
1825.625	1.931	1	navigation	Trial3	navigation/STIM_009.jpg
1830.767	2.748	1	navigation	Trial3	navigation/STIM_009.jpg
1837.169	3.626	1	navigation	Trial3	navigation/STIM_009.jpg
1844.608	2.431	1	navigation	Trial3	navigation/STIM_010.jpg
1849.662	1.678	1	navigation	Trial3	navigation/STIM_010.jpg
1853.498	1.651	1	navigation	Trial3	navigation/STIM_010.jpg
1858.751	3.562	1	navigation	Trial3	navigation/STIM_010.jpg
1864.635	1.916	1	navigation	Trial3	navigation/STIM_010.jpg
1868.878	3.072	1	navigation	Trial3	navigation/STIM_010.jpg
1875.125	3.497	1	navigation	Trial3	navigation/STIM_011.jpg
1880.785	1.81	1	navigation	Trial3	navigation/STIM_011.jpg
1886.002	2.765	0	navigation	Trial3	navigation/STIM_011.jpg
1891.054	2.356	1	navigation	Trial3	navigation/STIM_011.jpg
1897.119	1.93	1	navigation	Trial3	navigation/STIM_011.jpg
1901.371	2.884	1	navigation	Trial3	navigation/STIM_011.jpg
1907.103	1.487	1	pointing	Trial3	pointing/STIM_000.jpg
1911.177	0.924	1	pointing	Trial3	pointing/STIM_000.jpg
1915.72	1.227	1	pointing	Trial3	pointing/STIM_000.jpg
1919.663	1.145	1	pointing	Trial3	pointing/STIM_000.jpg
1923.925	1.0	1	pointing	Trial3	pointing/STIM_000.jpg
1927.62	1.361	1	pointing	Trial3	pointing/STIM_000.jpg
1931.392	0.885	1	pointing	Trial3	pointing/STIM_001.jpg
1934.591	1.162	1	pointing	Trial3	pointing/STIM_001.jpg
1938.761	1.307	1	pointing	Trial3	pointing/STIM_001.jpg
1943.885	1.077	1	pointing	Trial3	pointing/STIM_001.jpg
1946.987	1.09	1	pointing	Trial3	pointing/STIM_001.jpg
1951.457	1.14	0	pointing	Trial3	pointing/STIM_001.jpg
1956.509	0.918	1	pointing	Trial3	pointing/STIM_002.jpg
1960.637	0.933	1	pointing	Trial3	pointing/STIM_002.jpg
1965.062	1.289	1	pointing	Trial3	pointing/STIM_002.jpg
1969.626	1.417	1	pointing	Trial3	pointing/STIM_002.jpg
1974.46	1.029	0	pointing	Trial3	pointing/STIM_002.jpg
1978.545	1.34	0	pointing	Trial3	pointing/STIM_002.jpg
1982.557	1.266	1	pointing	Trial3	pointing/STIM_003.jpg
1986.03	1.222	1	pointing	Trial3	pointing/STIM_003.jpg
1989.389	1.439	1	pointing	Trial3	pointing/STIM_003.jpg
1994.008	1.27	1	pointing	Trial3	pointing/STIM_003.jpg
1997.717	1.166	1	pointing	Trial3	pointing/STIM_003.jpg
2002.88	1.382	1	pointing	Trial3	pointing/STIM_003.jpg
2007.425	1.625	1	pointing	Trial3	pointing/STIM_004.jpg
2012.982	1.271	0	pointing	Trial3	pointing/STIM_004.jpg
2016.65	1.479	1	pointing	Trial3	pointing/STIM_004.jpg
2021.631	1.16	1	pointing	Trial3	pointing/STIM_004.jpg
2025.516	1.529	0	pointing	Trial3	pointing/STIM_004.jpg
2031.027	1.22	1	pointing	Trial3	pointing/STIM_004.jpg
2034.593	1.194	1	pointing	Trial3	pointing/STIM_005.jpg
2037.859	1.147	1	pointing	Trial3	pointing/STIM_005.jpg
2041.388	1.62	0	pointing	Trial3	pointing/STIM_005.jpg
2045.861	1.038	1	pointing	Trial3	pointing/STIM_005.jpg
2048.989	1.612	1	pointing	Trial3	pointing/STIM_005.jpg
2053.834	1.06	1	pointing	Trial3	pointing/STIM_005.jpg
2058.783	1.106	1	pointing	Trial3	pointing/STIM_006.jpg
2062.549	1.148	1	pointing	Trial3	pointing/STIM_006.jpg
2066.131	1.129	0	pointing	Trial3	pointing/STIM_006.jpg
2070.949	1.524	1	pointing	Trial3	pointing/STIM_006.jpg
2076.025	0.94	1	pointing	Trial3	pointing/STIM_006.jpg
2079.341	0.922	1	pointing	Trial3	pointing/STIM_006.jpg
2083.655	1.446	1	pointing	Trial3	pointing/STIM_007.jpg
2088.029	0.888	1	pointing	Trial3	pointing/STIM_007.jpg
2092.03	0.929	1	pointing	Trial3	pointing/STIM_007.jpg
2096.239	1.311	1	pointing	Trial3	pointing/STIM_007.jpg
2099.797	1.284	1	pointing	Trial3	pointing/STIM_007.jpg
2103.306	1.164	1	pointing	Trial3	pointing/STIM_007.jpg
2106.769	0.914	1	pointing	Trial3	pointing/STIM_008.jpg
2111.304	1.065	1	pointing	Trial3	pointing/STIM_008.jpg
2115.119	1.488	1	pointing	Trial3	pointing/STIM_008.jpg
2119.264	0.89	1	pointing	Trial3	pointing/STIM_008.jpg
2122.879	1.386	1	pointing	Trial3	pointing/STIM_008.jpg
2126.707	1.525	1	pointing	Trial3	pointing/STIM_008.jpg
2130.803	1.007	0	pointing	Trial3	pointing/STIM_009.jpg
2134.124	1.234	1	pointing	Trial3	pointing/STIM_009.jpg
2138.569	1.433	1	pointing	Trial3	pointing/STIM_009.jpg
2143.026	1.02	1	pointing	Trial3	pointing/STIM_009.jpg
2147.635	1.585	1	pointing	Trial3	pointing/STIM_009.jpg
2151.568	1.475	1	pointing	Trial3	pointing/STIM_009.jpg
2156.595	1.032	0	pointing	Trial3	pointing/STIM_010.jpg
2161.432	1.259	1	pointing	Trial3	pointing/STIM_010.jpg
2165.624	1.354	1	pointing	Trial3	pointing/STIM_010.jpg
2170.055	1.514	1	pointing	Trial3	pointing/STIM_010.jpg
2174.532	1.554	1	pointing	Trial3	pointing/STIM_010.jpg
2178.802	1.176	1	pointing	Trial3	pointing/STIM_010.jpg
2182.63	1.59	1	pointing	Trial3	pointing/STIM_011.jpg
2186.317	0.942	1	pointing	Trial3	pointing/STIM_011.jpg
2189.684	0.979	1	pointing	Trial3	pointing/STIM_011.jpg
2194.546	1.499	1	pointing	Trial3	pointing/STIM_011.jpg
2199.44	1.379	1	pointing	Trial3	pointing/STIM_011.jpg
2203.932	1.595	1	pointing	Trial3	pointing/STIM_011.jpg
