onset	duration	response_time_ms	trial_type	learning_stage	stimulus	response_port
0.0	2.87	2870.4	navigation	Trial1	navigation/STIM_000.jpg	100
5.749	3.537	3536.9	navigation	Trial1	navigation/STIM_000.jpg	100
11.554	3.386	3386.5	navigation	Trial1	navigation/STIM_000.jpg	99
18.274	2.854	2854.5	navigation	Trial1	navigation/STIM_000.jpg	100
25.184	2.438	2438.3	navigation	Trial1	navigation/STIM_000.jpg	99
31.351	3.364	3364.5	navigation	Trial1	navigation/STIM_000.jpg	99
38.731	2.722	2721.7	navigation	Trial1	navigation/STIM_001.jpg	99
43.958	4.363	4363.1	navigation	Trial1	navigation/STIM_001.jpg	99
51.056	2.6	2599.7	navigation	Trial1	navigation/STIM_001.jpg	99
56.72	3.134	3133.9	navigation	Trial1	navigation/STIM_001.jpg	100
63.58	1.802	1802.3	navigation	Trial1	navigation/STIM_001.jpg	99
68.167	1.562	1561.9	navigation	Trial1	navigation/STIM_001.jpg	99
72.063	3.365	3364.7	navigation	Trial1	navigation/STIM_002.jpg	100
78.753	1.824	1824.5	navigation	Trial1	navigation/STIM_002.jpg	99
82.85	3.934	3934.5	navigation	Trial1	navigation/STIM_002.jpg	100
90.274	3.874	3874.5	navigation	Trial1	navigation/STIM_002.jpg	99
96.533	2.424	2423.9	navigation	Trial1	navigation/STIM_002.jpg	99
101.672	2.359	2358.8	navigation	Trial1	navigation/STIM_002.jpg	100
106.397	4.634	4634.2	navigation	Trial1	navigation/STIM_003.jpg	99
114.139	2.221	2221.0	navigation	Trial1	navigation/STIM_003.jpg	99
119.672	2.393	2393.1	navigation	Trial1	navigation/STIM_003.jpg	99
125.59	2.1	2100.3	navigation	Trial1	navigation/STIM_003.jpg	99
130.029	2.116	2116.0	navigation	Trial1	navigation/STIM_003.jpg	99
136.182	2.709	2709.3	navigation	Trial1	navigation/STIM_003.jpg	99
141.278	2.624	2623.6	navigation	Trial1	navigation/STIM_004.jpg	100
146.534	2.238	2238.2	navigation	Trial1	navigation/STIM_004.jpg	99
151.901	3.274	3274.4	navigation	Trial1	navigation/STIM_004.jpg	99
157.845	3.126	3125.5	navigation	Trial1	navigation/STIM_004.jpg	99
164.862	3.137	3136.7	navigation	Trial1	navigation/STIM_004.jpg	99
170.733	2.509	2509.3	navigation	Trial1	navigation/STIM_004.jpg	100
175.997	2.172	2171.6	navigation	Trial1	navigation/STIM_005.jpg	99
181.634	3.464	3463.7	navigation	Trial1	navigation/STIM_005.jpg	100
187.728	3.55	3550.1	navigation	Trial1	navigation/STIM_005.jpg	99
194.429	2.05	2050.4	navigation	Trial1	navigation/STIM_005.jpg	99
199.658	2.732	2732.0	navigation	Trial1	navigation/STIM_005.jpg	99
206.41	2.597	2597.1	navigation	Trial1	navigation/STIM_005.jpg	100
212.561	4.257	4256.7	navigation	Trial1	navigation/STIM_006.jpg	99
219.662	2.63	2629.7	navigation	Trial1	navigation/STIM_006.jpg	100
226.122	4.158	4158.0	navigation	Trial1	navigation/STIM_006.jpg	99
232.623	3.11	3110.5	navigation	Trial1	navigation/STIM_006.jpg	99
238.035	3.415	3415.0	navigation	Trial1	navigation/STIM_006.jpg	99
244.753	1.851	1850.8	navigation	Trial1	navigation/STIM_006.jpg	100
249.026	3.419	3419.4	navigation	Trial1	navigation/STIM_007.jpg	100
254.742	3.532	3532.4	navigation	Trial1	navigation/STIM_007.jpg	100
261.409	3.62	3620.1	navigation	Trial1	navigation/STIM_007.jpg	100
268.69	2.742	2741.9	navigation	Trial1	navigation/STIM_007.jpg	100
275.091	2.722	2721.7	navigation	Trial1	navigation/STIM_007.jpg	99
281.38	1.883	1882.8	navigation	Trial1	navigation/STIM_007.jpg	100
285.565	4.009	4009.3	navigation	Trial1	navigation/STIM_008.jpg	100
293.039	2.069	2069.1	navigation	Trial1	navigation/STIM_008.jpg	100
298.817	2.649	2649.0	navigation	Trial1	navigation/STIM_008.jpg	100
303.868	3.663	3663.0	navigation	Trial1	navigation/STIM_008.jpg	99
311.592	1.667	1667.2	navigation	Trial1	navigation/STIM_008.jpg	99
315.422	2.991	2991.2	navigation	Trial1	navigation/STIM_008.jpg	99
322.178	3.833	3833.0	navigation	Trial1	navigation/STIM_009.jpg	99
328.193	1.841	1841.1	navigation	Trial1	navigation/STIM_009.jpg	99
333.459	2.977	2976.6	navigation	Trial1	navigation/STIM_009.jpg	100
339.674	3.889	3889.4	navigation	Trial1	navigation/STIM_009.jpg	99
346.719	1.902	1902.0	navigation	Trial1	navigation/STIM_009.jpg	99
352.431	3.454	3453.5	navigation	Trial1	navigation/STIM_009.jpg	100
358.18	3.97	3970.1	navigation	Trial1	navigation/STIM_010.jpg	99
365.583	4.089	4088.9	navigation	Trial1	navigation/STIM_010.jpg	99
372.384	1.98	1979.5	navigation	Trial1	navigation/STIM_010.jpg	99
377.194	3.746	3745.8	navigation	Trial1	navigation/STIM_010.jpg	100
384.381	3.615	3615.1	navigation	Trial1	navigation/STIM_010.jpg	99
390.31	3.0	2999.5	navigation	Trial1	navigation/STIM_010.jpg	99
396.887	2.707	2706.9	navigation	Trial1	navigation/STIM_011.jpg	100
403.209	3.223	3222.6	navigation	Trial1	navigation/STIM_011.jpg	99
409.283	3.515	3515.3	navigation	Trial1	navigation/STIM_011.jpg	99
415.57	2.134	2133.5	navigation	Trial1	navigation/STIM_011.jpg	100
420.391	3.434	3434.2	navigation	Trial1	navigation/STIM_011.jpg	100
426.927	3.531	3530.6	navigation	Trial1	navigation/STIM_011.jpg	100
433.693	1.022	1022.2	pointing	Trial1	pointing/STIM_000.jpg	99
438.489	1.418	1417.9	pointing	Trial1	pointing/STIM_000.jpg	99
442.43	0.801	801.4	pointing	Trial1	pointing/STIM_000.jpg	100
446.496	0.839	839.0	pointing	Trial1	pointing/STIM_000.jpg	100
450.959	1.313	1312.9	pointing	Trial1	pointing/STIM_000.jpg	99
455.899	0.804	804.4	pointing	Trial1	pointing/STIM_000.jpg	99
460.001	0.998	997.9	pointing	Trial1	pointing/STIM_001.jpg	100
464.683	1.431	1430.8	pointing	Trial1	pointing/STIM_001.jpg	100
468.705	1.141	1140.9	pointing	Trial1	pointing/STIM_001.jpg	99
473.117	1.107	1107.2	pointing	Trial1	pointing/STIM_001.jpg	99
477.352	1.342	1342.5	pointing	Trial1	pointing/STIM_001.jpg	99
480.831	1.346	1346.1	pointing	Trial1	pointing/STIM_001.jpg	100
485.84	1.018	1018.1	pointing	Trial1	pointing/STIM_002.jpg	99
489.414	1.332	1331.5	pointing	Trial1	pointing/STIM_002.jpg	99
493.654	0.812	811.7	pointing	Trial1	pointing/STIM_002.jpg	100
497.352	1.18	1179.5	pointing	Trial1	pointing/STIM_002.jpg	100
501.324	0.82	819.9	pointing	Trial1	pointing/STIM_002.jpg	99
505.675	1.194	1194.3	pointing	Trial1	pointing/STIM_002.jpg	100
509.453	1.071	1070.6	pointing	Trial1	pointing/STIM_003.jpg	100
513.625	1.106	1106.0	pointing	Trial1	pointing/STIM_003.jpg	100
518.588	0.926	926.5	pointing	Trial1	pointing/STIM_003.jpg	99
523.037	1.202	1201.7	pointing	Trial1	pointing/STIM_003.jpg	100
527.545	1.256	1255.8	pointing	Trial1	pointing/STIM_003.jpg	99
532.071	1.354	1354.5	pointing	Trial1	pointing/STIM_003.jpg	99
536.42	1.226	1226.5	pointing	Trial1	pointing/STIM_004.jpg	99
541.077	0.777	776.7	pointing	Trial1	pointing/STIM_004.jpg	99
544.701	1.241	1240.8	pointing	Trial1	pointing/STIM_004.jpg	99
549.041	1.191	1191.0	pointing	Trial1	pointing/STIM_004.jpg	99
553.593	0.768	768.1	pointing	Trial1	pointing/STIM_004.jpg	99
557.652	1.056	1055.7	pointing	Trial1	pointing/STIM_004.jpg	99
561.189	1.066	1065.6	pointing	Trial1	pointing/STIM_005.jpg	100
565.268	1.372	1372.1	pointing	Trial1	pointing/STIM_005.jpg	100
568.781	0.777	777.0	pointing	Trial1	pointing/STIM_005.jpg	99
572.01	0.804	804.1	pointing	Trial1	pointing/STIM_005.jpg	99
576.538	0.98	980.5	pointing	Trial1	pointing/STIM_005.jpg	99
580.298	0.918	918.5	pointing	Trial1	pointing/STIM_005.jpg	100
583.383	1.384	1383.6	pointing	Trial1	pointing/STIM_006.jpg	100
588.683	1.059	1059.1	pointing	Trial1	pointing/STIM_006.jpg	99
592.591	1.061	1061.3	pointing	Trial1	pointing/STIM_006.jpg	100
596.79	1.099	1098.8	pointing	Trial1	pointing/STIM_006.jpg	99
600.026	1.34	1339.8	pointing	Trial1	pointing/STIM_006.jpg	100
604.888	1.092	1091.8	pointing	Trial1	pointing/STIM_006.jpg	100
608.665	1.293	1293.0	pointing	Trial1	pointing/STIM_007.jpg	100
612.751	1.433	1433.4	pointing	Trial1	pointing/STIM_007.jpg	99
617.293	1.202	1201.8	pointing	Trial1	pointing/STIM_007.jpg	100
621.043	1.09	1089.5	pointing	Trial1	pointing/STIM_007.jpg	99
625.029	1.362	1362.1	pointing	Trial1	pointing/STIM_007.jpg	100
629.224	1.36	1359.6	pointing	Trial1	pointing/STIM_007.jpg	100
633.797	1.404	1404.1	pointing	Trial1	pointing/STIM_008.jpg	99
638.964	0.782	781.5	pointing	Trial1	pointing/STIM_008.jpg	100
643.741	1.31	1309.7	pointing	Trial1	pointing/STIM_008.jpg	99
648.126	1.281	1281.4	pointing	Trial1	pointing/STIM_008.jpg	99
652.092	0.921	920.8	pointing	Trial1	pointing/STIM_008.jpg	100
655.108	1.395	1395.0	pointing	Trial1	pointing/STIM_008.jpg	99
660.031	0.983	983.1	pointing	Trial1	pointing/STIM_009.jpg	99
664.383	1.163	1162.8	pointing	Trial1	pointing/STIM_009.jpg	100
668.267	1.276	1276.2	pointing	Trial1	pointing/STIM_009.jpg	99
672.238	1.031	1030.6	pointing	Trial1	pointing/STIM_009.jpg	100
676.151	1.304	1304.4	pointing	Trial1	pointing/STIM_009.jpg	99
681.158	1.029	1029.3	pointing	Trial1	pointing/STIM_009.jpg	100
684.78	1.336	1336.4	pointing	Trial1	pointing/STIM_010.jpg	99
688.855	1.176	1175.6	pointing	Trial1	pointing/STIM_010.jpg	99
693.591	0.879	878.7	pointing	Trial1	pointing/STIM_010.jpg	100
698.087	0.941	941.2	pointing	Trial1	pointing/STIM_010.jpg	100
701.797	1.431	1431.4	pointing	Trial1	pointing/STIM_010.jpg	99
707.195	1.052	1051.7	pointing	Trial1	pointing/STIM_010.jpg	100
710.881	0.925	924.9	pointing	Trial1	pointing/STIM_011.jpg	100
714.543	1.397	1396.7	pointing	Trial1	pointing/STIM_011.jpg	100
719.333	0.86	859.6	pointing	Trial1	pointing/STIM_011.jpg	99
722.706	0.771	770.8	pointing	Trial1	pointing/STIM_011.jpg	100
726.454	1.436	1435.5	pointing	Trial1	pointing/STIM_011.jpg	99
731.258	1.008	1008.3	pointing	Trial1	pointing/STIM_011.jpg	99
734.684	1.633	1632.9	navigation	Trial2	navigation/STIM_000.jpg	100
739.862	2.803	2803.4	navigation	Trial2	navigation/STIM_000.jpg	100
745.021	3.132	3132.0	navigation	Trial2	navigation/STIM_000.jpg	99
750.384	2.107	2106.6	navigation	Trial2	navigation/STIM_000.jpg	100
755.034	1.504	1503.8	navigation	Trial2	navigation/STIM_000.jpg	100
759.168	2.839	2838.6	navigation	Trial2	navigation/STIM_000.jpg	99
764.795	2.114	2113.5	navigation	Trial2	navigation/STIM_001.jpg	99
770.645	3.731	3730.8	navigation	Trial2	navigation/STIM_001.jpg	99
777.34	2.024	2024.3	navigation	Trial2	navigation/STIM_001.jpg	99
783.229	2.179	2179.0	navigation	Trial2	navigation/STIM_001.jpg	99
788.857	1.433	1433.3	navigation	Trial2	navigation/STIM_001.jpg	99
793.29	2.166	2166.0	navigation	Trial2	navigation/STIM_001.jpg	99
799.488	3.172	3171.8	navigation	Trial2	navigation/STIM_002.jpg	100
806.53	3.743	3742.9	navigation	Trial2	navigation/STIM_002.jpg	99
813.714	3.594	3594.5	navigation	Trial2	navigation/STIM_002.jpg	99
820.663	2.532	2532.1	navigation	Trial2	navigation/STIM_002.jpg	100
826.116	2.278	2277.9	navigation	Trial2	navigation/STIM_002.jpg	99
830.643	1.962	1961.7	navigation	Trial2	navigation/STIM_002.jpg	99
835.865	3.946	3946.1	navigation	Trial2	navigation/STIM_003.jpg	100
842.465	1.734	1733.7	navigation	Trial2	navigation/STIM_003.jpg	100
847.058	2.675	2675.4	navigation	Trial2	navigation/STIM_003.jpg	99
853.587	1.86	1860.1	navigation	Trial2	navigation/STIM_003.jpg	99
859.265	3.238	3238.0	navigation	Trial2	navigation/STIM_003.jpg	100
865.599	2.995	2995.1	navigation	Trial2	navigation/STIM_003.jpg	99
870.832	2.237	2237.4	navigation	Trial2	navigation/STIM_004.jpg	100
877.02	2.317	2316.8	navigation	Trial2	navigation/STIM_004.jpg	99
882.29	3.247	3246.7	navigation	Trial2	navigation/STIM_004.jpg	99
888.941	1.362	1361.8	navigation	Trial2	navigation/STIM_004.jpg	100
893.03	1.669	1669.1	navigation	Trial2	navigation/STIM_004.jpg	100
896.865	2.584	2583.9	navigation	Trial2	navigation/STIM_004.jpg	99
901.706	1.642	1642.5	navigation	Trial2	navigation/STIM_005.jpg	99
906.605	1.978	1978.2	navigation	Trial2	navigation/STIM_005.jpg	99
911.207	1.743	1743.0	navigation	Trial2	navigation/STIM_005.jpg	99
915.885	2.14	2139.8	navigation	Trial2	navigation/STIM_005.jpg	99
922.087	2.431	2430.8	navigation	Trial2	navigation/STIM_005.jpg	100
928.361	1.899	1899.2	navigation	Trial2	navigation/STIM_005.jpg	100
932.586	2.943	2942.9	navigation	Trial2	navigation/STIM_006.jpg	99
939.522	3.388	3388.3	navigation	Trial2	navigation/STIM_006.jpg	99
946.819	2.326	2325.9	navigation	Trial2	navigation/STIM_006.jpg	99
951.389	2.415	2415.1	navigation	Trial2	navigation/STIM_006.jpg	99
956.057	2.508	2508.1	navigation	Trial2	navigation/STIM_006.jpg	100
962.007	1.438	1437.6	navigation	Trial2	navigation/STIM_006.jpg	100
966.512	2.596	2595.7	navigation	Trial2	navigation/STIM_007.jpg	100
972.604	1.578	1577.6	navigation	Trial2	navigation/STIM_007.jpg	99
976.917	1.844	1844.3	navigation	Trial2	navigation/STIM_007.jpg	100
982.739	1.382	1381.8	navigation	Trial2	navigation/STIM_007.jpg	99
987.272	1.852	1851.6	navigation	Trial2	navigation/STIM_007.jpg	99
992.837	2.289	2288.6	navigation	Trial2	navigation/STIM_007.jpg	99
999.144	3.32	3320.0	navigation	Trial2	navigation/STIM_008.jpg	100
1005.972	3.329	3328.6	navigation	Trial2	navigation/STIM_008.jpg	100
1013.135	1.904	1904.5	navigation	Trial2	navigation/STIM_008.jpg	100
1017.889	2.629	2629.1	navigation	Trial2	navigation/STIM_008.jpg	99
1023.384	1.42	1419.9	navigation	Trial2	navigation/STIM_008.jpg	99
1026.877	3.04	3039.5	navigation	Trial2	navigation/STIM_008.jpg	99
1033.227	2.97	2970.5	navigation	Trial2	navigation/STIM_009.jpg	99
1039.538	3.061	3060.7	navigation	Trial2	navigation/STIM_009.jpg	99
1045.176	2.712	2711.5	navigation	Trial2	navigation/STIM_009.jpg	99
1050.008	2.472	2471.5	navigation	Trial2	navigation/STIM_009.jpg	99
1054.645	2.395	2395.4	navigation	Trial2	navigation/STIM_009.jpg	99
1059.276	2.26	2259.5	navigation	Trial2	navigation/STIM_009.jpg	100
1064.026	2.392	2391.8	navigation	Trial2	navigation/STIM_010.jpg	99
1068.673	2.955	2955.4	navigation	Trial2	navigation/STIM_010.jpg	100
1075.571	2.813	2813.2	navigation	Trial2	navigation/STIM_010.jpg	100
1081.409	1.853	1853.0	navigation	Trial2	navigation/STIM_010.jpg	99
1086.157	1.8	1800.0	navigation	Trial2	navigation/STIM_010.jpg	99
1091.396	2.783	2782.6	navigation	Trial2	navigation/STIM_010.jpg	99
1098.002	2.874	2874.2	navigation	Trial2	navigation/STIM_011.jpg	100
1103.183	1.9	1900.2	navigation	Trial2	navigation/STIM_011.jpg	99
1107.178	2.623	2622.9	navigation	Trial2	navigation/STIM_011.jpg	99
1113.05	1.548	1548.1	navigation	Trial2	navigation/STIM_011.jpg	99
1118.088	2.256	2255.9	navigation	Trial2	navigation/STIM_011.jpg	100
1124.402	2.788	2787.8	navigation	Trial2	navigation/STIM_011.jpg	100
1130.317	1.049	1048.8	pointing	Trial2	pointing/STIM_000.jpg	100
1135.386	0.911	910.8	pointing	Trial2	pointing/STIM_000.jpg	100
1140.279	0.922	921.8	pointing	Trial2	pointing/STIM_000.jpg	100
1143.737	1.06	1059.5	pointing	Trial2	pointing/STIM_000.jpg	99
1148.419	1.362	1362.3	pointing	Trial2	pointing/STIM_000.jpg	100
1153.683	1.18	1180.5	pointing	Trial2	pointing/STIM_000.jpg	99
1158.632	1.394	1393.6	pointing	Trial2	pointing/STIM_001.jpg	100
1162.734	1.249	1249.1	pointing	Trial2	pointing/STIM_001.jpg	99
1166.992	1.289	1289.1	pointing	Trial2	pointing/STIM_001.jpg	99
1172.141	1.38	1380.4	pointing	Trial2	pointing/STIM_001.jpg	100
1177.275	1.092	1092.5	pointing	Trial2	pointing/STIM_001.jpg	100
1181.557	0.863	863.3	pointing	Trial2	pointing/STIM_001.jpg	99
1184.556	1.319	1319.4	pointing	Trial2	pointing/STIM_002.jpg	100
1188.515	1.43	1430.3	pointing	Trial2	pointing/STIM_002.jpg	100
1192.979	0.922	921.5	pointing	Trial2	pointing/STIM_002.jpg	100
1197.433	1.277	1277.0	pointing	Trial2	pointing/STIM_002.jpg	100
1202.325	1.003	1003.3	pointing	Trial2	pointing/STIM_002.jpg	100
1206.452	1.12	1120.0	pointing	Trial2	pointing/STIM_002.jpg	99
1209.81	1.26	1259.8	pointing	Trial2	pointing/STIM_003.jpg	100
1214.67	1.084	1084.5	pointing	Trial2	pointing/STIM_003.jpg	99
1218.756	1.138	1137.5	pointing	Trial2	pointing/STIM_003.jpg	99
1223.217	1.415	1415.0	pointing	Trial2	pointing/STIM_003.jpg	100
1226.884	1.281	1281.3	pointing	Trial2	pointing/STIM_003.jpg	100
1231.803	0.909	908.8	pointing	Trial2	pointing/STIM_003.jpg	100
1235.768	0.848	847.6	pointing	Trial2	pointing/STIM_004.jpg	100
1239.565	1.314	1313.7	pointing	Trial2	pointing/STIM_004.jpg	100
1242.945	1.123	1122.8	pointing	Trial2	pointing/STIM_004.jpg	100
1247.632	1.118	1117.7	pointing	Trial2	pointing/STIM_004.jpg	99
1250.964	1.399	1399.2	pointing	Trial2	pointing/STIM_004.jpg	100
1255.103	1.198	1198.3	pointing	Trial2	pointing/STIM_004.jpg	99
1260.064	1.168	1167.5	pointing	Trial2	pointing/STIM_005.jpg	99
1264.834	1.213	1213.3	pointing	Trial2	pointing/STIM_005.jpg	100
1268.985	1.046	1045.5	pointing	Trial2	pointing/STIM_005.jpg	99
1272.321	0.768	767.8	pointing	Trial2	pointing/STIM_005.jpg	99
1275.324	0.847	846.6	pointing	Trial2	pointing/STIM_005.jpg	99
1278.627	1.165	1165.3	pointing	Trial2	pointing/STIM_005.jpg	99
1282.896	0.976	975.9	pointing	Trial2	pointing/STIM_006.jpg	99
1287.461	1.043	1043.4	pointing	Trial2	pointing/STIM_006.jpg	99
1290.989	1.342	1341.7	pointing	Trial2	pointing/STIM_006.jpg	99
1296.337	1.091	1091.3	pointing	Trial2	pointing/STIM_006.jpg	100
1300.018	1.279	1279.2	pointing	Trial2	pointing/STIM_006.jpg	100
1303.552	0.781	781.2	pointing	Trial2	pointing/STIM_006.jpg	99
1306.671	1.242	1241.8	pointing	Trial2	pointing/STIM_007.jpg	99
1310.542	0.931	931.2	pointing	Trial2	pointing/STIM_007.jpg	100
1314.872	1.341	1341.4	pointing	Trial2	pointing/STIM_007.jpg	99
1319.171	1.412	1411.9	pointing	Trial2	pointing/STIM_007.jpg	100
1323.945	0.842	841.6	pointing	Trial2	pointing/STIM_007.jpg	99
1327.954	0.994	994.4	pointing	Trial2	pointing/STIM_007.jpg	99
1331.731	1.337	1336.8	pointing	Trial2	pointing/STIM_008.jpg	100
1335.467	0.819	819.3	pointing	Trial2	pointing/STIM_008.jpg	100
1340.022	1.028	1027.5	pointing	Trial2	pointing/STIM_008.jpg	100
1343.288	1.271	1270.8	pointing	Trial2	pointing/STIM_008.jpg	100
1348.051	0.786	785.9	pointing	Trial2	pointing/STIM_008.jpg	99
1351.13	0.775	774.9	pointing	Trial2	pointing/STIM_008.jpg	99
1354.467	1.076	1076.2	pointing	Trial2	pointing/STIM_009.jpg	99
1358.225	1.218	1218.0	pointing	Trial2	pointing/STIM_009.jpg	99
1362.635	0.832	831.8	pointing	Trial2	pointing/STIM_009.jpg	99
1367.232	1.01	1009.6	pointing	Trial2	pointing/STIM_009.jpg	100
1371.149	1.24	1239.7	pointing	Trial2	pointing/STIM_009.jpg	99
1374.611	1.268	1267.5	pointing	Trial2	pointing/STIM_009.jpg	99
1378.762	1.33	1329.8	pointing	Trial2	pointing/STIM_010.jpg	100
1384.129	1.13	1129.6	pointing	Trial2	pointing/STIM_010.jpg	99
1387.538	1.193	1193.4	pointing	Trial2	pointing/STIM_010.jpg	100
1391.373	0.808	807.5	pointing	Trial2	pointing/STIM_010.jpg	100
1394.599	1.085	1085.4	pointing	Trial2	pointing/STIM_010.jpg	99
1398.953	1.15	1150.2	pointing	Trial2	pointing/STIM_010.jpg	100
1403.321	0.837	836.9	pointing	Trial2	pointing/STIM_011.jpg	99
1406.619	1.296	1296.3	pointing	Trial2	pointing/STIM_011.jpg	100
1411.723	1.367	1367.4	pointing	Trial2	pointing/STIM_011.jpg	99
1415.992	1.085	1085.1	pointing	Trial2	pointing/STIM_011.jpg	99
1420.594	1.418	1417.5	pointing	Trial2	pointing/STIM_011.jpg	100
1425.297	1.246	1245.9	pointing	Trial2	pointing/STIM_011.jpg	99
1430.536	1.685	1684.7	navigation	Trial3	navigation/STIM_000.jpg	99
1434.431	3.009	3009.3	navigation	Trial3	navigation/STIM_000.jpg	99
1441.452	3.314	3314.4	navigation	Trial3	navigation/STIM_000.jpg	99
1447.443	2.201	2201.2	navigation	Trial3	navigation/STIM_000.jpg	100
1452.948	1.591	1590.8	navigation	Trial3	navigation/STIM_000.jpg	99
1458.153	2.889	2889.4	navigation	Trial3	navigation/STIM_000.jpg	99
1464.499	1.484	1484.2	navigation	Trial3	navigation/STIM_001.jpg	99
1469.778	2.971	2971.2	navigation	Trial3	navigation/STIM_001.jpg	100
1475.106	1.678	1678.3	navigation	Trial3	navigation/STIM_001.jpg	100
1480.77	2.561	2561.3	navigation	Trial3	navigation/STIM_001.jpg	100
1486.982	1.64	1640.0	navigation	Trial3	navigation/STIM_001.jpg	99
1490.772	3.047	3047.0	navigation	Trial3	navigation/STIM_001.jpg	99
1497.297	2.802	2801.9	navigation	Trial3	navigation/STIM_002.jpg	100
1502.895	1.731	1731.4	navigation	Trial3	navigation/STIM_002.jpg	100
1508.576	2.373	2372.8	navigation	Trial3	navigation/STIM_002.jpg	99
1514.296	3.346	3345.6	navigation	Trial3	navigation/STIM_002.jpg	99
1520.088	2.059	2058.7	navigation	Trial3	navigation/STIM_002.jpg	100
1525.108	2.699	2699.0	navigation	Trial3	navigation/STIM_002.jpg	100
1530.671	2.514	2513.5	navigation	Trial3	navigation/STIM_003.jpg	99
1537.068	2.134	2134.2	navigation	Trial3	navigation/STIM_003.jpg	99
1541.42	2.503	2503.1	navigation	Trial3	navigation/STIM_003.jpg	100
1547.12	2.227	2226.7	navigation	Trial3	navigation/STIM_003.jpg	100
1552.818	1.768	1767.8	navigation	Trial3	navigation/STIM_003.jpg	99
1558.19	2.596	2595.6	navigation	Trial3	navigation/STIM_003.jpg	99
1564.866	1.373	1373.0	navigation	Trial3	navigation/STIM_004.jpg	99
1569.513	2.456	2455.5	navigation	Trial3	navigation/STIM_004.jpg	99
1575.615	3.103	3103.2	navigation	Trial3	navigation/STIM_004.jpg	99
1581.4	2.521	2520.8	navigation	Trial3	navigation/STIM_004.jpg	99
1587.84	1.382	1382.3	navigation	Trial3	navigation/STIM_004.jpg	99
1592.265	2.36	2359.6	navigation	Trial3	navigation/STIM_004.jpg	100
1598.124	1.929	1929.1	navigation	Trial3	navigation/STIM_005.jpg	100
1602.985	2.992	2991.8	navigation	Trial3	navigation/STIM_005.jpg	100
1609.315	1.37	1369.8	navigation	Trial3	navigation/STIM_005.jpg	100
1613.152	3.329	3328.7	navigation	Trial3	navigation/STIM_005.jpg	100
1620.096	2.829	2828.8	navigation	Trial3	navigation/STIM_005.jpg	100
1626.55	1.998	1997.5	navigation	Trial3	navigation/STIM_005.jpg	99
1631.187	2.011	2010.8	navigation	Trial3	navigation/STIM_006.jpg	99
1635.726	3.14	3140.2	navigation	Trial3	navigation/STIM_006.jpg	99
1641.724	1.985	1984.8	navigation	Trial3	navigation/STIM_006.jpg	99
1647.329	1.867	1867.2	navigation	Trial3	navigation/STIM_006.jpg	100
1651.373	2.11	2109.6	navigation	Trial3	navigation/STIM_006.jpg	99
1657.223	2.804	2804.0	navigation	Trial3	navigation/STIM_006.jpg	99
1663.714	1.373	1372.9	navigation	Trial3	navigation/STIM_007.jpg	99
1668.626	2.978	2977.7	navigation	Trial3	navigation/STIM_007.jpg	99
1674.012	2.871	2871.3	navigation	Trial3	navigation/STIM_007.jpg	100
1679.099	2.783	2783.3	navigation	Trial3	navigation/STIM_007.jpg	100
1684.163	2.866	2865.8	navigation	Trial3	navigation/STIM_007.jpg	100
1690.802	2.682	2681.6	navigation	Trial3	navigation/STIM_007.jpg	99
1695.787	3.192	3192.4	navigation	Trial3	navigation/STIM_008.jpg	99
1702.138	1.636	1635.5	navigation	Trial3	navigation/STIM_008.jpg	100
1707.48	2.974	2974.4	navigation	Trial3	navigation/STIM_008.jpg	100
1713.872	1.68	1680.2	navigation	Trial3	navigation/STIM_008.jpg	99
1719.05	2.531	2531.1	navigation	Trial3	navigation/STIM_008.jpg	99
1723.886	1.565	1565.4	navigation	Trial3	navigation/STIM_008.jpg	99
1728.42	1.707	1707.0	navigation	Trial3	navigation/STIM_009.jpg	100
1732.336	1.877	1877.3	navigation	Trial3	navigation/STIM_009.jpg	100
1737.5	2.355	2355.0	navigation	Trial3	navigation/STIM_009.jpg	99
1743.504	3.252	3252.0	navigation	Trial3	navigation/STIM_009.jpg	100
1750.542	3.27	3270.1	navigation	Trial3	navigation/STIM_009.jpg	100
1756.199	2.238	2238.1	navigation	Trial3	navigation/STIM_009.jpg	99
1761.426	2.322	2321.6	navigation	Trial3	navigation/STIM_010.jpg	99
1766.678	2.442	2441.9	navigation	Trial3	navigation/STIM_010.jpg	100
1772.151	2.485	2485.4	navigation	Trial3	navigation/STIM_010.jpg	100
1777.126	1.584	1583.7	navigation	Trial3	navigation/STIM_010.jpg	99
1781.436	1.713	1713.2	navigation	Trial3	navigation/STIM_010.jpg	99
1785.978	2.956	2956.2	navigation	Trial3	navigation/STIM_010.jpg	100
1792.386	2.898	2898.2	navigation	Trial3	navigation/STIM_011.jpg	100
1799.152	1.724	1723.5	navigation	Trial3	navigation/STIM_011.jpg	99
1803.167	3.052	3052.3	navigation	Trial3	navigation/STIM_011.jpg	100
1809.51	1.701	1700.8	navigation	Trial3	navigation/STIM_011.jpg	99
1813.609	2.897	2897.3	navigation	Trial3	navigation/STIM_011.jpg	100
1820.511	2.096	2096.3	navigation	Trial3	navigation/STIM_011.jpg	99
1824.72	0.825	825.4	pointing	Trial3	pointing/STIM_000.jpg	99
1829.519	1.374	1374.2	pointing	Trial3	pointing/STIM_000.jpg	100
1833.399	1.272	1271.6	pointing	Trial3	pointing/STIM_000.jpg	99
1837.387	1.023	1022.9	pointing	Trial3	pointing/STIM_000.jpg	99
1840.566	1.293	1293.3	pointing	Trial3	pointing/STIM_000.jpg	99
1844.008	1.383	1383.2	pointing	Trial3	pointing/STIM_000.jpg	99
1849.397	0.823	823.4	pointing	Trial3	pointing/STIM_001.jpg	100
1853.267	1.109	1108.6	pointing	Trial3	pointing/STIM_001.jpg	100
1857.872	1.431	1431.4	pointing	Trial3	pointing/STIM_001.jpg	100
1862.147	1.39	1390.3	pointing	Trial3	pointing/STIM_001.jpg	99
1866.066	1.307	1306.6	pointing	Trial3	pointing/STIM_001.jpg	100
1870.641	1.255	1255.4	pointing	Trial3	pointing/STIM_001.jpg	100
1874.142	0.963	962.8	pointing	Trial3	pointing/STIM_002.jpg	100
1879.117	1.014	1013.6	pointing	Trial3	pointing/STIM_002.jpg	100
1883.365	1.367	1366.9	pointing	Trial3	pointing/STIM_002.jpg	100
1888.174	0.883	883.0	pointing	Trial3	pointing/STIM_002.jpg	99
1892.201	1.399	1399.0	pointing	Trial3	pointing/STIM_002.jpg	99
1897.0	1.268	1268.5	pointing	Trial3	pointing/STIM_002.jpg	100
1901.375	1.38	1379.8	pointing	Trial3	pointing/STIM_003.jpg	99
1905.738	1.317	1316.8	pointing	Trial3	pointing/STIM_003.jpg	100
1910.209	0.987	986.7	pointing	Trial3	pointing/STIM_003.jpg	100
1915.054	1.037	1037.3	pointing	Trial3	pointing/STIM_003.jpg	100
1918.328	1.376	1376.5	pointing	Trial3	pointing/STIM_003.jpg	99
1921.951	1.094	1093.5	pointing	Trial3	pointing/STIM_003.jpg	100
1926.398	1.419	1418.7	pointing	Trial3	pointing/STIM_004.jpg	99
1930.985	0.858	858.2	pointing	Trial3	pointing/STIM_004.jpg	100
1934.718	1.339	1339.4	pointing	Trial3	pointing/STIM_004.jpg	99
1939.63	0.877	876.9	pointing	Trial3	pointing/STIM_004.jpg	100
1942.778	1.009	1008.9	pointing	Trial3	pointing/STIM_004.jpg	99
1947.799	0.817	816.7	pointing	Trial3	pointing/STIM_004.jpg	99
1950.78	0.855	855.2	pointing	Trial3	pointing/STIM_005.jpg	99
1953.845	1.042	1041.7	pointing	Trial3	pointing/STIM_005.jpg	99
1957.872	1.111	1111.0	pointing	Trial3	pointing/STIM_005.jpg	99
1962.914	1.186	1186.4	pointing	Trial3	pointing/STIM_005.jpg	99
1967.37	0.996	996.5	pointing	Trial3	pointing/STIM_005.jpg	99
1970.64	0.838	838.1	pointing	Trial3	pointing/STIM_005.jpg	100
1973.725	1.404	1403.9	pointing	Trial3	pointing/STIM_006.jpg	99
1978.607	1.363	1362.6	pointing	Trial3	pointing/STIM_006.jpg	100
1982.908	1.01	1009.9	pointing	Trial3	pointing/STIM_006.jpg	100
1986.754	1.086	1085.6	pointing	Trial3	pointing/STIM_006.jpg	100
1990.048	1.053	1053.3	pointing	Trial3	pointing/STIM_006.jpg	99
1993.308	0.832	831.9	pointing	Trial3	pointing/STIM_006.jpg	100
1996.76	1.34	1339.8	pointing	Trial3	pointing/STIM_007.jpg	100
2000.988	1.19	1190.2	pointing	Trial3	pointing/STIM_007.jpg	99
2004.332	0.926	926.2	pointing	Trial3	pointing/STIM_007.jpg	99
2007.569	0.771	771.3	pointing	Trial3	pointing/STIM_007.jpg	99
2011.017	0.969	968.6	pointing	Trial3	pointing/STIM_007.jpg	99
2015.737	1.057	1057.2	pointing	Trial3	pointing/STIM_007.jpg	99
2019.427	1.414	1414.1	pointing	Trial3	pointing/STIM_008.jpg	100
2023.152	1.197	1196.9	pointing	Trial3	pointing/STIM_008.jpg	99
2028.132	0.999	998.9	pointing	Trial3	pointing/STIM_008.jpg	99
2033.08	1.253	1252.8	pointing	Trial3	pointing/STIM_008.jpg	100
2037.019	1.081	1080.6	pointing	Trial3	pointing/STIM_008.jpg	100
2041.215	1.241	1241.3	pointing	Trial3	pointing/STIM_008.jpg	100
2046.486	1.217	1217.2	pointing	Trial3	pointing/STIM_009.jpg	100
2049.814	0.797	797.0	pointing	Trial3	pointing/STIM_009.jpg	100
2053.922	0.812	811.8	pointing	Trial3	pointing/STIM_009.jpg	100
2057.91	1.331	1331.1	pointing	Trial3	pointing/STIM_009.jpg	100
2061.356	0.964	963.5	pointing	Trial3	pointing/STIM_009.jpg	99
2065.75	1.204	1204.5	pointing	Trial3	pointing/STIM_009.jpg	99
2070.774	0.99	990.4	pointing	Trial3	pointing/STIM_010.jpg	99
2074.744	0.83	830.1	pointing	Trial3	pointing/STIM_010.jpg	99
2078.263	1.414	1413.5	pointing	Trial3	pointing/STIM_010.jpg	100
2082.48	0.898	897.5	pointing	Trial3	pointing/STIM_010.jpg	99
2085.584	1.115	1115.4	pointing	Trial3	pointing/STIM_010.jpg	99
2089.675	1.212	1211.7	pointing	Trial3	pointing/STIM_010.jpg	99
2094.358	1.047	1047.3	pointing	Trial3	pointing/STIM_011.jpg	99
2098.556	0.894	894.0	pointing	Trial3	pointing/STIM_011.jpg	100
2102.984	1.37	1370.1	pointing	Trial3	pointing/STIM_011.jpg	99
2106.587	1.024	1024.2	pointing	Trial3	pointing/STIM_011.jpg	100
2110.045	1.298	1298.2	pointing	Trial3	pointing/STIM_011.jpg	100
2113.998	1.287	1286.6	pointing	Trial3	pointing/STIM_011.jpg	100
