onset	duration	accuracy	trial_type	learning_stage	stimulus
0.0	0.818	correct	study	Phase1	study/STIM_000.jpg
4.753	0.855	correct	study	Phase1	study/STIM_000.jpg
9.271	0.677	correct	study	Phase1	study/STIM_000.jpg
13.506	1.151	correct	study	Phase1	study/STIM_001.jpg
17.041	0.836	correct	study	Phase1	study/STIM_001.jpg
21.888	1.18	correct	study	Phase1	study/STIM_001.jpg
27.173	1.389	correct	study	Phase1	study/STIM_002.jpg
30.878	0.881	correct	study	Phase1	study/STIM_002.jpg
34.606	0.913	correct	study	Phase1	study/STIM_002.jpg
39.16	1.272	correct	study	Phase1	study/STIM_003.jpg
43.327	0.745	correct	study	Phase1	study/STIM_003.jpg
46.611	0.914	correct	study	Phase1	study/STIM_003.jpg
50.371	0.719	correct	study	Phase1	study/STIM_004.jpg
54.954	1.168	incorrect	study	Phase1	study/STIM_004.jpg
59.351	1.172	correct	study	Phase1	study/STIM_004.jpg
64.595	0.89	incorrect	study	Phase1	study/STIM_005.jpg
69.622	0.672	correct	study	Phase1	study/STIM_005.jpg
73.281	1.245	incorrect	study	Phase1	study/STIM_005.jpg
77.938	1.443	correct	study	Phase1	study/STIM_006.jpg
81.862	1.458	correct	study	Phase1	study/STIM_006.jpg
86.967	0.92	correct	study	Phase1	study/STIM_006.jpg
91.891	1.307	correct	study	Phase1	study/STIM_007.jpg
96.591	0.728	correct	study	Phase1	study/STIM_007.jpg
101.01	0.636	correct	study	Phase1	study/STIM_007.jpg
104.773	0.828	correct	study	Phase1	study/STIM_008.jpg
108.541	1.071	incorrect	study	Phase1	study/STIM_008.jpg
112.764	0.898	correct	study	Phase1	study/STIM_008.jpg
117.552	0.922	incorrect	study	Phase1	study/STIM_009.jpg
121.773	0.809	correct	study	Phase1	study/STIM_009.jpg
126.436	0.996	correct	study	Phase1	study/STIM_009.jpg
131.13	0.71	correct	study	Phase1	study/STIM_010.jpg
134.781	1.095	correct	study	Phase1	study/STIM_010.jpg
139.159	0.661	correct	study	Phase1	study/STIM_010.jpg
143.507	1.076	correct	study	Phase1	study/STIM_011.jpg
147.273	1.17	correct	study	Phase1	study/STIM_011.jpg
151.957	1.206	correct	study	Phase1	study/STIM_011.jpg
155.823	1.025	correct	study	Phase1	study/STIM_012.jpg
160.143	0.688	correct	study	Phase1	study/STIM_012.jpg
163.127	1.233	correct	study	Phase1	study/STIM_012.jpg
167.152	1.114	correct	study	Phase1	study/STIM_013.jpg
171.088	0.776	correct	study	Phase1	study/STIM_013.jpg
175.395	1.051	incorrect	study	Phase1	study/STIM_013.jpg
180.538	1.417	correct	study	Phase1	study/STIM_014.jpg
184.65	1.325	correct	study	Phase1	study/STIM_014.jpg
188.996	0.928	correct	study	Phase1	study/STIM_014.jpg
192.412	1.487	correct	study	Phase1	study/STIM_015.jpg
197.738	0.948	correct	study	Phase1	study/STIM_015.jpg
202.351	0.948	correct	study	Phase1	study/STIM_015.jpg
206.626	0.736	correct	study	Phase1	study/STIM_016.jpg
211.223	0.876	correct	study	Phase1	study/STIM_016.jpg
215.741	0.985	correct	study	Phase1	study/STIM_016.jpg
219.695	1.138	correct	study	Phase1	study/STIM_017.jpg
223.869	0.813	correct	study	Phase1	study/STIM_017.jpg
228.042	1.375	correct	study	Phase1	study/STIM_017.jpg
231.882	1.122	correct	study	Phase1	study/STIM_018.jpg
236.419	0.807	correct	study	Phase1	study/STIM_018.jpg
240.588	0.965	correct	study	Phase1	study/STIM_018.jpg
245.285	1.411	correct	study	Phase1	study/STIM_019.jpg
250.566	0.965	correct	study	Phase1	study/STIM_019.jpg
254.162	1.094	correct	study	Phase1	study/STIM_019.jpg
258.628	1.526	correct	study	Phase1	study/STIM_020.jpg
264.208	1.024	correct	study	Phase1	study/STIM_020.jpg
267.986	0.652	correct	study	Phase1	study/STIM_020.jpg
272.049	1.044	correct	study	Phase1	study/STIM_021.jpg
275.915	0.718	incorrect	study	Phase1	study/STIM_021.jpg
279.852	1.368	correct	study	Phase1	study/STIM_021.jpg
284.812	1.384	correct	study	Phase1	study/STIM_022.jpg
290.295	0.922	correct	study	Phase1	study/STIM_022.jpg
293.381	1.101	correct	study	Phase1	study/STIM_022.jpg
297.232	0.782	correct	study	Phase1	study/STIM_023.jpg
300.298	1.088	correct	study	Phase1	study/STIM_023.jpg
303.7	0.701	correct	study	Phase1	study/STIM_023.jpg
307.086	1.468	correct	study	Phase1	study/STIM_024.jpg
311.689	0.793	incorrect	study	Phase1	study/STIM_024.jpg
314.984	0.775	correct	study	Phase1	study/STIM_024.jpg
319.476	1.089	correct	study	Phase1	study/STIM_025.jpg
323.503	0.819	correct	study	Phase1	study/STIM_025.jpg
326.615	0.756	correct	study	Phase1	study/STIM_025.jpg
329.935	0.985	correct	study	Phase1	study/STIM_026.jpg
334.112	1.187	correct	study	Phase1	study/STIM_026.jpg
338.553	1.203	correct	study	Phase1	study/STIM_026.jpg
343.908	1.175	correct	study	Phase1	study/STIM_027.jpg
348.204	1.343	correct	study	Phase1	study/STIM_027.jpg
353.663	0.85	correct	study	Phase1	study/STIM_027.jpg
357.939	1.364	correct	study	Phase1	study/STIM_028.jpg
362.093	1.334	correct	study	Phase1	study/STIM_028.jpg
367.083	1.375	correct	study	Phase1	study/STIM_028.jpg
371.531	0.823	correct	study	Phase1	study/STIM_029.jpg
375.762	0.803	correct	study	Phase1	study/STIM_029.jpg
380.66	0.87	correct	study	Phase1	study/STIM_029.jpg
384.472	0.668	correct	test	Phase1	test/STIM_000.jpg
387.511	0.917	correct	test	Phase1	test/STIM_000.jpg
391.814	0.692	correct	test	Phase1	test/STIM_000.jpg
394.956	0.901	correct	test	Phase1	test/STIM_001.jpg
398.813	0.876	correct	test	Phase1	test/STIM_001.jpg
403.465	0.826	correct	test	Phase1	test/STIM_001.jpg
407.445	0.82	incorrect	test	Phase1	test/STIM_002.jpg
412.163	0.871	correct	test	Phase1	test/STIM_002.jpg
415.65	1.063	correct	test	Phase1	test/STIM_002.jpg
419.95	0.987	correct	test	Phase1	test/STIM_003.jpg
423.663	1.1	incorrect	test	Phase1	test/STIM_003.jpg
427.023	1.014	correct	test	Phase1	test/STIM_003.jpg
431.638	1.019	correct	test	Phase1	test/STIM_004.jpg
435.025	1.09	correct	test	Phase1	test/STIM_004.jpg
440.143	1.053	correct	test	Phase1	test/STIM_004.jpg
444.634	0.726	correct	test	Phase1	test/STIM_005.jpg
448.86	1.0	correct	test	Phase1	test/STIM_005.jpg
452.134	0.598	correct	test	Phase1	test/STIM_005.jpg
456.151	0.849	correct	test	Phase1	test/STIM_006.jpg
460.233	0.676	correct	test	Phase1	test/STIM_006.jpg
463.683	0.896	correct	test	Phase1	test/STIM_006.jpg
466.879	0.665	correct	test	Phase1	test/STIM_007.jpg
470.04	0.574	incorrect	test	Phase1	test/STIM_007.jpg
474.469	0.694	correct	test	Phase1	test/STIM_007.jpg
477.903	1.102	correct	test	Phase1	test/STIM_008.jpg
482.161	0.98	incorrect	test	Phase1	test/STIM_008.jpg
486.059	0.917	incorrect	test	Phase1	test/STIM_008.jpg
489.584	1.062	correct	test	Phase1	test/STIM_009.jpg
492.948	0.96	correct	test	Phase1	test/STIM_009.jpg
496.974	0.578	correct	test	Phase1	test/STIM_009.jpg
500.573	0.713	correct	test	Phase1	test/STIM_010.jpg
505.341	0.755	correct	test	Phase1	test/STIM_010.jpg
508.421	1.04	correct	test	Phase1	test/STIM_010.jpg
512.686	0.621	correct	test	Phase1	test/STIM_011.jpg
516.009	1.105	correct	test	Phase1	test/STIM_011.jpg
520.15	0.612	incorrect	test	Phase1	test/STIM_011.jpg
524.291	0.831	correct	test	Phase1	test/STIM_012.jpg
527.86	0.631	correct	test	Phase1	test/STIM_012.jpg
532.555	0.961	correct	test	Phase1	test/STIM_012.jpg
536.507	1.03	correct	test	Phase1	test/STIM_013.jpg
540.735	0.632	correct	test	Phase1	test/STIM_013.jpg
544.472	0.832	correct	test	Phase1	test/STIM_013.jpg
548.926	1.088	correct	test	Phase1	test/STIM_014.jpg
553.125	0.879	correct	test	Phase1	test/STIM_014.jpg
556.995	0.715	correct	test	Phase1	test/STIM_014.jpg
560.901	0.874	incorrect	test	Phase1	test/STIM_015.jpg
564.429	0.714	correct	test	Phase1	test/STIM_015.jpg
567.355	1.042	correct	test	Phase1	test/STIM_015.jpg
571.9	0.7	correct	test	Phase1	test/STIM_016.jpg
576.19	0.682	incorrect	test	Phase1	test/STIM_016.jpg
580.803	0.757	correct	test	Phase1	test/STIM_016.jpg
585.547	0.715	correct	test	Phase1	test/STIM_017.jpg
589.896	1.066	correct	test	Phase1	test/STIM_017.jpg
594.643	0.892	correct	test	Phase1	test/STIM_017.jpg
599.03	0.677	correct	test	Phase1	test/STIM_018.jpg
603.243	0.914	correct	test	Phase1	test/STIM_018.jpg
606.681	0.801	incorrect	test	Phase1	test/STIM_018.jpg
610.131	0.707	correct	test	Phase1	test/STIM_019.jpg
613.954	0.734	correct	test	Phase1	test/STIM_019.jpg
618.229	0.807	correct	test	Phase1	test/STIM_019.jpg
622.813	0.615	correct	test	Phase1	test/STIM_020.jpg
625.576	0.516	correct	test	Phase1	test/STIM_020.jpg
629.209	0.7	correct	test	Phase1	test/STIM_020.jpg
633.999	0.532	correct	test	Phase1	test/STIM_021.jpg
638.333	0.844	correct	test	Phase1	test/STIM_021.jpg
642.712	0.792	correct	test	Phase1	test/STIM_021.jpg
646.421	0.981	correct	test	Phase1	test/STIM_022.jpg
650.997	0.659	correct	test	Phase1	test/STIM_022.jpg
653.941	0.783	correct	test	Phase1	test/STIM_022.jpg
657.986	0.754	correct	test	Phase1	test/STIM_023.jpg
661.421	0.97	correct	test	Phase1	test/STIM_023.jpg
665.524	0.74	correct	test	Phase1	test/STIM_023.jpg
669.507	0.91	incorrect	test	Phase1	test/STIM_024.jpg
674.151	0.701	correct	test	Phase1	test/STIM_024.jpg
677.238	1.022	correct	test	Phase1	test/STIM_024.jpg
680.907	1.02	correct	test	Phase1	test/STIM_025.jpg
684.988	1.102	incorrect	test	Phase1	test/STIM_025.jpg
688.479	0.949	correct	test	Phase1	test/STIM_025.jpg
691.711	1.001	correct	test	Phase1	test/STIM_026.jpg
696.744	0.582	correct	test	Phase1	test/STIM_026.jpg
699.865	0.75	correct	test	Phase1	test/STIM_026.jpg
703.644	0.579	correct	test	Phase1	test/STIM_027.jpg
706.465	0.805	correct	test	Phase1	test/STIM_027.jpg
710.589	0.784	correct	test	Phase1	test/STIM_027.jpg
713.715	0.961	correct	test	Phase1	test/STIM_028.jpg
716.908	1.102	correct	test	Phase1	test/STIM_028.jpg
720.615	1.013	correct	test	Phase1	test/STIM_028.jpg
724.951	1.04	correct	test	Phase1	test/STIM_029.jpg
730.061	0.546	correct	test	Phase1	test/STIM_029.jpg
733.393	0.535	correct	test	Phase1	test/STIM_029.jpg
736.291	1.199	correct	study	Phase2	study/STIM_000.jpg
741.179	0.719	correct	study	Phase2	study/STIM_000.jpg
745.621	0.874	correct	study	Phase2	study/STIM_000.jpg
749.113	0.706	correct	study	Phase2	study/STIM_001.jpg
753.163	0.893	correct	study	Phase2	study/STIM_001.jpg
757.078	0.908	correct	study	Phase2	study/STIM_001.jpg
760.864	0.753	correct	study	Phase2	study/STIM_002.jpg
764.96	0.75	correct	study	Phase2	study/STIM_002.jpg
768.206	0.614	incorrect	study	Phase2	study/STIM_002.jpg
771.264	0.929	correct	study	Phase2	study/STIM_003.jpg
776.113	0.713	correct	study	Phase2	study/STIM_003.jpg
779.296	0.742	correct	study	Phase2	study/STIM_003.jpg
783.51	0.733	correct	study	Phase2	study/STIM_004.jpg
787.267	0.642	correct	study	Phase2	study/STIM_004.jpg
790.187	0.993	correct	study	Phase2	study/STIM_004.jpg
794.965	1.034	correct	study	Phase2	study/STIM_005.jpg
798.989	1.005	incorrect	study	Phase2	study/STIM_005.jpg
803.949	0.82	correct	study	Phase2	study/STIM_005.jpg
807.925	0.908	correct	study	Phase2	study/STIM_006.jpg
811.715	1.046	correct	study	Phase2	study/STIM_006.jpg
816.65	0.589	correct	study	Phase2	study/STIM_006.jpg
819.741	0.589	correct	study	Phase2	study/STIM_007.jpg
823.017	1.098	correct	study	Phase2	study/STIM_007.jpg
826.474	0.72	correct	study	Phase2	study/STIM_007.jpg
830.51	0.972	correct	study	Phase2	study/STIM_008.jpg
835.471	0.833	correct	study	Phase2	study/STIM_008.jpg
840.285	0.858	correct	study	Phase2	study/STIM_008.jpg
844.097	1.127	correct	study	Phase2	study/STIM_009.jpg
848.915	1.053	correct	study	Phase2	study/STIM_009.jpg
853.678	1.059	correct	study	Phase2	study/STIM_009.jpg
858.208	1.281	correct	study	Phase2	study/STIM_010.jpg
863.265	1.013	correct	study	Phase2	study/STIM_010.jpg
867.55	0.547	correct	study	Phase2	study/STIM_010.jpg
870.415	1.108	correct	study	Phase2	study/STIM_011.jpg
874.062	0.713	correct	study	Phase2	study/STIM_011.jpg
878.071	0.888	correct	study	Phase2	study/STIM_011.jpg
881.548	0.756	correct	study	Phase2	study/STIM_012.jpg
885.882	0.607	correct	study	Phase2	study/STIM_012.jpg
889.849	0.693	correct	study	Phase2	study/STIM_012.jpg
893.066	0.714	correct	study	Phase2	study/STIM_013.jpg
897.716	0.792	correct	study	Phase2	study/STIM_013.jpg
900.893	1.109	correct	study	Phase2	study/STIM_013.jpg
905.126	1.225	correct	study	Phase2	study/STIM_014.jpg
909.524	1.178	incorrect	study	Phase2	study/STIM_014.jpg
913.688	0.884	correct	study	Phase2	study/STIM_014.jpg
918.651	1.142	correct	study	Phase2	study/STIM_015.jpg
923.754	0.832	correct	study	Phase2	study/STIM_015.jpg
927.088	0.934	correct	study	Phase2	study/STIM_015.jpg
931.727	0.88	correct	study	Phase2	study/STIM_016.jpg
936.253	0.836	correct	study	Phase2	study/STIM_016.jpg
940.943	0.599	correct	study	Phase2	study/STIM_016.jpg
945.535	1.168	correct	study	Phase2	study/STIM_017.jpg
950.626	0.757	correct	study	Phase2	study/STIM_017.jpg
953.936	0.65	correct	study	Phase2	study/STIM_017.jpg
958.512	0.944	correct	study	Phase2	study/STIM_018.jpg
963.144	0.768	correct	study	Phase2	study/STIM_018.jpg
966.424	0.932	incorrect	study	Phase2	study/STIM_018.jpg
970.025	0.998	incorrect	study	Phase2	study/STIM_019.jpg
973.752	0.67	correct	study	Phase2	study/STIM_019.jpg
977.505	0.915	correct	study	Phase2	study/STIM_019.jpg
980.854	1.256	correct	study	Phase2	study/STIM_020.jpg
985.847	1.056	correct	study	Phase2	study/STIM_020.jpg
989.493	0.668	correct	study	Phase2	study/STIM_020.jpg
993.038	0.939	correct	study	Phase2	study/STIM_021.jpg
997.144	1.225	correct	study	Phase2	study/STIM_021.jpg
1000.995	0.831	correct	study	Phase2	study/STIM_021.jpg
1004.406	1.108	correct	study	Phase2	study/STIM_022.jpg
1009.591	0.998	correct	study	Phase2	study/STIM_022.jpg
1014.511	0.564	incorrect	study	Phase2	study/STIM_022.jpg
1018.646	1.259	correct	study	Phase2	study/STIM_023.jpg
1023.784	0.68	correct	study	Phase2	study/STIM_023.jpg
1026.639	0.932	correct	study	Phase2	study/STIM_023.jpg
1029.833	1.288	correct	study	Phase2	study/STIM_024.jpg
1034.268	0.964	correct	study	Phase2	study/STIM_024.jpg
1038.113	0.926	correct	study	Phase2	study/STIM_024.jpg
1042.883	0.897	correct	study	Phase2	study/STIM_025.jpg
1047.299	0.929	correct	study	Phase2	study/STIM_025.jpg
1051.538	0.892	correct	study	Phase2	study/STIM_025.jpg
1056.023	0.964	correct	study	Phase2	study/STIM_026.jpg
1060.698	0.786	correct	study	Phase2	study/STIM_026.jpg
1065.368	1.129	correct	study	Phase2	study/STIM_026.jpg
1070.672	0.814	correct	study	Phase2	study/STIM_027.jpg
1074.771	1.138	correct	study	Phase2	study/STIM_027.jpg
1078.125	0.519	correct	study	Phase2	study/STIM_027.jpg
1082.424	0.763	correct	study	Phase2	study/STIM_028.jpg
1087.241	0.86	correct	study	Phase2	study/STIM_028.jpg
1092.073	0.828	correct	study	Phase2	study/STIM_028.jpg
1095.239	0.912	correct	study	Phase2	study/STIM_029.jpg
1099.743	0.884	correct	study	Phase2	study/STIM_029.jpg
1103.482	0.982	correct	study	Phase2	study/STIM_029.jpg
1107.032	1.036	incorrect	test	Phase2	test/STIM_000.jpg
1110.658	0.565	correct	test	Phase2	test/STIM_000.jpg
1113.455	0.808	correct	test	Phase2	test/STIM_000.jpg
1117.977	0.536	correct	test	Phase2	test/STIM_001.jpg
1120.98	0.552	correct	test	Phase2	test/STIM_001.jpg
1125.444	0.697	correct	test	Phase2	test/STIM_001.jpg
1129.232	0.956	correct	test	Phase2	test/STIM_002.jpg
1134.281	0.637	correct	test	Phase2	test/STIM_002.jpg
1137.654	0.777	correct	test	Phase2	test/STIM_002.jpg
1141.045	0.979	correct	test	Phase2	test/STIM_003.jpg
1145.613	0.988	correct	test	Phase2	test/STIM_003.jpg
1149.793	0.708	correct	test	Phase2	test/STIM_003.jpg
1153.265	0.6	correct	test	Phase2	test/STIM_004.jpg
1156.791	0.852	correct	test	Phase2	test/STIM_004.jpg
1160.062	0.844	correct	test	Phase2	test/STIM_004.jpg
1164.776	0.715	correct	test	Phase2	test/STIM_005.jpg
1168.654	0.611	correct	test	Phase2	test/STIM_005.jpg
1172.243	0.629	correct	test	Phase2	test/STIM_005.jpg
1175.843	0.694	correct	test	Phase2	test/STIM_006.jpg
1178.837	1.085	correct	test	Phase2	test/STIM_006.jpg
1183.905	0.785	correct	test	Phase2	test/STIM_006.jpg
1188.495	0.691	incorrect	test	Phase2	test/STIM_007.jpg
1193.218	0.679	correct	test	Phase2	test/STIM_007.jpg
1197.339	0.782	correct	test	Phase2	test/STIM_007.jpg
1201.169	0.823	correct	test	Phase2	test/STIM_008.jpg
1205.723	0.906	correct	test	Phase2	test/STIM_008.jpg
1209.277	0.599	correct	test	Phase2	test/STIM_008.jpg
1212.999	0.634	incorrect	test	Phase2	test/STIM_009.jpg
1217.027	0.545	incorrect	test	Phase2	test/STIM_009.jpg
1221.546	0.672	incorrect	test	Phase2	test/STIM_009.jpg
1225.17	0.908	correct	test	Phase2	test/STIM_010.jpg
1228.825	0.982	correct	test	Phase2	test/STIM_010.jpg
1233.95	0.713	correct	test	Phase2	test/STIM_010.jpg
1237.063	0.996	correct	test	Phase2	test/STIM_011.jpg
1242.135	0.898	correct	test	Phase2	test/STIM_011.jpg
1246.861	0.68	incorrect	test	Phase2	test/STIM_011.jpg
1249.714	0.662	incorrect	test	Phase2	test/STIM_012.jpg
1253.086	0.732	incorrect	test	Phase2	test/STIM_012.jpg
1256.377	0.892	correct	test	Phase2	test/STIM_012.jpg
1261.284	0.527	correct	test	Phase2	test/STIM_013.jpg
1264.997	0.935	correct	test	Phase2	test/STIM_013.jpg
1268.441	1.077	correct	test	Phase2	test/STIM_013.jpg
1272.666	1.1	correct	test	Phase2	test/STIM_014.jpg
1276.156	0.862	correct	test	Phase2	test/STIM_014.jpg
1280.713	1.082	correct	test	Phase2	test/STIM_014.jpg
1285.425	0.771	correct	test	Phase2	test/STIM_015.jpg
1288.658	0.811	incorrect	test	Phase2	test/STIM_015.jpg
1292.731	0.612	correct	test	Phase2	test/STIM_015.jpg
1296.558	0.828	incorrect	test	Phase2	test/STIM_016.jpg
1300.525	0.916	correct	test	Phase2	test/STIM_016.jpg
1305.015	0.574	correct	test	Phase2	test/STIM_016.jpg
1309.442	0.7	correct	test	Phase2	test/STIM_017.jpg
1313.228	0.853	correct	test	Phase2	test/STIM_017.jpg
1317.181	1.054	correct	test	Phase2	test/STIM_017.jpg
1321.309	0.819	correct	test	Phase2	test/STIM_018.jpg
1324.92	0.818	correct	test	Phase2	test/STIM_018.jpg
1329.033	0.921	correct	test	Phase2	test/STIM_018.jpg
1332.997	0.971	correct	test	Phase2	test/STIM_019.jpg
1337.074	0.673	correct	test	Phase2	test/STIM_019.jpg
1340.745	0.641	correct	test	Phase2	test/STIM_019.jpg
1344.056	1.055	incorrect	test	Phase2	test/STIM_020.jpg
1348.599	1.07	correct	test	Phase2	test/STIM_020.jpg
1353.727	0.834	correct	test	Phase2	test/STIM_020.jpg
1357.041	0.674	correct	test	Phase2	test/STIM_021.jpg
1361.139	0.596	correct	test	Phase2	test/STIM_021.jpg
1364.338	0.664	correct	test	Phase2	test/STIM_021.jpg
1368.61	1.063	correct	test	Phase2	test/STIM_022.jpg
1372.059	0.668	correct	test	Phase2	test/STIM_022.jpg
1376.08	0.72	incorrect	test	Phase2	test/STIM_022.jpg
1379.186	0.893	correct	test	Phase2	test/STIM_023.jpg
1383.287	0.743	correct	test	Phase2	test/STIM_023.jpg
1387.132	1.094	correct	test	Phase2	test/STIM_023.jpg
1391.951	0.94	correct	test	Phase2	test/STIM_024.jpg
1396.44	0.919	correct	test	Phase2	test/STIM_024.jpg
1401.488	0.648	correct	test	Phase2	test/STIM_024.jpg
1405.604	0.614	correct	test	Phase2	test/STIM_025.jpg
1408.964	0.537	correct	test	Phase2	test/STIM_025.jpg
1411.697	0.645	correct	test	Phase2	test/STIM_025.jpg
1414.72	1.057	correct	test	Phase2	test/STIM_026.jpg
1419.71	0.919	correct	test	Phase2	test/STIM_026.jpg
1423.838	0.544	correct	test	Phase2	test/STIM_026.jpg
1427.652	0.719	incorrect	test	Phase2	test/STIM_027.jpg
1430.972	0.795	correct	test	Phase2	test/STIM_027.jpg
1435.773	0.566	correct	test	Phase2	test/STIM_027.jpg
1439.449	0.579	correct	test	Phase2	test/STIM_028.jpg
1443.158	0.786	correct	test	Phase2	test/STIM_028.jpg
1446.656	0.714	correct	test	Phase2	test/STIM_028.jpg
1450.541	0.734	correct	test	Phase2	test/STIM_029.jpg
1453.651	0.526	correct	test	Phase2	test/STIM_029.jpg
1456.762	0.801	incorrect	test	Phase2	test/STIM_029.jpg
1461.337	0.76	correct	study	Phase3	study/STIM_000.jpg
1464.645	0.726	correct	study	Phase3	study/STIM_000.jpg
1468.118	0.678	correct	study	Phase3	study/STIM_000.jpg
1472.588	0.796	correct	study	Phase3	study/STIM_001.jpg
1476.994	0.51	correct	study	Phase3	study/STIM_001.jpg
1480.989	0.8	correct	study	Phase3	study/STIM_001.jpg
1484.529	0.516	correct	study	Phase3	study/STIM_002.jpg
1488.596	0.934	correct	study	Phase3	study/STIM_002.jpg
1493.039	0.49	correct	study	Phase3	study/STIM_002.jpg
1497.019	0.816	correct	study	Phase3	study/STIM_003.jpg
1501.407	0.512	correct	study	Phase3	study/STIM_003.jpg
1504.409	0.763	correct	study	Phase3	study/STIM_003.jpg
1508.858	0.593	correct	study	Phase3	study/STIM_004.jpg
1512.879	0.724	correct	study	Phase3	study/STIM_004.jpg
1516.971	0.529	correct	study	Phase3	study/STIM_004.jpg
1520.641	0.6	correct	study	Phase3	study/STIM_005.jpg
1523.608	0.846	correct	study	Phase3	study/STIM_005.jpg
1527.41	0.68	correct	study	Phase3	study/STIM_005.jpg
1531.36	0.876	correct	study	Phase3	study/STIM_006.jpg
1535.813	0.743	correct	study	Phase3	study/STIM_006.jpg
1540.543	0.51	correct	study	Phase3	study/STIM_006.jpg
1543.891	0.671	correct	study	Phase3	study/STIM_007.jpg
1547.48	0.948	correct	study	Phase3	study/STIM_007.jpg
1552.136	0.698	incorrect	study	Phase3	study/STIM_007.jpg
1556.396	0.552	correct	study	Phase3	study/STIM_008.jpg
1560.125	0.984	correct	study	Phase3	study/STIM_008.jpg
1564.028	0.538	correct	study	Phase3	study/STIM_008.jpg
1567.348	0.701	correct	study	Phase3	study/STIM_009.jpg
1572.005	0.634	correct	study	Phase3	study/STIM_009.jpg
1574.751	0.739	correct	study	Phase3	study/STIM_009.jpg
1578.158	0.632	correct	study	Phase3	study/STIM_010.jpg
1581.426	0.99	correct	study	Phase3	study/STIM_010.jpg
1586.245	0.991	correct	study	Phase3	study/STIM_010.jpg
1590.363	1.061	correct	study	Phase3	study/STIM_011.jpg
1595.203	0.826	correct	study	Phase3	study/STIM_011.jpg
1599.961	0.958	correct	study	Phase3	study/STIM_011.jpg
1603.625	0.565	correct	study	Phase3	study/STIM_012.jpg
1606.88	0.635	correct	study	Phase3	study/STIM_012.jpg
1609.694	0.945	correct	study	Phase3	study/STIM_012.jpg
1614.579	0.605	correct	study	Phase3	study/STIM_013.jpg
1618.935	0.951	correct	study	Phase3	study/STIM_013.jpg
1622.729	1.066	correct	study	Phase3	study/STIM_013.jpg
1627.848	0.739	correct	study	Phase3	study/STIM_014.jpg
1632.284	0.948	incorrect	study	Phase3	study/STIM_014.jpg
1637.042	0.572	correct	study	Phase3	study/STIM_014.jpg
1641.33	0.651	correct	study	Phase3	study/STIM_015.jpg
1646.006	0.81	correct	study	Phase3	study/STIM_015.jpg
1649.964	0.878	correct	study	Phase3	study/STIM_015.jpg
1654.339	0.919	incorrect	study	Phase3	study/STIM_016.jpg
1658.185	0.827	correct	study	Phase3	study/STIM_016.jpg
1661.696	1.059	correct	study	Phase3	study/STIM_016.jpg
1665.163	0.614	correct	study	Phase3	study/STIM_017.jpg
1667.956	1.067	correct	study	Phase3	study/STIM_017.jpg
1671.527	0.717	correct	study	Phase3	study/STIM_017.jpg
1675.184	0.796	correct	study	Phase3	study/STIM_018.jpg
1678.188	1.066	correct	study	Phase3	study/STIM_018.jpg
1682.58	0.764	correct	study	Phase3	study/STIM_018.jpg
1685.514	0.918	correct	study	Phase3	study/STIM_019.jpg
1689.162	0.753	correct	study	Phase3	study/STIM_019.jpg
1693.445	0.844	correct	study	Phase3	study/STIM_019.jpg
1697.064	1.002	correct	study	Phase3	study/STIM_020.jpg
1701.67	0.847	correct	study	Phase3	study/STIM_020.jpg
1704.781	0.734	correct	study	Phase3	study/STIM_020.jpg
1708.691	1.0	correct	study	Phase3	study/STIM_021.jpg
1713.313	0.624	correct	study	Phase3	study/STIM_021.jpg
1716.63	0.903	correct	study	Phase3	study/STIM_021.jpg
1720.613	0.624	correct	study	Phase3	study/STIM_022.jpg
1723.704	0.808	correct	study	Phase3	study/STIM_022.jpg
1727.188	0.794	correct	study	Phase3	study/STIM_022.jpg
1731.296	0.486	correct	study	Phase3	study/STIM_023.jpg
1735.326	0.778	incorrect	study	Phase3	study/STIM_023.jpg
1739.979	0.696	correct	study	Phase3	study/STIM_023.jpg
1743.3	0.602	correct	study	Phase3	study/STIM_024.jpg
1747.102	0.985	correct	study	Phase3	study/STIM_024.jpg
1751.797	0.67	correct	study	Phase3	study/STIM_024.jpg
1755.862	0.931	correct	study	Phase3	study/STIM_025.jpg
1759.506	0.707	correct	study	Phase3	study/STIM_025.jpg
1763.831	0.639	correct	study	Phase3	study/STIM_025.jpg
1768.187	0.68	correct	study	Phase3	study/STIM_026.jpg
1772.287	1.06	correct	study	Phase3	study/STIM_026.jpg
1777.2	0.55	correct	study	Phase3	study/STIM_026.jpg
1780.678	0.906	correct	study	Phase3	study/STIM_027.jpg
1783.945	0.922	correct	study	Phase3	study/STIM_027.jpg
1788.83	0.644	correct	study	Phase3	study/STIM_027.jpg
1791.915	1.049	correct	study	Phase3	study/STIM_028.jpg
1795.611	0.881	correct	study	Phase3	study/STIM_028.jpg
1800.631	0.581	correct	study	Phase3	study/STIM_028.jpg
1805.096	0.497	correct	study	Phase3	study/STIM_029.jpg
1808.525	0.889	correct	study	Phase3	study/STIM_029.jpg
1812.821	0.875	correct	study	Phase3	study/STIM_029.jpg
1817.177	0.851	incorrect	test	Phase3	test/STIM_000.jpg
1821.727	0.982	correct	test	Phase3	test/STIM_000.jpg
1825.512	0.957	correct	test	Phase3	test/STIM_000.jpg
1829.369	0.976	correct	test	Phase3	test/STIM_001.jpg
1832.864	0.778	correct	test	Phase3	test/STIM_001.jpg
1836.391	0.688	incorrect	test	Phase3	test/STIM_001.jpg
1839.633	0.876	correct	test	Phase3	test/STIM_002.jpg
1844.531	0.718	correct	test	Phase3	test/STIM_002.jpg
1848.192	1.086	correct	test	Phase3	test/STIM_002.jpg
1852.593	0.967	correct	test	Phase3	test/STIM_003.jpg
1855.792	0.783	correct	test	Phase3	test/STIM_003.jpg
1859.285	0.788	correct	test	Phase3	test/STIM_003.jpg
1864.155	0.871	correct	test	Phase3	test/STIM_004.jpg
1867.222	0.697	correct	test	Phase3	test/STIM_004.jpg
1870.993	0.978	correct	test	Phase3	test/STIM_004.jpg
1875.831	0.685	correct	test	Phase3	test/STIM_005.jpg
1878.935	1.023	correct	test	Phase3	test/STIM_005.jpg
1882.29	0.693	correct	test	Phase3	test/STIM_005.jpg
1887.041	0.705	correct	test	Phase3	test/STIM_006.jpg
1890.504	0.795	correct	test	Phase3	test/STIM_006.jpg
1894.011	0.68	correct	test	Phase3	test/STIM_006.jpg
1897.147	0.953	correct	test	Phase3	test/STIM_007.jpg
1901.426	0.906	correct	test	Phase3	test/STIM_007.jpg
1905.777	0.83	correct	test	Phase3	test/STIM_007.jpg
1908.999	0.775	correct	test	Phase3	test/STIM_008.jpg
1912.782	0.891	correct	test	Phase3	test/STIM_008.jpg
1917.152	1.0	correct	test	Phase3	test/STIM_008.jpg
1921.062	0.676	correct	test	Phase3	test/STIM_009.jpg
1925.085	0.624	correct	test	Phase3	test/STIM_009.jpg
1929.274	0.921	correct	test	Phase3	test/STIM_009.jpg
1933.357	0.673	correct	test	Phase3	test/STIM_010.jpg
1936.786	0.945	correct	test	Phase3	test/STIM_010.jpg
1941.353	0.864	incorrect	test	Phase3	test/STIM_010.jpg
1945.008	0.748	correct	test	Phase3	test/STIM_011.jpg
1949.037	0.825	incorrect	test	Phase3	test/STIM_011.jpg
1953.345	0.921	incorrect	test	Phase3	test/STIM_011.jpg
1956.608	0.691	incorrect	test	Phase3	test/STIM_012.jpg
1961.071	1.097	correct	test	Phase3	test/STIM_012.jpg
1965.466	0.516	correct	test	Phase3	test/STIM_012.jpg
1968.221	0.941	correct	test	Phase3	test/STIM_013.jpg
1972.84	0.769	correct	test	Phase3	test/STIM_013.jpg
1977.483	1.037	correct	test	Phase3	test/STIM_013.jpg
1982.276	0.907	correct	test	Phase3	test/STIM_014.jpg
1986.102	1.086	correct	test	Phase3	test/STIM_014.jpg
1989.902	0.679	correct	test	Phase3	test/STIM_014.jpg
1993.356	1.066	correct	test	Phase3	test/STIM_015.jpg
1997.334	0.654	correct	test	Phase3	test/STIM_015.jpg
2002.017	0.705	correct	test	Phase3	test/STIM_015.jpg
2006.76	0.81	correct	test	Phase3	test/STIM_016.jpg
2010.765	0.531	incorrect	test	Phase3	test/STIM_016.jpg
2014.786	1.089	incorrect	test	Phase3	test/STIM_016.jpg
2018.444	0.766	correct	test	Phase3	test/STIM_017.jpg
2021.647	0.708	correct	test	Phase3	test/STIM_017.jpg
2025.001	0.723	correct	test	Phase3	test/STIM_017.jpg
2029.075	0.857	correct	test	Phase3	test/STIM_018.jpg
2032.273	0.621	correct	test	Phase3	test/STIM_018.jpg
2035.128	0.659	correct	test	Phase3	test/STIM_018.jpg
2039.351	0.927	correct	test	Phase3	test/STIM_019.jpg
2042.769	0.598	incorrect	test	Phase3	test/STIM_019.jpg
2046.059	0.529	correct	test	Phase3	test/STIM_019.jpg
2050.475	0.833	incorrect	test	Phase3	test/STIM_020.jpg
2054.651	0.801	correct	test	Phase3	test/STIM_020.jpg
2058.317	0.96	incorrect	test	Phase3	test/STIM_020.jpg
2062.887	0.536	correct	test	Phase3	test/STIM_021.jpg
2067.412	0.931	correct	test	Phase3	test/STIM_021.jpg
2071.496	0.874	correct	test	Phase3	test/STIM_021.jpg
2075.478	0.857	correct	test	Phase3	test/STIM_022.jpg
2078.854	0.64	correct	test	Phase3	test/STIM_022.jpg
2082.473	0.953	correct	test	Phase3	test/STIM_022.jpg
2086.731	0.674	correct	test	Phase3	test/STIM_023.jpg
2090.775	0.859	correct	test	Phase3	test/STIM_023.jpg
2095.201	0.902	correct	test	Phase3	test/STIM_023.jpg
2099.527	0.942	correct	test	Phase3	test/STIM_024.jpg
2102.844	0.927	correct	test	Phase3	test/STIM_024.jpg
2107.577	0.798	correct	test	Phase3	test/STIM_024.jpg
2111.034	0.9	incorrect	test	Phase3	test/STIM_025.jpg
2115.587	0.609	correct	test	Phase3	test/STIM_025.jpg
2118.303	0.698	correct	test	Phase3	test/STIM_025.jpg
2121.59	0.649	correct	test	Phase3	test/STIM_026.jpg
2125.004	0.943	incorrect	test	Phase3	test/STIM_026.jpg
2129.728	0.916	correct	test	Phase3	test/STIM_026.jpg
2133.681	1.037	incorrect	test	Phase3	test/STIM_027.jpg
2138.099	0.894	correct	test	Phase3	test/STIM_027.jpg
2141.416	0.592	correct	test	Phase3	test/STIM_027.jpg
2145.947	0.525	incorrect	test	Phase3	test/STIM_028.jpg
2149.129	0.694	correct	test	Phase3	test/STIM_028.jpg
2153.594	0.517	correct	test	Phase3	test/STIM_028.jpg
2156.313	0.988	correct	test	Phase3	test/STIM_029.jpg
2160.915	0.951	correct	test	Phase3	test/STIM_029.jpg
2164.864	1.026	correct	test	Phase3	test/STIM_029.jpg
