onset	duration	response_time_ms	trial_type	learning_stage	stimulus	response_port
0.0	0.669	669.0	2back	Block1	2back/STIM_000.jpg	99
4.193	0.603	603.0	2back	Block1	2back/STIM_000.jpg	99
8.509	1.126	1126.3	2back	Block1	2back/STIM_000.jpg	100
11.703	0.886	886.2	2back	Block1	2back/STIM_001.jpg	99
15.736	0.635	634.7	2back	Block1	2back/STIM_001.jpg	100
20.269	0.74	740.1	2back	Block1	2back/STIM_001.jpg	100
23.633	0.826	825.9	2back	Block1	2back/STIM_002.jpg	100
27.204	1.295	1294.6	2back	Block1	2back/STIM_002.jpg	99
30.558	0.87	870.3	2back	Block1	2back/STIM_002.jpg	99
33.955	0.636	635.8	2back	Block1	2back/STIM_003.jpg	100
38.022	1.302	1302.3	2back	Block1	2back/STIM_003.jpg	100
42.68	0.79	790.3	2back	Block1	2back/STIM_003.jpg	100
46.371	1.085	1085.4	2back	Block1	2back/STIM_004.jpg	100
50.345	1.211	1210.7	2back	Block1	2back/STIM_004.jpg	100
53.822	0.879	878.6	2back	Block1	2back/STIM_004.jpg	99
57.115	1.371	1370.8	2back	Block1	2back/STIM_005.jpg	100
62.207	0.638	638.2	2back	Block1	2back/STIM_005.jpg	99
65.838	1.137	1137.3	2back	Block1	2back/STIM_005.jpg	99
69.789	0.943	942.6	2back	Block1	2back/STIM_006.jpg	100
74.507	1.369	1369.0	2back	Block1	2back/STIM_006.jpg	100
78.743	0.914	914.4	2back	Block1	2back/STIM_006.jpg	100
82.242	1.001	1001.2	2back	Block1	2back/STIM_007.jpg	100
86.153	0.987	986.9	2back	Block1	2back/STIM_007.jpg	99
89.637	0.663	663.0	2back	Block1	2back/STIM_007.jpg	100
92.476	0.913	912.7	2back	Block1	2back/STIM_008.jpg	99
96.775	0.915	914.7	2back	Block1	2back/STIM_008.jpg	100
100.257	1.003	1002.7	2back	Block1	2back/STIM_008.jpg	99
104.618	0.999	998.8	2back	Block1	2back/STIM_009.jpg	100
108.974	0.719	718.8	2back	Block1	2back/STIM_009.jpg	100
112.831	1.202	1202.0	2back	Block1	2back/STIM_009.jpg	99
116.381	0.793	793.3	2back	Block1	2back/STIM_010.jpg	99
119.229	0.75	749.9	2back	Block1	2back/STIM_010.jpg	99
123.18	0.828	828.4	2back	Block1	2back/STIM_010.jpg	99
127.106	0.959	958.8	2back	Block1	2back/STIM_011.jpg	100
130.788	1.188	1187.7	2back	Block1	2back/STIM_011.jpg	99
134.982	1.239	1238.7	2back	Block1	2back/STIM_011.jpg	99
139.801	0.913	912.9	2back	Block1	2back/STIM_012.jpg	100
143.355	1.039	1039.3	2back	Block1	2back/STIM_012.jpg	100
147.072	1.192	1191.7	2back	Block1	2back/STIM_012.jpg	100
151.832	0.927	927.2	2back	Block1	2back/STIM_013.jpg	99
155.376	1.317	1316.7	2back	Block1	2back/STIM_013.jpg	100
158.845	0.746	745.8	2back	Block1	2back/STIM_013.jpg	100
162.382	1.426	1426.4	2back	Block1	2back/STIM_014.jpg	100
166.003	0.827	826.7	2back	Block1	2back/STIM_014.jpg	99
170.022	0.846	845.5	2back	Block1	2back/STIM_014.jpg	99
173.687	0.772	772.4	2back	Block1	2back/STIM_015.jpg	100
177.124	0.696	696.1	2back	Block1	2back/STIM_015.jpg	100
180.835	1.238	1238.2	2back	Block1	2back/STIM_015.jpg	100
185.88	0.907	906.7	2back	Block1	2back/STIM_016.jpg	100
190.356	0.942	941.5	2back	Block1	2back/STIM_016.jpg	100
195.056	0.704	704.0	2back	Block1	2back/STIM_016.jpg	100
197.92	1.027	1026.8	2back	Block1	2back/STIM_017.jpg	100
201.505	0.683	683.1	2back	Block1	2back/STIM_017.jpg	99
204.694	0.691	690.7	2back	Block1	2back/STIM_017.jpg	99
207.846	1.134	1134.1	2back	Block1	2back/STIM_018.jpg	100
211.016	0.872	872.5	2back	Block1	2back/STIM_018.jpg	99
214.889	0.832	831.6	2back	Block1	2back/STIM_018.jpg	99
219.389	1.246	1246.0	2back	Block1	2back/STIM_019.jpg	99
224.07	1.302	1302.3	2back	Block1	2back/STIM_019.jpg	99
227.728	0.888	888.2	2back	Block1	2back/STIM_019.jpg	99
231.676	1.362	1362.1	2back	Block1	2back/STIM_020.jpg	100
236.276	0.644	643.5	2back	Block1	2back/STIM_020.jpg	100
239.056	0.998	997.8	2back	Block1	2back/STIM_020.jpg	99
242.9	1.436	1435.9	2back	Block1	2back/STIM_021.jpg	99
248.294	0.633	633.0	2back	Block1	2back/STIM_021.jpg	100
252.269	0.612	612.4	2back	Block1	2back/STIM_021.jpg	99
254.939	0.855	854.6	2back	Block1	2back/STIM_022.jpg	100
257.968	0.928	928.2	2back	Block1	2back/STIM_022.jpg	100
261.521	0.945	945.0	2back	Block1	2back/STIM_022.jpg	99
266.23	0.868	868.2	2back	Block1	2back/STIM_023.jpg	100
269.264	0.902	902.2	2back	Block1	2back/STIM_023.jpg	100
273.769	1.277	1277.2	2back	Block1	2back/STIM_023.jpg	100
277.803	0.859	859.1	2back	Block1	2back/STIM_024.jpg	100
280.813	0.818	817.9	2back	Block1	2back/STIM_024.jpg	100
284.206	0.647	646.7	2back	Block1	2back/STIM_024.jpg	99
287.927	0.925	924.9	2back	Block1	2back/STIM_025.jpg	99
290.937	1.357	1357.2	2back	Block1	2back/STIM_025.jpg	99
295.563	1.032	1031.9	2back	Block1	2back/STIM_025.jpg	99
298.812	0.622	622.2	2back	Block1	2back/STIM_026.jpg	100
302.002	0.876	876.0	2back	Block1	2back/STIM_026.jpg	100
305.418	0.804	804.0	2back	Block1	2back/STIM_026.jpg	100
310.026	0.65	650.4	2back	Block1	2back/STIM_027.jpg	99
313.605	0.623	623.1	2back	Block1	2back/STIM_027.jpg	100
316.269	0.733	732.8	2back	Block1	2back/STIM_027.jpg	99
319.679	1.353	1353.4	2back	Block1	2back/STIM_028.jpg	99
323.304	1.258	1257.9	2back	Block1	2back/STIM_028.jpg	100
327.849	1.143	1143.3	2back	Block1	2back/STIM_028.jpg	99
332.602	0.686	686.4	2back	Block1	2back/STIM_029.jpg	100
337.081	0.724	724.0	2back	Block1	2back/STIM_029.jpg	100
341.676	1.074	1073.7	2back	Block1	2back/STIM_029.jpg	100
346.518	0.879	878.9	2back	Block1	2back/STIM_030.jpg	100
349.876	0.963	962.8	2back	Block1	2back/STIM_030.jpg	99
354.282	1.152	1152.1	2back	Block1	2back/STIM_030.jpg	99
358.659	0.724	723.7	2back	Block1	2back/STIM_031.jpg	100
361.572	1.007	1006.8	2back	Block1	2back/STIM_031.jpg	99
366.054	0.96	959.6	2back	Block1	2back/STIM_031.jpg	100
370.054	1.36	1359.8	2back	Block1	2back/STIM_032.jpg	100
374.918	1.09	1089.5	2back	Block1	2back/STIM_032.jpg	99
379.698	0.793	793.4	2back	Block1	2back/STIM_032.jpg	100
383.865	1.284	1284.1	2back	Block1	2back/STIM_033.jpg	99
387.662	1.214	1214.1	2back	Block1	2back/STIM_033.jpg	99
392.716	1.232	1231.5	2back	Block1	2back/STIM_033.jpg	100
397.629	1.189	1189.4	2back	Block1	2back/STIM_034.jpg	100
402.198	0.909	908.8	2back	Block1	2back/STIM_034.jpg	99
406.601	0.809	808.6	2back	Block1	2back/STIM_034.jpg	100
410.479	1.165	1165.4	2back	Block1	2back/STIM_035.jpg	99
415.251	0.777	777.0	2back	Block1	2back/STIM_035.jpg	99
419.809	1.042	1042.4	2back	Block1	2back/STIM_035.jpg	99
424.106	1.05	1050.0	2back	Block1	2back/STIM_036.jpg	99
428.003	0.943	942.9	2back	Block1	2back/STIM_036.jpg	99
431.931	0.944	944.1	2back	Block1	2back/STIM_036.jpg	99
435.822	1.059	1059.1	2back	Block1	2back/STIM_037.jpg	100
440.473	1.3	1300.1	2back	Block1	2back/STIM_037.jpg	99
444.487	0.924	924.0	2back	Block1	2back/STIM_037.jpg	99
449.368	1.132	1132.2	2back	Block1	2back/STIM_038.jpg	99
453.294	1.008	1008.2	2back	Block1	2back/STIM_038.jpg	100
457.936	0.916	916.3	2back	Block1	2back/STIM_038.jpg	100
462.288	1.156	1156.3	2back	Block1	2back/STIM_039.jpg	100
465.68	1.284	1284.2	2back	Block1	2back/STIM_039.jpg	100
469.741	1.194	1194.0	2back	Block1	2back/STIM_039.jpg	99
473.241	0.645	644.7	0back	Block1	0back/STIM_000.jpg	99
476.458	0.716	716.0	0back	Block1	0back/STIM_000.jpg	99
479.345	0.55	550.0	0back	Block1	0back/STIM_000.jpg	100
482.436	0.746	746.2	0back	Block1	0back/STIM_001.jpg	99
485.954	0.52	520.2	0back	Block1	0back/STIM_001.jpg	100
489.213	0.737	737.0	0back	Block1	0back/STIM_001.jpg	99
492.737	0.728	728.4	0back	Block1	0back/STIM_002.jpg	100
496.875	0.486	485.9	0back	Block1	0back/STIM_002.jpg	100
500.263	0.562	561.8	0back	Block1	0back/STIM_002.jpg	100
503.741	0.659	658.8	0back	Block1	0back/STIM_003.jpg	100
507.215	0.734	734.5	0back	Block1	0back/STIM_003.jpg	100
510.706	0.591	590.6	0back	Block1	0back/STIM_003.jpg	99
513.388	0.517	517.3	0back	Block1	0back/STIM_004.jpg	100
517.345	0.419	419.2	0back	Block1	0back/STIM_004.jpg	99
521.04	0.588	588.4	0back	Block1	0back/STIM_004.jpg	100
525.579	0.512	512.1	0back	Block1	0back/STIM_005.jpg	99
528.112	0.782	782.5	0back	Block1	0back/STIM_005.jpg	100
531.963	0.796	795.7	0back	Block1	0back/STIM_005.jpg	99
535.42	0.654	654.2	0back	Block1	0back/STIM_006.jpg	100
539.144	0.695	695.2	0back	Block1	0back/STIM_006.jpg	100
542.851	0.664	664.4	0back	Block1	0back/STIM_006.jpg	100
547.244	0.433	433.2	0back	Block1	0back/STIM_007.jpg	99
550.198	0.51	510.5	0back	Block1	0back/STIM_007.jpg	100
553.642	0.691	690.8	0back	Block1	0back/STIM_007.jpg	100
556.319	0.472	471.9	0back	Block1	0back/STIM_008.jpg	99
560.737	0.452	452.4	0back	Block1	0back/STIM_008.jpg	100
563.453	0.54	539.8	0back	Block1	0back/STIM_008.jpg	100
566.669	0.415	414.9	0back	Block1	0back/STIM_009.jpg	99
570.774	0.423	422.8	0back	Block1	0back/STIM_009.jpg	99
574.043	0.785	784.7	0back	Block1	0back/STIM_009.jpg	100
578.521	0.764	763.6	0back	Block1	0back/STIM_010.jpg	100
581.516	0.55	550.1	0back	Block1	0back/STIM_010.jpg	99
585.306	0.666	665.6	0back	Block1	0back/STIM_010.jpg	99
588.713	0.599	599.4	0back	Block1	0back/STIM_011.jpg	99
592.446	0.822	822.4	0back	Block1	0back/STIM_011.jpg	99
596.61	0.507	507.3	0back	Block1	0back/STIM_011.jpg	99
599.793	0.738	737.5	0back	Block1	0back/STIM_012.jpg	99
603.952	0.471	471.1	0back	Block1	0back/STIM_012.jpg	99
607.815	0.469	468.7	0back	Block1	0back/STIM_012.jpg	100
611.864	0.814	814.4	0back	Block1	0back/STIM_013.jpg	99
614.9	0.639	639.2	0back	Block1	0back/STIM_013.jpg	99
618.634	0.484	483.8	0back	Block1	0back/STIM_013.jpg	99
622.412	0.567	566.7	0back	Block1	0back/STIM_014.jpg	100
625.319	0.745	744.9	0back	Block1	0back/STIM_014.jpg	100
629.441	0.803	803.2	0back	Block1	0back/STIM_014.jpg	99
633.795	0.672	671.5	0back	Block1	0back/STIM_015.jpg	100
636.568	0.757	757.4	0back	Block1	0back/STIM_015.jpg	99
639.941	0.561	561.4	0back	Block1	0back/STIM_015.jpg	99
642.736	0.594	594.2	0back	Block1	0back/STIM_016.jpg	99
646.317	0.574	574.0	0back	Block1	0back/STIM_016.jpg	99
649.153	0.671	671.1	0back	Block1	0back/STIM_016.jpg	100
652.699	0.723	723.0	0back	Block1	0back/STIM_017.jpg	99
655.703	0.511	510.9	0back	Block1	0back/STIM_017.jpg	100
658.7	0.822	821.8	0back	Block1	0back/STIM_017.jpg	99
662.334	0.442	441.9	0back	Block1	0back/STIM_018.jpg	99
664.927	0.658	657.7	0back	Block1	0back/STIM_018.jpg	100
669.113	0.73	730.0	0back	Block1	0back/STIM_018.jpg	99
672.33	0.579	579.2	0back	Block1	0back/STIM_019.jpg	99
676.563	0.698	697.6	0back	Block1	0back/STIM_019.jpg	99
679.652	0.426	425.6	0back	Block1	0back/STIM_019.jpg	99
683.501	0.618	617.8	2back	Block2	2back/STIM_000.jpg	99
687.252	0.968	967.8	2back	Block2	2back/STIM_000.jpg	99
690.42	0.869	868.6	2back	Block2	2back/STIM_000.jpg	100
694.433	0.769	769.0	2back	Block2	2back/STIM_001.jpg	100
699.04	0.785	785.1	2back	Block2	2back/STIM_001.jpg	99
703.118	1.069	1068.6	2back	Block2	2back/STIM_001.jpg	99
706.413	1.059	1058.8	2back	Block2	2back/STIM_002.jpg	99
710.3	1.054	1054.2	2back	Block2	2back/STIM_002.jpg	99
714.728	0.572	571.7	2back	Block2	2back/STIM_002.jpg	100
718.109	0.942	941.9	2back	Block2	2back/STIM_003.jpg	99
722.876	0.524	524.0	2back	Block2	2back/STIM_003.jpg	100
726.551	0.682	682.4	2back	Block2	2back/STIM_003.jpg	100
730.239	0.69	690.4	2back	Block2	2back/STIM_004.jpg	100
733.656	0.766	766.1	2back	Block2	2back/STIM_004.jpg	99
736.818	0.682	681.7	2back	Block2	2back/STIM_004.jpg	99
739.942	1.01	1009.8	2back	Block2	2back/STIM_005.jpg	99
743.589	0.964	963.7	2back	Block2	2back/STIM_005.jpg	99
747.037	1.067	1067.1	2back	Block2	2back/STIM_005.jpg	100
750.402	0.862	862.2	2back	Block2	2back/STIM_006.jpg	99
753.926	0.564	563.7	2back	Block2	2back/STIM_006.jpg	100
757.762	0.872	871.6	2back	Block2	2back/STIM_006.jpg	99
761.701	0.753	752.7	2back	Block2	2back/STIM_007.jpg	100
764.878	0.725	724.9	2back	Block2	2back/STIM_007.jpg	100
768.771	1.072	1071.5	2back	Block2	2back/STIM_007.jpg	99
772.526	0.893	893.0	2back	Block2	2back/STIM_008.jpg	100
775.659	0.742	741.7	2back	Block2	2back/STIM_008.jpg	99
779.823	0.839	838.9	2back	Block2	2back/STIM_008.jpg	100
783.959	1.181	1181.0	2back	Block2	2back/STIM_009.jpg	100
788.295	0.664	663.7	2back	Block2	2back/STIM_009.jpg	100
791.902	0.66	659.6	2back	Block2	2back/STIM_009.jpg	100
795.384	0.622	621.7	2back	Block2	2back/STIM_010.jpg	100
798.116	1.027	1027.0	2back	Block2	2back/STIM_010.jpg	100
801.675	0.839	838.9	2back	Block2	2back/STIM_010.jpg	100
805.535	0.681	681.3	2back	Block2	2back/STIM_011.jpg	99
809.792	0.861	860.8	2back	Block2	2back/STIM_011.jpg	100
813.416	0.815	814.7	2back	Block2	2back/STIM_011.jpg	100
816.427	0.627	627.0	2back	Block2	2back/STIM_012.jpg	99
819.968	0.958	957.5	2back	Block2	2back/STIM_012.jpg	99
823.095	0.818	818.1	2back	Block2	2back/STIM_012.jpg	99
826.627	1.115	1114.7	2back	Block2	2back/STIM_013.jpg	99
830.559	0.812	811.6	2back	Block2	2back/STIM_013.jpg	100
835.166	0.641	641.0	2back	Block2	2back/STIM_013.jpg	100
838.318	0.912	911.7	2back	Block2	2back/STIM_014.jpg	100
843.169	0.76	760.2	2back	Block2	2back/STIM_014.jpg	100
846.712	0.524	523.5	2back	Block2	2back/STIM_014.jpg	100
850.616	0.657	657.0	2back	Block2	2back/STIM_015.jpg	99
853.678	0.671	671.2	2back	Block2	2back/STIM_015.jpg	99
857.211	0.968	968.4	2back	Block2	2back/STIM_015.jpg	100
861.687	0.622	622.3	2back	Block2	2back/STIM_016.jpg	99
864.98	0.696	696.0	2back	Block2	2back/STIM_016.jpg	99
867.72	0.812	812.1	2back	Block2	2back/STIM_016.jpg	99
871.525	0.713	713.1	2back	Block2	2back/STIM_017.jpg	100
874.285	0.842	841.8	2back	Block2	2back/STIM_017.jpg	100
877.857	0.711	710.6	2back	Block2	2back/STIM_017.jpg	100
882.059	0.678	678.3	2back	Block2	2back/STIM_018.jpg	100
886.576	1.081	1080.9	2back	Block2	2back/STIM_018.jpg	100
890.019	0.474	473.7	2back	Block2	2back/STIM_018.jpg	100
892.771	0.779	779.2	2back	Block2	2back/STIM_019.jpg	100
897.401	0.748	748.2	2back	Block2	2back/STIM_019.jpg	99
901.663	0.53	530.3	2back	Block2	2back/STIM_019.jpg	100
904.73	0.871	870.8	2back	Block2	2back/STIM_020.jpg	99
909.132	0.886	886.3	2back	Block2	2back/STIM_020.jpg	99
913.137	0.641	641.4	2back	Block2	2back/STIM_020.jpg	100
915.769	1.019	1018.9	2back	Block2	2back/STIM_021.jpg	99
920.092	0.772	772.4	2back	Block2	2back/STIM_021.jpg	99
923.33	0.646	646.2	2back	Block2	2back/STIM_021.jpg	99
927.437	0.741	741.1	2back	Block2	2back/STIM_022.jpg	100
930.559	0.946	946.1	2back	Block2	2back/STIM_022.jpg	99
934.461	0.696	696.1	2back	Block2	2back/STIM_022.jpg	100
938.943	1.198	1197.6	2back	Block2	2back/STIM_023.jpg	99
942.808	0.96	959.7	2back	Block2	2back/STIM_023.jpg	100
947.66	0.993	992.9	2back	Block2	2back/STIM_023.jpg	99
951.693	0.852	851.6	2back	Block2	2back/STIM_024.jpg	100
955.627	1.104	1104.2	2back	Block2	2back/STIM_024.jpg	99
960.675	0.982	981.9	2back	Block2	2back/STIM_024.jpg	100
964.34	0.676	676.4	2back	Block2	2back/STIM_025.jpg	100
967.183	0.784	784.4	2back	Block2	2back/STIM_025.jpg	100
971.551	0.568	568.3	2back	Block2	2back/STIM_025.jpg	99
975.338	1.164	1163.7	2back	Block2	2back/STIM_026.jpg	99
979.657	0.817	816.9	2back	Block2	2back/STIM_026.jpg	100
983.32	0.864	864.4	2back	Block2	2back/STIM_026.jpg	99
986.948	0.811	811.1	2back	Block2	2back/STIM_027.jpg	99
990.227	0.859	858.6	2back	Block2	2back/STIM_027.jpg	99
993.976	0.84	839.6	2back	Block2	2back/STIM_027.jpg	100
998.776	0.936	936.2	2back	Block2	2back/STIM_028.jpg	99
1003.04	1.093	1093.2	2back	Block2	2back/STIM_028.jpg	100
1007.243	0.493	493.3	2back	Block2	2back/STIM_028.jpg	100
1011.641	0.945	945.3	2back	Block2	2back/STIM_029.jpg	99
1014.604	0.98	979.7	2back	Block2	2back/STIM_029.jpg	99
1018.651	0.767	767.3	2back	Block2	2back/STIM_029.jpg	99
1021.533	1.008	1007.6	2back	Block2	2back/STIM_030.jpg	100
1024.672	0.695	695.3	2back	Block2	2back/STIM_030.jpg	99
1028.225	1.011	1010.8	2back	Block2	2back/STIM_030.jpg	99
1032.604	0.556	555.8	2back	Block2	2back/STIM_031.jpg	100
1035.543	0.83	830.2	2back	Block2	2back/STIM_031.jpg	100
1039.744	0.564	563.5	2back	Block2	2back/STIM_031.jpg	99
1043.364	1.074	1074.4	2back	Block2	2back/STIM_032.jpg	100
1046.589	0.728	728.2	2back	Block2	2back/STIM_032.jpg	100
1049.991	0.642	642.0	2back	Block2	2back/STIM_032.jpg	99
1054.525	0.526	525.5	2back	Block2	2back/STIM_033.jpg	99
1057.631	0.671	670.8	2back	Block2	2back/STIM_033.jpg	100
1062.217	0.614	614.0	2back	Block2	2back/STIM_033.jpg	99
1065.061	0.745	745.4	2back	Block2	2back/STIM_034.jpg	99
1069.219	0.752	751.5	2back	Block2	2back/STIM_034.jpg	99
1073.563	0.497	497.2	2back	Block2	2back/STIM_034.jpg	100
1077.695	1.113	1112.6	2back	Block2	2back/STIM_035.jpg	99
1081.049	0.98	980.5	2back	Block2	2back/STIM_035.jpg	100
1085.768	0.466	465.6	2back	Block2	2back/STIM_035.jpg	99
1089.535	0.536	536.0	2back	Block2	2back/STIM_036.jpg	100
1093.284	0.987	986.6	2back	Block2	2back/STIM_036.jpg	100
1097.297	0.614	613.6	2back	Block2	2back/STIM_036.jpg	99
1101.178	0.773	773.4	2back	Block2	2back/STIM_037.jpg	99
1104.659	0.598	597.7	2back	Block2	2back/STIM_037.jpg	99
1108.681	0.635	635.0	2back	Block2	2back/STIM_037.jpg	99
1112.541	0.724	724.3	2back	Block2	2back/STIM_038.jpg	100
1115.457	0.541	541.4	2back	Block2	2back/STIM_038.jpg	100
1118.271	0.538	537.7	2back	Block2	2back/STIM_038.jpg	99
1122.237	0.755	754.7	2back	Block2	2back/STIM_039.jpg	100
1125.316	0.58	579.7	2back	Block2	2back/STIM_039.jpg	100
1129.249	1.029	1029.3	2back	Block2	2back/STIM_039.jpg	100
1133.952	0.82	819.8	0back	Block2	0back/STIM_000.jpg	100
1137.775	0.804	803.9	0back	Block2	0back/STIM_000.jpg	100
1142.055	0.682	681.8	0back	Block2	0back/STIM_000.jpg	99
1145.936	0.447	446.7	0back	Block2	0back/STIM_001.jpg	100
1148.726	0.662	662.1	0back	Block2	0back/STIM_001.jpg	100
1151.405	0.431	430.9	0back	Block2	0back/STIM_001.jpg	100
1155.523	0.435	435.4	0back	Block2	0back/STIM_002.jpg	99
1159.92	0.537	536.6	0back	Block2	0back/STIM_002.jpg	99
1163.04	0.609	608.7	0back	Block2	0back/STIM_002.jpg	100
1166.531	0.479	478.7	0back	Block2	0back/STIM_003.jpg	100
1169.3	0.573	573.1	0back	Block2	0back/STIM_003.jpg	100
1172.864	0.738	737.7	0back	Block2	0back/STIM_003.jpg	100
1176.453	0.738	738.3	0back	Block2	0back/STIM_004.jpg	99
1180.537	0.59	589.5	0back	Block2	0back/STIM_004.jpg	100
1183.172	0.558	558.0	0back	Block2	0back/STIM_004.jpg	100
1187.489	0.572	571.9	0back	Block2	0back/STIM_005.jpg	100
1190.271	0.559	559.4	0back	Block2	0back/STIM_005.jpg	100
1193.932	0.783	782.8	0back	Block2	0back/STIM_005.jpg	99
1196.86	0.621	621.4	0back	Block2	0back/STIM_006.jpg	100
1200.985	0.651	651.3	0back	Block2	0back/STIM_006.jpg	99
1205.307	0.585	585.2	0back	Block2	0back/STIM_006.jpg	99
1208.857	0.446	446.5	0back	Block2	0back/STIM_007.jpg	100
1212.409	0.711	710.8	0back	Block2	0back/STIM_007.jpg	100
1215.549	0.588	588.5	0back	Block2	0back/STIM_007.jpg	99
1218.554	0.808	808.5	0back	Block2	0back/STIM_008.jpg	100
1222.595	0.714	714.1	0back	Block2	0back/STIM_008.jpg	100
1225.803	0.707	706.9	0back	Block2	0back/STIM_008.jpg	100
1230.172	0.67	670.0	0back	Block2	0back/STIM_009.jpg	100
1233.102	0.446	445.8	0back	Block2	0back/STIM_009.jpg	99
1237.217	0.774	773.8	0back	Block2	0back/STIM_009.jpg	100
1241.367	0.572	571.5	0back	Block2	0back/STIM_010.jpg	100
1244.003	0.637	636.8	0back	Block2	0back/STIM_010.jpg	100
1246.917	0.514	513.5	0back	Block2	0back/STIM_010.jpg	99
1249.429	0.824	823.5	0back	Block2	0back/STIM_011.jpg	99
1253.412	0.779	779.4	0back	Block2	0back/STIM_011.jpg	100
1256.294	0.54	539.6	0back	Block2	0back/STIM_011.jpg	99
1260.246	0.451	451.0	0back	Block2	0back/STIM_012.jpg	99
1264.012	0.505	504.8	0back	Block2	0back/STIM_012.jpg	100
1267.229	0.52	519.6	0back	Block2	0back/STIM_012.jpg	99
1270.444	0.445	445.1	0back	Block2	0back/STIM_013.jpg	100
1273.412	0.722	722.2	0back	Block2	0back/STIM_013.jpg	99
1276.38	0.484	484.2	0back	Block2	0back/STIM_013.jpg	100
1279.651	0.466	465.5	0back	Block2	0back/STIM_014.jpg	100
1283.955	0.71	709.9	0back	Block2	0back/STIM_014.jpg	100
1287.443	0.731	731.3	0back	Block2	0back/STIM_014.jpg	99
1292.109	0.487	486.7	0back	Block2	0back/STIM_015.jpg	100
1295.438	0.806	806.3	0back	Block2	0back/STIM_015.jpg	100
1298.293	0.52	520.2	0back	Block2	0back/STIM_015.jpg	99
1302.075	0.692	691.8	0back	Block2	0back/STIM_016.jpg	100
1306.063	0.736	735.7	0back	Block2	0back/STIM_016.jpg	100
1309.196	0.78	780.0	0back	Block2	0back/STIM_016.jpg	99
1313.337	0.464	463.9	0back	Block2	0back/STIM_017.jpg	99
1316.316	0.717	717.0	0back	Block2	0back/STIM_017.jpg	99
1319.243	0.722	721.9	0back	Block2	0back/STIM_017.jpg	99
1322.358	0.598	597.9	0back	Block2	0back/STIM_018.jpg	99
1325.556	0.779	778.8	0back	Block2	0back/STIM_018.jpg	100
1328.811	0.688	688.2	0back	Block2	0back/STIM_018.jpg	100
1333.376	0.819	818.6	0back	Block2	0back/STIM_019.jpg	100
1336.499	0.584	584.4	0back	Block2	0back/STIM_019.jpg	100
1339.669	0.711	710.7	0back	Block2	0back/STIM_019.jpg	99
1343.624	0.651	651.0	2back	Block3	2back/STIM_000.jpg	100
1348.092	0.838	837.9	2back	Block3	2back/STIM_000.jpg	100
1352.09	0.517	517.3	2back	Block3	2back/STIM_000.jpg	100
1355.907	0.806	806.2	2back	Block3	2back/STIM_001.jpg	100
1360.073	0.905	904.8	2back	Block3	2back/STIM_001.jpg	100
1364.939	0.651	650.9	2back	Block3	2back/STIM_001.jpg	100
1367.673	0.755	755.4	2back	Block3	2back/STIM_002.jpg	100
1370.967	0.843	843.0	2back	Block3	2back/STIM_002.jpg	100
1373.918	0.946	946.5	2back	Block3	2back/STIM_002.jpg	100
1377.825	0.859	858.9	2back	Block3	2back/STIM_003.jpg	99
1381.267	0.472	471.9	2back	Block3	2back/STIM_003.jpg	100
1385.02	0.801	801.4	2back	Block3	2back/STIM_003.jpg	99
1389.773	0.572	571.6	2back	Block3	2back/STIM_004.jpg	99
1392.809	0.707	707.3	2back	Block3	2back/STIM_004.jpg	100
1397.362	0.882	882.3	2back	Block3	2back/STIM_004.jpg	99
1402.183	0.688	687.5	2back	Block3	2back/STIM_005.jpg	99
1406.454	0.742	741.8	2back	Block3	2back/STIM_005.jpg	99
1409.705	0.787	787.3	2back	Block3	2back/STIM_005.jpg	100
1413.654	0.505	504.6	2back	Block3	2back/STIM_006.jpg	100
1417.654	0.774	773.8	2back	Block3	2back/STIM_006.jpg	100
1421.765	0.867	867.3	2back	Block3	2back/STIM_006.jpg	99
1426.307	0.471	470.9	2back	Block3	2back/STIM_007.jpg	99
1429.649	0.62	620.4	2back	Block3	2back/STIM_007.jpg	100
1432.638	0.689	689.1	2back	Block3	2back/STIM_007.jpg	100
1436.63	0.899	899.4	2back	Block3	2back/STIM_008.jpg	100
1439.664	0.598	598.4	2back	Block3	2back/STIM_008.jpg	99
1443.487	0.457	457.1	2back	Block3	2back/STIM_008.jpg	99
1445.94	0.793	792.7	2back	Block3	2back/STIM_009.jpg	100
1449.829	0.73	730.1	2back	Block3	2back/STIM_009.jpg	100
1453.63	0.918	917.6	2back	Block3	2back/STIM_009.jpg	99
1456.727	0.452	451.6	2back	Block3	2back/STIM_010.jpg	99
1459.733	0.703	702.9	2back	Block3	2back/STIM_010.jpg	100
1462.597	0.922	921.9	2back	Block3	2back/STIM_010.jpg	99
1466.436	0.742	742.2	2back	Block3	2back/STIM_011.jpg	99
1469.294	0.675	674.8	2back	Block3	2back/STIM_011.jpg	100
1473.316	0.692	691.8	2back	Block3	2back/STIM_011.jpg	99
1476.061	0.972	971.7	2back	Block3	2back/STIM_012.jpg	99
1479.492	0.657	657.0	2back	Block3	2back/STIM_012.jpg	99
1483.041	0.578	577.8	2back	Block3	2back/STIM_012.jpg	99
1487.423	0.464	464.3	2back	Block3	2back/STIM_013.jpg	100
1491.811	0.643	642.7	2back	Block3	2back/STIM_013.jpg	100
1495.753	0.911	910.7	2back	Block3	2back/STIM_013.jpg	99
1500.013	0.9	899.9	2back	Block3	2back/STIM_014.jpg	99
1504.669	0.44	439.6	2back	Block3	2back/STIM_014.jpg	99
1507.223	0.905	904.6	2back	Block3	2back/STIM_014.jpg	100
1510.157	0.561	560.8	2back	Block3	2back/STIM_015.jpg	100
1513.004	0.843	843.4	2back	Block3	2back/STIM_015.jpg	99
1516.062	0.893	892.6	2back	Block3	2back/STIM_015.jpg	99
1519.048	0.788	788.1	2back	Block3	2back/STIM_016.jpg	100
1523.364	0.961	960.7	2back	Block3	2back/STIM_016.jpg	100
1527.521	0.828	828.0	2back	Block3	2back/STIM_016.jpg	99
1530.386	0.798	798.0	2back	Block3	2back/STIM_017.jpg	99
1534.899	0.997	996.6	2back	Block3	2back/STIM_017.jpg	100
1538.93	0.628	628.1	2back	Block3	2back/STIM_017.jpg	100
1542.694	0.819	818.9	2back	Block3	2back/STIM_018.jpg	100
1546.804	0.657	657.4	2back	Block3	2back/STIM_018.jpg	100
1550.39	0.736	736.2	2back	Block3	2back/STIM_018.jpg	100
1553.561	0.472	472.0	2back	Block3	2back/STIM_019.jpg	100
1557.927	0.86	859.7	2back	Block3	2back/STIM_019.jpg	100
1561.385	0.529	528.9	2back	Block3	2back/STIM_019.jpg	100
1564.729	0.684	683.8	2back	Block3	2back/STIM_020.jpg	100
1568.691	0.975	974.8	2back	Block3	2back/STIM_020.jpg	99
1572.26	0.775	775.3	2back	Block3	2back/STIM_020.jpg	99
1575.341	0.662	661.7	2back	Block3	2back/STIM_021.jpg	99
1579.747	0.792	792.0	2back	Block3	2back/STIM_021.jpg	100
1584.143	0.977	976.7	2back	Block3	2back/STIM_021.jpg	100
1588.531	0.94	939.7	2back	Block3	2back/STIM_022.jpg	100
1592.525	0.975	974.7	2back	Block3	2back/STIM_022.jpg	99
1596.488	0.518	518.4	2back	Block3	2back/STIM_022.jpg	99
1599.688	0.916	916.3	2back	Block3	2back/STIM_023.jpg	99
1602.778	0.44	440.5	2back	Block3	2back/STIM_023.jpg	100
1607.192	0.514	514.5	2back	Block3	2back/STIM_023.jpg	99
1611.039	0.793	792.9	2back	Block3	2back/STIM_024.jpg	100
1614.267	0.999	999.4	2back	Block3	2back/STIM_024.jpg	99
1618.429	0.57	569.9	2back	Block3	2back/STIM_024.jpg	99
1621.924	0.99	990.0	2back	Block3	2back/STIM_025.jpg	99
1625.984	0.77	770.5	2back	Block3	2back/STIM_025.jpg	100
1629.304	0.457	457.2	2back	Block3	2back/STIM_025.jpg	99
1632.271	0.937	936.8	2back	Block3	2back/STIM_026.jpg	99
1636.73	0.459	458.6	2back	Block3	2back/STIM_026.jpg	99
1640.784	0.843	842.7	2back	Block3	2back/STIM_026.jpg	100
1645.414	0.823	822.7	2back	Block3	2back/STIM_027.jpg	100
1648.405	0.832	831.6	2back	Block3	2back/STIM_027.jpg	100
1652.164	0.803	803.2	2back	Block3	2back/STIM_027.jpg	100
1656.332	0.638	638.5	2back	Block3	2back/STIM_028.jpg	100
1660.298	0.489	489.4	2back	Block3	2back/STIM_028.jpg	99
1664.483	0.565	565.2	2back	Block3	2back/STIM_028.jpg	99
1668.981	0.83	830.1	2back	Block3	2back/STIM_029.jpg	100
1671.976	0.434	434.5	2back	Block3	2back/STIM_029.jpg	100
1674.575	0.558	558.0	2back	Block3	2back/STIM_029.jpg	100
1677.258	0.937	936.6	2back	Block3	2back/STIM_030.jpg	100
1680.22	0.964	963.9	2back	Block3	2back/STIM_030.jpg	100
1684.01	0.925	924.7	2back	Block3	2back/STIM_030.jpg	99
1687.433	0.495	495.1	2back	Block3	2back/STIM_031.jpg	100
1689.943	0.821	821.0	2back	Block3	2back/STIM_031.jpg	100
1692.83	0.479	479.0	2back	Block3	2back/STIM_031.jpg	100
1695.628	0.637	636.9	2back	Block3	2back/STIM_032.jpg	100
1700.207	0.975	974.6	2back	Block3	2back/STIM_032.jpg	100
1703.957	0.982	982.5	2back	Block3	2back/STIM_032.jpg	100
1707.015	0.722	722.1	2back	Block3	2back/STIM_033.jpg	100
1710.509	0.953	953.1	2back	Block3	2back/STIM_033.jpg	100
1714.67	0.957	956.7	2back	Block3	2back/STIM_033.jpg	100
1717.702	0.647	646.7	2back	Block3	2back/STIM_034.jpg	99
1720.899	0.498	498.0	2back	Block3	2back/STIM_034.jpg	99
1724.766	0.79	789.8	2back	Block3	2back/STIM_034.jpg	99
1728.697	0.559	558.8	2back	Block3	2back/STIM_035.jpg	100
1731.694	0.829	828.6	2back	Block3	2back/STIM_035.jpg	99
1735.814	0.717	716.9	2back	Block3	2back/STIM_035.jpg	99
1739.049	0.71	709.9	2back	Block3	2back/STIM_036.jpg	100
1743.416	0.803	802.9	2back	Block3	2back/STIM_036.jpg	99
1746.327	0.435	434.8	2back	Block3	2back/STIM_036.jpg	100
1748.947	0.643	643.2	2back	Block3	2back/STIM_037.jpg	99
1752.735	0.971	970.7	2back	Block3	2back/STIM_037.jpg	100
1757.162	0.783	783.2	2back	Block3	2back/STIM_037.jpg	99
1760.296	0.796	796.3	2back	Block3	2back/STIM_038.jpg	99
1764.698	0.516	516.3	2back	Block3	2back/STIM_038.jpg	100
1768.302	0.964	964.3	2back	Block3	2back/STIM_038.jpg	100
1773.03	0.729	729.4	2back	Block3	2back/STIM_039.jpg	99
1776.706	0.542	541.7	2back	Block3	2back/STIM_039.jpg	99
1780.43	0.564	564.0	2back	Block3	2back/STIM_039.jpg	99
1782.98	0.606	605.7	0back	Block3	0back/STIM_000.jpg	100
1786.793	0.479	478.7	0back	Block3	0back/STIM_000.jpg	100
1789.766	0.722	721.8	0back	Block3	0back/STIM_000.jpg	99
1792.96	0.558	558.5	0back	Block3	0back/STIM_001.jpg	99
1796.669	0.6	600.2	0back	Block3	0back/STIM_001.jpg	100
1800.785	0.488	488.2	0back	Block3	0back/STIM_001.jpg	100
1805.24	0.815	814.6	0back	Block3	0back/STIM_002.jpg	99
1808.111	0.684	684.2	0back	Block3	0back/STIM_002.jpg	100
1811.843	0.661	661.4	0back	Block3	0back/STIM_002.jpg	100
1816.01	0.423	423.4	0back	Block3	0back/STIM_003.jpg	99
1820.245	0.654	653.9	0back	Block3	0back/STIM_003.jpg	100
1823.304	0.44	439.5	0back	Block3	0back/STIM_003.jpg	99
1826.861	0.538	538.3	0back	Block3	0back/STIM_004.jpg	100
1830.255	0.528	527.9	0back	Block3	0back/STIM_004.jpg	100
1833.221	0.776	775.5	0back	Block3	0back/STIM_004.jpg	99
1837.853	0.548	548.3	0back	Block3	0back/STIM_005.jpg	99
1840.822	0.762	761.5	0back	Block3	0back/STIM_005.jpg	100
1844.978	0.48	479.7	0back	Block3	0back/STIM_005.jpg	99
1849.193	0.768	767.8	0back	Block3	0back/STIM_006.jpg	99
1853.35	0.481	480.6	0back	Block3	0back/STIM_006.jpg	99
1857.773	0.791	791.3	0back	Block3	0back/STIM_006.jpg	99
1861.974	0.524	524.5	0back	Block3	0back/STIM_007.jpg	100
1864.943	0.576	576.1	0back	Block3	0back/STIM_007.jpg	100
1867.801	0.733	733.4	0back	Block3	0back/STIM_007.jpg	99
1870.852	0.797	797.0	0back	Block3	0back/STIM_008.jpg	99
1874.135	0.5	500.5	0back	Block3	0back/STIM_008.jpg	100
1878.56	0.594	594.4	0back	Block3	0back/STIM_008.jpg	100
1882.528	0.627	626.6	0back	Block3	0back/STIM_009.jpg	99
1886.719	0.786	785.5	0back	Block3	0back/STIM_009.jpg	100
1890.509	0.656	655.8	0back	Block3	0back/STIM_009.jpg	100
1894.299	0.428	428.2	0back	Block3	0back/STIM_010.jpg	100
1898.654	0.497	496.9	0back	Block3	0back/STIM_010.jpg	99
1903.058	0.775	774.7	0back	Block3	0back/STIM_010.jpg	99
1907.159	0.811	810.8	0back	Block3	0back/STIM_011.jpg	100
1910.333	0.658	657.5	0back	Block3	0back/STIM_011.jpg	100
1913.533	0.671	671.0	0back	Block3	0back/STIM_011.jpg	100
1917.895	0.797	797.2	0back	Block3	0back/STIM_012.jpg	99
1922.237	0.511	511.2	0back	Block3	0back/STIM_012.jpg	99
1926.169	0.521	521.3	0back	Block3	0back/STIM_012.jpg	99
1929.238	0.566	565.6	0back	Block3	0back/STIM_013.jpg	100
1931.95	0.485	484.8	0back	Block3	0back/STIM_013.jpg	100
1935.085	0.52	520.1	0back	Block3	0back/STIM_013.jpg	100
1938.12	0.481	480.7	0back	Block3	0back/STIM_014.jpg	99
1941.811	0.76	760.1	0back	Block3	0back/STIM_014.jpg	100
1944.837	0.547	546.6	0back	Block3	0back/STIM_014.jpg	100
1947.948	0.73	730.3	0back	Block3	0back/STIM_015.jpg	99
1952.535	0.814	814.2	0back	Block3	0back/STIM_015.jpg	100
1956.089	0.806	806.2	0back	Block3	0back/STIM_015.jpg	99
1959.184	0.774	773.6	0back	Block3	0back/STIM_016.jpg	100
1962.318	0.72	719.7	0back	Block3	0back/STIM_016.jpg	100
1965.815	0.677	677.4	0back	Block3	0back/STIM_016.jpg	100
1970.157	0.504	503.9	0back	Block3	0back/STIM_017.jpg	99
1973.724	0.52	520.2	0back	Block3	0back/STIM_017.jpg	100
1977.678	0.491	490.8	0back	Block3	0back/STIM_017.jpg	100
1980.782	0.606	606.1	0back	Block3	0back/STIM_018.jpg	100
1983.982	0.545	545.3	0back	Block3	0back/STIM_018.jpg	100
1987.264	0.704	704.1	0back	Block3	0back/STIM_018.jpg	100
1990.283	0.509	509.0	0back	Block3	0back/STIM_019.jpg	100
1992.809	0.64	640.1	0back	Block3	0back/STIM_019.jpg	100
1997.058	0.519	518.8	0back	Block3	0back/STIM_019.jpg	99
1999.856	0.733	733.0	2back	Block4	2back/STIM_000.jpg	99
2004.303	0.908	908.0	2back	Block4	2back/STIM_000.jpg	100
2008.233	0.97	970.2	2back	Block4	2back/STIM_000.jpg	100
2012.624	0.994	994.4	2back	Block4	2back/STIM_001.jpg	100
2017.421	0.706	706.1	2back	Block4	2back/STIM_001.jpg	100
2020.804	0.981	980.8	2back	Block4	2back/STIM_001.jpg	99
2023.991	0.876	876.3	2back	Block4	2back/STIM_002.jpg	99
2027.625	0.516	516.3	2back	Block4	2back/STIM_002.jpg	99
2031.867	0.802	801.5	2back	Block4	2back/STIM_002.jpg	100
2036.552	0.676	676.3	2back	Block4	2back/STIM_003.jpg	100
2040.076	0.639	638.9	2back	Block4	2back/STIM_003.jpg	99
2043.256	0.555	554.6	2back	Block4	2back/STIM_003.jpg	100
2047.212	0.765	765.2	2back	Block4	2back/STIM_004.jpg	100
2051.216	0.611	610.8	2back	Block4	2back/STIM_004.jpg	100
2054.387	0.759	758.7	2back	Block4	2back/STIM_004.jpg	99
2058.095	0.945	944.6	2back	Block4	2back/STIM_005.jpg	100
2061.959	0.502	502.4	2back	Block4	2back/STIM_005.jpg	99
2065.079	0.93	929.5	2back	Block4	2back/STIM_005.jpg	100
2069.878	0.488	487.8	2back	Block4	2back/STIM_006.jpg	100
2072.706	0.951	951.3	2back	Block4	2back/STIM_006.jpg	99
2077.13	0.914	914.3	2back	Block4	2back/STIM_006.jpg	99
2081.226	0.756	756.1	2back	Block4	2back/STIM_007.jpg	100
2084.481	0.803	802.9	2back	Block4	2back/STIM_007.jpg	99
2087.535	0.688	687.5	2back	Block4	2back/STIM_007.jpg	100
2090.478	0.958	958.1	2back	Block4	2back/STIM_008.jpg	99
2094.587	0.706	705.5	2back	Block4	2back/STIM_008.jpg	99
2098.214	0.832	832.5	2back	Block4	2back/STIM_008.jpg	100
2102.807	0.65	650.0	2back	Block4	2back/STIM_009.jpg	100
2105.803	0.746	745.5	2back	Block4	2back/STIM_009.jpg	100
2108.756	0.542	541.6	2back	Block4	2back/STIM_009.jpg	100
2111.683	0.754	754.3	2back	Block4	2back/STIM_010.jpg	100
2116.33	0.648	647.8	2back	Block4	2back/STIM_010.jpg	100
2119.715	0.544	544.4	2back	Block4	2back/STIM_010.jpg	100
2123.617	0.86	860.1	2back	Block4	2back/STIM_011.jpg	99
2128.205	0.678	678.4	2back	Block4	2back/STIM_011.jpg	100
2131.029	0.95	950.0	2back	Block4	2back/STIM_011.jpg	100
2135.19	0.484	483.7	2back	Block4	2back/STIM_012.jpg	100
2138.566	0.624	624.0	2back	Block4	2back/STIM_012.jpg	100
2143.053	0.861	861.4	2back	Block4	2back/STIM_012.jpg	100
2146.856	0.607	607.3	2back	Block4	2back/STIM_013.jpg	99
2151.114	0.823	822.7	2back	Block4	2back/STIM_013.jpg	99
2154.646	0.779	779.1	2back	Block4	2back/STIM_013.jpg	100
2157.985	0.625	625.1	2back	Block4	2back/STIM_014.jpg	100
2160.832	0.645	645.0	2back	Block4	2back/STIM_014.jpg	100
2163.879	0.556	556.5	2back	Block4	2back/STIM_014.jpg	100
2166.904	0.66	660.0	2back	Block4	2back/STIM_015.jpg	100
2170.329	0.789	789.3	2back	Block4	2back/STIM_015.jpg	99
2173.446	0.844	843.6	2back	Block4	2back/STIM_015.jpg	100
2176.714	0.824	823.7	2back	Block4	2back/STIM_016.jpg	99
2181.308	0.838	837.5	2back	Block4	2back/STIM_016.jpg	100
2185.897	0.749	749.4	2back	Block4	2back/STIM_016.jpg	99
2189.796	0.708	708.3	2back	Block4	2back/STIM_017.jpg	100
2194.275	0.838	837.6	2back	Block4	2back/STIM_017.jpg	99
2198.546	0.845	845.0	2back	Block4	2back/STIM_017.jpg	99
2201.844	0.555	555.2	2back	Block4	2back/STIM_018.jpg	100
2206.108	0.672	671.7	2back	Block4	2back/STIM_018.jpg	100
2210.104	0.464	464.0	2back	Block4	2back/STIM_018.jpg	99
2213.918	0.742	741.9	2back	Block4	2back/STIM_019.jpg	99
2216.905	0.702	702.4	2back	Block4	2back/STIM_019.jpg	100
2219.616	0.998	998.4	2back	Block4	2back/STIM_019.jpg	100
2224.21	0.884	884.5	2back	Block4	2back/STIM_020.jpg	99
2227.576	0.975	975.2	2back	Block4	2back/STIM_020.jpg	99
2231.559	0.846	845.9	2back	Block4	2back/STIM_020.jpg	99
2235.506	0.846	846.2	2back	Block4	2back/STIM_021.jpg	100
2238.82	0.69	689.9	2back	Block4	2back/STIM_021.jpg	100
2242.452	0.586	586.5	2back	Block4	2back/STIM_021.jpg	100
2246.342	0.876	876.4	2back	Block4	2back/STIM_022.jpg	100
2249.253	0.927	927.1	2back	Block4	2back/STIM_022.jpg	100
2252.766	0.646	645.7	2back	Block4	2back/STIM_022.jpg	99
2255.82	0.473	473.4	2back	Block4	2back/STIM_023.jpg	99
2258.585	0.697	696.9	2back	Block4	2back/STIM_023.jpg	99
2263.102	0.563	563.4	2back	Block4	2back/STIM_023.jpg	99
2267.594	0.802	802.3	2back	Block4	2back/STIM_024.jpg	100
2271.157	0.692	692.1	2back	Block4	2back/STIM_024.jpg	99
2274.016	0.862	861.7	2back	Block4	2back/STIM_024.jpg	100
2277.93	0.709	709.0	2back	Block4	2back/STIM_025.jpg	100
2281.764	0.898	897.5	2back	Block4	2back/STIM_025.jpg	100
2286.427	0.586	585.6	2back	Block4	2back/STIM_025.jpg	99
2289.774	0.647	647.3	2back	Block4	2back/STIM_026.jpg	100
2293.122	0.643	643.3	2back	Block4	2back/STIM_026.jpg	99
2296.373	0.98	979.6	2back	Block4	2back/STIM_026.jpg	100
2299.379	0.976	976.3	2back	Block4	2back/STIM_027.jpg	99
2304.261	0.962	961.8	2back	Block4	2back/STIM_027.jpg	100
2309.117	0.59	590.2	2back	Block4	2back/STIM_027.jpg	100
2311.919	0.848	848.5	2back	Block4	2back/STIM_028.jpg	99
2316.023	0.74	740.2	2back	Block4	2back/STIM_028.jpg	100
2318.805	0.616	616.1	2back	Block4	2back/STIM_028.jpg	99
2322.854	0.66	659.9	2back	Block4	2back/STIM_029.jpg	100
2326.196	0.644	644.3	2back	Block4	2back/STIM_029.jpg	99
2328.833	0.529	529.1	2back	Block4	2back/STIM_029.jpg	99
2333.171	0.907	906.6	2back	Block4	2back/STIM_030.jpg	100
2336.237	0.968	968.3	2back	Block4	2back/STIM_030.jpg	100
2340.119	0.83	830.3	2back	Block4	2back/STIM_030.jpg	99
2344.126	0.771	771.3	2back	Block4	2back/STIM_031.jpg	100
2348.404	0.444	444.0	2back	Block4	2back/STIM_031.jpg	99
2350.947	0.671	671.2	2back	Block4	2back/STIM_031.jpg	100
2355.396	0.605	604.9	2back	Block4	2back/STIM_032.jpg	100
2359.972	0.863	862.8	2back	Block4	2back/STIM_032.jpg	100
2364.414	0.873	873.0	2back	Block4	2back/STIM_032.jpg	100
2368.089	0.888	887.6	2back	Block4	2back/STIM_033.jpg	99
2371.914	0.884	884.5	2back	Block4	2back/STIM_033.jpg	100
2375.063	0.763	763.4	2back	Block4	2back/STIM_033.jpg	100
2378.141	0.873	873.1	2back	Block4	2back/STIM_034.jpg	100
2381.124	0.98	980.3	2back	Block4	2back/STIM_034.jpg	100
2385.821	0.477	476.6	2back	Block4	2back/STIM_034.jpg	99
2388.575	0.944	944.1	2back	Block4	2back/STIM_035.jpg	100
2391.56	0.833	833.0	2back	Block4	2back/STIM_035.jpg	99
2395.017	0.658	658.2	2back	Block4	2back/STIM_035.jpg	99
2398.902	0.578	578.4	2back	Block4	2back/STIM_036.jpg	99
2402.555	0.989	989.0	2back	Block4	2back/STIM_036.jpg	100
2407.11	0.549	549.1	2back	Block4	2back/STIM_036.jpg	99
2411.184	0.953	952.7	2back	Block4	2back/STIM_037.jpg	100
2414.212	0.815	814.7	2back	Block4	2back/STIM_037.jpg	99
2417.713	0.781	781.3	2back	Block4	2back/STIM_037.jpg	100
2421.352	0.583	583.0	2back	Block4	2back/STIM_038.jpg	99
2424.778	0.63	629.6	2back	Block4	2back/STIM_038.jpg	100
2427.526	0.748	747.7	2back	Block4	2back/STIM_038.jpg	100
2431.989	0.744	744.1	2back	Block4	2back/STIM_039.jpg	99
2436.377	0.9	900.3	2back	Block4	2back/STIM_039.jpg	100
2439.808	0.894	893.9	2back	Block4	2back/STIM_039.jpg	100
2442.917	0.75	749.7	0back	Block4	0back/STIM_000.jpg	100
2447.447	0.519	519.1	0back	Block4	0back/STIM_000.jpg	99
2451.76	0.754	753.6	0back	Block4	0back/STIM_000.jpg	100
2455.797	0.55	550.5	0back	Block4	0back/STIM_001.jpg	100
2459.529	0.633	632.6	0back	Block4	0back/STIM_001.jpg	99
2462.967	0.732	732.1	0back	Block4	0back/STIM_001.jpg	100
2466.648	0.58	579.7	0back	Block4	0back/STIM_002.jpg	99
2470.379	0.619	619.4	0back	Block4	0back/STIM_002.jpg	100
2474.022	0.695	695.4	0back	Block4	0back/STIM_002.jpg	100
2477.657	0.581	581.4	0back	Block4	0back/STIM_003.jpg	100
2480.882	0.478	477.7	0back	Block4	0back/STIM_003.jpg	100
2483.737	0.726	725.6	0back	Block4	0back/STIM_003.jpg	100
2487.946	0.669	669.1	0back	Block4	0back/STIM_004.jpg	99
2491.802	0.773	773.1	0back	Block4	0back/STIM_004.jpg	99
2495.824	0.458	458.1	0back	Block4	0back/STIM_004.jpg	100
2499.698	0.432	432.3	0back	Block4	0back/STIM_005.jpg	100
2502.396	0.815	814.7	0back	Block4	0back/STIM_005.jpg	99
2505.213	0.804	803.8	0back	Block4	0back/STIM_005.jpg	99
2508.251	0.797	797.4	0back	Block4	0back/STIM_006.jpg	100
2511.694	0.809	808.9	0back	Block4	0back/STIM_006.jpg	99
2515.76	0.744	744.0	0back	Block4	0back/STIM_006.jpg	99
2520.339	0.705	705.3	0back	Block4	0back/STIM_007.jpg	99
2524.275	0.462	461.5	0back	Block4	0back/STIM_007.jpg	99
2527.389	0.696	695.9	0back	Block4	0back/STIM_007.jpg	99
2531.102	0.623	623.1	0back	Block4	0back/STIM_008.jpg	100
2535.341	0.688	688.5	0back	Block4	0back/STIM_008.jpg	100
2538.378	0.458	457.5	0back	Block4	0back/STIM_008.jpg	99
2542.258	0.458	458.0	0back	Block4	0back/STIM_009.jpg	99
2546.182	0.753	752.7	0back	Block4	0back/STIM_009.jpg	99
2550.461	0.766	765.7	0back	Block4	0back/STIM_009.jpg	99
2553.393	0.776	775.7	0back	Block4	0back/STIM_010.jpg	99
2556.157	0.79	790.0	0back	Block4	0back/STIM_010.jpg	100
2560.309	0.808	808.2	0back	Block4	0back/STIM_010.jpg	100
2563.631	0.695	694.7	0back	Block4	0back/STIM_011.jpg	99
2567.568	0.776	775.7	0back	Block4	0back/STIM_011.jpg	100
2572.213	0.772	772.0	0back	Block4	0back/STIM_011.jpg	99
2576.579	0.822	821.7	0back	Block4	0back/STIM_012.jpg	99
2580.777	0.663	663.0	0back	Block4	0back/STIM_012.jpg	100
2585.211	0.48	480.3	0back	Block4	0back/STIM_012.jpg	99
2589.15	0.471	471.1	0back	Block4	0back/STIM_013.jpg	100
2592.347	0.52	519.6	0back	Block4	0back/STIM_013.jpg	100
2595.072	0.44	440.1	0back	Block4	0back/STIM_013.jpg	99
2598.391	0.657	656.9	0back	Block4	0back/STIM_014.jpg	100
2602.546	0.677	676.7	0back	Block4	0back/STIM_014.jpg	99
2606.437	0.648	647.5	0back	Block4	0back/STIM_014.jpg	100
2610.301	0.666	665.7	0back	Block4	0back/STIM_015.jpg	100
2614.496	0.633	633.2	0back	Block4	0back/STIM_015.jpg	99
2618.752	0.499	499.2	0back	Block4	0back/STIM_015.jpg	100
2622.484	0.502	502.3	0back	Block4	0back/STIM_016.jpg	100
2626.047	0.689	689.4	0back	Block4	0back/STIM_016.jpg	100
2630.153	0.494	494.0	0back	Block4	0back/STIM_016.jpg	100
2634.341	0.714	713.7	0back	Block4	0back/STIM_017.jpg	99
2638.132	0.522	522.3	0back	Block4	0back/STIM_017.jpg	99
2641.622	0.544	543.7	0back	Block4	0back/STIM_017.jpg	100
2645.448	0.721	721.2	0back	Block4	0back/STIM_018.jpg	100
2649.156	0.554	553.8	0back	Block4	0back/STIM_018.jpg	99
2652.195	0.515	515.3	0back	Block4	0back/STIM_018.jpg	100
2656.164	0.788	788.1	0back	Block4	0back/STIM_019.jpg	100
2659.868	0.78	779.9	0back	Block4	0back/STIM_019.jpg	99
2663.928	0.5	499.9	0back	Block4	0back/STIM_019.jpg	99
