onset	duration	accuracy_binary	trial_type	learning_stage	stimulus
0.0	0.669	1	2back	Block1	2back/STIM_000.jpg
4.193	0.603	1	2back	Block1	2back/STIM_000.jpg
8.509	1.126	1	2back	Block1	2back/STIM_000.jpg
11.703	0.886	1	2back	Block1	2back/STIM_001.jpg
15.736	0.635	1	2back	Block1	2back/STIM_001.jpg
20.269	0.74	1	2back	Block1	2back/STIM_001.jpg
23.633	0.826	1	2back	Block1	2back/STIM_002.jpg
27.204	1.295	1	2back	Block1	2back/STIM_002.jpg
30.558	0.87	0	2back	Block1	2back/STIM_002.jpg
33.955	0.636	1	2back	Block1	2back/STIM_003.jpg
38.022	1.302	1	2back	Block1	2back/STIM_003.jpg
42.68	0.79	1	2back	Block1	2back/STIM_003.jpg
46.371	1.085	1	2back	Block1	2back/STIM_004.jpg
50.345	1.211	1	2back	Block1	2back/STIM_004.jpg
53.822	0.879	1	2back	Block1	2back/STIM_004.jpg
57.115	1.371	1	2back	Block1	2back/STIM_005.jpg
62.207	0.638	1	2back	Block1	2back/STIM_005.jpg
65.838	1.137	1	2back	Block1	2back/STIM_005.jpg
69.789	0.943	1	2back	Block1	2back/STIM_006.jpg
74.507	1.369	1	2back	Block1	2back/STIM_006.jpg
78.743	0.914	1	2back	Block1	2back/STIM_006.jpg
82.242	1.001	1	2back	Block1	2back/STIM_007.jpg
86.153	0.987	1	2back	Block1	2back/STIM_007.jpg
89.637	0.663	1	2back	Block1	2back/STIM_007.jpg
92.476	0.913	1	2back	Block1	2back/STIM_008.jpg
96.775	0.915	1	2back	Block1	2back/STIM_008.jpg
100.257	1.003	1	2back	Block1	2back/STIM_008.jpg
104.618	0.999	0	2back	Block1	2back/STIM_009.jpg
108.974	0.719	0	2back	Block1	2back/STIM_009.jpg
112.831	1.202	1	2back	Block1	2back/STIM_009.jpg
116.381	0.793	1	2back	Block1	2back/STIM_010.jpg
119.229	0.75	1	2back	Block1	2back/STIM_010.jpg
123.18	0.828	1	2back	Block1	2back/STIM_010.jpg
127.106	0.959	1	2back	Block1	2back/STIM_011.jpg
130.788	1.188	1	2back	Block1	2back/STIM_011.jpg
134.982	1.239	1	2back	Block1	2back/STIM_011.jpg
139.801	0.913	1	2back	Block1	2back/STIM_012.jpg
143.355	1.039	0	2back	Block1	2back/STIM_012.jpg
147.072	1.192	1	2back	Block1	2back/STIM_012.jpg
151.832	0.927	1	2back	Block1	2back/STIM_013.jpg
155.376	1.317	1	2back	Block1	2back/STIM_013.jpg
158.845	0.746	1	2back	Block1	2back/STIM_013.jpg
162.382	1.426	1	2back	Block1	2back/STIM_014.jpg
166.003	0.827	1	2back	Block1	2back/STIM_014.jpg
170.022	0.846	1	2back	Block1	2back/STIM_014.jpg
173.687	0.772	1	2back	Block1	2back/STIM_015.jpg
177.124	0.696	1	2back	Block1	2back/STIM_015.jpg
180.835	1.238	1	2back	Block1	2back/STIM_015.jpg
185.88	0.907	1	2back	Block1	2back/STIM_016.jpg
190.356	0.942	1	2back	Block1	2back/STIM_016.jpg
195.056	0.704	1	2back	Block1	2back/STIM_016.jpg
197.92	1.027	1	2back	Block1	2back/STIM_017.jpg
201.505	0.683	0	2back	Block1	2back/STIM_017.jpg
204.694	0.691	1	2back	Block1	2back/STIM_017.jpg
207.846	1.134	0	2back	Block1	2back/STIM_018.jpg
211.016	0.872	1	2back	Block1	2back/STIM_018.jpg
214.889	0.832	0	2back	Block1	2back/STIM_018.jpg
219.389	1.246	1	2back	Block1	2back/STIM_019.jpg
224.07	1.302	1	2back	Block1	2back/STIM_019.jpg
227.728	0.888	1	2back	Block1	2back/STIM_019.jpg
231.676	1.362	1	2back	Block1	2back/STIM_020.jpg
236.276	0.644	1	2back	Block1	2back/STIM_020.jpg
239.056	0.998	1	2back	Block1	2back/STIM_020.jpg
242.9	1.436	1	2back	Block1	2back/STIM_021.jpg
248.294	0.633	0	2back	Block1	2back/STIM_021.jpg
252.269	0.612	1	2back	Block1	2back/STIM_021.jpg
254.939	0.855	1	2back	Block1	2back/STIM_022.jpg
257.968	0.928	1	2back	Block1	2back/STIM_022.jpg
261.521	0.945	1	2back	Block1	2back/STIM_022.jpg
266.23	0.868	1	2back	Block1	2back/STIM_023.jpg
269.264	0.902	1	2back	Block1	2back/STIM_023.jpg
273.769	1.277	1	2back	Block1	2back/STIM_023.jpg
277.803	0.859	1	2back	Block1	2back/STIM_024.jpg
280.813	0.818	1	2back	Block1	2back/STIM_024.jpg
284.206	0.647	1	2back	Block1	2back/STIM_024.jpg
287.927	0.925	1	2back	Block1	2back/STIM_025.jpg
290.937	1.357	1	2back	Block1	2back/STIM_025.jpg
295.563	1.032	1	2back	Block1	2back/STIM_025.jpg
298.812	0.622	1	2back	Block1	2back/STIM_026.jpg
302.002	0.876	1	2back	Block1	2back/STIM_026.jpg
305.418	0.804	0	2back	Block1	2back/STIM_026.jpg
310.026	0.65	1	2back	Block1	2back/STIM_027.jpg
313.605	0.623	1	2back	Block1	2back/STIM_027.jpg
316.269	0.733	1	2back	Block1	2back/STIM_027.jpg
319.679	1.353	1	2back	Block1	2back/STIM_028.jpg
323.304	1.258	1	2back	Block1	2back/STIM_028.jpg
327.849	1.143	1	2back	Block1	2back/STIM_028.jpg
332.602	0.686	0	2back	Block1	2back/STIM_029.jpg
337.081	0.724	1	2back	Block1	2back/STIM_029.jpg
341.676	1.074	1	2back	Block1	2back/STIM_029.jpg
346.518	0.879	1	2back	Block1	2back/STIM_030.jpg
349.876	0.963	1	2back	Block1	2back/STIM_030.jpg
354.282	1.152	1	2back	Block1	2back/STIM_030.jpg
358.659	0.724	0	2back	Block1	2back/STIM_031.jpg
361.572	1.007	1	2back	Block1	2back/STIM_031.jpg
366.054	0.96	1	2back	Block1	2back/STIM_031.jpg
370.054	1.36	0	2back	Block1	2back/STIM_032.jpg
374.918	1.09	1	2back	Block1	2back/STIM_032.jpg
379.698	0.793	0	2back	Block1	2back/STIM_032.jpg
383.865	1.284	1	2back	Block1	2back/STIM_033.jpg
387.662	1.214	1	2back	Block1	2back/STIM_033.jpg
392.716	1.232	1	2back	Block1	2back/STIM_033.jpg
397.629	1.189	1	2back	Block1	2back/STIM_034.jpg
402.198	0.909	1	2back	Block1	2back/STIM_034.jpg
406.601	0.809	1	2back	Block1	2back/STIM_034.jpg
410.479	1.165	0	2back	Block1	2back/STIM_035.jpg
415.251	0.777	1	2back	Block1	2back/STIM_035.jpg
419.809	1.042	1	2back	Block1	2back/STIM_035.jpg
424.106	1.05	1	2back	Block1	2back/STIM_036.jpg
428.003	0.943	0	2back	Block1	2back/STIM_036.jpg
431.931	0.944	1	2back	Block1	2back/STIM_036.jpg
435.822	1.059	1	2back	Block1	2back/STIM_037.jpg
440.473	1.3	1	2back	Block1	2back/STIM_037.jpg
444.487	0.924	1	2back	Block1	2back/STIM_037.jpg
449.368	1.132	1	2back	Block1	2back/STIM_038.jpg
453.294	1.008	1	2back	Block1	2back/STIM_038.jpg
457.936	0.916	1	2back	Block1	2back/STIM_038.jpg
462.288	1.156	0	2back	Block1	2back/STIM_039.jpg
465.68	1.284	1	2back	Block1	2back/STIM_039.jpg
469.741	1.194	1	2back	Block1	2back/STIM_039.jpg
473.241	0.645	1	0back	Block1	0back/STIM_000.jpg
476.458	0.716	1	0back	Block1	0back/STIM_000.jpg
479.345	0.55	1	0back	Block1	0back/STIM_000.jpg
482.436	0.746	1	0back	Block1	0back/STIM_001.jpg
485.954	0.52	1	0back	Block1	0back/STIM_001.jpg
489.213	0.737	1	0back	Block1	0back/STIM_001.jpg
492.737	0.728	1	0back	Block1	0back/STIM_002.jpg
496.875	0.486	1	0back	Block1	0back/STIM_002.jpg
500.263	0.562	1	0back	Block1	0back/STIM_002.jpg
503.741	0.659	1	0back	Block1	0back/STIM_003.jpg
507.215	0.734	1	0back	Block1	0back/STIM_003.jpg
510.706	0.591	1	0back	Block1	0back/STIM_003.jpg
513.388	0.517	1	0back	Block1	0back/STIM_004.jpg
517.345	0.419	1	0back	Block1	0back/STIM_004.jpg
521.04	0.588	0	0back	Block1	0back/STIM_004.jpg
525.579	0.512	1	0back	Block1	0back/STIM_005.jpg
528.112	0.782	1	0back	Block1	0back/STIM_005.jpg
531.963	0.796	1	0back	Block1	0back/STIM_005.jpg
535.42	0.654	1	0back	Block1	0back/STIM_006.jpg
539.144	0.695	1	0back	Block1	0back/STIM_006.jpg
542.851	0.664	1	0back	Block1	0back/STIM_006.jpg
547.244	0.433	1	0back	Block1	0back/STIM_007.jpg
550.198	0.51	1	0back	Block1	0back/STIM_007.jpg
553.642	0.691	1	0back	Block1	0back/STIM_007.jpg
556.319	0.472	1	0back	Block1	0back/STIM_008.jpg
560.737	0.452	1	0back	Block1	0back/STIM_008.jpg
563.453	0.54	1	0back	Block1	0back/STIM_008.jpg
566.669	0.415	1	0back	Block1	0back/STIM_009.jpg
570.774	0.423	1	0back	Block1	0back/STIM_009.jpg
574.043	0.785	1	0back	Block1	0back/STIM_009.jpg
578.521	0.764	1	0back	Block1	0back/STIM_010.jpg
581.516	0.55	1	0back	Block1	0back/STIM_010.jpg
585.306	0.666	0	0back	Block1	0back/STIM_010.jpg
588.713	0.599	1	0back	Block1	0back/STIM_011.jpg
592.446	0.822	1	0back	Block1	0back/STIM_011.jpg
596.61	0.507	1	0back	Block1	0back/STIM_011.jpg
599.793	0.738	1	0back	Block1	0back/STIM_012.jpg
603.952	0.471	1	0back	Block1	0back/STIM_012.jpg
607.815	0.469	1	0back	Block1	0back/STIM_012.jpg
611.864	0.814	1	0back	Block1	0back/STIM_013.jpg
614.9	0.639	1	0back	Block1	0back/STIM_013.jpg
618.634	0.484	1	0back	Block1	0back/STIM_013.jpg
622.412	0.567	1	0back	Block1	0back/STIM_014.jpg
625.319	0.745	1	0back	Block1	0back/STIM_014.jpg
629.441	0.803	1	0back	Block1	0back/STIM_014.jpg
633.795	0.672	1	0back	Block1	0back/STIM_015.jpg
636.568	0.757	1	0back	Block1	0back/STIM_015.jpg
639.941	0.561	1	0back	Block1	0back/STIM_015.jpg
642.736	0.594	1	0back	Block1	0back/STIM_016.jpg
646.317	0.574	1	0back	Block1	0back/STIM_016.jpg
649.153	0.671	1	0back	Block1	0back/STIM_016.jpg
652.699	0.723	1	0back	Block1	0back/STIM_017.jpg
655.703	0.511	1	0back	Block1	0back/STIM_017.jpg
658.7	0.822	1	0back	Block1	0back/STIM_017.jpg
662.334	0.442	1	0back	Block1	0back/STIM_018.jpg
664.927	0.658	1	0back	Block1	0back/STIM_018.jpg
669.113	0.73	1	0back	Block1	0back/STIM_018.jpg
672.33	0.579	1	0back	Block1	0back/STIM_019.jpg
676.563	0.698	1	0back	Block1	0back/STIM_019.jpg
679.652	0.426	1	0back	Block1	0back/STIM_019.jpg
683.501	0.618	1	2back	Block2	2back/STIM_000.jpg
687.252	0.968	1	2back	Block2	2back/STIM_000.jpg
690.42	0.869	1	2back	Block2	2back/STIM_000.jpg
694.433	0.769	1	2back	Block2	2back/STIM_001.jpg
699.04	0.785	1	2back	Block2	2back/STIM_001.jpg
703.118	1.069	1	2back	Block2	2back/STIM_001.jpg
706.413	1.059	0	2back	Block2	2back/STIM_002.jpg
710.3	1.054	1	2back	Block2	2back/STIM_002.jpg
714.728	0.572	0	2back	Block2	2back/STIM_002.jpg
718.109	0.942	1	2back	Block2	2back/STIM_003.jpg
722.876	0.524	1	2back	Block2	2back/STIM_003.jpg
726.551	0.682	1	2back	Block2	2back/STIM_003.jpg
730.239	0.69	1	2back	Block2	2back/STIM_004.jpg
733.656	0.766	1	2back	Block2	2back/STIM_004.jpg
736.818	0.682	1	2back	Block2	2back/STIM_004.jpg
739.942	1.01	1	2back	Block2	2back/STIM_005.jpg
743.589	0.964	1	2back	Block2	2back/STIM_005.jpg
747.037	1.067	1	2back	Block2	2back/STIM_005.jpg
750.402	0.862	1	2back	Block2	2back/STIM_006.jpg
753.926	0.564	1	2back	Block2	2back/STIM_006.jpg
757.762	0.872	1	2back	Block2	2back/STIM_006.jpg
761.701	0.753	1	2back	Block2	2back/STIM_007.jpg
764.878	0.725	1	2back	Block2	2back/STIM_007.jpg
768.771	1.072	1	2back	Block2	2back/STIM_007.jpg
772.526	0.893	1	2back	Block2	2back/STIM_008.jpg
775.659	0.742	1	2back	Block2	2back/STIM_008.jpg
779.823	0.839	1	2back	Block2	2back/STIM_008.jpg
783.959	1.181	1	2back	Block2	2back/STIM_009.jpg
788.295	0.664	0	2back	Block2	2back/STIM_009.jpg
791.902	0.66	1	2back	Block2	2back/STIM_009.jpg
795.384	0.622	1	2back	Block2	2back/STIM_010.jpg
798.116	1.027	1	2back	Block2	2back/STIM_010.jpg
801.675	0.839	1	2back	Block2	2back/STIM_010.jpg
805.535	0.681	1	2back	Block2	2back/STIM_011.jpg
809.792	0.861	1	2back	Block2	2back/STIM_011.jpg
813.416	0.815	1	2back	Block2	2back/STIM_011.jpg
816.427	0.627	1	2back	Block2	2back/STIM_012.jpg
819.968	0.958	1	2back	Block2	2back/STIM_012.jpg
823.095	0.818	1	2back	Block2	2back/STIM_012.jpg
826.627	1.115	1	2back	Block2	2back/STIM_013.jpg
830.559	0.812	1	2back	Block2	2back/STIM_013.jpg
835.166	0.641	1	2back	Block2	2back/STIM_013.jpg
838.318	0.912	1	2back	Block2	2back/STIM_014.jpg
843.169	0.76	1	2back	Block2	2back/STIM_014.jpg
846.712	0.524	1	2back	Block2	2back/STIM_014.jpg
850.616	0.657	1	2back	Block2	2back/STIM_015.jpg
853.678	0.671	1	2back	Block2	2back/STIM_015.jpg
857.211	0.968	1	2back	Block2	2back/STIM_015.jpg
861.687	0.622	1	2back	Block2	2back/STIM_016.jpg
864.98	0.696	1	2back	Block2	2back/STIM_016.jpg
867.72	0.812	0	2back	Block2	2back/STIM_016.jpg
871.525	0.713	1	2back	Block2	2back/STIM_017.jpg
874.285	0.842	1	2back	Block2	2back/STIM_017.jpg
877.857	0.711	1	2back	Block2	2back/STIM_017.jpg
882.059	0.678	1	2back	Block2	2back/STIM_018.jpg
886.576	1.081	1	2back	Block2	2back/STIM_018.jpg
890.019	0.474	1	2back	Block2	2back/STIM_018.jpg
892.771	0.779	1	2back	Block2	2back/STIM_019.jpg
897.401	0.748	1	2back	Block2	2back/STIM_019.jpg
901.663	0.53	1	2back	Block2	2back/STIM_019.jpg
904.73	0.871	1	2back	Block2	2back/STIM_020.jpg
909.132	0.886	1	2back	Block2	2back/STIM_020.jpg
913.137	0.641	1	2back	Block2	2back/STIM_020.jpg
915.769	1.019	1	2back	Block2	2back/STIM_021.jpg
920.092	0.772	1	2back	Block2	2back/STIM_021.jpg
923.33	0.646	1	2back	Block2	2back/STIM_021.jpg
927.437	0.741	1	2back	Block2	2back/STIM_022.jpg
930.559	0.946	0	2back	Block2	2back/STIM_022.jpg
934.461	0.696	1	2back	Block2	2back/STIM_022.jpg
938.943	1.198	1	2back	Block2	2back/STIM_023.jpg
942.808	0.96	1	2back	Block2	2back/STIM_023.jpg
947.66	0.993	1	2back	Block2	2back/STIM_023.jpg
951.693	0.852	1	2back	Block2	2back/STIM_024.jpg
955.627	1.104	1	2back	Block2	2back/STIM_024.jpg
960.675	0.982	1	2back	Block2	2back/STIM_024.jpg
964.34	0.676	0	2back	Block2	2back/STIM_025.jpg
967.183	0.784	1	2back	Block2	2back/STIM_025.jpg
971.551	0.568	1	2back	Block2	2back/STIM_025.jpg
975.338	1.164	1	2back	Block2	2back/STIM_026.jpg
979.657	0.817	1	2back	Block2	2back/STIM_026.jpg
983.32	0.864	1	2back	Block2	2back/STIM_026.jpg
986.948	0.811	1	2back	Block2	2back/STIM_027.jpg
990.227	0.859	1	2back	Block2	2back/STIM_027.jpg
993.976	0.84	1	2back	Block2	2back/STIM_027.jpg
998.776	0.936	1	2back	Block2	2back/STIM_028.jpg
1003.04	1.093	1	2back	Block2	2back/STIM_028.jpg
1007.243	0.493	1	2back	Block2	2back/STIM_028.jpg
1011.641	0.945	1	2back	Block2	2back/STIM_029.jpg
1014.604	0.98	1	2back	Block2	2back/STIM_029.jpg
1018.651	0.767	1	2back	Block2	2back/STIM_029.jpg
1021.533	1.008	1	2back	Block2	2back/STIM_030.jpg
1024.672	0.695	1	2back	Block2	2back/STIM_030.jpg
1028.225	1.011	1	2back	Block2	2back/STIM_030.jpg
1032.604	0.556	1	2back	Block2	2back/STIM_031.jpg
1035.543	0.83	1	2back	Block2	2back/STIM_031.jpg
1039.744	0.564	1	2back	Block2	2back/STIM_031.jpg
1043.364	1.074	1	2back	Block2	2back/STIM_032.jpg
1046.589	0.728	1	2back	Block2	2back/STIM_032.jpg
1049.991	0.642	1	2back	Block2	2back/STIM_032.jpg
1054.525	0.526	1	2back	Block2	2back/STIM_033.jpg
1057.631	0.671	0	2back	Block2	2back/STIM_033.jpg
1062.217	0.614	0	2back	Block2	2back/STIM_033.jpg
1065.061	0.745	1	2back	Block2	2back/STIM_034.jpg
1069.219	0.752	1	2back	Block2	2back/STIM_034.jpg
1073.563	0.497	1	2back	Block2	2back/STIM_034.jpg
1077.695	1.113	1	2back	Block2	2back/STIM_035.jpg
1081.049	0.98	1	2back	Block2	2back/STIM_035.jpg
1085.768	0.466	1	2back	Block2	2back/STIM_035.jpg
1089.535	0.536	1	2back	Block2	2back/STIM_036.jpg
1093.284	0.987	1	2back	Block2	2back/STIM_036.jpg
1097.297	0.614	1	2back	Block2	2back/STIM_036.jpg
1101.178	0.773	1	2back	Block2	2back/STIM_037.jpg
1104.659	0.598	1	2back	Block2	2back/STIM_037.jpg
1108.681	0.635	0	2back	Block2	2back/STIM_037.jpg
1112.541	0.724	1	2back	Block2	2back/STIM_038.jpg
1115.457	0.541	1	2back	Block2	2back/STIM_038.jpg
1118.271	0.538	1	2back	Block2	2back/STIM_038.jpg
1122.237	0.755	1	2back	Block2	2back/STIM_039.jpg
1125.316	0.58	1	2back	Block2	2back/STIM_039.jpg
1129.249	1.029	1	2back	Block2	2back/STIM_039.jpg
1133.952	0.82	1	0back	Block2	0back/STIM_000.jpg
1137.775	0.804	0	0back	Block2	0back/STIM_000.jpg
1142.055	0.682	1	0back	Block2	0back/STIM_000.jpg
1145.936	0.447	1	0back	Block2	0back/STIM_001.jpg
1148.726	0.662	1	0back	Block2	0back/STIM_001.jpg
1151.405	0.431	1	0back	Block2	0back/STIM_001.jpg
1155.523	0.435	1	0back	Block2	0back/STIM_002.jpg
1159.92	0.537	1	0back	Block2	0back/STIM_002.jpg
1163.04	0.609	1	0back	Block2	0back/STIM_002.jpg
1166.531	0.479	1	0back	Block2	0back/STIM_003.jpg
1169.3	0.573	1	0back	Block2	0back/STIM_003.jpg
1172.864	0.738	1	0back	Block2	0back/STIM_003.jpg
1176.453	0.738	1	0back	Block2	0back/STIM_004.jpg
1180.537	0.59	1	0back	Block2	0back/STIM_004.jpg
1183.172	0.558	1	0back	Block2	0back/STIM_004.jpg
1187.489	0.572	1	0back	Block2	0back/STIM_005.jpg
1190.271	0.559	1	0back	Block2	0back/STIM_005.jpg
1193.932	0.783	1	0back	Block2	0back/STIM_005.jpg
1196.86	0.621	1	0back	Block2	0back/STIM_006.jpg
1200.985	0.651	1	0back	Block2	0back/STIM_006.jpg
1205.307	0.585	1	0back	Block2	0back/STIM_006.jpg
1208.857	0.446	1	0back	Block2	0back/STIM_007.jpg
1212.409	0.711	1	0back	Block2	0back/STIM_007.jpg
1215.549	0.588	1	0back	Block2	0back/STIM_007.jpg
1218.554	0.808	1	0back	Block2	0back/STIM_008.jpg
1222.595	0.714	1	0back	Block2	0back/STIM_008.jpg
1225.803	0.707	1	0back	Block2	0back/STIM_008.jpg
1230.172	0.67	1	0back	Block2	0back/STIM_009.jpg
1233.102	0.446	1	0back	Block2	0back/STIM_009.jpg
1237.217	0.774	1	0back	Block2	0back/STIM_009.jpg
1241.367	0.572	1	0back	Block2	0back/STIM_010.jpg
1244.003	0.637	1	0back	Block2	0back/STIM_010.jpg
1246.917	0.514	1	0back	Block2	0back/STIM_010.jpg
1249.429	0.824	1	0back	Block2	0back/STIM_011.jpg
1253.412	0.779	1	0back	Block2	0back/STIM_011.jpg
1256.294	0.54	1	0back	Block2	0back/STIM_011.jpg
1260.246	0.451	1	0back	Block2	0back/STIM_012.jpg
1264.012	0.505	1	0back	Block2	0back/STIM_012.jpg
1267.229	0.52	1	0back	Block2	0back/STIM_012.jpg
1270.444	0.445	1	0back	Block2	0back/STIM_013.jpg
1273.412	0.722	1	0back	Block2	0back/STIM_013.jpg
1276.38	0.484	1	0back	Block2	0back/STIM_013.jpg
1279.651	0.466	1	0back	Block2	0back/STIM_014.jpg
1283.955	0.71	1	0back	Block2	0back/STIM_014.jpg
1287.443	0.731	1	0back	Block2	0back/STIM_014.jpg
1292.109	0.487	1	0back	Block2	0back/STIM_015.jpg
1295.438	0.806	1	0back	Block2	0back/STIM_015.jpg
1298.293	0.52	1	0back	Block2	0back/STIM_015.jpg
1302.075	0.692	1	0back	Block2	0back/STIM_016.jpg
1306.063	0.736	1	0back	Block2	0back/STIM_016.jpg
1309.196	0.78	1	0back	Block2	0back/STIM_016.jpg
1313.337	0.464	1	0back	Block2	0back/STIM_017.jpg
1316.316	0.717	1	0back	Block2	0back/STIM_017.jpg
1319.243	0.722	1	0back	Block2	0back/STIM_017.jpg
1322.358	0.598	1	0back	Block2	0back/STIM_018.jpg
1325.556	0.779	1	0back	Block2	0back/STIM_018.jpg
1328.811	0.688	1	0back	Block2	0back/STIM_018.jpg
1333.376	0.819	1	0back	Block2	0back/STIM_019.jpg
1336.499	0.584	1	0back	Block2	0back/STIM_019.jpg
1339.669	0.711	1	0back	Block2	0back/STIM_019.jpg
1343.624	0.651	1	2back	Block3	2back/STIM_000.jpg
1348.092	0.838	1	2back	Block3	2back/STIM_000.jpg
1352.09	0.517	1	2back	Block3	2back/STIM_000.jpg
1355.907	0.806	1	2back	Block3	2back/STIM_001.jpg
1360.073	0.905	1	2back	Block3	2back/STIM_001.jpg
1364.939	0.651	1	2back	Block3	2back/STIM_001.jpg
1367.673	0.755	1	2back	Block3	2back/STIM_002.jpg
1370.967	0.843	1	2back	Block3	2back/STIM_002.jpg
1373.918	0.946	1	2back	Block3	2back/STIM_002.jpg
1377.825	0.859	1	2back	Block3	2back/STIM_003.jpg
1381.267	0.472	1	2back	Block3	2back/STIM_003.jpg
1385.02	0.801	1	2back	Block3	2back/STIM_003.jpg
1389.773	0.572	1	2back	Block3	2back/STIM_004.jpg
1392.809	0.707	1	2back	Block3	2back/STIM_004.jpg
1397.362	0.882	1	2back	Block3	2back/STIM_004.jpg
1402.183	0.688	1	2back	Block3	2back/STIM_005.jpg
1406.454	0.742	1	2back	Block3	2back/STIM_005.jpg
1409.705	0.787	1	2back	Block3	2back/STIM_005.jpg
1413.654	0.505	1	2back	Block3	2back/STIM_006.jpg
1417.654	0.774	1	2back	Block3	2back/STIM_006.jpg
1421.765	0.867	1	2back	Block3	2back/STIM_006.jpg
1426.307	0.471	1	2back	Block3	2back/STIM_007.jpg
1429.649	0.62	1	2back	Block3	2back/STIM_007.jpg
1432.638	0.689	1	2back	Block3	2back/STIM_007.jpg
1436.63	0.899	1	2back	Block3	2back/STIM_008.jpg
1439.664	0.598	1	2back	Block3	2back/STIM_008.jpg
1443.487	0.457	1	2back	Block3	2back/STIM_008.jpg
1445.94	0.793	1	2back	Block3	2back/STIM_009.jpg
1449.829	0.73	1	2back	Block3	2back/STIM_009.jpg
1453.63	0.918	1	2back	Block3	2back/STIM_009.jpg
1456.727	0.452	1	2back	Block3	2back/STIM_010.jpg
1459.733	0.703	1	2back	Block3	2back/STIM_010.jpg
1462.597	0.922	1	2back	Block3	2back/STIM_010.jpg
1466.436	0.742	1	2back	Block3	2back/STIM_011.jpg
1469.294	0.675	1	2back	Block3	2back/STIM_011.jpg
1473.316	0.692	1	2back	Block3	2back/STIM_011.jpg
1476.061	0.972	1	2back	Block3	2back/STIM_012.jpg
1479.492	0.657	1	2back	Block3	2back/STIM_012.jpg
1483.041	0.578	0	2back	Block3	2back/STIM_012.jpg
1487.423	0.464	1	2back	Block3	2back/STIM_013.jpg
1491.811	0.643	1	2back	Block3	2back/STIM_013.jpg
1495.753	0.911	1	2back	Block3	2back/STIM_013.jpg
1500.013	0.9	1	2back	Block3	2back/STIM_014.jpg
1504.669	0.44	1	2back	Block3	2back/STIM_014.jpg
1507.223	0.905	1	2back	Block3	2back/STIM_014.jpg
1510.157	0.561	1	2back	Block3	2back/STIM_015.jpg
1513.004	0.843	1	2back	Block3	2back/STIM_015.jpg
1516.062	0.893	1	2back	Block3	2back/STIM_015.jpg
1519.048	0.788	1	2back	Block3	2back/STIM_016.jpg
1523.364	0.961	1	2back	Block3	2back/STIM_016.jpg
1527.521	0.828	1	2back	Block3	2back/STIM_016.jpg
1530.386	0.798	1	2back	Block3	2back/STIM_017.jpg
1534.899	0.997	1	2back	Block3	2back/STIM_017.jpg
1538.93	0.628	1	2back	Block3	2back/STIM_017.jpg
1542.694	0.819	1	2back	Block3	2back/STIM_018.jpg
1546.804	0.657	1	2back	Block3	2back/STIM_018.jpg
1550.39	0.736	1	2back	Block3	2back/STIM_018.jpg
1553.561	0.472	1	2back	Block3	2back/STIM_019.jpg
1557.927	0.86	1	2back	Block3	2back/STIM_019.jpg
1561.385	0.529	1	2back	Block3	2back/STIM_019.jpg
1564.729	0.684	1	2back	Block3	2back/STIM_020.jpg
1568.691	0.975	1	2back	Block3	2back/STIM_020.jpg
1572.26	0.775	0	2back	Block3	2back/STIM_020.jpg
1575.341	0.662	1	2back	Block3	2back/STIM_021.jpg
1579.747	0.792	1	2back	Block3	2back/STIM_021.jpg
1584.143	0.977	1	2back	Block3	2back/STIM_021.jpg
1588.531	0.94	1	2back	Block3	2back/STIM_022.jpg
1592.525	0.975	1	2back	Block3	2back/STIM_022.jpg
1596.488	0.518	1	2back	Block3	2back/STIM_022.jpg
1599.688	0.916	1	2back	Block3	2back/STIM_023.jpg
1602.778	0.44	1	2back	Block3	2back/STIM_023.jpg
1607.192	0.514	1	2back	Block3	2back/STIM_023.jpg
1611.039	0.793	1	2back	Block3	2back/STIM_024.jpg
1614.267	0.999	1	2back	Block3	2back/STIM_024.jpg
1618.429	0.57	1	2back	Block3	2back/STIM_024.jpg
1621.924	0.99	1	2back	Block3	2back/STIM_025.jpg
1625.984	0.77	0	2back	Block3	2back/STIM_025.jpg
1629.304	0.457	1	2back	Block3	2back/STIM_025.jpg
1632.271	0.937	1	2back	Block3	2back/STIM_026.jpg
1636.73	0.459	1	2back	Block3	2back/STIM_026.jpg
1640.784	0.843	1	2back	Block3	2back/STIM_026.jpg
1645.414	0.823	1	2back	Block3	2back/STIM_027.jpg
1648.405	0.832	1	2back	Block3	2back/STIM_027.jpg
1652.164	0.803	0	2back	Block3	2back/STIM_027.jpg
1656.332	0.638	1	2back	Block3	2back/STIM_028.jpg
1660.298	0.489	1	2back	Block3	2back/STIM_028.jpg
1664.483	0.565	1	2back	Block3	2back/STIM_028.jpg
1668.981	0.83	1	2back	Block3	2back/STIM_029.jpg
1671.976	0.434	1	2back	Block3	2back/STIM_029.jpg
1674.575	0.558	1	2back	Block3	2back/STIM_029.jpg
1677.258	0.937	1	2back	Block3	2back/STIM_030.jpg
1680.22	0.964	1	2back	Block3	2back/STIM_030.jpg
1684.01	0.925	1	2back	Block3	2back/STIM_030.jpg
1687.433	0.495	1	2back	Block3	2back/STIM_031.jpg
1689.943	0.821	1	2back	Block3	2back/STIM_031.jpg
1692.83	0.479	1	2back	Block3	2back/STIM_031.jpg
1695.628	0.637	1	2back	Block3	2back/STIM_032.jpg
1700.207	0.975	1	2back	Block3	2back/STIM_032.jpg
1703.957	0.982	1	2back	Block3	2back/STIM_032.jpg
1707.015	0.722	1	2back	Block3	2back/STIM_033.jpg
1710.509	0.953	1	2back	Block3	2back/STIM_033.jpg
1714.67	0.957	1	2back	Block3	2back/STIM_033.jpg
1717.702	0.647	1	2back	Block3	2back/STIM_034.jpg
1720.899	0.498	0	2back	Block3	2back/STIM_034.jpg
1724.766	0.79	1	2back	Block3	2back/STIM_034.jpg
1728.697	0.559	1	2back	Block3	2back/STIM_035.jpg
1731.694	0.829	1	2back	Block3	2back/STIM_035.jpg
1735.814	0.717	1	2back	Block3	2back/STIM_035.jpg
1739.049	0.71	1	2back	Block3	2back/STIM_036.jpg
1743.416	0.803	1	2back	Block3	2back/STIM_036.jpg
1746.327	0.435	1	2back	Block3	2back/STIM_036.jpg
1748.947	0.643	1	2back	Block3	2back/STIM_037.jpg
1752.735	0.971	1	2back	Block3	2back/STIM_037.jpg
1757.162	0.783	1	2back	Block3	2back/STIM_037.jpg
1760.296	0.796	1	2back	Block3	2back/STIM_038.jpg
1764.698	0.516	0	2back	Block3	2back/STIM_038.jpg
1768.302	0.964	1	2back	Block3	2back/STIM_038.jpg
1773.03	0.729	1	2back	Block3	2back/STIM_039.jpg
1776.706	0.542	1	2back	Block3	2back/STIM_039.jpg
1780.43	0.564	1	2back	Block3	2back/STIM_039.jpg
1782.98	0.606	1	0back	Block3	0back/STIM_000.jpg
1786.793	0.479	1	0back	Block3	0back/STIM_000.jpg
1789.766	0.722	1	0back	Block3	0back/STIM_000.jpg
1792.96	0.558	1	0back	Block3	0back/STIM_001.jpg
1796.669	0.6	1	0back	Block3	0back/STIM_001.jpg
1800.785	0.488	1	0back	Block3	0back/STIM_001.jpg
1805.24	0.815	1	0back	Block3	0back/STIM_002.jpg
1808.111	0.684	1	0back	Block3	0back/STIM_002.jpg
1811.843	0.661	1	0back	Block3	0back/STIM_002.jpg
1816.01	0.423	1	0back	Block3	0back/STIM_003.jpg
1820.245	0.654	1	0back	Block3	0back/STIM_003.jpg
1823.304	0.44	1	0back	Block3	0back/STIM_003.jpg
1826.861	0.538	1	0back	Block3	0back/STIM_004.jpg
1830.255	0.528	1	0back	Block3	0back/STIM_004.jpg
1833.221	0.776	1	0back	Block3	0back/STIM_004.jpg
1837.853	0.548	1	0back	Block3	0back/STIM_005.jpg
1840.822	0.762	1	0back	Block3	0back/STIM_005.jpg
1844.978	0.48	1	0back	Block3	0back/STIM_005.jpg
1849.193	0.768	1	0back	Block3	0back/STIM_006.jpg
1853.35	0.481	1	0back	Block3	0back/STIM_006.jpg
1857.773	0.791	1	0back	Block3	0back/STIM_006.jpg
1861.974	0.524	1	0back	Block3	0back/STIM_007.jpg
1864.943	0.576	1	0back	Block3	0back/STIM_007.jpg
1867.801	0.733	1	0back	Block3	0back/STIM_007.jpg
1870.852	0.797	1	0back	Block3	0back/STIM_008.jpg
1874.135	0.5	1	0back	Block3	0back/STIM_008.jpg
1878.56	0.594	1	0back	Block3	0back/STIM_008.jpg
1882.528	0.627	1	0back	Block3	0back/STIM_009.jpg
1886.719	0.786	1	0back	Block3	0back/STIM_009.jpg
1890.509	0.656	0	0back	Block3	0back/STIM_009.jpg
1894.299	0.428	1	0back	Block3	0back/STIM_010.jpg
1898.654	0.497	1	0back	Block3	0back/STIM_010.jpg
1903.058	0.775	1	0back	Block3	0back/STIM_010.jpg
1907.159	0.811	0	0back	Block3	0back/STIM_011.jpg
1910.333	0.658	1	0back	Block3	0back/STIM_011.jpg
1913.533	0.671	1	0back	Block3	0back/STIM_011.jpg
1917.895	0.797	1	0back	Block3	0back/STIM_012.jpg
1922.237	0.511	1	0back	Block3	0back/STIM_012.jpg
1926.169	0.521	1	0back	Block3	0back/STIM_012.jpg
1929.238	0.566	1	0back	Block3	0back/STIM_013.jpg
1931.95	0.485	1	0back	Block3	0back/STIM_013.jpg
1935.085	0.52	1	0back	Block3	0back/STIM_013.jpg
1938.12	0.481	1	0back	Block3	0back/STIM_014.jpg
1941.811	0.76	1	0back	Block3	0back/STIM_014.jpg
1944.837	0.547	1	0back	Block3	0back/STIM_014.jpg
1947.948	0.73	1	0back	Block3	0back/STIM_015.jpg
1952.535	0.814	1	0back	Block3	0back/STIM_015.jpg
1956.089	0.806	1	0back	Block3	0back/STIM_015.jpg
1959.184	0.774	1	0back	Block3	0back/STIM_016.jpg
1962.318	0.72	1	0back	Block3	0back/STIM_016.jpg
1965.815	0.677	1	0back	Block3	0back/STIM_016.jpg
1970.157	0.504	1	0back	Block3	0back/STIM_017.jpg
1973.724	0.52	1	0back	Block3	0back/STIM_017.jpg
1977.678	0.491	1	0back	Block3	0back/STIM_017.jpg
1980.782	0.606	1	0back	Block3	0back/STIM_018.jpg
1983.982	0.545	1	0back	Block3	0back/STIM_018.jpg
1987.264	0.704	1	0back	Block3	0back/STIM_018.jpg
1990.283	0.509	1	0back	Block3	0back/STIM_019.jpg
1992.809	0.64	1	0back	Block3	0back/STIM_019.jpg
1997.058	0.519	1	0back	Block3	0back/STIM_019.jpg
1999.856	0.733	1	2back	Block4	2back/STIM_000.jpg
2004.303	0.908	1	2back	Block4	2back/STIM_000.jpg
2008.233	0.97	1	2back	Block4	2back/STIM_000.jpg
2012.624	0.994	1	2back	Block4	2back/STIM_001.jpg
2017.421	0.706	1	2back	Block4	2back/STIM_001.jpg
2020.804	0.981	1	2back	Block4	2back/STIM_001.jpg
2023.991	0.876	1	2back	Block4	2back/STIM_002.jpg
2027.625	0.516	1	2back	Block4	2back/STIM_002.jpg
2031.867	0.802	1	2back	Block4	2back/STIM_002.jpg
2036.552	0.676	1	2back	Block4	2back/STIM_003.jpg
2040.076	0.639	1	2back	Block4	2back/STIM_003.jpg
2043.256	0.555	1	2back	Block4	2back/STIM_003.jpg
2047.212	0.765	1	2back	Block4	2back/STIM_004.jpg
2051.216	0.611	1	2back	Block4	2back/STIM_004.jpg
2054.387	0.759	1	2back	Block4	2back/STIM_004.jpg
2058.095	0.945	1	2back	Block4	2back/STIM_005.jpg
2061.959	0.502	1	2back	Block4	2back/STIM_005.jpg
2065.079	0.93	1	2back	Block4	2back/STIM_005.jpg
2069.878	0.488	0	2back	Block4	2back/STIM_006.jpg
2072.706	0.951	1	2back	Block4	2back/STIM_006.jpg
2077.13	0.914	1	2back	Block4	2back/STIM_006.jpg
2081.226	0.756	1	2back	Block4	2back/STIM_007.jpg
2084.481	0.803	1	2back	Block4	2back/STIM_007.jpg
2087.535	0.688	1	2back	Block4	2back/STIM_007.jpg
2090.478	0.958	1	2back	Block4	2back/STIM_008.jpg
2094.587	0.706	1	2back	Block4	2back/STIM_008.jpg
2098.214	0.832	1	2back	Block4	2back/STIM_008.jpg
2102.807	0.65	1	2back	Block4	2back/STIM_009.jpg
2105.803	0.746	1	2back	Block4	2back/STIM_009.jpg
2108.756	0.542	1	2back	Block4	2back/STIM_009.jpg
2111.683	0.754	1	2back	Block4	2back/STIM_010.jpg
2116.33	0.648	1	2back	Block4	2back/STIM_010.jpg
2119.715	0.544	1	2back	Block4	2back/STIM_010.jpg
2123.617	0.86	1	2back	Block4	2back/STIM_011.jpg
2128.205	0.678	1	2back	Block4	2back/STIM_011.jpg
2131.029	0.95	1	2back	Block4	2back/STIM_011.jpg
2135.19	0.484	1	2back	Block4	2back/STIM_012.jpg
2138.566	0.624	1	2back	Block4	2back/STIM_012.jpg
2143.053	0.861	1	2back	Block4	2back/STIM_012.jpg
2146.856	0.607	1	2back	Block4	2back/STIM_013.jpg
2151.114	0.823	1	2back	Block4	2back/STIM_013.jpg
2154.646	0.779	1	2back	Block4	2back/STIM_013.jpg
2157.985	0.625	1	2back	Block4	2back/STIM_014.jpg
2160.832	0.645	1	2back	Block4	2back/STIM_014.jpg
2163.879	0.556	1	2back	Block4	2back/STIM_014.jpg
2166.904	0.66	1	2back	Block4	2back/STIM_015.jpg
2170.329	0.789	1	2back	Block4	2back/STIM_015.jpg
2173.446	0.844	1	2back	Block4	2back/STIM_015.jpg
2176.714	0.824	1	2back	Block4	2back/STIM_016.jpg
2181.308	0.838	1	2back	Block4	2back/STIM_016.jpg
2185.897	0.749	1	2back	Block4	2back/STIM_016.jpg
2189.796	0.708	1	2back	Block4	2back/STIM_017.jpg
2194.275	0.838	1	2back	Block4	2back/STIM_017.jpg
2198.546	0.845	1	2back	Block4	2back/STIM_017.jpg
2201.844	0.555	1	2back	Block4	2back/STIM_018.jpg
2206.108	0.672	1	2back	Block4	2back/STIM_018.jpg
2210.104	0.464	1	2back	Block4	2back/STIM_018.jpg
2213.918	0.742	1	2back	Block4	2back/STIM_019.jpg
2216.905	0.702	1	2back	Block4	2back/STIM_019.jpg
2219.616	0.998	1	2back	Block4	2back/STIM_019.jpg
2224.21	0.884	1	2back	Block4	2back/STIM_020.jpg
2227.576	0.975	1	2back	Block4	2back/STIM_020.jpg
2231.559	0.846	1	2back	Block4	2back/STIM_020.jpg
2235.506	0.846	1	2back	Block4	2back/STIM_021.jpg
2238.82	0.69	1	2back	Block4	2back/STIM_021.jpg
2242.452	0.586	1	2back	Block4	2back/STIM_021.jpg
2246.342	0.876	1	2back	Block4	2back/STIM_022.jpg
2249.253	0.927	1	2back	Block4	2back/STIM_022.jpg
2252.766	0.646	1	2back	Block4	2back/STIM_022.jpg
2255.82	0.473	1	2back	Block4	2back/STIM_023.jpg
2258.585	0.697	1	2back	Block4	2back/STIM_023.jpg
2263.102	0.563	1	2back	Block4	2back/STIM_023.jpg
2267.594	0.802	1	2back	Block4	2back/STIM_024.jpg
2271.157	0.692	1	2back	Block4	2back/STIM_024.jpg
2274.016	0.862	1	2back	Block4	2back/STIM_024.jpg
2277.93	0.709	1	2back	Block4	2back/STIM_025.jpg
2281.764	0.898	1	2back	Block4	2back/STIM_025.jpg
2286.427	0.586	1	2back	Block4	2back/STIM_025.jpg
2289.774	0.647	1	2back	Block4	2back/STIM_026.jpg
2293.122	0.643	1	2back	Block4	2back/STIM_026.jpg
2296.373	0.98	1	2back	Block4	2back/STIM_026.jpg
2299.379	0.976	1	2back	Block4	2back/STIM_027.jpg
2304.261	0.962	1	2back	Block4	2back/STIM_027.jpg
2309.117	0.59	1	2back	Block4	2back/STIM_027.jpg
2311.919	0.848	1	2back	Block4	2back/STIM_028.jpg
2316.023	0.74	1	2back	Block4	2back/STIM_028.jpg
2318.805	0.616	1	2back	Block4	2back/STIM_028.jpg
2322.854	0.66	1	2back	Block4	2back/STIM_029.jpg
2326.196	0.644	1	2back	Block4	2back/STIM_029.jpg
2328.833	0.529	1	2back	Block4	2back/STIM_029.jpg
2333.171	0.907	1	2back	Block4	2back/STIM_030.jpg
2336.237	0.968	1	2back	Block4	2back/STIM_030.jpg
2340.119	0.83	1	2back	Block4	2back/STIM_030.jpg
2344.126	0.771	1	2back	Block4	2back/STIM_031.jpg
2348.404	0.444	1	2back	Block4	2back/STIM_031.jpg
2350.947	0.671	1	2back	Block4	2back/STIM_031.jpg
2355.396	0.605	1	2back	Block4	2back/STIM_032.jpg
2359.972	0.863	1	2back	Block4	2back/STIM_032.jpg
2364.414	0.873	1	2back	Block4	2back/STIM_032.jpg
2368.089	0.888	1	2back	Block4	2back/STIM_033.jpg
2371.914	0.884	1	2back	Block4	2back/STIM_033.jpg
2375.063	0.763	1	2back	Block4	2back/STIM_033.jpg
2378.141	0.873	1	2back	Block4	2back/STIM_034.jpg
2381.124	0.98	0	2back	Block4	2back/STIM_034.jpg
2385.821	0.477	1	2back	Block4	2back/STIM_034.jpg
2388.575	0.944	1	2back	Block4	2back/STIM_035.jpg
2391.56	0.833	1	2back	Block4	2back/STIM_035.jpg
2395.017	0.658	1	2back	Block4	2back/STIM_035.jpg
2398.902	0.578	1	2back	Block4	2back/STIM_036.jpg
2402.555	0.989	1	2back	Block4	2back/STIM_036.jpg
2407.11	0.549	1	2back	Block4	2back/STIM_036.jpg
2411.184	0.953	1	2back	Block4	2back/STIM_037.jpg
2414.212	0.815	1	2back	Block4	2back/STIM_037.jpg
2417.713	0.781	1	2back	Block4	2back/STIM_037.jpg
2421.352	0.583	1	2back	Block4	2back/STIM_038.jpg
2424.778	0.63	1	2back	Block4	2back/STIM_038.jpg
2427.526	0.748	1	2back	Block4	2back/STIM_038.jpg
2431.989	0.744	1	2back	Block4	2back/STIM_039.jpg
2436.377	0.9	1	2back	Block4	2back/STIM_039.jpg
2439.808	0.894	1	2back	Block4	2back/STIM_039.jpg
2442.917	0.75	1	0back	Block4	0back/STIM_000.jpg
2447.447	0.519	1	0back	Block4	0back/STIM_000.jpg
2451.76	0.754	1	0back	Block4	0back/STIM_000.jpg
2455.797	0.55	1	0back	Block4	0back/STIM_001.jpg
2459.529	0.633	1	0back	Block4	0back/STIM_001.jpg
2462.967	0.732	1	0back	Block4	0back/STIM_001.jpg
2466.648	0.58	1	0back	Block4	0back/STIM_002.jpg
2470.379	0.619	1	0back	Block4	0back/STIM_002.jpg
2474.022	0.695	0	0back	Block4	0back/STIM_002.jpg
2477.657	0.581	1	0back	Block4	0back/STIM_003.jpg
2480.882	0.478	1	0back	Block4	0back/STIM_003.jpg
2483.737	0.726	1	0back	Block4	0back/STIM_003.jpg
2487.946	0.669	1	0back	Block4	0back/STIM_004.jpg
2491.802	0.773	1	0back	Block4	0back/STIM_004.jpg
2495.824	0.458	1	0back	Block4	0back/STIM_004.jpg
2499.698	0.432	1	0back	Block4	0back/STIM_005.jpg
2502.396	0.815	1	0back	Block4	0back/STIM_005.jpg
2505.213	0.804	1	0back	Block4	0back/STIM_005.jpg
2508.251	0.797	1	0back	Block4	0back/STIM_006.jpg
2511.694	0.809	1	0back	Block4	0back/STIM_006.jpg
2515.76	0.744	1	0back	Block4	0back/STIM_006.jpg
2520.339	0.705	1	0back	Block4	0back/STIM_007.jpg
2524.275	0.462	0	0back	Block4	0back/STIM_007.jpg
2527.389	0.696	1	0back	Block4	0back/STIM_007.jpg
2531.102	0.623	1	0back	Block4	0back/STIM_008.jpg
2535.341	0.688	1	0back	Block4	0back/STIM_008.jpg
2538.378	0.458	1	0back	Block4	0back/STIM_008.jpg
2542.258	0.458	1	0back	Block4	0back/STIM_009.jpg
2546.182	0.753	1	0back	Block4	0back/STIM_009.jpg
2550.461	0.766	1	0back	Block4	0back/STIM_009.jpg
2553.393	0.776	1	0back	Block4	0back/STIM_010.jpg
2556.157	0.79	1	0back	Block4	0back/STIM_010.jpg
2560.309	0.808	1	0back	Block4	0back/STIM_010.jpg
2563.631	0.695	1	0back	Block4	0back/STIM_011.jpg
2567.568	0.776	1	0back	Block4	0back/STIM_011.jpg
2572.213	0.772	1	0back	Block4	0back/STIM_011.jpg
2576.579	0.822	1	0back	Block4	0back/STIM_012.jpg
2580.777	0.663	1	0back	Block4	0back/STIM_012.jpg
2585.211	0.48	1	0back	Block4	0back/STIM_012.jpg
2589.15	0.471	1	0back	Block4	0back/STIM_013.jpg
2592.347	0.52	1	0back	Block4	0back/STIM_013.jpg
2595.072	0.44	1	0back	Block4	0back/STIM_013.jpg
2598.391	0.657	1	0back	Block4	0back/STIM_014.jpg
2602.546	0.677	0	0back	Block4	0back/STIM_014.jpg
2606.437	0.648	1	0back	Block4	0back/STIM_014.jpg
2610.301	0.666	1	0back	Block4	0back/STIM_015.jpg
2614.496	0.633	1	0back	Block4	0back/STIM_015.jpg
2618.752	0.499	1	0back	Block4	0back/STIM_015.jpg
2622.484	0.502	0	0back	Block4	0back/STIM_016.jpg
2626.047	0.689	1	0back	Block4	0back/STIM_016.jpg
2630.153	0.494	1	0back	Block4	0back/STIM_016.jpg
2634.341	0.714	1	0back	Block4	0back/STIM_017.jpg
2638.132	0.522	1	0back	Block4	0back/STIM_017.jpg
2641.622	0.544	1	0back	Block4	0back/STIM_017.jpg
2645.448	0.721	1	0back	Block4	0back/STIM_018.jpg
2649.156	0.554	1	0back	Block4	0back/STIM_018.jpg
2652.195	0.515	1	0back	Block4	0back/STIM_018.jpg
2656.164	0.788	1	0back	Block4	0back/STIM_019.jpg
2659.868	0.78	1	0back	Block4	0back/STIM_019.jpg
2663.928	0.5	1	0back	Block4	0back/STIM_019.jpg
