onset	duration	accuracy	trial_type	learning_stage	stimulus
0.0	1.323	correct	generate	Run1	generate/STIM_000.jpg
5.001	1.237	correct	generate	Run1	generate/STIM_000.jpg
8.305	1.282	correct	generate	Run1	generate/STIM_000.jpg
12.534	1.72	correct	generate	Run1	generate/STIM_000.jpg
17.83	1.477	incorrect	generate	Run1	generate/STIM_000.jpg
23.101	1.815	correct	generate	Run1	generate/STIM_001.jpg
27.827	2.117	correct	generate	Run1	generate/STIM_001.jpg
33.241	1.173	incorrect	generate	Run1	generate/STIM_001.jpg
38.13	1.564	correct	generate	Run1	generate/STIM_001.jpg
42.92	1.558	correct	generate	Run1	generate/STIM_001.jpg
46.994	2.118	incorrect	generate	Run1	generate/STIM_002.jpg
52.388	2.32	correct	generate	Run1	generate/STIM_002.jpg
57.521	1.524	correct	generate	Run1	generate/STIM_002.jpg
62.305	1.25	correct	generate	Run1	generate/STIM_002.jpg
66.689	1.163	incorrect	generate	Run1	generate/STIM_002.jpg
70.419	2.258	correct	generate	Run1	generate/STIM_003.jpg
75.558	1.895	correct	generate	Run1	generate/STIM_003.jpg
79.617	1.928	incorrect	generate	Run1	generate/STIM_003.jpg
85.151	1.384	correct	generate	Run1	generate/STIM_003.jpg
88.998	1.972	incorrect	generate	Run1	generate/STIM_003.jpg
93.927	1.684	correct	generate	Run1	generate/STIM_004.jpg
97.771	1.559	correct	generate	Run1	generate/STIM_004.jpg
103.074	1.296	correct	generate	Run1	generate/STIM_004.jpg
107.78	0.913	correct	generate	Run1	generate/STIM_004.jpg
111.221	1.592	incorrect	generate	Run1	generate/STIM_004.jpg
115.742	1.849	correct	generate	Run1	generate/STIM_005.jpg
121.385	2.32	correct	generate	Run1	generate/STIM_005.jpg
127.468	1.692	correct	generate	Run1	generate/STIM_005.jpg
132.194	1.408	correct	generate	Run1	generate/STIM_005.jpg
136.399	1.144	incorrect	generate	Run1	generate/STIM_005.jpg
139.911	1.662	correct	generate	Run1	generate/STIM_006.jpg
144.93	0.989	correct	generate	Run1	generate/STIM_006.jpg
149.389	1.153	incorrect	generate	Run1	generate/STIM_006.jpg
153.358	1.222	incorrect	generate	Run1	generate/STIM_006.jpg
158.156	1.38	correct	generate	Run1	generate/STIM_006.jpg
163.032	1.829	correct	generate	Run1	generate/STIM_007.jpg
168.351	2.292	incorrect	generate	Run1	generate/STIM_007.jpg
172.796	2.212	correct	generate	Run1	generate/STIM_007.jpg
177.965	1.858	incorrect	generate	Run1	generate/STIM_007.jpg
183.513	1.564	correct	generate	Run1	generate/STIM_007.jpg
189.046	2.259	incorrect	generate	Run1	generate/STIM_008.jpg
194.757	2.008	incorrect	generate	Run1	generate/STIM_008.jpg
199.514	2.212	incorrect	generate	Run1	generate/STIM_008.jpg
204.842	1.123	incorrect	generate	Run1	generate/STIM_008.jpg
209.726	1.685	correct	generate	Run1	generate/STIM_008.jpg
213.465	1.38	correct	generate	Run1	generate/STIM_009.jpg
218.527	0.976	correct	generate	Run1	generate/STIM_009.jpg
222.199	1.992	correct	generate	Run1	generate/STIM_009.jpg
227.53	1.143	correct	generate	Run1	generate/STIM_009.jpg
231.447	0.995	incorrect	generate	Run1	generate/STIM_009.jpg
236.398	2.073	incorrect	generate	Run1	generate/STIM_010.jpg
240.653	1.208	incorrect	generate	Run1	generate/STIM_010.jpg
244.997	2.02	correct	generate	Run1	generate/STIM_010.jpg
249.933	0.92	incorrect	generate	Run1	generate/STIM_010.jpg
253.741	1.28	correct	generate	Run1	generate/STIM_010.jpg
258.462	2.05	correct	generate	Run1	generate/STIM_011.jpg
262.597	1.288	correct	generate	Run1	generate/STIM_011.jpg
267.004	1.227	correct	generate	Run1	generate/STIM_011.jpg
270.294	1.486	correct	generate	Run1	generate/STIM_011.jpg
274.031	1.46	correct	generate	Run1	generate/STIM_011.jpg
278.504	2.361	incorrect	generate	Run1	generate/STIM_012.jpg
284.681	1.712	incorrect	generate	Run1	generate/STIM_012.jpg
288.815	1.279	correct	generate	Run1	generate/STIM_012.jpg
293.613	1.688	correct	generate	Run1	generate/STIM_012.jpg
299.184	1.264	incorrect	generate	Run1	generate/STIM_012.jpg
304.189	2.371	correct	generate	Run1	generate/STIM_013.jpg
308.954	1.145	correct	generate	Run1	generate/STIM_013.jpg
312.563	1.041	incorrect	generate	Run1	generate/STIM_013.jpg
317.551	1.136	incorrect	generate	Run1	generate/STIM_013.jpg
322.435	1.721	correct	generate	Run1	generate/STIM_013.jpg
326.788	2.159	correct	generate	Run1	generate/STIM_014.jpg
332.524	1.031	correct	generate	Run1	generate/STIM_014.jpg
337.443	1.156	incorrect	generate	Run1	generate/STIM_014.jpg
342.088	0.872	incorrect	generate	Run1	generate/STIM_014.jpg
345.721	0.827	incorrect	generate	Run1	generate/STIM_014.jpg
350.265	1.02	correct	generate	Run1	generate/STIM_015.jpg
354.485	1.383	incorrect	generate	Run1	generate/STIM_015.jpg
358.942	0.93	correct	generate	Run1	generate/STIM_015.jpg
362.105	1.119	incorrect	generate	Run1	generate/STIM_015.jpg
366.15	1.592	incorrect	generate	Run1	generate/STIM_015.jpg
371.741	2.071	incorrect	generate	Run1	generate/STIM_016.jpg
377.192	1.431	correct	generate	Run1	generate/STIM_016.jpg
382.546	1.526	correct	generate	Run1	generate/STIM_016.jpg
388.023	1.033	correct	generate	Run1	generate/STIM_016.jpg
392.682	1.327	correct	generate	Run1	generate/STIM_016.jpg
396.187	1.472	correct	generate	Run1	generate/STIM_017.jpg
400.361	1.107	incorrect	generate	Run1	generate/STIM_017.jpg
404.683	1.984	incorrect	generate	Run1	generate/STIM_017.jpg
410.159	0.876	incorrect	generate	Run1	generate/STIM_017.jpg
414.421	1.428	incorrect	generate	Run1	generate/STIM_017.jpg
418.445	1.322	correct	generate	Run1	generate/STIM_018.jpg
422.188	1.828	correct	generate	Run1	generate/STIM_018.jpg
427.339	1.131	incorrect	generate	Run1	generate/STIM_018.jpg
432.34	0.85	correct	generate	Run1	generate/STIM_018.jpg
436.191	0.792	incorrect	generate	Run1	generate/STIM_018.jpg
439.092	2.107	correct	generate	Run1	generate/STIM_019.jpg
443.456	1.144	incorrect	generate	Run1	generate/STIM_019.jpg
448.541	1.996	incorrect	generate	Run1	generate/STIM_019.jpg
453.477	1.906	incorrect	generate	Run1	generate/STIM_019.jpg
458.632	1.913	correct	generate	Run1	generate/STIM_019.jpg
463.342	2.098	correct	generate	Run1	generate/STIM_020.jpg
468.221	0.94	correct	generate	Run1	generate/STIM_020.jpg
472.008	1.997	incorrect	generate	Run1	generate/STIM_020.jpg
477.483	1.133	correct	generate	Run1	generate/STIM_020.jpg
481.695	1.166	correct	generate	Run1	generate/STIM_020.jpg
485.086	2.226	correct	generate	Run1	generate/STIM_021.jpg
490.053	1.172	correct	generate	Run1	generate/STIM_021.jpg
493.443	1.97	correct	generate	Run1	generate/STIM_021.jpg
497.657	1.507	correct	generate	Run1	generate/STIM_021.jpg
501.315	1.385	correct	generate	Run1	generate/STIM_021.jpg
506.075	1.03	correct	generate	Run1	generate/STIM_022.jpg
509.713	1.454	incorrect	generate	Run1	generate/STIM_022.jpg
514.449	1.825	incorrect	generate	Run1	generate/STIM_022.jpg
519.684	1.136	correct	generate	Run1	generate/STIM_022.jpg
524.172	1.263	correct	generate	Run1	generate/STIM_022.jpg
527.966	1.748	incorrect	generate	Run1	generate/STIM_023.jpg
533.446	1.477	incorrect	generate	Run1	generate/STIM_023.jpg
537.19	1.785	incorrect	generate	Run1	generate/STIM_023.jpg
541.743	1.518	incorrect	generate	Run1	generate/STIM_023.jpg
545.639	1.634	incorrect	generate	Run1	generate/STIM_023.jpg
550.832	2.203	incorrect	generate	Run1	generate/STIM_024.jpg
556.386	0.937	correct	generate	Run1	generate/STIM_024.jpg
560.011	1.786	correct	generate	Run1	generate/STIM_024.jpg
565.025	1.999	correct	generate	Run1	generate/STIM_024.jpg
569.675	1.592	correct	generate	Run1	generate/STIM_024.jpg
573.457	0.57	correct	repeat	Run1	repeat/STIM_000.jpg
576.39	0.474	correct	repeat	Run1	repeat/STIM_000.jpg
579.711	0.509	correct	repeat	Run1	repeat/STIM_000.jpg
583.637	0.72	correct	repeat	Run1	repeat/STIM_000.jpg
588.043	0.778	correct	repeat	Run1	repeat/STIM_000.jpg
591.214	0.756	correct	repeat	Run1	repeat/STIM_001.jpg
594.327	0.613	correct	repeat	Run1	repeat/STIM_001.jpg
597.677	0.53	correct	repeat	Run1	repeat/STIM_001.jpg
600.294	0.505	incorrect	repeat	Run1	repeat/STIM_001.jpg
603.68	0.524	correct	repeat	Run1	repeat/STIM_001.jpg
607.497	0.531	correct	repeat	Run1	repeat/STIM_002.jpg
610.176	0.611	correct	repeat	Run1	repeat/STIM_002.jpg
614.187	0.539	correct	repeat	Run1	repeat/STIM_002.jpg
618.049	0.536	correct	repeat	Run1	repeat/STIM_002.jpg
620.685	0.733	incorrect	repeat	Run1	repeat/STIM_002.jpg
623.81	0.769	correct	repeat	Run1	repeat/STIM_003.jpg
628.499	0.532	incorrect	repeat	Run1	repeat/STIM_003.jpg
632.839	0.474	correct	repeat	Run1	repeat/STIM_003.jpg
637.222	0.712	correct	repeat	Run1	repeat/STIM_003.jpg
641.67	0.687	correct	repeat	Run1	repeat/STIM_003.jpg
645.527	0.568	incorrect	repeat	Run1	repeat/STIM_004.jpg
648.974	0.568	correct	repeat	Run1	repeat/STIM_004.jpg
652.994	0.696	correct	repeat	Run1	repeat/STIM_004.jpg
656.583	0.595	correct	repeat	Run1	repeat/STIM_004.jpg
659.735	0.525	correct	repeat	Run1	repeat/STIM_004.jpg
663.346	0.554	correct	repeat	Run1	repeat/STIM_005.jpg
667.358	0.77	correct	repeat	Run1	repeat/STIM_005.jpg
671.177	0.693	correct	repeat	Run1	repeat/STIM_005.jpg
674.145	0.485	correct	repeat	Run1	repeat/STIM_005.jpg
677.468	0.606	correct	repeat	Run1	repeat/STIM_005.jpg
680.353	0.538	correct	repeat	Run1	repeat/STIM_006.jpg
684.852	0.805	correct	repeat	Run1	repeat/STIM_006.jpg
689.249	0.721	correct	repeat	Run1	repeat/STIM_006.jpg
692.708	0.634	correct	repeat	Run1	repeat/STIM_006.jpg
696.961	0.581	correct	repeat	Run1	repeat/STIM_006.jpg
701.134	0.542	correct	repeat	Run1	repeat/STIM_007.jpg
704.082	0.744	correct	repeat	Run1	repeat/STIM_007.jpg
707.875	0.7	correct	repeat	Run1	repeat/STIM_007.jpg
711.756	0.554	incorrect	repeat	Run1	repeat/STIM_007.jpg
714.808	0.552	correct	repeat	Run1	repeat/STIM_007.jpg
717.453	0.528	incorrect	repeat	Run1	repeat/STIM_008.jpg
721.356	0.769	correct	repeat	Run1	repeat/STIM_008.jpg
726.061	0.745	correct	repeat	Run1	repeat/STIM_008.jpg
730.149	0.723	correct	repeat	Run1	repeat/STIM_008.jpg
733.429	0.81	correct	repeat	Run1	repeat/STIM_008.jpg
738.074	0.767	correct	repeat	Run1	repeat/STIM_009.jpg
741.085	0.811	correct	repeat	Run1	repeat/STIM_009.jpg
744.441	0.734	correct	repeat	Run1	repeat/STIM_009.jpg
748.929	0.573	correct	repeat	Run1	repeat/STIM_009.jpg
752.311	0.47	correct	repeat	Run1	repeat/STIM_009.jpg
754.927	0.673	correct	repeat	Run1	repeat/STIM_010.jpg
759.584	0.78	correct	repeat	Run1	repeat/STIM_010.jpg
763.014	0.54	correct	repeat	Run1	repeat/STIM_010.jpg
765.963	0.462	correct	repeat	Run1	repeat/STIM_010.jpg
770.34	0.626	correct	repeat	Run1	repeat/STIM_010.jpg
774.805	0.521	correct	repeat	Run1	repeat/STIM_011.jpg
778.586	0.499	correct	repeat	Run1	repeat/STIM_011.jpg
781.474	0.601	correct	repeat	Run1	repeat/STIM_011.jpg
785.853	0.638	correct	repeat	Run1	repeat/STIM_011.jpg
789.196	0.812	correct	repeat	Run1	repeat/STIM_011.jpg
793.516	0.657	correct	repeat	Run1	repeat/STIM_012.jpg
798.128	0.654	correct	repeat	Run1	repeat/STIM_012.jpg
802.347	0.468	correct	repeat	Run1	repeat/STIM_012.jpg
805.046	0.585	correct	repeat	Run1	repeat/STIM_012.jpg
809.303	0.428	correct	repeat	Run1	repeat/STIM_012.jpg
813.37	0.638	incorrect	repeat	Run1	repeat/STIM_013.jpg
817.51	0.449	correct	repeat	Run1	repeat/STIM_013.jpg
819.98	0.661	correct	repeat	Run1	repeat/STIM_013.jpg
822.846	0.441	correct	repeat	Run1	repeat/STIM_013.jpg
825.549	0.502	correct	repeat	Run1	repeat/STIM_013.jpg
829.332	0.808	correct	repeat	Run1	repeat/STIM_014.jpg
833.695	0.522	correct	repeat	Run1	repeat/STIM_014.jpg
836.792	0.755	correct	repeat	Run1	repeat/STIM_014.jpg
840.478	0.58	correct	repeat	Run1	repeat/STIM_014.jpg
844.819	0.564	correct	repeat	Run1	repeat/STIM_014.jpg
848.053	1.174	incorrect	generate	Run2	generate/STIM_000.jpg
853.019	1.038	incorrect	generate	Run2	generate/STIM_000.jpg
856.436	1.818	correct	generate	Run2	generate/STIM_000.jpg
862.203	0.881	correct	generate	Run2	generate/STIM_000.jpg
865.856	0.965	correct	generate	Run2	generate/STIM_000.jpg
870.718	2.036	correct	generate	Run2	generate/STIM_001.jpg
875.423	1.283	incorrect	generate	Run2	generate/STIM_001.jpg
879.072	1.689	correct	generate	Run2	generate/STIM_001.jpg
883.525	1.689	correct	generate	Run2	generate/STIM_001.jpg
888.694	0.848	correct	generate	Run2	generate/STIM_001.jpg
892.683	0.867	incorrect	generate	Run2	generate/STIM_002.jpg
897.067	0.791	correct	generate	Run2	generate/STIM_002.jpg
899.981	1.683	correct	generate	Run2	generate/STIM_002.jpg
905.604	1.34	correct	generate	Run2	generate/STIM_002.jpg
910.92	1.176	correct	generate	Run2	generate/STIM_002.jpg
915.507	1.075	correct	generate	Run2	generate/STIM_003.jpg
918.769	1.322	correct	generate	Run2	generate/STIM_003.jpg
923.267	1.604	incorrect	generate	Run2	generate/STIM_003.jpg
927.704	1.02	correct	generate	Run2	generate/STIM_003.jpg
932.244	1.358	correct	generate	Run2	generate/STIM_003.jpg
937.579	0.946	correct	generate	Run2	generate/STIM_004.jpg
941.4	1.366	incorrect	generate	Run2	generate/STIM_004.jpg
946.245	1.221	incorrect	generate	Run2	generate/STIM_004.jpg
950.151	1.083	correct	generate	Run2	generate/STIM_004.jpg
954.897	1.146	correct	generate	Run2	generate/STIM_004.jpg
958.588	1.823	correct	generate	Run2	generate/STIM_005.jpg
963.981	1.037	correct	generate	Run2	generate/STIM_005.jpg
967.839	1.44	correct	generate	Run2	generate/STIM_005.jpg
972.247	1.482	correct	generate	Run2	generate/STIM_005.jpg
976.43	0.759	correct	generate	Run2	generate/STIM_005.jpg
980.249	1.872	correct	generate	Run2	generate/STIM_006.jpg
985.012	1.694	correct	generate	Run2	generate/STIM_006.jpg
990.498	1.202	correct	generate	Run2	generate/STIM_006.jpg
995.629	0.759	correct	generate	Run2	generate/STIM_006.jpg
999.87	0.717	correct	generate	Run2	generate/STIM_006.jpg
1003.835	1.96	incorrect	generate	Run2	generate/STIM_007.jpg
1008.721	1.841	incorrect	generate	Run2	generate/STIM_007.jpg
1013.896	1.331	correct	generate	Run2	generate/STIM_007.jpg
1017.727	0.788	correct	generate	Run2	generate/STIM_007.jpg
1021.292	1.388	correct	generate	Run2	generate/STIM_007.jpg
1025.399	1.296	correct	generate	Run2	generate/STIM_008.jpg
1029.219	1.15	correct	generate	Run2	generate/STIM_008.jpg
1033.952	0.908	correct	generate	Run2	generate/STIM_008.jpg
1038.725	1.235	correct	generate	Run2	generate/STIM_008.jpg
1043.581	1.34	incorrect	generate	Run2	generate/STIM_008.jpg
1048.269	1.692	correct	generate	Run2	generate/STIM_009.jpg
1053.582	1.062	incorrect	generate	Run2	generate/STIM_009.jpg
1057.069	0.819	correct	generate	Run2	generate/STIM_009.jpg
1060.318	0.692	correct	generate	Run2	generate/STIM_009.jpg
1063.883	1.615	incorrect	generate	Run2	generate/STIM_009.jpg
1068.264	1.188	incorrect	generate	Run2	generate/STIM_010.jpg
1073.154	0.797	incorrect	generate	Run2	generate/STIM_010.jpg
1076.229	1.09	correct	generate	Run2	generate/STIM_010.jpg
1080.459	0.829	incorrect	generate	Run2	generate/STIM_010.jpg
1083.482	0.694	correct	generate	Run2	generate/STIM_010.jpg
1086.219	1.6	correct	generate	Run2	generate/STIM_011.jpg
1091.584	1.218	incorrect	generate	Run2	generate/STIM_011.jpg
1096.424	0.986	correct	generate	Run2	generate/STIM_011.jpg
1099.742	1.548	correct	generate	Run2	generate/STIM_011.jpg
1104.459	1.238	correct	generate	Run2	generate/STIM_011.jpg
1108.236	1.697	incorrect	generate	Run2	generate/STIM_012.jpg
1112.723	0.839	correct	generate	Run2	generate/STIM_012.jpg
1115.719	1.43	correct	generate	Run2	generate/STIM_012.jpg
1119.529	1.391	correct	generate	Run2	generate/STIM_012.jpg
1124.115	1.058	incorrect	generate	Run2	generate/STIM_012.jpg
1128.452	1.302	correct	generate	Run2	generate/STIM_013.jpg
1133.297	1.55	correct	generate	Run2	generate/STIM_013.jpg
1138.332	0.968	correct	generate	Run2	generate/STIM_013.jpg
1141.967	1.093	correct	generate	Run2	generate/STIM_013.jpg
1145.096	0.705	correct	generate	Run2	generate/STIM_013.jpg
1149.437	1.398	incorrect	generate	Run2	generate/STIM_014.jpg
1152.981	0.969	correct	generate	Run2	generate/STIM_014.jpg
1157.768	0.74	correct	generate	Run2	generate/STIM_014.jpg
1160.795	1.68	correct	generate	Run2	generate/STIM_014.jpg
1166.21	0.915	incorrect	generate	Run2	generate/STIM_014.jpg
1169.956	1.526	correct	generate	Run2	generate/STIM_015.jpg
1173.609	0.928	correct	generate	Run2	generate/STIM_015.jpg
1178.401	1.456	incorrect	generate	Run2	generate/STIM_015.jpg
1183.173	1.104	correct	generate	Run2	generate/STIM_015.jpg
1188.073	1.38	correct	generate	Run2	generate/STIM_015.jpg
1192.895	1.948	correct	generate	Run2	generate/STIM_016.jpg
1198.712	1.933	correct	generate	Run2	generate/STIM_016.jpg
1203.212	1.37	correct	generate	Run2	generate/STIM_016.jpg
1207.762	0.784	correct	generate	Run2	generate/STIM_016.jpg
1212.177	1.604	correct	generate	Run2	generate/STIM_016.jpg
1217.529	1.849	correct	generate	Run2	generate/STIM_017.jpg
1223.2	1.044	incorrect	generate	Run2	generate/STIM_017.jpg
1226.87	1.547	correct	generate	Run2	generate/STIM_017.jpg
1231.756	0.863	correct	generate	Run2	generate/STIM_017.jpg
1234.82	1.0	correct	generate	Run2	generate/STIM_017.jpg
1238.372	0.981	correct	generate	Run2	generate/STIM_018.jpg
1243.341	1.894	incorrect	generate	Run2	generate/STIM_018.jpg
1247.338	1.498	correct	generate	Run2	generate/STIM_018.jpg
1252.399	1.155	correct	generate	Run2	generate/STIM_018.jpg
1257.249	1.291	incorrect	generate	Run2	generate/STIM_018.jpg
1261.877	1.346	incorrect	generate	Run2	generate/STIM_019.jpg
1266.077	1.382	correct	generate	Run2	generate/STIM_019.jpg
1271.455	1.147	correct	generate	Run2	generate/STIM_019.jpg
1276.179	1.1	correct	generate	Run2	generate/STIM_019.jpg
1279.93	1.111	correct	generate	Run2	generate/STIM_019.jpg
1283.995	1.556	correct	generate	Run2	generate/STIM_020.jpg
1287.861	1.06	incorrect	generate	Run2	generate/STIM_020.jpg
1292.778	1.379	correct	generate	Run2	generate/STIM_020.jpg
1298.089	0.987	incorrect	generate	Run2	generate/STIM_020.jpg
1302.765	1.173	correct	generate	Run2	generate/STIM_020.jpg
1307.012	0.881	incorrect	generate	Run2	generate/STIM_021.jpg
1311.717	0.846	incorrect	generate	Run2	generate/STIM_021.jpg
1316.559	1.22	correct	generate	Run2	generate/STIM_021.jpg
1320.661	1.71	incorrect	generate	Run2	generate/STIM_021.jpg
1324.61	1.45	correct	generate	Run2	generate/STIM_021.jpg
1328.66	0.955	correct	generate	Run2	generate/STIM_022.jpg
1332.874	1.797	correct	generate	Run2	generate/STIM_022.jpg
1338.033	1.609	correct	generate	Run2	generate/STIM_022.jpg
1342.081	0.913	correct	generate	Run2	generate/STIM_022.jpg
1345.704	0.886	incorrect	generate	Run2	generate/STIM_022.jpg
1350.549	1.382	correct	generate	Run2	generate/STIM_023.jpg
1354.321	1.187	correct	generate	Run2	generate/STIM_023.jpg
1358.701	0.969	correct	generate	Run2	generate/STIM_023.jpg
1362.782	1.701	correct	generate	Run2	generate/STIM_023.jpg
1367.242	0.907	correct	generate	Run2	generate/STIM_023.jpg
1370.785	2.006	correct	generate	Run2	generate/STIM_024.jpg
1376.039	1.314	incorrect	generate	Run2	generate/STIM_024.jpg
1380.969	0.987	incorrect	generate	Run2	generate/STIM_024.jpg
1384.032	1.13	correct	generate	Run2	generate/STIM_024.jpg
1388.866	1.121	incorrect	generate	Run2	generate/STIM_024.jpg
1393.692	0.682	correct	repeat	Run2	repeat/STIM_000.jpg
1397.645	0.705	correct	repeat	Run2	repeat/STIM_000.jpg
1401.601	0.659	incorrect	repeat	Run2	repeat/STIM_000.jpg
1404.464	0.798	correct	repeat	Run2	repeat/STIM_000.jpg
1407.945	0.717	correct	repeat	Run2	repeat/STIM_000.jpg
1412.437	0.731	correct	repeat	Run2	repeat/STIM_001.jpg
1416.095	0.592	correct	repeat	Run2	repeat/STIM_001.jpg
1420.555	0.774	correct	repeat	Run2	repeat/STIM_001.jpg
1424.792	0.44	correct	repeat	Run2	repeat/STIM_001.jpg
1427.599	0.665	correct	repeat	Run2	repeat/STIM_001.jpg
1431.064	0.533	incorrect	repeat	Run2	repeat/STIM_002.jpg
1434.937	0.429	correct	repeat	Run2	repeat/STIM_002.jpg
1438.471	0.781	correct	repeat	Run2	repeat/STIM_002.jpg
1441.99	0.528	correct	repeat	Run2	repeat/STIM_002.jpg
1444.973	0.468	correct	repeat	Run2	repeat/STIM_002.jpg
1447.724	0.59	incorrect	repeat	Run2	repeat/STIM_003.jpg
1451.19	0.742	correct	repeat	Run2	repeat/STIM_003.jpg
1455.144	0.519	incorrect	repeat	Run2	repeat/STIM_003.jpg
1458.883	0.679	correct	repeat	Run2	repeat/STIM_003.jpg
1463.04	0.539	correct	repeat	Run2	repeat/STIM_003.jpg
1467.564	0.419	incorrect	repeat	Run2	repeat/STIM_004.jpg
1471.225	0.566	correct	repeat	Run2	repeat/STIM_004.jpg
1474.691	0.784	correct	repeat	Run2	repeat/STIM_004.jpg
1478.36	0.646	correct	repeat	Run2	repeat/STIM_004.jpg
1481.606	0.817	correct	repeat	Run2	repeat/STIM_004.jpg
1484.743	0.754	correct	repeat	Run2	repeat/STIM_005.jpg
1489.469	0.421	correct	repeat	Run2	repeat/STIM_005.jpg
1493.268	0.507	correct	repeat	Run2	repeat/STIM_005.jpg
1495.796	0.527	correct	repeat	Run2	repeat/STIM_005.jpg
1500.245	0.736	correct	repeat	Run2	repeat/STIM_005.jpg
1503.327	0.695	correct	repeat	Run2	repeat/STIM_006.jpg
1506.847	0.589	incorrect	repeat	Run2	repeat/STIM_006.jpg
1511.278	0.815	correct	repeat	Run2	repeat/STIM_006.jpg
1514.794	0.557	incorrect	repeat	Run2	repeat/STIM_006.jpg
1518.597	0.456	correct	repeat	Run2	repeat/STIM_006.jpg
1521.516	0.736	correct	repeat	Run2	repeat/STIM_007.jpg
1524.633	0.681	correct	repeat	Run2	repeat/STIM_007.jpg
1528.327	0.517	correct	repeat	Run2	repeat/STIM_007.jpg
1532.476	0.58	correct	repeat	Run2	repeat/STIM_007.jpg
1535.529	0.45	correct	repeat	Run2	repeat/STIM_007.jpg
1539.16	0.463	correct	repeat	Run2	repeat/STIM_008.jpg
1542.062	0.596	correct	repeat	Run2	repeat/STIM_008.jpg
1546.141	0.672	correct	repeat	Run2	repeat/STIM_008.jpg
1549.701	0.529	correct	repeat	Run2	repeat/STIM_008.jpg
1554.058	0.676	correct	repeat	Run2	repeat/STIM_008.jpg
1558.343	0.416	correct	repeat	Run2	repeat/STIM_009.jpg
1561.149	0.504	incorrect	repeat	Run2	repeat/STIM_009.jpg
1564.704	0.636	incorrect	repeat	Run2	repeat/STIM_009.jpg
1568.304	0.507	correct	repeat	Run2	repeat/STIM_009.jpg
1572.702	0.804	correct	repeat	Run2	repeat/STIM_009.jpg
1575.838	0.528	correct	repeat	Run2	repeat/STIM_010.jpg
1579.158	0.434	correct	repeat	Run2	repeat/STIM_010.jpg
1581.675	0.574	correct	repeat	Run2	repeat/STIM_010.jpg
1585.957	0.7	correct	repeat	Run2	repeat/STIM_010.jpg
1588.76	0.539	correct	repeat	Run2	repeat/STIM_010.jpg
1591.428	0.499	correct	repeat	Run2	repeat/STIM_011.jpg
1594.458	0.774	incorrect	repeat	Run2	repeat/STIM_011.jpg
1597.789	0.651	correct	repeat	Run2	repeat/STIM_011.jpg
1601.535	0.668	correct	repeat	Run2	repeat/STIM_011.jpg
1605.42	0.643	correct	repeat	Run2	repeat/STIM_011.jpg
1608.963	0.763	incorrect	repeat	Run2	repeat/STIM_012.jpg
1612.095	0.472	correct	repeat	Run2	repeat/STIM_012.jpg
1614.986	0.516	correct	repeat	Run2	repeat/STIM_012.jpg
1617.85	0.693	correct	repeat	Run2	repeat/STIM_012.jpg
1622.169	0.461	correct	repeat	Run2	repeat/STIM_012.jpg
1626.22	0.523	correct	repeat	Run2	repeat/STIM_013.jpg
1629.555	0.546	correct	repeat	Run2	repeat/STIM_013.jpg
1632.207	0.602	incorrect	repeat	Run2	repeat/STIM_013.jpg
1634.831	0.66	correct	repeat	Run2	repeat/STIM_013.jpg
1639.086	0.423	correct	repeat	Run2	repeat/STIM_013.jpg
1642.633	0.674	correct	repeat	Run2	repeat/STIM_014.jpg
1647.148	0.565	correct	repeat	Run2	repeat/STIM_014.jpg
1650.372	0.734	correct	repeat	Run2	repeat/STIM_014.jpg
1654.845	0.466	correct	repeat	Run2	repeat/STIM_014.jpg
1658.999	0.597	correct	repeat	Run2	repeat/STIM_014.jpg
1663.233	1.627	correct	generate	Run3	generate/STIM_000.jpg
1668.211	1.52	correct	generate	Run3	generate/STIM_000.jpg
1671.859	0.768	correct	generate	Run3	generate/STIM_000.jpg
1675.89	1.068	correct	generate	Run3	generate/STIM_000.jpg
1679.175	1.571	correct	generate	Run3	generate/STIM_000.jpg
1683.407	1.236	correct	generate	Run3	generate/STIM_001.jpg
1686.85	1.022	correct	generate	Run3	generate/STIM_001.jpg
1691.478	1.43	correct	generate	Run3	generate/STIM_001.jpg
1696.185	1.018	incorrect	generate	Run3	generate/STIM_001.jpg
1699.498	0.865	correct	generate	Run3	generate/STIM_001.jpg
1704.345	1.321	incorrect	generate	Run3	generate/STIM_002.jpg
1709.162	1.165	incorrect	generate	Run3	generate/STIM_002.jpg
1713.497	1.139	correct	generate	Run3	generate/STIM_002.jpg
1717.87	1.684	correct	generate	Run3	generate/STIM_002.jpg
1722.005	1.394	correct	generate	Run3	generate/STIM_002.jpg
1725.438	0.905	correct	generate	Run3	generate/STIM_003.jpg
1729.3	0.962	correct	generate	Run3	generate/STIM_003.jpg
1733.134	0.941	correct	generate	Run3	generate/STIM_003.jpg
1736.824	1.466	correct	generate	Run3	generate/STIM_003.jpg
1742.056	1.348	correct	generate	Run3	generate/STIM_003.jpg
1747.115	1.619	correct	generate	Run3	generate/STIM_004.jpg
1752.481	0.981	incorrect	generate	Run3	generate/STIM_004.jpg
1755.886	1.348	correct	generate	Run3	generate/STIM_004.jpg
1760.501	1.19	correct	generate	Run3	generate/STIM_004.jpg
1765.198	0.77	correct	generate	Run3	generate/STIM_004.jpg
1769.233	1.061	correct	generate	Run3	generate/STIM_005.jpg
1772.398	1.296	correct	generate	Run3	generate/STIM_005.jpg
1776.735	1.159	correct	generate	Run3	generate/STIM_005.jpg
1781.719	1.337	correct	generate	Run3	generate/STIM_005.jpg
1785.609	1.141	correct	generate	Run3	generate/STIM_005.jpg
1789.971	1.053	correct	generate	Run3	generate/STIM_006.jpg
1794.76	1.387	correct	generate	Run3	generate/STIM_006.jpg
1799.481	1.108	correct	generate	Run3	generate/STIM_006.jpg
1803.971	1.298	incorrect	generate	Run3	generate/STIM_006.jpg
1807.409	0.901	correct	generate	Run3	generate/STIM_006.jpg
1811.729	0.944	incorrect	generate	Run3	generate/STIM_007.jpg
1815.769	1.449	correct	generate	Run3	generate/STIM_007.jpg
1820.041	0.985	correct	generate	Run3	generate/STIM_007.jpg
1823.133	0.944	correct	generate	Run3	generate/STIM_007.jpg
1826.53	1.044	correct	generate	Run3	generate/STIM_007.jpg
1831.447	0.759	incorrect	generate	Run3	generate/STIM_008.jpg
1835.896	1.218	incorrect	generate	Run3	generate/STIM_008.jpg
1839.57	1.667	correct	generate	Run3	generate/STIM_008.jpg
1844.934	0.933	correct	generate	Run3	generate/STIM_008.jpg
1848.331	1.238	incorrect	generate	Run3	generate/STIM_008.jpg
1851.591	1.388	correct	generate	Run3	generate/STIM_009.jpg
1855.112	1.373	correct	generate	Run3	generate/STIM_009.jpg
1859.283	1.335	correct	generate	Run3	generate/STIM_009.jpg
1862.878	1.601	incorrect	generate	Run3	generate/STIM_009.jpg
1867.143	1.479	correct	generate	Run3	generate/STIM_009.jpg
1871.346	1.241	correct	generate	Run3	generate/STIM_010.jpg
1874.694	1.109	incorrect	generate	Run3	generate/STIM_010.jpg
1878.075	0.723	incorrect	generate	Run3	generate/STIM_010.jpg
1881.214	1.67	correct	generate	Run3	generate/STIM_010.jpg
1885.295	1.298	correct	generate	Run3	generate/STIM_010.jpg
1889.97	1.333	incorrect	generate	Run3	generate/STIM_011.jpg
1893.571	1.5	correct	generate	Run3	generate/STIM_011.jpg
1898.793	1.106	correct	generate	Run3	generate/STIM_011.jpg
1902.734	1.267	correct	generate	Run3	generate/STIM_011.jpg
1907.086	1.61	correct	generate	Run3	generate/STIM_011.jpg
1912.486	1.488	incorrect	generate	Run3	generate/STIM_012.jpg
1917.78	1.641	correct	generate	Run3	generate/STIM_012.jpg
1923.274	0.848	correct	generate	Run3	generate/STIM_012.jpg
1927.323	1.244	correct	generate	Run3	generate/STIM_012.jpg
1932.107	0.765	incorrect	generate	Run3	generate/STIM_012.jpg
1936.28	0.848	correct	generate	Run3	generate/STIM_013.jpg
1939.212	1.664	correct	generate	Run3	generate/STIM_013.jpg
1943.39	0.765	incorrect	generate	Run3	generate/STIM_013.jpg
1947.577	1.338	correct	generate	Run3	generate/STIM_013.jpg
1951.64	0.894	correct	generate	Run3	generate/STIM_013.jpg
1956.126	0.913	correct	generate	Run3	generate/STIM_014.jpg
1959.644	1.703	correct	generate	Run3	generate/STIM_014.jpg
1965.057	1.002	correct	generate	Run3	generate/STIM_014.jpg
1969.402	1.289	incorrect	generate	Run3	generate/STIM_014.jpg
1974.266	0.707	correct	generate	Run3	generate/STIM_014.jpg
1978.551	1.122	correct	generate	Run3	generate/STIM_015.jpg
1982.529	1.003	correct	generate	Run3	generate/STIM_015.jpg
1986.171	0.846	incorrect	generate	Run3	generate/STIM_015.jpg
1990.997	1.531	correct	generate	Run3	generate/STIM_015.jpg
1996.071	1.237	correct	generate	Run3	generate/STIM_015.jpg
2000.031	1.343	correct	generate	Run3	generate/STIM_016.jpg
2003.525	0.781	correct	generate	Run3	generate/STIM_016.jpg
2007.622	0.814	correct	generate	Run3	generate/STIM_016.jpg
2011.694	0.799	incorrect	generate	Run3	generate/STIM_016.jpg
2015.561	1.086	correct	generate	Run3	generate/STIM_016.jpg
2020.091	0.73	incorrect	generate	Run3	generate/STIM_017.jpg
2023.584	1.712	correct	generate	Run3	generate/STIM_017.jpg
2027.377	0.917	correct	generate	Run3	generate/STIM_017.jpg
2031.852	1.389	correct	generate	Run3	generate/STIM_017.jpg
2036.939	1.24	correct	generate	Run3	generate/STIM_017.jpg
2040.527	1.282	correct	generate	Run3	generate/STIM_018.jpg
2045.796	0.785	correct	generate	Run3	generate/STIM_018.jpg
2049.153	0.996	correct	generate	Run3	generate/STIM_018.jpg
2053.334	0.88	correct	generate	Run3	generate/STIM_018.jpg
2056.236	0.74	correct	generate	Run3	generate/STIM_018.jpg
2059.772	1.437	correct	generate	Run3	generate/STIM_019.jpg
2064.318	1.56	correct	generate	Run3	generate/STIM_019.jpg
2067.951	0.789	correct	generate	Run3	generate/STIM_019.jpg
2071.262	0.946	incorrect	generate	Run3	generate/STIM_019.jpg
2076.044	1.348	correct	generate	Run3	generate/STIM_019.jpg
2080.15	1.246	incorrect	generate	Run3	generate/STIM_020.jpg
2083.73	0.834	incorrect	generate	Run3	generate/STIM_020.jpg
2088.168	1.279	correct	generate	Run3	generate/STIM_020.jpg
2091.527	1.469	incorrect	generate	Run3	generate/STIM_020.jpg
2095.17	0.789	correct	generate	Run3	generate/STIM_020.jpg
2099.54	0.852	correct	generate	Run3	generate/STIM_021.jpg
2103.736	1.185	incorrect	generate	Run3	generate/STIM_021.jpg
2108.076	0.811	incorrect	generate	Run3	generate/STIM_021.jpg
2112.684	1.07	correct	generate	Run3	generate/STIM_021.jpg
2115.996	1.67	correct	generate	Run3	generate/STIM_021.jpg
2120.682	0.852	correct	generate	Run3	generate/STIM_022.jpg
2124.537	1.478	correct	generate	Run3	generate/STIM_022.jpg
2129.555	1.008	correct	generate	Run3	generate/STIM_022.jpg
2133.624	0.766	correct	generate	Run3	generate/STIM_022.jpg
2137.402	1.163	correct	generate	Run3	generate/STIM_022.jpg
2141.72	0.824	correct	generate	Run3	generate/STIM_023.jpg
2144.874	1.596	correct	generate	Run3	generate/STIM_023.jpg
2149.596	0.833	incorrect	generate	Run3	generate/STIM_023.jpg
2152.804	1.464	correct	generate	Run3	generate/STIM_023.jpg
2158.098	1.053	correct	generate	Run3	generate/STIM_023.jpg
2161.227	1.216	correct	generate	Run3	generate/STIM_024.jpg
2165.452	0.701	correct	generate	Run3	generate/STIM_024.jpg
2168.992	1.396	correct	generate	Run3	generate/STIM_024.jpg
2172.901	1.591	correct	generate	Run3	generate/STIM_024.jpg
2178.032	1.287	incorrect	generate	Run3	generate/STIM_024.jpg
2182.956	0.533	correct	repeat	Run3	repeat/STIM_000.jpg
2186.134	0.536	incorrect	repeat	Run3	repeat/STIM_000.jpg
2189.73	0.558	correct	repeat	Run3	repeat/STIM_000.jpg
2193.088	0.531	incorrect	repeat	Run3	repeat/STIM_000.jpg
2197.118	0.592	correct	repeat	Run3	repeat/STIM_000.jpg
2201.479	0.542	correct	repeat	Run3	repeat/STIM_001.jpg
2204.522	0.458	correct	repeat	Run3	repeat/STIM_001.jpg
2207.502	0.436	correct	repeat	Run3	repeat/STIM_001.jpg
2209.995	0.665	correct	repeat	Run3	repeat/STIM_001.jpg
2214.154	0.437	correct	repeat	Run3	repeat/STIM_001.jpg
2216.822	0.587	correct	repeat	Run3	repeat/STIM_002.jpg
2220.494	0.758	correct	repeat	Run3	repeat/STIM_002.jpg
2224.151	0.479	correct	repeat	Run3	repeat/STIM_002.jpg
2228.224	0.72	correct	repeat	Run3	repeat/STIM_002.jpg
2232.253	0.797	correct	repeat	Run3	repeat/STIM_002.jpg
2235.533	0.633	correct	repeat	Run3	repeat/STIM_003.jpg
2238.529	0.516	correct	repeat	Run3	repeat/STIM_003.jpg
2242.502	0.819	incorrect	repeat	Run3	repeat/STIM_003.jpg
2245.541	0.484	correct	repeat	Run3	repeat/STIM_003.jpg
2248.593	0.488	correct	repeat	Run3	repeat/STIM_003.jpg
2252.244	0.494	correct	repeat	Run3	repeat/STIM_004.jpg
2255.971	0.734	correct	repeat	Run3	repeat/STIM_004.jpg
2259.839	0.771	correct	repeat	Run3	repeat/STIM_004.jpg
2264.259	0.8	correct	repeat	Run3	repeat/STIM_004.jpg
2268.075	0.525	correct	repeat	Run3	repeat/STIM_004.jpg
2272.364	0.567	correct	repeat	Run3	repeat/STIM_005.jpg
2276.87	0.662	correct	repeat	Run3	repeat/STIM_005.jpg
2279.89	0.551	incorrect	repeat	Run3	repeat/STIM_005.jpg
2282.876	0.545	correct	repeat	Run3	repeat/STIM_005.jpg
2287.301	0.73	correct	repeat	Run3	repeat/STIM_005.jpg
2291.482	0.521	incorrect	repeat	Run3	repeat/STIM_006.jpg
2294.016	0.668	correct	repeat	Run3	repeat/STIM_006.jpg
2296.948	0.701	correct	repeat	Run3	repeat/STIM_006.jpg
2301.109	0.69	correct	repeat	Run3	repeat/STIM_006.jpg
2304.898	0.793	incorrect	repeat	Run3	repeat/STIM_006.jpg
2309.209	0.781	correct	repeat	Run3	repeat/STIM_007.jpg
2312.188	0.562	incorrect	repeat	Run3	repeat/STIM_007.jpg
2316.572	0.799	correct	repeat	Run3	repeat/STIM_007.jpg
2320.215	0.775	incorrect	repeat	Run3	repeat/STIM_007.jpg
2323.2	0.453	correct	repeat	Run3	repeat/STIM_007.jpg
2326.887	0.432	correct	repeat	Run3	repeat/STIM_008.jpg
2330.055	0.565	incorrect	repeat	Run3	repeat/STIM_008.jpg
2332.92	0.768	correct	repeat	Run3	repeat/STIM_008.jpg
2337.451	0.815	correct	repeat	Run3	repeat/STIM_008.jpg
2340.392	0.413	correct	repeat	Run3	repeat/STIM_008.jpg
2344.273	0.695	correct	repeat	Run3	repeat/STIM_009.jpg
2348.582	0.683	incorrect	repeat	Run3	repeat/STIM_009.jpg
2351.815	0.776	correct	repeat	Run3	repeat/STIM_009.jpg
2355.24	0.583	correct	repeat	Run3	repeat/STIM_009.jpg
2358.49	0.769	correct	repeat	Run3	repeat/STIM_009.jpg
2362.231	0.725	correct	repeat	Run3	repeat/STIM_010.jpg
2366.188	0.685	correct	repeat	Run3	repeat/STIM_010.jpg
2369.92	0.599	correct	repeat	Run3	repeat/STIM_010.jpg
2374.305	0.715	correct	repeat	Run3	repeat/STIM_010.jpg
2378.156	0.672	correct	repeat	Run3	repeat/STIM_010.jpg
2381.113	0.558	correct	repeat	Run3	repeat/STIM_011.jpg
2385.305	0.451	correct	repeat	Run3	repeat/STIM_011.jpg
2388.102	0.716	correct	repeat	Run3	repeat/STIM_011.jpg
2392.437	0.81	correct	repeat	Run3	repeat/STIM_011.jpg
2396.283	0.518	incorrect	repeat	Run3	repeat/STIM_011.jpg
2399.869	0.8	correct	repeat	Run3	repeat/STIM_012.jpg
2402.837	0.748	correct	repeat	Run3	repeat/STIM_012.jpg
2407.525	0.764	correct	repeat	Run3	repeat/STIM_012.jpg
2411.806	0.746	correct	repeat	Run3	repeat/STIM_012.jpg
2415.517	0.482	incorrect	repeat	Run3	repeat/STIM_012.jpg
2419.359	0.779	correct	repeat	Run3	repeat/STIM_013.jpg
2423.301	0.529	correct	repeat	Run3	repeat/STIM_013.jpg
2427.248	0.702	correct	repeat	Run3	repeat/STIM_013.jpg
2430.329	0.728	correct	repeat	Run3	repeat/STIM_013.jpg
2434.021	0.505	correct	repeat	Run3	repeat/STIM_013.jpg
2438.442	0.644	correct	repeat	Run3	repeat/STIM_014.jpg
2442.312	0.733	correct	repeat	Run3	repeat/STIM_014.jpg
2445.178	0.694	correct	repeat	Run3	repeat/STIM_014.jpg
2449.065	0.634	correct	repeat	Run3	repeat/STIM_014.jpg
2453.528	0.505	correct	repeat	Run3	repeat/STIM_014.jpg
2457.924	1.231	correct	generate	Run4	generate/STIM_000.jpg
2462.831	1.077	incorrect	generate	Run4	generate/STIM_000.jpg
2466.78	0.851	correct	generate	Run4	generate/STIM_000.jpg
2471.407	1.057	correct	generate	Run4	generate/STIM_000.jpg
2475.518	1.21	correct	generate	Run4	generate/STIM_000.jpg
2479.615	1.694	correct	generate	Run4	generate/STIM_001.jpg
2485.123	1.401	correct	generate	Run4	generate/STIM_001.jpg
2489.891	0.702	correct	generate	Run4	generate/STIM_001.jpg
2494.282	0.806	correct	generate	Run4	generate/STIM_001.jpg
2498.47	1.1	correct	generate	Run4	generate/STIM_001.jpg
2502.95	0.735	correct	generate	Run4	generate/STIM_002.jpg
2506.73	1.595	incorrect	generate	Run4	generate/STIM_002.jpg
2512.029	1.045	correct	generate	Run4	generate/STIM_002.jpg
2515.974	0.816	correct	generate	Run4	generate/STIM_002.jpg
2520.271	1.539	correct	generate	Run4	generate/STIM_002.jpg
2524.468	1.068	correct	generate	Run4	generate/STIM_003.jpg
2529.229	0.906	correct	generate	Run4	generate/STIM_003.jpg
2532.201	1.345	correct	generate	Run4	generate/STIM_003.jpg
2536.953	1.715	correct	generate	Run4	generate/STIM_003.jpg
2541.95	1.559	correct	generate	Run4	generate/STIM_003.jpg
2547.123	0.86	correct	generate	Run4	generate/STIM_004.jpg
2550.958	1.203	correct	generate	Run4	generate/STIM_004.jpg
2555.436	1.14	correct	generate	Run4	generate/STIM_004.jpg
2560.372	1.249	correct	generate	Run4	generate/STIM_004.jpg
2565.084	0.763	correct	generate	Run4	generate/STIM_004.jpg
2568.468	0.694	correct	generate	Run4	generate/STIM_005.jpg
2571.899	1.671	incorrect	generate	Run4	generate/STIM_005.jpg
2576.111	0.939	incorrect	generate	Run4	generate/STIM_005.jpg
2579.241	1.146	correct	generate	Run4	generate/STIM_005.jpg
2583.065	1.339	correct	generate	Run4	generate/STIM_005.jpg
2586.893	1.039	correct	generate	Run4	generate/STIM_006.jpg
2589.933	0.885	correct	generate	Run4	generate/STIM_006.jpg
2593.926	0.832	incorrect	generate	Run4	generate/STIM_006.jpg
2598.176	1.014	correct	generate	Run4	generate/STIM_006.jpg
2601.603	1.05	correct	generate	Run4	generate/STIM_006.jpg
2605.651	1.709	correct	generate	Run4	generate/STIM_007.jpg
2610.06	1.656	correct	generate	Run4	generate/STIM_007.jpg
2614.282	0.703	correct	generate	Run4	generate/STIM_007.jpg
2618.13	0.948	correct	generate	Run4	generate/STIM_007.jpg
2621.258	0.739	correct	generate	Run4	generate/STIM_007.jpg
2624.632	0.703	correct	generate	Run4	generate/STIM_008.jpg
2628.23	0.988	incorrect	generate	Run4	generate/STIM_008.jpg
2631.279	0.812	correct	generate	Run4	generate/STIM_008.jpg
2635.991	0.729	correct	generate	Run4	generate/STIM_008.jpg
2640.389	1.633	correct	generate	Run4	generate/STIM_008.jpg
2644.294	0.726	incorrect	generate	Run4	generate/STIM_009.jpg
2648.71	1.196	correct	generate	Run4	generate/STIM_009.jpg
2651.963	1.57	correct	generate	Run4	generate/STIM_009.jpg
2655.667	1.495	correct	generate	Run4	generate/STIM_009.jpg
2661.135	0.781	correct	generate	Run4	generate/STIM_009.jpg
2665.135	0.972	correct	generate	Run4	generate/STIM_010.jpg
2669.323	1.359	correct	generate	Run4	generate/STIM_010.jpg
2673.031	1.012	correct	generate	Run4	generate/STIM_010.jpg
2677.901	1.241	correct	generate	Run4	generate/STIM_010.jpg
2682.987	1.137	correct	generate	Run4	generate/STIM_010.jpg
2686.219	0.806	correct	generate	Run4	generate/STIM_011.jpg
2690.637	1.532	correct	generate	Run4	generate/STIM_011.jpg
2694.41	1.063	correct	generate	Run4	generate/STIM_011.jpg
2697.763	0.75	correct	generate	Run4	generate/STIM_011.jpg
2702.487	0.854	incorrect	generate	Run4	generate/STIM_011.jpg
2705.483	1.384	correct	generate	Run4	generate/STIM_012.jpg
2710.65	0.842	correct	generate	Run4	generate/STIM_012.jpg
2714.021	0.799	correct	generate	Run4	generate/STIM_012.jpg
2718.234	1.211	correct	generate	Run4	generate/STIM_012.jpg
2722.311	1.67	correct	generate	Run4	generate/STIM_012.jpg
2727.875	0.789	correct	generate	Run4	generate/STIM_013.jpg
2731.707	1.233	correct	generate	Run4	generate/STIM_013.jpg
2735.378	1.384	correct	generate	Run4	generate/STIM_013.jpg
2739.914	1.269	correct	generate	Run4	generate/STIM_013.jpg
2744.647	1.151	correct	generate	Run4	generate/STIM_013.jpg
2749.277	0.854	correct	generate	Run4	generate/STIM_014.jpg
2753.315	1.675	correct	generate	Run4	generate/STIM_014.jpg
2758.023	1.507	correct	generate	Run4	generate/STIM_014.jpg
2763.405	1.104	correct	generate	Run4	generate/STIM_014.jpg
2768.31	1.253	correct	generate	Run4	generate/STIM_014.jpg
2772.278	1.587	correct	generate	Run4	generate/STIM_015.jpg
2777.502	0.748	correct	generate	Run4	generate/STIM_015.jpg
2781.611	1.179	correct	generate	Run4	generate/STIM_015.jpg
2786.046	1.183	correct	generate	Run4	generate/STIM_015.jpg
2789.476	1.307	correct	generate	Run4	generate/STIM_015.jpg
2794.776	1.698	correct	generate	Run4	generate/STIM_016.jpg
2799.375	1.162	correct	generate	Run4	generate/STIM_016.jpg
2802.791	1.04	correct	generate	Run4	generate/STIM_016.jpg
2807.185	1.35	correct	generate	Run4	generate/STIM_016.jpg
2811.103	1.546	correct	generate	Run4	generate/STIM_016.jpg
2815.893	1.489	correct	generate	Run4	generate/STIM_017.jpg
2819.74	1.646	correct	generate	Run4	generate/STIM_017.jpg
2823.835	0.869	correct	generate	Run4	generate/STIM_017.jpg
2827.941	1.166	correct	generate	Run4	generate/STIM_017.jpg
2831.336	1.499	correct	generate	Run4	generate/STIM_017.jpg
2836.687	1.367	correct	generate	Run4	generate/STIM_018.jpg
2841.423	1.41	correct	generate	Run4	generate/STIM_018.jpg
2846.163	1.108	correct	generate	Run4	generate/STIM_018.jpg
2851.261	1.672	correct	generate	Run4	generate/STIM_018.jpg
2855.447	1.551	correct	generate	Run4	generate/STIM_018.jpg
2860.482	1.062	correct	generate	Run4	generate/STIM_019.jpg
2865.518	1.39	correct	generate	Run4	generate/STIM_019.jpg
2869.349	1.077	correct	generate	Run4	generate/STIM_019.jpg
2873.339	1.008	correct	generate	Run4	generate/STIM_019.jpg
2877.266	1.649	correct	generate	Run4	generate/STIM_019.jpg
2881.203	1.449	incorrect	generate	Run4	generate/STIM_020.jpg
2884.786	1.667	correct	generate	Run4	generate/STIM_020.jpg
2889.043	1.488	correct	generate	Run4	generate/STIM_020.jpg
2893.348	1.261	correct	generate	Run4	generate/STIM_020.jpg
2898.427	1.393	correct	generate	Run4	generate/STIM_020.jpg
2903.402	1.019	incorrect	generate	Run4	generate/STIM_021.jpg
2907.673	1.265	correct	generate	Run4	generate/STIM_021.jpg
2910.984	1.001	correct	generate	Run4	generate/STIM_021.jpg
2914.827	1.695	correct	generate	Run4	generate/STIM_021.jpg
2918.613	0.73	correct	generate	Run4	generate/STIM_021.jpg
2921.366	1.006	correct	generate	Run4	generate/STIM_022.jpg
2925.456	1.124	correct	generate	Run4	generate/STIM_022.jpg
2930.519	0.734	correct	generate	Run4	generate/STIM_022.jpg
2934.75	1.119	correct	generate	Run4	generate/STIM_022.jpg
2938.449	0.976	correct	generate	Run4	generate/STIM_022.jpg
2942.968	1.504	correct	generate	Run4	generate/STIM_023.jpg
2947.672	0.976	correct	generate	Run4	generate/STIM_023.jpg
2950.8	1.19	correct	generate	Run4	generate/STIM_023.jpg
2954.922	1.644	correct	generate	Run4	generate/STIM_023.jpg
2960.119	0.985	correct	generate	Run4	generate/STIM_023.jpg
2964.461	1.256	correct	generate	Run4	generate/STIM_024.jpg
2968.177	0.959	correct	generate	Run4	generate/STIM_024.jpg
2971.532	1.688	incorrect	generate	Run4	generate/STIM_024.jpg
2976.063	0.798	correct	generate	Run4	generate/STIM_024.jpg
2979.024	1.646	correct	generate	Run4	generate/STIM_024.jpg
2982.92	0.604	correct	repeat	Run4	repeat/STIM_000.jpg
2986.914	0.428	correct	repeat	Run4	repeat/STIM_000.jpg
2989.713	0.412	incorrect	repeat	Run4	repeat/STIM_000.jpg
2993.068	0.618	correct	repeat	Run4	repeat/STIM_000.jpg
2995.86	0.795	correct	repeat	Run4	repeat/STIM_000.jpg
2999.483	0.8	correct	repeat	Run4	repeat/STIM_001.jpg
3002.68	0.786	correct	repeat	Run4	repeat/STIM_001.jpg
3007.39	0.509	correct	repeat	Run4	repeat/STIM_001.jpg
3011.298	0.566	correct	repeat	Run4	repeat/STIM_001.jpg
3015.432	0.768	correct	repeat	Run4	repeat/STIM_001.jpg
3018.426	0.553	correct	repeat	Run4	repeat/STIM_002.jpg
3022.275	0.756	correct	repeat	Run4	repeat/STIM_002.jpg
3025.365	0.709	correct	repeat	Run4	repeat/STIM_002.jpg
3028.995	0.658	correct	repeat	Run4	repeat/STIM_002.jpg
3031.845	0.658	correct	repeat	Run4	repeat/STIM_002.jpg
3034.618	0.67	correct	repeat	Run4	repeat/STIM_003.jpg
3038.824	0.444	correct	repeat	Run4	repeat/STIM_003.jpg
3041.663	0.722	correct	repeat	Run4	repeat/STIM_003.jpg
3045.752	0.518	correct	repeat	Run4	repeat/STIM_003.jpg
3049.688	0.692	correct	repeat	Run4	repeat/STIM_003.jpg
3053.451	0.428	correct	repeat	Run4	repeat/STIM_004.jpg
3057.272	0.431	correct	repeat	Run4	repeat/STIM_004.jpg
3060.364	0.603	incorrect	repeat	Run4	repeat/STIM_004.jpg
3063.398	0.722	incorrect	repeat	Run4	repeat/STIM_004.jpg
3067.047	0.623	correct	repeat	Run4	repeat/STIM_004.jpg
3071.486	0.602	correct	repeat	Run4	repeat/STIM_005.jpg
3075.72	0.818	correct	repeat	Run4	repeat/STIM_005.jpg
3079.524	0.443	correct	repeat	Run4	repeat/STIM_005.jpg
3083.322	0.535	incorrect	repeat	Run4	repeat/STIM_005.jpg
3087.1	0.642	correct	repeat	Run4	repeat/STIM_005.jpg
3090.707	0.724	correct	repeat	Run4	repeat/STIM_006.jpg
3095.15	0.818	incorrect	repeat	Run4	repeat/STIM_006.jpg
3099.199	0.566	incorrect	repeat	Run4	repeat/STIM_006.jpg
3101.989	0.722	correct	repeat	Run4	repeat/STIM_006.jpg
3106.206	0.617	correct	repeat	Run4	repeat/STIM_006.jpg
3110.304	0.772	correct	repeat	Run4	repeat/STIM_007.jpg
3114.228	0.612	correct	repeat	Run4	repeat/STIM_007.jpg
3117.571	0.478	correct	repeat	Run4	repeat/STIM_007.jpg
3121.071	0.74	correct	repeat	Run4	repeat/STIM_007.jpg
3123.948	0.564	incorrect	repeat	Run4	repeat/STIM_007.jpg
3128.362	0.796	correct	repeat	Run4	repeat/STIM_008.jpg
3132.688	0.602	correct	repeat	Run4	repeat/STIM_008.jpg
3136.367	0.619	correct	repeat	Run4	repeat/STIM_008.jpg
3139.677	0.531	correct	repeat	Run4	repeat/STIM_008.jpg
3143.408	0.636	correct	repeat	Run4	repeat/STIM_008.jpg
3146.366	0.687	correct	repeat	Run4	repeat/STIM_009.jpg
3150.833	0.598	correct	repeat	Run4	repeat/STIM_009.jpg
3154.513	0.572	correct	repeat	Run4	repeat/STIM_009.jpg
3158.233	0.611	incorrect	repeat	Run4	repeat/STIM_009.jpg
3162.183	0.564	correct	repeat	Run4	repeat/STIM_009.jpg
3166.731	0.537	correct	repeat	Run4	repeat/STIM_010.jpg
3169.841	0.572	correct	repeat	Run4	repeat/STIM_010.jpg
3174.046	0.543	correct	repeat	Run4	repeat/STIM_010.jpg
3178.047	0.596	correct	repeat	Run4	repeat/STIM_010.jpg
3181.013	0.626	correct	repeat	Run4	repeat/STIM_010.jpg
3184.048	0.496	correct	repeat	Run4	repeat/STIM_011.jpg
3187.047	0.645	correct	repeat	Run4	repeat/STIM_011.jpg
3191.524	0.452	correct	repeat	Run4	repeat/STIM_011.jpg
3194.672	0.636	correct	repeat	Run4	repeat/STIM_011.jpg
3197.732	0.746	correct	repeat	Run4	repeat/STIM_011.jpg
3200.742	0.507	incorrect	repeat	Run4	repeat/STIM_012.jpg
3204.151	0.5	correct	repeat	Run4	repeat/STIM_012.jpg
3207.711	0.617	correct	repeat	Run4	repeat/STIM_012.jpg
3211.607	0.768	incorrect	repeat	Run4	repeat/STIM_012.jpg
3215.087	0.74	correct	repeat	Run4	repeat/STIM_012.jpg
3219.412	0.79	correct	repeat	Run4	repeat/STIM_013.jpg
3222.859	0.484	correct	repeat	Run4	repeat/STIM_013.jpg
3226.8	0.55	correct	repeat	Run4	repeat/STIM_013.jpg
3230.302	0.685	correct	repeat	Run4	repeat/STIM_013.jpg
3233.19	0.51	correct	repeat	Run4	repeat/STIM_013.jpg
3235.781	0.747	correct	repeat	Run4	repeat/STIM_014.jpg
3238.551	0.752	correct	repeat	Run4	repeat/STIM_014.jpg
3241.571	0.474	incorrect	repeat	Run4	repeat/STIM_014.jpg
3244.45	0.693	correct	repeat	Run4	repeat/STIM_014.jpg
3248.908	0.746	correct	repeat	Run4	repeat/STIM_014.jpg
