onset	duration	response_time_ms	trial_type	learning_stage	stimulus	response_port
0.0	1.323	1322.9	generate	Run1	generate/STIM_000.jpg	99
5.001	1.237	1237.4	generate	Run1	generate/STIM_000.jpg	99
8.305	1.282	1281.7	generate	Run1	generate/STIM_000.jpg	100
12.534	1.72	1719.5	generate	Run1	generate/STIM_000.jpg	99
17.83	1.477	1477.1	generate	Run1	generate/STIM_000.jpg	100
23.101	1.815	1815.1	generate	Run1	generate/STIM_001.jpg	100
27.827	2.117	2116.8	generate	Run1	generate/STIM_001.jpg	100
33.241	1.173	1173.1	generate	Run1	generate/STIM_001.jpg	99
38.13	1.564	1563.6	generate	Run1	generate/STIM_001.jpg	100
42.92	1.558	1558.2	generate	Run1	generate/STIM_001.jpg	99
46.994	2.118	2117.9	generate	Run1	generate/STIM_002.jpg	100
52.388	2.32	2320.2	generate	Run1	generate/STIM_002.jpg	100
57.521	1.524	1524.4	generate	Run1	generate/STIM_002.jpg	99
62.305	1.25	1249.8	generate	Run1	generate/STIM_002.jpg	100
66.689	1.163	1163.2	generate	Run1	generate/STIM_002.jpg	100
70.419	2.258	2258.4	generate	Run1	generate/STIM_003.jpg	100
75.558	1.895	1895.1	generate	Run1	generate/STIM_003.jpg	99
79.617	1.928	1927.6	generate	Run1	generate/STIM_003.jpg	99
85.151	1.384	1384.0	generate	Run1	generate/STIM_003.jpg	100
88.998	1.972	1971.5	generate	Run1	generate/STIM_003.jpg	100
93.927	1.684	1684.1	generate	Run1	generate/STIM_004.jpg	100
97.771	1.559	1558.9	generate	Run1	generate/STIM_004.jpg	99
103.074	1.296	1295.8	generate	Run1	generate/STIM_004.jpg	100
107.78	0.913	912.8	generate	Run1	generate/STIM_004.jpg	100
111.221	1.592	1591.6	generate	Run1	generate/STIM_004.jpg	99
115.742	1.849	1849.1	generate	Run1	generate/STIM_005.jpg	99
121.385	2.32	2319.5	generate	Run1	generate/STIM_005.jpg	99
127.468	1.692	1691.8	generate	Run1	generate/STIM_005.jpg	99
132.194	1.408	1407.5	generate	Run1	generate/STIM_005.jpg	99
136.399	1.144	1143.5	generate	Run1	generate/STIM_005.jpg	100
139.911	1.662	1661.7	generate	Run1	generate/STIM_006.jpg	99
144.93	0.989	989.2	generate	Run1	generate/STIM_006.jpg	100
149.389	1.153	1153.0	generate	Run1	generate/STIM_006.jpg	100
153.358	1.222	1221.6	generate	Run1	generate/STIM_006.jpg	100
158.156	1.38	1380.3	generate	Run1	generate/STIM_006.jpg	99
163.032	1.829	1829.1	generate	Run1	generate/STIM_007.jpg	99
168.351	2.292	2291.7	generate	Run1	generate/STIM_007.jpg	100
172.796	2.212	2212.1	generate	Run1	generate/STIM_007.jpg	100
177.965	1.858	1857.5	generate	Run1	generate/STIM_007.jpg	100
183.513	1.564	1563.7	generate	Run1	generate/STIM_007.jpg	99
189.046	2.259	2258.8	generate	Run1	generate/STIM_008.jpg	99
194.757	2.008	2007.7	generate	Run1	generate/STIM_008.jpg	99
199.514	2.212	2212.4	generate	Run1	generate/STIM_008.jpg	100
204.842	1.123	1122.7	generate	Run1	generate/STIM_008.jpg	100
209.726	1.685	1685.0	generate	Run1	generate/STIM_008.jpg	100
213.465	1.38	1379.6	generate	Run1	generate/STIM_009.jpg	100
218.527	0.976	975.7	generate	Run1	generate/STIM_009.jpg	99
222.199	1.992	1992.0	generate	Run1	generate/STIM_009.jpg	99
227.53	1.143	1143.4	generate	Run1	generate/STIM_009.jpg	99
231.447	0.995	994.7	generate	Run1	generate/STIM_009.jpg	99
236.398	2.073	2072.7	generate	Run1	generate/STIM_010.jpg	99
240.653	1.208	1208.4	generate	Run1	generate/STIM_010.jpg	100
244.997	2.02	2020.3	generate	Run1	generate/STIM_010.jpg	99
249.933	0.92	919.6	generate	Run1	generate/STIM_010.jpg	100
253.741	1.28	1279.6	generate	Run1	generate/STIM_010.jpg	100
258.462	2.05	2049.8	generate	Run1	generate/STIM_011.jpg	99
262.597	1.288	1288.0	generate	Run1	generate/STIM_011.jpg	100
267.004	1.227	1226.6	generate	Run1	generate/STIM_011.jpg	99
270.294	1.486	1486.3	generate	Run1	generate/STIM_011.jpg	99
274.031	1.46	1460.4	generate	Run1	generate/STIM_011.jpg	100
278.504	2.361	2361.0	generate	Run1	generate/STIM_012.jpg	99
284.681	1.712	1712.1	generate	Run1	generate/STIM_012.jpg	100
288.815	1.279	1279.1	generate	Run1	generate/STIM_012.jpg	99
293.613	1.688	1687.9	generate	Run1	generate/STIM_012.jpg	100
299.184	1.264	1263.5	generate	Run1	generate/STIM_012.jpg	99
304.189	2.371	2371.1	generate	Run1	generate/STIM_013.jpg	100
308.954	1.145	1144.8	generate	Run1	generate/STIM_013.jpg	100
312.563	1.041	1041.1	generate	Run1	generate/STIM_013.jpg	100
317.551	1.136	1135.7	generate	Run1	generate/STIM_013.jpg	99
322.435	1.721	1721.2	generate	Run1	generate/STIM_013.jpg	100
326.788	2.159	2158.7	generate	Run1	generate/STIM_014.jpg	100
332.524	1.031	1031.2	generate	Run1	generate/STIM_014.jpg	100
337.443	1.156	1156.1	generate	Run1	generate/STIM_014.jpg	100
342.088	0.872	872.4	generate	Run1	generate/STIM_014.jpg	100
345.721	0.827	827.0	generate	Run1	generate/STIM_014.jpg	99
350.265	1.02	1020.4	generate	Run1	generate/STIM_015.jpg	99
354.485	1.383	1383.2	generate	Run1	generate/STIM_015.jpg	99
358.942	0.93	930.1	generate	Run1	generate/STIM_015.jpg	100
362.105	1.119	1119.4	generate	Run1	generate/STIM_015.jpg	99
366.15	1.592	1591.7	generate	Run1	generate/STIM_015.jpg	100
371.741	2.071	2070.7	generate	Run1	generate/STIM_016.jpg	99
377.192	1.431	1431.0	generate	Run1	generate/STIM_016.jpg	100
382.546	1.526	1526.3	generate	Run1	generate/STIM_016.jpg	99
388.023	1.033	1033.4	generate	Run1	generate/STIM_016.jpg	99
392.682	1.327	1327.3	generate	Run1	generate/STIM_016.jpg	99
396.187	1.472	1471.5	generate	Run1	generate/STIM_017.jpg	99
400.361	1.107	1106.9	generate	Run1	generate/STIM_017.jpg	99
404.683	1.984	1983.7	generate	Run1	generate/STIM_017.jpg	99
410.159	0.876	876.3	generate	Run1	generate/STIM_017.jpg	100
414.421	1.428	1428.0	generate	Run1	generate/STIM_017.jpg	100
418.445	1.322	1322.3	generate	Run1	generate/STIM_018.jpg	100
422.188	1.828	1828.1	generate	Run1	generate/STIM_018.jpg	99
427.339	1.131	1131.1	generate	Run1	generate/STIM_018.jpg	100
432.34	0.85	850.1	generate	Run1	generate/STIM_018.jpg	99
436.191	0.792	791.7	generate	Run1	generate/STIM_018.jpg	99
439.092	2.107	2107.0	generate	Run1	generate/STIM_019.jpg	99
443.456	1.144	1143.5	generate	Run1	generate/STIM_019.jpg	99
448.541	1.996	1996.4	generate	Run1	generate/STIM_019.jpg	100
453.477	1.906	1906.4	generate	Run1	generate/STIM_019.jpg	99
458.632	1.913	1913.0	generate	Run1	generate/STIM_019.jpg	100
463.342	2.098	2098.2	generate	Run1	generate/STIM_020.jpg	100
468.221	0.94	940.2	generate	Run1	generate/STIM_020.jpg	100
472.008	1.997	1996.9	generate	Run1	generate/STIM_020.jpg	99
477.483	1.133	1133.2	generate	Run1	generate/STIM_020.jpg	99
481.695	1.166	1165.9	generate	Run1	generate/STIM_020.jpg	100
485.086	2.226	2225.7	generate	Run1	generate/STIM_021.jpg	99
490.053	1.172	1171.8	generate	Run1	generate/STIM_021.jpg	99
493.443	1.97	1970.1	generate	Run1	generate/STIM_021.jpg	100
497.657	1.507	1507.4	generate	Run1	generate/STIM_021.jpg	100
501.315	1.385	1385.3	generate	Run1	generate/STIM_021.jpg	99
506.075	1.03	1029.5	generate	Run1	generate/STIM_022.jpg	99
509.713	1.454	1453.7	generate	Run1	generate/STIM_022.jpg	100
514.449	1.825	1825.2	generate	Run1	generate/STIM_022.jpg	99
519.684	1.136	1135.9	generate	Run1	generate/STIM_022.jpg	100
524.172	1.263	1263.3	generate	Run1	generate/STIM_022.jpg	100
527.966	1.748	1748.5	generate	Run1	generate/STIM_023.jpg	100
533.446	1.477	1477.1	generate	Run1	generate/STIM_023.jpg	99
537.19	1.785	1785.3	generate	Run1	generate/STIM_023.jpg	100
541.743	1.518	1518.2	generate	Run1	generate/STIM_023.jpg	99
545.639	1.634	1633.7	generate	Run1	generate/STIM_023.jpg	99
550.832	2.203	2202.7	generate	Run1	generate/STIM_024.jpg	99
556.386	0.937	937.4	generate	Run1	generate/STIM_024.jpg	100
560.011	1.786	1786.0	generate	Run1	generate/STIM_024.jpg	100
565.025	1.999	1998.6	generate	Run1	generate/STIM_024.jpg	100
569.675	1.592	1591.5	generate	Run1	generate/STIM_024.jpg	100
573.457	0.57	570.5	repeat	Run1	repeat/STIM_000.jpg	100
576.39	0.474	473.5	repeat	Run1	repeat/STIM_000.jpg	99
579.711	0.509	509.3	repeat	Run1	repeat/STIM_000.jpg	99
583.637	0.72	720.4	repeat	Run1	repeat/STIM_000.jpg	99
588.043	0.778	778.4	repeat	Run1	repeat/STIM_000.jpg	100
591.214	0.756	755.6	repeat	Run1	repeat/STIM_001.jpg	99
594.327	0.613	612.9	repeat	Run1	repeat/STIM_001.jpg	99
597.677	0.53	530.0	repeat	Run1	repeat/STIM_001.jpg	99
600.294	0.505	505.2	repeat	Run1	repeat/STIM_001.jpg	100
603.68	0.524	523.8	repeat	Run1	repeat/STIM_001.jpg	99
607.497	0.531	531.1	repeat	Run1	repeat/STIM_002.jpg	99
610.176	0.611	610.9	repeat	Run1	repeat/STIM_002.jpg	99
614.187	0.539	539.4	repeat	Run1	repeat/STIM_002.jpg	99
618.049	0.536	536.1	repeat	Run1	repeat/STIM_002.jpg	99
620.685	0.733	732.9	repeat	Run1	repeat/STIM_002.jpg	100
623.81	0.769	769.3	repeat	Run1	repeat/STIM_003.jpg	100
628.499	0.532	532.2	repeat	Run1	repeat/STIM_003.jpg	100
632.839	0.474	473.9	repeat	Run1	repeat/STIM_003.jpg	99
637.222	0.712	711.8	repeat	Run1	repeat/STIM_003.jpg	100
641.67	0.687	686.8	repeat	Run1	repeat/STIM_003.jpg	99
645.527	0.568	568.1	repeat	Run1	repeat/STIM_004.jpg	99
648.974	0.568	568.1	repeat	Run1	repeat/STIM_004.jpg	100
652.994	0.696	696.5	repeat	Run1	repeat/STIM_004.jpg	100
656.583	0.595	595.0	repeat	Run1	repeat/STIM_004.jpg	100
659.735	0.525	525.4	repeat	Run1	repeat/STIM_004.jpg	99
663.346	0.554	554.2	repeat	Run1	repeat/STIM_005.jpg	100
667.358	0.77	770.5	repeat	Run1	repeat/STIM_005.jpg	99
671.177	0.693	693.4	repeat	Run1	repeat/STIM_005.jpg	100
674.145	0.485	484.8	repeat	Run1	repeat/STIM_005.jpg	100
677.468	0.606	606.2	repeat	Run1	repeat/STIM_005.jpg	99
680.353	0.538	538.5	repeat	Run1	repeat/STIM_006.jpg	99
684.852	0.805	804.8	repeat	Run1	repeat/STIM_006.jpg	100
689.249	0.721	721.1	repeat	Run1	repeat/STIM_006.jpg	100
692.708	0.634	633.9	repeat	Run1	repeat/STIM_006.jpg	99
696.961	0.581	580.7	repeat	Run1	repeat/STIM_006.jpg	100
701.134	0.542	542.1	repeat	Run1	repeat/STIM_007.jpg	99
704.082	0.744	744.2	repeat	Run1	repeat/STIM_007.jpg	99
707.875	0.7	700.5	repeat	Run1	repeat/STIM_007.jpg	99
711.756	0.554	553.6	repeat	Run1	repeat/STIM_007.jpg	99
714.808	0.552	552.1	repeat	Run1	repeat/STIM_007.jpg	99
717.453	0.528	528.3	repeat	Run1	repeat/STIM_008.jpg	100
721.356	0.769	768.9	repeat	Run1	repeat/STIM_008.jpg	100
726.061	0.745	745.2	repeat	Run1	repeat/STIM_008.jpg	99
730.149	0.723	722.9	repeat	Run1	repeat/STIM_008.jpg	100
733.429	0.81	810.2	repeat	Run1	repeat/STIM_008.jpg	100
738.074	0.767	767.0	repeat	Run1	repeat/STIM_009.jpg	99
741.085	0.811	811.1	repeat	Run1	repeat/STIM_009.jpg	100
744.441	0.734	734.2	repeat	Run1	repeat/STIM_009.jpg	100
748.929	0.573	573.4	repeat	Run1	repeat/STIM_009.jpg	100
752.311	0.47	469.6	repeat	Run1	repeat/STIM_009.jpg	99
754.927	0.673	672.9	repeat	Run1	repeat/STIM_010.jpg	99
759.584	0.78	780.3	repeat	Run1	repeat/STIM_010.jpg	99
763.014	0.54	540.4	repeat	Run1	repeat/STIM_010.jpg	100
765.963	0.462	462.2	repeat	Run1	repeat/STIM_010.jpg	99
770.34	0.626	625.7	repeat	Run1	repeat/STIM_010.jpg	99
774.805	0.521	521.0	repeat	Run1	repeat/STIM_011.jpg	99
778.586	0.499	499.2	repeat	Run1	repeat/STIM_011.jpg	99
781.474	0.601	601.3	repeat	Run1	repeat/STIM_011.jpg	100
785.853	0.638	637.8	repeat	Run1	repeat/STIM_011.jpg	99
789.196	0.812	812.2	repeat	Run1	repeat/STIM_011.jpg	100
793.516	0.657	657.4	repeat	Run1	repeat/STIM_012.jpg	99
798.128	0.654	653.9	repeat	Run1	repeat/STIM_012.jpg	99
802.347	0.468	468.1	repeat	Run1	repeat/STIM_012.jpg	99
805.046	0.585	584.6	repeat	Run1	repeat/STIM_012.jpg	99
809.303	0.428	428.1	repeat	Run1	repeat/STIM_012.jpg	100
813.37	0.638	638.2	repeat	Run1	repeat/STIM_013.jpg	99
817.51	0.449	448.7	repeat	Run1	repeat/STIM_013.jpg	99
819.98	0.661	660.9	repeat	Run1	repeat/STIM_013.jpg	99
822.846	0.441	441.0	repeat	Run1	repeat/STIM_013.jpg	99
825.549	0.502	502.1	repeat	Run1	repeat/STIM_013.jpg	100
829.332	0.808	808.3	repeat	Run1	repeat/STIM_014.jpg	99
833.695	0.522	521.6	repeat	Run1	repeat/STIM_014.jpg	100
836.792	0.755	754.8	repeat	Run1	repeat/STIM_014.jpg	100
840.478	0.58	579.8	repeat	Run1	repeat/STIM_014.jpg	100
844.819	0.564	564.2	repeat	Run1	repeat/STIM_014.jpg	99
848.053	1.174	1173.5	generate	Run2	generate/STIM_000.jpg	99
853.019	1.038	1038.4	generate	Run2	generate/STIM_000.jpg	99
856.436	1.818	1817.8	generate	Run2	generate/STIM_000.jpg	100
862.203	0.881	881.4	generate	Run2	generate/STIM_000.jpg	100
865.856	0.965	964.9	generate	Run2	generate/STIM_000.jpg	99
870.718	2.036	2035.6	generate	Run2	generate/STIM_001.jpg	99
875.423	1.283	1282.8	generate	Run2	generate/STIM_001.jpg	99
879.072	1.689	1688.6	generate	Run2	generate/STIM_001.jpg	100
883.525	1.689	1689.1	generate	Run2	generate/STIM_001.jpg	99
888.694	0.848	848.3	generate	Run2	generate/STIM_001.jpg	100
892.683	0.867	867.1	generate	Run2	generate/STIM_002.jpg	99
897.067	0.791	791.4	generate	Run2	generate/STIM_002.jpg	99
899.981	1.683	1683.2	generate	Run2	generate/STIM_002.jpg	99
905.604	1.34	1339.6	generate	Run2	generate/STIM_002.jpg	100
910.92	1.176	1176.1	generate	Run2	generate/STIM_002.jpg	99
915.507	1.075	1075.4	generate	Run2	generate/STIM_003.jpg	99
918.769	1.322	1322.3	generate	Run2	generate/STIM_003.jpg	99
923.267	1.604	1603.7	generate	Run2	generate/STIM_003.jpg	99
927.704	1.02	1020.4	generate	Run2	generate/STIM_003.jpg	99
932.244	1.358	1357.9	generate	Run2	generate/STIM_003.jpg	100
937.579	0.946	945.6	generate	Run2	generate/STIM_004.jpg	99
941.4	1.366	1365.6	generate	Run2	generate/STIM_004.jpg	100
946.245	1.221	1221.2	generate	Run2	generate/STIM_004.jpg	99
950.151	1.083	1083.0	generate	Run2	generate/STIM_004.jpg	100
954.897	1.146	1146.3	generate	Run2	generate/STIM_004.jpg	99
958.588	1.823	1823.3	generate	Run2	generate/STIM_005.jpg	99
963.981	1.037	1037.1	generate	Run2	generate/STIM_005.jpg	99
967.839	1.44	1440.4	generate	Run2	generate/STIM_005.jpg	100
972.247	1.482	1481.9	generate	Run2	generate/STIM_005.jpg	100
976.43	0.759	758.9	generate	Run2	generate/STIM_005.jpg	100
980.249	1.872	1871.8	generate	Run2	generate/STIM_006.jpg	100
985.012	1.694	1693.8	generate	Run2	generate/STIM_006.jpg	100
990.498	1.202	1202.4	generate	Run2	generate/STIM_006.jpg	99
995.629	0.759	758.7	generate	Run2	generate/STIM_006.jpg	99
999.87	0.717	717.2	generate	Run2	generate/STIM_006.jpg	100
1003.835	1.96	1960.5	generate	Run2	generate/STIM_007.jpg	99
1008.721	1.841	1841.1	generate	Run2	generate/STIM_007.jpg	99
1013.896	1.331	1331.3	generate	Run2	generate/STIM_007.jpg	99
1017.727	0.788	787.9	generate	Run2	generate/STIM_007.jpg	99
1021.292	1.388	1387.9	generate	Run2	generate/STIM_007.jpg	99
1025.399	1.296	1295.6	generate	Run2	generate/STIM_008.jpg	99
1029.219	1.15	1150.1	generate	Run2	generate/STIM_008.jpg	100
1033.952	0.908	908.5	generate	Run2	generate/STIM_008.jpg	100
1038.725	1.235	1235.0	generate	Run2	generate/STIM_008.jpg	100
1043.581	1.34	1340.4	generate	Run2	generate/STIM_008.jpg	100
1048.269	1.692	1692.1	generate	Run2	generate/STIM_009.jpg	100
1053.582	1.062	1061.5	generate	Run2	generate/STIM_009.jpg	100
1057.069	0.819	819.3	generate	Run2	generate/STIM_009.jpg	100
1060.318	0.692	691.9	generate	Run2	generate/STIM_009.jpg	99
1063.883	1.615	1614.6	generate	Run2	generate/STIM_009.jpg	99
1068.264	1.188	1188.4	generate	Run2	generate/STIM_010.jpg	99
1073.154	0.797	797.1	generate	Run2	generate/STIM_010.jpg	99
1076.229	1.09	1090.1	generate	Run2	generate/STIM_010.jpg	100
1080.459	0.829	829.3	generate	Run2	generate/STIM_010.jpg	100
1083.482	0.694	693.8	generate	Run2	generate/STIM_010.jpg	100
1086.219	1.6	1600.3	generate	Run2	generate/STIM_011.jpg	99
1091.584	1.218	1217.7	generate	Run2	generate/STIM_011.jpg	99
1096.424	0.986	986.3	generate	Run2	generate/STIM_011.jpg	99
1099.742	1.548	1547.9	generate	Run2	generate/STIM_011.jpg	99
1104.459	1.238	1238.1	generate	Run2	generate/STIM_011.jpg	99
1108.236	1.697	1697.0	generate	Run2	generate/STIM_012.jpg	99
1112.723	0.839	839.0	generate	Run2	generate/STIM_012.jpg	100
1115.719	1.43	1429.7	generate	Run2	generate/STIM_012.jpg	99
1119.529	1.391	1390.9	generate	Run2	generate/STIM_012.jpg	100
1124.115	1.058	1058.1	generate	Run2	generate/STIM_012.jpg	100
1128.452	1.302	1302.5	generate	Run2	generate/STIM_013.jpg	99
1133.297	1.55	1549.6	generate	Run2	generate/STIM_013.jpg	100
1138.332	0.968	967.9	generate	Run2	generate/STIM_013.jpg	100
1141.967	1.093	1092.8	generate	Run2	generate/STIM_013.jpg	99
1145.096	0.705	704.9	generate	Run2	generate/STIM_013.jpg	99
1149.437	1.398	1398.0	generate	Run2	generate/STIM_014.jpg	99
1152.981	0.969	968.6	generate	Run2	generate/STIM_014.jpg	100
1157.768	0.74	740.4	generate	Run2	generate/STIM_014.jpg	100
1160.795	1.68	1680.4	generate	Run2	generate/STIM_014.jpg	99
1166.21	0.915	915.3	generate	Run2	generate/STIM_014.jpg	100
1169.956	1.526	1525.6	generate	Run2	generate/STIM_015.jpg	100
1173.609	0.928	928.1	generate	Run2	generate/STIM_015.jpg	99
1178.401	1.456	1456.3	generate	Run2	generate/STIM_015.jpg	100
1183.173	1.104	1104.3	generate	Run2	generate/STIM_015.jpg	100
1188.073	1.38	1379.8	generate	Run2	generate/STIM_015.jpg	100
1192.895	1.948	1947.8	generate	Run2	generate/STIM_016.jpg	99
1198.712	1.933	1932.8	generate	Run2	generate/STIM_016.jpg	99
1203.212	1.37	1369.8	generate	Run2	generate/STIM_016.jpg	99
1207.762	0.784	784.2	generate	Run2	generate/STIM_016.jpg	99
1212.177	1.604	1603.7	generate	Run2	generate/STIM_016.jpg	99
1217.529	1.849	1848.8	generate	Run2	generate/STIM_017.jpg	99
1223.2	1.044	1044.4	generate	Run2	generate/STIM_017.jpg	100
1226.87	1.547	1547.3	generate	Run2	generate/STIM_017.jpg	99
1231.756	0.863	863.2	generate	Run2	generate/STIM_017.jpg	99
1234.82	1.0	999.8	generate	Run2	generate/STIM_017.jpg	100
1238.372	0.981	981.3	generate	Run2	generate/STIM_018.jpg	99
1243.341	1.894	1894.1	generate	Run2	generate/STIM_018.jpg	100
1247.338	1.498	1497.7	generate	Run2	generate/STIM_018.jpg	99
1252.399	1.155	1154.8	generate	Run2	generate/STIM_018.jpg	100
1257.249	1.291	1291.0	generate	Run2	generate/STIM_018.jpg	99
1261.877	1.346	1346.1	generate	Run2	generate/STIM_019.jpg	99
1266.077	1.382	1382.4	generate	Run2	generate/STIM_019.jpg	99
1271.455	1.147	1147.4	generate	Run2	generate/STIM_019.jpg	100
1276.179	1.1	1100.2	generate	Run2	generate/STIM_019.jpg	99
1279.93	1.111	1111.2	generate	Run2	generate/STIM_019.jpg	99
1283.995	1.556	1555.7	generate	Run2	generate/STIM_020.jpg	100
1287.861	1.06	1059.7	generate	Run2	generate/STIM_020.jpg	99
1292.778	1.379	1379.2	generate	Run2	generate/STIM_020.jpg	100
1298.089	0.987	987.3	generate	Run2	generate/STIM_020.jpg	100
1302.765	1.173	1173.0	generate	Run2	generate/STIM_020.jpg	99
1307.012	0.881	881.4	generate	Run2	generate/STIM_021.jpg	100
1311.717	0.846	846.0	generate	Run2	generate/STIM_021.jpg	99
1316.559	1.22	1219.6	generate	Run2	generate/STIM_021.jpg	100
1320.661	1.71	1709.6	generate	Run2	generate/STIM_021.jpg	99
1324.61	1.45	1449.8	generate	Run2	generate/STIM_021.jpg	100
1328.66	0.955	954.8	generate	Run2	generate/STIM_022.jpg	99
1332.874	1.797	1797.2	generate	Run2	generate/STIM_022.jpg	99
1338.033	1.609	1609.2	generate	Run2	generate/STIM_022.jpg	100
1342.081	0.913	912.7	generate	Run2	generate/STIM_022.jpg	99
1345.704	0.886	885.8	generate	Run2	generate/STIM_022.jpg	99
1350.549	1.382	1381.7	generate	Run2	generate/STIM_023.jpg	99
1354.321	1.187	1186.9	generate	Run2	generate/STIM_023.jpg	100
1358.701	0.969	969.2	generate	Run2	generate/STIM_023.jpg	99
1362.782	1.701	1701.4	generate	Run2	generate/STIM_023.jpg	100
1367.242	0.907	906.9	generate	Run2	generate/STIM_023.jpg	100
1370.785	2.006	2005.6	generate	Run2	generate/STIM_024.jpg	99
1376.039	1.314	1314.4	generate	Run2	generate/STIM_024.jpg	99
1380.969	0.987	987.3	generate	Run2	generate/STIM_024.jpg	99
1384.032	1.13	1130.1	generate	Run2	generate/STIM_024.jpg	99
1388.866	1.121	1121.0	generate	Run2	generate/STIM_024.jpg	99
1393.692	0.682	681.6	repeat	Run2	repeat/STIM_000.jpg	99
1397.645	0.705	705.0	repeat	Run2	repeat/STIM_000.jpg	99
1401.601	0.659	659.4	repeat	Run2	repeat/STIM_000.jpg	99
1404.464	0.798	798.3	repeat	Run2	repeat/STIM_000.jpg	99
1407.945	0.717	717.2	repeat	Run2	repeat/STIM_000.jpg	100
1412.437	0.731	731.3	repeat	Run2	repeat/STIM_001.jpg	100
1416.095	0.592	592.5	repeat	Run2	repeat/STIM_001.jpg	100
1420.555	0.774	774.3	repeat	Run2	repeat/STIM_001.jpg	100
1424.792	0.44	440.4	repeat	Run2	repeat/STIM_001.jpg	100
1427.599	0.665	664.6	repeat	Run2	repeat/STIM_001.jpg	100
1431.064	0.533	533.3	repeat	Run2	repeat/STIM_002.jpg	100
1434.937	0.429	429.2	repeat	Run2	repeat/STIM_002.jpg	100
1438.471	0.781	781.4	repeat	Run2	repeat/STIM_002.jpg	99
1441.99	0.528	527.9	repeat	Run2	repeat/STIM_002.jpg	100
1444.973	0.468	468.5	repeat	Run2	repeat/STIM_002.jpg	99
1447.724	0.59	589.9	repeat	Run2	repeat/STIM_003.jpg	99
1451.19	0.742	742.1	repeat	Run2	repeat/STIM_003.jpg	100
1455.144	0.519	519.2	repeat	Run2	repeat/STIM_003.jpg	99
1458.883	0.679	679.4	repeat	Run2	repeat/STIM_003.jpg	100
1463.04	0.539	538.8	repeat	Run2	repeat/STIM_003.jpg	100
1467.564	0.419	419.1	repeat	Run2	repeat/STIM_004.jpg	99
1471.225	0.566	566.3	repeat	Run2	repeat/STIM_004.jpg	99
1474.691	0.784	783.8	repeat	Run2	repeat/STIM_004.jpg	99
1478.36	0.646	645.9	repeat	Run2	repeat/STIM_004.jpg	100
1481.606	0.817	817.4	repeat	Run2	repeat/STIM_004.jpg	99
1484.743	0.754	753.8	repeat	Run2	repeat/STIM_005.jpg	100
1489.469	0.421	421.0	repeat	Run2	repeat/STIM_005.jpg	100
1493.268	0.507	507.1	repeat	Run2	repeat/STIM_005.jpg	100
1495.796	0.527	526.8	repeat	Run2	repeat/STIM_005.jpg	100
1500.245	0.736	735.6	repeat	Run2	repeat/STIM_005.jpg	99
1503.327	0.695	695.1	repeat	Run2	repeat/STIM_006.jpg	99
1506.847	0.589	588.8	repeat	Run2	repeat/STIM_006.jpg	100
1511.278	0.815	815.3	repeat	Run2	repeat/STIM_006.jpg	99
1514.794	0.557	557.0	repeat	Run2	repeat/STIM_006.jpg	100
1518.597	0.456	455.8	repeat	Run2	repeat/STIM_006.jpg	100
1521.516	0.736	736.3	repeat	Run2	repeat/STIM_007.jpg	99
1524.633	0.681	681.0	repeat	Run2	repeat/STIM_007.jpg	99
1528.327	0.517	516.6	repeat	Run2	repeat/STIM_007.jpg	99
1532.476	0.58	580.5	repeat	Run2	repeat/STIM_007.jpg	99
1535.529	0.45	449.5	repeat	Run2	repeat/STIM_007.jpg	99
1539.16	0.463	463.4	repeat	Run2	repeat/STIM_008.jpg	99
1542.062	0.596	595.6	repeat	Run2	repeat/STIM_008.jpg	100
1546.141	0.672	672.1	repeat	Run2	repeat/STIM_008.jpg	99
1549.701	0.529	528.6	repeat	Run2	repeat/STIM_008.jpg	100
1554.058	0.676	676.4	repeat	Run2	repeat/STIM_008.jpg	99
1558.343	0.416	416.0	repeat	Run2	repeat/STIM_009.jpg	100
1561.149	0.504	504.0	repeat	Run2	repeat/STIM_009.jpg	100
1564.704	0.636	635.9	repeat	Run2	repeat/STIM_009.jpg	100
1568.304	0.507	507.5	repeat	Run2	repeat/STIM_009.jpg	100
1572.702	0.804	803.7	repeat	Run2	repeat/STIM_009.jpg	100
1575.838	0.528	528.1	repeat	Run2	repeat/STIM_010.jpg	99
1579.158	0.434	434.0	repeat	Run2	repeat/STIM_010.jpg	99
1581.675	0.574	573.6	repeat	Run2	repeat/STIM_010.jpg	100
1585.957	0.7	699.7	repeat	Run2	repeat/STIM_010.jpg	100
1588.76	0.539	539.2	repeat	Run2	repeat/STIM_010.jpg	100
1591.428	0.499	499.4	repeat	Run2	repeat/STIM_011.jpg	99
1594.458	0.774	774.1	repeat	Run2	repeat/STIM_011.jpg	99
1597.789	0.651	650.9	repeat	Run2	repeat/STIM_011.jpg	99
1601.535	0.668	668.1	repeat	Run2	repeat/STIM_011.jpg	99
1605.42	0.643	642.7	repeat	Run2	repeat/STIM_011.jpg	100
1608.963	0.763	763.4	repeat	Run2	repeat/STIM_012.jpg	99
1612.095	0.472	471.6	repeat	Run2	repeat/STIM_012.jpg	99
1614.986	0.516	516.5	repeat	Run2	repeat/STIM_012.jpg	99
1617.85	0.693	693.3	repeat	Run2	repeat/STIM_012.jpg	100
1622.169	0.461	460.8	repeat	Run2	repeat/STIM_012.jpg	100
1626.22	0.523	523.4	repeat	Run2	repeat/STIM_013.jpg	100
1629.555	0.546	546.4	repeat	Run2	repeat/STIM_013.jpg	100
1632.207	0.602	602.4	repeat	Run2	repeat/STIM_013.jpg	99
1634.831	0.66	660.2	repeat	Run2	repeat/STIM_013.jpg	100
1639.086	0.423	422.7	repeat	Run2	repeat/STIM_013.jpg	99
1642.633	0.674	673.6	repeat	Run2	repeat/STIM_014.jpg	99
1647.148	0.565	565.3	repeat	Run2	repeat/STIM_014.jpg	99
1650.372	0.734	734.0	repeat	Run2	repeat/STIM_014.jpg	100
1654.845	0.466	465.9	repeat	Run2	repeat/STIM_014.jpg	100
1658.999	0.597	596.8	repeat	Run2	repeat/STIM_014.jpg	99
1663.233	1.627	1626.8	generate	Run3	generate/STIM_000.jpg	100
1668.211	1.52	1520.2	generate	Run3	generate/STIM_000.jpg	100
1671.859	0.768	767.9	generate	Run3	generate/STIM_000.jpg	100
1675.89	1.068	1068.1	generate	Run3	generate/STIM_000.jpg	100
1679.175	1.571	1571.1	generate	Run3	generate/STIM_000.jpg	100
1683.407	1.236	1236.0	generate	Run3	generate/STIM_001.jpg	99
1686.85	1.022	1022.1	generate	Run3	generate/STIM_001.jpg	99
1691.478	1.43	1429.8	generate	Run3	generate/STIM_001.jpg	100
1696.185	1.018	1018.1	generate	Run3	generate/STIM_001.jpg	99
1699.498	0.865	865.4	generate	Run3	generate/STIM_001.jpg	100
1704.345	1.321	1321.1	generate	Run3	generate/STIM_002.jpg	100
1709.162	1.165	1165.2	generate	Run3	generate/STIM_002.jpg	100
1713.497	1.139	1139.4	generate	Run3	generate/STIM_002.jpg	99
1717.87	1.684	1684.5	generate	Run3	generate/STIM_002.jpg	99
1722.005	1.394	1393.7	generate	Run3	generate/STIM_002.jpg	99
1725.438	0.905	904.6	generate	Run3	generate/STIM_003.jpg	100
1729.3	0.962	962.3	generate	Run3	generate/STIM_003.jpg	100
1733.134	0.941	941.1	generate	Run3	generate/STIM_003.jpg	100
1736.824	1.466	1466.5	generate	Run3	generate/STIM_003.jpg	100
1742.056	1.348	1347.9	generate	Run3	generate/STIM_003.jpg	99
1747.115	1.619	1618.9	generate	Run3	generate/STIM_004.jpg	100
1752.481	0.981	981.1	generate	Run3	generate/STIM_004.jpg	99
1755.886	1.348	1347.8	generate	Run3	generate/STIM_004.jpg	99
1760.501	1.19	1189.6	generate	Run3	generate/STIM_004.jpg	100
1765.198	0.77	769.8	generate	Run3	generate/STIM_004.jpg	100
1769.233	1.061	1060.6	generate	Run3	generate/STIM_005.jpg	99
1772.398	1.296	1296.5	generate	Run3	generate/STIM_005.jpg	100
1776.735	1.159	1158.7	generate	Run3	generate/STIM_005.jpg	100
1781.719	1.337	1336.7	generate	Run3	generate/STIM_005.jpg	100
1785.609	1.141	1140.6	generate	Run3	generate/STIM_005.jpg	100
1789.971	1.053	1052.8	generate	Run3	generate/STIM_006.jpg	100
1794.76	1.387	1386.6	generate	Run3	generate/STIM_006.jpg	99
1799.481	1.108	1108.4	generate	Run3	generate/STIM_006.jpg	100
1803.971	1.298	1297.5	generate	Run3	generate/STIM_006.jpg	99
1807.409	0.901	900.6	generate	Run3	generate/STIM_006.jpg	100
1811.729	0.944	943.6	generate	Run3	generate/STIM_007.jpg	99
1815.769	1.449	1449.0	generate	Run3	generate/STIM_007.jpg	99
1820.041	0.985	984.8	generate	Run3	generate/STIM_007.jpg	99
1823.133	0.944	944.2	generate	Run3	generate/STIM_007.jpg	99
1826.53	1.044	1043.7	generate	Run3	generate/STIM_007.jpg	100
1831.447	0.759	759.0	generate	Run3	generate/STIM_008.jpg	100
1835.896	1.218	1218.3	generate	Run3	generate/STIM_008.jpg	100
1839.57	1.667	1667.0	generate	Run3	generate/STIM_008.jpg	99
1844.934	0.933	933.0	generate	Run3	generate/STIM_008.jpg	99
1848.331	1.238	1237.7	generate	Run3	generate/STIM_008.jpg	100
1851.591	1.388	1387.9	generate	Run3	generate/STIM_009.jpg	100
1855.112	1.373	1373.1	generate	Run3	generate/STIM_009.jpg	99
1859.283	1.335	1334.7	generate	Run3	generate/STIM_009.jpg	99
1862.878	1.601	1601.0	generate	Run3	generate/STIM_009.jpg	99
1867.143	1.479	1478.6	generate	Run3	generate/STIM_009.jpg	99
1871.346	1.241	1241.0	generate	Run3	generate/STIM_010.jpg	99
1874.694	1.109	1109.4	generate	Run3	generate/STIM_010.jpg	100
1878.075	0.723	723.1	generate	Run3	generate/STIM_010.jpg	99
1881.214	1.67	1669.5	generate	Run3	generate/STIM_010.jpg	99
1885.295	1.298	1297.5	generate	Run3	generate/STIM_010.jpg	99
1889.97	1.333	1333.0	generate	Run3	generate/STIM_011.jpg	100
1893.571	1.5	1500.3	generate	Run3	generate/STIM_011.jpg	100
1898.793	1.106	1105.7	generate	Run3	generate/STIM_011.jpg	99
1902.734	1.267	1266.9	generate	Run3	generate/STIM_011.jpg	100
1907.086	1.61	1609.8	generate	Run3	generate/STIM_011.jpg	99
1912.486	1.488	1487.7	generate	Run3	generate/STIM_012.jpg	100
1917.78	1.641	1641.1	generate	Run3	generate/STIM_012.jpg	99
1923.274	0.848	847.7	generate	Run3	generate/STIM_012.jpg	100
1927.323	1.244	1243.9	generate	Run3	generate/STIM_012.jpg	100
1932.107	0.765	765.2	generate	Run3	generate/STIM_012.jpg	100
1936.28	0.848	847.9	generate	Run3	generate/STIM_013.jpg	100
1939.212	1.664	1664.2	generate	Run3	generate/STIM_013.jpg	100
1943.39	0.765	764.9	generate	Run3	generate/STIM_013.jpg	100
1947.577	1.338	1337.7	generate	Run3	generate/STIM_013.jpg	99
1951.64	0.894	893.5	generate	Run3	generate/STIM_013.jpg	100
1956.126	0.913	913.3	generate	Run3	generate/STIM_014.jpg	99
1959.644	1.703	1702.6	generate	Run3	generate/STIM_014.jpg	100
1965.057	1.002	1001.9	generate	Run3	generate/STIM_014.jpg	100
1969.402	1.289	1289.4	generate	Run3	generate/STIM_014.jpg	99
1974.266	0.707	707.1	generate	Run3	generate/STIM_014.jpg	99
1978.551	1.122	1121.9	generate	Run3	generate/STIM_015.jpg	100
1982.529	1.003	1002.7	generate	Run3	generate/STIM_015.jpg	99
1986.171	0.846	845.6	generate	Run3	generate/STIM_015.jpg	100
1990.997	1.531	1530.8	generate	Run3	generate/STIM_015.jpg	100
1996.071	1.237	1237.1	generate	Run3	generate/STIM_015.jpg	100
2000.031	1.343	1343.4	generate	Run3	generate/STIM_016.jpg	100
2003.525	0.781	780.8	generate	Run3	generate/STIM_016.jpg	100
2007.622	0.814	813.5	generate	Run3	generate/STIM_016.jpg	100
2011.694	0.799	799.4	generate	Run3	generate/STIM_016.jpg	99
2015.561	1.086	1085.7	generate	Run3	generate/STIM_016.jpg	100
2020.091	0.73	730.5	generate	Run3	generate/STIM_017.jpg	100
2023.584	1.712	1712.3	generate	Run3	generate/STIM_017.jpg	99
2027.377	0.917	917.3	generate	Run3	generate/STIM_017.jpg	99
2031.852	1.389	1389.2	generate	Run3	generate/STIM_017.jpg	100
2036.939	1.24	1240.2	generate	Run3	generate/STIM_017.jpg	100
2040.527	1.282	1282.3	generate	Run3	generate/STIM_018.jpg	100
2045.796	0.785	784.8	generate	Run3	generate/STIM_018.jpg	99
2049.153	0.996	996.4	generate	Run3	generate/STIM_018.jpg	99
2053.334	0.88	880.3	generate	Run3	generate/STIM_018.jpg	100
2056.236	0.74	740.2	generate	Run3	generate/STIM_018.jpg	100
2059.772	1.437	1437.0	generate	Run3	generate/STIM_019.jpg	100
2064.318	1.56	1559.7	generate	Run3	generate/STIM_019.jpg	100
2067.951	0.789	788.9	generate	Run3	generate/STIM_019.jpg	100
2071.262	0.946	946.3	generate	Run3	generate/STIM_019.jpg	100
2076.044	1.348	1348.1	generate	Run3	generate/STIM_019.jpg	99
2080.15	1.246	1245.8	generate	Run3	generate/STIM_020.jpg	100
2083.73	0.834	834.5	generate	Run3	generate/STIM_020.jpg	100
2088.168	1.279	1278.7	generate	Run3	generate/STIM_020.jpg	100
2091.527	1.469	1469.2	generate	Run3	generate/STIM_020.jpg	99
2095.17	0.789	788.8	generate	Run3	generate/STIM_020.jpg	100
2099.54	0.852	852.3	generate	Run3	generate/STIM_021.jpg	99
2103.736	1.185	1185.4	generate	Run3	generate/STIM_021.jpg	99
2108.076	0.811	811.2	generate	Run3	generate/STIM_021.jpg	99
2112.684	1.07	1069.6	generate	Run3	generate/STIM_021.jpg	99
2115.996	1.67	1670.0	generate	Run3	generate/STIM_021.jpg	99
2120.682	0.852	851.8	generate	Run3	generate/STIM_022.jpg	99
2124.537	1.478	1477.7	generate	Run3	generate/STIM_022.jpg	99
2129.555	1.008	1008.5	generate	Run3	generate/STIM_022.jpg	100
2133.624	0.766	765.8	generate	Run3	generate/STIM_022.jpg	99
2137.402	1.163	1162.7	generate	Run3	generate/STIM_022.jpg	100
2141.72	0.824	824.1	generate	Run3	generate/STIM_023.jpg	100
2144.874	1.596	1595.5	generate	Run3	generate/STIM_023.jpg	99
2149.596	0.833	832.9	generate	Run3	generate/STIM_023.jpg	100
2152.804	1.464	1463.9	generate	Run3	generate/STIM_023.jpg	100
2158.098	1.053	1053.3	generate	Run3	generate/STIM_023.jpg	99
2161.227	1.216	1216.0	generate	Run3	generate/STIM_024.jpg	99
2165.452	0.701	700.9	generate	Run3	generate/STIM_024.jpg	100
2168.992	1.396	1395.5	generate	Run3	generate/STIM_024.jpg	99
2172.901	1.591	1590.9	generate	Run3	generate/STIM_024.jpg	100
2178.032	1.287	1287.0	generate	Run3	generate/STIM_024.jpg	100
2182.956	0.533	532.8	repeat	Run3	repeat/STIM_000.jpg	99
2186.134	0.536	535.8	repeat	Run3	repeat/STIM_000.jpg	100
2189.73	0.558	557.6	repeat	Run3	repeat/STIM_000.jpg	99
2193.088	0.531	531.1	repeat	Run3	repeat/STIM_000.jpg	99
2197.118	0.592	592.0	repeat	Run3	repeat/STIM_000.jpg	100
2201.479	0.542	542.4	repeat	Run3	repeat/STIM_001.jpg	99
2204.522	0.458	458.3	repeat	Run3	repeat/STIM_001.jpg	99
2207.502	0.436	436.4	repeat	Run3	repeat/STIM_001.jpg	100
2209.995	0.665	664.7	repeat	Run3	repeat/STIM_001.jpg	99
2214.154	0.437	436.8	repeat	Run3	repeat/STIM_001.jpg	100
2216.822	0.587	586.7	repeat	Run3	repeat/STIM_002.jpg	99
2220.494	0.758	757.7	repeat	Run3	repeat/STIM_002.jpg	100
2224.151	0.479	479.4	repeat	Run3	repeat/STIM_002.jpg	100
2228.224	0.72	719.6	repeat	Run3	repeat/STIM_002.jpg	100
2232.253	0.797	796.7	repeat	Run3	repeat/STIM_002.jpg	99
2235.533	0.633	633.0	repeat	Run3	repeat/STIM_003.jpg	100
2238.529	0.516	515.5	repeat	Run3	repeat/STIM_003.jpg	100
2242.502	0.819	819.2	repeat	Run3	repeat/STIM_003.jpg	99
2245.541	0.484	484.3	repeat	Run3	repeat/STIM_003.jpg	99
2248.593	0.488	487.7	repeat	Run3	repeat/STIM_003.jpg	100
2252.244	0.494	494.3	repeat	Run3	repeat/STIM_004.jpg	99
2255.971	0.734	733.6	repeat	Run3	repeat/STIM_004.jpg	99
2259.839	0.771	770.9	repeat	Run3	repeat/STIM_004.jpg	99
2264.259	0.8	800.1	repeat	Run3	repeat/STIM_004.jpg	99
2268.075	0.525	525.4	repeat	Run3	repeat/STIM_004.jpg	99
2272.364	0.567	567.1	repeat	Run3	repeat/STIM_005.jpg	100
2276.87	0.662	661.7	repeat	Run3	repeat/STIM_005.jpg	100
2279.89	0.551	551.1	repeat	Run3	repeat/STIM_005.jpg	99
2282.876	0.545	544.6	repeat	Run3	repeat/STIM_005.jpg	99
2287.301	0.73	730.4	repeat	Run3	repeat/STIM_005.jpg	100
2291.482	0.521	520.6	repeat	Run3	repeat/STIM_006.jpg	100
2294.016	0.668	667.9	repeat	Run3	repeat/STIM_006.jpg	100
2296.948	0.701	701.2	repeat	Run3	repeat/STIM_006.jpg	99
2301.109	0.69	690.0	repeat	Run3	repeat/STIM_006.jpg	100
2304.898	0.793	793.2	repeat	Run3	repeat/STIM_006.jpg	100
2309.209	0.781	781.3	repeat	Run3	repeat/STIM_007.jpg	99
2312.188	0.562	561.5	repeat	Run3	repeat/STIM_007.jpg	99
2316.572	0.799	799.3	repeat	Run3	repeat/STIM_007.jpg	100
2320.215	0.775	774.7	repeat	Run3	repeat/STIM_007.jpg	100
2323.2	0.453	452.9	repeat	Run3	repeat/STIM_007.jpg	100
2326.887	0.432	432.0	repeat	Run3	repeat/STIM_008.jpg	100
2330.055	0.565	564.6	repeat	Run3	repeat/STIM_008.jpg	99
2332.92	0.768	768.3	repeat	Run3	repeat/STIM_008.jpg	100
2337.451	0.815	814.6	repeat	Run3	repeat/STIM_008.jpg	99
2340.392	0.413	412.6	repeat	Run3	repeat/STIM_008.jpg	99
2344.273	0.695	694.7	repeat	Run3	repeat/STIM_009.jpg	100
2348.582	0.683	682.7	repeat	Run3	repeat/STIM_009.jpg	99
2351.815	0.776	776.4	repeat	Run3	repeat/STIM_009.jpg	99
2355.24	0.583	583.0	repeat	Run3	repeat/STIM_009.jpg	100
2358.49	0.769	769.4	repeat	Run3	repeat/STIM_009.jpg	100
2362.231	0.725	725.4	repeat	Run3	repeat/STIM_010.jpg	99
2366.188	0.685	685.4	repeat	Run3	repeat/STIM_010.jpg	100
2369.92	0.599	599.3	repeat	Run3	repeat/STIM_010.jpg	99
2374.305	0.715	715.4	repeat	Run3	repeat/STIM_010.jpg	99
2378.156	0.672	672.5	repeat	Run3	repeat/STIM_010.jpg	100
2381.113	0.558	557.7	repeat	Run3	repeat/STIM_011.jpg	100
2385.305	0.451	451.2	repeat	Run3	repeat/STIM_011.jpg	100
2388.102	0.716	715.7	repeat	Run3	repeat/STIM_011.jpg	99
2392.437	0.81	810.1	repeat	Run3	repeat/STIM_011.jpg	99
2396.283	0.518	518.3	repeat	Run3	repeat/STIM_011.jpg	100
2399.869	0.8	799.9	repeat	Run3	repeat/STIM_012.jpg	99
2402.837	0.748	747.9	repeat	Run3	repeat/STIM_012.jpg	99
2407.525	0.764	763.8	repeat	Run3	repeat/STIM_012.jpg	99
2411.806	0.746	745.9	repeat	Run3	repeat/STIM_012.jpg	99
2415.517	0.482	481.7	repeat	Run3	repeat/STIM_012.jpg	100
2419.359	0.779	779.3	repeat	Run3	repeat/STIM_013.jpg	99
2423.301	0.529	528.8	repeat	Run3	repeat/STIM_013.jpg	100
2427.248	0.702	702.5	repeat	Run3	repeat/STIM_013.jpg	99
2430.329	0.728	727.8	repeat	Run3	repeat/STIM_013.jpg	100
2434.021	0.505	504.6	repeat	Run3	repeat/STIM_013.jpg	100
2438.442	0.644	643.8	repeat	Run3	repeat/STIM_014.jpg	100
2442.312	0.733	733.1	repeat	Run3	repeat/STIM_014.jpg	100
2445.178	0.694	693.5	repeat	Run3	repeat/STIM_014.jpg	100
2449.065	0.634	634.1	repeat	Run3	repeat/STIM_014.jpg	100
2453.528	0.505	505.1	repeat	Run3	repeat/STIM_014.jpg	99
2457.924	1.231	1231.3	generate	Run4	generate/STIM_000.jpg	99
2462.831	1.077	1077.4	generate	Run4	generate/STIM_000.jpg	99
2466.78	0.851	850.6	generate	Run4	generate/STIM_000.jpg	100
2471.407	1.057	1056.8	generate	Run4	generate/STIM_000.jpg	100
2475.518	1.21	1209.8	generate	Run4	generate/STIM_000.jpg	100
2479.615	1.694	1694.2	generate	Run4	generate/STIM_001.jpg	100
2485.123	1.401	1401.4	generate	Run4	generate/STIM_001.jpg	100
2489.891	0.702	701.5	generate	Run4	generate/STIM_001.jpg	99
2494.282	0.806	806.0	generate	Run4	generate/STIM_001.jpg	100
2498.47	1.1	1099.6	generate	Run4	generate/STIM_001.jpg	100
2502.95	0.735	734.9	generate	Run4	generate/STIM_002.jpg	100
2506.73	1.595	1595.2	generate	Run4	generate/STIM_002.jpg	99
2512.029	1.045	1044.6	generate	Run4	generate/STIM_002.jpg	99
2515.974	0.816	816.5	generate	Run4	generate/STIM_002.jpg	99
2520.271	1.539	1539.1	generate	Run4	generate/STIM_002.jpg	100
2524.468	1.068	1067.8	generate	Run4	generate/STIM_003.jpg	99
2529.229	0.906	906.0	generate	Run4	generate/STIM_003.jpg	99
2532.201	1.345	1345.0	generate	Run4	generate/STIM_003.jpg	99
2536.953	1.715	1715.2	generate	Run4	generate/STIM_003.jpg	100
2541.95	1.559	1558.8	generate	Run4	generate/STIM_003.jpg	99
2547.123	0.86	859.5	generate	Run4	generate/STIM_004.jpg	100
2550.958	1.203	1203.4	generate	Run4	generate/STIM_004.jpg	99
2555.436	1.14	1140.1	generate	Run4	generate/STIM_004.jpg	99
2560.372	1.249	1249.2	generate	Run4	generate/STIM_004.jpg	99
2565.084	0.763	763.3	generate	Run4	generate/STIM_004.jpg	99
2568.468	0.694	693.9	generate	Run4	generate/STIM_005.jpg	100
2571.899	1.671	1671.1	generate	Run4	generate/STIM_005.jpg	99
2576.111	0.939	938.8	generate	Run4	generate/STIM_005.jpg	100
2579.241	1.146	1145.8	generate	Run4	generate/STIM_005.jpg	99
2583.065	1.339	1339.3	generate	Run4	generate/STIM_005.jpg	100
2586.893	1.039	1038.7	generate	Run4	generate/STIM_006.jpg	99
2589.933	0.885	884.8	generate	Run4	generate/STIM_006.jpg	100
2593.926	0.832	832.3	generate	Run4	generate/STIM_006.jpg	100
2598.176	1.014	1013.6	generate	Run4	generate/STIM_006.jpg	99
2601.603	1.05	1050.4	generate	Run4	generate/STIM_006.jpg	100
2605.651	1.709	1708.7	generate	Run4	generate/STIM_007.jpg	100
2610.06	1.656	1656.1	generate	Run4	generate/STIM_007.jpg	99
2614.282	0.703	702.7	generate	Run4	generate/STIM_007.jpg	99
2618.13	0.948	948.5	generate	Run4	generate/STIM_007.jpg	99
2621.258	0.739	738.9	generate	Run4	generate/STIM_007.jpg	99
2624.632	0.703	703.1	generate	Run4	generate/STIM_008.jpg	100
2628.23	0.988	987.9	generate	Run4	generate/STIM_008.jpg	99
2631.279	0.812	812.0	generate	Run4	generate/STIM_008.jpg	100
2635.991	0.729	728.8	generate	Run4	generate/STIM_008.jpg	100
2640.389	1.633	1632.8	generate	Run4	generate/STIM_008.jpg	100
2644.294	0.726	726.2	generate	Run4	generate/STIM_009.jpg	100
2648.71	1.196	1195.5	generate	Run4	generate/STIM_009.jpg	100
2651.963	1.57	1569.7	generate	Run4	generate/STIM_009.jpg	99
2655.667	1.495	1495.0	generate	Run4	generate/STIM_009.jpg	99
2661.135	0.781	780.9	generate	Run4	generate/STIM_009.jpg	100
2665.135	0.972	972.0	generate	Run4	generate/STIM_010.jpg	100
2669.323	1.359	1358.8	generate	Run4	generate/STIM_010.jpg	100
2673.031	1.012	1012.0	generate	Run4	generate/STIM_010.jpg	99
2677.901	1.241	1241.1	generate	Run4	generate/STIM_010.jpg	100
2682.987	1.137	1137.3	generate	Run4	generate/STIM_010.jpg	100
2686.219	0.806	805.9	generate	Run4	generate/STIM_011.jpg	99
2690.637	1.532	1532.3	generate	Run4	generate/STIM_011.jpg	100
2694.41	1.063	1062.9	generate	Run4	generate/STIM_011.jpg	99
2697.763	0.75	749.7	generate	Run4	generate/STIM_011.jpg	100
2702.487	0.854	853.6	generate	Run4	generate/STIM_011.jpg	100
2705.483	1.384	1384.4	generate	Run4	generate/STIM_012.jpg	99
2710.65	0.842	841.8	generate	Run4	generate/STIM_012.jpg	99
2714.021	0.799	799.2	generate	Run4	generate/STIM_012.jpg	100
2718.234	1.211	1211.1	generate	Run4	generate/STIM_012.jpg	100
2722.311	1.67	1669.7	generate	Run4	generate/STIM_012.jpg	100
2727.875	0.789	789.1	generate	Run4	generate/STIM_013.jpg	100
2731.707	1.233	1233.1	generate	Run4	generate/STIM_013.jpg	99
2735.378	1.384	1384.3	generate	Run4	generate/STIM_013.jpg	100
2739.914	1.269	1269.1	generate	Run4	generate/STIM_013.jpg	100
2744.647	1.151	1151.0	generate	Run4	generate/STIM_013.jpg	100
2749.277	0.854	854.2	generate	Run4	generate/STIM_014.jpg	99
2753.315	1.675	1675.3	generate	Run4	generate/STIM_014.jpg	99
2758.023	1.507	1506.7	generate	Run4	generate/STIM_014.jpg	100
2763.405	1.104	1103.9	generate	Run4	generate/STIM_014.jpg	99
2768.31	1.253	1253.3	generate	Run4	generate/STIM_014.jpg	99
2772.278	1.587	1586.7	generate	Run4	generate/STIM_015.jpg	100
2777.502	0.748	748.5	generate	Run4	generate/STIM_015.jpg	100
2781.611	1.179	1179.1	generate	Run4	generate/STIM_015.jpg	100
2786.046	1.183	1183.2	generate	Run4	generate/STIM_015.jpg	100
2789.476	1.307	1306.9	generate	Run4	generate/STIM_015.jpg	99
2794.776	1.698	1697.6	generate	Run4	generate/STIM_016.jpg	99
2799.375	1.162	1161.5	generate	Run4	generate/STIM_016.jpg	99
2802.791	1.04	1039.6	generate	Run4	generate/STIM_016.jpg	100
2807.185	1.35	1350.3	generate	Run4	generate/STIM_016.jpg	100
2811.103	1.546	1546.1	generate	Run4	generate/STIM_016.jpg	100
2815.893	1.489	1489.1	generate	Run4	generate/STIM_017.jpg	100
2819.74	1.646	1646.0	generate	Run4	generate/STIM_017.jpg	99
2823.835	0.869	869.1	generate	Run4	generate/STIM_017.jpg	99
2827.941	1.166	1165.8	generate	Run4	generate/STIM_017.jpg	99
2831.336	1.499	1499.3	generate	Run4	generate/STIM_017.jpg	100
2836.687	1.367	1367.0	generate	Run4	generate/STIM_018.jpg	100
2841.423	1.41	1409.9	generate	Run4	generate/STIM_018.jpg	99
2846.163	1.108	1107.7	generate	Run4	generate/STIM_018.jpg	100
2851.261	1.672	1672.3	generate	Run4	generate/STIM_018.jpg	99
2855.447	1.551	1550.8	generate	Run4	generate/STIM_018.jpg	99
2860.482	1.062	1061.6	generate	Run4	generate/STIM_019.jpg	99
2865.518	1.39	1390.5	generate	Run4	generate/STIM_019.jpg	100
2869.349	1.077	1076.9	generate	Run4	generate/STIM_019.jpg	99
2873.339	1.008	1008.1	generate	Run4	generate/STIM_019.jpg	99
2877.266	1.649	1649.3	generate	Run4	generate/STIM_019.jpg	100
2881.203	1.449	1449.0	generate	Run4	generate/STIM_020.jpg	100
2884.786	1.667	1666.7	generate	Run4	generate/STIM_020.jpg	100
2889.043	1.488	1487.8	generate	Run4	generate/STIM_020.jpg	100
2893.348	1.261	1261.4	generate	Run4	generate/STIM_020.jpg	99
2898.427	1.393	1393.1	generate	Run4	generate/STIM_020.jpg	99
2903.402	1.019	1019.4	generate	Run4	generate/STIM_021.jpg	99
2907.673	1.265	1265.0	generate	Run4	generate/STIM_021.jpg	99
2910.984	1.001	1001.3	generate	Run4	generate/STIM_021.jpg	99
2914.827	1.695	1695.0	generate	Run4	generate/STIM_021.jpg	99
2918.613	0.73	729.9	generate	Run4	generate/STIM_021.jpg	99
2921.366	1.006	1006.4	generate	Run4	generate/STIM_022.jpg	100
2925.456	1.124	1123.8	generate	Run4	generate/STIM_022.jpg	100
2930.519	0.734	733.5	generate	Run4	generate/STIM_022.jpg	99
2934.75	1.119	1118.6	generate	Run4	generate/STIM_022.jpg	100
2938.449	0.976	975.5	generate	Run4	generate/STIM_022.jpg	100
2942.968	1.504	1503.6	generate	Run4	generate/STIM_023.jpg	100
2947.672	0.976	976.5	generate	Run4	generate/STIM_023.jpg	100
2950.8	1.19	1190.0	generate	Run4	generate/STIM_023.jpg	100
2954.922	1.644	1644.0	generate	Run4	generate/STIM_023.jpg	99
2960.119	0.985	985.2	generate	Run4	generate/STIM_023.jpg	100
2964.461	1.256	1255.9	generate	Run4	generate/STIM_024.jpg	100
2968.177	0.959	958.9	generate	Run4	generate/STIM_024.jpg	100
2971.532	1.688	1687.7	generate	Run4	generate/STIM_024.jpg	99
2976.063	0.798	798.3	generate	Run4	generate/STIM_024.jpg	100
2979.024	1.646	1646.3	generate	Run4	generate/STIM_024.jpg	100
2982.92	0.604	604.4	repeat	Run4	repeat/STIM_000.jpg	100
2986.914	0.428	428.3	repeat	Run4	repeat/STIM_000.jpg	99
2989.713	0.412	411.9	repeat	Run4	repeat/STIM_000.jpg	99
2993.068	0.618	618.2	repeat	Run4	repeat/STIM_000.jpg	99
2995.86	0.795	794.7	repeat	Run4	repeat/STIM_000.jpg	100
2999.483	0.8	799.9	repeat	Run4	repeat/STIM_001.jpg	99
3002.68	0.786	786.0	repeat	Run4	repeat/STIM_001.jpg	99
3007.39	0.509	508.9	repeat	Run4	repeat/STIM_001.jpg	100
3011.298	0.566	565.5	repeat	Run4	repeat/STIM_001.jpg	100
3015.432	0.768	767.9	repeat	Run4	repeat/STIM_001.jpg	99
3018.426	0.553	553.1	repeat	Run4	repeat/STIM_002.jpg	99
3022.275	0.756	756.5	repeat	Run4	repeat/STIM_002.jpg	99
3025.365	0.709	709.2	repeat	Run4	repeat/STIM_002.jpg	100
3028.995	0.658	657.7	repeat	Run4	repeat/STIM_002.jpg	99
3031.845	0.658	658.4	repeat	Run4	repeat/STIM_002.jpg	99
3034.618	0.67	669.5	repeat	Run4	repeat/STIM_003.jpg	99
3038.824	0.444	444.3	repeat	Run4	repeat/STIM_003.jpg	99
3041.663	0.722	722.0	repeat	Run4	repeat/STIM_003.jpg	99
3045.752	0.518	518.4	repeat	Run4	repeat/STIM_003.jpg	99
3049.688	0.692	691.7	repeat	Run4	repeat/STIM_003.jpg	99
3053.451	0.428	428.5	repeat	Run4	repeat/STIM_004.jpg	99
3057.272	0.431	430.6	repeat	Run4	repeat/STIM_004.jpg	100
3060.364	0.603	602.9	repeat	Run4	repeat/STIM_004.jpg	99
3063.398	0.722	721.9	repeat	Run4	repeat/STIM_004.jpg	100
3067.047	0.623	623.2	repeat	Run4	repeat/STIM_004.jpg	100
3071.486	0.602	601.5	repeat	Run4	repeat/STIM_005.jpg	100
3075.72	0.818	817.9	repeat	Run4	repeat/STIM_005.jpg	99
3079.524	0.443	442.8	repeat	Run4	repeat/STIM_005.jpg	99
3083.322	0.535	535.0	repeat	Run4	repeat/STIM_005.jpg	99
3087.1	0.642	642.0	repeat	Run4	repeat/STIM_005.jpg	100
3090.707	0.724	724.0	repeat	Run4	repeat/STIM_006.jpg	100
3095.15	0.818	818.2	repeat	Run4	repeat/STIM_006.jpg	100
3099.199	0.566	566.0	repeat	Run4	repeat/STIM_006.jpg	99
3101.989	0.722	721.9	repeat	Run4	repeat/STIM_006.jpg	99
3106.206	0.617	617.4	repeat	Run4	repeat/STIM_006.jpg	99
3110.304	0.772	772.3	repeat	Run4	repeat/STIM_007.jpg	99
3114.228	0.612	611.6	repeat	Run4	repeat/STIM_007.jpg	100
3117.571	0.478	477.6	repeat	Run4	repeat/STIM_007.jpg	100
3121.071	0.74	739.6	repeat	Run4	repeat/STIM_007.jpg	99
3123.948	0.564	563.7	repeat	Run4	repeat/STIM_007.jpg	99
3128.362	0.796	796.0	repeat	Run4	repeat/STIM_008.jpg	100
3132.688	0.602	602.1	repeat	Run4	repeat/STIM_008.jpg	100
3136.367	0.619	619.2	repeat	Run4	repeat/STIM_008.jpg	99
3139.677	0.531	531.3	repeat	Run4	repeat/STIM_008.jpg	99
3143.408	0.636	636.3	repeat	Run4	repeat/STIM_008.jpg	100
3146.366	0.687	686.7	repeat	Run4	repeat/STIM_009.jpg	100
3150.833	0.598	598.1	repeat	Run4	repeat/STIM_009.jpg	100
3154.513	0.572	571.7	repeat	Run4	repeat/STIM_009.jpg	100
3158.233	0.611	611.3	repeat	Run4	repeat/STIM_009.jpg	99
3162.183	0.564	563.6	repeat	Run4	repeat/STIM_009.jpg	100
3166.731	0.537	536.9	repeat	Run4	repeat/STIM_010.jpg	100
3169.841	0.572	572.0	repeat	Run4	repeat/STIM_010.jpg	100
3174.046	0.543	542.7	repeat	Run4	repeat/STIM_010.jpg	99
3178.047	0.596	595.5	repeat	Run4	repeat/STIM_010.jpg	99
3181.013	0.626	626.3	repeat	Run4	repeat/STIM_010.jpg	99
3184.048	0.496	495.7	repeat	Run4	repeat/STIM_011.jpg	100
3187.047	0.645	645.2	repeat	Run4	repeat/STIM_011.jpg	99
3191.524	0.452	451.6	repeat	Run4	repeat/STIM_011.jpg	100
3194.672	0.636	635.9	repeat	Run4	repeat/STIM_011.jpg	99
3197.732	0.746	746.1	repeat	Run4	repeat/STIM_011.jpg	100
3200.742	0.507	507.4	repeat	Run4	repeat/STIM_012.jpg	99
3204.151	0.5	499.5	repeat	Run4	repeat/STIM_012.jpg	100
3207.711	0.617	617.3	repeat	Run4	repeat/STIM_012.jpg	99
3211.607	0.768	767.7	repeat	Run4	repeat/STIM_012.jpg	100
3215.087	0.74	740.0	repeat	Run4	repeat/STIM_012.jpg	99
3219.412	0.79	790.4	repeat	Run4	repeat/STIM_013.jpg	100
3222.859	0.484	484.3	repeat	Run4	repeat/STIM_013.jpg	100
3226.8	0.55	549.9	repeat	Run4	repeat/STIM_013.jpg	100
3230.302	0.685	685.4	repeat	Run4	repeat/STIM_013.jpg	99
3233.19	0.51	509.6	repeat	Run4	repeat/STIM_013.jpg	99
3235.781	0.747	747.4	repeat	Run4	repeat/STIM_014.jpg	99
3238.551	0.752	751.6	repeat	Run4	repeat/STIM_014.jpg	100
3241.571	0.474	474.2	repeat	Run4	repeat/STIM_014.jpg	100
3244.45	0.693	692.8	repeat	Run4	repeat/STIM_014.jpg	99
3248.908	0.746	745.9	repeat	Run4	repeat/STIM_014.jpg	99
