onset	duration	response_time_ms	trial_type	learning_stage	stimulus	response_port
0.0	1.181	1180.9	generate	Run1	generate/STIM_000.jpg	99
5.102	1.152	1152.4	generate	Run1	generate/STIM_000.jpg	99
9.252	1.923	1923.1	generate	Run1	generate/STIM_000.jpg	100
14.362	0.872	872.0	generate	Run1	generate/STIM_000.jpg	99
18.65	1.258	1258.2	generate	Run1	generate/STIM_000.jpg	100
23.088	1.582	1581.6	generate	Run1	generate/STIM_001.jpg	100
27.474	1.426	1426.0	generate	Run1	generate/STIM_001.jpg	100
32.123	1.153	1152.9	generate	Run1	generate/STIM_001.jpg	99
35.76	1.0	1000.0	generate	Run1	generate/STIM_001.jpg	100
39.611	1.096	1095.6	generate	Run1	generate/STIM_001.jpg	99
43.99	1.421	1420.8	generate	Run1	generate/STIM_002.jpg	100
48.45	2.342	2341.8	generate	Run1	generate/STIM_002.jpg	100
54.758	1.553	1553.2	generate	Run1	generate/STIM_002.jpg	99
60.284	2.109	2109.1	generate	Run1	generate/STIM_002.jpg	100
66.02	1.775	1774.8	generate	Run1	generate/STIM_002.jpg	100
71.513	2.245	2245.1	generate	Run1	generate/STIM_003.jpg	100
77.783	2.348	2348.4	generate	Run1	generate/STIM_003.jpg	99
83.866	1.451	1450.7	generate	Run1	generate/STIM_003.jpg	99
88.202	2.093	2093.1	generate	Run1	generate/STIM_003.jpg	100
94.285	0.952	952.2	generate	Run1	generate/STIM_003.jpg	100
98.833	1.882	1881.6	generate	Run1	generate/STIM_004.jpg	100
103.979	0.896	896.1	generate	Run1	generate/STIM_004.jpg	99
108.172	1.197	1196.6	generate	Run1	generate/STIM_004.jpg	100
111.682	1.787	1787.0	generate	Run1	generate/STIM_004.jpg	100
116.085	1.587	1587.4	generate	Run1	generate/STIM_004.jpg	99
121.079	2.068	2068.0	generate	Run1	generate/STIM_005.jpg	99
126.416	2.167	2166.8	generate	Run1	generate/STIM_005.jpg	99
131.794	1.787	1787.2	generate	Run1	generate/STIM_005.jpg	99
137.328	1.499	1499.0	generate	Run1	generate/STIM_005.jpg	99
142.828	1.179	1178.7	generate	Run1	generate/STIM_005.jpg	100
147.912	1.991	1991.3	generate	Run1	generate/STIM_006.jpg	99
154.044	1.052	1051.5	generate	Run1	generate/STIM_006.jpg	100
158.281	1.116	1115.9	generate	Run1	generate/STIM_006.jpg	100
162.442	1.633	1633.0	generate	Run1	generate/STIM_006.jpg	100
167.265	1.062	1062.1	generate	Run1	generate/STIM_006.jpg	99
170.809	2.359	2359.3	generate	Run1	generate/STIM_007.jpg	99
176.219	2.144	2143.7	generate	Run1	generate/STIM_007.jpg	100
182.264	2.076	2075.8	generate	Run1	generate/STIM_007.jpg	100
187.165	1.493	1493.3	generate	Run1	generate/STIM_007.jpg	100
192.237	1.377	1376.9	generate	Run1	generate/STIM_007.jpg	99
195.953	2.138	2138.4	generate	Run1	generate/STIM_008.jpg	99
201.925	0.998	997.7	generate	Run1	generate/STIM_008.jpg	99
205.13	2.017	2017.3	generate	Run1	generate/STIM_008.jpg	100
210.322	1.319	1318.6	generate	Run1	generate/STIM_008.jpg	100
215.451	1.819	1818.6	generate	Run1	generate/STIM_008.jpg	100
220.45	1.221	1221.2	generate	Run1	generate/STIM_009.jpg	100
224.255	2.077	2077.2	generate	Run1	generate/STIM_009.jpg	99
230.213	1.742	1742.1	generate	Run1	generate/STIM_009.jpg	99
235.946	1.167	1167.4	generate	Run1	generate/STIM_009.jpg	99
240.922	0.9	899.7	generate	Run1	generate/STIM_009.jpg	99
245.708	1.751	1751.3	generate	Run1	generate/STIM_010.jpg	99
251.19	2.196	2196.0	generate	Run1	generate/STIM_010.jpg	100
255.768	2.01	2010.5	generate	Run1	generate/STIM_010.jpg	99
260.357	1.402	1401.8	generate	Run1	generate/STIM_010.jpg	100
264.389	1.631	1630.6	generate	Run1	generate/STIM_010.jpg	100
269.918	2.242	2242.1	generate	Run1	generate/STIM_011.jpg	99
275.19	1.949	1949.0	generate	Run1	generate/STIM_011.jpg	100
281.111	1.33	1329.6	generate	Run1	generate/STIM_011.jpg	99
285.14	0.918	917.7	generate	Run1	generate/STIM_011.jpg	99
289.651	1.724	1724.3	generate	Run1	generate/STIM_011.jpg	100
293.777	1.092	1091.5	generate	Run1	generate/STIM_012.jpg	99
297.918	2.053	2053.0	generate	Run1	generate/STIM_012.jpg	100
303.343	1.273	1273.3	generate	Run1	generate/STIM_012.jpg	99
308.181	1.368	1368.2	generate	Run1	generate/STIM_012.jpg	100
313.085	1.371	1371.4	generate	Run1	generate/STIM_012.jpg	99
318.659	2.303	2302.6	generate	Run1	generate/STIM_013.jpg	100
324.386	2.328	2328.4	generate	Run1	generate/STIM_013.jpg	100
329.339	1.084	1084.5	generate	Run1	generate/STIM_013.jpg	100
333.373	1.654	1653.7	generate	Run1	generate/STIM_013.jpg	99
338.741	0.798	797.9	generate	Run1	generate/STIM_013.jpg	100
341.841	1.76	1759.7	generate	Run1	generate/STIM_014.jpg	100
347.699	1.702	1701.8	generate	Run1	generate/STIM_014.jpg	100
352.614	1.219	1219.1	generate	Run1	generate/STIM_014.jpg	100
356.128	1.317	1317.0	generate	Run1	generate/STIM_014.jpg	100
361.135	1.251	1250.6	generate	Run1	generate/STIM_014.jpg	99
366.278	2.308	2308.3	generate	Run1	generate/STIM_015.jpg	99
372.086	1.259	1258.9	generate	Run1	generate/STIM_015.jpg	99
377.214	1.152	1152.3	generate	Run1	generate/STIM_015.jpg	100
382.014	1.213	1212.7	generate	Run1	generate/STIM_015.jpg	99
385.974	1.093	1093.4	generate	Run1	generate/STIM_015.jpg	100
390.991	2.219	2218.8	generate	Run1	generate/STIM_016.jpg	99
396.409	2.087	2087.0	generate	Run1	generate/STIM_016.jpg	100
401.446	1.944	1944.2	generate	Run1	generate/STIM_016.jpg	99
405.916	1.099	1099.0	generate	Run1	generate/STIM_016.jpg	99
410.766	1.208	1207.5	generate	Run1	generate/STIM_016.jpg	99
415.751	2.122	2121.8	generate	Run1	generate/STIM_017.jpg	99
420.889	1.366	1366.3	generate	Run1	generate/STIM_017.jpg	99
424.473	1.934	1934.3	generate	Run1	generate/STIM_017.jpg	99
428.911	1.177	1177.4	generate	Run1	generate/STIM_017.jpg	100
434.095	0.931	931.3	generate	Run1	generate/STIM_017.jpg	100
439.021	2.41	2409.9	generate	Run1	generate/STIM_018.jpg	100
445.188	0.978	977.8	generate	Run1	generate/STIM_018.jpg	99
449.9	1.596	1596.3	generate	Run1	generate/STIM_018.jpg	100
454.914	1.357	1357.2	generate	Run1	generate/STIM_018.jpg	99
458.898	1.014	1014.1	generate	Run1	generate/STIM_018.jpg	99
462.568	2.017	2017.3	generate	Run1	generate/STIM_019.jpg	99
468.826	1.748	1748.2	generate	Run1	generate/STIM_019.jpg	99
474.053	1.305	1305.1	generate	Run1	generate/STIM_019.jpg	100
477.961	1.407	1407.2	generate	Run1	generate/STIM_019.jpg	99
482.108	1.327	1326.9	generate	Run1	generate/STIM_019.jpg	100
486.956	2.016	2015.8	generate	Run1	generate/STIM_020.jpg	100
492.019	1.9	1900.3	generate	Run1	generate/STIM_020.jpg	100
496.794	1.313	1313.0	generate	Run1	generate/STIM_020.jpg	99
501.043	1.252	1252.3	generate	Run1	generate/STIM_020.jpg	99
505.805	0.98	980.5	generate	Run1	generate/STIM_020.jpg	100
510.615	1.558	1557.6	generate	Run1	generate/STIM_021.jpg	99
515.728	1.492	1491.6	generate	Run1	generate/STIM_021.jpg	99
520.434	2.259	2259.3	generate	Run1	generate/STIM_021.jpg	100
526.874	2.082	2081.6	generate	Run1	generate/STIM_021.jpg	100
533.218	1.12	1120.0	generate	Run1	generate/STIM_021.jpg	99
536.614	1.412	1412.4	generate	Run1	generate/STIM_022.jpg	99
541.371	2.276	2276.5	generate	Run1	generate/STIM_022.jpg	100
546.214	1.214	1213.7	generate	Run1	generate/STIM_022.jpg	99
550.907	1.745	1744.7	generate	Run1	generate/STIM_022.jpg	100
555.824	1.3	1300.3	generate	Run1	generate/STIM_022.jpg	100
560.199	1.581	1580.7	generate	Run1	generate/STIM_023.jpg	100
564.541	1.907	1907.3	generate	Run1	generate/STIM_023.jpg	99
570.041	0.95	949.7	generate	Run1	generate/STIM_023.jpg	100
573.747	1.822	1822.5	generate	Run1	generate/STIM_023.jpg	99
578.293	1.618	1618.5	generate	Run1	generate/STIM_023.jpg	99
583.801	1.42	1419.5	generate	Run1	generate/STIM_024.jpg	99
587.62	1.632	1632.2	generate	Run1	generate/STIM_024.jpg	100
592.265	1.012	1011.5	generate	Run1	generate/STIM_024.jpg	100
595.821	1.282	1282.1	generate	Run1	generate/STIM_024.jpg	100
600.267	1.886	1885.9	generate	Run1	generate/STIM_024.jpg	100
606.047	0.847	847.3	repeat	Run1	repeat/STIM_000.jpg	100
610.036	0.865	865.1	repeat	Run1	repeat/STIM_000.jpg	99
614.491	0.667	667.0	repeat	Run1	repeat/STIM_000.jpg	99
617.366	0.559	559.4	repeat	Run1	repeat/STIM_000.jpg	99
620.242	0.751	751.3	repeat	Run1	repeat/STIM_000.jpg	100
623.501	0.609	609.4	repeat	Run1	repeat/STIM_001.jpg	99
627.857	0.464	463.5	repeat	Run1	repeat/STIM_001.jpg	99
630.859	0.658	658.3	repeat	Run1	repeat/STIM_001.jpg	99
634.506	0.857	856.6	repeat	Run1	repeat/STIM_001.jpg	100
637.666	0.831	831.2	repeat	Run1	repeat/STIM_001.jpg	99
641.966	0.577	577.0	repeat	Run1	repeat/STIM_002.jpg	99
645.616	0.491	491.1	repeat	Run1	repeat/STIM_002.jpg	99
648.377	0.66	660.3	repeat	Run1	repeat/STIM_002.jpg	99
651.303	0.554	553.8	repeat	Run1	repeat/STIM_002.jpg	99
654.707	0.607	606.7	repeat	Run1	repeat/STIM_002.jpg	100
659.132	0.768	767.7	repeat	Run1	repeat/STIM_003.jpg	100
663.121	0.896	896.2	repeat	Run1	repeat/STIM_003.jpg	100
667.736	0.91	910.2	repeat	Run1	repeat/STIM_003.jpg	99
671.505	0.713	713.4	repeat	Run1	repeat/STIM_003.jpg	100
675.949	0.635	635.2	repeat	Run1	repeat/STIM_003.jpg	99
678.97	0.603	603.1	repeat	Run1	repeat/STIM_004.jpg	99
683.159	0.688	688.2	repeat	Run1	repeat/STIM_004.jpg	100
685.986	0.536	535.8	repeat	Run1	repeat/STIM_004.jpg	100
689.561	0.6	600.2	repeat	Run1	repeat/STIM_004.jpg	100
692.728	0.752	752.3	repeat	Run1	repeat/STIM_004.jpg	99
697.248	0.618	618.1	repeat	Run1	repeat/STIM_005.jpg	100
701.147	0.87	869.5	repeat	Run1	repeat/STIM_005.jpg	99
705.763	0.732	732.4	repeat	Run1	repeat/STIM_005.jpg	100
709.378	0.875	874.6	repeat	Run1	repeat/STIM_005.jpg	100
713.099	0.486	486.0	repeat	Run1	repeat/STIM_005.jpg	99
715.724	0.644	644.1	repeat	Run1	repeat/STIM_006.jpg	99
719.589	0.876	876.2	repeat	Run1	repeat/STIM_006.jpg	100
723.262	0.88	879.7	repeat	Run1	repeat/STIM_006.jpg	100
726.83	0.404	404.4	repeat	Run1	repeat/STIM_006.jpg	99
730.201	0.489	488.7	repeat	Run1	repeat/STIM_006.jpg	100
734.2	0.602	601.7	repeat	Run1	repeat/STIM_007.jpg	99
737.207	0.7	700.1	repeat	Run1	repeat/STIM_007.jpg	99
741.201	0.643	642.6	repeat	Run1	repeat/STIM_007.jpg	99
744.493	0.785	785.3	repeat	Run1	repeat/STIM_007.jpg	99
748.918	0.586	586.2	repeat	Run1	repeat/STIM_007.jpg	99
751.648	0.71	710.3	repeat	Run1	repeat/STIM_008.jpg	100
756.239	0.426	425.6	repeat	Run1	repeat/STIM_008.jpg	100
760.721	0.494	494.5	repeat	Run1	repeat/STIM_008.jpg	99
763.388	0.544	543.6	repeat	Run1	repeat/STIM_008.jpg	100
766.459	0.695	694.7	repeat	Run1	repeat/STIM_008.jpg	100
769.532	0.612	612.5	repeat	Run1	repeat/STIM_009.jpg	99
773.95	0.554	554.1	repeat	Run1	repeat/STIM_009.jpg	100
776.534	0.376	375.7	repeat	Run1	repeat/STIM_009.jpg	100
781.011	0.701	700.6	repeat	Run1	repeat/STIM_009.jpg	100
784.336	0.61	609.6	repeat	Run1	repeat/STIM_009.jpg	99
787.537	0.518	517.7	repeat	Run1	repeat/STIM_010.jpg	99
790.81	0.621	621.0	repeat	Run1	repeat/STIM_010.jpg	99
794.388	0.54	539.7	repeat	Run1	repeat/STIM_010.jpg	100
798.653	0.652	651.8	repeat	Run1	repeat/STIM_010.jpg	99
803.407	0.661	660.9	repeat	Run1	repeat/STIM_010.jpg	99
806.143	0.765	765.3	repeat	Run1	repeat/STIM_011.jpg	99
809.284	0.69	689.5	repeat	Run1	repeat/STIM_011.jpg	99
813.298	0.563	562.9	repeat	Run1	repeat/STIM_011.jpg	100
816.397	0.529	528.6	repeat	Run1	repeat/STIM_011.jpg	99
819.959	0.656	655.5	repeat	Run1	repeat/STIM_011.jpg	100
824.444	0.5	499.7	repeat	Run1	repeat/STIM_012.jpg	99
827.641	0.675	675.1	repeat	Run1	repeat/STIM_012.jpg	99
832.01	0.582	581.6	repeat	Run1	repeat/STIM_012.jpg	99
836.621	0.564	564.5	repeat	Run1	repeat/STIM_012.jpg	99
840.962	0.419	419.3	repeat	Run1	repeat/STIM_012.jpg	100
843.818	0.701	701.0	repeat	Run1	repeat/STIM_013.jpg	99
847.326	0.546	545.7	repeat	Run1	repeat/STIM_013.jpg	99
851.681	0.561	561.4	repeat	Run1	repeat/STIM_013.jpg	99
854.913	0.503	502.6	repeat	Run1	repeat/STIM_013.jpg	99
859.424	0.671	670.9	repeat	Run1	repeat/STIM_013.jpg	100
862.81	0.874	874.1	repeat	Run1	repeat/STIM_014.jpg	99
867.359	0.812	812.2	repeat	Run1	repeat/STIM_014.jpg	100
870.688	0.469	468.6	repeat	Run1	repeat/STIM_014.jpg	100
873.239	0.688	688.2	repeat	Run1	repeat/STIM_014.jpg	100
877.811	0.744	744.4	repeat	Run1	repeat/STIM_014.jpg	99
881.93	1.17	1170.2	generate	Run2	generate/STIM_000.jpg	99
886.497	1.002	1001.7	generate	Run2	generate/STIM_000.jpg	99
891.206	1.285	1285.2	generate	Run2	generate/STIM_000.jpg	100
895.514	1.588	1588.4	generate	Run2	generate/STIM_000.jpg	100
899.919	0.807	807.1	generate	Run2	generate/STIM_000.jpg	99
904.492	0.889	888.6	generate	Run2	generate/STIM_001.jpg	99
909.257	1.912	1912.0	generate	Run2	generate/STIM_001.jpg	99
915.049	1.731	1731.2	generate	Run2	generate/STIM_001.jpg	100
920.22	1.754	1753.5	generate	Run2	generate/STIM_001.jpg	99
924.616	1.009	1009.0	generate	Run2	generate/STIM_001.jpg	100
928.89	2.095	2094.6	generate	Run2	generate/STIM_002.jpg	99
935.274	1.101	1101.4	generate	Run2	generate/STIM_002.jpg	99
940.538	1.087	1086.9	generate	Run2	generate/STIM_002.jpg	99
945.771	0.858	858.2	generate	Run2	generate/STIM_002.jpg	100
949.65	0.785	785.1	generate	Run2	generate/STIM_002.jpg	99
953.266	1.313	1313.0	generate	Run2	generate/STIM_003.jpg	99
957.279	1.246	1245.6	generate	Run2	generate/STIM_003.jpg	99
961.274	1.189	1188.8	generate	Run2	generate/STIM_003.jpg	99
964.868	1.208	1207.7	generate	Run2	generate/STIM_003.jpg	99
969.369	0.765	765.0	generate	Run2	generate/STIM_003.jpg	100
972.904	1.862	1862.5	generate	Run2	generate/STIM_004.jpg	99
978.309	1.343	1343.0	generate	Run2	generate/STIM_004.jpg	100
982.484	1.16	1159.7	generate	Run2	generate/STIM_004.jpg	99
986.936	1.487	1487.1	generate	Run2	generate/STIM_004.jpg	100
990.897	1.296	1295.9	generate	Run2	generate/STIM_004.jpg	99
995.01	1.524	1524.3	generate	Run2	generate/STIM_005.jpg	99
999.672	1.047	1047.1	generate	Run2	generate/STIM_005.jpg	99
1004.852	1.347	1347.3	generate	Run2	generate/STIM_005.jpg	100
1009.762	1.322	1322.2	generate	Run2	generate/STIM_005.jpg	100
1014.691	1.68	1679.9	generate	Run2	generate/STIM_005.jpg	100
1020.618	1.94	1940.5	generate	Run2	generate/STIM_006.jpg	100
1025.458	1.942	1942.0	generate	Run2	generate/STIM_006.jpg	100
1030.881	1.355	1354.8	generate	Run2	generate/STIM_006.jpg	99
1035.561	1.5	1500.2	generate	Run2	generate/STIM_006.jpg	99
1039.916	1.066	1065.5	generate	Run2	generate/STIM_006.jpg	100
1043.765	2.241	2241.1	generate	Run2	generate/STIM_007.jpg	99
1048.399	1.964	1963.9	generate	Run2	generate/STIM_007.jpg	99
1053.657	0.847	847.4	generate	Run2	generate/STIM_007.jpg	99
1058.664	1.45	1450.3	generate	Run2	generate/STIM_007.jpg	99
1063.159	0.929	928.7	generate	Run2	generate/STIM_007.jpg	99
1066.695	1.809	1808.6	generate	Run2	generate/STIM_008.jpg	99
1071.855	1.277	1277.1	generate	Run2	generate/STIM_008.jpg	100
1077.049	1.705	1704.7	generate	Run2	generate/STIM_008.jpg	100
1082.329	0.873	873.2	generate	Run2	generate/STIM_008.jpg	100
1085.576	1.013	1013.2	generate	Run2	generate/STIM_008.jpg	100
1089.463	1.871	1871.4	generate	Run2	generate/STIM_009.jpg	100
1093.811	1.893	1893.0	generate	Run2	generate/STIM_009.jpg	100
1099.198	1.753	1753.2	generate	Run2	generate/STIM_009.jpg	100
1104.265	1.507	1507.0	generate	Run2	generate/STIM_009.jpg	99
1109.215	1.051	1051.2	generate	Run2	generate/STIM_009.jpg	99
1113.616	1.264	1264.3	generate	Run2	generate/STIM_010.jpg	99
1118.467	1.495	1494.6	generate	Run2	generate/STIM_010.jpg	99
1123.242	0.961	961.4	generate	Run2	generate/STIM_010.jpg	100
1126.897	1.63	1630.2	generate	Run2	generate/STIM_010.jpg	100
1132.702	1.546	1546.5	generate	Run2	generate/STIM_010.jpg	100
1138.405	1.256	1255.7	generate	Run2	generate/STIM_011.jpg	99
1142.704	1.61	1609.6	generate	Run2	generate/STIM_011.jpg	99
1147.593	1.101	1101.4	generate	Run2	generate/STIM_011.jpg	99
1151.019	1.546	1546.1	generate	Run2	generate/STIM_011.jpg	99
1156.216	1.691	1690.7	generate	Run2	generate/STIM_011.jpg	99
1160.525	2.128	2128.4	generate	Run2	generate/STIM_012.jpg	99
1166.308	1.062	1062.4	generate	Run2	generate/STIM_012.jpg	100
1169.772	1.428	1428.3	generate	Run2	generate/STIM_012.jpg	99
1173.68	0.752	751.5	generate	Run2	generate/STIM_012.jpg	100
1177.762	1.147	1147.1	generate	Run2	generate/STIM_012.jpg	100
1181.77	0.949	949.3	generate	Run2	generate/STIM_013.jpg	99
1185.462	1.875	1875.2	generate	Run2	generate/STIM_013.jpg	100
1190.406	1.62	1619.6	generate	Run2	generate/STIM_013.jpg	100
1196.016	0.99	990.4	generate	Run2	generate/STIM_013.jpg	99
1199.98	0.773	772.6	generate	Run2	generate/STIM_013.jpg	99
1204.753	2.06	2060.4	generate	Run2	generate/STIM_014.jpg	99
1210.412	1.314	1314.0	generate	Run2	generate/STIM_014.jpg	100
1215.562	1.812	1812.5	generate	Run2	generate/STIM_014.jpg	100
1221.487	1.139	1139.4	generate	Run2	generate/STIM_014.jpg	99
1225.773	1.494	1494.5	generate	Run2	generate/STIM_014.jpg	100
1230.6	1.193	1192.8	generate	Run2	generate/STIM_015.jpg	100
1235.841	1.602	1602.4	generate	Run2	generate/STIM_015.jpg	99
1241.603	1.806	1806.0	generate	Run2	generate/STIM_015.jpg	100
1245.775	1.136	1135.7	generate	Run2	generate/STIM_015.jpg	100
1250.57	1.44	1439.5	generate	Run2	generate/STIM_015.jpg	100
1255.297	1.288	1288.5	generate	Run2	generate/STIM_016.jpg	99
1259.707	1.803	1802.7	generate	Run2	generate/STIM_016.jpg	99
1264.515	1.045	1045.0	generate	Run2	generate/STIM_016.jpg	99
1269.23	1.671	1671.2	generate	Run2	generate/STIM_016.jpg	99
1274.327	1.483	1482.8	generate	Run2	generate/STIM_016.jpg	99
1279.555	1.284	1284.1	generate	Run2	generate/STIM_017.jpg	99
1283.117	1.979	1978.8	generate	Run2	generate/STIM_017.jpg	100
1287.859	1.856	1856.4	generate	Run2	generate/STIM_017.jpg	99
1292.703	0.815	815.3	generate	Run2	generate/STIM_017.jpg	99
1296.211	1.609	1608.7	generate	Run2	generate/STIM_017.jpg	100
1302.088	1.467	1466.8	generate	Run2	generate/STIM_018.jpg	99
1306.984	1.884	1884.4	generate	Run2	generate/STIM_018.jpg	100
1312.801	1.039	1039.4	generate	Run2	generate/STIM_018.jpg	99
1317.802	1.16	1159.9	generate	Run2	generate/STIM_018.jpg	100
1322.409	1.316	1315.6	generate	Run2	generate/STIM_018.jpg	99
1326.437	1.11	1110.4	generate	Run2	generate/STIM_019.jpg	99
1330.854	1.076	1075.5	generate	Run2	generate/STIM_019.jpg	99
1334.89	1.884	1884.3	generate	Run2	generate/STIM_019.jpg	100
1339.474	0.968	968.0	generate	Run2	generate/STIM_019.jpg	99
1344.459	0.796	796.3	generate	Run2	generate/STIM_019.jpg	99
1348.995	2.004	2004.3	generate	Run2	generate/STIM_020.jpg	100
1354.594	2.05	2049.5	generate	Run2	generate/STIM_020.jpg	99
1359.132	1.785	1785.0	generate	Run2	generate/STIM_020.jpg	100
1364.289	1.41	1409.7	generate	Run2	generate/STIM_020.jpg	100
1368.901	1.035	1034.6	generate	Run2	generate/STIM_020.jpg	99
1373.1	1.24	1239.9	generate	Run2	generate/STIM_021.jpg	100
1378.386	1.48	1480.4	generate	Run2	generate/STIM_021.jpg	99
1382.522	1.725	1725.3	generate	Run2	generate/STIM_021.jpg	100
1388.432	0.922	922.3	generate	Run2	generate/STIM_021.jpg	99
1391.576	0.967	967.0	generate	Run2	generate/STIM_021.jpg	100
1396.523	1.673	1673.3	generate	Run2	generate/STIM_022.jpg	99
1400.892	1.65	1650.3	generate	Run2	generate/STIM_022.jpg	99
1404.897	1.227	1226.9	generate	Run2	generate/STIM_022.jpg	100
1410.154	1.043	1043.1	generate	Run2	generate/STIM_022.jpg	99
1414.377	1.527	1526.8	generate	Run2	generate/STIM_022.jpg	99
1418.407	1.403	1402.9	generate	Run2	generate/STIM_023.jpg	99
1423.706	1.374	1374.4	generate	Run2	generate/STIM_023.jpg	100
1429.16	1.539	1539.2	generate	Run2	generate/STIM_023.jpg	99
1433.001	0.81	809.8	generate	Run2	generate/STIM_023.jpg	100
1436.987	1.013	1012.7	generate	Run2	generate/STIM_023.jpg	100
1440.983	2.016	2016.1	generate	Run2	generate/STIM_024.jpg	99
1445.478	1.329	1329.0	generate	Run2	generate/STIM_024.jpg	99
1450.86	1.334	1334.2	generate	Run2	generate/STIM_024.jpg	99
1456.391	0.801	801.2	generate	Run2	generate/STIM_024.jpg	99
1459.659	1.357	1357.4	generate	Run2	generate/STIM_024.jpg	99
1463.718	0.588	588.5	repeat	Run2	repeat/STIM_000.jpg	99
1467.74	0.644	643.6	repeat	Run2	repeat/STIM_000.jpg	99
1471.884	0.632	631.6	repeat	Run2	repeat/STIM_000.jpg	99
1476.138	0.678	677.7	repeat	Run2	repeat/STIM_000.jpg	99
1479.605	0.698	697.7	repeat	Run2	repeat/STIM_000.jpg	100
1483.475	0.619	619.4	repeat	Run2	repeat/STIM_001.jpg	100
1487.272	0.668	667.9	repeat	Run2	repeat/STIM_001.jpg	100
1491.755	0.589	589.0	repeat	Run2	repeat/STIM_001.jpg	100
1495.052	0.565	565.1	repeat	Run2	repeat/STIM_001.jpg	100
1499.138	0.632	632.0	repeat	Run2	repeat/STIM_001.jpg	100
1502.992	0.431	430.9	repeat	Run2	repeat/STIM_002.jpg	100
1507.482	0.765	764.9	repeat	Run2	repeat/STIM_002.jpg	100
1512.11	0.54	539.5	repeat	Run2	repeat/STIM_002.jpg	99
1515.47	0.727	727.0	repeat	Run2	repeat/STIM_002.jpg	100
1519.824	0.701	700.7	repeat	Run2	repeat/STIM_002.jpg	99
1524.401	0.499	499.4	repeat	Run2	repeat/STIM_003.jpg	99
1528.808	0.689	689.3	repeat	Run2	repeat/STIM_003.jpg	100
1533.019	0.45	450.5	repeat	Run2	repeat/STIM_003.jpg	99
1536.537	0.318	318.1	repeat	Run2	repeat/STIM_003.jpg	100
1540.06	0.824	824.3	repeat	Run2	repeat/STIM_003.jpg	100
1543.346	0.7	699.8	repeat	Run2	repeat/STIM_004.jpg	99
1547.904	0.52	520.3	repeat	Run2	repeat/STIM_004.jpg	99
1551.742	0.589	588.7	repeat	Run2	repeat/STIM_004.jpg	99
1555.998	0.876	875.7	repeat	Run2	repeat/STIM_004.jpg	100
1560.376	0.614	614.5	repeat	Run2	repeat/STIM_004.jpg	99
1564.739	0.725	724.7	repeat	Run2	repeat/STIM_005.jpg	100
1567.778	0.611	611.3	repeat	Run2	repeat/STIM_005.jpg	100
1571.036	0.842	841.6	repeat	Run2	repeat/STIM_005.jpg	100
1574.155	0.82	820.2	repeat	Run2	repeat/STIM_005.jpg	100
1578.76	0.731	731.1	repeat	Run2	repeat/STIM_005.jpg	99
1581.634	0.748	747.9	repeat	Run2	repeat/STIM_006.jpg	99
1585.361	0.489	489.1	repeat	Run2	repeat/STIM_006.jpg	100
1589.01	0.526	526.3	repeat	Run2	repeat/STIM_006.jpg	99
1592.874	0.673	673.1	repeat	Run2	repeat/STIM_006.jpg	100
1595.945	0.744	743.5	repeat	Run2	repeat/STIM_006.jpg	100
1599.436	0.561	560.8	repeat	Run2	repeat/STIM_007.jpg	99
1602.893	0.742	742.1	repeat	Run2	repeat/STIM_007.jpg	99
1607.36	0.683	682.9	repeat	Run2	repeat/STIM_007.jpg	99
1610.798	0.812	812.1	repeat	Run2	repeat/STIM_007.jpg	99
1614.791	0.58	580.5	repeat	Run2	repeat/STIM_007.jpg	99
1617.835	0.515	514.6	repeat	Run2	repeat/STIM_008.jpg	99
1622.12	0.747	746.9	repeat	Run2	repeat/STIM_008.jpg	100
1625.368	0.631	631.3	repeat	Run2	repeat/STIM_008.jpg	99
1629.173	0.602	602.2	repeat	Run2	repeat/STIM_008.jpg	100
1633.904	0.784	783.9	repeat	Run2	repeat/STIM_008.jpg	99
1638.614	0.84	840.3	repeat	Run2	repeat/STIM_009.jpg	100
1642.205	0.522	522.2	repeat	Run2	repeat/STIM_009.jpg	100
1646.634	0.583	583.0	repeat	Run2	repeat/STIM_009.jpg	100
1649.561	0.739	739.2	repeat	Run2	repeat/STIM_009.jpg	100
1653.413	0.527	527.4	repeat	Run2	repeat/STIM_009.jpg	100
1656.97	0.803	802.7	repeat	Run2	repeat/STIM_010.jpg	99
1660.993	0.51	510.4	repeat	Run2	repeat/STIM_010.jpg	99
1665.204	0.733	732.6	repeat	Run2	repeat/STIM_010.jpg	100
1669.968	0.754	754.4	repeat	Run2	repeat/STIM_010.jpg	100
1674.391	0.727	726.8	repeat	Run2	repeat/STIM_010.jpg	100
1678.758	0.533	532.9	repeat	Run2	repeat/STIM_011.jpg	99
1681.433	0.757	757.0	repeat	Run2	repeat/STIM_011.jpg	99
1686.026	0.894	894.2	repeat	Run2	repeat/STIM_011.jpg	99
1690.546	0.727	726.8	repeat	Run2	repeat/STIM_011.jpg	99
1694.472	0.728	727.6	repeat	Run2	repeat/STIM_011.jpg	100
1698.608	0.585	585.4	repeat	Run2	repeat/STIM_012.jpg	99
1702.182	0.695	694.9	repeat	Run2	repeat/STIM_012.jpg	99
1706.063	0.816	816.4	repeat	Run2	repeat/STIM_012.jpg	99
1709.673	0.497	496.9	repeat	Run2	repeat/STIM_012.jpg	100
1713.662	0.582	581.8	repeat	Run2	repeat/STIM_012.jpg	100
1716.585	0.478	478.3	repeat	Run2	repeat/STIM_013.jpg	100
1719.317	0.864	863.5	repeat	Run2	repeat/STIM_013.jpg	100
1723.226	0.888	888.1	repeat	Run2	repeat/STIM_013.jpg	99
1727.17	0.74	740.5	repeat	Run2	repeat/STIM_013.jpg	100
1730.332	0.416	415.6	repeat	Run2	repeat/STIM_013.jpg	99
1734.677	0.551	550.6	repeat	Run2	repeat/STIM_014.jpg	99
1737.939	0.729	728.8	repeat	Run2	repeat/STIM_014.jpg	99
1742.254	0.901	901.2	repeat	Run2	repeat/STIM_014.jpg	100
1747.046	0.798	797.6	repeat	Run2	repeat/STIM_014.jpg	100
1750.885	0.501	500.6	repeat	Run2	repeat/STIM_014.jpg	99
1755.286	1.076	1076.5	generate	Run3	generate/STIM_000.jpg	100
1760.354	1.754	1753.6	generate	Run3	generate/STIM_000.jpg	100
1764.864	1.71	1710.1	generate	Run3	generate/STIM_000.jpg	100
1770.295	1.413	1413.1	generate	Run3	generate/STIM_000.jpg	100
1775.286	1.281	1280.8	generate	Run3	generate/STIM_000.jpg	100
1779.501	1.092	1091.8	generate	Run3	generate/STIM_001.jpg	99
1784.106	0.953	952.7	generate	Run3	generate/STIM_001.jpg	99
1787.548	0.954	953.9	generate	Run3	generate/STIM_001.jpg	100
1791.186	0.845	844.8	generate	Run3	generate/STIM_001.jpg	99
1795.01	0.774	774.2	generate	Run3	generate/STIM_001.jpg	100
1799.657	1.617	1617.3	generate	Run3	generate/STIM_002.jpg	100
1803.959	1.058	1057.8	generate	Run3	generate/STIM_002.jpg	100
1807.126	0.903	903.0	generate	Run3	generate/STIM_002.jpg	99
1811.639	0.837	837.2	generate	Run3	generate/STIM_002.jpg	99
1815.896	1.64	1639.8	generate	Run3	generate/STIM_002.jpg	99
1821.34	1.739	1739.3	generate	Run3	generate/STIM_003.jpg	100
1826.376	0.922	921.6	generate	Run3	generate/STIM_003.jpg	100
1831.053	1.386	1386.3	generate	Run3	generate/STIM_003.jpg	100
1836.557	1.383	1383.4	generate	Run3	generate/STIM_003.jpg	100
1841.17	1.599	1599.2	generate	Run3	generate/STIM_003.jpg	99
1846.451	1.11	1110.1	generate	Run3	generate/STIM_004.jpg	100
1849.733	0.949	949.2	generate	Run3	generate/STIM_004.jpg	99
1853.662	0.768	768.1	generate	Run3	generate/STIM_004.jpg	99
1856.593	1.665	1664.9	generate	Run3	generate/STIM_004.jpg	100
1860.589	0.882	881.8	generate	Run3	generate/STIM_004.jpg	100
1863.709	0.816	816.3	generate	Run3	generate/STIM_005.jpg	99
1867.682	1.552	1552.2	generate	Run3	generate/STIM_005.jpg	100
1872.644	1.514	1513.6	generate	Run3	generate/STIM_005.jpg	100
1877.556	1.001	1001.1	generate	Run3	generate/STIM_005.jpg	100
1881.545	1.596	1596.0	generate	Run3	generate/STIM_005.jpg	100
1886.899	1.425	1424.7	generate	Run3	generate/STIM_006.jpg	100
1892.577	0.808	808.4	generate	Run3	generate/STIM_006.jpg	99
1897.498	1.486	1486.5	generate	Run3	generate/STIM_006.jpg	100
1902.692	1.09	1089.9	generate	Run3	generate/STIM_006.jpg	99
1906.484	1.028	1028.2	generate	Run3	generate/STIM_006.jpg	100
1910.429	1.363	1363.4	generate	Run3	generate/STIM_007.jpg	99
1915.102	1.631	1630.9	generate	Run3	generate/STIM_007.jpg	99
1920.082	1.376	1375.6	generate	Run3	generate/STIM_007.jpg	99
1924.437	1.586	1586.3	generate	Run3	generate/STIM_007.jpg	99
1928.583	1.701	1700.9	generate	Run3	generate/STIM_007.jpg	100
1933.524	1.574	1573.6	generate	Run3	generate/STIM_008.jpg	100
1938.565	0.92	920.3	generate	Run3	generate/STIM_008.jpg	100
1942.65	1.782	1781.9	generate	Run3	generate/STIM_008.jpg	99
1948.086	0.852	852.0	generate	Run3	generate/STIM_008.jpg	99
1951.743	1.607	1607.4	generate	Run3	generate/STIM_008.jpg	100
1957.366	1.132	1132.5	generate	Run3	generate/STIM_009.jpg	100
1960.899	0.933	933.2	generate	Run3	generate/STIM_009.jpg	99
1964.58	0.722	722.5	generate	Run3	generate/STIM_009.jpg	99
1967.527	1.021	1020.7	generate	Run3	generate/STIM_009.jpg	99
1971.515	1.203	1202.7	generate	Run3	generate/STIM_009.jpg	99
1975.723	0.822	821.8	generate	Run3	generate/STIM_010.jpg	99
1979.279	1.764	1763.6	generate	Run3	generate/STIM_010.jpg	100
1984.749	1.417	1417.3	generate	Run3	generate/STIM_010.jpg	99
1990.373	0.837	836.6	generate	Run3	generate/STIM_010.jpg	99
1993.82	1.537	1537.2	generate	Run3	generate/STIM_010.jpg	99
1999.35	1.141	1140.6	generate	Run3	generate/STIM_011.jpg	100
2004.172	0.754	754.5	generate	Run3	generate/STIM_011.jpg	100
2008.826	1.517	1516.9	generate	Run3	generate/STIM_011.jpg	99
2014.507	1.416	1416.4	generate	Run3	generate/STIM_011.jpg	100
2018.944	1.652	1651.9	generate	Run3	generate/STIM_011.jpg	99
2023.461	1.593	1592.6	generate	Run3	generate/STIM_012.jpg	100
2028.952	1.716	1716.3	generate	Run3	generate/STIM_012.jpg	99
2034.832	0.852	852.4	generate	Run3	generate/STIM_012.jpg	100
2039.257	1.696	1695.7	generate	Run3	generate/STIM_012.jpg	100
2043.946	1.601	1601.4	generate	Run3	generate/STIM_012.jpg	100
2048.386	1.209	1208.6	generate	Run3	generate/STIM_013.jpg	100
2052.15	1.6	1600.0	generate	Run3	generate/STIM_013.jpg	100
2057.466	0.894	894.3	generate	Run3	generate/STIM_013.jpg	100
2061.971	1.53	1530.1	generate	Run3	generate/STIM_013.jpg	99
2066.231	0.945	945.0	generate	Run3	generate/STIM_013.jpg	100
2070.456	0.865	865.2	generate	Run3	generate/STIM_014.jpg	99
2074.186	1.691	1691.2	generate	Run3	generate/STIM_014.jpg	100
2079.247	1.808	1807.5	generate	Run3	generate/STIM_014.jpg	100
2083.367	1.112	1111.8	generate	Run3	generate/STIM_014.jpg	99
2087.729	1.469	1468.6	generate	Run3	generate/STIM_014.jpg	99
2093.208	0.835	834.8	generate	Run3	generate/STIM_015.jpg	100
2098.0	1.278	1278.3	generate	Run3	generate/STIM_015.jpg	99
2103.321	0.736	735.7	generate	Run3	generate/STIM_015.jpg	100
2106.388	0.72	719.5	generate	Run3	generate/STIM_015.jpg	100
2109.909	0.972	972.5	generate	Run3	generate/STIM_015.jpg	100
2114.902	1.163	1162.6	generate	Run3	generate/STIM_016.jpg	100
2119.208	1.783	1782.8	generate	Run3	generate/STIM_016.jpg	100
2124.424	0.854	853.8	generate	Run3	generate/STIM_016.jpg	100
2128.969	1.512	1512.2	generate	Run3	generate/STIM_016.jpg	99
2133.796	1.388	1388.1	generate	Run3	generate/STIM_016.jpg	100
2138.267	1.175	1174.6	generate	Run3	generate/STIM_017.jpg	100
2142.259	1.339	1338.8	generate	Run3	generate/STIM_017.jpg	99
2146.415	1.143	1142.7	generate	Run3	generate/STIM_017.jpg	99
2149.864	1.556	1556.0	generate	Run3	generate/STIM_017.jpg	100
2155.122	1.075	1074.8	generate	Run3	generate/STIM_017.jpg	100
2159.935	1.386	1386.0	generate	Run3	generate/STIM_018.jpg	100
2163.774	0.852	852.2	generate	Run3	generate/STIM_018.jpg	99
2167.07	0.885	884.6	generate	Run3	generate/STIM_018.jpg	99
2171.455	1.331	1331.4	generate	Run3	generate/STIM_018.jpg	100
2176.111	0.782	782.5	generate	Run3	generate/STIM_018.jpg	100
2180.819	1.79	1790.3	generate	Run3	generate/STIM_019.jpg	100
2185.38	0.685	685.4	generate	Run3	generate/STIM_019.jpg	100
2188.807	1.528	1528.3	generate	Run3	generate/STIM_019.jpg	100
2192.738	1.804	1803.7	generate	Run3	generate/STIM_019.jpg	100
2197.619	0.947	946.9	generate	Run3	generate/STIM_019.jpg	99
2202.417	1.056	1055.6	generate	Run3	generate/STIM_020.jpg	100
2207.447	1.092	1092.4	generate	Run3	generate/STIM_020.jpg	100
2212.216	1.678	1678.1	generate	Run3	generate/STIM_020.jpg	100
2216.776	1.766	1765.9	generate	Run3	generate/STIM_020.jpg	99
2220.833	1.228	1228.1	generate	Run3	generate/STIM_020.jpg	100
2226.043	1.053	1053.2	generate	Run3	generate/STIM_021.jpg	99
2230.347	0.829	829.2	generate	Run3	generate/STIM_021.jpg	99
2235.047	0.976	975.7	generate	Run3	generate/STIM_021.jpg	99
2239.535	0.925	925.1	generate	Run3	generate/STIM_021.jpg	99
2242.97	1.724	1724.5	generate	Run3	generate/STIM_021.jpg	99
2247.151	0.962	961.9	generate	Run3	generate/STIM_022.jpg	99
2250.446	1.574	1573.7	generate	Run3	generate/STIM_022.jpg	99
2254.846	0.858	857.5	generate	Run3	generate/STIM_022.jpg	100
2259.009	1.434	1433.6	generate	Run3	generate/STIM_022.jpg	99
2264.41	1.676	1675.7	generate	Run3	generate/STIM_022.jpg	100
2269.704	1.46	1459.6	generate	Run3	generate/STIM_023.jpg	100
2274.675	0.938	938.2	generate	Run3	generate/STIM_023.jpg	99
2278.769	1.255	1255.4	generate	Run3	generate/STIM_023.jpg	100
2282.503	1.606	1605.8	generate	Run3	generate/STIM_023.jpg	100
2287.359	1.038	1037.8	generate	Run3	generate/STIM_023.jpg	99
2290.615	1.273	1272.8	generate	Run3	generate/STIM_024.jpg	99
2295.968	1.0	999.5	generate	Run3	generate/STIM_024.jpg	100
2299.563	1.234	1234.5	generate	Run3	generate/STIM_024.jpg	99
2303.419	0.962	961.8	generate	Run3	generate/STIM_024.jpg	100
2308.204	0.95	950.3	generate	Run3	generate/STIM_024.jpg	100
2312.688	0.905	904.9	repeat	Run3	repeat/STIM_000.jpg	99
2315.952	0.43	430.3	repeat	Run3	repeat/STIM_000.jpg	100
2319.636	0.396	396.2	repeat	Run3	repeat/STIM_000.jpg	99
2323.567	0.825	824.9	repeat	Run3	repeat/STIM_000.jpg	99
2327.764	0.512	512.2	repeat	Run3	repeat/STIM_000.jpg	100
2330.543	0.622	621.7	repeat	Run3	repeat/STIM_001.jpg	99
2333.47	0.792	792.3	repeat	Run3	repeat/STIM_001.jpg	99
2336.792	0.648	647.7	repeat	Run3	repeat/STIM_001.jpg	100
2339.834	0.691	691.2	repeat	Run3	repeat/STIM_001.jpg	99
2342.764	0.732	732.5	repeat	Run3	repeat/STIM_001.jpg	100
2345.765	0.774	773.7	repeat	Run3	repeat/STIM_002.jpg	99
2349.502	0.818	818.1	repeat	Run3	repeat/STIM_002.jpg	100
2352.53	0.509	509.4	repeat	Run3	repeat/STIM_002.jpg	100
2355.606	0.515	515.2	repeat	Run3	repeat/STIM_002.jpg	100
2358.297	0.536	536.4	repeat	Run3	repeat/STIM_002.jpg	99
2361.281	0.511	511.1	repeat	Run3	repeat/STIM_003.jpg	100
2364.563	0.6	599.7	repeat	Run3	repeat/STIM_003.jpg	100
2368.975	0.798	798.1	repeat	Run3	repeat/STIM_003.jpg	99
2373.546	0.815	814.9	repeat	Run3	repeat/STIM_003.jpg	99
2376.832	0.638	638.3	repeat	Run3	repeat/STIM_003.jpg	100
2381.298	0.428	428.0	repeat	Run3	repeat/STIM_004.jpg	99
2384.274	0.603	603.0	repeat	Run3	repeat/STIM_004.jpg	99
2388.206	0.882	881.7	repeat	Run3	repeat/STIM_004.jpg	99
2391.812	0.727	727.4	repeat	Run3	repeat/STIM_004.jpg	99
2396.71	0.805	805.2	repeat	Run3	repeat/STIM_004.jpg	99
2400.746	0.425	425.0	repeat	Run3	repeat/STIM_005.jpg	100
2404.751	0.706	706.3	repeat	Run3	repeat/STIM_005.jpg	100
2408.496	0.72	720.3	repeat	Run3	repeat/STIM_005.jpg	99
2412.366	0.616	616.4	repeat	Run3	repeat/STIM_005.jpg	99
2417.153	0.744	743.8	repeat	Run3	repeat/STIM_005.jpg	100
2420.925	0.631	631.0	repeat	Run3	repeat/STIM_006.jpg	100
2423.809	0.596	596.3	repeat	Run3	repeat/STIM_006.jpg	100
2428.183	0.803	802.6	repeat	Run3	repeat/STIM_006.jpg	99
2431.803	0.67	669.9	repeat	Run3	repeat/STIM_006.jpg	100
2435.66	0.683	682.9	repeat	Run3	repeat/STIM_006.jpg	100
2438.896	0.745	744.6	repeat	Run3	repeat/STIM_007.jpg	99
2442.815	0.483	482.7	repeat	Run3	repeat/STIM_007.jpg	99
2446.195	0.506	506.2	repeat	Run3	repeat/STIM_007.jpg	100
2448.893	0.648	647.7	repeat	Run3	repeat/STIM_007.jpg	100
2452.443	0.732	732.0	repeat	Run3	repeat/STIM_007.jpg	100
2456.324	0.762	761.5	repeat	Run3	repeat/STIM_008.jpg	100
2460.608	0.409	408.9	repeat	Run3	repeat/STIM_008.jpg	99
2464.738	0.634	633.8	repeat	Run3	repeat/STIM_008.jpg	100
2467.888	0.607	607.2	repeat	Run3	repeat/STIM_008.jpg	99
2471.79	0.516	516.5	repeat	Run3	repeat/STIM_008.jpg	99
2476.04	0.502	502.4	repeat	Run3	repeat/STIM_009.jpg	100
2478.852	0.52	520.5	repeat	Run3	repeat/STIM_009.jpg	99
2483.086	0.755	754.9	repeat	Run3	repeat/STIM_009.jpg	99
2487.375	0.798	797.7	repeat	Run3	repeat/STIM_009.jpg	100
2491.029	0.741	741.2	repeat	Run3	repeat/STIM_009.jpg	100
2494.379	0.478	477.9	repeat	Run3	repeat/STIM_010.jpg	99
2497.658	0.486	486.1	repeat	Run3	repeat/STIM_010.jpg	100
2500.975	0.724	723.5	repeat	Run3	repeat/STIM_010.jpg	99
2505.196	0.656	656.0	repeat	Run3	repeat/STIM_010.jpg	99
2508.089	0.652	651.9	repeat	Run3	repeat/STIM_010.jpg	100
2511.511	0.452	451.9	repeat	Run3	repeat/STIM_011.jpg	100
2516.002	0.44	439.5	repeat	Run3	repeat/STIM_011.jpg	100
2519.241	0.85	850.4	repeat	Run3	repeat/STIM_011.jpg	99
2523.376	0.513	513.4	repeat	Run3	repeat/STIM_011.jpg	99
2528.03	0.619	619.2	repeat	Run3	repeat/STIM_011.jpg	100
2531.196	0.702	701.7	repeat	Run3	repeat/STIM_012.jpg	99
2535.421	0.6	599.9	repeat	Run3	repeat/STIM_012.jpg	99
2538.867	0.595	594.9	repeat	Run3	repeat/STIM_012.jpg	99
2542.321	0.613	613.0	repeat	Run3	repeat/STIM_012.jpg	99
2545.173	0.479	479.0	repeat	Run3	repeat/STIM_012.jpg	100
2549.231	0.664	664.5	repeat	Run3	repeat/STIM_013.jpg	99
2553.281	0.546	545.6	repeat	Run3	repeat/STIM_013.jpg	100
2557.51	0.592	592.3	repeat	Run3	repeat/STIM_013.jpg	99
2561.642	0.631	630.9	repeat	Run3	repeat/STIM_013.jpg	100
2564.994	0.635	635.1	repeat	Run3	repeat/STIM_013.jpg	100
2567.971	0.927	926.9	repeat	Run3	repeat/STIM_014.jpg	100
2572.567	0.591	591.0	repeat	Run3	repeat/STIM_014.jpg	100
2576.273	0.498	497.7	repeat	Run3	repeat/STIM_014.jpg	100
2580.475	0.621	621.3	repeat	Run3	repeat/STIM_014.jpg	100
2584.097	0.784	784.3	repeat	Run3	repeat/STIM_014.jpg	99
2588.942	1.725	1724.8	generate	Run4	generate/STIM_000.jpg	99
2593.952	1.336	1335.9	generate	Run4	generate/STIM_000.jpg	99
2599.001	0.677	676.6	generate	Run4	generate/STIM_000.jpg	100
2602.044	1.667	1667.2	generate	Run4	generate/STIM_000.jpg	100
2607.893	1.121	1120.9	generate	Run4	generate/STIM_000.jpg	100
2611.495	1.779	1779.1	generate	Run4	generate/STIM_001.jpg	100
2615.748	1.213	1212.8	generate	Run4	generate/STIM_001.jpg	100
2620.097	1.249	1249.4	generate	Run4	generate/STIM_001.jpg	99
2625.2	0.807	807.1	generate	Run4	generate/STIM_001.jpg	100
2629.977	1.169	1168.9	generate	Run4	generate/STIM_001.jpg	100
2633.831	0.872	872.5	generate	Run4	generate/STIM_002.jpg	100
2638.786	0.752	752.2	generate	Run4	generate/STIM_002.jpg	99
2642.57	0.694	694.1	generate	Run4	generate/STIM_002.jpg	99
2645.604	1.747	1746.9	generate	Run4	generate/STIM_002.jpg	99
2650.005	1.586	1586.5	generate	Run4	generate/STIM_002.jpg	100
2654.429	1.441	1440.8	generate	Run4	generate/STIM_003.jpg	99
2658.289	1.436	1436.4	generate	Run4	generate/STIM_003.jpg	99
2663.313	1.098	1098.3	generate	Run4	generate/STIM_003.jpg	99
2666.755	0.763	763.0	generate	Run4	generate/STIM_003.jpg	100
2671.251	0.982	982.3	generate	Run4	generate/STIM_003.jpg	99
2674.397	0.758	757.5	generate	Run4	generate/STIM_004.jpg	100
2678.69	1.077	1077.3	generate	Run4	generate/STIM_004.jpg	99
2683.34	1.265	1264.7	generate	Run4	generate/STIM_004.jpg	99
2688.008	0.926	925.8	generate	Run4	generate/STIM_004.jpg	99
2691.21	0.912	912.3	generate	Run4	generate/STIM_004.jpg	99
2694.771	1.735	1735.1	generate	Run4	generate/STIM_005.jpg	100
2699.435	0.885	884.8	generate	Run4	generate/STIM_005.jpg	99
2703.735	1.5	1500.3	generate	Run4	generate/STIM_005.jpg	100
2708.319	1.004	1004.4	generate	Run4	generate/STIM_005.jpg	99
2713.307	1.485	1484.9	generate	Run4	generate/STIM_005.jpg	100
2717.868	0.895	894.9	generate	Run4	generate/STIM_006.jpg	99
2722.257	0.786	786.4	generate	Run4	generate/STIM_006.jpg	100
2725.756	1.243	1243.1	generate	Run4	generate/STIM_006.jpg	100
2729.609	1.407	1406.7	generate	Run4	generate/STIM_006.jpg	99
2735.001	1.032	1032.2	generate	Run4	generate/STIM_006.jpg	100
2740.009	1.164	1164.5	generate	Run4	generate/STIM_007.jpg	100
2743.828	1.618	1617.6	generate	Run4	generate/STIM_007.jpg	99
2748.944	1.794	1793.6	generate	Run4	generate/STIM_007.jpg	99
2753.901	1.538	1537.6	generate	Run4	generate/STIM_007.jpg	99
2758.96	1.806	1805.8	generate	Run4	generate/STIM_007.jpg	99
2763.839	1.15	1150.4	generate	Run4	generate/STIM_008.jpg	100
2767.603	1.255	1255.3	generate	Run4	generate/STIM_008.jpg	99
2772.473	1.176	1176.1	generate	Run4	generate/STIM_008.jpg	100
2776.938	1.468	1468.1	generate	Run4	generate/STIM_008.jpg	100
2781.778	1.652	1651.5	generate	Run4	generate/STIM_008.jpg	100
2787.208	1.592	1592.0	generate	Run4	generate/STIM_009.jpg	100
2791.454	1.234	1233.5	generate	Run4	generate/STIM_009.jpg	100
2795.095	1.596	1595.6	generate	Run4	generate/STIM_009.jpg	99
2798.888	1.74	1739.6	generate	Run4	generate/STIM_009.jpg	99
2804.367	0.901	901.2	generate	Run4	generate/STIM_009.jpg	100
2808.734	1.256	1255.7	generate	Run4	generate/STIM_010.jpg	100
2813.116	1.596	1595.5	generate	Run4	generate/STIM_010.jpg	100
2818.995	1.054	1053.8	generate	Run4	generate/STIM_010.jpg	99
2822.71	1.083	1082.6	generate	Run4	generate/STIM_010.jpg	100
2826.852	1.644	1643.7	generate	Run4	generate/STIM_010.jpg	100
2831.508	1.575	1574.9	generate	Run4	generate/STIM_011.jpg	99
2835.766	1.139	1138.7	generate	Run4	generate/STIM_011.jpg	100
2840.983	0.915	914.9	generate	Run4	generate/STIM_011.jpg	99
2844.169	1.61	1609.7	generate	Run4	generate/STIM_011.jpg	100
2849.676	1.253	1252.8	generate	Run4	generate/STIM_011.jpg	100
2854.292	0.96	959.5	generate	Run4	generate/STIM_012.jpg	99
2857.945	1.503	1503.4	generate	Run4	generate/STIM_012.jpg	99
2862.184	1.448	1448.1	generate	Run4	generate/STIM_012.jpg	100
2867.524	1.676	1676.2	generate	Run4	generate/STIM_012.jpg	100
2871.76	0.767	766.9	generate	Run4	generate/STIM_012.jpg	100
2876.502	1.171	1170.9	generate	Run4	generate/STIM_013.jpg	100
2881.166	1.206	1206.1	generate	Run4	generate/STIM_013.jpg	99
2886.219	1.215	1215.1	generate	Run4	generate/STIM_013.jpg	100
2890.509	0.99	989.7	generate	Run4	generate/STIM_013.jpg	100
2894.579	1.601	1601.2	generate	Run4	generate/STIM_013.jpg	100
2899.739	1.662	1661.7	generate	Run4	generate/STIM_014.jpg	99
2905.405	1.756	1756.4	generate	Run4	generate/STIM_014.jpg	99
2910.462	0.813	813.0	generate	Run4	generate/STIM_014.jpg	100
2913.903	1.801	1800.8	generate	Run4	generate/STIM_014.jpg	99
2918.78	1.519	1519.4	generate	Run4	generate/STIM_014.jpg	99
2924.249	0.987	986.7	generate	Run4	generate/STIM_015.jpg	100
2928.811	0.826	825.7	generate	Run4	generate/STIM_015.jpg	100
2933.532	0.874	873.6	generate	Run4	generate/STIM_015.jpg	100
2936.847	1.222	1222.2	generate	Run4	generate/STIM_015.jpg	100
2941.663	0.995	995.4	generate	Run4	generate/STIM_015.jpg	99
2945.978	1.603	1602.7	generate	Run4	generate/STIM_016.jpg	99
2950.258	0.916	916.5	generate	Run4	generate/STIM_016.jpg	99
2954.141	1.644	1643.5	generate	Run4	generate/STIM_016.jpg	100
2958.184	1.388	1388.1	generate	Run4	generate/STIM_016.jpg	100
2961.961	0.95	949.6	generate	Run4	generate/STIM_016.jpg	100
2966.497	0.992	992.0	generate	Run4	generate/STIM_017.jpg	100
2970.696	1.515	1515.0	generate	Run4	generate/STIM_017.jpg	99
2974.747	1.444	1444.5	generate	Run4	generate/STIM_017.jpg	99
2979.112	0.902	902.2	generate	Run4	generate/STIM_017.jpg	99
2982.794	0.93	930.5	generate	Run4	generate/STIM_017.jpg	100
2986.976	0.878	878.2	generate	Run4	generate/STIM_018.jpg	100
2990.792	1.332	1332.0	generate	Run4	generate/STIM_018.jpg	99
2994.543	1.563	1562.6	generate	Run4	generate/STIM_018.jpg	100
3000.115	1.508	1508.0	generate	Run4	generate/STIM_018.jpg	99
3005.834	1.166	1165.6	generate	Run4	generate/STIM_018.jpg	99
3010.195	1.169	1169.2	generate	Run4	generate/STIM_019.jpg	99
3013.653	1.666	1665.9	generate	Run4	generate/STIM_019.jpg	100
3019.654	1.373	1372.7	generate	Run4	generate/STIM_019.jpg	99
3024.907	1.62	1620.1	generate	Run4	generate/STIM_019.jpg	99
3029.922	1.03	1030.0	generate	Run4	generate/STIM_019.jpg	100
3033.288	1.136	1135.5	generate	Run4	generate/STIM_020.jpg	100
3036.703	1.518	1517.5	generate	Run4	generate/STIM_020.jpg	100
3042.017	1.72	1720.3	generate	Run4	generate/STIM_020.jpg	100
3047.663	1.303	1303.0	generate	Run4	generate/STIM_020.jpg	99
3051.475	1.631	1631.0	generate	Run4	generate/STIM_020.jpg	99
3056.089	1.094	1094.3	generate	Run4	generate/STIM_021.jpg	99
3060.402	1.253	1253.0	generate	Run4	generate/STIM_021.jpg	99
3064.752	1.414	1413.9	generate	Run4	generate/STIM_021.jpg	99
3069.754	1.468	1468.5	generate	Run4	generate/STIM_021.jpg	99
3075.542	1.506	1506.4	generate	Run4	generate/STIM_021.jpg	99
3080.679	1.034	1034.4	generate	Run4	generate/STIM_022.jpg	100
3084.668	1.022	1022.2	generate	Run4	generate/STIM_022.jpg	100
3089.42	1.221	1220.6	generate	Run4	generate/STIM_022.jpg	99
3094.476	1.631	1631.4	generate	Run4	generate/STIM_022.jpg	100
3099.07	1.206	1205.8	generate	Run4	generate/STIM_022.jpg	100
3102.724	1.469	1468.6	generate	Run4	generate/STIM_023.jpg	100
3107.739	1.739	1739.3	generate	Run4	generate/STIM_023.jpg	100
3111.895	1.27	1269.8	generate	Run4	generate/STIM_023.jpg	100
3116.883	1.789	1789.3	generate	Run4	generate/STIM_023.jpg	99
3121.772	0.816	816.2	generate	Run4	generate/STIM_023.jpg	100
3125.554	1.192	1191.7	generate	Run4	generate/STIM_024.jpg	100
3129.407	0.712	711.7	generate	Run4	generate/STIM_024.jpg	100
3132.787	1.638	1637.7	generate	Run4	generate/STIM_024.jpg	99
3137.942	1.784	1784.3	generate	Run4	generate/STIM_024.jpg	100
3143.882	0.791	791.1	generate	Run4	generate/STIM_024.jpg	100
3148.412	0.548	547.8	repeat	Run4	repeat/STIM_000.jpg	100
3151.395	0.585	585.3	repeat	Run4	repeat/STIM_000.jpg	99
3155.655	0.621	621.1	repeat	Run4	repeat/STIM_000.jpg	99
3159.421	0.47	469.6	repeat	Run4	repeat/STIM_000.jpg	99
3162.376	0.81	810.1	repeat	Run4	repeat/STIM_000.jpg	100
3166.096	0.73	730.3	repeat	Run4	repeat/STIM_001.jpg	99
3169.335	0.563	563.1	repeat	Run4	repeat/STIM_001.jpg	99
3172.257	0.581	581.2	repeat	Run4	repeat/STIM_001.jpg	100
3175.673	0.611	610.9	repeat	Run4	repeat/STIM_001.jpg	100
3179.877	0.486	485.7	repeat	Run4	repeat/STIM_001.jpg	99
3182.76	0.684	683.9	repeat	Run4	repeat/STIM_002.jpg	99
3187.144	0.666	666.0	repeat	Run4	repeat/STIM_002.jpg	99
3190.036	0.773	772.7	repeat	Run4	repeat/STIM_002.jpg	100
3193.781	0.593	593.4	repeat	Run4	repeat/STIM_002.jpg	99
3198.138	0.417	417.4	repeat	Run4	repeat/STIM_002.jpg	99
3201.023	0.635	635.1	repeat	Run4	repeat/STIM_003.jpg	99
3204.419	0.759	759.3	repeat	Run4	repeat/STIM_003.jpg	99
3208.571	0.346	346.5	repeat	Run4	repeat/STIM_003.jpg	99
3212.953	0.597	596.9	repeat	Run4	repeat/STIM_003.jpg	99
3215.946	0.688	687.9	repeat	Run4	repeat/STIM_003.jpg	99
3219.988	0.563	562.6	repeat	Run4	repeat/STIM_004.jpg	99
3223.204	0.472	471.6	repeat	Run4	repeat/STIM_004.jpg	100
3226.857	0.787	787.0	repeat	Run4	repeat/STIM_004.jpg	99
3230.572	0.557	556.9	repeat	Run4	repeat/STIM_004.jpg	100
3235.018	0.623	622.7	repeat	Run4	repeat/STIM_004.jpg	100
3238.681	0.636	635.6	repeat	Run4	repeat/STIM_005.jpg	100
3243.009	0.919	919.3	repeat	Run4	repeat/STIM_005.jpg	99
3247.486	0.74	739.8	repeat	Run4	repeat/STIM_005.jpg	99
3251.579	0.759	758.6	repeat	Run4	repeat/STIM_005.jpg	99
3255.261	0.624	623.9	repeat	Run4	repeat/STIM_005.jpg	100
3258.716	0.539	539.3	repeat	Run4	repeat/STIM_006.jpg	100
3261.922	0.556	555.8	repeat	Run4	repeat/STIM_006.jpg	100
3264.772	0.601	601.0	repeat	Run4	repeat/STIM_006.jpg	99
3268.485	0.825	825.0	repeat	Run4	repeat/STIM_006.jpg	99
3272.875	0.593	593.4	repeat	Run4	repeat/STIM_006.jpg	99
3276.112	0.688	687.9	repeat	Run4	repeat/STIM_007.jpg	99
3280.434	0.545	545.2	repeat	Run4	repeat/STIM_007.jpg	100
3284.505	0.57	570.4	repeat	Run4	repeat/STIM_007.jpg	100
3288.125	0.599	599.4	repeat	Run4	repeat/STIM_007.jpg	99
3291.898	0.535	534.8	repeat	Run4	repeat/STIM_007.jpg	99
3295.945	0.544	544.5	repeat	Run4	repeat/STIM_008.jpg	100
3298.716	0.61	610.4	repeat	Run4	repeat/STIM_008.jpg	100
3302.873	0.516	516.3	repeat	Run4	repeat/STIM_008.jpg	99
3306.908	0.766	765.8	repeat	Run4	repeat/STIM_008.jpg	99
3310.872	0.655	655.0	repeat	Run4	repeat/STIM_008.jpg	100
3314.662	0.412	411.6	repeat	Run4	repeat/STIM_009.jpg	100
3318.315	0.799	799.4	repeat	Run4	repeat/STIM_009.jpg	100
3323.242	0.686	685.9	repeat	Run4	repeat/STIM_009.jpg	100
3327.71	0.463	462.6	repeat	Run4	repeat/STIM_009.jpg	99
3331.627	0.432	431.7	repeat	Run4	repeat/STIM_009.jpg	100
3335.199	0.815	814.7	repeat	Run4	repeat/STIM_010.jpg	100
3339.792	0.394	394.1	repeat	Run4	repeat/STIM_010.jpg	100
3343.211	0.97	970.2	repeat	Run4	repeat/STIM_010.jpg	99
3348.022	0.495	495.4	repeat	Run4	repeat/STIM_010.jpg	99
3352.061	0.504	503.6	repeat	Run4	repeat/STIM_010.jpg	99
3354.882	0.669	669.2	repeat	Run4	repeat/STIM_011.jpg	100
3358.916	0.389	389.3	repeat	Run4	repeat/STIM_011.jpg	99
3363.079	0.662	662.4	repeat	Run4	repeat/STIM_011.jpg	100
3366.313	0.794	794.4	repeat	Run4	repeat/STIM_011.jpg	99
3370.587	0.733	733.2	repeat	Run4	repeat/STIM_011.jpg	100
3373.568	0.6	599.7	repeat	Run4	repeat/STIM_012.jpg	99
3378.16	0.697	697.3	repeat	Run4	repeat/STIM_012.jpg	100
3382.598	0.62	619.6	repeat	Run4	repeat/STIM_012.jpg	99
3386.191	0.447	446.9	repeat	Run4	repeat/STIM_012.jpg	100
3390.322	0.441	440.8	repeat	Run4	repeat/STIM_012.jpg	99
3393.902	0.752	752.2	repeat	Run4	repeat/STIM_013.jpg	100
3397.497	0.632	632.0	repeat	Run4	repeat/STIM_013.jpg	100
3402.173	0.635	635.3	repeat	Run4	repeat/STIM_013.jpg	100
3405.788	0.508	507.6	repeat	Run4	repeat/STIM_013.jpg	99
3409.042	0.627	626.6	repeat	Run4	repeat/STIM_013.jpg	99
3413.138	0.603	603.2	repeat	Run4	repeat/STIM_014.jpg	99
3417.728	0.617	616.7	repeat	Run4	repeat/STIM_014.jpg	100
3420.805	0.808	807.5	repeat	Run4	repeat/STIM_014.jpg	100
3425.311	0.573	572.8	repeat	Run4	repeat/STIM_014.jpg	99
3428.255	0.65	649.6	repeat	Run4	repeat/STIM_014.jpg	99
