onset	duration	accuracy	trial_type	learning_stage	stimulus
0.0	1.181	correct	generate	Run1	generate/STIM_000.jpg
5.102	1.152	correct	generate	Run1	generate/STIM_000.jpg
9.252	1.923	correct	generate	Run1	generate/STIM_000.jpg
14.362	0.872	correct	generate	Run1	generate/STIM_000.jpg
18.65	1.258	incorrect	generate	Run1	generate/STIM_000.jpg
23.088	1.582	correct	generate	Run1	generate/STIM_001.jpg
27.474	1.426	correct	generate	Run1	generate/STIM_001.jpg
32.123	1.153	incorrect	generate	Run1	generate/STIM_001.jpg
35.76	1.0	correct	generate	Run1	generate/STIM_001.jpg
39.611	1.096	correct	generate	Run1	generate/STIM_001.jpg
43.99	1.421	correct	generate	Run1	generate/STIM_002.jpg
48.45	2.342	correct	generate	Run1	generate/STIM_002.jpg
54.758	1.553	correct	generate	Run1	generate/STIM_002.jpg
60.284	2.109	correct	generate	Run1	generate/STIM_002.jpg
66.02	1.775	correct	generate	Run1	generate/STIM_002.jpg
71.513	2.245	correct	generate	Run1	generate/STIM_003.jpg
77.783	2.348	correct	generate	Run1	generate/STIM_003.jpg
83.866	1.451	incorrect	generate	Run1	generate/STIM_003.jpg
88.202	2.093	correct	generate	Run1	generate/STIM_003.jpg
94.285	0.952	correct	generate	Run1	generate/STIM_003.jpg
98.833	1.882	correct	generate	Run1	generate/STIM_004.jpg
103.979	0.896	correct	generate	Run1	generate/STIM_004.jpg
108.172	1.197	correct	generate	Run1	generate/STIM_004.jpg
111.682	1.787	correct	generate	Run1	generate/STIM_004.jpg
116.085	1.587	incorrect	generate	Run1	generate/STIM_004.jpg
121.079	2.068	correct	generate	Run1	generate/STIM_005.jpg
126.416	2.167	correct	generate	Run1	generate/STIM_005.jpg
131.794	1.787	correct	generate	Run1	generate/STIM_005.jpg
137.328	1.499	correct	generate	Run1	generate/STIM_005.jpg
142.828	1.179	incorrect	generate	Run1	generate/STIM_005.jpg
147.912	1.991	correct	generate	Run1	generate/STIM_006.jpg
154.044	1.052	correct	generate	Run1	generate/STIM_006.jpg
158.281	1.116	incorrect	generate	Run1	generate/STIM_006.jpg
162.442	1.633	correct	generate	Run1	generate/STIM_006.jpg
167.265	1.062	correct	generate	Run1	generate/STIM_006.jpg
170.809	2.359	correct	generate	Run1	generate/STIM_007.jpg
176.219	2.144	incorrect	generate	Run1	generate/STIM_007.jpg
182.264	2.076	correct	generate	Run1	generate/STIM_007.jpg
187.165	1.493	correct	generate	Run1	generate/STIM_007.jpg
192.237	1.377	correct	generate	Run1	generate/STIM_007.jpg
195.953	2.138	correct	generate	Run1	generate/STIM_008.jpg
201.925	0.998	correct	generate	Run1	generate/STIM_008.jpg
205.13	2.017	incorrect	generate	Run1	generate/STIM_008.jpg
210.322	1.319	incorrect	generate	Run1	generate/STIM_008.jpg
215.451	1.819	correct	generate	Run1	generate/STIM_008.jpg
220.45	1.221	correct	generate	Run1	generate/STIM_009.jpg
224.255	2.077	correct	generate	Run1	generate/STIM_009.jpg
230.213	1.742	correct	generate	Run1	generate/STIM_009.jpg
235.946	1.167	correct	generate	Run1	generate/STIM_009.jpg
240.922	0.9	correct	generate	Run1	generate/STIM_009.jpg
245.708	1.751	incorrect	generate	Run1	generate/STIM_010.jpg
251.19	2.196	correct	generate	Run1	generate/STIM_010.jpg
255.768	2.01	correct	generate	Run1	generate/STIM_010.jpg
260.357	1.402	incorrect	generate	Run1	generate/STIM_010.jpg
264.389	1.631	correct	generate	Run1	generate/STIM_010.jpg
269.918	2.242	correct	generate	Run1	generate/STIM_011.jpg
275.19	1.949	incorrect	generate	Run1	generate/STIM_011.jpg
281.111	1.33	correct	generate	Run1	generate/STIM_011.jpg
285.14	0.918	correct	generate	Run1	generate/STIM_011.jpg
289.651	1.724	correct	generate	Run1	generate/STIM_011.jpg
293.777	1.092	incorrect	generate	Run1	generate/STIM_012.jpg
297.918	2.053	correct	generate	Run1	generate/STIM_012.jpg
303.343	1.273	correct	generate	Run1	generate/STIM_012.jpg
308.181	1.368	correct	generate	Run1	generate/STIM_012.jpg
313.085	1.371	incorrect	generate	Run1	generate/STIM_012.jpg
318.659	2.303	correct	generate	Run1	generate/STIM_013.jpg
324.386	2.328	correct	generate	Run1	generate/STIM_013.jpg
329.339	1.084	correct	generate	Run1	generate/STIM_013.jpg
333.373	1.654	incorrect	generate	Run1	generate/STIM_013.jpg
338.741	0.798	correct	generate	Run1	generate/STIM_013.jpg
341.841	1.76	correct	generate	Run1	generate/STIM_014.jpg
347.699	1.702	correct	generate	Run1	generate/STIM_014.jpg
352.614	1.219	incorrect	generate	Run1	generate/STIM_014.jpg
356.128	1.317	incorrect	generate	Run1	generate/STIM_014.jpg
361.135	1.251	correct	generate	Run1	generate/STIM_014.jpg
366.278	2.308	correct	generate	Run1	generate/STIM_015.jpg
372.086	1.259	incorrect	generate	Run1	generate/STIM_015.jpg
377.214	1.152	correct	generate	Run1	generate/STIM_015.jpg
382.014	1.213	correct	generate	Run1	generate/STIM_015.jpg
385.974	1.093	incorrect	generate	Run1	generate/STIM_015.jpg
390.991	2.219	correct	generate	Run1	generate/STIM_016.jpg
396.409	2.087	correct	generate	Run1	generate/STIM_016.jpg
401.446	1.944	correct	generate	Run1	generate/STIM_016.jpg
405.916	1.099	correct	generate	Run1	generate/STIM_016.jpg
410.766	1.208	correct	generate	Run1	generate/STIM_016.jpg
415.751	2.122	correct	generate	Run1	generate/STIM_017.jpg
420.889	1.366	incorrect	generate	Run1	generate/STIM_017.jpg
424.473	1.934	incorrect	generate	Run1	generate/STIM_017.jpg
428.911	1.177	correct	generate	Run1	generate/STIM_017.jpg
434.095	0.931	incorrect	generate	Run1	generate/STIM_017.jpg
439.021	2.41	correct	generate	Run1	generate/STIM_018.jpg
445.188	0.978	correct	generate	Run1	generate/STIM_018.jpg
449.9	1.596	correct	generate	Run1	generate/STIM_018.jpg
454.914	1.357	correct	generate	Run1	generate/STIM_018.jpg
458.898	1.014	correct	generate	Run1	generate/STIM_018.jpg
462.568	2.017	correct	generate	Run1	generate/STIM_019.jpg
468.826	1.748	incorrect	generate	Run1	generate/STIM_019.jpg
474.053	1.305	correct	generate	Run1	generate/STIM_019.jpg
477.961	1.407	incorrect	generate	Run1	generate/STIM_019.jpg
482.108	1.327	correct	generate	Run1	generate/STIM_019.jpg
486.956	2.016	correct	generate	Run1	generate/STIM_020.jpg
492.019	1.9	correct	generate	Run1	generate/STIM_020.jpg
496.794	1.313	incorrect	generate	Run1	generate/STIM_020.jpg
501.043	1.252	correct	generate	Run1	generate/STIM_020.jpg
505.805	0.98	correct	generate	Run1	generate/STIM_020.jpg
510.615	1.558	correct	generate	Run1	generate/STIM_021.jpg
515.728	1.492	correct	generate	Run1	generate/STIM_021.jpg
520.434	2.259	correct	generate	Run1	generate/STIM_021.jpg
526.874	2.082	correct	generate	Run1	generate/STIM_021.jpg
533.218	1.12	correct	generate	Run1	generate/STIM_021.jpg
536.614	1.412	correct	generate	Run1	generate/STIM_022.jpg
541.371	2.276	incorrect	generate	Run1	generate/STIM_022.jpg
546.214	1.214	incorrect	generate	Run1	generate/STIM_022.jpg
550.907	1.745	correct	generate	Run1	generate/STIM_022.jpg
555.824	1.3	correct	generate	Run1	generate/STIM_022.jpg
560.199	1.581	incorrect	generate	Run1	generate/STIM_023.jpg
564.541	1.907	correct	generate	Run1	generate/STIM_023.jpg
570.041	0.95	correct	generate	Run1	generate/STIM_023.jpg
573.747	1.822	incorrect	generate	Run1	generate/STIM_023.jpg
578.293	1.618	incorrect	generate	Run1	generate/STIM_023.jpg
583.801	1.42	incorrect	generate	Run1	generate/STIM_024.jpg
587.62	1.632	correct	generate	Run1	generate/STIM_024.jpg
592.265	1.012	correct	generate	Run1	generate/STIM_024.jpg
595.821	1.282	correct	generate	Run1	generate/STIM_024.jpg
600.267	1.886	correct	generate	Run1	generate/STIM_024.jpg
606.047	0.847	correct	repeat	Run1	repeat/STIM_000.jpg
610.036	0.865	correct	repeat	Run1	repeat/STIM_000.jpg
614.491	0.667	correct	repeat	Run1	repeat/STIM_000.jpg
617.366	0.559	correct	repeat	Run1	repeat/STIM_000.jpg
620.242	0.751	correct	repeat	Run1	repeat/STIM_000.jpg
623.501	0.609	correct	repeat	Run1	repeat/STIM_001.jpg
627.857	0.464	correct	repeat	Run1	repeat/STIM_001.jpg
630.859	0.658	correct	repeat	Run1	repeat/STIM_001.jpg
634.506	0.857	correct	repeat	Run1	repeat/STIM_001.jpg
637.666	0.831	correct	repeat	Run1	repeat/STIM_001.jpg
641.966	0.577	correct	repeat	Run1	repeat/STIM_002.jpg
645.616	0.491	correct	repeat	Run1	repeat/STIM_002.jpg
648.377	0.66	correct	repeat	Run1	repeat/STIM_002.jpg
651.303	0.554	correct	repeat	Run1	repeat/STIM_002.jpg
654.707	0.607	incorrect	repeat	Run1	repeat/STIM_002.jpg
659.132	0.768	correct	repeat	Run1	repeat/STIM_003.jpg
663.121	0.896	correct	repeat	Run1	repeat/STIM_003.jpg
667.736	0.91	correct	repeat	Run1	repeat/STIM_003.jpg
671.505	0.713	correct	repeat	Run1	repeat/STIM_003.jpg
675.949	0.635	correct	repeat	Run1	repeat/STIM_003.jpg
678.97	0.603	correct	repeat	Run1	repeat/STIM_004.jpg
683.159	0.688	correct	repeat	Run1	repeat/STIM_004.jpg
685.986	0.536	correct	repeat	Run1	repeat/STIM_004.jpg
689.561	0.6	correct	repeat	Run1	repeat/STIM_004.jpg
692.728	0.752	correct	repeat	Run1	repeat/STIM_004.jpg
697.248	0.618	correct	repeat	Run1	repeat/STIM_005.jpg
701.147	0.87	correct	repeat	Run1	repeat/STIM_005.jpg
705.763	0.732	correct	repeat	Run1	repeat/STIM_005.jpg
709.378	0.875	correct	repeat	Run1	repeat/STIM_005.jpg
713.099	0.486	correct	repeat	Run1	repeat/STIM_005.jpg
715.724	0.644	correct	repeat	Run1	repeat/STIM_006.jpg
719.589	0.876	correct	repeat	Run1	repeat/STIM_006.jpg
723.262	0.88	correct	repeat	Run1	repeat/STIM_006.jpg
726.83	0.404	correct	repeat	Run1	repeat/STIM_006.jpg
730.201	0.489	correct	repeat	Run1	repeat/STIM_006.jpg
734.2	0.602	correct	repeat	Run1	repeat/STIM_007.jpg
737.207	0.7	correct	repeat	Run1	repeat/STIM_007.jpg
741.201	0.643	correct	repeat	Run1	repeat/STIM_007.jpg
744.493	0.785	incorrect	repeat	Run1	repeat/STIM_007.jpg
748.918	0.586	correct	repeat	Run1	repeat/STIM_007.jpg
751.648	0.71	incorrect	repeat	Run1	repeat/STIM_008.jpg
756.239	0.426	correct	repeat	Run1	repeat/STIM_008.jpg
760.721	0.494	correct	repeat	Run1	repeat/STIM_008.jpg
763.388	0.544	correct	repeat	Run1	repeat/STIM_008.jpg
766.459	0.695	correct	repeat	Run1	repeat/STIM_008.jpg
769.532	0.612	correct	repeat	Run1	repeat/STIM_009.jpg
773.95	0.554	correct	repeat	Run1	repeat/STIM_009.jpg
776.534	0.376	correct	repeat	Run1	repeat/STIM_009.jpg
781.011	0.701	correct	repeat	Run1	repeat/STIM_009.jpg
784.336	0.61	correct	repeat	Run1	repeat/STIM_009.jpg
787.537	0.518	correct	repeat	Run1	repeat/STIM_010.jpg
790.81	0.621	correct	repeat	Run1	repeat/STIM_010.jpg
794.388	0.54	correct	repeat	Run1	repeat/STIM_010.jpg
798.653	0.652	correct	repeat	Run1	repeat/STIM_010.jpg
803.407	0.661	correct	repeat	Run1	repeat/STIM_010.jpg
806.143	0.765	correct	repeat	Run1	repeat/STIM_011.jpg
809.284	0.69	correct	repeat	Run1	repeat/STIM_011.jpg
813.298	0.563	correct	repeat	Run1	repeat/STIM_011.jpg
816.397	0.529	correct	repeat	Run1	repeat/STIM_011.jpg
819.959	0.656	correct	repeat	Run1	repeat/STIM_011.jpg
824.444	0.5	correct	repeat	Run1	repeat/STIM_012.jpg
827.641	0.675	correct	repeat	Run1	repeat/STIM_012.jpg
832.01	0.582	correct	repeat	Run1	repeat/STIM_012.jpg
836.621	0.564	correct	repeat	Run1	repeat/STIM_012.jpg
840.962	0.419	correct	repeat	Run1	repeat/STIM_012.jpg
843.818	0.701	correct	repeat	Run1	repeat/STIM_013.jpg
847.326	0.546	correct	repeat	Run1	repeat/STIM_013.jpg
851.681	0.561	correct	repeat	Run1	repeat/STIM_013.jpg
854.913	0.503	correct	repeat	Run1	repeat/STIM_013.jpg
859.424	0.671	correct	repeat	Run1	repeat/STIM_013.jpg
862.81	0.874	correct	repeat	Run1	repeat/STIM_014.jpg
867.359	0.812	correct	repeat	Run1	repeat/STIM_014.jpg
870.688	0.469	correct	repeat	Run1	repeat/STIM_014.jpg
873.239	0.688	correct	repeat	Run1	repeat/STIM_014.jpg
877.811	0.744	correct	repeat	Run1	repeat/STIM_014.jpg
881.93	1.17	correct	generate	Run2	generate/STIM_000.jpg
886.497	1.002	correct	generate	Run2	generate/STIM_000.jpg
891.206	1.285	correct	generate	Run2	generate/STIM_000.jpg
895.514	1.588	correct	generate	Run2	generate/STIM_000.jpg
899.919	0.807	correct	generate	Run2	generate/STIM_000.jpg
904.492	0.889	correct	generate	Run2	generate/STIM_001.jpg
909.257	1.912	incorrect	generate	Run2	generate/STIM_001.jpg
915.049	1.731	correct	generate	Run2	generate/STIM_001.jpg
920.22	1.754	correct	generate	Run2	generate/STIM_001.jpg
924.616	1.009	correct	generate	Run2	generate/STIM_001.jpg
928.89	2.095	correct	generate	Run2	generate/STIM_002.jpg
935.274	1.101	correct	generate	Run2	generate/STIM_002.jpg
940.538	1.087	correct	generate	Run2	generate/STIM_002.jpg
945.771	0.858	correct	generate	Run2	generate/STIM_002.jpg
949.65	0.785	correct	generate	Run2	generate/STIM_002.jpg
953.266	1.313	correct	generate	Run2	generate/STIM_003.jpg
957.279	1.246	correct	generate	Run2	generate/STIM_003.jpg
961.274	1.189	incorrect	generate	Run2	generate/STIM_003.jpg
964.868	1.208	correct	generate	Run2	generate/STIM_003.jpg
969.369	0.765	correct	generate	Run2	generate/STIM_003.jpg
972.904	1.862	correct	generate	Run2	generate/STIM_004.jpg
978.309	1.343	correct	generate	Run2	generate/STIM_004.jpg
982.484	1.16	correct	generate	Run2	generate/STIM_004.jpg
986.936	1.487	correct	generate	Run2	generate/STIM_004.jpg
990.897	1.296	correct	generate	Run2	generate/STIM_004.jpg
995.01	1.524	correct	generate	Run2	generate/STIM_005.jpg
999.672	1.047	correct	generate	Run2	generate/STIM_005.jpg
1004.852	1.347	correct	generate	Run2	generate/STIM_005.jpg
1009.762	1.322	correct	generate	Run2	generate/STIM_005.jpg
1014.691	1.68	correct	generate	Run2	generate/STIM_005.jpg
1020.618	1.94	correct	generate	Run2	generate/STIM_006.jpg
1025.458	1.942	correct	generate	Run2	generate/STIM_006.jpg
1030.881	1.355	correct	generate	Run2	generate/STIM_006.jpg
1035.561	1.5	correct	generate	Run2	generate/STIM_006.jpg
1039.916	1.066	correct	generate	Run2	generate/STIM_006.jpg
1043.765	2.241	incorrect	generate	Run2	generate/STIM_007.jpg
1048.399	1.964	incorrect	generate	Run2	generate/STIM_007.jpg
1053.657	0.847	correct	generate	Run2	generate/STIM_007.jpg
1058.664	1.45	correct	generate	Run2	generate/STIM_007.jpg
1063.159	0.929	correct	generate	Run2	generate/STIM_007.jpg
1066.695	1.809	correct	generate	Run2	generate/STIM_008.jpg
1071.855	1.277	correct	generate	Run2	generate/STIM_008.jpg
1077.049	1.705	correct	generate	Run2	generate/STIM_008.jpg
1082.329	0.873	correct	generate	Run2	generate/STIM_008.jpg
1085.576	1.013	correct	generate	Run2	generate/STIM_008.jpg
1089.463	1.871	correct	generate	Run2	generate/STIM_009.jpg
1093.811	1.893	incorrect	generate	Run2	generate/STIM_009.jpg
1099.198	1.753	correct	generate	Run2	generate/STIM_009.jpg
1104.265	1.507	correct	generate	Run2	generate/STIM_009.jpg
1109.215	1.051	correct	generate	Run2	generate/STIM_009.jpg
1113.616	1.264	incorrect	generate	Run2	generate/STIM_010.jpg
1118.467	1.495	incorrect	generate	Run2	generate/STIM_010.jpg
1123.242	0.961	correct	generate	Run2	generate/STIM_010.jpg
1126.897	1.63	incorrect	generate	Run2	generate/STIM_010.jpg
1132.702	1.546	correct	generate	Run2	generate/STIM_010.jpg
1138.405	1.256	correct	generate	Run2	generate/STIM_011.jpg
1142.704	1.61	correct	generate	Run2	generate/STIM_011.jpg
1147.593	1.101	correct	generate	Run2	generate/STIM_011.jpg
1151.019	1.546	correct	generate	Run2	generate/STIM_011.jpg
1156.216	1.691	correct	generate	Run2	generate/STIM_011.jpg
1160.525	2.128	incorrect	generate	Run2	generate/STIM_012.jpg
1166.308	1.062	correct	generate	Run2	generate/STIM_012.jpg
1169.772	1.428	correct	generate	Run2	generate/STIM_012.jpg
1173.68	0.752	correct	generate	Run2	generate/STIM_012.jpg
1177.762	1.147	correct	generate	Run2	generate/STIM_012.jpg
1181.77	0.949	correct	generate	Run2	generate/STIM_013.jpg
1185.462	1.875	correct	generate	Run2	generate/STIM_013.jpg
1190.406	1.62	correct	generate	Run2	generate/STIM_013.jpg
1196.016	0.99	correct	generate	Run2	generate/STIM_013.jpg
1199.98	0.773	correct	generate	Run2	generate/STIM_013.jpg
1204.753	2.06	incorrect	generate	Run2	generate/STIM_014.jpg
1210.412	1.314	correct	generate	Run2	generate/STIM_014.jpg
1215.562	1.812	correct	generate	Run2	generate/STIM_014.jpg
1221.487	1.139	correct	generate	Run2	generate/STIM_014.jpg
1225.773	1.494	incorrect	generate	Run2	generate/STIM_014.jpg
1230.6	1.193	correct	generate	Run2	generate/STIM_015.jpg
1235.841	1.602	correct	generate	Run2	generate/STIM_015.jpg
1241.603	1.806	correct	generate	Run2	generate/STIM_015.jpg
1245.775	1.136	correct	generate	Run2	generate/STIM_015.jpg
1250.57	1.44	correct	generate	Run2	generate/STIM_015.jpg
1255.297	1.288	correct	generate	Run2	generate/STIM_016.jpg
1259.707	1.803	correct	generate	Run2	generate/STIM_016.jpg
1264.515	1.045	correct	generate	Run2	generate/STIM_016.jpg
1269.23	1.671	correct	generate	Run2	generate/STIM_016.jpg
1274.327	1.483	correct	generate	Run2	generate/STIM_016.jpg
1279.555	1.284	correct	generate	Run2	generate/STIM_017.jpg
1283.117	1.979	incorrect	generate	Run2	generate/STIM_017.jpg
1287.859	1.856	correct	generate	Run2	generate/STIM_017.jpg
1292.703	0.815	correct	generate	Run2	generate/STIM_017.jpg
1296.211	1.609	correct	generate	Run2	generate/STIM_017.jpg
1302.088	1.467	correct	generate	Run2	generate/STIM_018.jpg
1306.984	1.884	correct	generate	Run2	generate/STIM_018.jpg
1312.801	1.039	correct	generate	Run2	generate/STIM_018.jpg
1317.802	1.16	correct	generate	Run2	generate/STIM_018.jpg
1322.409	1.316	correct	generate	Run2	generate/STIM_018.jpg
1326.437	1.11	incorrect	generate	Run2	generate/STIM_019.jpg
1330.854	1.076	correct	generate	Run2	generate/STIM_019.jpg
1334.89	1.884	correct	generate	Run2	generate/STIM_019.jpg
1339.474	0.968	correct	generate	Run2	generate/STIM_019.jpg
1344.459	0.796	correct	generate	Run2	generate/STIM_019.jpg
1348.995	2.004	correct	generate	Run2	generate/STIM_020.jpg
1354.594	2.05	incorrect	generate	Run2	generate/STIM_020.jpg
1359.132	1.785	correct	generate	Run2	generate/STIM_020.jpg
1364.289	1.41	incorrect	generate	Run2	generate/STIM_020.jpg
1368.901	1.035	correct	generate	Run2	generate/STIM_020.jpg
1373.1	1.24	correct	generate	Run2	generate/STIM_021.jpg
1378.386	1.48	correct	generate	Run2	generate/STIM_021.jpg
1382.522	1.725	correct	generate	Run2	generate/STIM_021.jpg
1388.432	0.922	incorrect	generate	Run2	generate/STIM_021.jpg
1391.576	0.967	correct	generate	Run2	generate/STIM_021.jpg
1396.523	1.673	correct	generate	Run2	generate/STIM_022.jpg
1400.892	1.65	correct	generate	Run2	generate/STIM_022.jpg
1404.897	1.227	correct	generate	Run2	generate/STIM_022.jpg
1410.154	1.043	correct	generate	Run2	generate/STIM_022.jpg
1414.377	1.527	incorrect	generate	Run2	generate/STIM_022.jpg
1418.407	1.403	correct	generate	Run2	generate/STIM_023.jpg
1423.706	1.374	correct	generate	Run2	generate/STIM_023.jpg
1429.16	1.539	correct	generate	Run2	generate/STIM_023.jpg
1433.001	0.81	correct	generate	Run2	generate/STIM_023.jpg
1436.987	1.013	correct	generate	Run2	generate/STIM_023.jpg
1440.983	2.016	correct	generate	Run2	generate/STIM_024.jpg
1445.478	1.329	correct	generate	Run2	generate/STIM_024.jpg
1450.86	1.334	correct	generate	Run2	generate/STIM_024.jpg
1456.391	0.801	correct	generate	Run2	generate/STIM_024.jpg
1459.659	1.357	correct	generate	Run2	generate/STIM_024.jpg
1463.718	0.588	correct	repeat	Run2	repeat/STIM_000.jpg
1467.74	0.644	correct	repeat	Run2	repeat/STIM_000.jpg
1471.884	0.632	correct	repeat	Run2	repeat/STIM_000.jpg
1476.138	0.678	correct	repeat	Run2	repeat/STIM_000.jpg
1479.605	0.698	correct	repeat	Run2	repeat/STIM_000.jpg
1483.475	0.619	correct	repeat	Run2	repeat/STIM_001.jpg
1487.272	0.668	correct	repeat	Run2	repeat/STIM_001.jpg
1491.755	0.589	correct	repeat	Run2	repeat/STIM_001.jpg
1495.052	0.565	correct	repeat	Run2	repeat/STIM_001.jpg
1499.138	0.632	correct	repeat	Run2	repeat/STIM_001.jpg
1502.992	0.431	correct	repeat	Run2	repeat/STIM_002.jpg
1507.482	0.765	correct	repeat	Run2	repeat/STIM_002.jpg
1512.11	0.54	correct	repeat	Run2	repeat/STIM_002.jpg
1515.47	0.727	correct	repeat	Run2	repeat/STIM_002.jpg
1519.824	0.701	correct	repeat	Run2	repeat/STIM_002.jpg
1524.401	0.499	correct	repeat	Run2	repeat/STIM_003.jpg
1528.808	0.689	correct	repeat	Run2	repeat/STIM_003.jpg
1533.019	0.45	incorrect	repeat	Run2	repeat/STIM_003.jpg
1536.537	0.318	correct	repeat	Run2	repeat/STIM_003.jpg
1540.06	0.824	correct	repeat	Run2	repeat/STIM_003.jpg
1543.346	0.7	correct	repeat	Run2	repeat/STIM_004.jpg
1547.904	0.52	correct	repeat	Run2	repeat/STIM_004.jpg
1551.742	0.589	correct	repeat	Run2	repeat/STIM_004.jpg
1555.998	0.876	correct	repeat	Run2	repeat/STIM_004.jpg
1560.376	0.614	correct	repeat	Run2	repeat/STIM_004.jpg
1564.739	0.725	correct	repeat	Run2	repeat/STIM_005.jpg
1567.778	0.611	correct	repeat	Run2	repeat/STIM_005.jpg
1571.036	0.842	correct	repeat	Run2	repeat/STIM_005.jpg
1574.155	0.82	correct	repeat	Run2	repeat/STIM_005.jpg
1578.76	0.731	correct	repeat	Run2	repeat/STIM_005.jpg
1581.634	0.748	correct	repeat	Run2	repeat/STIM_006.jpg
1585.361	0.489	correct	repeat	Run2	repeat/STIM_006.jpg
1589.01	0.526	correct	repeat	Run2	repeat/STIM_006.jpg
1592.874	0.673	correct	repeat	Run2	repeat/STIM_006.jpg
1595.945	0.744	correct	repeat	Run2	repeat/STIM_006.jpg
1599.436	0.561	correct	repeat	Run2	repeat/STIM_007.jpg
1602.893	0.742	correct	repeat	Run2	repeat/STIM_007.jpg
1607.36	0.683	correct	repeat	Run2	repeat/STIM_007.jpg
1610.798	0.812	correct	repeat	Run2	repeat/STIM_007.jpg
1614.791	0.58	correct	repeat	Run2	repeat/STIM_007.jpg
1617.835	0.515	correct	repeat	Run2	repeat/STIM_008.jpg
1622.12	0.747	correct	repeat	Run2	repeat/STIM_008.jpg
1625.368	0.631	correct	repeat	Run2	repeat/STIM_008.jpg
1629.173	0.602	correct	repeat	Run2	repeat/STIM_008.jpg
1633.904	0.784	correct	repeat	Run2	repeat/STIM_008.jpg
1638.614	0.84	correct	repeat	Run2	repeat/STIM_009.jpg
1642.205	0.522	correct	repeat	Run2	repeat/STIM_009.jpg
1646.634	0.583	incorrect	repeat	Run2	repeat/STIM_009.jpg
1649.561	0.739	correct	repeat	Run2	repeat/STIM_009.jpg
1653.413	0.527	correct	repeat	Run2	repeat/STIM_009.jpg
1656.97	0.803	correct	repeat	Run2	repeat/STIM_010.jpg
1660.993	0.51	correct	repeat	Run2	repeat/STIM_010.jpg
1665.204	0.733	correct	repeat	Run2	repeat/STIM_010.jpg
1669.968	0.754	correct	repeat	Run2	repeat/STIM_010.jpg
1674.391	0.727	correct	repeat	Run2	repeat/STIM_010.jpg
1678.758	0.533	correct	repeat	Run2	repeat/STIM_011.jpg
1681.433	0.757	incorrect	repeat	Run2	repeat/STIM_011.jpg
1686.026	0.894	correct	repeat	Run2	repeat/STIM_011.jpg
1690.546	0.727	correct	repeat	Run2	repeat/STIM_011.jpg
1694.472	0.728	correct	repeat	Run2	repeat/STIM_011.jpg
1698.608	0.585	correct	repeat	Run2	repeat/STIM_012.jpg
1702.182	0.695	correct	repeat	Run2	repeat/STIM_012.jpg
1706.063	0.816	correct	repeat	Run2	repeat/STIM_012.jpg
1709.673	0.497	correct	repeat	Run2	repeat/STIM_012.jpg
1713.662	0.582	correct	repeat	Run2	repeat/STIM_012.jpg
1716.585	0.478	correct	repeat	Run2	repeat/STIM_013.jpg
1719.317	0.864	correct	repeat	Run2	repeat/STIM_013.jpg
1723.226	0.888	correct	repeat	Run2	repeat/STIM_013.jpg
1727.17	0.74	correct	repeat	Run2	repeat/STIM_013.jpg
1730.332	0.416	correct	repeat	Run2	repeat/STIM_013.jpg
1734.677	0.551	correct	repeat	Run2	repeat/STIM_014.jpg
1737.939	0.729	correct	repeat	Run2	repeat/STIM_014.jpg
1742.254	0.901	correct	repeat	Run2	repeat/STIM_014.jpg
1747.046	0.798	correct	repeat	Run2	repeat/STIM_014.jpg
1750.885	0.501	correct	repeat	Run2	repeat/STIM_014.jpg
1755.286	1.076	correct	generate	Run3	generate/STIM_000.jpg
1760.354	1.754	correct	generate	Run3	generate/STIM_000.jpg
1764.864	1.71	correct	generate	Run3	generate/STIM_000.jpg
1770.295	1.413	correct	generate	Run3	generate/STIM_000.jpg
1775.286	1.281	correct	generate	Run3	generate/STIM_000.jpg
1779.501	1.092	correct	generate	Run3	generate/STIM_001.jpg
1784.106	0.953	correct	generate	Run3	generate/STIM_001.jpg
1787.548	0.954	correct	generate	Run3	generate/STIM_001.jpg
1791.186	0.845	correct	generate	Run3	generate/STIM_001.jpg
1795.01	0.774	correct	generate	Run3	generate/STIM_001.jpg
1799.657	1.617	correct	generate	Run3	generate/STIM_002.jpg
1803.959	1.058	incorrect	generate	Run3	generate/STIM_002.jpg
1807.126	0.903	correct	generate	Run3	generate/STIM_002.jpg
1811.639	0.837	correct	generate	Run3	generate/STIM_002.jpg
1815.896	1.64	correct	generate	Run3	generate/STIM_002.jpg
1821.34	1.739	correct	generate	Run3	generate/STIM_003.jpg
1826.376	0.922	correct	generate	Run3	generate/STIM_003.jpg
1831.053	1.386	correct	generate	Run3	generate/STIM_003.jpg
1836.557	1.383	correct	generate	Run3	generate/STIM_003.jpg
1841.17	1.599	correct	generate	Run3	generate/STIM_003.jpg
1846.451	1.11	correct	generate	Run3	generate/STIM_004.jpg
1849.733	0.949	incorrect	generate	Run3	generate/STIM_004.jpg
1853.662	0.768	correct	generate	Run3	generate/STIM_004.jpg
1856.593	1.665	correct	generate	Run3	generate/STIM_004.jpg
1860.589	0.882	correct	generate	Run3	generate/STIM_004.jpg
1863.709	0.816	correct	generate	Run3	generate/STIM_005.jpg
1867.682	1.552	correct	generate	Run3	generate/STIM_005.jpg
1872.644	1.514	correct	generate	Run3	generate/STIM_005.jpg
1877.556	1.001	correct	generate	Run3	generate/STIM_005.jpg
1881.545	1.596	correct	generate	Run3	generate/STIM_005.jpg
1886.899	1.425	correct	generate	Run3	generate/STIM_006.jpg
1892.577	0.808	correct	generate	Run3	generate/STIM_006.jpg
1897.498	1.486	correct	generate	Run3	generate/STIM_006.jpg
1902.692	1.09	incorrect	generate	Run3	generate/STIM_006.jpg
1906.484	1.028	correct	generate	Run3	generate/STIM_006.jpg
1910.429	1.363	incorrect	generate	Run3	generate/STIM_007.jpg
1915.102	1.631	correct	generate	Run3	generate/STIM_007.jpg
1920.082	1.376	correct	generate	Run3	generate/STIM_007.jpg
1924.437	1.586	correct	generate	Run3	generate/STIM_007.jpg
1928.583	1.701	correct	generate	Run3	generate/STIM_007.jpg
1933.524	1.574	incorrect	generate	Run3	generate/STIM_008.jpg
1938.565	0.92	correct	generate	Run3	generate/STIM_008.jpg
1942.65	1.782	correct	generate	Run3	generate/STIM_008.jpg
1948.086	0.852	correct	generate	Run3	generate/STIM_008.jpg
1951.743	1.607	incorrect	generate	Run3	generate/STIM_008.jpg
1957.366	1.132	correct	generate	Run3	generate/STIM_009.jpg
1960.899	0.933	correct	generate	Run3	generate/STIM_009.jpg
1964.58	0.722	correct	generate	Run3	generate/STIM_009.jpg
1967.527	1.021	incorrect	generate	Run3	generate/STIM_009.jpg
1971.515	1.203	correct	generate	Run3	generate/STIM_009.jpg
1975.723	0.822	correct	generate	Run3	generate/STIM_010.jpg
1979.279	1.764	incorrect	generate	Run3	generate/STIM_010.jpg
1984.749	1.417	incorrect	generate	Run3	generate/STIM_010.jpg
1990.373	0.837	correct	generate	Run3	generate/STIM_010.jpg
1993.82	1.537	correct	generate	Run3	generate/STIM_010.jpg
1999.35	1.141	correct	generate	Run3	generate/STIM_011.jpg
2004.172	0.754	correct	generate	Run3	generate/STIM_011.jpg
2008.826	1.517	correct	generate	Run3	generate/STIM_011.jpg
2014.507	1.416	correct	generate	Run3	generate/STIM_011.jpg
2018.944	1.652	correct	generate	Run3	generate/STIM_011.jpg
2023.461	1.593	incorrect	generate	Run3	generate/STIM_012.jpg
2028.952	1.716	correct	generate	Run3	generate/STIM_012.jpg
2034.832	0.852	correct	generate	Run3	generate/STIM_012.jpg
2039.257	1.696	correct	generate	Run3	generate/STIM_012.jpg
2043.946	1.601	correct	generate	Run3	generate/STIM_012.jpg
2048.386	1.209	correct	generate	Run3	generate/STIM_013.jpg
2052.15	1.6	correct	generate	Run3	generate/STIM_013.jpg
2057.466	0.894	correct	generate	Run3	generate/STIM_013.jpg
2061.971	1.53	correct	generate	Run3	generate/STIM_013.jpg
2066.231	0.945	correct	generate	Run3	generate/STIM_013.jpg
2070.456	0.865	correct	generate	Run3	generate/STIM_014.jpg
2074.186	1.691	correct	generate	Run3	generate/STIM_014.jpg
2079.247	1.808	correct	generate	Run3	generate/STIM_014.jpg
2083.367	1.112	correct	generate	Run3	generate/STIM_014.jpg
2087.729	1.469	correct	generate	Run3	generate/STIM_014.jpg
2093.208	0.835	correct	generate	Run3	generate/STIM_015.jpg
2098.0	1.278	correct	generate	Run3	generate/STIM_015.jpg
2103.321	0.736	correct	generate	Run3	generate/STIM_015.jpg
2106.388	0.72	correct	generate	Run3	generate/STIM_015.jpg
2109.909	0.972	correct	generate	Run3	generate/STIM_015.jpg
2114.902	1.163	correct	generate	Run3	generate/STIM_016.jpg
2119.208	1.783	correct	generate	Run3	generate/STIM_016.jpg
2124.424	0.854	correct	generate	Run3	generate/STIM_016.jpg
2128.969	1.512	incorrect	generate	Run3	generate/STIM_016.jpg
2133.796	1.388	correct	generate	Run3	generate/STIM_016.jpg
2138.267	1.175	correct	generate	Run3	generate/STIM_017.jpg
2142.259	1.339	correct	generate	Run3	generate/STIM_017.jpg
2146.415	1.143	correct	generate	Run3	generate/STIM_017.jpg
2149.864	1.556	correct	generate	Run3	generate/STIM_017.jpg
2155.122	1.075	correct	generate	Run3	generate/STIM_017.jpg
2159.935	1.386	correct	generate	Run3	generate/STIM_018.jpg
2163.774	0.852	correct	generate	Run3	generate/STIM_018.jpg
2167.07	0.885	correct	generate	Run3	generate/STIM_018.jpg
2171.455	1.331	correct	generate	Run3	generate/STIM_018.jpg
2176.111	0.782	correct	generate	Run3	generate/STIM_018.jpg
2180.819	1.79	correct	generate	Run3	generate/STIM_019.jpg
2185.38	0.685	correct	generate	Run3	generate/STIM_019.jpg
2188.807	1.528	correct	generate	Run3	generate/STIM_019.jpg
2192.738	1.804	correct	generate	Run3	generate/STIM_019.jpg
2197.619	0.947	correct	generate	Run3	generate/STIM_019.jpg
2202.417	1.056	correct	generate	Run3	generate/STIM_020.jpg
2207.447	1.092	incorrect	generate	Run3	generate/STIM_020.jpg
2212.216	1.678	correct	generate	Run3	generate/STIM_020.jpg
2216.776	1.766	correct	generate	Run3	generate/STIM_020.jpg
2220.833	1.228	correct	generate	Run3	generate/STIM_020.jpg
2226.043	1.053	correct	generate	Run3	generate/STIM_021.jpg
2230.347	0.829	incorrect	generate	Run3	generate/STIM_021.jpg
2235.047	0.976	correct	generate	Run3	generate/STIM_021.jpg
2239.535	0.925	correct	generate	Run3	generate/STIM_021.jpg
2242.97	1.724	correct	generate	Run3	generate/STIM_021.jpg
2247.151	0.962	correct	generate	Run3	generate/STIM_022.jpg
2250.446	1.574	correct	generate	Run3	generate/STIM_022.jpg
2254.846	0.858	correct	generate	Run3	generate/STIM_022.jpg
2259.009	1.434	correct	generate	Run3	generate/STIM_022.jpg
2264.41	1.676	correct	generate	Run3	generate/STIM_022.jpg
2269.704	1.46	correct	generate	Run3	generate/STIM_023.jpg
2274.675	0.938	correct	generate	Run3	generate/STIM_023.jpg
2278.769	1.255	correct	generate	Run3	generate/STIM_023.jpg
2282.503	1.606	correct	generate	Run3	generate/STIM_023.jpg
2287.359	1.038	correct	generate	Run3	generate/STIM_023.jpg
2290.615	1.273	correct	generate	Run3	generate/STIM_024.jpg
2295.968	1.0	correct	generate	Run3	generate/STIM_024.jpg
2299.563	1.234	correct	generate	Run3	generate/STIM_024.jpg
2303.419	0.962	correct	generate	Run3	generate/STIM_024.jpg
2308.204	0.95	correct	generate	Run3	generate/STIM_024.jpg
2312.688	0.905	correct	repeat	Run3	repeat/STIM_000.jpg
2315.952	0.43	incorrect	repeat	Run3	repeat/STIM_000.jpg
2319.636	0.396	correct	repeat	Run3	repeat/STIM_000.jpg
2323.567	0.825	correct	repeat	Run3	repeat/STIM_000.jpg
2327.764	0.512	correct	repeat	Run3	repeat/STIM_000.jpg
2330.543	0.622	correct	repeat	Run3	repeat/STIM_001.jpg
2333.47	0.792	correct	repeat	Run3	repeat/STIM_001.jpg
2336.792	0.648	correct	repeat	Run3	repeat/STIM_001.jpg
2339.834	0.691	correct	repeat	Run3	repeat/STIM_001.jpg
2342.764	0.732	correct	repeat	Run3	repeat/STIM_001.jpg
2345.765	0.774	correct	repeat	Run3	repeat/STIM_002.jpg
2349.502	0.818	correct	repeat	Run3	repeat/STIM_002.jpg
2352.53	0.509	correct	repeat	Run3	repeat/STIM_002.jpg
2355.606	0.515	correct	repeat	Run3	repeat/STIM_002.jpg
2358.297	0.536	correct	repeat	Run3	repeat/STIM_002.jpg
2361.281	0.511	correct	repeat	Run3	repeat/STIM_003.jpg
2364.563	0.6	correct	repeat	Run3	repeat/STIM_003.jpg
2368.975	0.798	correct	repeat	Run3	repeat/STIM_003.jpg
2373.546	0.815	correct	repeat	Run3	repeat/STIM_003.jpg
2376.832	0.638	correct	repeat	Run3	repeat/STIM_003.jpg
2381.298	0.428	correct	repeat	Run3	repeat/STIM_004.jpg
2384.274	0.603	correct	repeat	Run3	repeat/STIM_004.jpg
2388.206	0.882	correct	repeat	Run3	repeat/STIM_004.jpg
2391.812	0.727	correct	repeat	Run3	repeat/STIM_004.jpg
2396.71	0.805	correct	repeat	Run3	repeat/STIM_004.jpg
2400.746	0.425	correct	repeat	Run3	repeat/STIM_005.jpg
2404.751	0.706	correct	repeat	Run3	repeat/STIM_005.jpg
2408.496	0.72	incorrect	repeat	Run3	repeat/STIM_005.jpg
2412.366	0.616	correct	repeat	Run3	repeat/STIM_005.jpg
2417.153	0.744	correct	repeat	Run3	repeat/STIM_005.jpg
2420.925	0.631	correct	repeat	Run3	repeat/STIM_006.jpg
2423.809	0.596	correct	repeat	Run3	repeat/STIM_006.jpg
2428.183	0.803	correct	repeat	Run3	repeat/STIM_006.jpg
2431.803	0.67	correct	repeat	Run3	repeat/STIM_006.jpg
2435.66	0.683	incorrect	repeat	Run3	repeat/STIM_006.jpg
2438.896	0.745	correct	repeat	Run3	repeat/STIM_007.jpg
2442.815	0.483	incorrect	repeat	Run3	repeat/STIM_007.jpg
2446.195	0.506	correct	repeat	Run3	repeat/STIM_007.jpg
2448.893	0.648	correct	repeat	Run3	repeat/STIM_007.jpg
2452.443	0.732	correct	repeat	Run3	repeat/STIM_007.jpg
2456.324	0.762	correct	repeat	Run3	repeat/STIM_008.jpg
2460.608	0.409	correct	repeat	Run3	repeat/STIM_008.jpg
2464.738	0.634	correct	repeat	Run3	repeat/STIM_008.jpg
2467.888	0.607	correct	repeat	Run3	repeat/STIM_008.jpg
2471.79	0.516	correct	repeat	Run3	repeat/STIM_008.jpg
2476.04	0.502	correct	repeat	Run3	repeat/STIM_009.jpg
2478.852	0.52	correct	repeat	Run3	repeat/STIM_009.jpg
2483.086	0.755	correct	repeat	Run3	repeat/STIM_009.jpg
2487.375	0.798	correct	repeat	Run3	repeat/STIM_009.jpg
2491.029	0.741	correct	repeat	Run3	repeat/STIM_009.jpg
2494.379	0.478	correct	repeat	Run3	repeat/STIM_010.jpg
2497.658	0.486	correct	repeat	Run3	repeat/STIM_010.jpg
2500.975	0.724	correct	repeat	Run3	repeat/STIM_010.jpg
2505.196	0.656	correct	repeat	Run3	repeat/STIM_010.jpg
2508.089	0.652	correct	repeat	Run3	repeat/STIM_010.jpg
2511.511	0.452	correct	repeat	Run3	repeat/STIM_011.jpg
2516.002	0.44	correct	repeat	Run3	repeat/STIM_011.jpg
2519.241	0.85	correct	repeat	Run3	repeat/STIM_011.jpg
2523.376	0.513	correct	repeat	Run3	repeat/STIM_011.jpg
2528.03	0.619	correct	repeat	Run3	repeat/STIM_011.jpg
2531.196	0.702	correct	repeat	Run3	repeat/STIM_012.jpg
2535.421	0.6	correct	repeat	Run3	repeat/STIM_012.jpg
2538.867	0.595	correct	repeat	Run3	repeat/STIM_012.jpg
2542.321	0.613	correct	repeat	Run3	repeat/STIM_012.jpg
2545.173	0.479	correct	repeat	Run3	repeat/STIM_012.jpg
2549.231	0.664	correct	repeat	Run3	repeat/STIM_013.jpg
2553.281	0.546	correct	repeat	Run3	repeat/STIM_013.jpg
2557.51	0.592	correct	repeat	Run3	repeat/STIM_013.jpg
2561.642	0.631	correct	repeat	Run3	repeat/STIM_013.jpg
2564.994	0.635	correct	repeat	Run3	repeat/STIM_013.jpg
2567.971	0.927	correct	repeat	Run3	repeat/STIM_014.jpg
2572.567	0.591	correct	repeat	Run3	repeat/STIM_014.jpg
2576.273	0.498	correct	repeat	Run3	repeat/STIM_014.jpg
2580.475	0.621	correct	repeat	Run3	repeat/STIM_014.jpg
2584.097	0.784	correct	repeat	Run3	repeat/STIM_014.jpg
2588.942	1.725	correct	generate	Run4	generate/STIM_000.jpg
2593.952	1.336	correct	generate	Run4	generate/STIM_000.jpg
2599.001	0.677	correct	generate	Run4	generate/STIM_000.jpg
2602.044	1.667	correct	generate	Run4	generate/STIM_000.jpg
2607.893	1.121	correct	generate	Run4	generate/STIM_000.jpg
2611.495	1.779	correct	generate	Run4	generate/STIM_001.jpg
2615.748	1.213	correct	generate	Run4	generate/STIM_001.jpg
2620.097	1.249	correct	generate	Run4	generate/STIM_001.jpg
2625.2	0.807	correct	generate	Run4	generate/STIM_001.jpg
2629.977	1.169	correct	generate	Run4	generate/STIM_001.jpg
2633.831	0.872	correct	generate	Run4	generate/STIM_002.jpg
2638.786	0.752	correct	generate	Run4	generate/STIM_002.jpg
2642.57	0.694	correct	generate	Run4	generate/STIM_002.jpg
2645.604	1.747	correct	generate	Run4	generate/STIM_002.jpg
2650.005	1.586	correct	generate	Run4	generate/STIM_002.jpg
2654.429	1.441	correct	generate	Run4	generate/STIM_003.jpg
2658.289	1.436	correct	generate	Run4	generate/STIM_003.jpg
2663.313	1.098	correct	generate	Run4	generate/STIM_003.jpg
2666.755	0.763	correct	generate	Run4	generate/STIM_003.jpg
2671.251	0.982	correct	generate	Run4	generate/STIM_003.jpg
2674.397	0.758	correct	generate	Run4	generate/STIM_004.jpg
2678.69	1.077	correct	generate	Run4	generate/STIM_004.jpg
2683.34	1.265	correct	generate	Run4	generate/STIM_004.jpg
2688.008	0.926	correct	generate	Run4	generate/STIM_004.jpg
2691.21	0.912	correct	generate	Run4	generate/STIM_004.jpg
2694.771	1.735	correct	generate	Run4	generate/STIM_005.jpg
2699.435	0.885	correct	generate	Run4	generate/STIM_005.jpg
2703.735	1.5	correct	generate	Run4	generate/STIM_005.jpg
2708.319	1.004	correct	generate	Run4	generate/STIM_005.jpg
2713.307	1.485	correct	generate	Run4	generate/STIM_005.jpg
2717.868	0.895	correct	generate	Run4	generate/STIM_006.jpg
2722.257	0.786	correct	generate	Run4	generate/STIM_006.jpg
2725.756	1.243	correct	generate	Run4	generate/STIM_006.jpg
2729.609	1.407	correct	generate	Run4	generate/STIM_006.jpg
2735.001	1.032	correct	generate	Run4	generate/STIM_006.jpg
2740.009	1.164	correct	generate	Run4	generate/STIM_007.jpg
2743.828	1.618	correct	generate	Run4	generate/STIM_007.jpg
2748.944	1.794	correct	generate	Run4	generate/STIM_007.jpg
2753.901	1.538	correct	generate	Run4	generate/STIM_007.jpg
2758.96	1.806	correct	generate	Run4	generate/STIM_007.jpg
2763.839	1.15	correct	generate	Run4	generate/STIM_008.jpg
2767.603	1.255	correct	generate	Run4	generate/STIM_008.jpg
2772.473	1.176	correct	generate	Run4	generate/STIM_008.jpg
2776.938	1.468	correct	generate	Run4	generate/STIM_008.jpg
2781.778	1.652	correct	generate	Run4	generate/STIM_008.jpg
2787.208	1.592	incorrect	generate	Run4	generate/STIM_009.jpg
2791.454	1.234	correct	generate	Run4	generate/STIM_009.jpg
2795.095	1.596	correct	generate	Run4	generate/STIM_009.jpg
2798.888	1.74	correct	generate	Run4	generate/STIM_009.jpg
2804.367	0.901	correct	generate	Run4	generate/STIM_009.jpg
2808.734	1.256	correct	generate	Run4	generate/STIM_010.jpg
2813.116	1.596	correct	generate	Run4	generate/STIM_010.jpg
2818.995	1.054	correct	generate	Run4	generate/STIM_010.jpg
2822.71	1.083	correct	generate	Run4	generate/STIM_010.jpg
2826.852	1.644	correct	generate	Run4	generate/STIM_010.jpg
2831.508	1.575	correct	generate	Run4	generate/STIM_011.jpg
2835.766	1.139	correct	generate	Run4	generate/STIM_011.jpg
2840.983	0.915	correct	generate	Run4	generate/STIM_011.jpg
2844.169	1.61	correct	generate	Run4	generate/STIM_011.jpg
2849.676	1.253	correct	generate	Run4	generate/STIM_011.jpg
2854.292	0.96	correct	generate	Run4	generate/STIM_012.jpg
2857.945	1.503	correct	generate	Run4	generate/STIM_012.jpg
2862.184	1.448	correct	generate	Run4	generate/STIM_012.jpg
2867.524	1.676	correct	generate	Run4	generate/STIM_012.jpg
2871.76	0.767	correct	generate	Run4	generate/STIM_012.jpg
2876.502	1.171	correct	generate	Run4	generate/STIM_013.jpg
2881.166	1.206	correct	generate	Run4	generate/STIM_013.jpg
2886.219	1.215	correct	generate	Run4	generate/STIM_013.jpg
2890.509	0.99	correct	generate	Run4	generate/STIM_013.jpg
2894.579	1.601	correct	generate	Run4	generate/STIM_013.jpg
2899.739	1.662	correct	generate	Run4	generate/STIM_014.jpg
2905.405	1.756	correct	generate	Run4	generate/STIM_014.jpg
2910.462	0.813	correct	generate	Run4	generate/STIM_014.jpg
2913.903	1.801	correct	generate	Run4	generate/STIM_014.jpg
2918.78	1.519	correct	generate	Run4	generate/STIM_014.jpg
2924.249	0.987	incorrect	generate	Run4	generate/STIM_015.jpg
2928.811	0.826	correct	generate	Run4	generate/STIM_015.jpg
2933.532	0.874	correct	generate	Run4	generate/STIM_015.jpg
2936.847	1.222	correct	generate	Run4	generate/STIM_015.jpg
2941.663	0.995	correct	generate	Run4	generate/STIM_015.jpg
2945.978	1.603	correct	generate	Run4	generate/STIM_016.jpg
2950.258	0.916	correct	generate	Run4	generate/STIM_016.jpg
2954.141	1.644	correct	generate	Run4	generate/STIM_016.jpg
2958.184	1.388	correct	generate	Run4	generate/STIM_016.jpg
2961.961	0.95	correct	generate	Run4	generate/STIM_016.jpg
2966.497	0.992	correct	generate	Run4	generate/STIM_017.jpg
2970.696	1.515	correct	generate	Run4	generate/STIM_017.jpg
2974.747	1.444	correct	generate	Run4	generate/STIM_017.jpg
2979.112	0.902	correct	generate	Run4	generate/STIM_017.jpg
2982.794	0.93	correct	generate	Run4	generate/STIM_017.jpg
2986.976	0.878	correct	generate	Run4	generate/STIM_018.jpg
2990.792	1.332	correct	generate	Run4	generate/STIM_018.jpg
2994.543	1.563	correct	generate	Run4	generate/STIM_018.jpg
3000.115	1.508	correct	generate	Run4	generate/STIM_018.jpg
3005.834	1.166	correct	generate	Run4	generate/STIM_018.jpg
3010.195	1.169	correct	generate	Run4	generate/STIM_019.jpg
3013.653	1.666	correct	generate	Run4	generate/STIM_019.jpg
3019.654	1.373	correct	generate	Run4	generate/STIM_019.jpg
3024.907	1.62	correct	generate	Run4	generate/STIM_019.jpg
3029.922	1.03	correct	generate	Run4	generate/STIM_019.jpg
3033.288	1.136	correct	generate	Run4	generate/STIM_020.jpg
3036.703	1.518	correct	generate	Run4	generate/STIM_020.jpg
3042.017	1.72	correct	generate	Run4	generate/STIM_020.jpg
3047.663	1.303	correct	generate	Run4	generate/STIM_020.jpg
3051.475	1.631	correct	generate	Run4	generate/STIM_020.jpg
3056.089	1.094	correct	generate	Run4	generate/STIM_021.jpg
3060.402	1.253	correct	generate	Run4	generate/STIM_021.jpg
3064.752	1.414	correct	generate	Run4	generate/STIM_021.jpg
3069.754	1.468	correct	generate	Run4	generate/STIM_021.jpg
3075.542	1.506	correct	generate	Run4	generate/STIM_021.jpg
3080.679	1.034	correct	generate	Run4	generate/STIM_022.jpg
3084.668	1.022	correct	generate	Run4	generate/STIM_022.jpg
3089.42	1.221	correct	generate	Run4	generate/STIM_022.jpg
3094.476	1.631	correct	generate	Run4	generate/STIM_022.jpg
3099.07	1.206	correct	generate	Run4	generate/STIM_022.jpg
3102.724	1.469	correct	generate	Run4	generate/STIM_023.jpg
3107.739	1.739	correct	generate	Run4	generate/STIM_023.jpg
3111.895	1.27	correct	generate	Run4	generate/STIM_023.jpg
3116.883	1.789	correct	generate	Run4	generate/STIM_023.jpg
3121.772	0.816	correct	generate	Run4	generate/STIM_023.jpg
3125.554	1.192	correct	generate	Run4	generate/STIM_024.jpg
3129.407	0.712	correct	generate	Run4	generate/STIM_024.jpg
3132.787	1.638	correct	generate	Run4	generate/STIM_024.jpg
3137.942	1.784	correct	generate	Run4	generate/STIM_024.jpg
3143.882	0.791	correct	generate	Run4	generate/STIM_024.jpg
3148.412	0.548	correct	repeat	Run4	repeat/STIM_000.jpg
3151.395	0.585	correct	repeat	Run4	repeat/STIM_000.jpg
3155.655	0.621	incorrect	repeat	Run4	repeat/STIM_000.jpg
3159.421	0.47	correct	repeat	Run4	repeat/STIM_000.jpg
3162.376	0.81	correct	repeat	Run4	repeat/STIM_000.jpg
3166.096	0.73	correct	repeat	Run4	repeat/STIM_001.jpg
3169.335	0.563	correct	repeat	Run4	repeat/STIM_001.jpg
3172.257	0.581	correct	repeat	Run4	repeat/STIM_001.jpg
3175.673	0.611	correct	repeat	Run4	repeat/STIM_001.jpg
3179.877	0.486	correct	repeat	Run4	repeat/STIM_001.jpg
3182.76	0.684	correct	repeat	Run4	repeat/STIM_002.jpg
3187.144	0.666	correct	repeat	Run4	repeat/STIM_002.jpg
3190.036	0.773	correct	repeat	Run4	repeat/STIM_002.jpg
3193.781	0.593	correct	repeat	Run4	repeat/STIM_002.jpg
3198.138	0.417	correct	repeat	Run4	repeat/STIM_002.jpg
3201.023	0.635	correct	repeat	Run4	repeat/STIM_003.jpg
3204.419	0.759	correct	repeat	Run4	repeat/STIM_003.jpg
3208.571	0.346	correct	repeat	Run4	repeat/STIM_003.jpg
3212.953	0.597	correct	repeat	Run4	repeat/STIM_003.jpg
3215.946	0.688	correct	repeat	Run4	repeat/STIM_003.jpg
3219.988	0.563	correct	repeat	Run4	repeat/STIM_004.jpg
3223.204	0.472	correct	repeat	Run4	repeat/STIM_004.jpg
3226.857	0.787	correct	repeat	Run4	repeat/STIM_004.jpg
3230.572	0.557	correct	repeat	Run4	repeat/STIM_004.jpg
3235.018	0.623	correct	repeat	Run4	repeat/STIM_004.jpg
3238.681	0.636	correct	repeat	Run4	repeat/STIM_005.jpg
3243.009	0.919	correct	repeat	Run4	repeat/STIM_005.jpg
3247.486	0.74	correct	repeat	Run4	repeat/STIM_005.jpg
3251.579	0.759	correct	repeat	Run4	repeat/STIM_005.jpg
3255.261	0.624	correct	repeat	Run4	repeat/STIM_005.jpg
3258.716	0.539	correct	repeat	Run4	repeat/STIM_006.jpg
3261.922	0.556	correct	repeat	Run4	repeat/STIM_006.jpg
3264.772	0.601	correct	repeat	Run4	repeat/STIM_006.jpg
3268.485	0.825	correct	repeat	Run4	repeat/STIM_006.jpg
3272.875	0.593	correct	repeat	Run4	repeat/STIM_006.jpg
3276.112	0.688	correct	repeat	Run4	repeat/STIM_007.jpg
3280.434	0.545	correct	repeat	Run4	repeat/STIM_007.jpg
3284.505	0.57	correct	repeat	Run4	repeat/STIM_007.jpg
3288.125	0.599	correct	repeat	Run4	repeat/STIM_007.jpg
3291.898	0.535	correct	repeat	Run4	repeat/STIM_007.jpg
3295.945	0.544	correct	repeat	Run4	repeat/STIM_008.jpg
3298.716	0.61	correct	repeat	Run4	repeat/STIM_008.jpg
3302.873	0.516	correct	repeat	Run4	repeat/STIM_008.jpg
3306.908	0.766	correct	repeat	Run4	repeat/STIM_008.jpg
3310.872	0.655	correct	repeat	Run4	repeat/STIM_008.jpg
3314.662	0.412	correct	repeat	Run4	repeat/STIM_009.jpg
3318.315	0.799	correct	repeat	Run4	repeat/STIM_009.jpg
3323.242	0.686	correct	repeat	Run4	repeat/STIM_009.jpg
3327.71	0.463	correct	repeat	Run4	repeat/STIM_009.jpg
3331.627	0.432	correct	repeat	Run4	repeat/STIM_009.jpg
3335.199	0.815	correct	repeat	Run4	repeat/STIM_010.jpg
3339.792	0.394	correct	repeat	Run4	repeat/STIM_010.jpg
3343.211	0.97	correct	repeat	Run4	repeat/STIM_010.jpg
3348.022	0.495	correct	repeat	Run4	repeat/STIM_010.jpg
3352.061	0.504	correct	repeat	Run4	repeat/STIM_010.jpg
3354.882	0.669	correct	repeat	Run4	repeat/STIM_011.jpg
3358.916	0.389	correct	repeat	Run4	repeat/STIM_011.jpg
3363.079	0.662	correct	repeat	Run4	repeat/STIM_011.jpg
3366.313	0.794	correct	repeat	Run4	repeat/STIM_011.jpg
3370.587	0.733	correct	repeat	Run4	repeat/STIM_011.jpg
3373.568	0.6	incorrect	repeat	Run4	repeat/STIM_012.jpg
3378.16	0.697	correct	repeat	Run4	repeat/STIM_012.jpg
3382.598	0.62	correct	repeat	Run4	repeat/STIM_012.jpg
3386.191	0.447	incorrect	repeat	Run4	repeat/STIM_012.jpg
3390.322	0.441	correct	repeat	Run4	repeat/STIM_012.jpg
3393.902	0.752	correct	repeat	Run4	repeat/STIM_013.jpg
3397.497	0.632	correct	repeat	Run4	repeat/STIM_013.jpg
3402.173	0.635	correct	repeat	Run4	repeat/STIM_013.jpg
3405.788	0.508	correct	repeat	Run4	repeat/STIM_013.jpg
3409.042	0.627	correct	repeat	Run4	repeat/STIM_013.jpg
3413.138	0.603	correct	repeat	Run4	repeat/STIM_014.jpg
3417.728	0.617	correct	repeat	Run4	repeat/STIM_014.jpg
3420.805	0.808	correct	repeat	Run4	repeat/STIM_014.jpg
3425.311	0.573	correct	repeat	Run4	repeat/STIM_014.jpg
3428.255	0.65	correct	repeat	Run4	repeat/STIM_014.jpg
