onset	duration	accuracy_binary	trial_type	learning_stage	stimulus
0.0	1.323	1	generate	Run1	generate/STIM_000.jpg
5.001	1.237	1	generate	Run1	generate/STIM_000.jpg
8.305	1.282	1	generate	Run1	generate/STIM_000.jpg
12.534	1.72	1	generate	Run1	generate/STIM_000.jpg
17.83	1.477	0	generate	Run1	generate/STIM_000.jpg
23.101	1.815	1	generate	Run1	generate/STIM_001.jpg
27.827	2.117	1	generate	Run1	generate/STIM_001.jpg
33.241	1.173	0	generate	Run1	generate/STIM_001.jpg
38.13	1.564	1	generate	Run1	generate/STIM_001.jpg
42.92	1.558	1	generate	Run1	generate/STIM_001.jpg
46.994	2.118	0	generate	Run1	generate/STIM_002.jpg
52.388	2.32	1	generate	Run1	generate/STIM_002.jpg
57.521	1.524	1	generate	Run1	generate/STIM_002.jpg
62.305	1.25	1	generate	Run1	generate/STIM_002.jpg
66.689	1.163	0	generate	Run1	generate/STIM_002.jpg
70.419	2.258	1	generate	Run1	generate/STIM_003.jpg
75.558	1.895	1	generate	Run1	generate/STIM_003.jpg
79.617	1.928	0	generate	Run1	generate/STIM_003.jpg
85.151	1.384	1	generate	Run1	generate/STIM_003.jpg
88.998	1.972	0	generate	Run1	generate/STIM_003.jpg
93.927	1.684	1	generate	Run1	generate/STIM_004.jpg
97.771	1.559	1	generate	Run1	generate/STIM_004.jpg
103.074	1.296	1	generate	Run1	generate/STIM_004.jpg
107.78	0.913	1	generate	Run1	generate/STIM_004.jpg
111.221	1.592	0	generate	Run1	generate/STIM_004.jpg
115.742	1.849	1	generate	Run1	generate/STIM_005.jpg
121.385	2.32	1	generate	Run1	generate/STIM_005.jpg
127.468	1.692	1	generate	Run1	generate/STIM_005.jpg
132.194	1.408	1	generate	Run1	generate/STIM_005.jpg
136.399	1.144	0	generate	Run1	generate/STIM_005.jpg
139.911	1.662	1	generate	Run1	generate/STIM_006.jpg
144.93	0.989	1	generate	Run1	generate/STIM_006.jpg
149.389	1.153	0	generate	Run1	generate/STIM_006.jpg
153.358	1.222	0	generate	Run1	generate/STIM_006.jpg
158.156	1.38	1	generate	Run1	generate/STIM_006.jpg
163.032	1.829	1	generate	Run1	generate/STIM_007.jpg
168.351	2.292	0	generate	Run1	generate/STIM_007.jpg
172.796	2.212	1	generate	Run1	generate/STIM_007.jpg
177.965	1.858	0	generate	Run1	generate/STIM_007.jpg
183.513	1.564	1	generate	Run1	generate/STIM_007.jpg
189.046	2.259	0	generate	Run1	generate/STIM_008.jpg
194.757	2.008	0	generate	Run1	generate/STIM_008.jpg
199.514	2.212	0	generate	Run1	generate/STIM_008.jpg
204.842	1.123	0	generate	Run1	generate/STIM_008.jpg
209.726	1.685	1	generate	Run1	generate/STIM_008.jpg
213.465	1.38	1	generate	Run1	generate/STIM_009.jpg
218.527	0.976	1	generate	Run1	generate/STIM_009.jpg
222.199	1.992	1	generate	Run1	generate/STIM_009.jpg
227.53	1.143	1	generate	Run1	generate/STIM_009.jpg
231.447	0.995	0	generate	Run1	generate/STIM_009.jpg
236.398	2.073	0	generate	Run1	generate/STIM_010.jpg
240.653	1.208	0	generate	Run1	generate/STIM_010.jpg
244.997	2.02	1	generate	Run1	generate/STIM_010.jpg
249.933	0.92	0	generate	Run1	generate/STIM_010.jpg
253.741	1.28	1	generate	Run1	generate/STIM_010.jpg
258.462	2.05	1	generate	Run1	generate/STIM_011.jpg
262.597	1.288	1	generate	Run1	generate/STIM_011.jpg
267.004	1.227	1	generate	Run1	generate/STIM_011.jpg
270.294	1.486	1	generate	Run1	generate/STIM_011.jpg
274.031	1.46	1	generate	Run1	generate/STIM_011.jpg
278.504	2.361	0	generate	Run1	generate/STIM_012.jpg
284.681	1.712	0	generate	Run1	generate/STIM_012.jpg
288.815	1.279	1	generate	Run1	generate/STIM_012.jpg
293.613	1.688	1	generate	Run1	generate/STIM_012.jpg
299.184	1.264	0	generate	Run1	generate/STIM_012.jpg
304.189	2.371	1	generate	Run1	generate/STIM_013.jpg
308.954	1.145	1	generate	Run1	generate/STIM_013.jpg
312.563	1.041	0	generate	Run1	generate/STIM_013.jpg
317.551	1.136	0	generate	Run1	generate/STIM_013.jpg
322.435	1.721	1	generate	Run1	generate/STIM_013.jpg
326.788	2.159	1	generate	Run1	generate/STIM_014.jpg
332.524	1.031	1	generate	Run1	generate/STIM_014.jpg
337.443	1.156	0	generate	Run1	generate/STIM_014.jpg
342.088	0.872	0	generate	Run1	generate/STIM_014.jpg
345.721	0.827	0	generate	Run1	generate/STIM_014.jpg
350.265	1.02	1	generate	Run1	generate/STIM_015.jpg
354.485	1.383	0	generate	Run1	generate/STIM_015.jpg
358.942	0.93	1	generate	Run1	generate/STIM_015.jpg
362.105	1.119	0	generate	Run1	generate/STIM_015.jpg
366.15	1.592	0	generate	Run1	generate/STIM_015.jpg
371.741	2.071	0	generate	Run1	generate/STIM_016.jpg
377.192	1.431	1	generate	Run1	generate/STIM_016.jpg
382.546	1.526	1	generate	Run1	generate/STIM_016.jpg
388.023	1.033	1	generate	Run1	generate/STIM_016.jpg
392.682	1.327	1	generate	Run1	generate/STIM_016.jpg
396.187	1.472	1	generate	Run1	generate/STIM_017.jpg
400.361	1.107	0	generate	Run1	generate/STIM_017.jpg
404.683	1.984	0	generate	Run1	generate/STIM_017.jpg
410.159	0.876	0	generate	Run1	generate/STIM_017.jpg
414.421	1.428	0	generate	Run1	generate/STIM_017.jpg
418.445	1.322	1	generate	Run1	generate/STIM_018.jpg
422.188	1.828	1	generate	Run1	generate/STIM_018.jpg
427.339	1.131	0	generate	Run1	generate/STIM_018.jpg
432.34	0.85	1	generate	Run1	generate/STIM_018.jpg
436.191	0.792	0	generate	Run1	generate/STIM_018.jpg
439.092	2.107	1	generate	Run1	generate/STIM_019.jpg
443.456	1.144	0	generate	Run1	generate/STIM_019.jpg
448.541	1.996	0	generate	Run1	generate/STIM_019.jpg
453.477	1.906	0	generate	Run1	generate/STIM_019.jpg
458.632	1.913	1	generate	Run1	generate/STIM_019.jpg
463.342	2.098	1	generate	Run1	generate/STIM_020.jpg
468.221	0.94	1	generate	Run1	generate/STIM_020.jpg
472.008	1.997	0	generate	Run1	generate/STIM_020.jpg
477.483	1.133	1	generate	Run1	generate/STIM_020.jpg
481.695	1.166	1	generate	Run1	generate/STIM_020.jpg
485.086	2.226	1	generate	Run1	generate/STIM_021.jpg
490.053	1.172	1	generate	Run1	generate/STIM_021.jpg
493.443	1.97	1	generate	Run1	generate/STIM_021.jpg
497.657	1.507	1	generate	Run1	generate/STIM_021.jpg
501.315	1.385	1	generate	Run1	generate/STIM_021.jpg
506.075	1.03	1	generate	Run1	generate/STIM_022.jpg
509.713	1.454	0	generate	Run1	generate/STIM_022.jpg
514.449	1.825	0	generate	Run1	generate/STIM_022.jpg
519.684	1.136	1	generate	Run1	generate/STIM_022.jpg
524.172	1.263	1	generate	Run1	generate/STIM_022.jpg
527.966	1.748	0	generate	Run1	generate/STIM_023.jpg
533.446	1.477	0	generate	Run1	generate/STIM_023.jpg
537.19	1.785	0	generate	Run1	generate/STIM_023.jpg
541.743	1.518	0	generate	Run1	generate/STIM_023.jpg
545.639	1.634	0	generate	Run1	generate/STIM_023.jpg
550.832	2.203	0	generate	Run1	generate/STIM_024.jpg
556.386	0.937	1	generate	Run1	generate/STIM_024.jpg
560.011	1.786	1	generate	Run1	generate/STIM_024.jpg
565.025	1.999	1	generate	Run1	generate/STIM_024.jpg
569.675	1.592	1	generate	Run1	generate/STIM_024.jpg
573.457	0.57	1	repeat	Run1	repeat/STIM_000.jpg
576.39	0.474	1	repeat	Run1	repeat/STIM_000.jpg
579.711	0.509	1	repeat	Run1	repeat/STIM_000.jpg
583.637	0.72	1	repeat	Run1	repeat/STIM_000.jpg
588.043	0.778	1	repeat	Run1	repeat/STIM_000.jpg
591.214	0.756	1	repeat	Run1	repeat/STIM_001.jpg
594.327	0.613	1	repeat	Run1	repeat/STIM_001.jpg
597.677	0.53	1	repeat	Run1	repeat/STIM_001.jpg
600.294	0.505	0	repeat	Run1	repeat/STIM_001.jpg
603.68	0.524	1	repeat	Run1	repeat/STIM_001.jpg
607.497	0.531	1	repeat	Run1	repeat/STIM_002.jpg
610.176	0.611	1	repeat	Run1	repeat/STIM_002.jpg
614.187	0.539	1	repeat	Run1	repeat/STIM_002.jpg
618.049	0.536	1	repeat	Run1	repeat/STIM_002.jpg
620.685	0.733	0	repeat	Run1	repeat/STIM_002.jpg
623.81	0.769	1	repeat	Run1	repeat/STIM_003.jpg
628.499	0.532	0	repeat	Run1	repeat/STIM_003.jpg
632.839	0.474	1	repeat	Run1	repeat/STIM_003.jpg
637.222	0.712	1	repeat	Run1	repeat/STIM_003.jpg
641.67	0.687	1	repeat	Run1	repeat/STIM_003.jpg
645.527	0.568	0	repeat	Run1	repeat/STIM_004.jpg
648.974	0.568	1	repeat	Run1	repeat/STIM_004.jpg
652.994	0.696	1	repeat	Run1	repeat/STIM_004.jpg
656.583	0.595	1	repeat	Run1	repeat/STIM_004.jpg
659.735	0.525	1	repeat	Run1	repeat/STIM_004.jpg
663.346	0.554	1	repeat	Run1	repeat/STIM_005.jpg
667.358	0.77	1	repeat	Run1	repeat/STIM_005.jpg
671.177	0.693	1	repeat	Run1	repeat/STIM_005.jpg
674.145	0.485	1	repeat	Run1	repeat/STIM_005.jpg
677.468	0.606	1	repeat	Run1	repeat/STIM_005.jpg
680.353	0.538	1	repeat	Run1	repeat/STIM_006.jpg
684.852	0.805	1	repeat	Run1	repeat/STIM_006.jpg
689.249	0.721	1	repeat	Run1	repeat/STIM_006.jpg
692.708	0.634	1	repeat	Run1	repeat/STIM_006.jpg
696.961	0.581	1	repeat	Run1	repeat/STIM_006.jpg
701.134	0.542	1	repeat	Run1	repeat/STIM_007.jpg
704.082	0.744	1	repeat	Run1	repeat/STIM_007.jpg
707.875	0.7	1	repeat	Run1	repeat/STIM_007.jpg
711.756	0.554	0	repeat	Run1	repeat/STIM_007.jpg
714.808	0.552	1	repeat	Run1	repeat/STIM_007.jpg
717.453	0.528	0	repeat	Run1	repeat/STIM_008.jpg
721.356	0.769	1	repeat	Run1	repeat/STIM_008.jpg
726.061	0.745	1	repeat	Run1	repeat/STIM_008.jpg
730.149	0.723	1	repeat	Run1	repeat/STIM_008.jpg
733.429	0.81	1	repeat	Run1	repeat/STIM_008.jpg
738.074	0.767	1	repeat	Run1	repeat/STIM_009.jpg
741.085	0.811	1	repeat	Run1	repeat/STIM_009.jpg
744.441	0.734	1	repeat	Run1	repeat/STIM_009.jpg
748.929	0.573	1	repeat	Run1	repeat/STIM_009.jpg
752.311	0.47	1	repeat	Run1	repeat/STIM_009.jpg
754.927	0.673	1	repeat	Run1	repeat/STIM_010.jpg
759.584	0.78	1	repeat	Run1	repeat/STIM_010.jpg
763.014	0.54	1	repeat	Run1	repeat/STIM_010.jpg
765.963	0.462	1	repeat	Run1	repeat/STIM_010.jpg
770.34	0.626	1	repeat	Run1	repeat/STIM_010.jpg
774.805	0.521	1	repeat	Run1	repeat/STIM_011.jpg
778.586	0.499	1	repeat	Run1	repeat/STIM_011.jpg
781.474	0.601	1	repeat	Run1	repeat/STIM_011.jpg
785.853	0.638	1	repeat	Run1	repeat/STIM_011.jpg
789.196	0.812	1	repeat	Run1	repeat/STIM_011.jpg
793.516	0.657	1	repeat	Run1	repeat/STIM_012.jpg
798.128	0.654	1	repeat	Run1	repeat/STIM_012.jpg
802.347	0.468	1	repeat	Run1	repeat/STIM_012.jpg
805.046	0.585	1	repeat	Run1	repeat/STIM_012.jpg
809.303	0.428	1	repeat	Run1	repeat/STIM_012.jpg
813.37	0.638	0	repeat	Run1	repeat/STIM_013.jpg
817.51	0.449	1	repeat	Run1	repeat/STIM_013.jpg
819.98	0.661	1	repeat	Run1	repeat/STIM_013.jpg
822.846	0.441	1	repeat	Run1	repeat/STIM_013.jpg
825.549	0.502	1	repeat	Run1	repeat/STIM_013.jpg
829.332	0.808	1	repeat	Run1	repeat/STIM_014.jpg
833.695	0.522	1	repeat	Run1	repeat/STIM_014.jpg
836.792	0.755	1	repeat	Run1	repeat/STIM_014.jpg
840.478	0.58	1	repeat	Run1	repeat/STIM_014.jpg
844.819	0.564	1	repeat	Run1	repeat/STIM_014.jpg
848.053	1.174	0	generate	Run2	generate/STIM_000.jpg
853.019	1.038	0	generate	Run2	generate/STIM_000.jpg
856.436	1.818	1	generate	Run2	generate/STIM_000.jpg
862.203	0.881	1	generate	Run2	generate/STIM_000.jpg
865.856	0.965	1	generate	Run2	generate/STIM_000.jpg
870.718	2.036	1	generate	Run2	generate/STIM_001.jpg
875.423	1.283	0	generate	Run2	generate/STIM_001.jpg
879.072	1.689	1	generate	Run2	generate/STIM_001.jpg
883.525	1.689	1	generate	Run2	generate/STIM_001.jpg
888.694	0.848	1	generate	Run2	generate/STIM_001.jpg
892.683	0.867	0	generate	Run2	generate/STIM_002.jpg
897.067	0.791	1	generate	Run2	generate/STIM_002.jpg
899.981	1.683	1	generate	Run2	generate/STIM_002.jpg
905.604	1.34	1	generate	Run2	generate/STIM_002.jpg
910.92	1.176	1	generate	Run2	generate/STIM_002.jpg
915.507	1.075	1	generate	Run2	generate/STIM_003.jpg
918.769	1.322	1	generate	Run2	generate/STIM_003.jpg
923.267	1.604	0	generate	Run2	generate/STIM_003.jpg
927.704	1.02	1	generate	Run2	generate/STIM_003.jpg
932.244	1.358	1	generate	Run2	generate/STIM_003.jpg
937.579	0.946	1	generate	Run2	generate/STIM_004.jpg
941.4	1.366	0	generate	Run2	generate/STIM_004.jpg
946.245	1.221	0	generate	Run2	generate/STIM_004.jpg
950.151	1.083	1	generate	Run2	generate/STIM_004.jpg
954.897	1.146	1	generate	Run2	generate/STIM_004.jpg
958.588	1.823	1	generate	Run2	generate/STIM_005.jpg
963.981	1.037	1	generate	Run2	generate/STIM_005.jpg
967.839	1.44	1	generate	Run2	generate/STIM_005.jpg
972.247	1.482	1	generate	Run2	generate/STIM_005.jpg
976.43	0.759	1	generate	Run2	generate/STIM_005.jpg
980.249	1.872	1	generate	Run2	generate/STIM_006.jpg
985.012	1.694	1	generate	Run2	generate/STIM_006.jpg
990.498	1.202	1	generate	Run2	generate/STIM_006.jpg
995.629	0.759	1	generate	Run2	generate/STIM_006.jpg
999.87	0.717	1	generate	Run2	generate/STIM_006.jpg
1003.835	1.96	0	generate	Run2	generate/STIM_007.jpg
1008.721	1.841	0	generate	Run2	generate/STIM_007.jpg
1013.896	1.331	1	generate	Run2	generate/STIM_007.jpg
1017.727	0.788	1	generate	Run2	generate/STIM_007.jpg
1021.292	1.388	1	generate	Run2	generate/STIM_007.jpg
1025.399	1.296	1	generate	Run2	generate/STIM_008.jpg
1029.219	1.15	1	generate	Run2	generate/STIM_008.jpg
1033.952	0.908	1	generate	Run2	generate/STIM_008.jpg
1038.725	1.235	1	generate	Run2	generate/STIM_008.jpg
1043.581	1.34	0	generate	Run2	generate/STIM_008.jpg
1048.269	1.692	1	generate	Run2	generate/STIM_009.jpg
1053.582	1.062	0	generate	Run2	generate/STIM_009.jpg
1057.069	0.819	1	generate	Run2	generate/STIM_009.jpg
1060.318	0.692	1	generate	Run2	generate/STIM_009.jpg
1063.883	1.615	0	generate	Run2	generate/STIM_009.jpg
1068.264	1.188	0	generate	Run2	generate/STIM_010.jpg
1073.154	0.797	0	generate	Run2	generate/STIM_010.jpg
1076.229	1.09	1	generate	Run2	generate/STIM_010.jpg
1080.459	0.829	0	generate	Run2	generate/STIM_010.jpg
1083.482	0.694	1	generate	Run2	generate/STIM_010.jpg
1086.219	1.6	1	generate	Run2	generate/STIM_011.jpg
1091.584	1.218	0	generate	Run2	generate/STIM_011.jpg
1096.424	0.986	1	generate	Run2	generate/STIM_011.jpg
1099.742	1.548	1	generate	Run2	generate/STIM_011.jpg
1104.459	1.238	1	generate	Run2	generate/STIM_011.jpg
1108.236	1.697	0	generate	Run2	generate/STIM_012.jpg
1112.723	0.839	1	generate	Run2	generate/STIM_012.jpg
1115.719	1.43	1	generate	Run2	generate/STIM_012.jpg
1119.529	1.391	1	generate	Run2	generate/STIM_012.jpg
1124.115	1.058	0	generate	Run2	generate/STIM_012.jpg
1128.452	1.302	1	generate	Run2	generate/STIM_013.jpg
1133.297	1.55	1	generate	Run2	generate/STIM_013.jpg
1138.332	0.968	1	generate	Run2	generate/STIM_013.jpg
1141.967	1.093	1	generate	Run2	generate/STIM_013.jpg
1145.096	0.705	1	generate	Run2	generate/STIM_013.jpg
1149.437	1.398	0	generate	Run2	generate/STIM_014.jpg
1152.981	0.969	1	generate	Run2	generate/STIM_014.jpg
1157.768	0.74	1	generate	Run2	generate/STIM_014.jpg
1160.795	1.68	1	generate	Run2	generate/STIM_014.jpg
1166.21	0.915	0	generate	Run2	generate/STIM_014.jpg
1169.956	1.526	1	generate	Run2	generate/STIM_015.jpg
1173.609	0.928	1	generate	Run2	generate/STIM_015.jpg
1178.401	1.456	0	generate	Run2	generate/STIM_015.jpg
1183.173	1.104	1	generate	Run2	generate/STIM_015.jpg
1188.073	1.38	1	generate	Run2	generate/STIM_015.jpg
1192.895	1.948	1	generate	Run2	generate/STIM_016.jpg
1198.712	1.933	1	generate	Run2	generate/STIM_016.jpg
1203.212	1.37	1	generate	Run2	generate/STIM_016.jpg
1207.762	0.784	1	generate	Run2	generate/STIM_016.jpg
1212.177	1.604	1	generate	Run2	generate/STIM_016.jpg
1217.529	1.849	1	generate	Run2	generate/STIM_017.jpg
1223.2	1.044	0	generate	Run2	generate/STIM_017.jpg
1226.87	1.547	1	generate	Run2	generate/STIM_017.jpg
1231.756	0.863	1	generate	Run2	generate/STIM_017.jpg
1234.82	1.0	1	generate	Run2	generate/STIM_017.jpg
1238.372	0.981	1	generate	Run2	generate/STIM_018.jpg
1243.341	1.894	0	generate	Run2	generate/STIM_018.jpg
1247.338	1.498	1	generate	Run2	generate/STIM_018.jpg
1252.399	1.155	1	generate	Run2	generate/STIM_018.jpg
1257.249	1.291	0	generate	Run2	generate/STIM_018.jpg
1261.877	1.346	0	generate	Run2	generate/STIM_019.jpg
1266.077	1.382	1	generate	Run2	generate/STIM_019.jpg
1271.455	1.147	1	generate	Run2	generate/STIM_019.jpg
1276.179	1.1	1	generate	Run2	generate/STIM_019.jpg
1279.93	1.111	1	generate	Run2	generate/STIM_019.jpg
1283.995	1.556	1	generate	Run2	generate/STIM_020.jpg
1287.861	1.06	0	generate	Run2	generate/STIM_020.jpg
1292.778	1.379	1	generate	Run2	generate/STIM_020.jpg
1298.089	0.987	0	generate	Run2	generate/STIM_020.jpg
1302.765	1.173	1	generate	Run2	generate/STIM_020.jpg
1307.012	0.881	0	generate	Run2	generate/STIM_021.jpg
1311.717	0.846	0	generate	Run2	generate/STIM_021.jpg
1316.559	1.22	1	generate	Run2	generate/STIM_021.jpg
1320.661	1.71	0	generate	Run2	generate/STIM_021.jpg
1324.61	1.45	1	generate	Run2	generate/STIM_021.jpg
1328.66	0.955	1	generate	Run2	generate/STIM_022.jpg
1332.874	1.797	1	generate	Run2	generate/STIM_022.jpg
1338.033	1.609	1	generate	Run2	generate/STIM_022.jpg
1342.081	0.913	1	generate	Run2	generate/STIM_022.jpg
1345.704	0.886	0	generate	Run2	generate/STIM_022.jpg
1350.549	1.382	1	generate	Run2	generate/STIM_023.jpg
1354.321	1.187	1	generate	Run2	generate/STIM_023.jpg
1358.701	0.969	1	generate	Run2	generate/STIM_023.jpg
1362.782	1.701	1	generate	Run2	generate/STIM_023.jpg
1367.242	0.907	1	generate	Run2	generate/STIM_023.jpg
1370.785	2.006	1	generate	Run2	generate/STIM_024.jpg
1376.039	1.314	0	generate	Run2	generate/STIM_024.jpg
1380.969	0.987	0	generate	Run2	generate/STIM_024.jpg
1384.032	1.13	1	generate	Run2	generate/STIM_024.jpg
1388.866	1.121	0	generate	Run2	generate/STIM_024.jpg
1393.692	0.682	1	repeat	Run2	repeat/STIM_000.jpg
1397.645	0.705	1	repeat	Run2	repeat/STIM_000.jpg
1401.601	0.659	0	repeat	Run2	repeat/STIM_000.jpg
1404.464	0.798	1	repeat	Run2	repeat/STIM_000.jpg
1407.945	0.717	1	repeat	Run2	repeat/STIM_000.jpg
1412.437	0.731	1	repeat	Run2	repeat/STIM_001.jpg
1416.095	0.592	1	repeat	Run2	repeat/STIM_001.jpg
1420.555	0.774	1	repeat	Run2	repeat/STIM_001.jpg
1424.792	0.44	1	repeat	Run2	repeat/STIM_001.jpg
1427.599	0.665	1	repeat	Run2	repeat/STIM_001.jpg
1431.064	0.533	0	repeat	Run2	repeat/STIM_002.jpg
1434.937	0.429	1	repeat	Run2	repeat/STIM_002.jpg
1438.471	0.781	1	repeat	Run2	repeat/STIM_002.jpg
1441.99	0.528	1	repeat	Run2	repeat/STIM_002.jpg
1444.973	0.468	1	repeat	Run2	repeat/STIM_002.jpg
1447.724	0.59	0	repeat	Run2	repeat/STIM_003.jpg
1451.19	0.742	1	repeat	Run2	repeat/STIM_003.jpg
1455.144	0.519	0	repeat	Run2	repeat/STIM_003.jpg
1458.883	0.679	1	repeat	Run2	repeat/STIM_003.jpg
1463.04	0.539	1	repeat	Run2	repeat/STIM_003.jpg
1467.564	0.419	0	repeat	Run2	repeat/STIM_004.jpg
1471.225	0.566	1	repeat	Run2	repeat/STIM_004.jpg
1474.691	0.784	1	repeat	Run2	repeat/STIM_004.jpg
1478.36	0.646	1	repeat	Run2	repeat/STIM_004.jpg
1481.606	0.817	1	repeat	Run2	repeat/STIM_004.jpg
1484.743	0.754	1	repeat	Run2	repeat/STIM_005.jpg
1489.469	0.421	1	repeat	Run2	repeat/STIM_005.jpg
1493.268	0.507	1	repeat	Run2	repeat/STIM_005.jpg
1495.796	0.527	1	repeat	Run2	repeat/STIM_005.jpg
1500.245	0.736	1	repeat	Run2	repeat/STIM_005.jpg
1503.327	0.695	1	repeat	Run2	repeat/STIM_006.jpg
1506.847	0.589	0	repeat	Run2	repeat/STIM_006.jpg
1511.278	0.815	1	repeat	Run2	repeat/STIM_006.jpg
1514.794	0.557	0	repeat	Run2	repeat/STIM_006.jpg
1518.597	0.456	1	repeat	Run2	repeat/STIM_006.jpg
1521.516	0.736	1	repeat	Run2	repeat/STIM_007.jpg
1524.633	0.681	1	repeat	Run2	repeat/STIM_007.jpg
1528.327	0.517	1	repeat	Run2	repeat/STIM_007.jpg
1532.476	0.58	1	repeat	Run2	repeat/STIM_007.jpg
1535.529	0.45	1	repeat	Run2	repeat/STIM_007.jpg
1539.16	0.463	1	repeat	Run2	repeat/STIM_008.jpg
1542.062	0.596	1	repeat	Run2	repeat/STIM_008.jpg
1546.141	0.672	1	repeat	Run2	repeat/STIM_008.jpg
1549.701	0.529	1	repeat	Run2	repeat/STIM_008.jpg
1554.058	0.676	1	repeat	Run2	repeat/STIM_008.jpg
1558.343	0.416	1	repeat	Run2	repeat/STIM_009.jpg
1561.149	0.504	0	repeat	Run2	repeat/STIM_009.jpg
1564.704	0.636	0	repeat	Run2	repeat/STIM_009.jpg
1568.304	0.507	1	repeat	Run2	repeat/STIM_009.jpg
1572.702	0.804	1	repeat	Run2	repeat/STIM_009.jpg
1575.838	0.528	1	repeat	Run2	repeat/STIM_010.jpg
1579.158	0.434	1	repeat	Run2	repeat/STIM_010.jpg
1581.675	0.574	1	repeat	Run2	repeat/STIM_010.jpg
1585.957	0.7	1	repeat	Run2	repeat/STIM_010.jpg
1588.76	0.539	1	repeat	Run2	repeat/STIM_010.jpg
1591.428	0.499	1	repeat	Run2	repeat/STIM_011.jpg
1594.458	0.774	0	repeat	Run2	repeat/STIM_011.jpg
1597.789	0.651	1	repeat	Run2	repeat/STIM_011.jpg
1601.535	0.668	1	repeat	Run2	repeat/STIM_011.jpg
1605.42	0.643	1	repeat	Run2	repeat/STIM_011.jpg
1608.963	0.763	0	repeat	Run2	repeat/STIM_012.jpg
1612.095	0.472	1	repeat	Run2	repeat/STIM_012.jpg
1614.986	0.516	1	repeat	Run2	repeat/STIM_012.jpg
1617.85	0.693	1	repeat	Run2	repeat/STIM_012.jpg
1622.169	0.461	1	repeat	Run2	repeat/STIM_012.jpg
1626.22	0.523	1	repeat	Run2	repeat/STIM_013.jpg
1629.555	0.546	1	repeat	Run2	repeat/STIM_013.jpg
1632.207	0.602	0	repeat	Run2	repeat/STIM_013.jpg
1634.831	0.66	1	repeat	Run2	repeat/STIM_013.jpg
1639.086	0.423	1	repeat	Run2	repeat/STIM_013.jpg
1642.633	0.674	1	repeat	Run2	repeat/STIM_014.jpg
1647.148	0.565	1	repeat	Run2	repeat/STIM_014.jpg
1650.372	0.734	1	repeat	Run2	repeat/STIM_014.jpg
1654.845	0.466	1	repeat	Run2	repeat/STIM_014.jpg
1658.999	0.597	1	repeat	Run2	repeat/STIM_014.jpg
1663.233	1.627	1	generate	Run3	generate/STIM_000.jpg
1668.211	1.52	1	generate	Run3	generate/STIM_000.jpg
1671.859	0.768	1	generate	Run3	generate/STIM_000.jpg
1675.89	1.068	1	generate	Run3	generate/STIM_000.jpg
1679.175	1.571	1	generate	Run3	generate/STIM_000.jpg
1683.407	1.236	1	generate	Run3	generate/STIM_001.jpg
1686.85	1.022	1	generate	Run3	generate/STIM_001.jpg
1691.478	1.43	1	generate	Run3	generate/STIM_001.jpg
1696.185	1.018	0	generate	Run3	generate/STIM_001.jpg
1699.498	0.865	1	generate	Run3	generate/STIM_001.jpg
1704.345	1.321	0	generate	Run3	generate/STIM_002.jpg
1709.162	1.165	0	generate	Run3	generate/STIM_002.jpg
1713.497	1.139	1	generate	Run3	generate/STIM_002.jpg
1717.87	1.684	1	generate	Run3	generate/STIM_002.jpg
1722.005	1.394	1	generate	Run3	generate/STIM_002.jpg
1725.438	0.905	1	generate	Run3	generate/STIM_003.jpg
1729.3	0.962	1	generate	Run3	generate/STIM_003.jpg
1733.134	0.941	1	generate	Run3	generate/STIM_003.jpg
1736.824	1.466	1	generate	Run3	generate/STIM_003.jpg
1742.056	1.348	1	generate	Run3	generate/STIM_003.jpg
1747.115	1.619	1	generate	Run3	generate/STIM_004.jpg
1752.481	0.981	0	generate	Run3	generate/STIM_004.jpg
1755.886	1.348	1	generate	Run3	generate/STIM_004.jpg
1760.501	1.19	1	generate	Run3	generate/STIM_004.jpg
1765.198	0.77	1	generate	Run3	generate/STIM_004.jpg
1769.233	1.061	1	generate	Run3	generate/STIM_005.jpg
1772.398	1.296	1	generate	Run3	generate/STIM_005.jpg
1776.735	1.159	1	generate	Run3	generate/STIM_005.jpg
1781.719	1.337	1	generate	Run3	generate/STIM_005.jpg
1785.609	1.141	1	generate	Run3	generate/STIM_005.jpg
1789.971	1.053	1	generate	Run3	generate/STIM_006.jpg
1794.76	1.387	1	generate	Run3	generate/STIM_006.jpg
1799.481	1.108	1	generate	Run3	generate/STIM_006.jpg
1803.971	1.298	0	generate	Run3	generate/STIM_006.jpg
1807.409	0.901	1	generate	Run3	generate/STIM_006.jpg
1811.729	0.944	0	generate	Run3	generate/STIM_007.jpg
1815.769	1.449	1	generate	Run3	generate/STIM_007.jpg
1820.041	0.985	1	generate	Run3	generate/STIM_007.jpg
1823.133	0.944	1	generate	Run3	generate/STIM_007.jpg
1826.53	1.044	1	generate	Run3	generate/STIM_007.jpg
1831.447	0.759	0	generate	Run3	generate/STIM_008.jpg
1835.896	1.218	0	generate	Run3	generate/STIM_008.jpg
1839.57	1.667	1	generate	Run3	generate/STIM_008.jpg
1844.934	0.933	1	generate	Run3	generate/STIM_008.jpg
1848.331	1.238	0	generate	Run3	generate/STIM_008.jpg
1851.591	1.388	1	generate	Run3	generate/STIM_009.jpg
1855.112	1.373	1	generate	Run3	generate/STIM_009.jpg
1859.283	1.335	1	generate	Run3	generate/STIM_009.jpg
1862.878	1.601	0	generate	Run3	generate/STIM_009.jpg
1867.143	1.479	1	generate	Run3	generate/STIM_009.jpg
1871.346	1.241	1	generate	Run3	generate/STIM_010.jpg
1874.694	1.109	0	generate	Run3	generate/STIM_010.jpg
1878.075	0.723	0	generate	Run3	generate/STIM_010.jpg
1881.214	1.67	1	generate	Run3	generate/STIM_010.jpg
1885.295	1.298	1	generate	Run3	generate/STIM_010.jpg
1889.97	1.333	0	generate	Run3	generate/STIM_011.jpg
1893.571	1.5	1	generate	Run3	generate/STIM_011.jpg
1898.793	1.106	1	generate	Run3	generate/STIM_011.jpg
1902.734	1.267	1	generate	Run3	generate/STIM_011.jpg
1907.086	1.61	1	generate	Run3	generate/STIM_011.jpg
1912.486	1.488	0	generate	Run3	generate/STIM_012.jpg
1917.78	1.641	1	generate	Run3	generate/STIM_012.jpg
1923.274	0.848	1	generate	Run3	generate/STIM_012.jpg
1927.323	1.244	1	generate	Run3	generate/STIM_012.jpg
1932.107	0.765	0	generate	Run3	generate/STIM_012.jpg
1936.28	0.848	1	generate	Run3	generate/STIM_013.jpg
1939.212	1.664	1	generate	Run3	generate/STIM_013.jpg
1943.39	0.765	0	generate	Run3	generate/STIM_013.jpg
1947.577	1.338	1	generate	Run3	generate/STIM_013.jpg
1951.64	0.894	1	generate	Run3	generate/STIM_013.jpg
1956.126	0.913	1	generate	Run3	generate/STIM_014.jpg
1959.644	1.703	1	generate	Run3	generate/STIM_014.jpg
1965.057	1.002	1	generate	Run3	generate/STIM_014.jpg
1969.402	1.289	0	generate	Run3	generate/STIM_014.jpg
1974.266	0.707	1	generate	Run3	generate/STIM_014.jpg
1978.551	1.122	1	generate	Run3	generate/STIM_015.jpg
1982.529	1.003	1	generate	Run3	generate/STIM_015.jpg
1986.171	0.846	0	generate	Run3	generate/STIM_015.jpg
1990.997	1.531	1	generate	Run3	generate/STIM_015.jpg
1996.071	1.237	1	generate	Run3	generate/STIM_015.jpg
2000.031	1.343	1	generate	Run3	generate/STIM_016.jpg
2003.525	0.781	1	generate	Run3	generate/STIM_016.jpg
2007.622	0.814	1	generate	Run3	generate/STIM_016.jpg
2011.694	0.799	0	generate	Run3	generate/STIM_016.jpg
2015.561	1.086	1	generate	Run3	generate/STIM_016.jpg
2020.091	0.73	0	generate	Run3	generate/STIM_017.jpg
2023.584	1.712	1	generate	Run3	generate/STIM_017.jpg
2027.377	0.917	1	generate	Run3	generate/STIM_017.jpg
2031.852	1.389	1	generate	Run3	generate/STIM_017.jpg
2036.939	1.24	1	generate	Run3	generate/STIM_017.jpg
2040.527	1.282	1	generate	Run3	generate/STIM_018.jpg
2045.796	0.785	1	generate	Run3	generate/STIM_018.jpg
2049.153	0.996	1	generate	Run3	generate/STIM_018.jpg
2053.334	0.88	1	generate	Run3	generate/STIM_018.jpg
2056.236	0.74	1	generate	Run3	generate/STIM_018.jpg
2059.772	1.437	1	generate	Run3	generate/STIM_019.jpg
2064.318	1.56	1	generate	Run3	generate/STIM_019.jpg
2067.951	0.789	1	generate	Run3	generate/STIM_019.jpg
2071.262	0.946	0	generate	Run3	generate/STIM_019.jpg
2076.044	1.348	1	generate	Run3	generate/STIM_019.jpg
2080.15	1.246	0	generate	Run3	generate/STIM_020.jpg
2083.73	0.834	0	generate	Run3	generate/STIM_020.jpg
2088.168	1.279	1	generate	Run3	generate/STIM_020.jpg
2091.527	1.469	0	generate	Run3	generate/STIM_020.jpg
2095.17	0.789	1	generate	Run3	generate/STIM_020.jpg
2099.54	0.852	1	generate	Run3	generate/STIM_021.jpg
2103.736	1.185	0	generate	Run3	generate/STIM_021.jpg
2108.076	0.811	0	generate	Run3	generate/STIM_021.jpg
2112.684	1.07	1	generate	Run3	generate/STIM_021.jpg
2115.996	1.67	1	generate	Run3	generate/STIM_021.jpg
2120.682	0.852	1	generate	Run3	generate/STIM_022.jpg
2124.537	1.478	1	generate	Run3	generate/STIM_022.jpg
2129.555	1.008	1	generate	Run3	generate/STIM_022.jpg
2133.624	0.766	1	generate	Run3	generate/STIM_022.jpg
2137.402	1.163	1	generate	Run3	generate/STIM_022.jpg
2141.72	0.824	1	generate	Run3	generate/STIM_023.jpg
2144.874	1.596	1	generate	Run3	generate/STIM_023.jpg
2149.596	0.833	0	generate	Run3	generate/STIM_023.jpg
2152.804	1.464	1	generate	Run3	generate/STIM_023.jpg
2158.098	1.053	1	generate	Run3	generate/STIM_023.jpg
2161.227	1.216	1	generate	Run3	generate/STIM_024.jpg
2165.452	0.701	1	generate	Run3	generate/STIM_024.jpg
2168.992	1.396	1	generate	Run3	generate/STIM_024.jpg
2172.901	1.591	1	generate	Run3	generate/STIM_024.jpg
2178.032	1.287	0	generate	Run3	generate/STIM_024.jpg
2182.956	0.533	1	repeat	Run3	repeat/STIM_000.jpg
2186.134	0.536	0	repeat	Run3	repeat/STIM_000.jpg
2189.73	0.558	1	repeat	Run3	repeat/STIM_000.jpg
2193.088	0.531	0	repeat	Run3	repeat/STIM_000.jpg
2197.118	0.592	1	repeat	Run3	repeat/STIM_000.jpg
2201.479	0.542	1	repeat	Run3	repeat/STIM_001.jpg
2204.522	0.458	1	repeat	Run3	repeat/STIM_001.jpg
2207.502	0.436	1	repeat	Run3	repeat/STIM_001.jpg
2209.995	0.665	1	repeat	Run3	repeat/STIM_001.jpg
2214.154	0.437	1	repeat	Run3	repeat/STIM_001.jpg
2216.822	0.587	1	repeat	Run3	repeat/STIM_002.jpg
2220.494	0.758	1	repeat	Run3	repeat/STIM_002.jpg
2224.151	0.479	1	repeat	Run3	repeat/STIM_002.jpg
2228.224	0.72	1	repeat	Run3	repeat/STIM_002.jpg
2232.253	0.797	1	repeat	Run3	repeat/STIM_002.jpg
2235.533	0.633	1	repeat	Run3	repeat/STIM_003.jpg
2238.529	0.516	1	repeat	Run3	repeat/STIM_003.jpg
2242.502	0.819	0	repeat	Run3	repeat/STIM_003.jpg
2245.541	0.484	1	repeat	Run3	repeat/STIM_003.jpg
2248.593	0.488	1	repeat	Run3	repeat/STIM_003.jpg
2252.244	0.494	1	repeat	Run3	repeat/STIM_004.jpg
2255.971	0.734	1	repeat	Run3	repeat/STIM_004.jpg
2259.839	0.771	1	repeat	Run3	repeat/STIM_004.jpg
2264.259	0.8	1	repeat	Run3	repeat/STIM_004.jpg
2268.075	0.525	1	repeat	Run3	repeat/STIM_004.jpg
2272.364	0.567	1	repeat	Run3	repeat/STIM_005.jpg
2276.87	0.662	1	repeat	Run3	repeat/STIM_005.jpg
2279.89	0.551	0	repeat	Run3	repeat/STIM_005.jpg
2282.876	0.545	1	repeat	Run3	repeat/STIM_005.jpg
2287.301	0.73	1	repeat	Run3	repeat/STIM_005.jpg
2291.482	0.521	0	repeat	Run3	repeat/STIM_006.jpg
2294.016	0.668	1	repeat	Run3	repeat/STIM_006.jpg
2296.948	0.701	1	repeat	Run3	repeat/STIM_006.jpg
2301.109	0.69	1	repeat	Run3	repeat/STIM_006.jpg
2304.898	0.793	0	repeat	Run3	repeat/STIM_006.jpg
2309.209	0.781	1	repeat	Run3	repeat/STIM_007.jpg
2312.188	0.562	0	repeat	Run3	repeat/STIM_007.jpg
2316.572	0.799	1	repeat	Run3	repeat/STIM_007.jpg
2320.215	0.775	0	repeat	Run3	repeat/STIM_007.jpg
2323.2	0.453	1	repeat	Run3	repeat/STIM_007.jpg
2326.887	0.432	1	repeat	Run3	repeat/STIM_008.jpg
2330.055	0.565	0	repeat	Run3	repeat/STIM_008.jpg
2332.92	0.768	1	repeat	Run3	repeat/STIM_008.jpg
2337.451	0.815	1	repeat	Run3	repeat/STIM_008.jpg
2340.392	0.413	1	repeat	Run3	repeat/STIM_008.jpg
2344.273	0.695	1	repeat	Run3	repeat/STIM_009.jpg
2348.582	0.683	0	repeat	Run3	repeat/STIM_009.jpg
2351.815	0.776	1	repeat	Run3	repeat/STIM_009.jpg
2355.24	0.583	1	repeat	Run3	repeat/STIM_009.jpg
2358.49	0.769	1	repeat	Run3	repeat/STIM_009.jpg
2362.231	0.725	1	repeat	Run3	repeat/STIM_010.jpg
2366.188	0.685	1	repeat	Run3	repeat/STIM_010.jpg
2369.92	0.599	1	repeat	Run3	repeat/STIM_010.jpg
2374.305	0.715	1	repeat	Run3	repeat/STIM_010.jpg
2378.156	0.672	1	repeat	Run3	repeat/STIM_010.jpg
2381.113	0.558	1	repeat	Run3	repeat/STIM_011.jpg
2385.305	0.451	1	repeat	Run3	repeat/STIM_011.jpg
2388.102	0.716	1	repeat	Run3	repeat/STIM_011.jpg
2392.437	0.81	1	repeat	Run3	repeat/STIM_011.jpg
2396.283	0.518	0	repeat	Run3	repeat/STIM_011.jpg
2399.869	0.8	1	repeat	Run3	repeat/STIM_012.jpg
2402.837	0.748	1	repeat	Run3	repeat/STIM_012.jpg
2407.525	0.764	1	repeat	Run3	repeat/STIM_012.jpg
2411.806	0.746	1	repeat	Run3	repeat/STIM_012.jpg
2415.517	0.482	0	repeat	Run3	repeat/STIM_012.jpg
2419.359	0.779	1	repeat	Run3	repeat/STIM_013.jpg
2423.301	0.529	1	repeat	Run3	repeat/STIM_013.jpg
2427.248	0.702	1	repeat	Run3	repeat/STIM_013.jpg
2430.329	0.728	1	repeat	Run3	repeat/STIM_013.jpg
2434.021	0.505	1	repeat	Run3	repeat/STIM_013.jpg
2438.442	0.644	1	repeat	Run3	repeat/STIM_014.jpg
2442.312	0.733	1	repeat	Run3	repeat/STIM_014.jpg
2445.178	0.694	1	repeat	Run3	repeat/STIM_014.jpg
2449.065	0.634	1	repeat	Run3	repeat/STIM_014.jpg
2453.528	0.505	1	repeat	Run3	repeat/STIM_014.jpg
2457.924	1.231	1	generate	Run4	generate/STIM_000.jpg
2462.831	1.077	0	generate	Run4	generate/STIM_000.jpg
2466.78	0.851	1	generate	Run4	generate/STIM_000.jpg
2471.407	1.057	1	generate	Run4	generate/STIM_000.jpg
2475.518	1.21	1	generate	Run4	generate/STIM_000.jpg
2479.615	1.694	1	generate	Run4	generate/STIM_001.jpg
2485.123	1.401	1	generate	Run4	generate/STIM_001.jpg
2489.891	0.702	1	generate	Run4	generate/STIM_001.jpg
2494.282	0.806	1	generate	Run4	generate/STIM_001.jpg
2498.47	1.1	1	generate	Run4	generate/STIM_001.jpg
2502.95	0.735	1	generate	Run4	generate/STIM_002.jpg
2506.73	1.595	0	generate	Run4	generate/STIM_002.jpg
2512.029	1.045	1	generate	Run4	generate/STIM_002.jpg
2515.974	0.816	1	generate	Run4	generate/STIM_002.jpg
2520.271	1.539	1	generate	Run4	generate/STIM_002.jpg
2524.468	1.068	1	generate	Run4	generate/STIM_003.jpg
2529.229	0.906	1	generate	Run4	generate/STIM_003.jpg
2532.201	1.345	1	generate	Run4	generate/STIM_003.jpg
2536.953	1.715	1	generate	Run4	generate/STIM_003.jpg
2541.95	1.559	1	generate	Run4	generate/STIM_003.jpg
2547.123	0.86	1	generate	Run4	generate/STIM_004.jpg
2550.958	1.203	1	generate	Run4	generate/STIM_004.jpg
2555.436	1.14	1	generate	Run4	generate/STIM_004.jpg
2560.372	1.249	1	generate	Run4	generate/STIM_004.jpg
2565.084	0.763	1	generate	Run4	generate/STIM_004.jpg
2568.468	0.694	1	generate	Run4	generate/STIM_005.jpg
2571.899	1.671	0	generate	Run4	generate/STIM_005.jpg
2576.111	0.939	0	generate	Run4	generate/STIM_005.jpg
2579.241	1.146	1	generate	Run4	generate/STIM_005.jpg
2583.065	1.339	1	generate	Run4	generate/STIM_005.jpg
2586.893	1.039	1	generate	Run4	generate/STIM_006.jpg
2589.933	0.885	1	generate	Run4	generate/STIM_006.jpg
2593.926	0.832	0	generate	Run4	generate/STIM_006.jpg
2598.176	1.014	1	generate	Run4	generate/STIM_006.jpg
2601.603	1.05	1	generate	Run4	generate/STIM_006.jpg
2605.651	1.709	1	generate	Run4	generate/STIM_007.jpg
2610.06	1.656	1	generate	Run4	generate/STIM_007.jpg
2614.282	0.703	1	generate	Run4	generate/STIM_007.jpg
2618.13	0.948	1	generate	Run4	generate/STIM_007.jpg
2621.258	0.739	1	generate	Run4	generate/STIM_007.jpg
2624.632	0.703	1	generate	Run4	generate/STIM_008.jpg
2628.23	0.988	0	generate	Run4	generate/STIM_008.jpg
2631.279	0.812	1	generate	Run4	generate/STIM_008.jpg
2635.991	0.729	1	generate	Run4	generate/STIM_008.jpg
2640.389	1.633	1	generate	Run4	generate/STIM_008.jpg
2644.294	0.726	0	generate	Run4	generate/STIM_009.jpg
2648.71	1.196	1	generate	Run4	generate/STIM_009.jpg
2651.963	1.57	1	generate	Run4	generate/STIM_009.jpg
2655.667	1.495	1	generate	Run4	generate/STIM_009.jpg
2661.135	0.781	1	generate	Run4	generate/STIM_009.jpg
2665.135	0.972	1	generate	Run4	generate/STIM_010.jpg
2669.323	1.359	1	generate	Run4	generate/STIM_010.jpg
2673.031	1.012	1	generate	Run4	generate/STIM_010.jpg
2677.901	1.241	1	generate	Run4	generate/STIM_010.jpg
2682.987	1.137	1	generate	Run4	generate/STIM_010.jpg
2686.219	0.806	1	generate	Run4	generate/STIM_011.jpg
2690.637	1.532	1	generate	Run4	generate/STIM_011.jpg
2694.41	1.063	1	generate	Run4	generate/STIM_011.jpg
2697.763	0.75	1	generate	Run4	generate/STIM_011.jpg
2702.487	0.854	0	generate	Run4	generate/STIM_011.jpg
2705.483	1.384	1	generate	Run4	generate/STIM_012.jpg
2710.65	0.842	1	generate	Run4	generate/STIM_012.jpg
2714.021	0.799	1	generate	Run4	generate/STIM_012.jpg
2718.234	1.211	1	generate	Run4	generate/STIM_012.jpg
2722.311	1.67	1	generate	Run4	generate/STIM_012.jpg
2727.875	0.789	1	generate	Run4	generate/STIM_013.jpg
2731.707	1.233	1	generate	Run4	generate/STIM_013.jpg
2735.378	1.384	1	generate	Run4	generate/STIM_013.jpg
2739.914	1.269	1	generate	Run4	generate/STIM_013.jpg
2744.647	1.151	1	generate	Run4	generate/STIM_013.jpg
2749.277	0.854	1	generate	Run4	generate/STIM_014.jpg
2753.315	1.675	1	generate	Run4	generate/STIM_014.jpg
2758.023	1.507	1	generate	Run4	generate/STIM_014.jpg
2763.405	1.104	1	generate	Run4	generate/STIM_014.jpg
2768.31	1.253	1	generate	Run4	generate/STIM_014.jpg
2772.278	1.587	1	generate	Run4	generate/STIM_015.jpg
2777.502	0.748	1	generate	Run4	generate/STIM_015.jpg
2781.611	1.179	1	generate	Run4	generate/STIM_015.jpg
2786.046	1.183	1	generate	Run4	generate/STIM_015.jpg
2789.476	1.307	1	generate	Run4	generate/STIM_015.jpg
2794.776	1.698	1	generate	Run4	generate/STIM_016.jpg
2799.375	1.162	1	generate	Run4	generate/STIM_016.jpg
2802.791	1.04	1	generate	Run4	generate/STIM_016.jpg
2807.185	1.35	1	generate	Run4	generate/STIM_016.jpg
2811.103	1.546	1	generate	Run4	generate/STIM_016.jpg
2815.893	1.489	1	generate	Run4	generate/STIM_017.jpg
2819.74	1.646	1	generate	Run4	generate/STIM_017.jpg
2823.835	0.869	1	generate	Run4	generate/STIM_017.jpg
2827.941	1.166	1	generate	Run4	generate/STIM_017.jpg
2831.336	1.499	1	generate	Run4	generate/STIM_017.jpg
2836.687	1.367	1	generate	Run4	generate/STIM_018.jpg
2841.423	1.41	1	generate	Run4	generate/STIM_018.jpg
2846.163	1.108	1	generate	Run4	generate/STIM_018.jpg
2851.261	1.672	1	generate	Run4	generate/STIM_018.jpg
2855.447	1.551	1	generate	Run4	generate/STIM_018.jpg
2860.482	1.062	1	generate	Run4	generate/STIM_019.jpg
2865.518	1.39	1	generate	Run4	generate/STIM_019.jpg
2869.349	1.077	1	generate	Run4	generate/STIM_019.jpg
2873.339	1.008	1	generate	Run4	generate/STIM_019.jpg
2877.266	1.649	1	generate	Run4	generate/STIM_019.jpg
2881.203	1.449	0	generate	Run4	generate/STIM_020.jpg
2884.786	1.667	1	generate	Run4	generate/STIM_020.jpg
2889.043	1.488	1	generate	Run4	generate/STIM_020.jpg
2893.348	1.261	1	generate	Run4	generate/STIM_020.jpg
2898.427	1.393	1	generate	Run4	generate/STIM_020.jpg
2903.402	1.019	0	generate	Run4	generate/STIM_021.jpg
2907.673	1.265	1	generate	Run4	generate/STIM_021.jpg
2910.984	1.001	1	generate	Run4	generate/STIM_021.jpg
2914.827	1.695	1	generate	Run4	generate/STIM_021.jpg
2918.613	0.73	1	generate	Run4	generate/STIM_021.jpg
2921.366	1.006	1	generate	Run4	generate/STIM_022.jpg
2925.456	1.124	1	generate	Run4	generate/STIM_022.jpg
2930.519	0.734	1	generate	Run4	generate/STIM_022.jpg
2934.75	1.119	1	generate	Run4	generate/STIM_022.jpg
2938.449	0.976	1	generate	Run4	generate/STIM_022.jpg
2942.968	1.504	1	generate	Run4	generate/STIM_023.jpg
2947.672	0.976	1	generate	Run4	generate/STIM_023.jpg
2950.8	1.19	1	generate	Run4	generate/STIM_023.jpg
2954.922	1.644	1	generate	Run4	generate/STIM_023.jpg
2960.119	0.985	1	generate	Run4	generate/STIM_023.jpg
2964.461	1.256	1	generate	Run4	generate/STIM_024.jpg
2968.177	0.959	1	generate	Run4	generate/STIM_024.jpg
2971.532	1.688	0	generate	Run4	generate/STIM_024.jpg
2976.063	0.798	1	generate	Run4	generate/STIM_024.jpg
2979.024	1.646	1	generate	Run4	generate/STIM_024.jpg
2982.92	0.604	1	repeat	Run4	repeat/STIM_000.jpg
2986.914	0.428	1	repeat	Run4	repeat/STIM_000.jpg
2989.713	0.412	0	repeat	Run4	repeat/STIM_000.jpg
2993.068	0.618	1	repeat	Run4	repeat/STIM_000.jpg
2995.86	0.795	1	repeat	Run4	repeat/STIM_000.jpg
2999.483	0.8	1	repeat	Run4	repeat/STIM_001.jpg
3002.68	0.786	1	repeat	Run4	repeat/STIM_001.jpg
3007.39	0.509	1	repeat	Run4	repeat/STIM_001.jpg
3011.298	0.566	1	repeat	Run4	repeat/STIM_001.jpg
3015.432	0.768	1	repeat	Run4	repeat/STIM_001.jpg
3018.426	0.553	1	repeat	Run4	repeat/STIM_002.jpg
3022.275	0.756	1	repeat	Run4	repeat/STIM_002.jpg
3025.365	0.709	1	repeat	Run4	repeat/STIM_002.jpg
3028.995	0.658	1	repeat	Run4	repeat/STIM_002.jpg
3031.845	0.658	1	repeat	Run4	repeat/STIM_002.jpg
3034.618	0.67	1	repeat	Run4	repeat/STIM_003.jpg
3038.824	0.444	1	repeat	Run4	repeat/STIM_003.jpg
3041.663	0.722	1	repeat	Run4	repeat/STIM_003.jpg
3045.752	0.518	1	repeat	Run4	repeat/STIM_003.jpg
3049.688	0.692	1	repeat	Run4	repeat/STIM_003.jpg
3053.451	0.428	1	repeat	Run4	repeat/STIM_004.jpg
3057.272	0.431	1	repeat	Run4	repeat/STIM_004.jpg
3060.364	0.603	0	repeat	Run4	repeat/STIM_004.jpg
3063.398	0.722	0	repeat	Run4	repeat/STIM_004.jpg
3067.047	0.623	1	repeat	Run4	repeat/STIM_004.jpg
3071.486	0.602	1	repeat	Run4	repeat/STIM_005.jpg
3075.72	0.818	1	repeat	Run4	repeat/STIM_005.jpg
3079.524	0.443	1	repeat	Run4	repeat/STIM_005.jpg
3083.322	0.535	0	repeat	Run4	repeat/STIM_005.jpg
3087.1	0.642	1	repeat	Run4	repeat/STIM_005.jpg
3090.707	0.724	1	repeat	Run4	repeat/STIM_006.jpg
3095.15	0.818	0	repeat	Run4	repeat/STIM_006.jpg
3099.199	0.566	0	repeat	Run4	repeat/STIM_006.jpg
3101.989	0.722	1	repeat	Run4	repeat/STIM_006.jpg
3106.206	0.617	1	repeat	Run4	repeat/STIM_006.jpg
3110.304	0.772	1	repeat	Run4	repeat/STIM_007.jpg
3114.228	0.612	1	repeat	Run4	repeat/STIM_007.jpg
3117.571	0.478	1	repeat	Run4	repeat/STIM_007.jpg
3121.071	0.74	1	repeat	Run4	repeat/STIM_007.jpg
3123.948	0.564	0	repeat	Run4	repeat/STIM_007.jpg
3128.362	0.796	1	repeat	Run4	repeat/STIM_008.jpg
3132.688	0.602	1	repeat	Run4	repeat/STIM_008.jpg
3136.367	0.619	1	repeat	Run4	repeat/STIM_008.jpg
3139.677	0.531	1	repeat	Run4	repeat/STIM_008.jpg
3143.408	0.636	1	repeat	Run4	repeat/STIM_008.jpg
3146.366	0.687	1	repeat	Run4	repeat/STIM_009.jpg
3150.833	0.598	1	repeat	Run4	repeat/STIM_009.jpg
3154.513	0.572	1	repeat	Run4	repeat/STIM_009.jpg
3158.233	0.611	0	repeat	Run4	repeat/STIM_009.jpg
3162.183	0.564	1	repeat	Run4	repeat/STIM_009.jpg
3166.731	0.537	1	repeat	Run4	repeat/STIM_010.jpg
3169.841	0.572	1	repeat	Run4	repeat/STIM_010.jpg
3174.046	0.543	1	repeat	Run4	repeat/STIM_010.jpg
3178.047	0.596	1	repeat	Run4	repeat/STIM_010.jpg
3181.013	0.626	1	repeat	Run4	repeat/STIM_010.jpg
3184.048	0.496	1	repeat	Run4	repeat/STIM_011.jpg
3187.047	0.645	1	repeat	Run4	repeat/STIM_011.jpg
3191.524	0.452	1	repeat	Run4	repeat/STIM_011.jpg
3194.672	0.636	1	repeat	Run4	repeat/STIM_011.jpg
3197.732	0.746	1	repeat	Run4	repeat/STIM_011.jpg
3200.742	0.507	0	repeat	Run4	repeat/STIM_012.jpg
3204.151	0.5	1	repeat	Run4	repeat/STIM_012.jpg
3207.711	0.617	1	repeat	Run4	repeat/STIM_012.jpg
3211.607	0.768	0	repeat	Run4	repeat/STIM_012.jpg
3215.087	0.74	1	repeat	Run4	repeat/STIM_012.jpg
3219.412	0.79	1	repeat	Run4	repeat/STIM_013.jpg
3222.859	0.484	1	repeat	Run4	repeat/STIM_013.jpg
3226.8	0.55	1	repeat	Run4	repeat/STIM_013.jpg
3230.302	0.685	1	repeat	Run4	repeat/STIM_013.jpg
3233.19	0.51	1	repeat	Run4	repeat/STIM_013.jpg
3235.781	0.747	1	repeat	Run4	repeat/STIM_014.jpg
3238.551	0.752	1	repeat	Run4	repeat/STIM_014.jpg
3241.571	0.474	0	repeat	Run4	repeat/STIM_014.jpg
3244.45	0.693	1	repeat	Run4	repeat/STIM_014.jpg
3248.908	0.746	1	repeat	Run4	repeat/STIM_014.jpg
