onset	duration	accuracy	trial_type	learning_stage	stimulus
0.0	1.46	correct	2back	Block1	2back/STIM_000.jpg
3.674	1.033	correct	2back	Block1	2back/STIM_000.jpg
6.917	0.729	correct	2back	Block1	2back/STIM_000.jpg
10.583	1.136	incorrect	2back	Block1	2back/STIM_001.jpg
15.717	1.174	correct	2back	Block1	2back/STIM_001.jpg
20.076	1.224	incorrect	2back	Block1	2back/STIM_001.jpg
23.458	0.75	correct	2back	Block1	2back/STIM_002.jpg
27.692	1.475	correct	2back	Block1	2back/STIM_002.jpg
31.572	0.854	correct	2back	Block1	2back/STIM_002.jpg
36.209	0.923	correct	2back	Block1	2back/STIM_003.jpg
39.977	1.244	correct	2back	Block1	2back/STIM_003.jpg
44.472	1.006	correct	2back	Block1	2back/STIM_003.jpg
47.878	1.19	correct	2back	Block1	2back/STIM_004.jpg
51.817	1.429	correct	2back	Block1	2back/STIM_004.jpg
56.849	1.448	correct	2back	Block1	2back/STIM_004.jpg
61.472	1.437	correct	2back	Block1	2back/STIM_005.jpg
65.185	0.738	correct	2back	Block1	2back/STIM_005.jpg
68.44	1.484	correct	2back	Block1	2back/STIM_005.jpg
72.934	1.128	incorrect	2back	Block1	2back/STIM_006.jpg
77.237	1.226	correct	2back	Block1	2back/STIM_006.jpg
81.206	1.445	correct	2back	Block1	2back/STIM_006.jpg
86.218	1.35	correct	2back	Block1	2back/STIM_007.jpg
90.865	1.191	correct	2back	Block1	2back/STIM_007.jpg
95.323	0.871	correct	2back	Block1	2back/STIM_007.jpg
99.716	0.775	correct	2back	Block1	2back/STIM_008.jpg
104.131	1.326	correct	2back	Block1	2back/STIM_008.jpg
108.897	0.681	correct	2back	Block1	2back/STIM_008.jpg
113.031	1.112	correct	2back	Block1	2back/STIM_009.jpg
117.918	0.71	correct	2back	Block1	2back/STIM_009.jpg
120.977	1.304	correct	2back	Block1	2back/STIM_009.jpg
124.823	1.303	correct	2back	Block1	2back/STIM_010.jpg
129.64	1.313	correct	2back	Block1	2back/STIM_010.jpg
133.818	0.713	correct	2back	Block1	2back/STIM_010.jpg
138.489	1.343	correct	2back	Block1	2back/STIM_011.jpg
143.384	0.917	correct	2back	Block1	2back/STIM_011.jpg
147.108	0.959	correct	2back	Block1	2back/STIM_011.jpg
150.261	1.019	correct	2back	Block1	2back/STIM_012.jpg
154.801	0.926	correct	2back	Block1	2back/STIM_012.jpg
157.99	1.484	correct	2back	Block1	2back/STIM_012.jpg
163.075	1.291	correct	2back	Block1	2back/STIM_013.jpg
167.227	1.38	incorrect	2back	Block1	2back/STIM_013.jpg
170.685	0.803	correct	2back	Block1	2back/STIM_013.jpg
173.575	1.494	correct	2back	Block1	2back/STIM_014.jpg
177.384	0.724	correct	2back	Block1	2back/STIM_014.jpg
180.122	1.444	correct	2back	Block1	2back/STIM_014.jpg
184.81	1.064	correct	2back	Block1	2back/STIM_015.jpg
188.038	0.722	correct	2back	Block1	2back/STIM_015.jpg
191.817	1.383	correct	2back	Block1	2back/STIM_015.jpg
196.862	0.941	correct	2back	Block1	2back/STIM_016.jpg
200.505	1.144	correct	2back	Block1	2back/STIM_016.jpg
204.397	1.277	correct	2back	Block1	2back/STIM_016.jpg
207.962	1.656	incorrect	2back	Block1	2back/STIM_017.jpg
212.848	1.576	correct	2back	Block1	2back/STIM_017.jpg
217.049	1.455	correct	2back	Block1	2back/STIM_017.jpg
221.282	1.053	correct	2back	Block1	2back/STIM_018.jpg
224.342	1.13	correct	2back	Block1	2back/STIM_018.jpg
228.535	0.913	correct	2back	Block1	2back/STIM_018.jpg
232.994	1.446	correct	2back	Block1	2back/STIM_019.jpg
237.629	0.874	correct	2back	Block1	2back/STIM_019.jpg
240.731	1.07	correct	2back	Block1	2back/STIM_019.jpg
245.361	1.539	correct	2back	Block1	2back/STIM_020.jpg
249.332	0.716	correct	2back	Block1	2back/STIM_020.jpg
252.141	0.66	correct	2back	Block1	2back/STIM_020.jpg
255.007	0.985	correct	2back	Block1	2back/STIM_021.jpg
258.977	1.476	correct	2back	Block1	2back/STIM_021.jpg
262.775	1.495	correct	2back	Block1	2back/STIM_021.jpg
266.403	1.588	correct	2back	Block1	2back/STIM_022.jpg
270.551	0.835	correct	2back	Block1	2back/STIM_022.jpg
274.38	0.676	correct	2back	Block1	2back/STIM_022.jpg
278.438	0.989	correct	2back	Block1	2back/STIM_023.jpg
281.609	1.197	correct	2back	Block1	2back/STIM_023.jpg
284.81	0.995	correct	2back	Block1	2back/STIM_023.jpg
289.75	1.639	correct	2back	Block1	2back/STIM_024.jpg
294.55	0.963	correct	2back	Block1	2back/STIM_024.jpg
297.57	0.884	correct	2back	Block1	2back/STIM_024.jpg
301.011	1.09	correct	2back	Block1	2back/STIM_025.jpg
305.694	0.791	correct	2back	Block1	2back/STIM_025.jpg
308.496	1.161	correct	2back	Block1	2back/STIM_025.jpg
312.232	0.987	correct	2back	Block1	2back/STIM_026.jpg
316.763	1.377	incorrect	2back	Block1	2back/STIM_026.jpg
321.035	1.102	correct	2back	Block1	2back/STIM_026.jpg
324.243	1.037	correct	2back	Block1	2back/STIM_027.jpg
328.346	1.206	correct	2back	Block1	2back/STIM_027.jpg
331.941	0.861	correct	2back	Block1	2back/STIM_027.jpg
336.735	1.477	correct	2back	Block1	2back/STIM_028.jpg
341.294	1.36	correct	2back	Block1	2back/STIM_028.jpg
344.74	1.01	incorrect	2back	Block1	2back/STIM_028.jpg
348.001	0.91	incorrect	2back	Block1	2back/STIM_029.jpg
350.944	1.066	incorrect	2back	Block1	2back/STIM_029.jpg
355.721	1.349	correct	2back	Block1	2back/STIM_029.jpg
359.502	0.923	incorrect	2back	Block1	2back/STIM_030.jpg
362.572	0.973	correct	2back	Block1	2back/STIM_030.jpg
366.816	0.698	correct	2back	Block1	2back/STIM_030.jpg
370.937	0.867	correct	2back	Block1	2back/STIM_031.jpg
374.75	0.771	correct	2back	Block1	2back/STIM_031.jpg
377.579	1.297	incorrect	2back	Block1	2back/STIM_031.jpg
381.268	1.58	incorrect	2back	Block1	2back/STIM_032.jpg
386.097	1.332	correct	2back	Block1	2back/STIM_032.jpg
391.2	0.762	correct	2back	Block1	2back/STIM_032.jpg
394.233	0.778	correct	2back	Block1	2back/STIM_033.jpg
398.067	0.803	correct	2back	Block1	2back/STIM_033.jpg
401.229	0.818	correct	2back	Block1	2back/STIM_033.jpg
405.251	0.911	correct	2back	Block1	2back/STIM_034.jpg
408.926	1.142	correct	2back	Block1	2back/STIM_034.jpg
412.985	0.846	correct	2back	Block1	2back/STIM_034.jpg
415.845	0.903	correct	2back	Block1	2back/STIM_035.jpg
419.612	0.775	correct	2back	Block1	2back/STIM_035.jpg
423.241	1.258	correct	2back	Block1	2back/STIM_035.jpg
428.409	1.131	correct	2back	Block1	2back/STIM_036.jpg
432.138	0.936	correct	2back	Block1	2back/STIM_036.jpg
435.131	1.374	correct	2back	Block1	2back/STIM_036.jpg
438.902	0.925	correct	2back	Block1	2back/STIM_037.jpg
442.666	1.316	correct	2back	Block1	2back/STIM_037.jpg
447.136	0.767	correct	2back	Block1	2back/STIM_037.jpg
451.808	0.898	correct	2back	Block1	2back/STIM_038.jpg
454.834	1.055	correct	2back	Block1	2back/STIM_038.jpg
458.782	1.135	incorrect	2back	Block1	2back/STIM_038.jpg
463.04	1.636	incorrect	2back	Block1	2back/STIM_039.jpg
468.08	1.224	correct	2back	Block1	2back/STIM_039.jpg
472.021	0.662	correct	2back	Block1	2back/STIM_039.jpg
475.111	0.513	correct	0back	Block1	0back/STIM_000.jpg
478.027	0.727	correct	0back	Block1	0back/STIM_000.jpg
481.707	0.863	correct	0back	Block1	0back/STIM_000.jpg
484.653	0.778	correct	0back	Block1	0back/STIM_001.jpg
487.492	0.824	correct	0back	Block1	0back/STIM_001.jpg
490.948	0.562	correct	0back	Block1	0back/STIM_001.jpg
495.317	0.887	correct	0back	Block1	0back/STIM_002.jpg
499.849	0.675	correct	0back	Block1	0back/STIM_002.jpg
503.06	0.785	correct	0back	Block1	0back/STIM_002.jpg
506.229	0.754	correct	0back	Block1	0back/STIM_003.jpg
510.727	0.856	correct	0back	Block1	0back/STIM_003.jpg
515.579	0.709	correct	0back	Block1	0back/STIM_003.jpg
519.421	0.579	correct	0back	Block1	0back/STIM_004.jpg
522.93	0.707	correct	0back	Block1	0back/STIM_004.jpg
526.12	0.695	correct	0back	Block1	0back/STIM_004.jpg
530.078	0.798	correct	0back	Block1	0back/STIM_005.jpg
533.396	0.736	correct	0back	Block1	0back/STIM_005.jpg
537.56	0.706	incorrect	0back	Block1	0back/STIM_005.jpg
541.676	0.829	correct	0back	Block1	0back/STIM_006.jpg
545.036	0.588	correct	0back	Block1	0back/STIM_006.jpg
548.672	0.526	correct	0back	Block1	0back/STIM_006.jpg
552.454	0.94	correct	0back	Block1	0back/STIM_007.jpg
556.14	0.678	correct	0back	Block1	0back/STIM_007.jpg
560.342	0.939	correct	0back	Block1	0back/STIM_007.jpg
565.024	0.908	correct	0back	Block1	0back/STIM_008.jpg
568.312	0.589	correct	0back	Block1	0back/STIM_008.jpg
571.315	0.934	correct	0back	Block1	0back/STIM_008.jpg
574.486	0.813	correct	0back	Block1	0back/STIM_009.jpg
578.248	0.6	correct	0back	Block1	0back/STIM_009.jpg
581.856	0.703	correct	0back	Block1	0back/STIM_009.jpg
584.924	0.692	correct	0back	Block1	0back/STIM_010.jpg
587.792	0.502	correct	0back	Block1	0back/STIM_010.jpg
591.876	0.527	correct	0back	Block1	0back/STIM_010.jpg
596.021	0.576	correct	0back	Block1	0back/STIM_011.jpg
599.437	0.626	incorrect	0back	Block1	0back/STIM_011.jpg
603.734	0.801	correct	0back	Block1	0back/STIM_011.jpg
607.573	0.75	correct	0back	Block1	0back/STIM_012.jpg
611.837	0.867	correct	0back	Block1	0back/STIM_012.jpg
616.281	0.508	correct	0back	Block1	0back/STIM_012.jpg
619.429	0.645	correct	0back	Block1	0back/STIM_013.jpg
623.778	0.781	correct	0back	Block1	0back/STIM_013.jpg
627.752	0.874	correct	0back	Block1	0back/STIM_013.jpg
632.395	0.874	correct	0back	Block1	0back/STIM_014.jpg
635.829	0.767	correct	0back	Block1	0back/STIM_014.jpg
639.387	0.733	correct	0back	Block1	0back/STIM_014.jpg
643.568	0.506	correct	0back	Block1	0back/STIM_015.jpg
647.317	0.719	correct	0back	Block1	0back/STIM_015.jpg
651.171	0.755	correct	0back	Block1	0back/STIM_015.jpg
654.146	0.86	correct	0back	Block1	0back/STIM_016.jpg
658.106	0.889	correct	0back	Block1	0back/STIM_016.jpg
662.616	0.712	correct	0back	Block1	0back/STIM_016.jpg
666.28	0.936	correct	0back	Block1	0back/STIM_017.jpg
670.871	0.484	correct	0back	Block1	0back/STIM_017.jpg
674.869	0.736	correct	0back	Block1	0back/STIM_017.jpg
678.281	0.819	correct	0back	Block1	0back/STIM_018.jpg
681.283	0.67	correct	0back	Block1	0back/STIM_018.jpg
685.309	0.603	correct	0back	Block1	0back/STIM_018.jpg
687.946	0.714	correct	0back	Block1	0back/STIM_019.jpg
690.811	0.78	correct	0back	Block1	0back/STIM_019.jpg
695.269	0.513	correct	0back	Block1	0back/STIM_019.jpg
698.092	0.614	correct	2back	Block2	2back/STIM_000.jpg
701.223	0.971	correct	2back	Block2	2back/STIM_000.jpg
704.228	0.815	correct	2back	Block2	2back/STIM_000.jpg
707.742	0.797	correct	2back	Block2	2back/STIM_001.jpg
710.747	0.739	correct	2back	Block2	2back/STIM_001.jpg
713.49	0.823	correct	2back	Block2	2back/STIM_001.jpg
718.009	0.738	correct	2back	Block2	2back/STIM_002.jpg
722.743	1.277	correct	2back	Block2	2back/STIM_002.jpg
726.769	1.121	correct	2back	Block2	2back/STIM_002.jpg
729.987	0.774	correct	2back	Block2	2back/STIM_003.jpg
734.304	0.847	correct	2back	Block2	2back/STIM_003.jpg
738.481	1.053	correct	2back	Block2	2back/STIM_003.jpg
743.15	0.758	correct	2back	Block2	2back/STIM_004.jpg
747.599	0.964	correct	2back	Block2	2back/STIM_004.jpg
751.717	0.885	correct	2back	Block2	2back/STIM_004.jpg
755.173	0.694	correct	2back	Block2	2back/STIM_005.jpg
757.922	0.581	correct	2back	Block2	2back/STIM_005.jpg
760.615	1.084	correct	2back	Block2	2back/STIM_005.jpg
765.2	1.256	correct	2back	Block2	2back/STIM_006.jpg
768.621	0.953	correct	2back	Block2	2back/STIM_006.jpg
772.778	0.618	correct	2back	Block2	2back/STIM_006.jpg
775.983	0.995	correct	2back	Block2	2back/STIM_007.jpg
779.069	0.971	incorrect	2back	Block2	2back/STIM_007.jpg
783.48	1.112	correct	2back	Block2	2back/STIM_007.jpg
787.77	0.993	correct	2back	Block2	2back/STIM_008.jpg
792.396	0.971	correct	2back	Block2	2back/STIM_008.jpg
797.2	1.037	correct	2back	Block2	2back/STIM_008.jpg
801.466	0.863	correct	2back	Block2	2back/STIM_009.jpg
806.222	1.099	correct	2back	Block2	2back/STIM_009.jpg
809.451	1.138	correct	2back	Block2	2back/STIM_009.jpg
813.685	1.222	correct	2back	Block2	2back/STIM_010.jpg
818.045	1.011	correct	2back	Block2	2back/STIM_010.jpg
821.207	1.006	correct	2back	Block2	2back/STIM_010.jpg
824.918	1.103	correct	2back	Block2	2back/STIM_011.jpg
829.186	0.703	correct	2back	Block2	2back/STIM_011.jpg
832.087	0.895	correct	2back	Block2	2back/STIM_011.jpg
836.303	0.642	correct	2back	Block2	2back/STIM_012.jpg
840.065	1.02	correct	2back	Block2	2back/STIM_012.jpg
844.754	1.072	correct	2back	Block2	2back/STIM_012.jpg
848.65	0.789	correct	2back	Block2	2back/STIM_013.jpg
852.851	0.698	incorrect	2back	Block2	2back/STIM_013.jpg
857.035	1.231	correct	2back	Block2	2back/STIM_013.jpg
861.825	1.01	correct	2back	Block2	2back/STIM_014.jpg
866.288	0.587	correct	2back	Block2	2back/STIM_014.jpg
869.384	0.759	correct	2back	Block2	2back/STIM_014.jpg
873.919	0.669	correct	2back	Block2	2back/STIM_015.jpg
877.777	1.122	correct	2back	Block2	2back/STIM_015.jpg
882.207	0.631	correct	2back	Block2	2back/STIM_015.jpg
885.188	1.204	correct	2back	Block2	2back/STIM_016.jpg
888.497	1.238	correct	2back	Block2	2back/STIM_016.jpg
891.917	1.056	correct	2back	Block2	2back/STIM_016.jpg
895.981	1.153	correct	2back	Block2	2back/STIM_017.jpg
899.416	0.968	correct	2back	Block2	2back/STIM_017.jpg
904.243	1.137	correct	2back	Block2	2back/STIM_017.jpg
908.69	0.617	incorrect	2back	Block2	2back/STIM_018.jpg
912.15	1.026	correct	2back	Block2	2back/STIM_018.jpg
917.142	0.804	correct	2back	Block2	2back/STIM_018.jpg
920.609	1.168	correct	2back	Block2	2back/STIM_019.jpg
923.98	0.836	correct	2back	Block2	2back/STIM_019.jpg
928.05	0.769	correct	2back	Block2	2back/STIM_019.jpg
932.366	1.406	correct	2back	Block2	2back/STIM_020.jpg
936.94	1.108	correct	2back	Block2	2back/STIM_020.jpg
941.823	0.961	correct	2back	Block2	2back/STIM_020.jpg
946.666	1.381	correct	2back	Block2	2back/STIM_021.jpg
950.151	0.584	correct	2back	Block2	2back/STIM_021.jpg
954.045	0.804	correct	2back	Block2	2back/STIM_021.jpg
958.374	1.319	correct	2back	Block2	2back/STIM_022.jpg
963.68	0.965	incorrect	2back	Block2	2back/STIM_022.jpg
968.364	0.581	correct	2back	Block2	2back/STIM_022.jpg
971.83	1.014	correct	2back	Block2	2back/STIM_023.jpg
975.323	1.133	correct	2back	Block2	2back/STIM_023.jpg
978.612	1.229	correct	2back	Block2	2back/STIM_023.jpg
983.307	1.391	correct	2back	Block2	2back/STIM_024.jpg
986.857	1.212	incorrect	2back	Block2	2back/STIM_024.jpg
991.617	1.089	correct	2back	Block2	2back/STIM_024.jpg
995.51	1.215	correct	2back	Block2	2back/STIM_025.jpg
999.739	0.675	correct	2back	Block2	2back/STIM_025.jpg
1002.644	0.899	correct	2back	Block2	2back/STIM_025.jpg
1005.626	0.925	correct	2back	Block2	2back/STIM_026.jpg
1008.992	1.023	correct	2back	Block2	2back/STIM_026.jpg
1013.516	0.921	correct	2back	Block2	2back/STIM_026.jpg
1016.615	1.232	correct	2back	Block2	2back/STIM_027.jpg
1020.945	1.312	correct	2back	Block2	2back/STIM_027.jpg
1024.671	1.078	correct	2back	Block2	2back/STIM_027.jpg
1029.203	0.79	correct	2back	Block2	2back/STIM_028.jpg
1032.166	1.064	correct	2back	Block2	2back/STIM_028.jpg
1036.029	0.539	correct	2back	Block2	2back/STIM_028.jpg
1039.625	1.349	correct	2back	Block2	2back/STIM_029.jpg
1043.108	1.132	correct	2back	Block2	2back/STIM_029.jpg
1047.633	0.854	correct	2back	Block2	2back/STIM_029.jpg
1052.43	1.29	correct	2back	Block2	2back/STIM_030.jpg
1057.646	0.578	correct	2back	Block2	2back/STIM_030.jpg
1061.71	0.973	correct	2back	Block2	2back/STIM_030.jpg
1066.259	1.026	correct	2back	Block2	2back/STIM_031.jpg
1069.934	0.765	correct	2back	Block2	2back/STIM_031.jpg
1072.96	0.857	correct	2back	Block2	2back/STIM_031.jpg
1076.619	0.639	correct	2back	Block2	2back/STIM_032.jpg
1079.38	0.935	incorrect	2back	Block2	2back/STIM_032.jpg
1083.026	0.574	correct	2back	Block2	2back/STIM_032.jpg
1086.462	1.003	correct	2back	Block2	2back/STIM_033.jpg
1089.982	0.756	incorrect	2back	Block2	2back/STIM_033.jpg
1093.988	0.901	correct	2back	Block2	2back/STIM_033.jpg
1098.889	1.4	correct	2back	Block2	2back/STIM_034.jpg
1102.929	0.973	correct	2back	Block2	2back/STIM_034.jpg
1107.759	0.9	correct	2back	Block2	2back/STIM_034.jpg
1111.226	0.924	correct	2back	Block2	2back/STIM_035.jpg
1115.004	0.644	correct	2back	Block2	2back/STIM_035.jpg
1119.348	1.105	correct	2back	Block2	2back/STIM_035.jpg
1124.255	1.38	correct	2back	Block2	2back/STIM_036.jpg
1128.665	0.819	correct	2back	Block2	2back/STIM_036.jpg
1132.43	1.064	correct	2back	Block2	2back/STIM_036.jpg
1136.42	1.064	correct	2back	Block2	2back/STIM_037.jpg
1139.928	0.857	correct	2back	Block2	2back/STIM_037.jpg
1144.446	1.074	correct	2back	Block2	2back/STIM_037.jpg
1149.247	0.712	correct	2back	Block2	2back/STIM_038.jpg
1153.311	0.924	correct	2back	Block2	2back/STIM_038.jpg
1157.624	1.091	correct	2back	Block2	2back/STIM_038.jpg
1161.728	0.705	correct	2back	Block2	2back/STIM_039.jpg
1164.624	0.998	correct	2back	Block2	2back/STIM_039.jpg
1168.708	0.844	correct	2back	Block2	2back/STIM_039.jpg
1171.923	0.732	correct	0back	Block2	0back/STIM_000.jpg
1175.171	0.626	correct	0back	Block2	0back/STIM_000.jpg
1178.073	0.877	correct	0back	Block2	0back/STIM_000.jpg
1182.212	0.558	correct	0back	Block2	0back/STIM_001.jpg
1185.763	0.895	correct	0back	Block2	0back/STIM_001.jpg
1189.82	0.583	correct	0back	Block2	0back/STIM_001.jpg
1193.067	0.749	correct	0back	Block2	0back/STIM_002.jpg
1197.091	0.649	correct	0back	Block2	0back/STIM_002.jpg
1201.515	0.88	correct	0back	Block2	0back/STIM_002.jpg
1205.895	0.599	correct	0back	Block2	0back/STIM_003.jpg
1209.577	0.94	correct	0back	Block2	0back/STIM_003.jpg
1212.554	0.508	correct	0back	Block2	0back/STIM_003.jpg
1216.327	0.627	correct	0back	Block2	0back/STIM_004.jpg
1219.154	0.846	correct	0back	Block2	0back/STIM_004.jpg
1223.639	0.826	correct	0back	Block2	0back/STIM_004.jpg
1227.811	0.682	correct	0back	Block2	0back/STIM_005.jpg
1231.747	0.571	correct	0back	Block2	0back/STIM_005.jpg
1234.434	0.64	correct	0back	Block2	0back/STIM_005.jpg
1238.483	0.842	correct	0back	Block2	0back/STIM_006.jpg
1242.017	0.577	correct	0back	Block2	0back/STIM_006.jpg
1244.833	0.87	correct	0back	Block2	0back/STIM_006.jpg
1248.862	0.831	correct	0back	Block2	0back/STIM_007.jpg
1252.627	0.65	correct	0back	Block2	0back/STIM_007.jpg
1256.731	0.765	correct	0back	Block2	0back/STIM_007.jpg
1261.015	0.619	correct	0back	Block2	0back/STIM_008.jpg
1264.452	0.585	correct	0back	Block2	0back/STIM_008.jpg
1267.633	0.616	correct	0back	Block2	0back/STIM_008.jpg
1271.19	0.539	correct	0back	Block2	0back/STIM_009.jpg
1275.138	0.638	correct	0back	Block2	0back/STIM_009.jpg
1278.026	0.538	correct	0back	Block2	0back/STIM_009.jpg
1281.46	0.698	correct	0back	Block2	0back/STIM_010.jpg
1285.09	0.928	incorrect	0back	Block2	0back/STIM_010.jpg
1289.7	0.899	correct	0back	Block2	0back/STIM_010.jpg
1293.897	0.636	correct	0back	Block2	0back/STIM_011.jpg
1297.457	0.612	correct	0back	Block2	0back/STIM_011.jpg
1300.937	0.914	correct	0back	Block2	0back/STIM_011.jpg
1305.026	0.743	correct	0back	Block2	0back/STIM_012.jpg
1308.381	0.785	correct	0back	Block2	0back/STIM_012.jpg
1311.462	0.726	correct	0back	Block2	0back/STIM_012.jpg
1316.061	0.879	correct	0back	Block2	0back/STIM_013.jpg
1320.283	0.499	correct	0back	Block2	0back/STIM_013.jpg
1323.669	0.49	correct	0back	Block2	0back/STIM_013.jpg
1327.777	0.891	correct	0back	Block2	0back/STIM_014.jpg
1331.743	0.618	correct	0back	Block2	0back/STIM_014.jpg
1335.565	0.553	correct	0back	Block2	0back/STIM_014.jpg
1339.153	0.505	correct	0back	Block2	0back/STIM_015.jpg
1341.99	0.729	correct	0back	Block2	0back/STIM_015.jpg
1346.668	0.547	correct	0back	Block2	0back/STIM_015.jpg
1349.465	0.798	correct	0back	Block2	0back/STIM_016.jpg
1352.402	0.686	correct	0back	Block2	0back/STIM_016.jpg
1356.391	0.671	correct	0back	Block2	0back/STIM_016.jpg
1359.305	0.721	correct	0back	Block2	0back/STIM_017.jpg
1362.823	0.507	incorrect	0back	Block2	0back/STIM_017.jpg
1367.192	0.744	correct	0back	Block2	0back/STIM_017.jpg
1371.406	0.712	correct	0back	Block2	0back/STIM_018.jpg
1374.271	0.698	correct	0back	Block2	0back/STIM_018.jpg
1377.366	0.743	correct	0back	Block2	0back/STIM_018.jpg
1381.58	0.927	correct	0back	Block2	0back/STIM_019.jpg
1385.06	0.846	correct	0back	Block2	0back/STIM_019.jpg
1388.172	0.882	correct	0back	Block2	0back/STIM_019.jpg
1392.099	0.835	correct	2back	Block3	2back/STIM_000.jpg
1396.545	0.86	correct	2back	Block3	2back/STIM_000.jpg
1401.342	0.657	correct	2back	Block3	2back/STIM_000.jpg
1404.339	1.072	correct	2back	Block3	2back/STIM_001.jpg
1408.72	0.65	correct	2back	Block3	2back/STIM_001.jpg
1412.045	1.116	correct	2back	Block3	2back/STIM_001.jpg
1415.725	0.541	correct	2back	Block3	2back/STIM_002.jpg
1419.371	0.864	correct	2back	Block3	2back/STIM_002.jpg
1423.922	0.551	correct	2back	Block3	2back/STIM_002.jpg
1426.748	1.037	correct	2back	Block3	2back/STIM_003.jpg
1431.375	0.78	correct	2back	Block3	2back/STIM_003.jpg
1434.861	0.958	correct	2back	Block3	2back/STIM_003.jpg
1438.685	0.8	correct	2back	Block3	2back/STIM_004.jpg
1441.69	0.517	correct	2back	Block3	2back/STIM_004.jpg
1445.184	0.967	incorrect	2back	Block3	2back/STIM_004.jpg
1448.459	0.761	correct	2back	Block3	2back/STIM_005.jpg
1452.584	0.98	correct	2back	Block3	2back/STIM_005.jpg
1456.854	1.071	correct	2back	Block3	2back/STIM_005.jpg
1460.868	1.031	incorrect	2back	Block3	2back/STIM_006.jpg
1465.128	0.733	correct	2back	Block3	2back/STIM_006.jpg
1467.911	0.694	correct	2back	Block3	2back/STIM_006.jpg
1470.784	0.946	correct	2back	Block3	2back/STIM_007.jpg
1474.066	0.859	correct	2back	Block3	2back/STIM_007.jpg
1478.068	0.941	correct	2back	Block3	2back/STIM_007.jpg
1481.87	0.508	correct	2back	Block3	2back/STIM_008.jpg
1485.052	0.597	correct	2back	Block3	2back/STIM_008.jpg
1488.028	0.955	correct	2back	Block3	2back/STIM_008.jpg
1491.284	0.819	correct	2back	Block3	2back/STIM_009.jpg
1494.906	0.703	correct	2back	Block3	2back/STIM_009.jpg
1497.716	1.16	correct	2back	Block3	2back/STIM_009.jpg
1502.224	0.668	correct	2back	Block3	2back/STIM_010.jpg
1506.371	0.826	correct	2back	Block3	2back/STIM_010.jpg
1509.375	1.035	correct	2back	Block3	2back/STIM_010.jpg
1512.927	0.799	correct	2back	Block3	2back/STIM_011.jpg
1517.516	0.985	incorrect	2back	Block3	2back/STIM_011.jpg
1521.019	0.702	correct	2back	Block3	2back/STIM_011.jpg
1524.478	1.02	correct	2back	Block3	2back/STIM_012.jpg
1527.887	1.058	correct	2back	Block3	2back/STIM_012.jpg
1532.086	1.129	correct	2back	Block3	2back/STIM_012.jpg
1537.163	0.965	correct	2back	Block3	2back/STIM_013.jpg
1542.051	0.889	correct	2back	Block3	2back/STIM_013.jpg
1546.441	0.934	correct	2back	Block3	2back/STIM_013.jpg
1549.937	0.532	correct	2back	Block3	2back/STIM_014.jpg
1554.203	0.904	correct	2back	Block3	2back/STIM_014.jpg
1558.477	0.595	correct	2back	Block3	2back/STIM_014.jpg
1562.292	0.66	correct	2back	Block3	2back/STIM_015.jpg
1565.462	0.617	correct	2back	Block3	2back/STIM_015.jpg
1569.348	0.971	correct	2back	Block3	2back/STIM_015.jpg
1572.988	0.839	correct	2back	Block3	2back/STIM_016.jpg
1576.145	0.784	correct	2back	Block3	2back/STIM_016.jpg
1580.332	0.867	correct	2back	Block3	2back/STIM_016.jpg
1583.727	1.168	correct	2back	Block3	2back/STIM_017.jpg
1588.803	0.833	correct	2back	Block3	2back/STIM_017.jpg
1592.426	0.84	correct	2back	Block3	2back/STIM_017.jpg
1596.456	0.674	correct	2back	Block3	2back/STIM_018.jpg
1600.342	1.138	correct	2back	Block3	2back/STIM_018.jpg
1604.057	0.855	correct	2back	Block3	2back/STIM_018.jpg
1608.757	0.929	correct	2back	Block3	2back/STIM_019.jpg
1613.385	0.746	correct	2back	Block3	2back/STIM_019.jpg
1617.628	0.806	correct	2back	Block3	2back/STIM_019.jpg
1621.768	0.651	correct	2back	Block3	2back/STIM_020.jpg
1625.553	1.03	correct	2back	Block3	2back/STIM_020.jpg
1628.68	0.935	correct	2back	Block3	2back/STIM_020.jpg
1631.955	0.654	correct	2back	Block3	2back/STIM_021.jpg
1635.541	0.695	correct	2back	Block3	2back/STIM_021.jpg
1638.451	0.881	correct	2back	Block3	2back/STIM_021.jpg
1642.586	0.688	correct	2back	Block3	2back/STIM_022.jpg
1646.693	0.775	correct	2back	Block3	2back/STIM_022.jpg
1649.634	0.885	correct	2back	Block3	2back/STIM_022.jpg
1654.158	0.825	correct	2back	Block3	2back/STIM_023.jpg
1658.302	0.514	correct	2back	Block3	2back/STIM_023.jpg
1661.776	0.632	correct	2back	Block3	2back/STIM_023.jpg
1664.749	1.054	correct	2back	Block3	2back/STIM_024.jpg
1668.805	0.519	correct	2back	Block3	2back/STIM_024.jpg
1671.8	0.581	correct	2back	Block3	2back/STIM_024.jpg
1675.822	0.699	correct	2back	Block3	2back/STIM_025.jpg
1680.165	0.926	correct	2back	Block3	2back/STIM_025.jpg
1684.896	0.863	correct	2back	Block3	2back/STIM_025.jpg
1689.675	0.64	correct	2back	Block3	2back/STIM_026.jpg
1693.717	1.088	correct	2back	Block3	2back/STIM_026.jpg
1698.383	0.584	correct	2back	Block3	2back/STIM_026.jpg
1701.253	0.657	correct	2back	Block3	2back/STIM_027.jpg
1705.852	1.075	correct	2back	Block3	2back/STIM_027.jpg
1708.948	0.9	correct	2back	Block3	2back/STIM_027.jpg
1712.572	0.814	correct	2back	Block3	2back/STIM_028.jpg
1716.386	1.15	correct	2back	Block3	2back/STIM_028.jpg
1721.062	0.69	correct	2back	Block3	2back/STIM_028.jpg
1725.419	1.033	correct	2back	Block3	2back/STIM_029.jpg
1728.617	1.074	correct	2back	Block3	2back/STIM_029.jpg
1732.302	0.754	correct	2back	Block3	2back/STIM_029.jpg
1737.051	0.968	correct	2back	Block3	2back/STIM_030.jpg
1740.568	1.054	correct	2back	Block3	2back/STIM_030.jpg
1743.882	0.856	correct	2back	Block3	2back/STIM_030.jpg
1747.305	1.031	correct	2back	Block3	2back/STIM_031.jpg
1751.43	1.132	correct	2back	Block3	2back/STIM_031.jpg
1756.254	0.69	correct	2back	Block3	2back/STIM_031.jpg
1760.13	0.826	correct	2back	Block3	2back/STIM_032.jpg
1763.612	0.953	incorrect	2back	Block3	2back/STIM_032.jpg
1767.436	0.713	correct	2back	Block3	2back/STIM_032.jpg
1771.547	0.555	correct	2back	Block3	2back/STIM_033.jpg
1775.956	0.697	correct	2back	Block3	2back/STIM_033.jpg
1778.862	0.661	correct	2back	Block3	2back/STIM_033.jpg
1783.342	0.997	correct	2back	Block3	2back/STIM_034.jpg
1786.753	0.86	correct	2back	Block3	2back/STIM_034.jpg
1791.474	0.959	correct	2back	Block3	2back/STIM_034.jpg
1795.047	0.956	correct	2back	Block3	2back/STIM_035.jpg
1798.462	0.98	correct	2back	Block3	2back/STIM_035.jpg
1803.357	0.669	correct	2back	Block3	2back/STIM_035.jpg
1808.001	0.84	correct	2back	Block3	2back/STIM_036.jpg
1812.558	0.893	correct	2back	Block3	2back/STIM_036.jpg
1815.602	0.853	correct	2back	Block3	2back/STIM_036.jpg
1819.824	0.827	correct	2back	Block3	2back/STIM_037.jpg
1823.07	0.668	correct	2back	Block3	2back/STIM_037.jpg
1826.591	0.943	correct	2back	Block3	2back/STIM_037.jpg
1830.728	0.735	correct	2back	Block3	2back/STIM_038.jpg
1833.753	1.101	correct	2back	Block3	2back/STIM_038.jpg
1837.354	0.925	correct	2back	Block3	2back/STIM_038.jpg
1840.996	1.008	correct	2back	Block3	2back/STIM_039.jpg
1845.846	0.972	correct	2back	Block3	2back/STIM_039.jpg
1850.304	0.946	correct	2back	Block3	2back/STIM_039.jpg
1853.446	0.723	correct	0back	Block3	0back/STIM_000.jpg
1858.121	0.646	correct	0back	Block3	0back/STIM_000.jpg
1862.719	0.505	correct	0back	Block3	0back/STIM_000.jpg
1866.338	0.753	correct	0back	Block3	0back/STIM_001.jpg
1870.07	0.491	correct	0back	Block3	0back/STIM_001.jpg
1874.108	0.783	correct	0back	Block3	0back/STIM_001.jpg
1877.125	0.775	correct	0back	Block3	0back/STIM_002.jpg
1880.943	0.596	correct	0back	Block3	0back/STIM_002.jpg
1884.559	0.799	correct	0back	Block3	0back/STIM_002.jpg
1888.402	0.819	correct	0back	Block3	0back/STIM_003.jpg
1892.239	0.902	correct	0back	Block3	0back/STIM_003.jpg
1896.953	0.686	correct	0back	Block3	0back/STIM_003.jpg
1900.787	0.841	correct	0back	Block3	0back/STIM_004.jpg
1904.459	0.703	correct	0back	Block3	0back/STIM_004.jpg
1909.017	0.658	correct	0back	Block3	0back/STIM_004.jpg
1912.648	0.735	correct	0back	Block3	0back/STIM_005.jpg
1915.451	0.616	correct	0back	Block3	0back/STIM_005.jpg
1919.543	0.76	correct	0back	Block3	0back/STIM_005.jpg
1923.456	0.505	correct	0back	Block3	0back/STIM_006.jpg
1926.248	0.868	correct	0back	Block3	0back/STIM_006.jpg
1929.485	0.767	correct	0back	Block3	0back/STIM_006.jpg
1934.206	0.604	correct	0back	Block3	0back/STIM_007.jpg
1936.883	0.88	correct	0back	Block3	0back/STIM_007.jpg
1940.264	0.897	correct	0back	Block3	0back/STIM_007.jpg
1945.005	0.561	correct	0back	Block3	0back/STIM_008.jpg
1948.939	0.586	correct	0back	Block3	0back/STIM_008.jpg
1951.668	0.907	correct	0back	Block3	0back/STIM_008.jpg
1955.895	0.883	correct	0back	Block3	0back/STIM_009.jpg
1959.999	0.913	correct	0back	Block3	0back/STIM_009.jpg
1963.055	0.599	correct	0back	Block3	0back/STIM_009.jpg
1966.957	0.923	correct	0back	Block3	0back/STIM_010.jpg
1971.842	0.851	correct	0back	Block3	0back/STIM_010.jpg
1975.04	0.625	correct	0back	Block3	0back/STIM_010.jpg
1979.237	0.596	correct	0back	Block3	0back/STIM_011.jpg
1983.393	0.725	correct	0back	Block3	0back/STIM_011.jpg
1986.46	0.75	correct	0back	Block3	0back/STIM_011.jpg
1990.172	0.735	correct	0back	Block3	0back/STIM_012.jpg
1992.978	0.815	correct	0back	Block3	0back/STIM_012.jpg
1995.988	0.597	incorrect	0back	Block3	0back/STIM_012.jpg
2000.367	0.722	correct	0back	Block3	0back/STIM_013.jpg
2004.587	0.521	correct	0back	Block3	0back/STIM_013.jpg
2007.746	0.816	correct	0back	Block3	0back/STIM_013.jpg
2011.03	0.576	correct	0back	Block3	0back/STIM_014.jpg
2014.958	0.628	correct	0back	Block3	0back/STIM_014.jpg
2018.368	0.773	correct	0back	Block3	0back/STIM_014.jpg
2021.488	0.62	correct	0back	Block3	0back/STIM_015.jpg
2024.161	0.627	correct	0back	Block3	0back/STIM_015.jpg
2026.795	0.723	correct	0back	Block3	0back/STIM_015.jpg
2031.101	0.747	correct	0back	Block3	0back/STIM_016.jpg
2033.949	0.521	correct	0back	Block3	0back/STIM_016.jpg
2036.894	0.868	correct	0back	Block3	0back/STIM_016.jpg
2040.577	0.492	correct	0back	Block3	0back/STIM_017.jpg
2044.355	0.908	correct	0back	Block3	0back/STIM_017.jpg
2047.374	0.939	correct	0back	Block3	0back/STIM_017.jpg
2050.52	0.731	correct	0back	Block3	0back/STIM_018.jpg
2053.252	0.854	correct	0back	Block3	0back/STIM_018.jpg
2057.228	0.62	correct	0back	Block3	0back/STIM_018.jpg
2061.725	0.482	correct	0back	Block3	0back/STIM_019.jpg
2065.703	0.54	correct	0back	Block3	0back/STIM_019.jpg
2068.527	0.844	correct	0back	Block3	0back/STIM_019.jpg
2072.995	0.674	correct	2back	Block4	2back/STIM_000.jpg
2075.698	0.623	correct	2back	Block4	2back/STIM_000.jpg
2079.142	0.904	correct	2back	Block4	2back/STIM_000.jpg
2082.713	0.644	correct	2back	Block4	2back/STIM_001.jpg
2085.59	1.126	correct	2back	Block4	2back/STIM_001.jpg
2089.665	0.593	correct	2back	Block4	2back/STIM_001.jpg
2094.022	0.908	correct	2back	Block4	2back/STIM_002.jpg
2098.277	0.896	correct	2back	Block4	2back/STIM_002.jpg
2102.236	0.985	correct	2back	Block4	2back/STIM_002.jpg
2106.247	1.028	correct	2back	Block4	2back/STIM_003.jpg
2110.996	0.871	correct	2back	Block4	2back/STIM_003.jpg
2115.497	0.721	correct	2back	Block4	2back/STIM_003.jpg
2119.908	0.568	correct	2back	Block4	2back/STIM_004.jpg
2122.497	1.094	correct	2back	Block4	2back/STIM_004.jpg
2127.552	1.115	correct	2back	Block4	2back/STIM_004.jpg
2131.388	0.91	correct	2back	Block4	2back/STIM_005.jpg
2135.743	0.682	correct	2back	Block4	2back/STIM_005.jpg
2140.07	1.09	correct	2back	Block4	2back/STIM_005.jpg
2144.295	0.73	correct	2back	Block4	2back/STIM_006.jpg
2147.346	0.931	correct	2back	Block4	2back/STIM_006.jpg
2151.842	0.694	correct	2back	Block4	2back/STIM_006.jpg
2155.952	0.925	correct	2back	Block4	2back/STIM_007.jpg
2160.748	0.716	correct	2back	Block4	2back/STIM_007.jpg
2165.188	0.594	correct	2back	Block4	2back/STIM_007.jpg
2167.972	1.011	correct	2back	Block4	2back/STIM_008.jpg
2171.056	0.818	correct	2back	Block4	2back/STIM_008.jpg
2174.419	0.959	correct	2back	Block4	2back/STIM_008.jpg
2177.971	0.692	correct	2back	Block4	2back/STIM_009.jpg
2181.089	0.69	correct	2back	Block4	2back/STIM_009.jpg
2184.736	0.877	correct	2back	Block4	2back/STIM_009.jpg
2188.909	0.519	correct	2back	Block4	2back/STIM_010.jpg
2192.383	0.607	correct	2back	Block4	2back/STIM_010.jpg
2196.361	1.068	correct	2back	Block4	2back/STIM_010.jpg
2199.821	0.857	correct	2back	Block4	2back/STIM_011.jpg
2202.891	1.103	correct	2back	Block4	2back/STIM_011.jpg
2207.598	0.568	correct	2back	Block4	2back/STIM_011.jpg
2210.386	0.835	correct	2back	Block4	2back/STIM_012.jpg
2215.026	1.117	correct	2back	Block4	2back/STIM_012.jpg
2218.193	1.02	correct	2back	Block4	2back/STIM_012.jpg
2221.591	1.06	correct	2back	Block4	2back/STIM_013.jpg
2225.722	0.67	correct	2back	Block4	2back/STIM_013.jpg
2229.498	0.52	correct	2back	Block4	2back/STIM_013.jpg
2233.181	0.684	correct	2back	Block4	2back/STIM_014.jpg
2235.957	1.123	correct	2back	Block4	2back/STIM_014.jpg
2240.821	0.507	correct	2back	Block4	2back/STIM_014.jpg
2244.815	0.972	correct	2back	Block4	2back/STIM_015.jpg
2247.802	0.912	correct	2back	Block4	2back/STIM_015.jpg
2251.35	1.08	correct	2back	Block4	2back/STIM_015.jpg
2255.899	0.57	correct	2back	Block4	2back/STIM_016.jpg
2259.069	1.076	correct	2back	Block4	2back/STIM_016.jpg
2262.158	1.028	correct	2back	Block4	2back/STIM_016.jpg
2267.063	0.797	correct	2back	Block4	2back/STIM_017.jpg
2269.981	0.55	correct	2back	Block4	2back/STIM_017.jpg
2272.681	0.73	correct	2back	Block4	2back/STIM_017.jpg
2276.417	0.618	correct	2back	Block4	2back/STIM_018.jpg
2279.406	0.773	correct	2back	Block4	2back/STIM_018.jpg
2282.634	0.978	correct	2back	Block4	2back/STIM_018.jpg
2287.027	1.042	correct	2back	Block4	2back/STIM_019.jpg
2291.719	1.104	correct	2back	Block4	2back/STIM_019.jpg
2294.881	0.768	correct	2back	Block4	2back/STIM_019.jpg
2297.773	0.899	correct	2back	Block4	2back/STIM_020.jpg
2302.374	0.721	correct	2back	Block4	2back/STIM_020.jpg
2305.348	0.567	correct	2back	Block4	2back/STIM_020.jpg
2309.529	0.827	correct	2back	Block4	2back/STIM_021.jpg
2312.667	0.61	correct	2back	Block4	2back/STIM_021.jpg
2316.013	0.767	correct	2back	Block4	2back/STIM_021.jpg
2320.351	0.695	correct	2back	Block4	2back/STIM_022.jpg
2323.972	0.532	correct	2back	Block4	2back/STIM_022.jpg
2327.895	0.781	correct	2back	Block4	2back/STIM_022.jpg
2331.591	0.702	correct	2back	Block4	2back/STIM_023.jpg
2334.908	0.902	correct	2back	Block4	2back/STIM_023.jpg
2339.209	0.57	correct	2back	Block4	2back/STIM_023.jpg
2342.073	0.714	correct	2back	Block4	2back/STIM_024.jpg
2345.515	0.655	correct	2back	Block4	2back/STIM_024.jpg
2348.73	0.75	correct	2back	Block4	2back/STIM_024.jpg
2353.402	0.512	correct	2back	Block4	2back/STIM_025.jpg
2357.777	1.022	correct	2back	Block4	2back/STIM_025.jpg
2361.095	0.837	correct	2back	Block4	2back/STIM_025.jpg
2364.534	0.988	correct	2back	Block4	2back/STIM_026.jpg
2368.791	1.089	correct	2back	Block4	2back/STIM_026.jpg
2373.578	0.859	correct	2back	Block4	2back/STIM_026.jpg
2376.987	1.018	correct	2back	Block4	2back/STIM_027.jpg
2381.816	1.081	correct	2back	Block4	2back/STIM_027.jpg
2386.694	0.915	correct	2back	Block4	2back/STIM_027.jpg
2391.193	0.848	correct	2back	Block4	2back/STIM_028.jpg
2394.463	0.514	correct	2back	Block4	2back/STIM_028.jpg
2398.679	1.156	correct	2back	Block4	2back/STIM_028.jpg
2402.95	0.784	correct	2back	Block4	2back/STIM_029.jpg
2406.359	0.648	correct	2back	Block4	2back/STIM_029.jpg
2409.257	0.635	correct	2back	Block4	2back/STIM_029.jpg
2412.505	0.914	correct	2back	Block4	2back/STIM_030.jpg
2416.434	1.106	correct	2back	Block4	2back/STIM_030.jpg
2420.505	0.593	correct	2back	Block4	2back/STIM_030.jpg
2424.203	0.72	correct	2back	Block4	2back/STIM_031.jpg
2427.468	0.836	correct	2back	Block4	2back/STIM_031.jpg
2431.211	0.953	correct	2back	Block4	2back/STIM_031.jpg
2435.514	1.124	correct	2back	Block4	2back/STIM_032.jpg
2439.858	0.9	correct	2back	Block4	2back/STIM_032.jpg
2442.925	0.834	correct	2back	Block4	2back/STIM_032.jpg
2445.872	1.152	correct	2back	Block4	2back/STIM_033.jpg
2449.457	0.621	correct	2back	Block4	2back/STIM_033.jpg
2452.218	1.117	correct	2back	Block4	2back/STIM_033.jpg
2456.217	0.943	correct	2back	Block4	2back/STIM_034.jpg
2460.098	1.106	correct	2back	Block4	2back/STIM_034.jpg
2463.669	1.059	correct	2back	Block4	2back/STIM_034.jpg
2467.435	1.104	correct	2back	Block4	2back/STIM_035.jpg
2472.381	0.979	correct	2back	Block4	2back/STIM_035.jpg
2477.083	0.51	correct	2back	Block4	2back/STIM_035.jpg
2481.132	0.856	correct	2back	Block4	2back/STIM_036.jpg
2485.57	0.678	correct	2back	Block4	2back/STIM_036.jpg
2490.203	0.667	correct	2back	Block4	2back/STIM_036.jpg
2493.616	0.772	correct	2back	Block4	2back/STIM_037.jpg
2498.202	0.672	correct	2back	Block4	2back/STIM_037.jpg
2502.611	0.818	correct	2back	Block4	2back/STIM_037.jpg
2506.602	0.733	correct	2back	Block4	2back/STIM_038.jpg
2510.752	0.606	correct	2back	Block4	2back/STIM_038.jpg
2513.567	1.029	correct	2back	Block4	2back/STIM_038.jpg
2516.636	1.062	correct	2back	Block4	2back/STIM_039.jpg
2520.366	0.811	correct	2back	Block4	2back/STIM_039.jpg
2524.381	0.923	correct	2back	Block4	2back/STIM_039.jpg
2528.051	0.722	correct	0back	Block4	0back/STIM_000.jpg
2531.929	0.651	correct	0back	Block4	0back/STIM_000.jpg
2535.027	0.672	correct	0back	Block4	0back/STIM_000.jpg
2539.598	0.852	correct	0back	Block4	0back/STIM_001.jpg
2544.409	0.497	correct	0back	Block4	0back/STIM_001.jpg
2548.005	0.854	correct	0back	Block4	0back/STIM_001.jpg
2551.14	0.931	correct	0back	Block4	0back/STIM_002.jpg
2555.397	0.669	correct	0back	Block4	0back/STIM_002.jpg
2558.277	0.52	incorrect	0back	Block4	0back/STIM_002.jpg
2562.618	0.878	correct	0back	Block4	0back/STIM_003.jpg
2566.041	0.627	correct	0back	Block4	0back/STIM_003.jpg
2569.159	0.866	correct	0back	Block4	0back/STIM_003.jpg
2573.903	0.554	incorrect	0back	Block4	0back/STIM_004.jpg
2577.488	0.87	correct	0back	Block4	0back/STIM_004.jpg
2582.322	0.562	correct	0back	Block4	0back/STIM_004.jpg
2586.483	0.876	correct	0back	Block4	0back/STIM_005.jpg
2590.179	0.937	correct	0back	Block4	0back/STIM_005.jpg
2594.315	0.573	correct	0back	Block4	0back/STIM_005.jpg
2598.667	0.89	correct	0back	Block4	0back/STIM_006.jpg
2602.297	0.741	correct	0back	Block4	0back/STIM_006.jpg
2605.888	0.6	correct	0back	Block4	0back/STIM_006.jpg
2609.454	0.929	correct	0back	Block4	0back/STIM_007.jpg
2612.91	0.763	correct	0back	Block4	0back/STIM_007.jpg
2617.257	0.489	correct	0back	Block4	0back/STIM_007.jpg
2620.865	0.747	correct	0back	Block4	0back/STIM_008.jpg
2624.573	0.897	correct	0back	Block4	0back/STIM_008.jpg
2628.346	0.698	incorrect	0back	Block4	0back/STIM_008.jpg
2631.559	0.798	correct	0back	Block4	0back/STIM_009.jpg
2636.204	0.672	correct	0back	Block4	0back/STIM_009.jpg
2640.224	0.814	correct	0back	Block4	0back/STIM_009.jpg
2644.331	0.864	correct	0back	Block4	0back/STIM_010.jpg
2648.809	0.65	correct	0back	Block4	0back/STIM_010.jpg
2652.051	0.596	correct	0back	Block4	0back/STIM_010.jpg
2654.719	0.486	correct	0back	Block4	0back/STIM_011.jpg
2659.103	0.673	correct	0back	Block4	0back/STIM_011.jpg
2662.321	0.768	correct	0back	Block4	0back/STIM_011.jpg
2666.504	0.746	correct	0back	Block4	0back/STIM_012.jpg
2670.846	0.764	correct	0back	Block4	0back/STIM_012.jpg
2674.057	0.786	correct	0back	Block4	0back/STIM_012.jpg
2678.387	0.683	correct	0back	Block4	0back/STIM_013.jpg
2681.315	0.851	correct	0back	Block4	0back/STIM_013.jpg
2685.982	0.547	correct	0back	Block4	0back/STIM_013.jpg
2689.492	0.928	correct	0back	Block4	0back/STIM_014.jpg
2692.928	0.754	correct	0back	Block4	0back/STIM_014.jpg
2697.421	0.566	correct	0back	Block4	0back/STIM_014.jpg
2700.723	0.521	correct	0back	Block4	0back/STIM_015.jpg
2704.921	0.494	correct	0back	Block4	0back/STIM_015.jpg
2708.168	0.549	correct	0back	Block4	0back/STIM_015.jpg
2711.417	0.59	correct	0back	Block4	0back/STIM_016.jpg
2714.821	0.792	correct	0back	Block4	0back/STIM_016.jpg
2719.027	0.589	correct	0back	Block4	0back/STIM_016.jpg
2721.823	0.934	correct	0back	Block4	0back/STIM_017.jpg
2726.62	0.84	correct	0back	Block4	0back/STIM_017.jpg
2730.555	0.782	correct	0back	Block4	0back/STIM_017.jpg
2734.059	0.913	correct	0back	Block4	0back/STIM_018.jpg
2737.896	0.701	incorrect	0back	Block4	0back/STIM_018.jpg
2741.365	0.502	correct	0back	Block4	0back/STIM_018.jpg
2745.494	0.616	correct	0back	Block4	0back/STIM_019.jpg
2748.559	0.656	incorrect	0back	Block4	0back/STIM_019.jpg
2752.113	0.773	correct	0back	Block4	0back/STIM_019.jpg
