onset	duration	accuracy_binary	trial_type	learning_stage	stimulus
0.0	1.283	1	2back	Block1	2back/STIM_000.jpg
3.858	1.306	1	2back	Block1	2back/STIM_000.jpg
8.769	1.177	1	2back	Block1	2back/STIM_000.jpg
13.739	1.158	0	2back	Block1	2back/STIM_001.jpg
17.325	1.427	1	2back	Block1	2back/STIM_001.jpg
20.805	1.042	0	2back	Block1	2back/STIM_001.jpg
24.659	1.329	1	2back	Block1	2back/STIM_002.jpg
28.976	1.408	1	2back	Block1	2back/STIM_002.jpg
33.068	1.356	1	2back	Block1	2back/STIM_002.jpg
37.645	1.165	1	2back	Block1	2back/STIM_003.jpg
41.622	0.696	1	2back	Block1	2back/STIM_003.jpg
44.299	1.127	1	2back	Block1	2back/STIM_003.jpg
48.354	0.919	1	2back	Block1	2back/STIM_004.jpg
52.69	1.21	1	2back	Block1	2back/STIM_004.jpg
55.873	1.297	1	2back	Block1	2back/STIM_004.jpg
59.457	1.552	1	2back	Block1	2back/STIM_005.jpg
64.644	1.369	1	2back	Block1	2back/STIM_005.jpg
69.212	0.722	1	2back	Block1	2back/STIM_005.jpg
72.26	1.401	0	2back	Block1	2back/STIM_006.jpg
75.594	0.652	0	2back	Block1	2back/STIM_006.jpg
80.0	1.047	0	2back	Block1	2back/STIM_006.jpg
84.255	0.788	1	2back	Block1	2back/STIM_007.jpg
88.607	1.065	1	2back	Block1	2back/STIM_007.jpg
93.351	0.989	1	2back	Block1	2back/STIM_007.jpg
97.756	1.236	1	2back	Block1	2back/STIM_008.jpg
102.092	1.394	1	2back	Block1	2back/STIM_008.jpg
107.33	0.614	1	2back	Block1	2back/STIM_008.jpg
110.617	0.98	1	2back	Block1	2back/STIM_009.jpg
114.083	1.375	1	2back	Block1	2back/STIM_009.jpg
118.977	1.166	1	2back	Block1	2back/STIM_009.jpg
122.547	1.124	1	2back	Block1	2back/STIM_010.jpg
125.915	1.203	1	2back	Block1	2back/STIM_010.jpg
130.625	0.648	1	2back	Block1	2back/STIM_010.jpg
134.052	0.925	1	2back	Block1	2back/STIM_011.jpg
137.978	0.59	1	2back	Block1	2back/STIM_011.jpg
141.801	0.945	0	2back	Block1	2back/STIM_011.jpg
146.463	0.766	1	2back	Block1	2back/STIM_012.jpg
150.012	1.357	1	2back	Block1	2back/STIM_012.jpg
154.945	0.876	1	2back	Block1	2back/STIM_012.jpg
157.989	1.266	1	2back	Block1	2back/STIM_013.jpg
161.796	1.029	0	2back	Block1	2back/STIM_013.jpg
166.572	0.695	1	2back	Block1	2back/STIM_013.jpg
170.491	0.943	1	2back	Block1	2back/STIM_014.jpg
175.194	1.02	1	2back	Block1	2back/STIM_014.jpg
179.05	1.204	1	2back	Block1	2back/STIM_014.jpg
183.45	1.19	1	2back	Block1	2back/STIM_015.jpg
186.919	0.96	1	2back	Block1	2back/STIM_015.jpg
190.996	0.782	1	2back	Block1	2back/STIM_015.jpg
194.622	1.164	1	2back	Block1	2back/STIM_016.jpg
198.886	0.859	1	2back	Block1	2back/STIM_016.jpg
203.1	1.054	1	2back	Block1	2back/STIM_016.jpg
206.757	1.496	0	2back	Block1	2back/STIM_017.jpg
210.562	1.029	1	2back	Block1	2back/STIM_017.jpg
215.221	1.316	1	2back	Block1	2back/STIM_017.jpg
218.532	1.183	1	2back	Block1	2back/STIM_018.jpg
221.815	1.237	1	2back	Block1	2back/STIM_018.jpg
226.776	1.356	1	2back	Block1	2back/STIM_018.jpg
231.157	1.127	1	2back	Block1	2back/STIM_019.jpg
235.727	1.461	1	2back	Block1	2back/STIM_019.jpg
240.938	0.629	1	2back	Block1	2back/STIM_019.jpg
245.025	1.159	1	2back	Block1	2back/STIM_020.jpg
248.927	0.819	0	2back	Block1	2back/STIM_020.jpg
252.077	1.123	1	2back	Block1	2back/STIM_020.jpg
255.605	1.05	1	2back	Block1	2back/STIM_021.jpg
259.099	1.077	1	2back	Block1	2back/STIM_021.jpg
263.619	1.215	1	2back	Block1	2back/STIM_021.jpg
267.818	1.052	0	2back	Block1	2back/STIM_022.jpg
271.649	0.792	1	2back	Block1	2back/STIM_022.jpg
275.353	1.17	1	2back	Block1	2back/STIM_022.jpg
279.826	1.087	1	2back	Block1	2back/STIM_023.jpg
282.967	0.871	1	2back	Block1	2back/STIM_023.jpg
287.468	1.325	1	2back	Block1	2back/STIM_023.jpg
290.794	1.52	1	2back	Block1	2back/STIM_024.jpg
294.504	0.806	1	2back	Block1	2back/STIM_024.jpg
299.058	0.707	0	2back	Block1	2back/STIM_024.jpg
302.116	0.996	1	2back	Block1	2back/STIM_025.jpg
306.022	1.458	1	2back	Block1	2back/STIM_025.jpg
310.055	1.164	1	2back	Block1	2back/STIM_025.jpg
314.636	0.7	1	2back	Block1	2back/STIM_026.jpg
317.852	1.131	0	2back	Block1	2back/STIM_026.jpg
322.538	1.308	1	2back	Block1	2back/STIM_026.jpg
326.397	1.033	1	2back	Block1	2back/STIM_027.jpg
330.476	1.315	1	2back	Block1	2back/STIM_027.jpg
334.255	0.859	1	2back	Block1	2back/STIM_027.jpg
337.846	1.516	1	2back	Block1	2back/STIM_028.jpg
342.451	0.734	1	2back	Block1	2back/STIM_028.jpg
345.463	1.371	1	2back	Block1	2back/STIM_028.jpg
349.458	0.699	0	2back	Block1	2back/STIM_029.jpg
352.507	0.622	0	2back	Block1	2back/STIM_029.jpg
355.385	0.715	0	2back	Block1	2back/STIM_029.jpg
358.979	1.081	1	2back	Block1	2back/STIM_030.jpg
362.208	0.601	1	2back	Block1	2back/STIM_030.jpg
366.764	0.734	1	2back	Block1	2back/STIM_030.jpg
369.752	1.528	1	2back	Block1	2back/STIM_031.jpg
374.783	1.43	1	2back	Block1	2back/STIM_031.jpg
379.583	1.193	0	2back	Block1	2back/STIM_031.jpg
384.28	1.079	0	2back	Block1	2back/STIM_032.jpg
388.676	1.321	1	2back	Block1	2back/STIM_032.jpg
391.979	0.7	1	2back	Block1	2back/STIM_032.jpg
395.739	1.088	1	2back	Block1	2back/STIM_033.jpg
399.722	0.782	1	2back	Block1	2back/STIM_033.jpg
403.709	1.224	1	2back	Block1	2back/STIM_033.jpg
408.253	1.012	1	2back	Block1	2back/STIM_034.jpg
411.709	1.06	1	2back	Block1	2back/STIM_034.jpg
416.576	0.576	1	2back	Block1	2back/STIM_034.jpg
419.736	1.142	1	2back	Block1	2back/STIM_035.jpg
423.039	0.905	1	2back	Block1	2back/STIM_035.jpg
426.33	0.901	1	2back	Block1	2back/STIM_035.jpg
429.734	0.834	1	2back	Block1	2back/STIM_036.jpg
433.504	1.231	0	2back	Block1	2back/STIM_036.jpg
438.259	1.377	1	2back	Block1	2back/STIM_036.jpg
442.171	1.166	1	2back	Block1	2back/STIM_037.jpg
446.958	1.118	1	2back	Block1	2back/STIM_037.jpg
451.316	1.087	1	2back	Block1	2back/STIM_037.jpg
455.332	0.841	1	2back	Block1	2back/STIM_038.jpg
458.674	0.63	1	2back	Block1	2back/STIM_038.jpg
462.54	1.469	0	2back	Block1	2back/STIM_038.jpg
466.287	0.832	0	2back	Block1	2back/STIM_039.jpg
470.25	1.228	1	2back	Block1	2back/STIM_039.jpg
475.022	1.319	1	2back	Block1	2back/STIM_039.jpg
479.661	0.652	1	0back	Block1	0back/STIM_000.jpg
484.109	0.654	1	0back	Block1	0back/STIM_000.jpg
486.96	0.706	1	0back	Block1	0back/STIM_000.jpg
489.798	0.687	1	0back	Block1	0back/STIM_001.jpg
493.475	0.777	1	0back	Block1	0back/STIM_001.jpg
497.218	0.654	1	0back	Block1	0back/STIM_001.jpg
500.468	0.634	1	0back	Block1	0back/STIM_002.jpg
504.577	0.666	1	0back	Block1	0back/STIM_002.jpg
507.677	0.575	1	0back	Block1	0back/STIM_002.jpg
510.524	0.477	1	0back	Block1	0back/STIM_003.jpg
514.236	0.81	1	0back	Block1	0back/STIM_003.jpg
517.607	0.802	1	0back	Block1	0back/STIM_003.jpg
520.698	0.763	1	0back	Block1	0back/STIM_004.jpg
523.973	0.828	1	0back	Block1	0back/STIM_004.jpg
527.756	0.408	1	0back	Block1	0back/STIM_004.jpg
531.875	0.676	1	0back	Block1	0back/STIM_005.jpg
536.25	0.859	0	0back	Block1	0back/STIM_005.jpg
540.577	0.546	0	0back	Block1	0back/STIM_005.jpg
544.938	0.383	1	0back	Block1	0back/STIM_006.jpg
548.196	0.703	1	0back	Block1	0back/STIM_006.jpg
552.304	0.958	1	0back	Block1	0back/STIM_006.jpg
556.734	0.78	1	0back	Block1	0back/STIM_007.jpg
559.966	0.65	1	0back	Block1	0back/STIM_007.jpg
564.058	0.995	1	0back	Block1	0back/STIM_007.jpg
566.862	0.647	1	0back	Block1	0back/STIM_008.jpg
570.542	0.895	1	0back	Block1	0back/STIM_008.jpg
575.33	0.851	1	0back	Block1	0back/STIM_008.jpg
579.35	0.561	1	0back	Block1	0back/STIM_009.jpg
582.837	0.831	1	0back	Block1	0back/STIM_009.jpg
586.468	0.515	1	0back	Block1	0back/STIM_009.jpg
589.466	0.556	1	0back	Block1	0back/STIM_010.jpg
592.926	0.507	1	0back	Block1	0back/STIM_010.jpg
596.679	0.365	1	0back	Block1	0back/STIM_010.jpg
600.066	0.829	1	0back	Block1	0back/STIM_011.jpg
604.477	0.889	0	0back	Block1	0back/STIM_011.jpg
608.169	0.73	1	0back	Block1	0back/STIM_011.jpg
612.826	0.633	1	0back	Block1	0back/STIM_012.jpg
616.42	0.772	1	0back	Block1	0back/STIM_012.jpg
620.995	0.471	1	0back	Block1	0back/STIM_012.jpg
623.946	0.539	0	0back	Block1	0back/STIM_013.jpg
628.181	0.649	1	0back	Block1	0back/STIM_013.jpg
632.48	0.566	1	0back	Block1	0back/STIM_013.jpg
636.156	0.642	1	0back	Block1	0back/STIM_014.jpg
639.937	0.842	1	0back	Block1	0back/STIM_014.jpg
644.582	0.728	1	0back	Block1	0back/STIM_014.jpg
647.915	0.49	1	0back	Block1	0back/STIM_015.jpg
651.676	0.972	1	0back	Block1	0back/STIM_015.jpg
654.938	0.53	1	0back	Block1	0back/STIM_015.jpg
657.757	0.668	1	0back	Block1	0back/STIM_016.jpg
662.312	0.824	1	0back	Block1	0back/STIM_016.jpg
666.584	0.591	1	0back	Block1	0back/STIM_016.jpg
670.054	0.558	1	0back	Block1	0back/STIM_017.jpg
674.257	0.552	1	0back	Block1	0back/STIM_017.jpg
677.374	0.712	1	0back	Block1	0back/STIM_017.jpg
680.067	0.747	1	0back	Block1	0back/STIM_018.jpg
683.248	0.829	1	0back	Block1	0back/STIM_018.jpg
686.369	0.471	1	0back	Block1	0back/STIM_018.jpg
689.804	0.596	1	0back	Block1	0back/STIM_019.jpg
693.589	0.696	1	0back	Block1	0back/STIM_019.jpg
696.565	0.45	1	0back	Block1	0back/STIM_019.jpg
699.752	1.034	1	2back	Block2	2back/STIM_000.jpg
703.262	1.017	1	2back	Block2	2back/STIM_000.jpg
706.302	0.904	1	2back	Block2	2back/STIM_000.jpg
709.625	0.885	1	2back	Block2	2back/STIM_001.jpg
712.94	1.015	1	2back	Block2	2back/STIM_001.jpg
717.591	0.688	1	2back	Block2	2back/STIM_001.jpg
720.773	0.985	1	2back	Block2	2back/STIM_002.jpg
724.702	0.628	0	2back	Block2	2back/STIM_002.jpg
728.909	0.626	1	2back	Block2	2back/STIM_002.jpg
731.926	1.069	1	2back	Block2	2back/STIM_003.jpg
735.154	1.007	1	2back	Block2	2back/STIM_003.jpg
738.885	0.514	1	2back	Block2	2back/STIM_003.jpg
743.204	1.022	1	2back	Block2	2back/STIM_004.jpg
747.456	0.535	0	2back	Block2	2back/STIM_004.jpg
750.293	0.531	1	2back	Block2	2back/STIM_004.jpg
754.412	0.976	1	2back	Block2	2back/STIM_005.jpg
757.651	1.138	1	2back	Block2	2back/STIM_005.jpg
760.69	1.085	1	2back	Block2	2back/STIM_005.jpg
764.575	0.994	1	2back	Block2	2back/STIM_006.jpg
767.787	1.281	1	2back	Block2	2back/STIM_006.jpg
772.544	1.17	1	2back	Block2	2back/STIM_006.jpg
776.995	0.668	1	2back	Block2	2back/STIM_007.jpg
781.287	1.002	1	2back	Block2	2back/STIM_007.jpg
784.734	0.646	1	2back	Block2	2back/STIM_007.jpg
787.728	0.952	1	2back	Block2	2back/STIM_008.jpg
791.317	1.145	1	2back	Block2	2back/STIM_008.jpg
796.261	0.733	1	2back	Block2	2back/STIM_008.jpg
800.439	0.966	1	2back	Block2	2back/STIM_009.jpg
804.74	0.815	1	2back	Block2	2back/STIM_009.jpg
809.026	0.595	1	2back	Block2	2back/STIM_009.jpg
811.808	1.078	0	2back	Block2	2back/STIM_010.jpg
815.056	1.032	1	2back	Block2	2back/STIM_010.jpg
819.363	0.662	1	2back	Block2	2back/STIM_010.jpg
823.117	1.166	1	2back	Block2	2back/STIM_011.jpg
827.097	0.777	1	2back	Block2	2back/STIM_011.jpg
831.749	0.936	1	2back	Block2	2back/STIM_011.jpg
836.274	1.369	1	2back	Block2	2back/STIM_012.jpg
841.153	1.109	1	2back	Block2	2back/STIM_012.jpg
845.865	0.955	1	2back	Block2	2back/STIM_012.jpg
850.571	1.15	1	2back	Block2	2back/STIM_013.jpg
854.622	0.767	0	2back	Block2	2back/STIM_013.jpg
859.086	0.811	1	2back	Block2	2back/STIM_013.jpg
862.326	1.278	1	2back	Block2	2back/STIM_014.jpg
867.093	1.232	1	2back	Block2	2back/STIM_014.jpg
871.963	0.509	1	2back	Block2	2back/STIM_014.jpg
875.437	1.114	1	2back	Block2	2back/STIM_015.jpg
879.672	0.616	1	2back	Block2	2back/STIM_015.jpg
883.293	0.8	1	2back	Block2	2back/STIM_015.jpg
887.73	0.728	1	2back	Block2	2back/STIM_016.jpg
891.878	0.968	1	2back	Block2	2back/STIM_016.jpg
894.969	0.81	1	2back	Block2	2back/STIM_016.jpg
898.907	0.706	1	2back	Block2	2back/STIM_017.jpg
903.294	0.537	1	2back	Block2	2back/STIM_017.jpg
907.811	0.706	1	2back	Block2	2back/STIM_017.jpg
910.741	0.63	0	2back	Block2	2back/STIM_018.jpg
913.93	0.708	1	2back	Block2	2back/STIM_018.jpg
916.604	0.9	1	2back	Block2	2back/STIM_018.jpg
920.722	1.16	1	2back	Block2	2back/STIM_019.jpg
924.237	0.679	1	2back	Block2	2back/STIM_019.jpg
927.979	0.55	1	2back	Block2	2back/STIM_019.jpg
930.968	1.073	1	2back	Block2	2back/STIM_020.jpg
934.931	1.002	1	2back	Block2	2back/STIM_020.jpg
939.089	1.198	1	2back	Block2	2back/STIM_020.jpg
942.465	0.858	1	2back	Block2	2back/STIM_021.jpg
945.542	1.166	0	2back	Block2	2back/STIM_021.jpg
949.271	0.539	1	2back	Block2	2back/STIM_021.jpg
952.582	1.376	1	2back	Block2	2back/STIM_022.jpg
956.461	0.661	0	2back	Block2	2back/STIM_022.jpg
959.918	0.867	1	2back	Block2	2back/STIM_022.jpg
963.549	0.78	1	2back	Block2	2back/STIM_023.jpg
966.968	0.619	1	2back	Block2	2back/STIM_023.jpg
970.067	1.197	1	2back	Block2	2back/STIM_023.jpg
974.56	0.916	1	2back	Block2	2back/STIM_024.jpg
977.813	0.922	0	2back	Block2	2back/STIM_024.jpg
980.955	0.487	1	2back	Block2	2back/STIM_024.jpg
983.911	1.323	1	2back	Block2	2back/STIM_025.jpg
987.084	0.875	1	2back	Block2	2back/STIM_025.jpg
991.441	1.135	1	2back	Block2	2back/STIM_025.jpg
995.643	0.529	1	2back	Block2	2back/STIM_026.jpg
998.534	0.927	1	2back	Block2	2back/STIM_026.jpg
1002.155	0.958	1	2back	Block2	2back/STIM_026.jpg
1006.907	0.983	1	2back	Block2	2back/STIM_027.jpg
1010.832	0.521	1	2back	Block2	2back/STIM_027.jpg
1014.319	0.886	1	2back	Block2	2back/STIM_027.jpg
1017.745	1.313	1	2back	Block2	2back/STIM_028.jpg
1022.457	1.115	1	2back	Block2	2back/STIM_028.jpg
1026.261	0.978	1	2back	Block2	2back/STIM_028.jpg
1029.916	0.802	1	2back	Block2	2back/STIM_029.jpg
1033.296	1.25	1	2back	Block2	2back/STIM_029.jpg
1037.641	0.845	1	2back	Block2	2back/STIM_029.jpg
1041.486	0.798	1	2back	Block2	2back/STIM_030.jpg
1046.098	0.551	1	2back	Block2	2back/STIM_030.jpg
1049.422	1.047	1	2back	Block2	2back/STIM_030.jpg
1052.843	0.858	1	2back	Block2	2back/STIM_031.jpg
1057.395	0.876	1	2back	Block2	2back/STIM_031.jpg
1060.335	0.628	1	2back	Block2	2back/STIM_031.jpg
1062.865	1.28	1	2back	Block2	2back/STIM_032.jpg
1067.108	1.057	0	2back	Block2	2back/STIM_032.jpg
1070.872	1.111	1	2back	Block2	2back/STIM_032.jpg
1075.466	0.664	1	2back	Block2	2back/STIM_033.jpg
1079.877	0.683	0	2back	Block2	2back/STIM_033.jpg
1084.508	0.735	1	2back	Block2	2back/STIM_033.jpg
1088.666	1.131	0	2back	Block2	2back/STIM_034.jpg
1092.385	1.174	1	2back	Block2	2back/STIM_034.jpg
1096.835	1.166	1	2back	Block2	2back/STIM_034.jpg
1101.462	0.989	1	2back	Block2	2back/STIM_035.jpg
1104.749	1.08	1	2back	Block2	2back/STIM_035.jpg
1107.903	0.559	1	2back	Block2	2back/STIM_035.jpg
1111.117	1.15	1	2back	Block2	2back/STIM_036.jpg
1115.417	0.845	1	2back	Block2	2back/STIM_036.jpg
1119.888	0.638	1	2back	Block2	2back/STIM_036.jpg
1122.863	0.846	1	2back	Block2	2back/STIM_037.jpg
1126.916	0.927	1	2back	Block2	2back/STIM_037.jpg
1130.384	0.755	1	2back	Block2	2back/STIM_037.jpg
1133.437	1.296	1	2back	Block2	2back/STIM_038.jpg
1136.647	0.829	1	2back	Block2	2back/STIM_038.jpg
1141.378	0.714	1	2back	Block2	2back/STIM_038.jpg
1145.83	1.216	1	2back	Block2	2back/STIM_039.jpg
1149.483	1.188	1	2back	Block2	2back/STIM_039.jpg
1152.911	0.951	1	2back	Block2	2back/STIM_039.jpg
1156.558	0.606	1	0back	Block2	0back/STIM_000.jpg
1159.973	0.799	1	0back	Block2	0back/STIM_000.jpg
1164.191	0.463	1	0back	Block2	0back/STIM_000.jpg
1168.186	0.608	1	0back	Block2	0back/STIM_001.jpg
1172.53	0.574	1	0back	Block2	0back/STIM_001.jpg
1176.46	0.681	1	0back	Block2	0back/STIM_001.jpg
1180.192	0.635	1	0back	Block2	0back/STIM_002.jpg
1184.504	0.75	1	0back	Block2	0back/STIM_002.jpg
1188.487	0.685	1	0back	Block2	0back/STIM_002.jpg
1191.413	0.707	1	0back	Block2	0back/STIM_003.jpg
1195.147	0.667	1	0back	Block2	0back/STIM_003.jpg
1199.714	0.837	1	0back	Block2	0back/STIM_003.jpg
1202.59	0.883	1	0back	Block2	0back/STIM_004.jpg
1205.567	0.68	1	0back	Block2	0back/STIM_004.jpg
1209.625	0.762	1	0back	Block2	0back/STIM_004.jpg
1212.508	0.752	1	0back	Block2	0back/STIM_005.jpg
1217.093	0.856	1	0back	Block2	0back/STIM_005.jpg
1220.402	0.448	1	0back	Block2	0back/STIM_005.jpg
1224.084	0.855	1	0back	Block2	0back/STIM_006.jpg
1227.811	0.856	1	0back	Block2	0back/STIM_006.jpg
1231.901	0.89	1	0back	Block2	0back/STIM_006.jpg
1236.249	0.647	1	0back	Block2	0back/STIM_007.jpg
1240.283	0.871	1	0back	Block2	0back/STIM_007.jpg
1243.526	0.881	1	0back	Block2	0back/STIM_007.jpg
1246.706	0.787	1	0back	Block2	0back/STIM_008.jpg
1249.94	0.604	1	0back	Block2	0back/STIM_008.jpg
1252.707	0.738	1	0back	Block2	0back/STIM_008.jpg
1256.62	0.625	1	0back	Block2	0back/STIM_009.jpg
1260.936	0.548	1	0back	Block2	0back/STIM_009.jpg
1265.18	0.666	1	0back	Block2	0back/STIM_009.jpg
1267.898	0.883	1	0back	Block2	0back/STIM_010.jpg
1271.6	0.504	0	0back	Block2	0back/STIM_010.jpg
1276.127	0.483	1	0back	Block2	0back/STIM_010.jpg
1279.156	0.479	1	0back	Block2	0back/STIM_011.jpg
1282.236	0.529	1	0back	Block2	0back/STIM_011.jpg
1285.267	0.665	1	0back	Block2	0back/STIM_011.jpg
1289.296	0.674	1	0back	Block2	0back/STIM_012.jpg
1293.396	0.741	1	0back	Block2	0back/STIM_012.jpg
1297.861	0.43	1	0back	Block2	0back/STIM_012.jpg
1300.956	0.759	1	0back	Block2	0back/STIM_013.jpg
1304.121	0.833	1	0back	Block2	0back/STIM_013.jpg
1306.847	0.847	1	0back	Block2	0back/STIM_013.jpg
1310.449	0.704	1	0back	Block2	0back/STIM_014.jpg
1313.125	0.707	1	0back	Block2	0back/STIM_014.jpg
1317.2	0.739	1	0back	Block2	0back/STIM_014.jpg
1320.059	0.636	1	0back	Block2	0back/STIM_015.jpg
1323.923	0.518	1	0back	Block2	0back/STIM_015.jpg
1328.255	0.622	1	0back	Block2	0back/STIM_015.jpg
1332.377	0.592	1	0back	Block2	0back/STIM_016.jpg
1336.189	0.741	0	0back	Block2	0back/STIM_016.jpg
1338.899	0.862	1	0back	Block2	0back/STIM_016.jpg
1342.73	0.87	0	0back	Block2	0back/STIM_017.jpg
1346.56	0.827	0	0back	Block2	0back/STIM_017.jpg
1349.408	0.864	1	0back	Block2	0back/STIM_017.jpg
1352.98	0.563	1	0back	Block2	0back/STIM_018.jpg
1356.847	0.8	1	0back	Block2	0back/STIM_018.jpg
1359.859	0.532	1	0back	Block2	0back/STIM_018.jpg
1364.341	0.73	1	0back	Block2	0back/STIM_019.jpg
1368.086	0.667	1	0back	Block2	0back/STIM_019.jpg
1370.675	0.577	1	0back	Block2	0back/STIM_019.jpg
1373.727	0.545	1	2back	Block3	2back/STIM_000.jpg
1377.928	0.917	1	2back	Block3	2back/STIM_000.jpg
1382.377	0.714	1	2back	Block3	2back/STIM_000.jpg
1385.792	0.588	1	2back	Block3	2back/STIM_001.jpg
1388.93	1.137	1	2back	Block3	2back/STIM_001.jpg
1392.535	0.838	1	2back	Block3	2back/STIM_001.jpg
1396.782	0.772	0	2back	Block3	2back/STIM_002.jpg
1399.609	0.525	1	2back	Block3	2back/STIM_002.jpg
1402.862	0.629	1	2back	Block3	2back/STIM_002.jpg
1407.207	1.076	1	2back	Block3	2back/STIM_003.jpg
1410.949	0.44	1	2back	Block3	2back/STIM_003.jpg
1414.65	0.672	1	2back	Block3	2back/STIM_003.jpg
1418.616	0.735	1	2back	Block3	2back/STIM_004.jpg
1421.644	0.532	1	2back	Block3	2back/STIM_004.jpg
1424.649	0.57	0	2back	Block3	2back/STIM_004.jpg
1427.861	0.499	1	2back	Block3	2back/STIM_005.jpg
1432.047	1.021	1	2back	Block3	2back/STIM_005.jpg
1436.84	0.634	1	2back	Block3	2back/STIM_005.jpg
1440.061	1.065	0	2back	Block3	2back/STIM_006.jpg
1444.262	0.612	1	2back	Block3	2back/STIM_006.jpg
1448.481	1.11	1	2back	Block3	2back/STIM_006.jpg
1452.807	0.831	1	2back	Block3	2back/STIM_007.jpg
1456.912	0.984	1	2back	Block3	2back/STIM_007.jpg
1459.988	0.926	1	2back	Block3	2back/STIM_007.jpg
1463.187	0.885	1	2back	Block3	2back/STIM_008.jpg
1467.788	0.812	1	2back	Block3	2back/STIM_008.jpg
1471.296	0.484	1	2back	Block3	2back/STIM_008.jpg
1474.842	0.69	1	2back	Block3	2back/STIM_009.jpg
1479.308	0.975	1	2back	Block3	2back/STIM_009.jpg
1483.103	0.889	1	2back	Block3	2back/STIM_009.jpg
1486.851	1.0	1	2back	Block3	2back/STIM_010.jpg
1490.548	0.643	1	2back	Block3	2back/STIM_010.jpg
1493.521	0.893	1	2back	Block3	2back/STIM_010.jpg
1497.019	1.086	1	2back	Block3	2back/STIM_011.jpg
1501.725	1.02	0	2back	Block3	2back/STIM_011.jpg
1504.99	0.563	1	2back	Block3	2back/STIM_011.jpg
1508.72	1.115	1	2back	Block3	2back/STIM_012.jpg
1512.89	0.989	1	2back	Block3	2back/STIM_012.jpg
1515.926	0.736	1	2back	Block3	2back/STIM_012.jpg
1519.785	0.768	1	2back	Block3	2back/STIM_013.jpg
1523.702	0.627	1	2back	Block3	2back/STIM_013.jpg
1527.906	0.936	1	2back	Block3	2back/STIM_013.jpg
1532.273	0.962	1	2back	Block3	2back/STIM_014.jpg
1536.559	0.59	1	2back	Block3	2back/STIM_014.jpg
1540.27	1.028	1	2back	Block3	2back/STIM_014.jpg
1543.69	0.86	1	2back	Block3	2back/STIM_015.jpg
1548.163	0.905	1	2back	Block3	2back/STIM_015.jpg
1550.934	0.8	1	2back	Block3	2back/STIM_015.jpg
1555.243	0.603	1	2back	Block3	2back/STIM_016.jpg
1558.897	1.041	1	2back	Block3	2back/STIM_016.jpg
1562.667	0.508	1	2back	Block3	2back/STIM_016.jpg
1565.75	0.63	1	2back	Block3	2back/STIM_017.jpg
1569.564	1.089	1	2back	Block3	2back/STIM_017.jpg
1572.699	0.515	1	2back	Block3	2back/STIM_017.jpg
1575.158	0.947	1	2back	Block3	2back/STIM_018.jpg
1579.451	0.723	1	2back	Block3	2back/STIM_018.jpg
1583.149	1.019	1	2back	Block3	2back/STIM_018.jpg
1587.004	0.708	1	2back	Block3	2back/STIM_019.jpg
1590.436	0.509	1	2back	Block3	2back/STIM_019.jpg
1594.901	0.587	1	2back	Block3	2back/STIM_019.jpg
1597.93	0.501	1	2back	Block3	2back/STIM_020.jpg
1602.349	0.747	1	2back	Block3	2back/STIM_020.jpg
1605.67	0.687	1	2back	Block3	2back/STIM_020.jpg
1608.85	0.815	1	2back	Block3	2back/STIM_021.jpg
1612.644	0.934	1	2back	Block3	2back/STIM_021.jpg
1616.747	0.747	1	2back	Block3	2back/STIM_021.jpg
1621.38	0.974	1	2back	Block3	2back/STIM_022.jpg
1625.622	0.668	1	2back	Block3	2back/STIM_022.jpg
1628.397	0.787	1	2back	Block3	2back/STIM_022.jpg
1632.12	0.961	1	2back	Block3	2back/STIM_023.jpg
1635.632	0.74	1	2back	Block3	2back/STIM_023.jpg
1638.392	0.529	1	2back	Block3	2back/STIM_023.jpg
1642.833	0.769	1	2back	Block3	2back/STIM_024.jpg
1645.763	0.778	1	2back	Block3	2back/STIM_024.jpg
1648.818	0.536	1	2back	Block3	2back/STIM_024.jpg
1652.072	0.82	1	2back	Block3	2back/STIM_025.jpg
1656.592	0.98	1	2back	Block3	2back/STIM_025.jpg
1660.516	1.057	1	2back	Block3	2back/STIM_025.jpg
1663.65	0.599	1	2back	Block3	2back/STIM_026.jpg
1667.782	0.79	1	2back	Block3	2back/STIM_026.jpg
1672.121	1.039	1	2back	Block3	2back/STIM_026.jpg
1676.475	0.836	1	2back	Block3	2back/STIM_027.jpg
1681.152	0.988	1	2back	Block3	2back/STIM_027.jpg
1684.749	0.982	1	2back	Block3	2back/STIM_027.jpg
1687.888	1.01	1	2back	Block3	2back/STIM_028.jpg
1691.969	0.682	1	2back	Block3	2back/STIM_028.jpg
1696.289	0.63	1	2back	Block3	2back/STIM_028.jpg
1699.407	0.995	1	2back	Block3	2back/STIM_029.jpg
1703.901	0.804	1	2back	Block3	2back/STIM_029.jpg
1707.492	0.824	1	2back	Block3	2back/STIM_029.jpg
1711.616	0.894	1	2back	Block3	2back/STIM_030.jpg
1716.34	1.004	1	2back	Block3	2back/STIM_030.jpg
1720.679	0.933	1	2back	Block3	2back/STIM_030.jpg
1725.043	0.598	1	2back	Block3	2back/STIM_031.jpg
1729.308	0.46	1	2back	Block3	2back/STIM_031.jpg
1732.409	1.034	1	2back	Block3	2back/STIM_031.jpg
1735.673	0.655	1	2back	Block3	2back/STIM_032.jpg
1739.839	0.895	0	2back	Block3	2back/STIM_032.jpg
1742.873	0.658	1	2back	Block3	2back/STIM_032.jpg
1745.937	0.635	1	2back	Block3	2back/STIM_033.jpg
1749.492	0.946	1	2back	Block3	2back/STIM_033.jpg
1753.527	0.768	1	2back	Block3	2back/STIM_033.jpg
1757.107	0.982	1	2back	Block3	2back/STIM_034.jpg
1760.603	1.092	1	2back	Block3	2back/STIM_034.jpg
1765.285	0.891	1	2back	Block3	2back/STIM_034.jpg
1768.21	0.734	1	2back	Block3	2back/STIM_035.jpg
1772.333	0.856	1	2back	Block3	2back/STIM_035.jpg
1775.59	0.646	1	2back	Block3	2back/STIM_035.jpg
1778.332	0.951	1	2back	Block3	2back/STIM_036.jpg
1782.055	0.966	1	2back	Block3	2back/STIM_036.jpg
1785.695	0.445	1	2back	Block3	2back/STIM_036.jpg
1788.413	0.801	1	2back	Block3	2back/STIM_037.jpg
1792.837	0.945	0	2back	Block3	2back/STIM_037.jpg
1797.418	0.71	1	2back	Block3	2back/STIM_037.jpg
1801.528	0.751	1	2back	Block3	2back/STIM_038.jpg
1805.239	0.449	1	2back	Block3	2back/STIM_038.jpg
1808.286	0.624	1	2back	Block3	2back/STIM_038.jpg
1811.471	0.774	1	2back	Block3	2back/STIM_039.jpg
1815.291	1.079	1	2back	Block3	2back/STIM_039.jpg
1819.472	1.117	1	2back	Block3	2back/STIM_039.jpg
1822.657	0.716	1	0back	Block3	0back/STIM_000.jpg
1825.848	0.828	1	0back	Block3	0back/STIM_000.jpg
1829.622	0.662	1	0back	Block3	0back/STIM_000.jpg
1832.845	0.783	1	0back	Block3	0back/STIM_001.jpg
1836.127	0.562	1	0back	Block3	0back/STIM_001.jpg
1839.511	0.856	1	0back	Block3	0back/STIM_001.jpg
1842.835	0.751	1	0back	Block3	0back/STIM_002.jpg
1847.085	0.879	1	0back	Block3	0back/STIM_002.jpg
1851.522	0.714	1	0back	Block3	0back/STIM_002.jpg
1855.696	0.688	1	0back	Block3	0back/STIM_003.jpg
1859.061	0.949	1	0back	Block3	0back/STIM_003.jpg
1862.165	0.642	1	0back	Block3	0back/STIM_003.jpg
1864.971	0.824	1	0back	Block3	0back/STIM_004.jpg
1869.213	0.625	1	0back	Block3	0back/STIM_004.jpg
1872.563	0.488	1	0back	Block3	0back/STIM_004.jpg
1875.118	0.785	1	0back	Block3	0back/STIM_005.jpg
1879.771	0.601	1	0back	Block3	0back/STIM_005.jpg
1883.959	0.428	1	0back	Block3	0back/STIM_005.jpg
1887.94	0.732	1	0back	Block3	0back/STIM_006.jpg
1892.31	0.91	1	0back	Block3	0back/STIM_006.jpg
1896.545	0.642	1	0back	Block3	0back/STIM_006.jpg
1900.704	0.536	1	0back	Block3	0back/STIM_007.jpg
1905.082	0.51	1	0back	Block3	0back/STIM_007.jpg
1908.278	0.889	1	0back	Block3	0back/STIM_007.jpg
1912.731	0.536	1	0back	Block3	0back/STIM_008.jpg
1916.726	0.787	1	0back	Block3	0back/STIM_008.jpg
1920.075	0.484	1	0back	Block3	0back/STIM_008.jpg
1924.266	0.944	1	0back	Block3	0back/STIM_009.jpg
1927.232	0.798	1	0back	Block3	0back/STIM_009.jpg
1930.523	0.892	0	0back	Block3	0back/STIM_009.jpg
1934.086	0.59	1	0back	Block3	0back/STIM_010.jpg
1937.615	0.43	1	0back	Block3	0back/STIM_010.jpg
1940.555	0.534	1	0back	Block3	0back/STIM_010.jpg
1944.606	0.762	1	0back	Block3	0back/STIM_011.jpg
1948.872	0.909	1	0back	Block3	0back/STIM_011.jpg
1953.406	0.734	1	0back	Block3	0back/STIM_011.jpg
1957.881	0.784	1	0back	Block3	0back/STIM_012.jpg
1961.665	0.83	1	0back	Block3	0back/STIM_012.jpg
1964.768	0.709	0	0back	Block3	0back/STIM_012.jpg
1969.025	0.89	1	0back	Block3	0back/STIM_013.jpg
1972.082	0.561	1	0back	Block3	0back/STIM_013.jpg
1975.726	0.942	1	0back	Block3	0back/STIM_013.jpg
1978.776	0.557	1	0back	Block3	0back/STIM_014.jpg
1981.64	0.579	1	0back	Block3	0back/STIM_014.jpg
1985.285	0.824	1	0back	Block3	0back/STIM_014.jpg
1989.416	0.696	1	0back	Block3	0back/STIM_015.jpg
1993.383	0.638	1	0back	Block3	0back/STIM_015.jpg
1996.19	0.453	1	0back	Block3	0back/STIM_015.jpg
2000.006	0.793	1	0back	Block3	0back/STIM_016.jpg
2003.812	0.676	1	0back	Block3	0back/STIM_016.jpg
2006.871	0.553	1	0back	Block3	0back/STIM_016.jpg
2009.898	0.538	1	0back	Block3	0back/STIM_017.jpg
2013.476	0.805	1	0back	Block3	0back/STIM_017.jpg
2017.986	0.508	1	0back	Block3	0back/STIM_017.jpg
2021.019	0.728	1	0back	Block3	0back/STIM_018.jpg
2025.299	0.793	0	0back	Block3	0back/STIM_018.jpg
2028.678	0.729	1	0back	Block3	0back/STIM_018.jpg
2032.218	0.914	1	0back	Block3	0back/STIM_019.jpg
2035.865	0.753	1	0back	Block3	0back/STIM_019.jpg
2039.364	0.757	1	0back	Block3	0back/STIM_019.jpg
2041.987	0.885	1	2back	Block4	2back/STIM_000.jpg
2046.287	0.528	1	2back	Block4	2back/STIM_000.jpg
2050.506	0.64	1	2back	Block4	2back/STIM_000.jpg
2053.901	0.432	1	2back	Block4	2back/STIM_001.jpg
2057.022	0.882	1	2back	Block4	2back/STIM_001.jpg
2061.764	0.548	1	2back	Block4	2back/STIM_001.jpg
2064.681	0.667	1	2back	Block4	2back/STIM_002.jpg
2068.398	1.009	1	2back	Block4	2back/STIM_002.jpg
2072.207	0.502	1	2back	Block4	2back/STIM_002.jpg
2074.733	1.096	1	2back	Block4	2back/STIM_003.jpg
2077.839	0.837	1	2back	Block4	2back/STIM_003.jpg
2081.397	0.929	1	2back	Block4	2back/STIM_003.jpg
2085.417	0.967	1	2back	Block4	2back/STIM_004.jpg
2089.696	0.973	1	2back	Block4	2back/STIM_004.jpg
2094.256	0.691	1	2back	Block4	2back/STIM_004.jpg
2097.341	0.859	1	2back	Block4	2back/STIM_005.jpg
2101.917	0.496	1	2back	Block4	2back/STIM_005.jpg
2104.678	0.772	1	2back	Block4	2back/STIM_005.jpg
2107.7	0.723	1	2back	Block4	2back/STIM_006.jpg
2110.958	1.168	1	2back	Block4	2back/STIM_006.jpg
2113.953	0.902	1	2back	Block4	2back/STIM_006.jpg
2117.206	0.93	1	2back	Block4	2back/STIM_007.jpg
2120.444	0.598	1	2back	Block4	2back/STIM_007.jpg
2124.521	0.999	1	2back	Block4	2back/STIM_007.jpg
2128.336	0.617	1	2back	Block4	2back/STIM_008.jpg
2132.567	0.79	1	2back	Block4	2back/STIM_008.jpg
2136.08	0.404	1	2back	Block4	2back/STIM_008.jpg
2139.513	0.674	1	2back	Block4	2back/STIM_009.jpg
2142.95	0.747	1	2back	Block4	2back/STIM_009.jpg
2146.178	0.771	1	2back	Block4	2back/STIM_009.jpg
2150.485	0.912	1	2back	Block4	2back/STIM_010.jpg
2154.105	0.615	1	2back	Block4	2back/STIM_010.jpg
2158.466	1.157	1	2back	Block4	2back/STIM_010.jpg
2162.903	0.57	1	2back	Block4	2back/STIM_011.jpg
2166.385	0.916	1	2back	Block4	2back/STIM_011.jpg
2170.393	0.786	1	2back	Block4	2back/STIM_011.jpg
2173.789	1.008	1	2back	Block4	2back/STIM_012.jpg
2177.967	0.634	1	2back	Block4	2back/STIM_012.jpg
2181.749	0.779	1	2back	Block4	2back/STIM_012.jpg
2184.908	0.54	1	2back	Block4	2back/STIM_013.jpg
2187.976	0.746	1	2back	Block4	2back/STIM_013.jpg
2191.951	1.052	1	2back	Block4	2back/STIM_013.jpg
2196.141	0.585	1	2back	Block4	2back/STIM_014.jpg
2200.02	0.469	1	2back	Block4	2back/STIM_014.jpg
2203.44	0.907	1	2back	Block4	2back/STIM_014.jpg
2207.739	0.648	1	2back	Block4	2back/STIM_015.jpg
2211.435	0.876	1	2back	Block4	2back/STIM_015.jpg
2214.307	0.884	1	2back	Block4	2back/STIM_015.jpg
2218.261	0.765	1	2back	Block4	2back/STIM_016.jpg
2221.29	0.938	1	2back	Block4	2back/STIM_016.jpg
2226.131	1.015	1	2back	Block4	2back/STIM_016.jpg
2229.241	0.892	1	2back	Block4	2back/STIM_017.jpg
2232.822	0.989	1	2back	Block4	2back/STIM_017.jpg
2236.093	0.855	1	2back	Block4	2back/STIM_017.jpg
2239.541	0.852	0	2back	Block4	2back/STIM_018.jpg
2242.61	0.756	1	2back	Block4	2back/STIM_018.jpg
2247.245	0.491	1	2back	Block4	2back/STIM_018.jpg
2251.049	1.094	1	2back	Block4	2back/STIM_019.jpg
2254.561	0.636	1	2back	Block4	2back/STIM_019.jpg
2258.212	0.702	1	2back	Block4	2back/STIM_019.jpg
2261.145	0.82	1	2back	Block4	2back/STIM_020.jpg
2264.149	1.117	1	2back	Block4	2back/STIM_020.jpg
2267.75	0.825	1	2back	Block4	2back/STIM_020.jpg
2271.313	1.091	1	2back	Block4	2back/STIM_021.jpg
2274.437	0.623	1	2back	Block4	2back/STIM_021.jpg
2277.993	0.614	1	2back	Block4	2back/STIM_021.jpg
2281.969	0.754	1	2back	Block4	2back/STIM_022.jpg
2285.093	0.561	1	2back	Block4	2back/STIM_022.jpg
2288.244	0.554	1	2back	Block4	2back/STIM_022.jpg
2292.11	0.572	1	2back	Block4	2back/STIM_023.jpg
2294.898	0.885	1	2back	Block4	2back/STIM_023.jpg
2297.903	0.832	1	2back	Block4	2back/STIM_023.jpg
2302.37	0.523	1	2back	Block4	2back/STIM_024.jpg
2304.929	0.901	1	2back	Block4	2back/STIM_024.jpg
2307.791	1.091	1	2back	Block4	2back/STIM_024.jpg
2310.919	0.503	1	2back	Block4	2back/STIM_025.jpg
2313.666	0.551	1	2back	Block4	2back/STIM_025.jpg
2317.916	0.884	1	2back	Block4	2back/STIM_025.jpg
2321.65	0.703	1	2back	Block4	2back/STIM_026.jpg
2324.588	0.943	1	2back	Block4	2back/STIM_026.jpg
2328.131	0.834	1	2back	Block4	2back/STIM_026.jpg
2332.002	1.031	1	2back	Block4	2back/STIM_027.jpg
2336.947	0.685	1	2back	Block4	2back/STIM_027.jpg
2340.381	0.537	1	2back	Block4	2back/STIM_027.jpg
2344.637	0.898	1	2back	Block4	2back/STIM_028.jpg
2347.711	0.922	1	2back	Block4	2back/STIM_028.jpg
2352.259	0.622	1	2back	Block4	2back/STIM_028.jpg
2356.783	0.726	1	2back	Block4	2back/STIM_029.jpg
2361.004	0.713	1	2back	Block4	2back/STIM_029.jpg
2365.291	0.688	1	2back	Block4	2back/STIM_029.jpg
2368.5	0.795	1	2back	Block4	2back/STIM_030.jpg
2373.068	0.996	1	2back	Block4	2back/STIM_030.jpg
2377.88	0.772	1	2back	Block4	2back/STIM_030.jpg
2380.773	0.573	1	2back	Block4	2back/STIM_031.jpg
2383.823	0.757	1	2back	Block4	2back/STIM_031.jpg
2387.14	0.479	1	2back	Block4	2back/STIM_031.jpg
2391.149	0.652	1	2back	Block4	2back/STIM_032.jpg
2393.79	1.0	1	2back	Block4	2back/STIM_032.jpg
2397.885	0.577	1	2back	Block4	2back/STIM_032.jpg
2402.16	0.974	1	2back	Block4	2back/STIM_033.jpg
2406.364	0.545	1	2back	Block4	2back/STIM_033.jpg
2409.546	0.465	1	2back	Block4	2back/STIM_033.jpg
2412.657	0.504	1	2back	Block4	2back/STIM_034.jpg
2415.334	0.79	1	2back	Block4	2back/STIM_034.jpg
2418.967	1.096	1	2back	Block4	2back/STIM_034.jpg
2423.542	0.49	1	2back	Block4	2back/STIM_035.jpg
2427.458	0.589	1	2back	Block4	2back/STIM_035.jpg
2429.941	0.909	1	2back	Block4	2back/STIM_035.jpg
2433.724	0.477	1	2back	Block4	2back/STIM_036.jpg
2437.725	1.023	1	2back	Block4	2back/STIM_036.jpg
2442.339	0.9	1	2back	Block4	2back/STIM_036.jpg
2445.64	0.624	1	2back	Block4	2back/STIM_037.jpg
2448.909	0.482	1	2back	Block4	2back/STIM_037.jpg
2452.139	0.771	1	2back	Block4	2back/STIM_037.jpg
2456.699	0.858	1	2back	Block4	2back/STIM_038.jpg
2459.494	0.694	1	2back	Block4	2back/STIM_038.jpg
2463.71	1.058	1	2back	Block4	2back/STIM_038.jpg
2468.491	0.778	1	2back	Block4	2back/STIM_039.jpg
2472.976	1.1	1	2back	Block4	2back/STIM_039.jpg
2477.306	0.458	1	2back	Block4	2back/STIM_039.jpg
2479.986	0.702	1	0back	Block4	0back/STIM_000.jpg
2482.944	0.593	1	0back	Block4	0back/STIM_000.jpg
2487.463	0.615	0	0back	Block4	0back/STIM_000.jpg
2491.124	0.654	1	0back	Block4	0back/STIM_001.jpg
2494.233	0.723	1	0back	Block4	0back/STIM_001.jpg
2497.053	0.627	1	0back	Block4	0back/STIM_001.jpg
2500.742	0.672	1	0back	Block4	0back/STIM_002.jpg
2503.982	0.478	1	0back	Block4	0back/STIM_002.jpg
2507.102	0.878	0	0back	Block4	0back/STIM_002.jpg
2511.119	0.578	1	0back	Block4	0back/STIM_003.jpg
2515.142	0.751	1	0back	Block4	0back/STIM_003.jpg
2519.363	0.485	1	0back	Block4	0back/STIM_003.jpg
2523.721	0.552	0	0back	Block4	0back/STIM_004.jpg
2526.626	0.777	1	0back	Block4	0back/STIM_004.jpg
2529.614	0.816	1	0back	Block4	0back/STIM_004.jpg
2533.512	0.828	1	0back	Block4	0back/STIM_005.jpg
2536.825	0.956	1	0back	Block4	0back/STIM_005.jpg
2540.749	0.786	1	0back	Block4	0back/STIM_005.jpg
2545.425	0.703	1	0back	Block4	0back/STIM_006.jpg
2549.207	0.877	1	0back	Block4	0back/STIM_006.jpg
2552.407	0.922	1	0back	Block4	0back/STIM_006.jpg
2556.027	0.896	1	0back	Block4	0back/STIM_007.jpg
2560.013	0.791	1	0back	Block4	0back/STIM_007.jpg
2563.978	0.606	1	0back	Block4	0back/STIM_007.jpg
2567.633	0.713	1	0back	Block4	0back/STIM_008.jpg
2570.898	0.785	1	0back	Block4	0back/STIM_008.jpg
2573.951	0.673	0	0back	Block4	0back/STIM_008.jpg
2577.147	0.554	1	0back	Block4	0back/STIM_009.jpg
2581.28	0.627	1	0back	Block4	0back/STIM_009.jpg
2585.265	0.615	1	0back	Block4	0back/STIM_009.jpg
2587.872	0.864	1	0back	Block4	0back/STIM_010.jpg
2591.847	0.94	1	0back	Block4	0back/STIM_010.jpg
2595.303	0.595	1	0back	Block4	0back/STIM_010.jpg
2598.064	0.739	1	0back	Block4	0back/STIM_011.jpg
2602.369	0.601	1	0back	Block4	0back/STIM_011.jpg
2606.23	0.571	1	0back	Block4	0back/STIM_011.jpg
2609.253	0.521	1	0back	Block4	0back/STIM_012.jpg
2611.883	0.561	1	0back	Block4	0back/STIM_012.jpg
2615.019	0.349	1	0back	Block4	0back/STIM_012.jpg
2618.853	0.537	1	0back	Block4	0back/STIM_013.jpg
2622.521	0.568	1	0back	Block4	0back/STIM_013.jpg
2626.081	0.62	1	0back	Block4	0back/STIM_013.jpg
2629.623	0.423	1	0back	Block4	0back/STIM_014.jpg
2633.042	0.667	1	0back	Block4	0back/STIM_014.jpg
2637.425	0.745	1	0back	Block4	0back/STIM_014.jpg
2641.849	0.444	1	0back	Block4	0back/STIM_015.jpg
2645.932	0.694	0	0back	Block4	0back/STIM_015.jpg
2650.47	0.528	1	0back	Block4	0back/STIM_015.jpg
2654.659	0.709	1	0back	Block4	0back/STIM_016.jpg
2658.806	0.516	1	0back	Block4	0back/STIM_016.jpg
2661.939	0.88	1	0back	Block4	0back/STIM_016.jpg
2665.593	0.738	1	0back	Block4	0back/STIM_017.jpg
2668.761	0.658	1	0back	Block4	0back/STIM_017.jpg
2671.579	0.616	1	0back	Block4	0back/STIM_017.jpg
2675.708	0.492	1	0back	Block4	0back/STIM_018.jpg
2679.709	0.475	0	0back	Block4	0back/STIM_018.jpg
2682.566	0.584	1	0back	Block4	0back/STIM_018.jpg
2685.313	0.826	1	0back	Block4	0back/STIM_019.jpg
2688.791	0.674	0	0back	Block4	0back/STIM_019.jpg
2692.932	0.81	1	0back	Block4	0back/STIM_019.jpg
