onset	duration	accuracy_binary	trial_type	learning_stage	stimulus
0.0	2.919	1	regulate	Run1	regulate/STIM_000.jpg
5.881	2.311	1	regulate	Run1	regulate/STIM_000.jpg
12.146	2.733	0	regulate	Run1	regulate/STIM_000.jpg
18.665	3.416	0	regulate	Run1	regulate/STIM_000.jpg
25.794	2.188	1	regulate	Run1	regulate/STIM_001.jpg
30.466	2.57	1	regulate	Run1	regulate/STIM_001.jpg
35.791	4.205	0	regulate	Run1	regulate/STIM_001.jpg
42.221	3.126	1	regulate	Run1	regulate/STIM_001.jpg
48.032	2.87	0	regulate	Run1	regulate/STIM_002.jpg
53.776	3.498	1	regulate	Run1	regulate/STIM_002.jpg
59.607	4.11	1	regulate	Run1	regulate/STIM_002.jpg
66.421	3.009	1	regulate	Run1	regulate/STIM_002.jpg
73.151	2.543	0	regulate	Run1	regulate/STIM_003.jpg
78.148	4.217	1	regulate	Run1	regulate/STIM_003.jpg
86.164	2.782	0	regulate	Run1	regulate/STIM_003.jpg
92.911	2.492	1	regulate	Run1	regulate/STIM_003.jpg
98.101	2.375	1	regulate	Run1	regulate/STIM_004.jpg
103.639	2.264	1	regulate	Run1	regulate/STIM_004.jpg
109.08	3.066	0	regulate	Run1	regulate/STIM_004.jpg
116.029	2.312	1	regulate	Run1	regulate/STIM_004.jpg
121.503	3.546	1	regulate	Run1	regulate/STIM_005.jpg
127.384	3.514	0	regulate	Run1	regulate/STIM_005.jpg
133.601	2.182	1	regulate	Run1	regulate/STIM_005.jpg
138.662	1.896	0	regulate	Run1	regulate/STIM_005.jpg
143.106	3.696	1	regulate	Run1	regulate/STIM_006.jpg
149.408	4.219	1	regulate	Run1	regulate/STIM_006.jpg
156.045	2.387	1	regulate	Run1	regulate/STIM_006.jpg
161.181	1.998	1	regulate	Run1	regulate/STIM_006.jpg
166.932	2.6	1	regulate	Run1	regulate/STIM_007.jpg
172.356	2.536	1	regulate	Run1	regulate/STIM_007.jpg
177.8	4.261	1	regulate	Run1	regulate/STIM_007.jpg
185.687	2.527	1	regulate	Run1	regulate/STIM_007.jpg
192.111	3.061	0	regulate	Run1	regulate/STIM_008.jpg
198.42	3.903	0	regulate	Run1	regulate/STIM_008.jpg
204.414	2.32	0	regulate	Run1	regulate/STIM_008.jpg
209.564	2.798	1	regulate	Run1	regulate/STIM_008.jpg
214.929	4.366	1	regulate	Run1	regulate/STIM_009.jpg
221.761	3.552	0	regulate	Run1	regulate/STIM_009.jpg
227.591	3.196	1	regulate	Run1	regulate/STIM_009.jpg
232.877	1.888	1	regulate	Run1	regulate/STIM_009.jpg
238.344	3.405	1	regulate	Run1	regulate/STIM_010.jpg
243.762	2.18	0	regulate	Run1	regulate/STIM_010.jpg
248.523	4.181	0	regulate	Run1	regulate/STIM_010.jpg
256.16	2.246	1	regulate	Run1	regulate/STIM_010.jpg
260.767	3.634	0	regulate	Run1	regulate/STIM_011.jpg
266.8	4.22	1	regulate	Run1	regulate/STIM_011.jpg
274.59	1.951	1	regulate	Run1	regulate/STIM_011.jpg
280.055	3.149	1	regulate	Run1	regulate/STIM_011.jpg
286.97	2.799	1	regulate	Run1	regulate/STIM_012.jpg
292.735	2.412	1	regulate	Run1	regulate/STIM_012.jpg
297.757	2.511	1	regulate	Run1	regulate/STIM_012.jpg
302.672	2.735	0	regulate	Run1	regulate/STIM_012.jpg
308.222	4.881	1	regulate	Run1	regulate/STIM_013.jpg
315.519	2.724	0	regulate	Run1	regulate/STIM_013.jpg
321.161	3.741	1	regulate	Run1	regulate/STIM_013.jpg
327.375	2.651	1	regulate	Run1	regulate/STIM_013.jpg
333.139	3.554	0	regulate	Run1	regulate/STIM_014.jpg
339.603	4.25	1	regulate	Run1	regulate/STIM_014.jpg
347.091	2.114	1	regulate	Run1	regulate/STIM_014.jpg
353.17	1.983	1	regulate	Run1	regulate/STIM_014.jpg
358.299	3.523	0	regulate	Run1	regulate/STIM_015.jpg
364.519	3.401	1	regulate	Run1	regulate/STIM_015.jpg
371.043	3.739	1	regulate	Run1	regulate/STIM_015.jpg
377.168	3.67	1	regulate	Run1	regulate/STIM_015.jpg
384.632	3.378	0	regulate	Run1	regulate/STIM_016.jpg
390.196	4.757	0	regulate	Run1	regulate/STIM_016.jpg
398.617	4.328	0	regulate	Run1	regulate/STIM_016.jpg
406.51	2.235	1	regulate	Run1	regulate/STIM_016.jpg
411.192	4.275	0	regulate	Run1	regulate/STIM_017.jpg
418.141	3.705	1	regulate	Run1	regulate/STIM_017.jpg
424.294	3.475	0	regulate	Run1	regulate/STIM_017.jpg
430.409	2.199	0	regulate	Run1	regulate/STIM_017.jpg
435.356	2.899	0	regulate	Run1	regulate/STIM_018.jpg
441.689	2.514	1	regulate	Run1	regulate/STIM_018.jpg
448.162	2.891	0	regulate	Run1	regulate/STIM_018.jpg
453.943	3.832	0	regulate	Run1	regulate/STIM_018.jpg
460.771	2.495	1	regulate	Run1	regulate/STIM_019.jpg
465.799	4.099	0	regulate	Run1	regulate/STIM_019.jpg
473.543	2.338	0	regulate	Run1	regulate/STIM_019.jpg
478.91	3.624	0	regulate	Run1	regulate/STIM_019.jpg
486.323	4.458	1	regulate	Run1	regulate/STIM_020.jpg
492.789	2.061	1	regulate	Run1	regulate/STIM_020.jpg
496.952	3.153	1	regulate	Run1	regulate/STIM_020.jpg
503.369	4.098	1	regulate	Run1	regulate/STIM_020.jpg
511.379	2.399	0	regulate	Run1	regulate/STIM_021.jpg
516.41	3.176	1	regulate	Run1	regulate/STIM_021.jpg
522.5	2.118	0	regulate	Run1	regulate/STIM_021.jpg
527.188	2.085	1	regulate	Run1	regulate/STIM_021.jpg
531.583	3.39	1	regulate	Run1	regulate/STIM_022.jpg
537.808	4.381	1	regulate	Run1	regulate/STIM_022.jpg
545.027	2.764	0	regulate	Run1	regulate/STIM_022.jpg
550.387	1.889	1	regulate	Run1	regulate/STIM_022.jpg
555.363	2.647	0	regulate	Run1	regulate/STIM_023.jpg
561.563	3.924	1	regulate	Run1	regulate/STIM_023.jpg
568.545	2.018	1	regulate	Run1	regulate/STIM_023.jpg
573.878	3.271	0	regulate	Run1	regulate/STIM_023.jpg
579.283	2.907	0	regulate	Run1	regulate/STIM_024.jpg
586.044	2.315	1	regulate	Run1	regulate/STIM_024.jpg
591.638	4.143	0	regulate	Run1	regulate/STIM_024.jpg
598.45	2.356	1	regulate	Run1	regulate/STIM_024.jpg
604.315	4.108	1	regulate	Run1	regulate/STIM_025.jpg
611.981	3.261	1	regulate	Run1	regulate/STIM_025.jpg
618.033	2.539	1	regulate	Run1	regulate/STIM_025.jpg
623.498	2.027	0	regulate	Run1	regulate/STIM_025.jpg
628.805	4.411	1	regulate	Run1	regulate/STIM_026.jpg
636.112	4.323	1	regulate	Run1	regulate/STIM_026.jpg
642.548	3.604	1	regulate	Run1	regulate/STIM_026.jpg
649.002	3.255	1	regulate	Run1	regulate/STIM_026.jpg
654.846	3.525	0	regulate	Run1	regulate/STIM_027.jpg
660.954	2.411	0	regulate	Run1	regulate/STIM_027.jpg
666.077	3.713	0	regulate	Run1	regulate/STIM_027.jpg
673.711	2.686	1	regulate	Run1	regulate/STIM_027.jpg
679.125	2.512	1	regulate	Run1	regulate/STIM_028.jpg
684.035	2.635	1	regulate	Run1	regulate/STIM_028.jpg
690.573	2.748	1	regulate	Run1	regulate/STIM_028.jpg
697.112	2.62	1	regulate	Run1	regulate/STIM_028.jpg
703.017	4.367	1	regulate	Run1	regulate/STIM_029.jpg
709.954	2.54	1	regulate	Run1	regulate/STIM_029.jpg
715.691	2.953	0	regulate	Run1	regulate/STIM_029.jpg
721.637	2.351	1	regulate	Run1	regulate/STIM_029.jpg
726.333	1.478	1	observe	Run1	observe/STIM_000.jpg
730.767	1.654	1	observe	Run1	observe/STIM_000.jpg
734.851	1.327	0	observe	Run1	observe/STIM_000.jpg
739.762	1.851	1	observe	Run1	observe/STIM_000.jpg
744.456	1.469	1	observe	Run1	observe/STIM_001.jpg
748.226	2.237	0	observe	Run1	observe/STIM_001.jpg
753.981	1.747	1	observe	Run1	observe/STIM_001.jpg
758.356	2.02	1	observe	Run1	observe/STIM_001.jpg
763.386	1.319	1	observe	Run1	observe/STIM_002.jpg
766.794	2.12	1	observe	Run1	observe/STIM_002.jpg
771.593	1.831	0	observe	Run1	observe/STIM_002.jpg
775.941	2.014	1	observe	Run1	observe/STIM_002.jpg
781.9	1.638	1	observe	Run1	observe/STIM_003.jpg
786.634	2.232	0	observe	Run1	observe/STIM_003.jpg
791.377	1.823	1	observe	Run1	observe/STIM_003.jpg
796.555	1.655	1	observe	Run1	observe/STIM_003.jpg
801.978	1.214	1	observe	Run1	observe/STIM_004.jpg
806.769	2.1	1	observe	Run1	observe/STIM_004.jpg
810.903	1.28	1	observe	Run1	observe/STIM_004.jpg
815.15	1.984	1	observe	Run1	observe/STIM_004.jpg
819.726	1.885	1	observe	Run1	observe/STIM_005.jpg
823.721	2.096	1	observe	Run1	observe/STIM_005.jpg
828.375	1.731	0	observe	Run1	observe/STIM_005.jpg
833.189	1.452	1	observe	Run1	observe/STIM_005.jpg
837.775	1.656	1	observe	Run1	observe/STIM_006.jpg
843.08	1.286	1	observe	Run1	observe/STIM_006.jpg
848.024	1.378	1	observe	Run1	observe/STIM_006.jpg
851.663	1.827	0	observe	Run1	observe/STIM_006.jpg
855.842	1.286	0	observe	Run1	observe/STIM_007.jpg
859.272	1.806	1	observe	Run1	observe/STIM_007.jpg
864.783	1.434	1	observe	Run1	observe/STIM_007.jpg
868.955	2.01	1	observe	Run1	observe/STIM_007.jpg
874.181	1.709	1	observe	Run1	observe/STIM_008.jpg
879.582	1.787	0	observe	Run1	observe/STIM_008.jpg
883.37	1.402	1	observe	Run1	observe/STIM_008.jpg
888.329	2.292	1	observe	Run1	observe/STIM_008.jpg
894.361	1.817	1	observe	Run1	observe/STIM_009.jpg
898.909	1.336	0	observe	Run1	observe/STIM_009.jpg
903.683	1.581	1	observe	Run1	observe/STIM_009.jpg
908.445	2.089	1	observe	Run1	observe/STIM_009.jpg
912.59	1.44	0	observe	Run1	observe/STIM_010.jpg
917.356	2.252	1	observe	Run1	observe/STIM_010.jpg
922.377	1.716	0	observe	Run1	observe/STIM_010.jpg
927.45	1.509	1	observe	Run1	observe/STIM_010.jpg
931.051	1.845	1	observe	Run1	observe/STIM_011.jpg
935.413	2.148	1	observe	Run1	observe/STIM_011.jpg
940.589	2.121	0	observe	Run1	observe/STIM_011.jpg
945.309	1.362	1	observe	Run1	observe/STIM_011.jpg
948.844	2.23	1	observe	Run1	observe/STIM_012.jpg
954.524	2.292	1	observe	Run1	observe/STIM_012.jpg
959.133	1.565	1	observe	Run1	observe/STIM_012.jpg
963.683	1.393	1	observe	Run1	observe/STIM_012.jpg
967.727	1.206	0	observe	Run1	observe/STIM_013.jpg
971.901	1.479	1	observe	Run1	observe/STIM_013.jpg
976.493	1.357	1	observe	Run1	observe/STIM_013.jpg
980.208	1.668	1	observe	Run1	observe/STIM_013.jpg
984.423	2.035	1	observe	Run1	observe/STIM_014.jpg
988.523	1.624	1	observe	Run1	observe/STIM_014.jpg
993.805	1.762	1	observe	Run1	observe/STIM_014.jpg
998.485	2.052	1	observe	Run1	observe/STIM_014.jpg
1004.27	1.949	1	observe	Run1	observe/STIM_015.jpg
1009.711	1.472	0	observe	Run1	observe/STIM_015.jpg
1014.972	1.854	1	observe	Run1	observe/STIM_015.jpg
1019.525	1.197	0	observe	Run1	observe/STIM_015.jpg
1023.008	2.216	1	observe	Run1	observe/STIM_016.jpg
1028.981	1.62	1	observe	Run1	observe/STIM_016.jpg
1033.946	1.863	1	observe	Run1	observe/STIM_016.jpg
1038.672	1.574	0	observe	Run1	observe/STIM_016.jpg
1043.537	1.516	1	observe	Run1	observe/STIM_017.jpg
1048.51	1.858	0	observe	Run1	observe/STIM_017.jpg
1054.233	1.165	0	observe	Run1	observe/STIM_017.jpg
1058.809	1.888	0	observe	Run1	observe/STIM_017.jpg
1063.319	1.614	1	observe	Run1	observe/STIM_018.jpg
1068.915	1.649	1	observe	Run1	observe/STIM_018.jpg
1074.51	1.572	1	observe	Run1	observe/STIM_018.jpg
1078.701	1.961	0	observe	Run1	observe/STIM_018.jpg
1083.598	1.641	1	observe	Run1	observe/STIM_019.jpg
1087.245	1.421	0	observe	Run1	observe/STIM_019.jpg
1092.179	1.4	1	observe	Run1	observe/STIM_019.jpg
1096.827	1.966	1	observe	Run1	observe/STIM_019.jpg
1102.007	3.136	1	regulate	Run2	regulate/STIM_000.jpg
1107.855	2.878	1	regulate	Run2	regulate/STIM_000.jpg
1114.264	2.248	0	regulate	Run2	regulate/STIM_000.jpg
1119.329	1.783	1	regulate	Run2	regulate/STIM_000.jpg
1124.461	4.264	0	regulate	Run2	regulate/STIM_001.jpg
1132.468	2.501	1	regulate	Run2	regulate/STIM_001.jpg
1137.882	2.389	0	regulate	Run2	regulate/STIM_001.jpg
1142.87	3.11	1	regulate	Run2	regulate/STIM_001.jpg
1149.335	3.286	1	regulate	Run2	regulate/STIM_002.jpg
1156.187	3.766	1	regulate	Run2	regulate/STIM_002.jpg
1162.953	2.128	1	regulate	Run2	regulate/STIM_002.jpg
1168.594	3.493	1	regulate	Run2	regulate/STIM_002.jpg
1175.521	2.274	0	regulate	Run2	regulate/STIM_003.jpg
1181.307	3.31	1	regulate	Run2	regulate/STIM_003.jpg
1187.978	1.777	1	regulate	Run2	regulate/STIM_003.jpg
1193.31	2.779	1	regulate	Run2	regulate/STIM_003.jpg
1198.644	1.866	1	regulate	Run2	regulate/STIM_004.jpg
1203.567	2.089	0	regulate	Run2	regulate/STIM_004.jpg
1208.597	1.788	0	regulate	Run2	regulate/STIM_004.jpg
1212.478	1.869	1	regulate	Run2	regulate/STIM_004.jpg
1216.972	3.403	1	regulate	Run2	regulate/STIM_005.jpg
1224.238	3.179	1	regulate	Run2	regulate/STIM_005.jpg
1230.195	2.51	1	regulate	Run2	regulate/STIM_005.jpg
1236.652	3.502	1	regulate	Run2	regulate/STIM_005.jpg
1242.675	2.869	1	regulate	Run2	regulate/STIM_006.jpg
1248.711	3.099	0	regulate	Run2	regulate/STIM_006.jpg
1254.742	2.807	1	regulate	Run2	regulate/STIM_006.jpg
1259.665	3.263	1	regulate	Run2	regulate/STIM_006.jpg
1265.089	2.339	1	regulate	Run2	regulate/STIM_007.jpg
1270.848	1.931	1	regulate	Run2	regulate/STIM_007.jpg
1276.424	3.692	0	regulate	Run2	regulate/STIM_007.jpg
1282.286	3.141	0	regulate	Run2	regulate/STIM_007.jpg
1288.728	3.77	1	regulate	Run2	regulate/STIM_008.jpg
1295.328	3.075	1	regulate	Run2	regulate/STIM_008.jpg
1300.854	2.189	0	regulate	Run2	regulate/STIM_008.jpg
1307.01	3.114	0	regulate	Run2	regulate/STIM_008.jpg
1312.356	4.092	1	regulate	Run2	regulate/STIM_009.jpg
1319.115	3.409	0	regulate	Run2	regulate/STIM_009.jpg
1326.222	2.456	0	regulate	Run2	regulate/STIM_009.jpg
1331.284	1.686	0	regulate	Run2	regulate/STIM_009.jpg
1335.1	2.856	1	regulate	Run2	regulate/STIM_010.jpg
1341.262	3.691	1	regulate	Run2	regulate/STIM_010.jpg
1348.106	2.77	1	regulate	Run2	regulate/STIM_010.jpg
1354.36	2.697	1	regulate	Run2	regulate/STIM_010.jpg
1360.478	2.257	1	regulate	Run2	regulate/STIM_011.jpg
1366.603	3.633	1	regulate	Run2	regulate/STIM_011.jpg
1372.32	2.248	1	regulate	Run2	regulate/STIM_011.jpg
1377.228	3.39	0	regulate	Run2	regulate/STIM_011.jpg
1384.551	2.188	1	regulate	Run2	regulate/STIM_012.jpg
1390.486	3.786	0	regulate	Run2	regulate/STIM_012.jpg
1396.734	3.074	1	regulate	Run2	regulate/STIM_012.jpg
1403.765	1.634	1	regulate	Run2	regulate/STIM_012.jpg
1408.305	4.067	1	regulate	Run2	regulate/STIM_013.jpg
1415.338	3.965	1	regulate	Run2	regulate/STIM_013.jpg
1422.841	2.268	1	regulate	Run2	regulate/STIM_013.jpg
1427.527	2.909	1	regulate	Run2	regulate/STIM_013.jpg
1433.101	2.877	1	regulate	Run2	regulate/STIM_014.jpg
1439.279	3.192	0	regulate	Run2	regulate/STIM_014.jpg
1446.437	2.064	1	regulate	Run2	regulate/STIM_014.jpg
1451.823	3.061	1	regulate	Run2	regulate/STIM_014.jpg
1458.233	3.384	1	regulate	Run2	regulate/STIM_015.jpg
1464.024	3.979	1	regulate	Run2	regulate/STIM_015.jpg
1471.219	2.354	1	regulate	Run2	regulate/STIM_015.jpg
1475.718	1.73	1	regulate	Run2	regulate/STIM_015.jpg
1481.085	3.881	1	regulate	Run2	regulate/STIM_016.jpg
1488.642	3.417	0	regulate	Run2	regulate/STIM_016.jpg
1495.223	2.253	1	regulate	Run2	regulate/STIM_016.jpg
1500.453	2.315	1	regulate	Run2	regulate/STIM_016.jpg
1505.959	2.611	1	regulate	Run2	regulate/STIM_017.jpg
1512.006	1.867	1	regulate	Run2	regulate/STIM_017.jpg
1516.923	3.151	0	regulate	Run2	regulate/STIM_017.jpg
1523.539	2.444	0	regulate	Run2	regulate/STIM_017.jpg
1529.957	3.52	1	regulate	Run2	regulate/STIM_018.jpg
1535.987	2.911	1	regulate	Run2	regulate/STIM_018.jpg
1541.381	1.85	1	regulate	Run2	regulate/STIM_018.jpg
1546.696	1.768	1	regulate	Run2	regulate/STIM_018.jpg
1551.014	3.247	1	regulate	Run2	regulate/STIM_019.jpg
1557.189	3.07	0	regulate	Run2	regulate/STIM_019.jpg
1562.923	3.22	1	regulate	Run2	regulate/STIM_019.jpg
1569.965	1.755	1	regulate	Run2	regulate/STIM_019.jpg
1574.242	3.079	1	regulate	Run2	regulate/STIM_020.jpg
1580.341	2.995	0	regulate	Run2	regulate/STIM_020.jpg
1586.639	2.677	1	regulate	Run2	regulate/STIM_020.jpg
1592.149	2.936	0	regulate	Run2	regulate/STIM_020.jpg
1598.163	1.885	1	regulate	Run2	regulate/STIM_021.jpg
1603.943	1.853	0	regulate	Run2	regulate/STIM_021.jpg
1608.949	3.358	1	regulate	Run2	regulate/STIM_021.jpg
1616.149	1.662	1	regulate	Run2	regulate/STIM_021.jpg
1620.489	2.234	1	regulate	Run2	regulate/STIM_022.jpg
1625.152	3.738	0	regulate	Run2	regulate/STIM_022.jpg
1632.409	2.175	0	regulate	Run2	regulate/STIM_022.jpg
1637.277	3.357	1	regulate	Run2	regulate/STIM_022.jpg
1643.875	4.061	0	regulate	Run2	regulate/STIM_023.jpg
1649.941	2.71	1	regulate	Run2	regulate/STIM_023.jpg
1654.832	3.135	0	regulate	Run2	regulate/STIM_023.jpg
1660.903	2.627	1	regulate	Run2	regulate/STIM_023.jpg
1666.079	3.883	0	regulate	Run2	regulate/STIM_024.jpg
1673.63	3.348	1	regulate	Run2	regulate/STIM_024.jpg
1679.665	3.508	1	regulate	Run2	regulate/STIM_024.jpg
1685.925	1.9	1	regulate	Run2	regulate/STIM_024.jpg
1690.432	2.12	1	regulate	Run2	regulate/STIM_025.jpg
1695.768	3.323	0	regulate	Run2	regulate/STIM_025.jpg
1702.042	2.076	1	regulate	Run2	regulate/STIM_025.jpg
1706.389	2.196	1	regulate	Run2	regulate/STIM_025.jpg
1711.508	4.197	1	regulate	Run2	regulate/STIM_026.jpg
1719.146	2.314	0	regulate	Run2	regulate/STIM_026.jpg
1724.906	2.773	1	regulate	Run2	regulate/STIM_026.jpg
1731.451	1.707	1	regulate	Run2	regulate/STIM_026.jpg
1735.567	3.28	1	regulate	Run2	regulate/STIM_027.jpg
1741.825	3.954	1	regulate	Run2	regulate/STIM_027.jpg
1748.732	3.432	1	regulate	Run2	regulate/STIM_027.jpg
1754.779	2.909	0	regulate	Run2	regulate/STIM_027.jpg
1761.484	4.27	0	regulate	Run2	regulate/STIM_028.jpg
1768.562	2.479	1	regulate	Run2	regulate/STIM_028.jpg
1774.292	1.736	0	regulate	Run2	regulate/STIM_028.jpg
1779.053	3.31	1	regulate	Run2	regulate/STIM_028.jpg
1786.237	2.735	0	regulate	Run2	regulate/STIM_029.jpg
1792.859	2.95	1	regulate	Run2	regulate/STIM_029.jpg
1799.733	2.154	1	regulate	Run2	regulate/STIM_029.jpg
1804.05	2.271	0	regulate	Run2	regulate/STIM_029.jpg
1809.192	2.114	1	observe	Run2	observe/STIM_000.jpg
1814.598	1.838	1	observe	Run2	observe/STIM_000.jpg
1819.478	1.875	1	observe	Run2	observe/STIM_000.jpg
1823.675	1.387	1	observe	Run2	observe/STIM_000.jpg
1827.461	1.709	1	observe	Run2	observe/STIM_001.jpg
1831.63	1.711	0	observe	Run2	observe/STIM_001.jpg
1835.448	2.096	1	observe	Run2	observe/STIM_001.jpg
1840.107	1.984	0	observe	Run2	observe/STIM_001.jpg
1844.194	1.767	1	observe	Run2	observe/STIM_002.jpg
1848.079	1.306	0	observe	Run2	observe/STIM_002.jpg
1851.873	1.19	1	observe	Run2	observe/STIM_002.jpg
1855.99	1.423	1	observe	Run2	observe/STIM_002.jpg
1860.833	1.34	1	observe	Run2	observe/STIM_003.jpg
1864.923	1.244	1	observe	Run2	observe/STIM_003.jpg
1868.383	1.442	0	observe	Run2	observe/STIM_003.jpg
1873.587	1.266	1	observe	Run2	observe/STIM_003.jpg
1878.477	1.842	0	observe	Run2	observe/STIM_004.jpg
1884.049	1.242	1	observe	Run2	observe/STIM_004.jpg
1887.592	2.222	1	observe	Run2	observe/STIM_004.jpg
1892.186	2.167	0	observe	Run2	observe/STIM_004.jpg
1898.029	1.592	0	observe	Run2	observe/STIM_005.jpg
1903.198	1.769	1	observe	Run2	observe/STIM_005.jpg
1907.375	1.47	1	observe	Run2	observe/STIM_005.jpg
1911.083	1.417	1	observe	Run2	observe/STIM_005.jpg
1915.88	2.087	0	observe	Run2	observe/STIM_006.jpg
1921.246	2.117	1	observe	Run2	observe/STIM_006.jpg
1925.416	2.038	1	observe	Run2	observe/STIM_006.jpg
1930.254	1.553	0	observe	Run2	observe/STIM_006.jpg
1933.997	2.163	1	observe	Run2	observe/STIM_007.jpg
1938.422	1.672	0	observe	Run2	observe/STIM_007.jpg
1942.724	2.089	0	observe	Run2	observe/STIM_007.jpg
1947.155	2.218	1	observe	Run2	observe/STIM_007.jpg
1951.774	2.272	1	observe	Run2	observe/STIM_008.jpg
1956.826	2.076	1	observe	Run2	observe/STIM_008.jpg
1961.774	1.565	0	observe	Run2	observe/STIM_008.jpg
1965.996	1.355	1	observe	Run2	observe/STIM_008.jpg
1970.822	1.402	0	observe	Run2	observe/STIM_009.jpg
1975.809	1.72	1	observe	Run2	observe/STIM_009.jpg
1981.383	1.978	1	observe	Run2	observe/STIM_009.jpg
1986.618	1.968	1	observe	Run2	observe/STIM_009.jpg
1992.219	1.602	1	observe	Run2	observe/STIM_010.jpg
1995.956	1.795	0	observe	Run2	observe/STIM_010.jpg
2001.64	2.077	1	observe	Run2	observe/STIM_010.jpg
2006.024	2.259	1	observe	Run2	observe/STIM_010.jpg
2010.641	1.223	1	observe	Run2	observe/STIM_011.jpg
2014.564	1.73	1	observe	Run2	observe/STIM_011.jpg
2020.003	1.598	1	observe	Run2	observe/STIM_011.jpg
2023.675	2.033	1	observe	Run2	observe/STIM_011.jpg
2028.593	1.367	1	observe	Run2	observe/STIM_012.jpg
2033.936	1.878	1	observe	Run2	observe/STIM_012.jpg
2039.669	2.116	1	observe	Run2	observe/STIM_012.jpg
2045.233	1.65	1	observe	Run2	observe/STIM_012.jpg
2050.067	2.225	1	observe	Run2	observe/STIM_013.jpg
2054.766	1.923	1	observe	Run2	observe/STIM_013.jpg
2059.351	1.364	1	observe	Run2	observe/STIM_013.jpg
2062.916	1.618	1	observe	Run2	observe/STIM_013.jpg
2067.107	1.92	0	observe	Run2	observe/STIM_014.jpg
2072.263	2.11	0	observe	Run2	observe/STIM_014.jpg
2077.981	1.866	0	observe	Run2	observe/STIM_014.jpg
2083.255	1.994	1	observe	Run2	observe/STIM_014.jpg
2089.04	1.508	1	observe	Run2	observe/STIM_015.jpg
2094.483	1.352	1	observe	Run2	observe/STIM_015.jpg
2099.647	1.31	0	observe	Run2	observe/STIM_015.jpg
2103.988	1.621	1	observe	Run2	observe/STIM_015.jpg
2108.152	2.097	1	observe	Run2	observe/STIM_016.jpg
2113.282	1.772	0	observe	Run2	observe/STIM_016.jpg
2117.694	1.772	1	observe	Run2	observe/STIM_016.jpg
2122.087	2.033	1	observe	Run2	observe/STIM_016.jpg
2126.935	1.64	1	observe	Run2	observe/STIM_017.jpg
2132.51	1.662	0	observe	Run2	observe/STIM_017.jpg
2137.636	1.835	0	observe	Run2	observe/STIM_017.jpg
2141.913	1.196	1	observe	Run2	observe/STIM_017.jpg
2145.763	1.48	1	observe	Run2	observe/STIM_018.jpg
2149.319	1.568	1	observe	Run2	observe/STIM_018.jpg
2153.754	1.209	0	observe	Run2	observe/STIM_018.jpg
2158.693	1.535	1	observe	Run2	observe/STIM_018.jpg
2163.221	1.519	0	observe	Run2	observe/STIM_019.jpg
2166.765	2.15	1	observe	Run2	observe/STIM_019.jpg
2171.108	2.233	0	observe	Run2	observe/STIM_019.jpg
2175.546	1.888	1	observe	Run2	observe/STIM_019.jpg
2179.906	1.894	1	regulate	Run3	regulate/STIM_000.jpg
2185.253	3.025	1	regulate	Run3	regulate/STIM_000.jpg
2191.664	1.884	1	regulate	Run3	regulate/STIM_000.jpg
2195.919	1.575	1	regulate	Run3	regulate/STIM_000.jpg
2201.169	2.252	0	regulate	Run3	regulate/STIM_001.jpg
2206.589	2.835	1	regulate	Run3	regulate/STIM_001.jpg
2213.09	3.131	1	regulate	Run3	regulate/STIM_001.jpg
2218.289	1.955	1	regulate	Run3	regulate/STIM_001.jpg
2224.013	2.146	0	regulate	Run3	regulate/STIM_002.jpg
2230.111	2.442	1	regulate	Run3	regulate/STIM_002.jpg
2236.184	3.251	1	regulate	Run3	regulate/STIM_002.jpg
2242.985	3.314	1	regulate	Run3	regulate/STIM_002.jpg
2248.507	2.956	1	regulate	Run3	regulate/STIM_003.jpg
2255.417	2.581	1	regulate	Run3	regulate/STIM_003.jpg
2260.645	1.801	1	regulate	Run3	regulate/STIM_003.jpg
2265.655	3.513	1	regulate	Run3	regulate/STIM_003.jpg
2271.734	1.657	1	regulate	Run3	regulate/STIM_004.jpg
2276.685	3.068	1	regulate	Run3	regulate/STIM_004.jpg
2282.624	1.846	1	regulate	Run3	regulate/STIM_004.jpg
2288.128	1.571	1	regulate	Run3	regulate/STIM_004.jpg
2291.792	3.429	1	regulate	Run3	regulate/STIM_005.jpg
2297.53	1.856	1	regulate	Run3	regulate/STIM_005.jpg
2301.796	2.59	1	regulate	Run3	regulate/STIM_005.jpg
2307.841	3.288	1	regulate	Run3	regulate/STIM_005.jpg
2313.648	2.09	0	regulate	Run3	regulate/STIM_006.jpg
2318.823	2.386	1	regulate	Run3	regulate/STIM_006.jpg
2324.5	3.045	1	regulate	Run3	regulate/STIM_006.jpg
2330.734	3.391	1	regulate	Run3	regulate/STIM_006.jpg
2336.446	1.577	1	regulate	Run3	regulate/STIM_007.jpg
2341.734	1.854	1	regulate	Run3	regulate/STIM_007.jpg
2347.503	2.978	0	regulate	Run3	regulate/STIM_007.jpg
2352.743	2.839	1	regulate	Run3	regulate/STIM_007.jpg
2359.501	3.383	1	regulate	Run3	regulate/STIM_008.jpg
2366.883	1.985	1	regulate	Run3	regulate/STIM_008.jpg
2372.152	2.759	1	regulate	Run3	regulate/STIM_008.jpg
2378.396	3.136	1	regulate	Run3	regulate/STIM_008.jpg
2384.59	3.166	0	regulate	Run3	regulate/STIM_009.jpg
2391.287	3.132	1	regulate	Run3	regulate/STIM_009.jpg
2397.288	2.951	1	regulate	Run3	regulate/STIM_009.jpg
2403.352	2.306	1	regulate	Run3	regulate/STIM_009.jpg
2407.945	2.96	1	regulate	Run3	regulate/STIM_010.jpg
2413.752	2.905	1	regulate	Run3	regulate/STIM_010.jpg
2419.59	1.721	1	regulate	Run3	regulate/STIM_010.jpg
2423.871	2.515	1	regulate	Run3	regulate/STIM_010.jpg
2429.867	3.356	1	regulate	Run3	regulate/STIM_011.jpg
2435.943	3.46	1	regulate	Run3	regulate/STIM_011.jpg
2443.294	1.783	1	regulate	Run3	regulate/STIM_011.jpg
2448.243	1.792	1	regulate	Run3	regulate/STIM_011.jpg
2453.817	2.38	1	regulate	Run3	regulate/STIM_012.jpg
2458.227	2.959	1	regulate	Run3	regulate/STIM_012.jpg
2464.894	2.896	1	regulate	Run3	regulate/STIM_012.jpg
2471.381	3.324	1	regulate	Run3	regulate/STIM_012.jpg
2477.98	3.328	1	regulate	Run3	regulate/STIM_013.jpg
2484.643	1.566	1	regulate	Run3	regulate/STIM_013.jpg
2489.4	2.23	0	regulate	Run3	regulate/STIM_013.jpg
2495.189	3.127	1	regulate	Run3	regulate/STIM_013.jpg
2500.911	2.31	1	regulate	Run3	regulate/STIM_014.jpg
2505.289	1.835	0	regulate	Run3	regulate/STIM_014.jpg
2510.715	3.112	0	regulate	Run3	regulate/STIM_014.jpg
2516.171	2.875	1	regulate	Run3	regulate/STIM_014.jpg
2522.682	2.073	1	regulate	Run3	regulate/STIM_015.jpg
2527.549	2.915	1	regulate	Run3	regulate/STIM_015.jpg
2534.458	2.394	1	regulate	Run3	regulate/STIM_015.jpg
2539.965	3.415	1	regulate	Run3	regulate/STIM_015.jpg
2545.859	1.842	1	regulate	Run3	regulate/STIM_016.jpg
2551.274	1.635	1	regulate	Run3	regulate/STIM_016.jpg
2556.068	2.573	0	regulate	Run3	regulate/STIM_016.jpg
2560.741	2.971	1	regulate	Run3	regulate/STIM_016.jpg
2566.549	1.735	0	regulate	Run3	regulate/STIM_017.jpg
2570.975	2.093	1	regulate	Run3	regulate/STIM_017.jpg
2576.678	2.981	1	regulate	Run3	regulate/STIM_017.jpg
2581.871	2.835	1	regulate	Run3	regulate/STIM_017.jpg
2586.907	1.612	1	regulate	Run3	regulate/STIM_018.jpg
2591.838	1.72	1	regulate	Run3	regulate/STIM_018.jpg
2596.442	2.256	1	regulate	Run3	regulate/STIM_018.jpg
2602.515	2.032	0	regulate	Run3	regulate/STIM_018.jpg
2607.332	1.556	1	regulate	Run3	regulate/STIM_019.jpg
2612.781	2.409	1	regulate	Run3	regulate/STIM_019.jpg
2618.074	2.592	1	regulate	Run3	regulate/STIM_019.jpg
2624.161	2.854	0	regulate	Run3	regulate/STIM_019.jpg
2630.233	2.019	1	regulate	Run3	regulate/STIM_020.jpg
2634.452	2.139	0	regulate	Run3	regulate/STIM_020.jpg
2639.192	1.902	1	regulate	Run3	regulate/STIM_020.jpg
2643.51	1.518	1	regulate	Run3	regulate/STIM_020.jpg
2647.533	3.419	1	regulate	Run3	regulate/STIM_021.jpg
2654.632	3.196	1	regulate	Run3	regulate/STIM_021.jpg
2661.762	3.377	1	regulate	Run3	regulate/STIM_021.jpg
2667.95	1.667	1	regulate	Run3	regulate/STIM_021.jpg
2673.547	1.881	1	regulate	Run3	regulate/STIM_022.jpg
2678.129	2.301	1	regulate	Run3	regulate/STIM_022.jpg
2684.314	1.568	1	regulate	Run3	regulate/STIM_022.jpg
2689.802	2.16	1	regulate	Run3	regulate/STIM_022.jpg
2694.684	3.208	1	regulate	Run3	regulate/STIM_023.jpg
2701.801	2.342	0	regulate	Run3	regulate/STIM_023.jpg
2706.349	3.499	0	regulate	Run3	regulate/STIM_023.jpg
2712.801	2.64	1	regulate	Run3	regulate/STIM_023.jpg
2718.014	1.954	0	regulate	Run3	regulate/STIM_024.jpg
2722.485	3.45	1	regulate	Run3	regulate/STIM_024.jpg
2728.424	2.824	1	regulate	Run3	regulate/STIM_024.jpg
2734.936	1.881	1	regulate	Run3	regulate/STIM_024.jpg
2739.135	1.67	1	regulate	Run3	regulate/STIM_025.jpg
2744.314	1.875	0	regulate	Run3	regulate/STIM_025.jpg
2750.117	2.265	1	regulate	Run3	regulate/STIM_025.jpg
2756.092	3.296	1	regulate	Run3	regulate/STIM_025.jpg
2762.446	3.38	0	regulate	Run3	regulate/STIM_026.jpg
2768.251	3.513	1	regulate	Run3	regulate/STIM_026.jpg
2774.619	3.315	1	regulate	Run3	regulate/STIM_026.jpg
2780.4	3.098	1	regulate	Run3	regulate/STIM_026.jpg
2787.327	1.546	1	regulate	Run3	regulate/STIM_027.jpg
2792.827	2.061	1	regulate	Run3	regulate/STIM_027.jpg
2797.11	2.7	1	regulate	Run3	regulate/STIM_027.jpg
2802.086	1.894	1	regulate	Run3	regulate/STIM_027.jpg
2807.954	3.172	1	regulate	Run3	regulate/STIM_028.jpg
2815.109	3.416	1	regulate	Run3	regulate/STIM_028.jpg
2821.047	3.214	1	regulate	Run3	regulate/STIM_028.jpg
2828.001	2.642	0	regulate	Run3	regulate/STIM_028.jpg
2834.352	2.341	1	regulate	Run3	regulate/STIM_029.jpg
2839.0	2.867	1	regulate	Run3	regulate/STIM_029.jpg
2844.018	2.473	0	regulate	Run3	regulate/STIM_029.jpg
2849.269	3.129	1	regulate	Run3	regulate/STIM_029.jpg
2856.054	1.829	1	observe	Run3	observe/STIM_000.jpg
2860.434	2.116	0	observe	Run3	observe/STIM_000.jpg
2864.637	1.377	0	observe	Run3	observe/STIM_000.jpg
2868.238	1.792	1	observe	Run3	observe/STIM_000.jpg
2873.32	2.055	0	observe	Run3	observe/STIM_001.jpg
2878.871	2.157	1	observe	Run3	observe/STIM_001.jpg
2883.281	2.102	1	observe	Run3	observe/STIM_001.jpg
2887.519	1.718	1	observe	Run3	observe/STIM_001.jpg
2892.708	2.289	0	observe	Run3	observe/STIM_002.jpg
2897.945	1.993	1	observe	Run3	observe/STIM_002.jpg
2902.705	1.287	0	observe	Run3	observe/STIM_002.jpg
2906.725	1.524	1	observe	Run3	observe/STIM_002.jpg
2911.666	1.768	1	observe	Run3	observe/STIM_003.jpg
2916.643	1.487	1	observe	Run3	observe/STIM_003.jpg
2920.295	1.189	1	observe	Run3	observe/STIM_003.jpg
2924.479	1.418	1	observe	Run3	observe/STIM_003.jpg
2928.646	1.433	1	observe	Run3	observe/STIM_004.jpg
2933.65	1.434	1	observe	Run3	observe/STIM_004.jpg
2938.355	2.102	1	observe	Run3	observe/STIM_004.jpg
2944.161	1.208	0	observe	Run3	observe/STIM_004.jpg
2947.647	1.514	0	observe	Run3	observe/STIM_005.jpg
2951.595	2.109	1	observe	Run3	observe/STIM_005.jpg
2956.019	1.171	1	observe	Run3	observe/STIM_005.jpg
2959.717	1.22	0	observe	Run3	observe/STIM_005.jpg
2964.202	1.351	1	observe	Run3	observe/STIM_006.jpg
2969.008	1.262	1	observe	Run3	observe/STIM_006.jpg
2974.24	1.195	1	observe	Run3	observe/STIM_006.jpg
2978.323	1.349	1	observe	Run3	observe/STIM_006.jpg
2982.327	1.593	1	observe	Run3	observe/STIM_007.jpg
2987.141	1.855	0	observe	Run3	observe/STIM_007.jpg
2992.701	1.316	1	observe	Run3	observe/STIM_007.jpg
2996.541	1.676	1	observe	Run3	observe/STIM_007.jpg
3002.032	1.89	0	observe	Run3	observe/STIM_008.jpg
3006.251	1.415	1	observe	Run3	observe/STIM_008.jpg
3010.247	1.596	0	observe	Run3	observe/STIM_008.jpg
3014.799	2.12	1	observe	Run3	observe/STIM_008.jpg
3019.529	1.803	1	observe	Run3	observe/STIM_009.jpg
3024.73	1.687	1	observe	Run3	observe/STIM_009.jpg
3029.111	2.059	1	observe	Run3	observe/STIM_009.jpg
3033.514	2.289	1	observe	Run3	observe/STIM_009.jpg
3038.819	1.874	1	observe	Run3	observe/STIM_010.jpg
3042.741	1.449	1	observe	Run3	observe/STIM_010.jpg
3047.335	2.246	1	observe	Run3	observe/STIM_010.jpg
3052.503	1.427	1	observe	Run3	observe/STIM_010.jpg
3057.538	1.989	1	observe	Run3	observe/STIM_011.jpg
3061.804	1.725	1	observe	Run3	observe/STIM_011.jpg
3067.0	1.588	1	observe	Run3	observe/STIM_011.jpg
3071.903	1.287	1	observe	Run3	observe/STIM_011.jpg
3075.522	1.417	1	observe	Run3	observe/STIM_012.jpg
3079.272	1.319	0	observe	Run3	observe/STIM_012.jpg
3084.217	2.021	1	observe	Run3	observe/STIM_012.jpg
3089.975	2.209	1	observe	Run3	observe/STIM_012.jpg
3095.996	1.522	1	observe	Run3	observe/STIM_013.jpg
3100.249	2.092	1	observe	Run3	observe/STIM_013.jpg
3105.786	1.525	1	observe	Run3	observe/STIM_013.jpg
3109.444	1.903	1	observe	Run3	observe/STIM_013.jpg
3115.215	2.111	1	observe	Run3	observe/STIM_014.jpg
3119.411	1.966	1	observe	Run3	observe/STIM_014.jpg
3123.729	2.05	1	observe	Run3	observe/STIM_014.jpg
3129.704	1.363	1	observe	Run3	observe/STIM_014.jpg
3134.464	1.754	1	observe	Run3	observe/STIM_015.jpg
3139.244	1.839	0	observe	Run3	observe/STIM_015.jpg
3143.637	1.962	0	observe	Run3	observe/STIM_015.jpg
3147.695	1.49	1	observe	Run3	observe/STIM_015.jpg
3152.488	1.442	1	observe	Run3	observe/STIM_016.jpg
3156.147	1.895	1	observe	Run3	observe/STIM_016.jpg
3161.596	1.823	1	observe	Run3	observe/STIM_016.jpg
3166.654	2.265	0	observe	Run3	observe/STIM_016.jpg
3171.099	1.58	1	observe	Run3	observe/STIM_017.jpg
3176.24	1.796	1	observe	Run3	observe/STIM_017.jpg
3180.607	1.748	1	observe	Run3	observe/STIM_017.jpg
3184.528	1.493	1	observe	Run3	observe/STIM_017.jpg
3189.658	2.276	1	observe	Run3	observe/STIM_018.jpg
3194.325	1.224	1	observe	Run3	observe/STIM_018.jpg
3198.878	1.476	1	observe	Run3	observe/STIM_018.jpg
3202.795	1.687	1	observe	Run3	observe/STIM_018.jpg
3207.348	2.119	1	observe	Run3	observe/STIM_019.jpg
3211.797	2.2	1	observe	Run3	observe/STIM_019.jpg
3217.825	1.774	0	observe	Run3	observe/STIM_019.jpg
3223.396	2.031	0	observe	Run3	observe/STIM_019.jpg
