onset	duration	accuracy_binary	trial_type	learning_stage	stimulus
0.0	2.354	1	regulate	Run1	regulate/STIM_000.jpg
6.434	1.36	1	regulate	Run1	regulate/STIM_000.jpg
11.009	2.528	1	regulate	Run1	regulate/STIM_000.jpg
17.1	1.949	1	regulate	Run1	regulate/STIM_000.jpg
22.04	1.79	1	regulate	Run1	regulate/STIM_001.jpg
27.871	2.21	1	regulate	Run1	regulate/STIM_001.jpg
32.467	1.211	0	regulate	Run1	regulate/STIM_001.jpg
37.469	2.12	1	regulate	Run1	regulate/STIM_001.jpg
43.097	1.52	0	regulate	Run1	regulate/STIM_002.jpg
48.705	2.591	1	regulate	Run1	regulate/STIM_002.jpg
54.631	1.768	1	regulate	Run1	regulate/STIM_002.jpg
60.283	1.732	1	regulate	Run1	regulate/STIM_002.jpg
65.075	2.357	1	regulate	Run1	regulate/STIM_003.jpg
70.167	1.897	1	regulate	Run1	regulate/STIM_003.jpg
74.691	1.362	1	regulate	Run1	regulate/STIM_003.jpg
79.517	2.53	1	regulate	Run1	regulate/STIM_003.jpg
85.672	2.765	1	regulate	Run1	regulate/STIM_004.jpg
92.42	2.611	1	regulate	Run1	regulate/STIM_004.jpg
98.479	1.403	1	regulate	Run1	regulate/STIM_004.jpg
103.956	2.311	1	regulate	Run1	regulate/STIM_004.jpg
108.898	1.891	1	regulate	Run1	regulate/STIM_005.jpg
113.978	2.803	0	regulate	Run1	regulate/STIM_005.jpg
120.064	1.274	1	regulate	Run1	regulate/STIM_005.jpg
123.942	1.816	0	regulate	Run1	regulate/STIM_005.jpg
128.921	2.604	1	regulate	Run1	regulate/STIM_006.jpg
134.974	2.666	1	regulate	Run1	regulate/STIM_006.jpg
141.348	1.867	1	regulate	Run1	regulate/STIM_006.jpg
146.947	2.474	0	regulate	Run1	regulate/STIM_006.jpg
153.318	2.677	1	regulate	Run1	regulate/STIM_007.jpg
158.73	2.327	1	regulate	Run1	regulate/STIM_007.jpg
164.126	2.087	1	regulate	Run1	regulate/STIM_007.jpg
169.922	1.651	1	regulate	Run1	regulate/STIM_007.jpg
175.148	2.665	0	regulate	Run1	regulate/STIM_008.jpg
182.13	2.773	0	regulate	Run1	regulate/STIM_008.jpg
187.861	1.486	1	regulate	Run1	regulate/STIM_008.jpg
192.894	1.37	1	regulate	Run1	regulate/STIM_008.jpg
197.555	2.077	1	regulate	Run1	regulate/STIM_009.jpg
202.205	1.224	1	regulate	Run1	regulate/STIM_009.jpg
205.79	2.338	1	regulate	Run1	regulate/STIM_009.jpg
211.928	1.958	1	regulate	Run1	regulate/STIM_009.jpg
216.965	2.389	1	regulate	Run1	regulate/STIM_010.jpg
222.422	2.352	0	regulate	Run1	regulate/STIM_010.jpg
227.591	1.796	0	regulate	Run1	regulate/STIM_010.jpg
232.246	2.017	1	regulate	Run1	regulate/STIM_010.jpg
237.001	2.449	0	regulate	Run1	regulate/STIM_011.jpg
242.212	1.415	1	regulate	Run1	regulate/STIM_011.jpg
246.751	1.732	1	regulate	Run1	regulate/STIM_011.jpg
252.483	2.225	1	regulate	Run1	regulate/STIM_011.jpg
257.435	1.86	1	regulate	Run1	regulate/STIM_012.jpg
262.329	1.471	1	regulate	Run1	regulate/STIM_012.jpg
266.223	2.595	1	regulate	Run1	regulate/STIM_012.jpg
271.523	1.882	1	regulate	Run1	regulate/STIM_012.jpg
276.918	2.642	1	regulate	Run1	regulate/STIM_013.jpg
283.62	2.238	0	regulate	Run1	regulate/STIM_013.jpg
289.088	1.396	1	regulate	Run1	regulate/STIM_013.jpg
292.856	1.914	1	regulate	Run1	regulate/STIM_013.jpg
298.721	1.566	1	regulate	Run1	regulate/STIM_014.jpg
303.397	2.234	1	regulate	Run1	regulate/STIM_014.jpg
309.671	2.316	1	regulate	Run1	regulate/STIM_014.jpg
315.916	1.947	1	regulate	Run1	regulate/STIM_014.jpg
321.821	2.729	0	regulate	Run1	regulate/STIM_015.jpg
327.529	2.273	1	regulate	Run1	regulate/STIM_015.jpg
332.496	1.7	1	regulate	Run1	regulate/STIM_015.jpg
336.754	2.134	1	regulate	Run1	regulate/STIM_015.jpg
343.193	1.833	0	regulate	Run1	regulate/STIM_016.jpg
347.964	2.615	0	regulate	Run1	regulate/STIM_016.jpg
354.305	1.429	0	regulate	Run1	regulate/STIM_016.jpg
358.2	2.355	1	regulate	Run1	regulate/STIM_016.jpg
363.796	2.802	0	regulate	Run1	regulate/STIM_017.jpg
370.308	1.562	1	regulate	Run1	regulate/STIM_017.jpg
375.055	1.253	0	regulate	Run1	regulate/STIM_017.jpg
379.564	2.436	1	regulate	Run1	regulate/STIM_017.jpg
384.719	1.485	1	regulate	Run1	regulate/STIM_018.jpg
389.438	2.472	1	regulate	Run1	regulate/STIM_018.jpg
396.242	1.736	0	regulate	Run1	regulate/STIM_018.jpg
400.882	1.432	1	regulate	Run1	regulate/STIM_018.jpg
405.894	1.89	1	regulate	Run1	regulate/STIM_019.jpg
411.728	2.478	0	regulate	Run1	regulate/STIM_019.jpg
417.492	1.944	1	regulate	Run1	regulate/STIM_019.jpg
422.209	1.993	1	regulate	Run1	regulate/STIM_019.jpg
427.553	1.877	1	regulate	Run1	regulate/STIM_020.jpg
432.374	2.478	1	regulate	Run1	regulate/STIM_020.jpg
437.346	2.157	1	regulate	Run1	regulate/STIM_020.jpg
443.784	2.242	1	regulate	Run1	regulate/STIM_020.jpg
449.825	1.371	0	regulate	Run1	regulate/STIM_021.jpg
455.087	1.823	1	regulate	Run1	regulate/STIM_021.jpg
459.895	1.387	0	regulate	Run1	regulate/STIM_021.jpg
463.527	1.094	1	regulate	Run1	regulate/STIM_021.jpg
466.883	1.609	1	regulate	Run1	regulate/STIM_022.jpg
472.116	1.617	1	regulate	Run1	regulate/STIM_022.jpg
477.482	1.216	1	regulate	Run1	regulate/STIM_022.jpg
482.167	1.426	1	regulate	Run1	regulate/STIM_022.jpg
486.983	1.332	0	regulate	Run1	regulate/STIM_023.jpg
491.179	2.417	1	regulate	Run1	regulate/STIM_023.jpg
497.843	1.339	1	regulate	Run1	regulate/STIM_023.jpg
503.285	1.781	0	regulate	Run1	regulate/STIM_023.jpg
508.252	2.829	1	regulate	Run1	regulate/STIM_024.jpg
514.966	2.298	1	regulate	Run1	regulate/STIM_024.jpg
520.767	1.731	0	regulate	Run1	regulate/STIM_024.jpg
526.513	1.158	1	regulate	Run1	regulate/STIM_024.jpg
531.544	2.841	1	regulate	Run1	regulate/STIM_025.jpg
537.265	2.11	1	regulate	Run1	regulate/STIM_025.jpg
542.426	2.542	1	regulate	Run1	regulate/STIM_025.jpg
549.144	1.524	0	regulate	Run1	regulate/STIM_025.jpg
554.262	2.847	1	regulate	Run1	regulate/STIM_026.jpg
559.806	1.516	1	regulate	Run1	regulate/STIM_026.jpg
564.685	1.329	1	regulate	Run1	regulate/STIM_026.jpg
570.022	1.724	1	regulate	Run1	regulate/STIM_026.jpg
574.334	2.632	0	regulate	Run1	regulate/STIM_027.jpg
580.931	2.767	0	regulate	Run1	regulate/STIM_027.jpg
588.158	1.23	0	regulate	Run1	regulate/STIM_027.jpg
592.32	2.437	1	regulate	Run1	regulate/STIM_027.jpg
597.824	1.966	1	regulate	Run1	regulate/STIM_028.jpg
603.881	1.484	1	regulate	Run1	regulate/STIM_028.jpg
607.91	2.09	1	regulate	Run1	regulate/STIM_028.jpg
613.193	1.318	1	regulate	Run1	regulate/STIM_028.jpg
617.105	1.869	1	regulate	Run1	regulate/STIM_029.jpg
621.342	2.718	1	regulate	Run1	regulate/STIM_029.jpg
626.779	2.266	0	regulate	Run1	regulate/STIM_029.jpg
633.285	1.84	1	regulate	Run1	regulate/STIM_029.jpg
638.663	0.758	1	observe	Run1	observe/STIM_000.jpg
643.223	0.879	1	observe	Run1	observe/STIM_000.jpg
647.431	1.333	0	observe	Run1	observe/STIM_000.jpg
652.559	1.039	1	observe	Run1	observe/STIM_000.jpg
657.066	1.345	1	observe	Run1	observe/STIM_001.jpg
660.869	0.968	0	observe	Run1	observe/STIM_001.jpg
665.243	1.29	1	observe	Run1	observe/STIM_001.jpg
668.929	1.287	1	observe	Run1	observe/STIM_001.jpg
672.748	1.057	1	observe	Run1	observe/STIM_002.jpg
676.742	0.937	1	observe	Run1	observe/STIM_002.jpg
680.31	1.228	1	observe	Run1	observe/STIM_002.jpg
683.866	0.936	1	observe	Run1	observe/STIM_002.jpg
687.324	0.796	1	observe	Run1	observe/STIM_003.jpg
691.099	0.87	1	observe	Run1	observe/STIM_003.jpg
694.345	1.199	1	observe	Run1	observe/STIM_003.jpg
697.92	1.336	1	observe	Run1	observe/STIM_003.jpg
703.135	0.916	1	observe	Run1	observe/STIM_004.jpg
708.164	1.243	1	observe	Run1	observe/STIM_004.jpg
712.764	1.013	1	observe	Run1	observe/STIM_004.jpg
716.443	0.697	1	observe	Run1	observe/STIM_004.jpg
720.724	1.14	1	observe	Run1	observe/STIM_005.jpg
725.165	1.193	1	observe	Run1	observe/STIM_005.jpg
728.911	1.149	1	observe	Run1	observe/STIM_005.jpg
733.039	0.882	1	observe	Run1	observe/STIM_005.jpg
736.472	1.163	1	observe	Run1	observe/STIM_006.jpg
741.807	1.181	1	observe	Run1	observe/STIM_006.jpg
746.468	0.802	1	observe	Run1	observe/STIM_006.jpg
750.281	0.808	1	observe	Run1	observe/STIM_006.jpg
754.528	0.981	1	observe	Run1	observe/STIM_007.jpg
757.888	0.728	1	observe	Run1	observe/STIM_007.jpg
761.732	1.296	1	observe	Run1	observe/STIM_007.jpg
766.555	0.743	1	observe	Run1	observe/STIM_007.jpg
771.381	0.733	1	observe	Run1	observe/STIM_008.jpg
774.785	1.013	1	observe	Run1	observe/STIM_008.jpg
779.189	0.897	1	observe	Run1	observe/STIM_008.jpg
783.155	1.314	1	observe	Run1	observe/STIM_008.jpg
788.212	1.334	1	observe	Run1	observe/STIM_009.jpg
792.097	0.864	0	observe	Run1	observe/STIM_009.jpg
796.603	0.72	1	observe	Run1	observe/STIM_009.jpg
800.451	1.349	1	observe	Run1	observe/STIM_009.jpg
804.109	1.358	0	observe	Run1	observe/STIM_010.jpg
809.578	1.269	1	observe	Run1	observe/STIM_010.jpg
814.431	1.335	1	observe	Run1	observe/STIM_010.jpg
819.601	0.974	1	observe	Run1	observe/STIM_010.jpg
823.838	0.994	1	observe	Run1	observe/STIM_011.jpg
828.3	1.214	1	observe	Run1	observe/STIM_011.jpg
832.526	0.998	1	observe	Run1	observe/STIM_011.jpg
836.394	0.688	1	observe	Run1	observe/STIM_011.jpg
840.164	1.336	1	observe	Run1	observe/STIM_012.jpg
845.369	1.005	1	observe	Run1	observe/STIM_012.jpg
849.692	0.789	1	observe	Run1	observe/STIM_012.jpg
854.1	0.74	1	observe	Run1	observe/STIM_012.jpg
858.903	0.847	0	observe	Run1	observe/STIM_013.jpg
862.593	0.714	1	observe	Run1	observe/STIM_013.jpg
867.087	0.823	1	observe	Run1	observe/STIM_013.jpg
871.007	0.758	1	observe	Run1	observe/STIM_013.jpg
875.586	1.188	1	observe	Run1	observe/STIM_014.jpg
880.751	1.334	1	observe	Run1	observe/STIM_014.jpg
885.816	1.187	1	observe	Run1	observe/STIM_014.jpg
889.615	0.827	1	observe	Run1	observe/STIM_014.jpg
893.934	0.831	1	observe	Run1	observe/STIM_015.jpg
897.826	0.99	1	observe	Run1	observe/STIM_015.jpg
901.833	1.093	1	observe	Run1	observe/STIM_015.jpg
905.736	0.782	1	observe	Run1	observe/STIM_015.jpg
908.784	1.243	1	observe	Run1	observe/STIM_016.jpg
913.842	1.172	1	observe	Run1	observe/STIM_016.jpg
918.388	1.271	1	observe	Run1	observe/STIM_016.jpg
923.054	0.839	1	observe	Run1	observe/STIM_016.jpg
926.442	1.118	1	observe	Run1	observe/STIM_017.jpg
930.804	0.962	1	observe	Run1	observe/STIM_017.jpg
935.602	0.78	1	observe	Run1	observe/STIM_017.jpg
940.224	0.756	0	observe	Run1	observe/STIM_017.jpg
944.137	1.203	1	observe	Run1	observe/STIM_018.jpg
948.996	0.796	1	observe	Run1	observe/STIM_018.jpg
953.026	1.084	1	observe	Run1	observe/STIM_018.jpg
957.95	0.949	0	observe	Run1	observe/STIM_018.jpg
961.53	0.926	1	observe	Run1	observe/STIM_019.jpg
964.822	0.726	1	observe	Run1	observe/STIM_019.jpg
969.044	0.814	1	observe	Run1	observe/STIM_019.jpg
973.86	1.244	1	observe	Run1	observe/STIM_019.jpg
978.223	1.616	1	regulate	Run2	regulate/STIM_000.jpg
982.563	1.792	1	regulate	Run2	regulate/STIM_000.jpg
987.64	1.958	0	regulate	Run2	regulate/STIM_000.jpg
992.621	1.985	1	regulate	Run2	regulate/STIM_000.jpg
998.587	1.134	0	regulate	Run2	regulate/STIM_001.jpg
1002.933	1.835	1	regulate	Run2	regulate/STIM_001.jpg
1007.9	2.245	1	regulate	Run2	regulate/STIM_001.jpg
1013.81	1.621	1	regulate	Run2	regulate/STIM_001.jpg
1017.745	1.347	1	regulate	Run2	regulate/STIM_002.jpg
1021.73	2.291	1	regulate	Run2	regulate/STIM_002.jpg
1027.455	2.078	1	regulate	Run2	regulate/STIM_002.jpg
1032.678	1.842	1	regulate	Run2	regulate/STIM_002.jpg
1038.146	2.368	1	regulate	Run2	regulate/STIM_003.jpg
1043.719	1.83	1	regulate	Run2	regulate/STIM_003.jpg
1048.553	1.102	1	regulate	Run2	regulate/STIM_003.jpg
1053.256	1.873	1	regulate	Run2	regulate/STIM_003.jpg
1058.868	1.821	1	regulate	Run2	regulate/STIM_004.jpg
1063.063	1.871	0	regulate	Run2	regulate/STIM_004.jpg
1069.07	1.212	1	regulate	Run2	regulate/STIM_004.jpg
1073.175	1.648	1	regulate	Run2	regulate/STIM_004.jpg
1079.024	2.154	1	regulate	Run2	regulate/STIM_005.jpg
1083.912	2.06	1	regulate	Run2	regulate/STIM_005.jpg
1089.408	1.315	1	regulate	Run2	regulate/STIM_005.jpg
1094.867	1.453	1	regulate	Run2	regulate/STIM_005.jpg
1098.676	2.221	1	regulate	Run2	regulate/STIM_006.jpg
1103.832	1.629	0	regulate	Run2	regulate/STIM_006.jpg
1108.611	1.27	1	regulate	Run2	regulate/STIM_006.jpg
1113.535	1.543	1	regulate	Run2	regulate/STIM_006.jpg
1117.522	1.223	1	regulate	Run2	regulate/STIM_007.jpg
1121.738	1.11	1	regulate	Run2	regulate/STIM_007.jpg
1125.486	2.015	1	regulate	Run2	regulate/STIM_007.jpg
1131.694	0.953	0	regulate	Run2	regulate/STIM_007.jpg
1135.48	2.077	1	regulate	Run2	regulate/STIM_008.jpg
1141.877	1.296	1	regulate	Run2	regulate/STIM_008.jpg
1146.652	1.774	1	regulate	Run2	regulate/STIM_008.jpg
1152.371	1.6	1	regulate	Run2	regulate/STIM_008.jpg
1156.729	1.25	1	regulate	Run2	regulate/STIM_009.jpg
1161.401	1.37	1	regulate	Run2	regulate/STIM_009.jpg
1166.421	1.758	1	regulate	Run2	regulate/STIM_009.jpg
1171.852	1.174	1	regulate	Run2	regulate/STIM_009.jpg
1176.711	2.345	1	regulate	Run2	regulate/STIM_010.jpg
1181.913	1.861	1	regulate	Run2	regulate/STIM_010.jpg
1188.045	1.339	1	regulate	Run2	regulate/STIM_010.jpg
1193.41	1.728	1	regulate	Run2	regulate/STIM_010.jpg
1198.498	1.726	1	regulate	Run2	regulate/STIM_011.jpg
1203.386	2.052	1	regulate	Run2	regulate/STIM_011.jpg
1209.329	2.191	1	regulate	Run2	regulate/STIM_011.jpg
1215.505	1.738	1	regulate	Run2	regulate/STIM_011.jpg
1220.76	2.353	1	regulate	Run2	regulate/STIM_012.jpg
1226.931	1.786	1	regulate	Run2	regulate/STIM_012.jpg
1232.718	1.617	1	regulate	Run2	regulate/STIM_012.jpg
1238.143	1.882	1	regulate	Run2	regulate/STIM_012.jpg
1243.294	1.22	1	regulate	Run2	regulate/STIM_013.jpg
1247.802	1.345	1	regulate	Run2	regulate/STIM_013.jpg
1253.08	1.877	1	regulate	Run2	regulate/STIM_013.jpg
1258.735	1.886	1	regulate	Run2	regulate/STIM_013.jpg
1264.417	1.932	1	regulate	Run2	regulate/STIM_014.jpg
1269.342	1.901	1	regulate	Run2	regulate/STIM_014.jpg
1275.546	1.272	1	regulate	Run2	regulate/STIM_014.jpg
1280.403	1.999	1	regulate	Run2	regulate/STIM_014.jpg
1286.481	2.003	1	regulate	Run2	regulate/STIM_015.jpg
1292.794	2.047	1	regulate	Run2	regulate/STIM_015.jpg
1297.909	1.847	1	regulate	Run2	regulate/STIM_015.jpg
1302.685	1.664	1	regulate	Run2	regulate/STIM_015.jpg
1307.459	1.874	1	regulate	Run2	regulate/STIM_016.jpg
1312.519	1.524	1	regulate	Run2	regulate/STIM_016.jpg
1316.352	1.074	1	regulate	Run2	regulate/STIM_016.jpg
1321.26	1.385	1	regulate	Run2	regulate/STIM_016.jpg
1326.036	1.991	1	regulate	Run2	regulate/STIM_017.jpg
1331.837	1.881	1	regulate	Run2	regulate/STIM_017.jpg
1338.033	1.89	1	regulate	Run2	regulate/STIM_017.jpg
1343.98	1.527	1	regulate	Run2	regulate/STIM_017.jpg
1348.675	2.538	1	regulate	Run2	regulate/STIM_018.jpg
1354.981	2.336	1	regulate	Run2	regulate/STIM_018.jpg
1360.389	2.237	1	regulate	Run2	regulate/STIM_018.jpg
1365.278	1.648	1	regulate	Run2	regulate/STIM_018.jpg
1369.938	1.632	1	regulate	Run2	regulate/STIM_019.jpg
1374.682	2.146	0	regulate	Run2	regulate/STIM_019.jpg
1380.39	1.85	1	regulate	Run2	regulate/STIM_019.jpg
1386.485	1.717	1	regulate	Run2	regulate/STIM_019.jpg
1390.77	2.374	1	regulate	Run2	regulate/STIM_020.jpg
1395.896	2.283	0	regulate	Run2	regulate/STIM_020.jpg
1401.41	1.28	1	regulate	Run2	regulate/STIM_020.jpg
1406.333	1.229	0	regulate	Run2	regulate/STIM_020.jpg
1410.58	1.133	1	regulate	Run2	regulate/STIM_021.jpg
1415.598	1.626	1	regulate	Run2	regulate/STIM_021.jpg
1421.07	1.298	1	regulate	Run2	regulate/STIM_021.jpg
1425.779	1.517	1	regulate	Run2	regulate/STIM_021.jpg
1430.095	1.763	1	regulate	Run2	regulate/STIM_022.jpg
1435.481	2.32	1	regulate	Run2	regulate/STIM_022.jpg
1441.295	1.188	1	regulate	Run2	regulate/STIM_022.jpg
1445.935	1.753	1	regulate	Run2	regulate/STIM_022.jpg
1451.471	2.39	1	regulate	Run2	regulate/STIM_023.jpg
1457.092	2.023	1	regulate	Run2	regulate/STIM_023.jpg
1462.132	1.269	1	regulate	Run2	regulate/STIM_023.jpg
1466.94	1.336	1	regulate	Run2	regulate/STIM_023.jpg
1471.776	1.429	1	regulate	Run2	regulate/STIM_024.jpg
1477.298	1.7	1	regulate	Run2	regulate/STIM_024.jpg
1482.934	0.968	1	regulate	Run2	regulate/STIM_024.jpg
1487.313	1.185	1	regulate	Run2	regulate/STIM_024.jpg
1491.697	1.955	1	regulate	Run2	regulate/STIM_025.jpg
1497.407	1.176	0	regulate	Run2	regulate/STIM_025.jpg
1500.79	1.036	1	regulate	Run2	regulate/STIM_025.jpg
1504.169	1.844	1	regulate	Run2	regulate/STIM_025.jpg
1508.413	1.274	1	regulate	Run2	regulate/STIM_026.jpg
1513.16	1.388	1	regulate	Run2	regulate/STIM_026.jpg
1517.069	1.642	1	regulate	Run2	regulate/STIM_026.jpg
1521.103	0.921	1	regulate	Run2	regulate/STIM_026.jpg
1525.161	1.605	1	regulate	Run2	regulate/STIM_027.jpg
1529.278	1.617	1	regulate	Run2	regulate/STIM_027.jpg
1533.615	2.227	1	regulate	Run2	regulate/STIM_027.jpg
1538.254	1.446	1	regulate	Run2	regulate/STIM_027.jpg
1543.334	1.541	0	regulate	Run2	regulate/STIM_028.jpg
1547.951	1.065	1	regulate	Run2	regulate/STIM_028.jpg
1551.214	2.114	1	regulate	Run2	regulate/STIM_028.jpg
1555.969	1.676	1	regulate	Run2	regulate/STIM_028.jpg
1560.22	1.917	0	regulate	Run2	regulate/STIM_029.jpg
1565.136	1.474	1	regulate	Run2	regulate/STIM_029.jpg
1569.02	1.332	1	regulate	Run2	regulate/STIM_029.jpg
1573.104	1.952	1	regulate	Run2	regulate/STIM_029.jpg
1579.265	1.016	1	observe	Run2	observe/STIM_000.jpg
1583.005	0.838	1	observe	Run2	observe/STIM_000.jpg
1586.059	1.228	1	observe	Run2	observe/STIM_000.jpg
1590.066	0.852	1	observe	Run2	observe/STIM_000.jpg
1593.541	1.364	1	observe	Run2	observe/STIM_001.jpg
1598.884	0.997	1	observe	Run2	observe/STIM_001.jpg
1602.863	0.858	1	observe	Run2	observe/STIM_001.jpg
1607.145	1.103	0	observe	Run2	observe/STIM_001.jpg
1611.17	1.289	1	observe	Run2	observe/STIM_002.jpg
1616.118	1.256	0	observe	Run2	observe/STIM_002.jpg
1621.573	0.879	1	observe	Run2	observe/STIM_002.jpg
1624.815	0.853	1	observe	Run2	observe/STIM_002.jpg
1627.924	0.766	1	observe	Run2	observe/STIM_003.jpg
1632.066	0.815	1	observe	Run2	observe/STIM_003.jpg
1635.882	1.203	0	observe	Run2	observe/STIM_003.jpg
1639.641	0.861	1	observe	Run2	observe/STIM_003.jpg
1643.183	0.869	0	observe	Run2	observe/STIM_004.jpg
1647.565	1.315	1	observe	Run2	observe/STIM_004.jpg
1652.158	1.152	1	observe	Run2	observe/STIM_004.jpg
1656.388	0.91	1	observe	Run2	observe/STIM_004.jpg
1659.465	0.831	1	observe	Run2	observe/STIM_005.jpg
1663.554	1.213	1	observe	Run2	observe/STIM_005.jpg
1668.684	0.847	1	observe	Run2	observe/STIM_005.jpg
1672.406	0.992	1	observe	Run2	observe/STIM_005.jpg
1675.866	1.139	1	observe	Run2	observe/STIM_006.jpg
1679.874	0.966	1	observe	Run2	observe/STIM_006.jpg
1684.122	1.092	1	observe	Run2	observe/STIM_006.jpg
1688.094	0.793	1	observe	Run2	observe/STIM_006.jpg
1692.421	1.076	1	observe	Run2	observe/STIM_007.jpg
1695.978	0.972	0	observe	Run2	observe/STIM_007.jpg
1699.371	0.849	1	observe	Run2	observe/STIM_007.jpg
1702.756	0.991	1	observe	Run2	observe/STIM_007.jpg
1706.211	1.229	1	observe	Run2	observe/STIM_008.jpg
1710.631	1.015	1	observe	Run2	observe/STIM_008.jpg
1714.464	0.731	0	observe	Run2	observe/STIM_008.jpg
1717.485	0.99	1	observe	Run2	observe/STIM_008.jpg
1721.227	0.733	1	observe	Run2	observe/STIM_009.jpg
1724.667	1.003	1	observe	Run2	observe/STIM_009.jpg
1728.339	1.099	1	observe	Run2	observe/STIM_009.jpg
1732.5	1.089	1	observe	Run2	observe/STIM_009.jpg
1736.627	1.318	1	observe	Run2	observe/STIM_010.jpg
1740.486	1.169	0	observe	Run2	observe/STIM_010.jpg
1745.735	0.935	1	observe	Run2	observe/STIM_010.jpg
1749.209	1.014	1	observe	Run2	observe/STIM_010.jpg
1754.151	1.186	1	observe	Run2	observe/STIM_011.jpg
1757.987	0.883	1	observe	Run2	observe/STIM_011.jpg
1761.765	1.202	1	observe	Run2	observe/STIM_011.jpg
1765.976	1.334	1	observe	Run2	observe/STIM_011.jpg
1770.132	1.252	1	observe	Run2	observe/STIM_012.jpg
1774.911	1.246	1	observe	Run2	observe/STIM_012.jpg
1779.124	1.222	1	observe	Run2	observe/STIM_012.jpg
1784.029	1.294	1	observe	Run2	observe/STIM_012.jpg
1788.456	0.727	1	observe	Run2	observe/STIM_013.jpg
1791.75	1.24	1	observe	Run2	observe/STIM_013.jpg
1795.463	1.359	1	observe	Run2	observe/STIM_013.jpg
1799.652	1.264	1	observe	Run2	observe/STIM_013.jpg
1803.993	0.779	0	observe	Run2	observe/STIM_014.jpg
1807.699	1.196	0	observe	Run2	observe/STIM_014.jpg
1812.378	1.001	1	observe	Run2	observe/STIM_014.jpg
1816.283	1.089	1	observe	Run2	observe/STIM_014.jpg
1821.144	0.858	1	observe	Run2	observe/STIM_015.jpg
1825.65	1.355	1	observe	Run2	observe/STIM_015.jpg
1830.65	0.686	0	observe	Run2	observe/STIM_015.jpg
1834.216	0.996	1	observe	Run2	observe/STIM_015.jpg
1838.192	0.916	1	observe	Run2	observe/STIM_016.jpg
1843.059	0.948	0	observe	Run2	observe/STIM_016.jpg
1847.856	0.813	1	observe	Run2	observe/STIM_016.jpg
1850.823	1.17	1	observe	Run2	observe/STIM_016.jpg
1855.64	1.144	1	observe	Run2	observe/STIM_017.jpg
1860.898	0.707	1	observe	Run2	observe/STIM_017.jpg
1864.31	0.8	1	observe	Run2	observe/STIM_017.jpg
1869.175	1.262	1	observe	Run2	observe/STIM_017.jpg
1872.654	1.202	1	observe	Run2	observe/STIM_018.jpg
1876.424	0.74	1	observe	Run2	observe/STIM_018.jpg
1881.221	0.855	1	observe	Run2	observe/STIM_018.jpg
1884.388	1.14	1	observe	Run2	observe/STIM_018.jpg
1888.833	0.936	1	observe	Run2	observe/STIM_019.jpg
1892.713	1.28	1	observe	Run2	observe/STIM_019.jpg
1896.638	0.865	1	observe	Run2	observe/STIM_019.jpg
1901.183	0.809	1	observe	Run2	observe/STIM_019.jpg
1905.404	1.41	1	regulate	Run3	regulate/STIM_000.jpg
1909.173	1.747	1	regulate	Run3	regulate/STIM_000.jpg
1914.316	1.734	1	regulate	Run3	regulate/STIM_000.jpg
1919.193	1.904	1	regulate	Run3	regulate/STIM_000.jpg
1924.763	1.277	0	regulate	Run3	regulate/STIM_001.jpg
1929.939	1.248	1	regulate	Run3	regulate/STIM_001.jpg
1934.534	1.464	1	regulate	Run3	regulate/STIM_001.jpg
1939.485	0.903	1	regulate	Run3	regulate/STIM_001.jpg
1944.297	1.12	1	regulate	Run3	regulate/STIM_002.jpg
1948.742	0.957	1	regulate	Run3	regulate/STIM_002.jpg
1952.232	0.943	1	regulate	Run3	regulate/STIM_002.jpg
1956.55	1.128	1	regulate	Run3	regulate/STIM_002.jpg
1961.799	2.011	1	regulate	Run3	regulate/STIM_003.jpg
1966.989	1.678	1	regulate	Run3	regulate/STIM_003.jpg
1972.681	1.22	1	regulate	Run3	regulate/STIM_003.jpg
1976.898	1.342	1	regulate	Run3	regulate/STIM_003.jpg
1982.19	1.812	1	regulate	Run3	regulate/STIM_004.jpg
1986.813	1.45	1	regulate	Run3	regulate/STIM_004.jpg
1990.808	1.096	1	regulate	Run3	regulate/STIM_004.jpg
1994.571	1.484	1	regulate	Run3	regulate/STIM_004.jpg
2000.265	1.849	1	regulate	Run3	regulate/STIM_005.jpg
2006.243	1.104	1	regulate	Run3	regulate/STIM_005.jpg
2011.246	1.117	0	regulate	Run3	regulate/STIM_005.jpg
2016.533	1.865	1	regulate	Run3	regulate/STIM_005.jpg
2021.812	1.573	1	regulate	Run3	regulate/STIM_006.jpg
2025.663	1.115	1	regulate	Run3	regulate/STIM_006.jpg
2030.614	2.022	1	regulate	Run3	regulate/STIM_006.jpg
2035.034	1.231	1	regulate	Run3	regulate/STIM_006.jpg
2040.036	1.003	1	regulate	Run3	regulate/STIM_007.jpg
2044.143	1.768	1	regulate	Run3	regulate/STIM_007.jpg
2048.355	1.771	1	regulate	Run3	regulate/STIM_007.jpg
2054.061	1.759	1	regulate	Run3	regulate/STIM_007.jpg
2058.638	1.472	1	regulate	Run3	regulate/STIM_008.jpg
2063.501	2.047	1	regulate	Run3	regulate/STIM_008.jpg
2068.999	1.099	1	regulate	Run3	regulate/STIM_008.jpg
2072.773	1.927	1	regulate	Run3	regulate/STIM_008.jpg
2078.58	1.564	0	regulate	Run3	regulate/STIM_009.jpg
2084.22	1.324	1	regulate	Run3	regulate/STIM_009.jpg
2088.704	2.067	1	regulate	Run3	regulate/STIM_009.jpg
2094.938	1.414	1	regulate	Run3	regulate/STIM_009.jpg
2099.048	1.523	1	regulate	Run3	regulate/STIM_010.jpg
2104.491	1.611	1	regulate	Run3	regulate/STIM_010.jpg
2108.956	1.506	1	regulate	Run3	regulate/STIM_010.jpg
2114.0	1.659	1	regulate	Run3	regulate/STIM_010.jpg
2117.975	1.861	1	regulate	Run3	regulate/STIM_011.jpg
2123.097	1.007	1	regulate	Run3	regulate/STIM_011.jpg
2128.263	0.948	1	regulate	Run3	regulate/STIM_011.jpg
2132.841	1.182	1	regulate	Run3	regulate/STIM_011.jpg
2137.296	1.652	1	regulate	Run3	regulate/STIM_012.jpg
2142.394	1.159	1	regulate	Run3	regulate/STIM_012.jpg
2146.066	1.123	1	regulate	Run3	regulate/STIM_012.jpg
2151.234	1.473	1	regulate	Run3	regulate/STIM_012.jpg
2156.086	1.816	1	regulate	Run3	regulate/STIM_013.jpg
2161.017	2.094	1	regulate	Run3	regulate/STIM_013.jpg
2166.383	1.765	1	regulate	Run3	regulate/STIM_013.jpg
2172.36	1.522	1	regulate	Run3	regulate/STIM_013.jpg
2177.923	1.329	1	regulate	Run3	regulate/STIM_014.jpg
2182.852	0.909	1	regulate	Run3	regulate/STIM_014.jpg
2186.297	1.34	1	regulate	Run3	regulate/STIM_014.jpg
2191.415	1.522	1	regulate	Run3	regulate/STIM_014.jpg
2196.847	1.706	1	regulate	Run3	regulate/STIM_015.jpg
2201.411	1.224	1	regulate	Run3	regulate/STIM_015.jpg
2206.735	1.433	1	regulate	Run3	regulate/STIM_015.jpg
2210.499	1.565	1	regulate	Run3	regulate/STIM_015.jpg
2214.956	1.539	1	regulate	Run3	regulate/STIM_016.jpg
2219.007	1.747	1	regulate	Run3	regulate/STIM_016.jpg
2224.146	1.779	1	regulate	Run3	regulate/STIM_016.jpg
2230.018	1.045	1	regulate	Run3	regulate/STIM_016.jpg
2233.313	1.0	1	regulate	Run3	regulate/STIM_017.jpg
2237.768	1.295	1	regulate	Run3	regulate/STIM_017.jpg
2242.674	1.498	1	regulate	Run3	regulate/STIM_017.jpg
2246.876	1.987	1	regulate	Run3	regulate/STIM_017.jpg
2251.905	1.282	1	regulate	Run3	regulate/STIM_018.jpg
2255.532	1.261	1	regulate	Run3	regulate/STIM_018.jpg
2260.755	1.544	1	regulate	Run3	regulate/STIM_018.jpg
2265.075	1.47	1	regulate	Run3	regulate/STIM_018.jpg
2269.46	1.868	1	regulate	Run3	regulate/STIM_019.jpg
2274.674	1.23	1	regulate	Run3	regulate/STIM_019.jpg
2279.245	1.088	1	regulate	Run3	regulate/STIM_019.jpg
2283.54	0.92	1	regulate	Run3	regulate/STIM_019.jpg
2287.167	1.185	1	regulate	Run3	regulate/STIM_020.jpg
2291.775	1.753	1	regulate	Run3	regulate/STIM_020.jpg
2296.595	1.764	1	regulate	Run3	regulate/STIM_020.jpg
2302.648	1.087	1	regulate	Run3	regulate/STIM_020.jpg
2306.377	1.901	1	regulate	Run3	regulate/STIM_021.jpg
2312.517	1.951	1	regulate	Run3	regulate/STIM_021.jpg
2318.552	1.487	1	regulate	Run3	regulate/STIM_021.jpg
2324.274	1.387	1	regulate	Run3	regulate/STIM_021.jpg
2329.848	1.543	1	regulate	Run3	regulate/STIM_022.jpg
2335.071	1.898	1	regulate	Run3	regulate/STIM_022.jpg
2339.951	1.29	1	regulate	Run3	regulate/STIM_022.jpg
2344.776	1.415	1	regulate	Run3	regulate/STIM_022.jpg
2349.628	0.957	1	regulate	Run3	regulate/STIM_023.jpg
2353.131	2.026	0	regulate	Run3	regulate/STIM_023.jpg
2357.529	1.708	0	regulate	Run3	regulate/STIM_023.jpg
2362.245	1.196	1	regulate	Run3	regulate/STIM_023.jpg
2366.662	1.789	0	regulate	Run3	regulate/STIM_024.jpg
2372.468	1.666	1	regulate	Run3	regulate/STIM_024.jpg
2378.29	1.764	1	regulate	Run3	regulate/STIM_024.jpg
2383.899	0.903	1	regulate	Run3	regulate/STIM_024.jpg
2387.987	1.944	1	regulate	Run3	regulate/STIM_025.jpg
2392.833	1.957	0	regulate	Run3	regulate/STIM_025.jpg
2399.003	1.765	1	regulate	Run3	regulate/STIM_025.jpg
2405.023	1.005	1	regulate	Run3	regulate/STIM_025.jpg
2408.412	1.412	0	regulate	Run3	regulate/STIM_026.jpg
2413.622	1.662	1	regulate	Run3	regulate/STIM_026.jpg
2418.507	1.551	1	regulate	Run3	regulate/STIM_026.jpg
2422.371	1.009	1	regulate	Run3	regulate/STIM_026.jpg
2426.377	1.649	1	regulate	Run3	regulate/STIM_027.jpg
2431.355	1.116	1	regulate	Run3	regulate/STIM_027.jpg
2435.572	1.692	1	regulate	Run3	regulate/STIM_027.jpg
2440.936	1.707	1	regulate	Run3	regulate/STIM_027.jpg
2446.728	1.102	1	regulate	Run3	regulate/STIM_028.jpg
2451.537	2.052	1	regulate	Run3	regulate/STIM_028.jpg
2457.296	1.881	1	regulate	Run3	regulate/STIM_028.jpg
2463.372	1.657	0	regulate	Run3	regulate/STIM_028.jpg
2467.657	1.412	1	regulate	Run3	regulate/STIM_029.jpg
2472.757	1.464	1	regulate	Run3	regulate/STIM_029.jpg
2478.01	1.649	0	regulate	Run3	regulate/STIM_029.jpg
2483.798	1.824	1	regulate	Run3	regulate/STIM_029.jpg
2489.927	0.949	1	observe	Run3	observe/STIM_000.jpg
2493.115	1.319	0	observe	Run3	observe/STIM_000.jpg
2496.907	1.232	1	observe	Run3	observe/STIM_000.jpg
2501.697	1.269	1	observe	Run3	observe/STIM_000.jpg
2506.709	1.263	1	observe	Run3	observe/STIM_001.jpg
2511.033	1.307	1	observe	Run3	observe/STIM_001.jpg
2515.436	1.2	1	observe	Run3	observe/STIM_001.jpg
2519.064	1.132	1	observe	Run3	observe/STIM_001.jpg
2524.146	1.217	0	observe	Run3	observe/STIM_002.jpg
2528.034	0.926	1	observe	Run3	observe/STIM_002.jpg
2532.304	0.823	0	observe	Run3	observe/STIM_002.jpg
2536.559	1.051	1	observe	Run3	observe/STIM_002.jpg
2540.101	0.768	1	observe	Run3	observe/STIM_003.jpg
2544.184	0.803	1	observe	Run3	observe/STIM_003.jpg
2548.966	1.352	1	observe	Run3	observe/STIM_003.jpg
2552.577	0.79	1	observe	Run3	observe/STIM_003.jpg
2556.526	1.266	1	observe	Run3	observe/STIM_004.jpg
2561.473	1.116	1	observe	Run3	observe/STIM_004.jpg
2566.423	1.185	1	observe	Run3	observe/STIM_004.jpg
2571.064	0.816	1	observe	Run3	observe/STIM_004.jpg
2574.283	0.784	0	observe	Run3	observe/STIM_005.jpg
2578.008	1.157	1	observe	Run3	observe/STIM_005.jpg
2583.052	0.786	1	observe	Run3	observe/STIM_005.jpg
2587.478	1.243	1	observe	Run3	observe/STIM_005.jpg
2591.504	1.325	1	observe	Run3	observe/STIM_006.jpg
2595.935	1.356	1	observe	Run3	observe/STIM_006.jpg
2599.881	0.739	1	observe	Run3	observe/STIM_006.jpg
2602.969	1.024	1	observe	Run3	observe/STIM_006.jpg
2607.536	1.234	1	observe	Run3	observe/STIM_007.jpg
2612.911	0.886	1	observe	Run3	observe/STIM_007.jpg
2617.643	0.879	1	observe	Run3	observe/STIM_007.jpg
2620.68	0.69	1	observe	Run3	observe/STIM_007.jpg
2624.377	1.143	1	observe	Run3	observe/STIM_008.jpg
2628.905	1.171	1	observe	Run3	observe/STIM_008.jpg
2634.213	1.093	1	observe	Run3	observe/STIM_008.jpg
2639.259	0.928	1	observe	Run3	observe/STIM_008.jpg
2642.557	1.262	1	observe	Run3	observe/STIM_009.jpg
2646.041	0.719	1	observe	Run3	observe/STIM_009.jpg
2649.987	0.9	1	observe	Run3	observe/STIM_009.jpg
2654.947	1.298	1	observe	Run3	observe/STIM_009.jpg
2659.594	1.333	1	observe	Run3	observe/STIM_010.jpg
2664.304	0.761	1	observe	Run3	observe/STIM_010.jpg
2669.189	1.201	1	observe	Run3	observe/STIM_010.jpg
2673.034	1.132	1	observe	Run3	observe/STIM_010.jpg
2677.27	0.829	1	observe	Run3	observe/STIM_011.jpg
2681.153	0.933	1	observe	Run3	observe/STIM_011.jpg
2685.036	1.173	1	observe	Run3	observe/STIM_011.jpg
2689.851	1.052	1	observe	Run3	observe/STIM_011.jpg
2694.775	1.028	1	observe	Run3	observe/STIM_012.jpg
2698.208	0.696	0	observe	Run3	observe/STIM_012.jpg
2702.933	1.31	1	observe	Run3	observe/STIM_012.jpg
2707.074	0.808	1	observe	Run3	observe/STIM_012.jpg
2710.032	0.731	1	observe	Run3	observe/STIM_013.jpg
2713.926	1.046	1	observe	Run3	observe/STIM_013.jpg
2717.339	1.366	1	observe	Run3	observe/STIM_013.jpg
2721.507	0.743	1	observe	Run3	observe/STIM_013.jpg
2724.951	1.149	1	observe	Run3	observe/STIM_014.jpg
2729.333	0.725	1	observe	Run3	observe/STIM_014.jpg
2732.887	1.018	1	observe	Run3	observe/STIM_014.jpg
2736.247	0.778	1	observe	Run3	observe/STIM_014.jpg
2739.698	0.827	1	observe	Run3	observe/STIM_015.jpg
2743.096	1.241	0	observe	Run3	observe/STIM_015.jpg
2746.56	0.975	0	observe	Run3	observe/STIM_015.jpg
2751.422	1.349	1	observe	Run3	observe/STIM_015.jpg
2755.957	0.795	1	observe	Run3	observe/STIM_016.jpg
2760.114	1.115	1	observe	Run3	observe/STIM_016.jpg
2765.405	0.788	1	observe	Run3	observe/STIM_016.jpg
2768.46	1.017	0	observe	Run3	observe/STIM_016.jpg
2772.619	1.062	1	observe	Run3	observe/STIM_017.jpg
2775.876	0.78	1	observe	Run3	observe/STIM_017.jpg
2779.194	0.832	1	observe	Run3	observe/STIM_017.jpg
2782.64	0.79	1	observe	Run3	observe/STIM_017.jpg
2786.818	0.913	1	observe	Run3	observe/STIM_018.jpg
2790.741	0.823	1	observe	Run3	observe/STIM_018.jpg
2793.981	1.145	1	observe	Run3	observe/STIM_018.jpg
2797.5	1.337	1	observe	Run3	observe/STIM_018.jpg
2801.588	1.2	1	observe	Run3	observe/STIM_019.jpg
2806.157	0.709	1	observe	Run3	observe/STIM_019.jpg
2809.435	1.368	1	observe	Run3	observe/STIM_019.jpg
2813.228	1.303	1	observe	Run3	observe/STIM_019.jpg
