onset	duration	accuracy_binary	trial_type	learning_stage	stimulus
0.0	1.698	1	generate	Run1	generate/STIM_000.jpg
5.18	2.088	0	generate	Run1	generate/STIM_000.jpg
9.884	2.144	1	generate	Run1	generate/STIM_000.jpg
15.727	1.504	1	generate	Run1	generate/STIM_000.jpg
20.115	1.31	1	generate	Run1	generate/STIM_000.jpg
24.19	1.471	1	generate	Run1	generate/STIM_001.jpg
28.166	2.361	1	generate	Run1	generate/STIM_001.jpg
32.764	1.97	0	generate	Run1	generate/STIM_001.jpg
36.931	2.229	1	generate	Run1	generate/STIM_001.jpg
42.28	1.25	1	generate	Run1	generate/STIM_001.jpg
47.399	2.507	1	generate	Run1	generate/STIM_002.jpg
53.817	1.462	0	generate	Run1	generate/STIM_002.jpg
59.031	1.237	0	generate	Run1	generate/STIM_002.jpg
62.679	1.428	1	generate	Run1	generate/STIM_002.jpg
67.071	1.129	1	generate	Run1	generate/STIM_002.jpg
71.611	1.862	1	generate	Run1	generate/STIM_003.jpg
76.321	2.563	1	generate	Run1	generate/STIM_003.jpg
82.226	2.041	0	generate	Run1	generate/STIM_003.jpg
87.731	2.053	1	generate	Run1	generate/STIM_003.jpg
92.476	1.558	1	generate	Run1	generate/STIM_003.jpg
98.098	1.388	1	generate	Run1	generate/STIM_004.jpg
102.238	2.059	1	generate	Run1	generate/STIM_004.jpg
107.362	1.647	1	generate	Run1	generate/STIM_004.jpg
111.427	2.363	1	generate	Run1	generate/STIM_004.jpg
116.946	1.67	1	generate	Run1	generate/STIM_004.jpg
122.627	2.654	1	generate	Run1	generate/STIM_005.jpg
129.211	1.459	1	generate	Run1	generate/STIM_005.jpg
134.276	2.164	0	generate	Run1	generate/STIM_005.jpg
138.948	1.83	1	generate	Run1	generate/STIM_005.jpg
144.536	1.998	1	generate	Run1	generate/STIM_005.jpg
149.691	1.345	1	generate	Run1	generate/STIM_006.jpg
154.939	1.916	1	generate	Run1	generate/STIM_006.jpg
160.368	2.388	0	generate	Run1	generate/STIM_006.jpg
166.501	2.187	1	generate	Run1	generate/STIM_006.jpg
171.45	2.042	1	generate	Run1	generate/STIM_006.jpg
175.591	2.358	1	generate	Run1	generate/STIM_007.jpg
180.94	2.474	0	generate	Run1	generate/STIM_007.jpg
186.63	1.998	1	generate	Run1	generate/STIM_007.jpg
190.859	1.102	1	generate	Run1	generate/STIM_007.jpg
195.181	1.62	0	generate	Run1	generate/STIM_007.jpg
200.635	1.229	1	generate	Run1	generate/STIM_008.jpg
204.451	1.434	1	generate	Run1	generate/STIM_008.jpg
208.14	1.548	0	generate	Run1	generate/STIM_008.jpg
213.258	1.271	1	generate	Run1	generate/STIM_008.jpg
217.303	1.662	1	generate	Run1	generate/STIM_008.jpg
222.342	1.483	1	generate	Run1	generate/STIM_009.jpg
226.437	1.42	0	generate	Run1	generate/STIM_009.jpg
231.782	1.261	1	generate	Run1	generate/STIM_009.jpg
235.566	1.589	1	generate	Run1	generate/STIM_009.jpg
240.82	1.334	0	generate	Run1	generate/STIM_009.jpg
245.493	2.252	1	generate	Run1	generate/STIM_010.jpg
250.723	1.859	1	generate	Run1	generate/STIM_010.jpg
254.886	1.666	1	generate	Run1	generate/STIM_010.jpg
258.868	1.886	1	generate	Run1	generate/STIM_010.jpg
263.397	1.199	1	generate	Run1	generate/STIM_010.jpg
267.785	1.664	1	generate	Run1	generate/STIM_011.jpg
271.788	1.697	1	generate	Run1	generate/STIM_011.jpg
275.966	1.832	1	generate	Run1	generate/STIM_011.jpg
280.437	2.317	1	generate	Run1	generate/STIM_011.jpg
285.152	1.408	1	generate	Run1	generate/STIM_011.jpg
288.727	2.016	0	generate	Run1	generate/STIM_012.jpg
293.951	1.706	0	generate	Run1	generate/STIM_012.jpg
297.77	2.484	1	generate	Run1	generate/STIM_012.jpg
302.755	2.01	1	generate	Run1	generate/STIM_012.jpg
307.29	1.433	1	generate	Run1	generate/STIM_012.jpg
312.76	2.065	1	generate	Run1	generate/STIM_013.jpg
318.157	1.268	1	generate	Run1	generate/STIM_013.jpg
322.168	1.862	1	generate	Run1	generate/STIM_013.jpg
327.717	2.324	1	generate	Run1	generate/STIM_013.jpg
333.325	1.528	1	generate	Run1	generate/STIM_013.jpg
337.668	2.35	1	generate	Run1	generate/STIM_014.jpg
343.584	1.158	0	generate	Run1	generate/STIM_014.jpg
347.955	2.14	1	generate	Run1	generate/STIM_014.jpg
352.649	1.593	1	generate	Run1	generate/STIM_014.jpg
357.057	1.63	1	generate	Run1	generate/STIM_014.jpg
361.508	2.497	1	generate	Run1	generate/STIM_015.jpg
366.828	1.317	1	generate	Run1	generate/STIM_015.jpg
370.991	1.589	1	generate	Run1	generate/STIM_015.jpg
375.774	1.781	1	generate	Run1	generate/STIM_015.jpg
379.919	1.782	0	generate	Run1	generate/STIM_015.jpg
385.667	2.694	0	generate	Run1	generate/STIM_016.jpg
391.376	1.598	1	generate	Run1	generate/STIM_016.jpg
395.478	2.509	1	generate	Run1	generate/STIM_016.jpg
401.078	1.981	0	generate	Run1	generate/STIM_016.jpg
405.582	1.68	1	generate	Run1	generate/STIM_016.jpg
410.188	1.503	1	generate	Run1	generate/STIM_017.jpg
414.625	2.359	1	generate	Run1	generate/STIM_017.jpg
419.775	2.096	1	generate	Run1	generate/STIM_017.jpg
424.822	1.886	0	generate	Run1	generate/STIM_017.jpg
429.407	1.284	0	generate	Run1	generate/STIM_017.jpg
433.163	2.597	0	generate	Run1	generate/STIM_018.jpg
438.295	2.228	1	generate	Run1	generate/STIM_018.jpg
442.704	2.131	1	generate	Run1	generate/STIM_018.jpg
447.711	2.342	0	generate	Run1	generate/STIM_018.jpg
452.954	1.116	1	generate	Run1	generate/STIM_018.jpg
456.85	2.395	1	generate	Run1	generate/STIM_019.jpg
462.179	1.952	0	generate	Run1	generate/STIM_019.jpg
466.973	2.495	1	generate	Run1	generate/STIM_019.jpg
471.599	2.019	1	generate	Run1	generate/STIM_019.jpg
476.923	2.099	1	generate	Run1	generate/STIM_019.jpg
482.775	1.278	1	generate	Run1	generate/STIM_020.jpg
487.27	2.592	1	generate	Run1	generate/STIM_020.jpg
492.027	2.557	1	generate	Run1	generate/STIM_020.jpg
498.43	2.11	1	generate	Run1	generate/STIM_020.jpg
503.429	1.299	1	generate	Run1	generate/STIM_020.jpg
508.204	1.832	0	generate	Run1	generate/STIM_021.jpg
513.05	1.155	1	generate	Run1	generate/STIM_021.jpg
517.221	1.405	1	generate	Run1	generate/STIM_021.jpg
522.179	1.8	1	generate	Run1	generate/STIM_021.jpg
526.352	1.596	1	generate	Run1	generate/STIM_021.jpg
530.719	2.255	1	generate	Run1	generate/STIM_022.jpg
536.484	2.299	0	generate	Run1	generate/STIM_022.jpg
541.302	1.288	1	generate	Run1	generate/STIM_022.jpg
546.113	1.427	1	generate	Run1	generate/STIM_022.jpg
551.398	2.144	1	generate	Run1	generate/STIM_022.jpg
555.933	2.029	1	generate	Run1	generate/STIM_023.jpg
560.932	1.689	0	generate	Run1	generate/STIM_023.jpg
566.411	1.223	1	generate	Run1	generate/STIM_023.jpg
570.699	1.562	1	generate	Run1	generate/STIM_023.jpg
574.53	1.611	1	generate	Run1	generate/STIM_023.jpg
578.767	1.313	1	generate	Run1	generate/STIM_024.jpg
583.781	1.84	1	generate	Run1	generate/STIM_024.jpg
588.588	1.204	1	generate	Run1	generate/STIM_024.jpg
593.688	1.918	1	generate	Run1	generate/STIM_024.jpg
598.697	1.933	0	generate	Run1	generate/STIM_024.jpg
603.473	0.683	1	repeat	Run1	repeat/STIM_000.jpg
606.459	0.59	1	repeat	Run1	repeat/STIM_000.jpg
610.628	0.538	1	repeat	Run1	repeat/STIM_000.jpg
613.805	0.913	1	repeat	Run1	repeat/STIM_000.jpg
617.179	0.724	1	repeat	Run1	repeat/STIM_000.jpg
621.897	0.904	1	repeat	Run1	repeat/STIM_001.jpg
625.817	0.598	1	repeat	Run1	repeat/STIM_001.jpg
628.776	0.599	1	repeat	Run1	repeat/STIM_001.jpg
633.042	0.743	1	repeat	Run1	repeat/STIM_001.jpg
636.2	0.853	1	repeat	Run1	repeat/STIM_001.jpg
640.795	0.651	1	repeat	Run1	repeat/STIM_002.jpg
644.986	0.638	1	repeat	Run1	repeat/STIM_002.jpg
649.611	0.678	1	repeat	Run1	repeat/STIM_002.jpg
653.364	0.68	1	repeat	Run1	repeat/STIM_002.jpg
656.884	0.738	1	repeat	Run1	repeat/STIM_002.jpg
661.397	0.759	1	repeat	Run1	repeat/STIM_003.jpg
666.168	0.819	1	repeat	Run1	repeat/STIM_003.jpg
670.819	0.672	1	repeat	Run1	repeat/STIM_003.jpg
674.58	0.868	1	repeat	Run1	repeat/STIM_003.jpg
678.302	0.842	1	repeat	Run1	repeat/STIM_003.jpg
682.939	0.92	1	repeat	Run1	repeat/STIM_004.jpg
687.67	0.726	1	repeat	Run1	repeat/STIM_004.jpg
691.052	0.812	1	repeat	Run1	repeat/STIM_004.jpg
693.995	0.904	1	repeat	Run1	repeat/STIM_004.jpg
698.729	0.752	1	repeat	Run1	repeat/STIM_004.jpg
701.816	0.648	1	repeat	Run1	repeat/STIM_005.jpg
705.069	0.716	1	repeat	Run1	repeat/STIM_005.jpg
709.546	0.725	1	repeat	Run1	repeat/STIM_005.jpg
714.265	0.56	1	repeat	Run1	repeat/STIM_005.jpg
718.6	0.799	1	repeat	Run1	repeat/STIM_005.jpg
723.158	0.665	1	repeat	Run1	repeat/STIM_006.jpg
727.234	0.536	1	repeat	Run1	repeat/STIM_006.jpg
731.554	0.688	1	repeat	Run1	repeat/STIM_006.jpg
734.329	0.6	1	repeat	Run1	repeat/STIM_006.jpg
738.222	0.717	1	repeat	Run1	repeat/STIM_006.jpg
742.571	0.515	1	repeat	Run1	repeat/STIM_007.jpg
746.294	0.556	1	repeat	Run1	repeat/STIM_007.jpg
750.332	0.726	1	repeat	Run1	repeat/STIM_007.jpg
754.093	0.728	1	repeat	Run1	repeat/STIM_007.jpg
757.308	0.938	1	repeat	Run1	repeat/STIM_007.jpg
761.804	0.704	1	repeat	Run1	repeat/STIM_008.jpg
765.446	0.816	1	repeat	Run1	repeat/STIM_008.jpg
770.133	0.704	1	repeat	Run1	repeat/STIM_008.jpg
773.749	0.734	1	repeat	Run1	repeat/STIM_008.jpg
778.005	0.526	1	repeat	Run1	repeat/STIM_008.jpg
782.33	0.74	1	repeat	Run1	repeat/STIM_009.jpg
785.301	0.907	1	repeat	Run1	repeat/STIM_009.jpg
788.296	0.5	1	repeat	Run1	repeat/STIM_009.jpg
791.943	0.592	1	repeat	Run1	repeat/STIM_009.jpg
794.697	0.944	1	repeat	Run1	repeat/STIM_009.jpg
798.611	0.688	1	repeat	Run1	repeat/STIM_010.jpg
802.991	0.534	1	repeat	Run1	repeat/STIM_010.jpg
805.856	0.716	1	repeat	Run1	repeat/STIM_010.jpg
810.589	0.677	1	repeat	Run1	repeat/STIM_010.jpg
814.179	0.702	1	repeat	Run1	repeat/STIM_010.jpg
818.612	0.8	1	repeat	Run1	repeat/STIM_011.jpg
822.513	0.672	1	repeat	Run1	repeat/STIM_011.jpg
825.945	0.883	1	repeat	Run1	repeat/STIM_011.jpg
829.012	0.739	1	repeat	Run1	repeat/STIM_011.jpg
833.584	0.724	0	repeat	Run1	repeat/STIM_011.jpg
837.205	0.775	1	repeat	Run1	repeat/STIM_012.jpg
841.782	0.528	1	repeat	Run1	repeat/STIM_012.jpg
844.786	0.811	1	repeat	Run1	repeat/STIM_012.jpg
849.592	0.884	1	repeat	Run1	repeat/STIM_012.jpg
852.64	0.789	1	repeat	Run1	repeat/STIM_012.jpg
856.376	0.588	1	repeat	Run1	repeat/STIM_013.jpg
860.474	0.671	1	repeat	Run1	repeat/STIM_013.jpg
864.387	0.68	1	repeat	Run1	repeat/STIM_013.jpg
868.86	0.739	1	repeat	Run1	repeat/STIM_013.jpg
872.846	0.58	1	repeat	Run1	repeat/STIM_013.jpg
877.356	0.926	1	repeat	Run1	repeat/STIM_014.jpg
880.854	0.942	1	repeat	Run1	repeat/STIM_014.jpg
884.617	0.479	1	repeat	Run1	repeat/STIM_014.jpg
887.969	0.746	1	repeat	Run1	repeat/STIM_014.jpg
892.673	0.607	1	repeat	Run1	repeat/STIM_014.jpg
897.251	1.3	1	generate	Run2	generate/STIM_000.jpg
901.998	1.13	1	generate	Run2	generate/STIM_000.jpg
905.998	1.743	1	generate	Run2	generate/STIM_000.jpg
909.965	1.875	1	generate	Run2	generate/STIM_000.jpg
914.633	0.839	1	generate	Run2	generate/STIM_000.jpg
917.617	2.138	1	generate	Run2	generate/STIM_001.jpg
923.362	0.917	0	generate	Run2	generate/STIM_001.jpg
927.786	0.937	1	generate	Run2	generate/STIM_001.jpg
932.055	1.994	1	generate	Run2	generate/STIM_001.jpg
937.86	1.905	1	generate	Run2	generate/STIM_001.jpg
943.822	2.172	1	generate	Run2	generate/STIM_002.jpg
948.564	1.651	1	generate	Run2	generate/STIM_002.jpg
953.472	1.823	1	generate	Run2	generate/STIM_002.jpg
959.142	1.799	1	generate	Run2	generate/STIM_002.jpg
963.248	1.168	1	generate	Run2	generate/STIM_002.jpg
967.262	1.474	1	generate	Run2	generate/STIM_003.jpg
971.046	0.949	1	generate	Run2	generate/STIM_003.jpg
975.381	1.226	1	generate	Run2	generate/STIM_003.jpg
979.003	1.535	1	generate	Run2	generate/STIM_003.jpg
982.907	1.255	0	generate	Run2	generate/STIM_003.jpg
986.846	2.042	1	generate	Run2	generate/STIM_004.jpg
992.544	1.252	1	generate	Run2	generate/STIM_004.jpg
996.956	0.878	1	generate	Run2	generate/STIM_004.jpg
1000.395	1.369	1	generate	Run2	generate/STIM_004.jpg
1004.767	1.404	1	generate	Run2	generate/STIM_004.jpg
1009.147	1.856	1	generate	Run2	generate/STIM_005.jpg
1013.202	2.03	1	generate	Run2	generate/STIM_005.jpg
1018.748	1.937	0	generate	Run2	generate/STIM_005.jpg
1023.343	1.537	1	generate	Run2	generate/STIM_005.jpg
1027.701	1.664	1	generate	Run2	generate/STIM_005.jpg
1032.98	1.628	1	generate	Run2	generate/STIM_006.jpg
1038.387	1.174	0	generate	Run2	generate/STIM_006.jpg
1043.317	0.947	1	generate	Run2	generate/STIM_006.jpg
1046.657	1.203	1	generate	Run2	generate/STIM_006.jpg
1050.255	1.12	1	generate	Run2	generate/STIM_006.jpg
1054.547	1.789	1	generate	Run2	generate/STIM_007.jpg
1060.12	1.041	1	generate	Run2	generate/STIM_007.jpg
1064.404	1.099	1	generate	Run2	generate/STIM_007.jpg
1068.65	1.507	1	generate	Run2	generate/STIM_007.jpg
1072.742	1.492	0	generate	Run2	generate/STIM_007.jpg
1076.656	2.098	1	generate	Run2	generate/STIM_008.jpg
1082.072	1.208	1	generate	Run2	generate/STIM_008.jpg
1086.784	1.972	1	generate	Run2	generate/STIM_008.jpg
1092.127	0.956	0	generate	Run2	generate/STIM_008.jpg
1096.394	1.504	1	generate	Run2	generate/STIM_008.jpg
1101.485	2.068	1	generate	Run2	generate/STIM_009.jpg
1107.538	2.126	1	generate	Run2	generate/STIM_009.jpg
1112.063	1.629	1	generate	Run2	generate/STIM_009.jpg
1115.882	1.712	1	generate	Run2	generate/STIM_009.jpg
1121.112	1.636	1	generate	Run2	generate/STIM_009.jpg
1126.491	1.345	1	generate	Run2	generate/STIM_010.jpg
1131.311	1.177	0	generate	Run2	generate/STIM_010.jpg
1134.653	1.759	1	generate	Run2	generate/STIM_010.jpg
1139.551	1.396	1	generate	Run2	generate/STIM_010.jpg
1144.207	1.514	1	generate	Run2	generate/STIM_010.jpg
1149.013	1.301	1	generate	Run2	generate/STIM_011.jpg
1153.049	0.929	1	generate	Run2	generate/STIM_011.jpg
1157.742	0.921	1	generate	Run2	generate/STIM_011.jpg
1161.625	1.891	1	generate	Run2	generate/STIM_011.jpg
1165.932	0.854	1	generate	Run2	generate/STIM_011.jpg
1169.138	2.399	1	generate	Run2	generate/STIM_012.jpg
1175.018	1.15	1	generate	Run2	generate/STIM_012.jpg
1178.279	1.725	1	generate	Run2	generate/STIM_012.jpg
1182.127	1.308	1	generate	Run2	generate/STIM_012.jpg
1185.921	1.564	1	generate	Run2	generate/STIM_012.jpg
1191.102	1.88	1	generate	Run2	generate/STIM_013.jpg
1195.311	1.507	1	generate	Run2	generate/STIM_013.jpg
1199.671	1.913	1	generate	Run2	generate/STIM_013.jpg
1204.719	1.411	1	generate	Run2	generate/STIM_013.jpg
1209.976	1.826	1	generate	Run2	generate/STIM_013.jpg
1214.586	1.235	1	generate	Run2	generate/STIM_014.jpg
1218.397	1.114	1	generate	Run2	generate/STIM_014.jpg
1223.445	1.505	1	generate	Run2	generate/STIM_014.jpg
1228.219	1.709	1	generate	Run2	generate/STIM_014.jpg
1232.585	0.973	1	generate	Run2	generate/STIM_014.jpg
1236.164	2.05	1	generate	Run2	generate/STIM_015.jpg
1242.164	1.606	1	generate	Run2	generate/STIM_015.jpg
1246.274	1.724	1	generate	Run2	generate/STIM_015.jpg
1251.295	1.617	1	generate	Run2	generate/STIM_015.jpg
1256.022	0.948	1	generate	Run2	generate/STIM_015.jpg
1259.103	1.645	1	generate	Run2	generate/STIM_016.jpg
1264.225	1.182	1	generate	Run2	generate/STIM_016.jpg
1268.549	2.144	1	generate	Run2	generate/STIM_016.jpg
1274.138	1.526	1	generate	Run2	generate/STIM_016.jpg
1279.161	1.102	1	generate	Run2	generate/STIM_016.jpg
1283.073	1.328	0	generate	Run2	generate/STIM_017.jpg
1287.215	1.258	1	generate	Run2	generate/STIM_017.jpg
1291.876	2.05	1	generate	Run2	generate/STIM_017.jpg
1296.202	0.931	1	generate	Run2	generate/STIM_017.jpg
1299.393	0.863	1	generate	Run2	generate/STIM_017.jpg
1303.212	1.301	1	generate	Run2	generate/STIM_018.jpg
1307.401	2.128	0	generate	Run2	generate/STIM_018.jpg
1313.382	1.031	1	generate	Run2	generate/STIM_018.jpg
1318.157	0.891	1	generate	Run2	generate/STIM_018.jpg
1322.561	1.978	1	generate	Run2	generate/STIM_018.jpg
1326.7	1.448	1	generate	Run2	generate/STIM_019.jpg
1331.988	1.114	1	generate	Run2	generate/STIM_019.jpg
1335.503	1.58	1	generate	Run2	generate/STIM_019.jpg
1340.222	0.805	1	generate	Run2	generate/STIM_019.jpg
1345.006	0.876	0	generate	Run2	generate/STIM_019.jpg
1349.627	1.562	1	generate	Run2	generate/STIM_020.jpg
1354.808	1.204	1	generate	Run2	generate/STIM_020.jpg
1359.292	1.571	0	generate	Run2	generate/STIM_020.jpg
1363.202	0.971	0	generate	Run2	generate/STIM_020.jpg
1367.819	1.202	1	generate	Run2	generate/STIM_020.jpg
1371.946	2.011	1	generate	Run2	generate/STIM_021.jpg
1376.456	1.547	1	generate	Run2	generate/STIM_021.jpg
1380.636	0.921	1	generate	Run2	generate/STIM_021.jpg
1385.573	1.881	1	generate	Run2	generate/STIM_021.jpg
1390.747	1.091	1	generate	Run2	generate/STIM_021.jpg
1394.762	1.105	1	generate	Run2	generate/STIM_022.jpg
1398.617	1.164	1	generate	Run2	generate/STIM_022.jpg
1402.941	1.928	1	generate	Run2	generate/STIM_022.jpg
1408.163	1.656	1	generate	Run2	generate/STIM_022.jpg
1412.372	1.377	1	generate	Run2	generate/STIM_022.jpg
1416.364	2.033	1	generate	Run2	generate/STIM_023.jpg
1421.072	2.144	0	generate	Run2	generate/STIM_023.jpg
1426.126	1.986	1	generate	Run2	generate/STIM_023.jpg
1431.407	1.247	1	generate	Run2	generate/STIM_023.jpg
1435.931	0.867	1	generate	Run2	generate/STIM_023.jpg
1439.322	1.702	1	generate	Run2	generate/STIM_024.jpg
1443.153	0.981	1	generate	Run2	generate/STIM_024.jpg
1447.59	1.141	1	generate	Run2	generate/STIM_024.jpg
1452.441	0.974	1	generate	Run2	generate/STIM_024.jpg
1457.259	0.825	1	generate	Run2	generate/STIM_024.jpg
1460.745	0.877	1	repeat	Run2	repeat/STIM_000.jpg
1464.06	0.739	1	repeat	Run2	repeat/STIM_000.jpg
1468.822	0.663	1	repeat	Run2	repeat/STIM_000.jpg
1473.233	0.705	1	repeat	Run2	repeat/STIM_000.jpg
1476.244	0.645	0	repeat	Run2	repeat/STIM_000.jpg
1478.95	0.78	1	repeat	Run2	repeat/STIM_001.jpg
1483.722	0.539	0	repeat	Run2	repeat/STIM_001.jpg
1488.194	0.894	1	repeat	Run2	repeat/STIM_001.jpg
1492.166	0.582	1	repeat	Run2	repeat/STIM_001.jpg
1495.7	0.495	1	repeat	Run2	repeat/STIM_001.jpg
1499.882	0.627	0	repeat	Run2	repeat/STIM_002.jpg
1503.491	0.792	1	repeat	Run2	repeat/STIM_002.jpg
1506.587	0.729	1	repeat	Run2	repeat/STIM_002.jpg
1510.5	0.729	1	repeat	Run2	repeat/STIM_002.jpg
1514.138	0.734	1	repeat	Run2	repeat/STIM_002.jpg
1517.174	0.752	0	repeat	Run2	repeat/STIM_003.jpg
1520.718	0.89	1	repeat	Run2	repeat/STIM_003.jpg
1523.725	0.541	1	repeat	Run2	repeat/STIM_003.jpg
1527.416	0.621	1	repeat	Run2	repeat/STIM_003.jpg
1532.04	0.669	1	repeat	Run2	repeat/STIM_003.jpg
1535.749	0.821	1	repeat	Run2	repeat/STIM_004.jpg
1539.548	0.603	1	repeat	Run2	repeat/STIM_004.jpg
1542.563	0.588	1	repeat	Run2	repeat/STIM_004.jpg
1545.521	0.935	0	repeat	Run2	repeat/STIM_004.jpg
1549.869	0.596	1	repeat	Run2	repeat/STIM_004.jpg
1554.391	0.904	1	repeat	Run2	repeat/STIM_005.jpg
1557.837	0.843	1	repeat	Run2	repeat/STIM_005.jpg
1561.467	0.701	1	repeat	Run2	repeat/STIM_005.jpg
1565.079	0.519	1	repeat	Run2	repeat/STIM_005.jpg
1567.655	0.723	1	repeat	Run2	repeat/STIM_005.jpg
1571.71	0.516	1	repeat	Run2	repeat/STIM_006.jpg
1576.226	0.84	1	repeat	Run2	repeat/STIM_006.jpg
1579.611	0.866	1	repeat	Run2	repeat/STIM_006.jpg
1582.633	0.485	1	repeat	Run2	repeat/STIM_006.jpg
1586.769	0.647	1	repeat	Run2	repeat/STIM_006.jpg
1589.937	0.836	1	repeat	Run2	repeat/STIM_007.jpg
1593.88	0.756	1	repeat	Run2	repeat/STIM_007.jpg
1596.994	0.552	0	repeat	Run2	repeat/STIM_007.jpg
1600.562	0.681	1	repeat	Run2	repeat/STIM_007.jpg
1604.769	0.879	1	repeat	Run2	repeat/STIM_007.jpg
1608.793	0.723	1	repeat	Run2	repeat/STIM_008.jpg
1613.214	0.878	1	repeat	Run2	repeat/STIM_008.jpg
1617.384	0.749	1	repeat	Run2	repeat/STIM_008.jpg
1620.311	0.914	1	repeat	Run2	repeat/STIM_008.jpg
1624.288	0.857	1	repeat	Run2	repeat/STIM_008.jpg
1627.618	0.916	1	repeat	Run2	repeat/STIM_009.jpg
1631.849	0.834	1	repeat	Run2	repeat/STIM_009.jpg
1636.154	0.84	1	repeat	Run2	repeat/STIM_009.jpg
1640.071	0.909	1	repeat	Run2	repeat/STIM_009.jpg
1644.252	0.878	1	repeat	Run2	repeat/STIM_009.jpg
1649.154	0.704	1	repeat	Run2	repeat/STIM_010.jpg
1652.725	0.508	1	repeat	Run2	repeat/STIM_010.jpg
1655.496	0.49	1	repeat	Run2	repeat/STIM_010.jpg
1658.763	0.895	1	repeat	Run2	repeat/STIM_010.jpg
1661.794	0.824	1	repeat	Run2	repeat/STIM_010.jpg
1666.014	0.505	1	repeat	Run2	repeat/STIM_011.jpg
1670.193	0.816	1	repeat	Run2	repeat/STIM_011.jpg
1674.098	0.907	1	repeat	Run2	repeat/STIM_011.jpg
1677.799	0.651	1	repeat	Run2	repeat/STIM_011.jpg
1680.733	0.553	1	repeat	Run2	repeat/STIM_011.jpg
1684.502	0.746	1	repeat	Run2	repeat/STIM_012.jpg
1687.85	0.943	1	repeat	Run2	repeat/STIM_012.jpg
1692.352	0.536	1	repeat	Run2	repeat/STIM_012.jpg
1696.149	0.601	0	repeat	Run2	repeat/STIM_012.jpg
1700.766	0.786	1	repeat	Run2	repeat/STIM_012.jpg
1703.962	0.488	1	repeat	Run2	repeat/STIM_013.jpg
1707.008	0.908	1	repeat	Run2	repeat/STIM_013.jpg
1711.709	0.73	1	repeat	Run2	repeat/STIM_013.jpg
1716.249	0.878	1	repeat	Run2	repeat/STIM_013.jpg
1719.313	0.806	1	repeat	Run2	repeat/STIM_013.jpg
1722.426	0.811	1	repeat	Run2	repeat/STIM_014.jpg
1726.312	0.541	1	repeat	Run2	repeat/STIM_014.jpg
1730.048	0.562	1	repeat	Run2	repeat/STIM_014.jpg
1733.983	0.631	1	repeat	Run2	repeat/STIM_014.jpg
1737.821	0.591	1	repeat	Run2	repeat/STIM_014.jpg
1740.495	1.418	1	generate	Run3	generate/STIM_000.jpg
1744.525	1.604	1	generate	Run3	generate/STIM_000.jpg
1749.703	1.758	0	generate	Run3	generate/STIM_000.jpg
1754.91	1.395	1	generate	Run3	generate/STIM_000.jpg
1759.131	1.744	1	generate	Run3	generate/STIM_000.jpg
1764.611	1.002	1	generate	Run3	generate/STIM_001.jpg
1768.531	1.855	1	generate	Run3	generate/STIM_001.jpg
1773.937	1.41	1	generate	Run3	generate/STIM_001.jpg
1777.433	1.447	1	generate	Run3	generate/STIM_001.jpg
1782.207	1.722	1	generate	Run3	generate/STIM_001.jpg
1786.059	1.193	1	generate	Run3	generate/STIM_002.jpg
1790.996	1.376	1	generate	Run3	generate/STIM_002.jpg
1794.497	1.588	1	generate	Run3	generate/STIM_002.jpg
1798.888	0.951	1	generate	Run3	generate/STIM_002.jpg
1803.06	1.074	1	generate	Run3	generate/STIM_002.jpg
1807.668	1.675	1	generate	Run3	generate/STIM_003.jpg
1811.908	1.084	1	generate	Run3	generate/STIM_003.jpg
1815.85	1.94	0	generate	Run3	generate/STIM_003.jpg
1821.557	1.96	1	generate	Run3	generate/STIM_003.jpg
1826.551	1.078	0	generate	Run3	generate/STIM_003.jpg
1829.877	0.908	1	generate	Run3	generate/STIM_004.jpg
1833.423	1.686	0	generate	Run3	generate/STIM_004.jpg
1837.579	0.892	1	generate	Run3	generate/STIM_004.jpg
1840.573	1.973	1	generate	Run3	generate/STIM_004.jpg
1845.401	1.932	1	generate	Run3	generate/STIM_004.jpg
1850.086	0.969	1	generate	Run3	generate/STIM_005.jpg
1853.653	1.983	0	generate	Run3	generate/STIM_005.jpg
1858.806	0.955	1	generate	Run3	generate/STIM_005.jpg
1862.686	1.912	1	generate	Run3	generate/STIM_005.jpg
1868.476	0.877	1	generate	Run3	generate/STIM_005.jpg
1871.735	1.698	1	generate	Run3	generate/STIM_006.jpg
1875.815	1.813	1	generate	Run3	generate/STIM_006.jpg
1880.172	1.44	1	generate	Run3	generate/STIM_006.jpg
1885.006	1.023	1	generate	Run3	generate/STIM_006.jpg
1888.755	1.05	1	generate	Run3	generate/STIM_006.jpg
1893.461	1.604	1	generate	Run3	generate/STIM_007.jpg
1897.851	1.9	1	generate	Run3	generate/STIM_007.jpg
1902.471	1.553	1	generate	Run3	generate/STIM_007.jpg
1906.295	1.645	1	generate	Run3	generate/STIM_007.jpg
1910.874	1.074	1	generate	Run3	generate/STIM_007.jpg
1914.776	1.738	0	generate	Run3	generate/STIM_008.jpg
1919.868	1.793	1	generate	Run3	generate/STIM_008.jpg
1925.354	1.486	1	generate	Run3	generate/STIM_008.jpg
1929.992	1.158	1	generate	Run3	generate/STIM_008.jpg
1933.534	1.576	1	generate	Run3	generate/STIM_008.jpg
1937.343	0.9	1	generate	Run3	generate/STIM_009.jpg
1940.471	0.882	1	generate	Run3	generate/STIM_009.jpg
1943.501	1.347	1	generate	Run3	generate/STIM_009.jpg
1947.458	1.868	1	generate	Run3	generate/STIM_009.jpg
1952.12	0.918	1	generate	Run3	generate/STIM_009.jpg
1955.81	1.543	1	generate	Run3	generate/STIM_010.jpg
1960.401	0.986	1	generate	Run3	generate/STIM_010.jpg
1963.776	1.441	1	generate	Run3	generate/STIM_010.jpg
1967.836	1.956	1	generate	Run3	generate/STIM_010.jpg
1972.033	1.874	1	generate	Run3	generate/STIM_010.jpg
1976.363	1.47	1	generate	Run3	generate/STIM_011.jpg
1981.299	1.117	1	generate	Run3	generate/STIM_011.jpg
1985.751	1.504	1	generate	Run3	generate/STIM_011.jpg
1989.805	1.524	1	generate	Run3	generate/STIM_011.jpg
1995.186	1.015	1	generate	Run3	generate/STIM_011.jpg
1999.597	1.917	1	generate	Run3	generate/STIM_012.jpg
2004.84	1.829	1	generate	Run3	generate/STIM_012.jpg
2009.76	1.166	1	generate	Run3	generate/STIM_012.jpg
2013.355	1.33	1	generate	Run3	generate/STIM_012.jpg
2017.863	1.391	1	generate	Run3	generate/STIM_012.jpg
2022.897	0.938	0	generate	Run3	generate/STIM_013.jpg
2026.054	1.339	1	generate	Run3	generate/STIM_013.jpg
2030.33	0.854	1	generate	Run3	generate/STIM_013.jpg
2034.91	1.906	0	generate	Run3	generate/STIM_013.jpg
2039.263	1.396	1	generate	Run3	generate/STIM_013.jpg
2043.076	1.231	1	generate	Run3	generate/STIM_014.jpg
2046.402	0.986	1	generate	Run3	generate/STIM_014.jpg
2049.498	1.055	1	generate	Run3	generate/STIM_014.jpg
2052.836	1.511	1	generate	Run3	generate/STIM_014.jpg
2057.508	1.243	0	generate	Run3	generate/STIM_014.jpg
2062.597	1.176	1	generate	Run3	generate/STIM_015.jpg
2067.303	1.666	1	generate	Run3	generate/STIM_015.jpg
2072.468	1.414	1	generate	Run3	generate/STIM_015.jpg
2077.265	1.197	1	generate	Run3	generate/STIM_015.jpg
2081.957	1.241	1	generate	Run3	generate/STIM_015.jpg
2085.75	1.051	1	generate	Run3	generate/STIM_016.jpg
2090.776	1.604	1	generate	Run3	generate/STIM_016.jpg
2094.573	1.652	1	generate	Run3	generate/STIM_016.jpg
2098.614	1.036	1	generate	Run3	generate/STIM_016.jpg
2102.54	1.212	1	generate	Run3	generate/STIM_016.jpg
2107.758	1.763	1	generate	Run3	generate/STIM_017.jpg
2112.563	1.384	0	generate	Run3	generate/STIM_017.jpg
2117.576	1.737	1	generate	Run3	generate/STIM_017.jpg
2121.691	1.462	1	generate	Run3	generate/STIM_017.jpg
2126.058	1.698	1	generate	Run3	generate/STIM_017.jpg
2130.457	0.889	1	generate	Run3	generate/STIM_018.jpg
2134.237	1.681	0	generate	Run3	generate/STIM_018.jpg
2138.88	1.86	1	generate	Run3	generate/STIM_018.jpg
2144.364	1.739	1	generate	Run3	generate/STIM_018.jpg
2149.047	0.844	1	generate	Run3	generate/STIM_018.jpg
2152.593	1.244	1	generate	Run3	generate/STIM_019.jpg
2157.016	1.109	1	generate	Run3	generate/STIM_019.jpg
2161.634	1.025	1	generate	Run3	generate/STIM_019.jpg
2165.473	1.083	1	generate	Run3	generate/STIM_019.jpg
2170.167	1.431	0	generate	Run3	generate/STIM_019.jpg
2175.151	1.586	1	generate	Run3	generate/STIM_020.jpg
2180.115	1.788	1	generate	Run3	generate/STIM_020.jpg
2184.831	1.186	1	generate	Run3	generate/STIM_020.jpg
2188.883	1.328	1	generate	Run3	generate/STIM_020.jpg
2194.025	1.042	1	generate	Run3	generate/STIM_020.jpg
2197.182	1.156	1	generate	Run3	generate/STIM_021.jpg
2202.078	0.996	1	generate	Run3	generate/STIM_021.jpg
2205.892	1.974	1	generate	Run3	generate/STIM_021.jpg
2211.665	1.643	0	generate	Run3	generate/STIM_021.jpg
2216.904	1.095	1	generate	Run3	generate/STIM_021.jpg
2220.598	1.671	1	generate	Run3	generate/STIM_022.jpg
2225.789	1.748	1	generate	Run3	generate/STIM_022.jpg
2230.587	1.907	1	generate	Run3	generate/STIM_022.jpg
2236.078	1.281	1	generate	Run3	generate/STIM_022.jpg
2240.521	1.37	1	generate	Run3	generate/STIM_022.jpg
2244.373	1.488	1	generate	Run3	generate/STIM_023.jpg
2249.794	1.741	1	generate	Run3	generate/STIM_023.jpg
2253.904	1.955	1	generate	Run3	generate/STIM_023.jpg
2258.29	1.849	1	generate	Run3	generate/STIM_023.jpg
2262.237	1.208	1	generate	Run3	generate/STIM_023.jpg
2267.022	1.106	0	generate	Run3	generate/STIM_024.jpg
2270.952	1.784	1	generate	Run3	generate/STIM_024.jpg
2276.453	1.168	1	generate	Run3	generate/STIM_024.jpg
2280.248	1.931	1	generate	Run3	generate/STIM_024.jpg
2285.781	1.115	1	generate	Run3	generate/STIM_024.jpg
2289.553	0.538	1	repeat	Run3	repeat/STIM_000.jpg
2293.488	0.545	1	repeat	Run3	repeat/STIM_000.jpg
2297.567	0.885	1	repeat	Run3	repeat/STIM_000.jpg
2300.919	0.711	1	repeat	Run3	repeat/STIM_000.jpg
2305.171	0.638	1	repeat	Run3	repeat/STIM_000.jpg
2307.884	0.678	1	repeat	Run3	repeat/STIM_001.jpg
2311.733	0.544	1	repeat	Run3	repeat/STIM_001.jpg
2316.198	0.732	1	repeat	Run3	repeat/STIM_001.jpg
2319.91	0.932	1	repeat	Run3	repeat/STIM_001.jpg
2323.156	0.577	0	repeat	Run3	repeat/STIM_001.jpg
2327.745	0.702	1	repeat	Run3	repeat/STIM_002.jpg
2331.597	0.645	1	repeat	Run3	repeat/STIM_002.jpg
2335.534	0.857	1	repeat	Run3	repeat/STIM_002.jpg
2339.004	0.639	1	repeat	Run3	repeat/STIM_002.jpg
2342.391	0.669	1	repeat	Run3	repeat/STIM_002.jpg
2345.259	0.943	1	repeat	Run3	repeat/STIM_003.jpg
2348.755	0.634	1	repeat	Run3	repeat/STIM_003.jpg
2352.717	0.734	1	repeat	Run3	repeat/STIM_003.jpg
2356.634	0.9	1	repeat	Run3	repeat/STIM_003.jpg
2361.233	0.809	1	repeat	Run3	repeat/STIM_003.jpg
2364.168	0.548	1	repeat	Run3	repeat/STIM_004.jpg
2368.636	0.636	1	repeat	Run3	repeat/STIM_004.jpg
2372.763	0.806	0	repeat	Run3	repeat/STIM_004.jpg
2377.484	0.729	1	repeat	Run3	repeat/STIM_004.jpg
2381.953	0.54	1	repeat	Run3	repeat/STIM_004.jpg
2384.751	0.909	1	repeat	Run3	repeat/STIM_005.jpg
2389.266	0.711	1	repeat	Run3	repeat/STIM_005.jpg
2393.904	0.948	1	repeat	Run3	repeat/STIM_005.jpg
2398.563	0.63	1	repeat	Run3	repeat/STIM_005.jpg
2401.283	0.65	1	repeat	Run3	repeat/STIM_005.jpg
2403.973	0.842	1	repeat	Run3	repeat/STIM_006.jpg
2407.035	0.645	1	repeat	Run3	repeat/STIM_006.jpg
2411.295	0.681	0	repeat	Run3	repeat/STIM_006.jpg
2414.543	0.891	1	repeat	Run3	repeat/STIM_006.jpg
2419.395	0.603	1	repeat	Run3	repeat/STIM_006.jpg
2423.052	0.781	1	repeat	Run3	repeat/STIM_007.jpg
2427.724	0.893	1	repeat	Run3	repeat/STIM_007.jpg
2431.176	0.799	1	repeat	Run3	repeat/STIM_007.jpg
2434.446	0.835	1	repeat	Run3	repeat/STIM_007.jpg
2438.808	0.943	1	repeat	Run3	repeat/STIM_007.jpg
2442.89	0.479	1	repeat	Run3	repeat/STIM_008.jpg
2447.233	0.599	1	repeat	Run3	repeat/STIM_008.jpg
2451.388	0.514	1	repeat	Run3	repeat/STIM_008.jpg
2455.847	0.719	1	repeat	Run3	repeat/STIM_008.jpg
2460.135	0.63	1	repeat	Run3	repeat/STIM_008.jpg
2463.025	0.614	1	repeat	Run3	repeat/STIM_009.jpg
2467.43	0.661	1	repeat	Run3	repeat/STIM_009.jpg
2471.8	0.578	1	repeat	Run3	repeat/STIM_009.jpg
2475.04	0.497	1	repeat	Run3	repeat/STIM_009.jpg
2478.593	0.481	1	repeat	Run3	repeat/STIM_009.jpg
2482.977	0.72	1	repeat	Run3	repeat/STIM_010.jpg
2487.235	0.907	1	repeat	Run3	repeat/STIM_010.jpg
2492.092	0.723	1	repeat	Run3	repeat/STIM_010.jpg
2495.647	0.791	1	repeat	Run3	repeat/STIM_010.jpg
2499.578	0.818	1	repeat	Run3	repeat/STIM_010.jpg
2504.332	0.731	0	repeat	Run3	repeat/STIM_011.jpg
2507.138	0.584	1	repeat	Run3	repeat/STIM_011.jpg
2510.662	0.71	1	repeat	Run3	repeat/STIM_011.jpg
2514.072	0.72	1	repeat	Run3	repeat/STIM_011.jpg
2517.662	0.908	1	repeat	Run3	repeat/STIM_011.jpg
2521.366	0.571	1	repeat	Run3	repeat/STIM_012.jpg
2525.053	0.645	1	repeat	Run3	repeat/STIM_012.jpg
2529.61	0.48	1	repeat	Run3	repeat/STIM_012.jpg
2532.398	0.811	1	repeat	Run3	repeat/STIM_012.jpg
2536.661	0.933	1	repeat	Run3	repeat/STIM_012.jpg
2541.247	0.82	1	repeat	Run3	repeat/STIM_013.jpg
2545.628	0.954	1	repeat	Run3	repeat/STIM_013.jpg
2549.809	0.752	1	repeat	Run3	repeat/STIM_013.jpg
2553.088	0.859	1	repeat	Run3	repeat/STIM_013.jpg
2557.243	0.64	1	repeat	Run3	repeat/STIM_013.jpg
2561.802	0.886	1	repeat	Run3	repeat/STIM_014.jpg
2566.121	0.84	1	repeat	Run3	repeat/STIM_014.jpg
2570.121	0.518	1	repeat	Run3	repeat/STIM_014.jpg
2574.44	0.875	1	repeat	Run3	repeat/STIM_014.jpg
2578.253	0.497	1	repeat	Run3	repeat/STIM_014.jpg
2581.857	1.969	1	generate	Run4	generate/STIM_000.jpg
2587.79	1.11	1	generate	Run4	generate/STIM_000.jpg
2591.754	1.031	1	generate	Run4	generate/STIM_000.jpg
2595.962	1.588	1	generate	Run4	generate/STIM_000.jpg
2600.649	1.743	1	generate	Run4	generate/STIM_000.jpg
2604.985	0.99	1	generate	Run4	generate/STIM_001.jpg
2608.406	1.148	1	generate	Run4	generate/STIM_001.jpg
2612.405	1.616	1	generate	Run4	generate/STIM_001.jpg
2616.526	1.345	1	generate	Run4	generate/STIM_001.jpg
2620.061	0.919	1	generate	Run4	generate/STIM_001.jpg
2624.419	1.026	1	generate	Run4	generate/STIM_002.jpg
2628.657	1.695	1	generate	Run4	generate/STIM_002.jpg
2632.84	1.908	1	generate	Run4	generate/STIM_002.jpg
2637.286	1.802	1	generate	Run4	generate/STIM_002.jpg
2642.544	1.957	1	generate	Run4	generate/STIM_002.jpg
2648.288	1.821	1	generate	Run4	generate/STIM_003.jpg
2652.417	1.285	1	generate	Run4	generate/STIM_003.jpg
2657.161	0.848	1	generate	Run4	generate/STIM_003.jpg
2661.179	1.53	1	generate	Run4	generate/STIM_003.jpg
2666.43	1.658	1	generate	Run4	generate/STIM_003.jpg
2671.413	0.81	1	generate	Run4	generate/STIM_004.jpg
2675.788	1.696	1	generate	Run4	generate/STIM_004.jpg
2681.036	1.247	0	generate	Run4	generate/STIM_004.jpg
2684.605	1.196	1	generate	Run4	generate/STIM_004.jpg
2688.266	1.646	1	generate	Run4	generate/STIM_004.jpg
2693.389	1.441	1	generate	Run4	generate/STIM_005.jpg
2697.086	0.812	1	generate	Run4	generate/STIM_005.jpg
2700.875	1.699	1	generate	Run4	generate/STIM_005.jpg
2706.292	0.988	1	generate	Run4	generate/STIM_005.jpg
2710.268	1.734	1	generate	Run4	generate/STIM_005.jpg
2714.849	1.274	1	generate	Run4	generate/STIM_006.jpg
2718.463	1.508	1	generate	Run4	generate/STIM_006.jpg
2723.849	1.862	1	generate	Run4	generate/STIM_006.jpg
2727.863	1.082	1	generate	Run4	generate/STIM_006.jpg
2731.417	0.804	1	generate	Run4	generate/STIM_006.jpg
2734.572	0.942	1	generate	Run4	generate/STIM_007.jpg
2738.825	1.801	1	generate	Run4	generate/STIM_007.jpg
2743.507	0.824	1	generate	Run4	generate/STIM_007.jpg
2746.841	1.727	1	generate	Run4	generate/STIM_007.jpg
2751.658	1.067	1	generate	Run4	generate/STIM_007.jpg
2756.299	1.425	1	generate	Run4	generate/STIM_008.jpg
2760.73	1.273	1	generate	Run4	generate/STIM_008.jpg
2765.119	1.149	1	generate	Run4	generate/STIM_008.jpg
2768.686	1.681	1	generate	Run4	generate/STIM_008.jpg
2773.121	1.894	1	generate	Run4	generate/STIM_008.jpg
2779.078	1.024	1	generate	Run4	generate/STIM_009.jpg
2783.104	1.744	1	generate	Run4	generate/STIM_009.jpg
2788.667	1.102	1	generate	Run4	generate/STIM_009.jpg
2792.603	0.872	1	generate	Run4	generate/STIM_009.jpg
2796.508	1.582	1	generate	Run4	generate/STIM_009.jpg
2802.012	0.929	1	generate	Run4	generate/STIM_010.jpg
2805.046	1.121	0	generate	Run4	generate/STIM_010.jpg
2810.086	1.612	1	generate	Run4	generate/STIM_010.jpg
2814.621	1.859	1	generate	Run4	generate/STIM_010.jpg
2819.554	1.441	1	generate	Run4	generate/STIM_010.jpg
2824.812	1.873	1	generate	Run4	generate/STIM_011.jpg
2830.247	1.173	1	generate	Run4	generate/STIM_011.jpg
2833.798	0.987	1	generate	Run4	generate/STIM_011.jpg
2837.117	0.868	1	generate	Run4	generate/STIM_011.jpg
2841.993	1.502	1	generate	Run4	generate/STIM_011.jpg
2845.7	1.337	1	generate	Run4	generate/STIM_012.jpg
2850.647	1.241	1	generate	Run4	generate/STIM_012.jpg
2854.323	1.538	1	generate	Run4	generate/STIM_012.jpg
2858.072	1.536	1	generate	Run4	generate/STIM_012.jpg
2862.263	1.118	1	generate	Run4	generate/STIM_012.jpg
2867.329	1.768	1	generate	Run4	generate/STIM_013.jpg
2872.915	1.131	1	generate	Run4	generate/STIM_013.jpg
2877.796	1.036	1	generate	Run4	generate/STIM_013.jpg
2881.243	1.636	1	generate	Run4	generate/STIM_013.jpg
2886.279	1.761	1	generate	Run4	generate/STIM_013.jpg
2891.159	1.985	1	generate	Run4	generate/STIM_014.jpg
2897.059	1.997	1	generate	Run4	generate/STIM_014.jpg
2902.548	1.004	1	generate	Run4	generate/STIM_014.jpg
2907.335	0.877	1	generate	Run4	generate/STIM_014.jpg
2911.757	1.303	1	generate	Run4	generate/STIM_014.jpg
2915.954	1.272	0	generate	Run4	generate/STIM_015.jpg
2919.658	1.613	1	generate	Run4	generate/STIM_015.jpg
2923.669	1.389	1	generate	Run4	generate/STIM_015.jpg
2928.747	1.964	1	generate	Run4	generate/STIM_015.jpg
2933.191	1.125	1	generate	Run4	generate/STIM_015.jpg
2937.159	1.579	1	generate	Run4	generate/STIM_016.jpg
2941.384	1.567	1	generate	Run4	generate/STIM_016.jpg
2945.041	1.659	1	generate	Run4	generate/STIM_016.jpg
2950.567	1.171	1	generate	Run4	generate/STIM_016.jpg
2955.662	0.975	1	generate	Run4	generate/STIM_016.jpg
2959.448	1.49	1	generate	Run4	generate/STIM_017.jpg
2963.264	0.928	1	generate	Run4	generate/STIM_017.jpg
2967.775	0.996	1	generate	Run4	generate/STIM_017.jpg
2972.626	0.867	1	generate	Run4	generate/STIM_017.jpg
2976.177	1.792	1	generate	Run4	generate/STIM_017.jpg
2981.254	1.868	1	generate	Run4	generate/STIM_018.jpg
2986.234	1.865	1	generate	Run4	generate/STIM_018.jpg
2990.279	1.918	1	generate	Run4	generate/STIM_018.jpg
2995.305	1.16	1	generate	Run4	generate/STIM_018.jpg
3000.288	1.971	1	generate	Run4	generate/STIM_018.jpg
3005.398	1.387	1	generate	Run4	generate/STIM_019.jpg
3009.403	1.262	1	generate	Run4	generate/STIM_019.jpg
3013.495	1.986	1	generate	Run4	generate/STIM_019.jpg
3019.04	1.31	1	generate	Run4	generate/STIM_019.jpg
3022.974	1.304	1	generate	Run4	generate/STIM_019.jpg
3026.448	1.571	1	generate	Run4	generate/STIM_020.jpg
3031.632	1.455	1	generate	Run4	generate/STIM_020.jpg
3036.174	1.798	1	generate	Run4	generate/STIM_020.jpg
3041.139	0.981	1	generate	Run4	generate/STIM_020.jpg
3044.466	1.58	1	generate	Run4	generate/STIM_020.jpg
3048.224	1.022	1	generate	Run4	generate/STIM_021.jpg
3052.241	1.745	1	generate	Run4	generate/STIM_021.jpg
3056.727	1.684	1	generate	Run4	generate/STIM_021.jpg
3060.869	1.534	1	generate	Run4	generate/STIM_021.jpg
3066.171	1.502	1	generate	Run4	generate/STIM_021.jpg
3070.378	0.884	1	generate	Run4	generate/STIM_022.jpg
3074.022	1.323	1	generate	Run4	generate/STIM_022.jpg
3078.401	1.608	0	generate	Run4	generate/STIM_022.jpg
3082.745	1.27	1	generate	Run4	generate/STIM_022.jpg
3087.511	1.572	1	generate	Run4	generate/STIM_022.jpg
3091.856	1.361	1	generate	Run4	generate/STIM_023.jpg
3096.471	1.501	1	generate	Run4	generate/STIM_023.jpg
3101.196	1.884	1	generate	Run4	generate/STIM_023.jpg
3106.274	0.877	1	generate	Run4	generate/STIM_023.jpg
3109.553	1.531	1	generate	Run4	generate/STIM_023.jpg
3114.074	0.837	1	generate	Run4	generate/STIM_024.jpg
3118.419	0.987	1	generate	Run4	generate/STIM_024.jpg
3122.49	1.017	1	generate	Run4	generate/STIM_024.jpg
3127.069	1.212	0	generate	Run4	generate/STIM_024.jpg
3131.27	1.667	1	generate	Run4	generate/STIM_024.jpg
3136.964	0.747	1	repeat	Run4	repeat/STIM_000.jpg
3141.565	0.825	1	repeat	Run4	repeat/STIM_000.jpg
3145.485	0.552	1	repeat	Run4	repeat/STIM_000.jpg
3148.561	0.865	1	repeat	Run4	repeat/STIM_000.jpg
3152.99	0.815	1	repeat	Run4	repeat/STIM_000.jpg
3157.194	0.517	1	repeat	Run4	repeat/STIM_001.jpg
3160.887	0.825	1	repeat	Run4	repeat/STIM_001.jpg
3164.106	0.722	1	repeat	Run4	repeat/STIM_001.jpg
3168.333	0.737	1	repeat	Run4	repeat/STIM_001.jpg
3171.287	0.925	1	repeat	Run4	repeat/STIM_001.jpg
3174.882	0.932	1	repeat	Run4	repeat/STIM_002.jpg
3178.109	0.944	1	repeat	Run4	repeat/STIM_002.jpg
3183.027	0.638	1	repeat	Run4	repeat/STIM_002.jpg
3186.555	0.493	1	repeat	Run4	repeat/STIM_002.jpg
3189.646	0.942	1	repeat	Run4	repeat/STIM_002.jpg
3194.34	0.656	1	repeat	Run4	repeat/STIM_003.jpg
3197.313	0.76	0	repeat	Run4	repeat/STIM_003.jpg
3201.598	0.627	1	repeat	Run4	repeat/STIM_003.jpg
3205.867	0.916	1	repeat	Run4	repeat/STIM_003.jpg
3210.629	0.793	1	repeat	Run4	repeat/STIM_003.jpg
3214.203	0.709	1	repeat	Run4	repeat/STIM_004.jpg
3217.499	0.883	1	repeat	Run4	repeat/STIM_004.jpg
3221.216	0.578	1	repeat	Run4	repeat/STIM_004.jpg
3225.241	0.803	1	repeat	Run4	repeat/STIM_004.jpg
3228.3	0.552	1	repeat	Run4	repeat/STIM_004.jpg
3232.237	0.912	1	repeat	Run4	repeat/STIM_005.jpg
3235.945	0.49	1	repeat	Run4	repeat/STIM_005.jpg
3238.789	0.577	1	repeat	Run4	repeat/STIM_005.jpg
3241.683	0.62	1	repeat	Run4	repeat/STIM_005.jpg
3245.202	0.713	1	repeat	Run4	repeat/STIM_005.jpg
3248.267	0.683	1	repeat	Run4	repeat/STIM_006.jpg
3251.12	0.515	1	repeat	Run4	repeat/STIM_006.jpg
3253.712	0.661	1	repeat	Run4	repeat/STIM_006.jpg
3258.028	0.532	1	repeat	Run4	repeat/STIM_006.jpg
3262.462	0.921	1	repeat	Run4	repeat/STIM_006.jpg
3265.685	0.628	1	repeat	Run4	repeat/STIM_007.jpg
3268.582	0.731	1	repeat	Run4	repeat/STIM_007.jpg
3272.007	0.924	0	repeat	Run4	repeat/STIM_007.jpg
3275.541	0.798	1	repeat	Run4	repeat/STIM_007.jpg
3280.081	0.709	1	repeat	Run4	repeat/STIM_007.jpg
3284.766	0.899	1	repeat	Run4	repeat/STIM_008.jpg
3288.323	0.622	1	repeat	Run4	repeat/STIM_008.jpg
3291.747	0.82	1	repeat	Run4	repeat/STIM_008.jpg
3295.084	0.919	1	repeat	Run4	repeat/STIM_008.jpg
3300.01	0.75	1	repeat	Run4	repeat/STIM_008.jpg
3303.752	0.595	1	repeat	Run4	repeat/STIM_009.jpg
3306.824	0.687	1	repeat	Run4	repeat/STIM_009.jpg
3309.85	0.775	1	repeat	Run4	repeat/STIM_009.jpg
3314.344	0.798	1	repeat	Run4	repeat/STIM_009.jpg
3317.636	0.807	1	repeat	Run4	repeat/STIM_009.jpg
3322.271	0.886	1	repeat	Run4	repeat/STIM_010.jpg
3326.356	0.839	1	repeat	Run4	repeat/STIM_010.jpg
3329.663	0.652	1	repeat	Run4	repeat/STIM_010.jpg
3333.061	0.763	1	repeat	Run4	repeat/STIM_010.jpg
3336.795	0.55	1	repeat	Run4	repeat/STIM_010.jpg
3339.391	0.596	1	repeat	Run4	repeat/STIM_011.jpg
3343.406	0.592	1	repeat	Run4	repeat/STIM_011.jpg
3346.409	0.836	1	repeat	Run4	repeat/STIM_011.jpg
3349.951	0.486	1	repeat	Run4	repeat/STIM_011.jpg
3353.779	0.858	1	repeat	Run4	repeat/STIM_011.jpg
3358.523	0.892	1	repeat	Run4	repeat/STIM_012.jpg
3361.887	0.621	1	repeat	Run4	repeat/STIM_012.jpg
3365.553	0.625	1	repeat	Run4	repeat/STIM_012.jpg
3368.457	0.577	1	repeat	Run4	repeat/STIM_012.jpg
3372.67	0.858	1	repeat	Run4	repeat/STIM_012.jpg
3376.992	0.571	1	repeat	Run4	repeat/STIM_013.jpg
3381.283	0.705	1	repeat	Run4	repeat/STIM_013.jpg
3384.802	0.673	1	repeat	Run4	repeat/STIM_013.jpg
3388.317	0.505	1	repeat	Run4	repeat/STIM_013.jpg
3391.474	0.642	1	repeat	Run4	repeat/STIM_013.jpg
3395.277	0.545	1	repeat	Run4	repeat/STIM_014.jpg
3399.4	0.546	1	repeat	Run4	repeat/STIM_014.jpg
3402.758	0.681	1	repeat	Run4	repeat/STIM_014.jpg
3406.581	0.918	1	repeat	Run4	repeat/STIM_014.jpg
3410.069	0.908	1	repeat	Run4	repeat/STIM_014.jpg
