onset	duration	response_time_ms	trial_type	learning_stage	stimulus	response_port
0.0	1.547	1546.6	generate	Run1	generate/STIM_000.jpg	99
4.02	1.585	1584.6	generate	Run1	generate/STIM_000.jpg	100
8.173	1.62	1620.1	generate	Run1	generate/STIM_000.jpg	100
12.608	2.076	2076.3	generate	Run1	generate/STIM_000.jpg	99
18.084	1.366	1365.9	generate	Run1	generate/STIM_000.jpg	100
23.406	2.182	2182.1	generate	Run1	generate/STIM_001.jpg	100
28.767	2.496	2496.5	generate	Run1	generate/STIM_001.jpg	99
34.097	1.441	1441.2	generate	Run1	generate/STIM_001.jpg	99
37.665	1.058	1057.6	generate	Run1	generate/STIM_001.jpg	100
42.131	1.547	1547.3	generate	Run1	generate/STIM_001.jpg	100
47.04	1.426	1425.8	generate	Run1	generate/STIM_002.jpg	99
50.999	2.032	2032.1	generate	Run1	generate/STIM_002.jpg	99
55.298	1.315	1314.6	generate	Run1	generate/STIM_002.jpg	100
59.392	1.578	1578.3	generate	Run1	generate/STIM_002.jpg	99
64.458	0.937	937.3	generate	Run1	generate/STIM_002.jpg	100
68.365	1.64	1640.5	generate	Run1	generate/STIM_003.jpg	99
72.419	2.281	2280.8	generate	Run1	generate/STIM_003.jpg	100
77.588	1.608	1608.1	generate	Run1	generate/STIM_003.jpg	100
82.099	1.884	1883.6	generate	Run1	generate/STIM_003.jpg	100
86.169	1.141	1140.7	generate	Run1	generate/STIM_003.jpg	100
89.914	1.939	1939.4	generate	Run1	generate/STIM_004.jpg	99
95.296	1.135	1135.1	generate	Run1	generate/STIM_004.jpg	100
100.416	1.348	1347.5	generate	Run1	generate/STIM_004.jpg	100
103.893	1.385	1385.0	generate	Run1	generate/STIM_004.jpg	100
108.065	1.582	1582.4	generate	Run1	generate/STIM_004.jpg	100
112.0	2.086	2085.8	generate	Run1	generate/STIM_005.jpg	99
117.288	1.094	1093.9	generate	Run1	generate/STIM_005.jpg	99
122.334	1.634	1633.9	generate	Run1	generate/STIM_005.jpg	99
126.817	1.86	1859.5	generate	Run1	generate/STIM_005.jpg	99
131.96	2.038	2037.9	generate	Run1	generate/STIM_005.jpg	100
137.728	2.428	2428.4	generate	Run1	generate/STIM_006.jpg	100
142.465	2.209	2209.4	generate	Run1	generate/STIM_006.jpg	99
148.475	1.224	1224.3	generate	Run1	generate/STIM_006.jpg	100
153.082	1.536	1535.6	generate	Run1	generate/STIM_006.jpg	99
157.636	1.44	1440.5	generate	Run1	generate/STIM_006.jpg	100
162.191	2.137	2137.4	generate	Run1	generate/STIM_007.jpg	99
167.329	1.81	1810.5	generate	Run1	generate/STIM_007.jpg	100
171.31	0.969	968.6	generate	Run1	generate/STIM_007.jpg	100
174.484	1.412	1411.7	generate	Run1	generate/STIM_007.jpg	99
178.436	1.479	1478.7	generate	Run1	generate/STIM_007.jpg	100
182.083	1.074	1074.1	generate	Run1	generate/STIM_008.jpg	100
187.156	1.864	1864.2	generate	Run1	generate/STIM_008.jpg	99
191.358	1.421	1421.2	generate	Run1	generate/STIM_008.jpg	99
195.287	2.002	2001.9	generate	Run1	generate/STIM_008.jpg	100
200.843	1.343	1343.3	generate	Run1	generate/STIM_008.jpg	100
205.535	2.23	2230.2	generate	Run1	generate/STIM_009.jpg	100
210.932	1.032	1031.6	generate	Run1	generate/STIM_009.jpg	100
214.282	1.829	1829.1	generate	Run1	generate/STIM_009.jpg	100
219.98	1.081	1080.6	generate	Run1	generate/STIM_009.jpg	100
223.537	0.92	919.8	generate	Run1	generate/STIM_009.jpg	99
228.333	1.778	1778.4	generate	Run1	generate/STIM_010.jpg	100
233.819	2.106	2105.9	generate	Run1	generate/STIM_010.jpg	99
239.234	1.823	1823.2	generate	Run1	generate/STIM_010.jpg	99
244.466	2.221	2221.0	generate	Run1	generate/STIM_010.jpg	99
250.415	1.54	1540.4	generate	Run1	generate/STIM_010.jpg	100
255.36	2.179	2178.6	generate	Run1	generate/STIM_011.jpg	99
259.586	1.515	1514.6	generate	Run1	generate/STIM_011.jpg	100
263.576	1.703	1703.1	generate	Run1	generate/STIM_011.jpg	100
269.066	2.271	2270.8	generate	Run1	generate/STIM_011.jpg	99
274.273	1.512	1512.1	generate	Run1	generate/STIM_011.jpg	99
279.748	2.412	2411.6	generate	Run1	generate/STIM_012.jpg	99
285.939	2.034	2033.6	generate	Run1	generate/STIM_012.jpg	99
290.13	1.26	1259.7	generate	Run1	generate/STIM_012.jpg	99
293.903	1.626	1626.5	generate	Run1	generate/STIM_012.jpg	100
298.297	1.915	1915.1	generate	Run1	generate/STIM_012.jpg	100
303.769	1.32	1319.8	generate	Run1	generate/STIM_013.jpg	100
308.143	1.288	1287.8	generate	Run1	generate/STIM_013.jpg	99
312.992	1.931	1930.7	generate	Run1	generate/STIM_013.jpg	99
317.904	2.181	2181.2	generate	Run1	generate/STIM_013.jpg	99
322.795	1.741	1741.2	generate	Run1	generate/STIM_013.jpg	99
327.419	1.721	1720.7	generate	Run1	generate/STIM_014.jpg	100
331.811	2.21	2209.5	generate	Run1	generate/STIM_014.jpg	99
337.517	1.927	1927.4	generate	Run1	generate/STIM_014.jpg	99
342.286	2.07	2069.8	generate	Run1	generate/STIM_014.jpg	99
347.615	1.676	1675.8	generate	Run1	generate/STIM_014.jpg	99
353.239	2.376	2376.4	generate	Run1	generate/STIM_015.jpg	100
359.461	1.109	1108.9	generate	Run1	generate/STIM_015.jpg	99
363.309	1.109	1108.7	generate	Run1	generate/STIM_015.jpg	100
366.788	1.068	1067.6	generate	Run1	generate/STIM_015.jpg	99
370.335	1.244	1243.9	generate	Run1	generate/STIM_015.jpg	100
375.399	1.143	1142.9	generate	Run1	generate/STIM_016.jpg	100
378.893	1.662	1661.6	generate	Run1	generate/STIM_016.jpg	100
384.231	2.34	2339.5	generate	Run1	generate/STIM_016.jpg	100
389.474	2.173	2173.0	generate	Run1	generate/STIM_016.jpg	99
394.335	0.972	971.5	generate	Run1	generate/STIM_016.jpg	99
398.578	1.402	1402.2	generate	Run1	generate/STIM_017.jpg	100
402.647	2.405	2404.8	generate	Run1	generate/STIM_017.jpg	100
408.825	1.973	1973.0	generate	Run1	generate/STIM_017.jpg	100
414.514	2.015	2014.6	generate	Run1	generate/STIM_017.jpg	100
419.998	1.388	1388.2	generate	Run1	generate/STIM_017.jpg	100
424.146	1.453	1452.9	generate	Run1	generate/STIM_018.jpg	99
428.99	1.431	1431.2	generate	Run1	generate/STIM_018.jpg	100
434.353	1.426	1425.7	generate	Run1	generate/STIM_018.jpg	99
438.983	1.808	1807.5	generate	Run1	generate/STIM_018.jpg	100
444.536	1.95	1949.8	generate	Run1	generate/STIM_018.jpg	100
448.776	2.384	2384.5	generate	Run1	generate/STIM_019.jpg	100
454.946	2.339	2339.3	generate	Run1	generate/STIM_019.jpg	100
460.182	1.81	1810.3	generate	Run1	generate/STIM_019.jpg	100
465.816	2.276	2275.6	generate	Run1	generate/STIM_019.jpg	99
470.398	1.555	1554.8	generate	Run1	generate/STIM_019.jpg	100
475.848	1.282	1282.3	generate	Run1	generate/STIM_020.jpg	100
479.812	1.303	1302.6	generate	Run1	generate/STIM_020.jpg	99
484.319	2.106	2106.0	generate	Run1	generate/STIM_020.jpg	100
488.509	1.193	1193.0	generate	Run1	generate/STIM_020.jpg	100
492.891	1.918	1917.5	generate	Run1	generate/STIM_020.jpg	100
498.06	1.895	1895.0	generate	Run1	generate/STIM_021.jpg	100
502.84	1.308	1308.4	generate	Run1	generate/STIM_021.jpg	100
506.866	1.66	1660.1	generate	Run1	generate/STIM_021.jpg	99
510.707	1.483	1483.3	generate	Run1	generate/STIM_021.jpg	99
515.211	1.53	1530.1	generate	Run1	generate/STIM_021.jpg	100
519.137	1.329	1329.3	generate	Run1	generate/STIM_022.jpg	99
522.704	1.102	1101.5	generate	Run1	generate/STIM_022.jpg	99
527.804	1.797	1796.8	generate	Run1	generate/STIM_022.jpg	100
533.174	1.109	1109.1	generate	Run1	generate/STIM_022.jpg	100
537.671	2.107	2106.6	generate	Run1	generate/STIM_022.jpg	100
542.351	2.576	2575.9	generate	Run1	generate/STIM_023.jpg	100
548.507	1.978	1977.9	generate	Run1	generate/STIM_023.jpg	100
553.824	1.116	1115.5	generate	Run1	generate/STIM_023.jpg	100
558.911	1.501	1501.2	generate	Run1	generate/STIM_023.jpg	100
562.469	0.995	994.6	generate	Run1	generate/STIM_023.jpg	100
567.064	2.164	2164.4	generate	Run1	generate/STIM_024.jpg	99
573.013	1.514	1513.6	generate	Run1	generate/STIM_024.jpg	99
577.866	1.026	1026.5	generate	Run1	generate/STIM_024.jpg	100
581.193	2.033	2033.1	generate	Run1	generate/STIM_024.jpg	99
585.594	1.278	1278.2	generate	Run1	generate/STIM_024.jpg	100
590.667	0.808	807.5	repeat	Run1	repeat/STIM_000.jpg	100
595.378	0.858	858.5	repeat	Run1	repeat/STIM_000.jpg	99
598.268	0.678	678.2	repeat	Run1	repeat/STIM_000.jpg	99
602.218	0.523	523.4	repeat	Run1	repeat/STIM_000.jpg	99
606.256	0.673	673.1	repeat	Run1	repeat/STIM_000.jpg	99
609.488	0.616	616.5	repeat	Run1	repeat/STIM_001.jpg	99
612.157	0.714	713.7	repeat	Run1	repeat/STIM_001.jpg	100
616.161	0.687	686.9	repeat	Run1	repeat/STIM_001.jpg	100
620.018	0.655	654.7	repeat	Run1	repeat/STIM_001.jpg	100
622.932	0.728	727.5	repeat	Run1	repeat/STIM_001.jpg	100
627.166	0.854	853.8	repeat	Run1	repeat/STIM_002.jpg	100
631.066	0.734	733.7	repeat	Run1	repeat/STIM_002.jpg	99
634.92	0.55	549.7	repeat	Run1	repeat/STIM_002.jpg	100
639.226	0.602	602.0	repeat	Run1	repeat/STIM_002.jpg	99
643.295	0.808	808.4	repeat	Run1	repeat/STIM_002.jpg	99
646.458	0.754	753.6	repeat	Run1	repeat/STIM_003.jpg	99
650.286	0.523	523.4	repeat	Run1	repeat/STIM_003.jpg	100
654.198	0.581	580.9	repeat	Run1	repeat/STIM_003.jpg	99
657.171	0.843	843.1	repeat	Run1	repeat/STIM_003.jpg	99
661.96	0.837	837.2	repeat	Run1	repeat/STIM_003.jpg	99
666.723	0.499	498.6	repeat	Run1	repeat/STIM_004.jpg	99
670.216	0.724	724.2	repeat	Run1	repeat/STIM_004.jpg	100
673.545	0.726	725.5	repeat	Run1	repeat/STIM_004.jpg	100
676.993	0.506	505.7	repeat	Run1	repeat/STIM_004.jpg	100
681.248	0.641	641.1	repeat	Run1	repeat/STIM_004.jpg	100
683.914	0.706	705.7	repeat	Run1	repeat/STIM_005.jpg	99
687.926	0.477	476.7	repeat	Run1	repeat/STIM_005.jpg	100
691.771	0.778	778.5	repeat	Run1	repeat/STIM_005.jpg	99
696.032	0.757	756.9	repeat	Run1	repeat/STIM_005.jpg	99
700.763	0.662	661.5	repeat	Run1	repeat/STIM_005.jpg	100
704.907	0.696	696.2	repeat	Run1	repeat/STIM_006.jpg	100
708.933	0.578	578.5	repeat	Run1	repeat/STIM_006.jpg	100
711.867	0.779	778.8	repeat	Run1	repeat/STIM_006.jpg	100
716.495	0.73	729.7	repeat	Run1	repeat/STIM_006.jpg	99
720.378	0.568	567.8	repeat	Run1	repeat/STIM_006.jpg	99
724.73	0.49	489.9	repeat	Run1	repeat/STIM_007.jpg	100
727.548	0.554	554.0	repeat	Run1	repeat/STIM_007.jpg	100
731.054	0.6	599.8	repeat	Run1	repeat/STIM_007.jpg	100
735.616	0.45	450.4	repeat	Run1	repeat/STIM_007.jpg	100
739.577	0.889	888.6	repeat	Run1	repeat/STIM_007.jpg	100
743.407	0.486	485.5	repeat	Run1	repeat/STIM_008.jpg	99
747.266	0.828	827.8	repeat	Run1	repeat/STIM_008.jpg	99
752.026	0.649	648.6	repeat	Run1	repeat/STIM_008.jpg	100
755.825	0.509	508.6	repeat	Run1	repeat/STIM_008.jpg	99
760.09	0.621	621.4	repeat	Run1	repeat/STIM_008.jpg	100
763.862	0.512	512.0	repeat	Run1	repeat/STIM_009.jpg	99
767.362	0.52	520.2	repeat	Run1	repeat/STIM_009.jpg	100
771.8	0.742	742.3	repeat	Run1	repeat/STIM_009.jpg	100
776.082	0.542	541.9	repeat	Run1	repeat/STIM_009.jpg	100
779.018	0.58	579.5	repeat	Run1	repeat/STIM_009.jpg	99
781.761	0.586	586.4	repeat	Run1	repeat/STIM_010.jpg	100
785.781	0.734	733.8	repeat	Run1	repeat/STIM_010.jpg	100
790.223	0.512	512.5	repeat	Run1	repeat/STIM_010.jpg	100
792.905	0.84	839.9	repeat	Run1	repeat/STIM_010.jpg	100
796.217	0.704	704.4	repeat	Run1	repeat/STIM_010.jpg	100
798.973	0.814	813.9	repeat	Run1	repeat/STIM_011.jpg	99
803.201	0.893	892.6	repeat	Run1	repeat/STIM_011.jpg	99
807.549	0.553	553.1	repeat	Run1	repeat/STIM_011.jpg	100
812.067	0.665	664.8	repeat	Run1	repeat/STIM_011.jpg	99
816.442	0.71	710.2	repeat	Run1	repeat/STIM_011.jpg	99
820.636	0.642	642.1	repeat	Run1	repeat/STIM_012.jpg	100
824.343	0.638	638.1	repeat	Run1	repeat/STIM_012.jpg	99
826.984	0.85	850.1	repeat	Run1	repeat/STIM_012.jpg	100
830.433	0.551	550.6	repeat	Run1	repeat/STIM_012.jpg	99
834.553	0.624	623.6	repeat	Run1	repeat/STIM_012.jpg	99
839.088	0.784	784.1	repeat	Run1	repeat/STIM_013.jpg	99
842.406	0.462	461.5	repeat	Run1	repeat/STIM_013.jpg	100
845.849	0.677	676.8	repeat	Run1	repeat/STIM_013.jpg	99
848.937	0.875	874.8	repeat	Run1	repeat/STIM_013.jpg	99
852.222	0.507	506.6	repeat	Run1	repeat/STIM_013.jpg	100
855.431	0.564	564.5	repeat	Run1	repeat/STIM_014.jpg	100
858.57	0.492	492.3	repeat	Run1	repeat/STIM_014.jpg	99
861.724	0.648	647.8	repeat	Run1	repeat/STIM_014.jpg	100
865.257	0.761	761.2	repeat	Run1	repeat/STIM_014.jpg	100
868.419	0.652	652.5	repeat	Run1	repeat/STIM_014.jpg	100
872.635	1.748	1748.5	generate	Run2	generate/STIM_000.jpg	99
877.335	2.08	2080.4	generate	Run2	generate/STIM_000.jpg	99
881.762	2.001	2000.8	generate	Run2	generate/STIM_000.jpg	99
887.014	1.331	1331.3	generate	Run2	generate/STIM_000.jpg	99
891.685	1.293	1293.3	generate	Run2	generate/STIM_000.jpg	99
896.181	1.375	1375.2	generate	Run2	generate/STIM_001.jpg	99
901.517	1.802	1801.6	generate	Run2	generate/STIM_001.jpg	99
906.607	1.432	1432.2	generate	Run2	generate/STIM_001.jpg	100
910.621	0.793	792.6	generate	Run2	generate/STIM_001.jpg	100
914.611	1.072	1072.4	generate	Run2	generate/STIM_001.jpg	100
917.942	1.056	1055.5	generate	Run2	generate/STIM_002.jpg	99
921.236	2.146	2145.6	generate	Run2	generate/STIM_002.jpg	99
926.006	0.836	835.5	generate	Run2	generate/STIM_002.jpg	100
929.501	0.789	788.8	generate	Run2	generate/STIM_002.jpg	100
932.976	1.818	1818.1	generate	Run2	generate/STIM_002.jpg	100
937.463	1.85	1849.9	generate	Run2	generate/STIM_003.jpg	99
941.728	0.958	957.8	generate	Run2	generate/STIM_003.jpg	99
945.777	1.65	1649.7	generate	Run2	generate/STIM_003.jpg	100
950.363	0.854	853.9	generate	Run2	generate/STIM_003.jpg	100
954.734	1.553	1553.3	generate	Run2	generate/STIM_003.jpg	100
959.139	1.222	1222.2	generate	Run2	generate/STIM_004.jpg	100
962.457	1.673	1673.1	generate	Run2	generate/STIM_004.jpg	99
966.647	1.001	1000.9	generate	Run2	generate/STIM_004.jpg	100
970.559	1.378	1378.1	generate	Run2	generate/STIM_004.jpg	100
975.514	1.544	1544.0	generate	Run2	generate/STIM_004.jpg	99
979.595	2.184	2183.8	generate	Run2	generate/STIM_005.jpg	99
984.905	1.747	1747.0	generate	Run2	generate/STIM_005.jpg	100
989.924	1.285	1284.7	generate	Run2	generate/STIM_005.jpg	100
995.064	1.676	1675.6	generate	Run2	generate/STIM_005.jpg	100
1000.356	1.457	1456.9	generate	Run2	generate/STIM_005.jpg	100
1005.197	1.902	1902.3	generate	Run2	generate/STIM_006.jpg	100
1011.072	1.126	1126.2	generate	Run2	generate/STIM_006.jpg	99
1014.57	1.388	1387.9	generate	Run2	generate/STIM_006.jpg	99
1018.246	1.49	1490.3	generate	Run2	generate/STIM_006.jpg	100
1022.93	0.799	799.0	generate	Run2	generate/STIM_006.jpg	100
1026.959	1.668	1668.4	generate	Run2	generate/STIM_007.jpg	100
1032.174	1.376	1375.7	generate	Run2	generate/STIM_007.jpg	99
1036.244	1.828	1828.5	generate	Run2	generate/STIM_007.jpg	100
1040.336	1.413	1412.7	generate	Run2	generate/STIM_007.jpg	99
1043.805	1.708	1708.5	generate	Run2	generate/STIM_007.jpg	99
1048.051	0.944	944.3	generate	Run2	generate/STIM_008.jpg	100
1052.694	1.194	1193.7	generate	Run2	generate/STIM_008.jpg	100
1056.474	1.068	1068.1	generate	Run2	generate/STIM_008.jpg	100
1060.139	0.824	824.0	generate	Run2	generate/STIM_008.jpg	100
1064.368	1.438	1437.8	generate	Run2	generate/STIM_008.jpg	99
1067.876	1.11	1110.0	generate	Run2	generate/STIM_009.jpg	99
1072.529	1.496	1496.2	generate	Run2	generate/STIM_009.jpg	99
1077.345	1.467	1467.4	generate	Run2	generate/STIM_009.jpg	100
1082.102	1.571	1571.4	generate	Run2	generate/STIM_009.jpg	100
1087.537	1.174	1173.7	generate	Run2	generate/STIM_009.jpg	100
1090.838	1.172	1172.3	generate	Run2	generate/STIM_010.jpg	100
1094.977	0.967	967.3	generate	Run2	generate/STIM_010.jpg	99
1099.924	0.924	924.3	generate	Run2	generate/STIM_010.jpg	99
1104.468	0.764	763.8	generate	Run2	generate/STIM_010.jpg	99
1108.795	1.056	1055.9	generate	Run2	generate/STIM_010.jpg	100
1112.844	0.951	950.7	generate	Run2	generate/STIM_011.jpg	99
1116.589	1.001	1001.0	generate	Run2	generate/STIM_011.jpg	100
1120.719	1.068	1067.8	generate	Run2	generate/STIM_011.jpg	100
1125.559	1.876	1876.1	generate	Run2	generate/STIM_011.jpg	100
1129.889	1.214	1214.3	generate	Run2	generate/STIM_011.jpg	99
1133.28	2.261	2261.1	generate	Run2	generate/STIM_012.jpg	100
1138.412	1.743	1743.0	generate	Run2	generate/STIM_012.jpg	100
1144.033	1.448	1448.1	generate	Run2	generate/STIM_012.jpg	99
1149.473	1.794	1794.3	generate	Run2	generate/STIM_012.jpg	100
1155.04	1.243	1243.1	generate	Run2	generate/STIM_012.jpg	99
1159.308	0.992	992.4	generate	Run2	generate/STIM_013.jpg	99
1162.712	1.805	1805.1	generate	Run2	generate/STIM_013.jpg	100
1166.565	0.88	879.9	generate	Run2	generate/STIM_013.jpg	100
1170.407	0.982	981.6	generate	Run2	generate/STIM_013.jpg	100
1175.356	1.646	1645.9	generate	Run2	generate/STIM_013.jpg	99
1180.228	2.088	2088.5	generate	Run2	generate/STIM_014.jpg	99
1185.867	1.314	1314.4	generate	Run2	generate/STIM_014.jpg	100
1190.13	1.071	1070.7	generate	Run2	generate/STIM_014.jpg	100
1193.755	1.037	1036.8	generate	Run2	generate/STIM_014.jpg	99
1197.416	1.309	1309.3	generate	Run2	generate/STIM_014.jpg	100
1202.642	2.258	2257.7	generate	Run2	generate/STIM_015.jpg	99
1206.978	1.289	1289.0	generate	Run2	generate/STIM_015.jpg	99
1211.883	1.732	1732.1	generate	Run2	generate/STIM_015.jpg	100
1215.648	1.551	1550.8	generate	Run2	generate/STIM_015.jpg	100
1220.964	1.838	1837.5	generate	Run2	generate/STIM_015.jpg	99
1225.355	1.623	1622.6	generate	Run2	generate/STIM_016.jpg	100
1230.129	1.702	1701.8	generate	Run2	generate/STIM_016.jpg	100
1233.889	1.274	1274.5	generate	Run2	generate/STIM_016.jpg	100
1238.322	0.951	950.9	generate	Run2	generate/STIM_016.jpg	100
1242.701	0.842	841.8	generate	Run2	generate/STIM_016.jpg	99
1246.279	2.136	2136.2	generate	Run2	generate/STIM_017.jpg	100
1250.686	1.8	1800.5	generate	Run2	generate/STIM_017.jpg	99
1256.042	1.56	1560.4	generate	Run2	generate/STIM_017.jpg	100
1260.318	0.79	790.5	generate	Run2	generate/STIM_017.jpg	99
1265.0	1.059	1058.8	generate	Run2	generate/STIM_017.jpg	100
1268.737	1.038	1037.6	generate	Run2	generate/STIM_018.jpg	100
1271.802	1.04	1039.8	generate	Run2	generate/STIM_018.jpg	100
1275.888	1.805	1805.0	generate	Run2	generate/STIM_018.jpg	100
1280.57	1.791	1791.2	generate	Run2	generate/STIM_018.jpg	99
1284.642	1.715	1715.0	generate	Run2	generate/STIM_018.jpg	100
1290.34	1.212	1211.8	generate	Run2	generate/STIM_019.jpg	99
1294.213	1.619	1618.8	generate	Run2	generate/STIM_019.jpg	99
1298.206	1.357	1357.4	generate	Run2	generate/STIM_019.jpg	99
1301.77	1.131	1130.7	generate	Run2	generate/STIM_019.jpg	100
1305.551	0.975	975.4	generate	Run2	generate/STIM_019.jpg	100
1308.541	1.155	1154.8	generate	Run2	generate/STIM_020.jpg	99
1313.354	1.571	1570.8	generate	Run2	generate/STIM_020.jpg	99
1318.755	1.303	1303.1	generate	Run2	generate/STIM_020.jpg	100
1322.79	0.982	981.7	generate	Run2	generate/STIM_020.jpg	100
1327.345	1.534	1533.5	generate	Run2	generate/STIM_020.jpg	100
1331.296	1.064	1064.0	generate	Run2	generate/STIM_021.jpg	99
1336.206	2.127	2126.8	generate	Run2	generate/STIM_021.jpg	99
1341.077	1.531	1530.8	generate	Run2	generate/STIM_021.jpg	100
1345.723	1.53	1529.9	generate	Run2	generate/STIM_021.jpg	99
1350.002	1.278	1278.2	generate	Run2	generate/STIM_021.jpg	100
1354.077	2.224	2224.1	generate	Run2	generate/STIM_022.jpg	100
1358.734	1.088	1087.5	generate	Run2	generate/STIM_022.jpg	99
1363.492	1.358	1358.1	generate	Run2	generate/STIM_022.jpg	100
1367.35	0.852	852.3	generate	Run2	generate/STIM_022.jpg	99
1371.548	1.049	1048.6	generate	Run2	generate/STIM_022.jpg	99
1375.407	2.164	2163.6	generate	Run2	generate/STIM_023.jpg	99
1379.751	1.213	1212.8	generate	Run2	generate/STIM_023.jpg	99
1383.62	1.787	1786.8	generate	Run2	generate/STIM_023.jpg	99
1388.859	0.91	909.7	generate	Run2	generate/STIM_023.jpg	100
1392.885	1.006	1005.5	generate	Run2	generate/STIM_023.jpg	100
1397.524	1.802	1801.8	generate	Run2	generate/STIM_024.jpg	99
1402.184	0.931	930.7	generate	Run2	generate/STIM_024.jpg	100
1405.649	1.798	1798.5	generate	Run2	generate/STIM_024.jpg	100
1410.559	0.859	859.3	generate	Run2	generate/STIM_024.jpg	99
1413.972	1.779	1778.9	generate	Run2	generate/STIM_024.jpg	100
1419.284	0.647	646.9	repeat	Run2	repeat/STIM_000.jpg	100
1422.152	0.798	797.7	repeat	Run2	repeat/STIM_000.jpg	100
1425.798	0.514	513.5	repeat	Run2	repeat/STIM_000.jpg	100
1429.272	0.539	539.3	repeat	Run2	repeat/STIM_000.jpg	99
1432.803	0.787	787.2	repeat	Run2	repeat/STIM_000.jpg	100
1436.336	0.817	816.6	repeat	Run2	repeat/STIM_001.jpg	99
1440.236	0.748	748.0	repeat	Run2	repeat/STIM_001.jpg	99
1443.019	0.854	853.6	repeat	Run2	repeat/STIM_001.jpg	100
1447.066	0.547	547.1	repeat	Run2	repeat/STIM_001.jpg	99
1450.759	0.72	719.6	repeat	Run2	repeat/STIM_001.jpg	99
1454.451	0.872	871.6	repeat	Run2	repeat/STIM_002.jpg	99
1458.966	0.496	495.9	repeat	Run2	repeat/STIM_002.jpg	100
1462.996	0.612	612.4	repeat	Run2	repeat/STIM_002.jpg	99
1465.881	0.612	612.0	repeat	Run2	repeat/STIM_002.jpg	100
1468.517	0.844	844.4	repeat	Run2	repeat/STIM_002.jpg	100
1472.874	0.609	609.2	repeat	Run2	repeat/STIM_003.jpg	99
1476.95	0.867	867.4	repeat	Run2	repeat/STIM_003.jpg	100
1480.726	0.691	691.2	repeat	Run2	repeat/STIM_003.jpg	99
1484.12	0.623	622.6	repeat	Run2	repeat/STIM_003.jpg	100
1488.005	0.59	589.5	repeat	Run2	repeat/STIM_003.jpg	100
1491.243	0.588	588.3	repeat	Run2	repeat/STIM_004.jpg	100
1495.471	0.747	746.7	repeat	Run2	repeat/STIM_004.jpg	100
1498.217	0.77	769.9	repeat	Run2	repeat/STIM_004.jpg	99
1502.543	0.568	568.1	repeat	Run2	repeat/STIM_004.jpg	99
1506.216	0.798	798.5	repeat	Run2	repeat/STIM_004.jpg	99
1509.079	0.527	526.8	repeat	Run2	repeat/STIM_005.jpg	100
1511.989	0.836	835.9	repeat	Run2	repeat/STIM_005.jpg	99
1514.888	0.793	792.9	repeat	Run2	repeat/STIM_005.jpg	100
1517.795	0.76	759.8	repeat	Run2	repeat/STIM_005.jpg	99
1521.92	0.853	852.9	repeat	Run2	repeat/STIM_005.jpg	100
1526.471	0.663	663.2	repeat	Run2	repeat/STIM_006.jpg	100
1531.035	0.818	818.5	repeat	Run2	repeat/STIM_006.jpg	100
1535.263	0.456	456.2	repeat	Run2	repeat/STIM_006.jpg	100
1539.647	0.765	765.0	repeat	Run2	repeat/STIM_006.jpg	100
1544.133	0.641	641.3	repeat	Run2	repeat/STIM_006.jpg	100
1547.547	0.465	465.0	repeat	Run2	repeat/STIM_007.jpg	100
1551.187	0.834	834.2	repeat	Run2	repeat/STIM_007.jpg	100
1554.405	0.775	775.1	repeat	Run2	repeat/STIM_007.jpg	100
1558.684	0.805	804.7	repeat	Run2	repeat/STIM_007.jpg	99
1562.002	0.893	892.7	repeat	Run2	repeat/STIM_007.jpg	100
1566.788	0.628	627.9	repeat	Run2	repeat/STIM_008.jpg	99
1569.605	0.739	739.4	repeat	Run2	repeat/STIM_008.jpg	99
1573.268	0.677	676.6	repeat	Run2	repeat/STIM_008.jpg	99
1577.767	0.75	750.1	repeat	Run2	repeat/STIM_008.jpg	100
1581.368	0.539	539.0	repeat	Run2	repeat/STIM_008.jpg	100
1584.807	0.668	667.5	repeat	Run2	repeat/STIM_009.jpg	99
1588.515	0.645	644.6	repeat	Run2	repeat/STIM_009.jpg	99
1591.899	0.693	693.2	repeat	Run2	repeat/STIM_009.jpg	100
1596.493	0.685	685.3	repeat	Run2	repeat/STIM_009.jpg	100
1601.121	0.684	683.6	repeat	Run2	repeat/STIM_009.jpg	99
1604.427	0.818	818.0	repeat	Run2	repeat/STIM_010.jpg	99
1608.295	0.548	548.0	repeat	Run2	repeat/STIM_010.jpg	100
1611.376	0.856	856.4	repeat	Run2	repeat/STIM_010.jpg	99
1615.715	0.574	574.1	repeat	Run2	repeat/STIM_010.jpg	99
1620.16	0.843	843.3	repeat	Run2	repeat/STIM_010.jpg	99
1623.547	0.753	752.7	repeat	Run2	repeat/STIM_011.jpg	100
1628.09	0.582	581.9	repeat	Run2	repeat/STIM_011.jpg	100
1632.129	0.677	677.4	repeat	Run2	repeat/STIM_011.jpg	100
1636.582	0.681	680.8	repeat	Run2	repeat/STIM_011.jpg	99
1640.774	0.513	513.3	repeat	Run2	repeat/STIM_011.jpg	100
1644.554	0.862	861.7	repeat	Run2	repeat/STIM_012.jpg	99
1648.201	0.756	756.4	repeat	Run2	repeat/STIM_012.jpg	100
1652.453	0.884	884.2	repeat	Run2	repeat/STIM_012.jpg	100
1655.473	0.786	786.5	repeat	Run2	repeat/STIM_012.jpg	99
1659.093	0.685	685.4	repeat	Run2	repeat/STIM_012.jpg	100
1663.226	0.693	692.6	repeat	Run2	repeat/STIM_013.jpg	100
1666.773	0.829	828.7	repeat	Run2	repeat/STIM_013.jpg	100
1670.912	0.49	490.4	repeat	Run2	repeat/STIM_013.jpg	100
1674.225	0.481	481.3	repeat	Run2	repeat/STIM_013.jpg	100
1677.159	0.65	650.3	repeat	Run2	repeat/STIM_013.jpg	99
1680.143	0.875	874.9	repeat	Run2	repeat/STIM_014.jpg	99
1683.568	0.796	795.6	repeat	Run2	repeat/STIM_014.jpg	99
1686.611	0.697	697.4	repeat	Run2	repeat/STIM_014.jpg	100
1689.693	0.875	874.7	repeat	Run2	repeat/STIM_014.jpg	100
1694.071	0.721	721.1	repeat	Run2	repeat/STIM_014.jpg	99
1697.91	1.37	1370.3	generate	Run3	generate/STIM_000.jpg	99
1701.394	1.594	1594.0	generate	Run3	generate/STIM_000.jpg	99
1706.249	1.623	1623.1	generate	Run3	generate/STIM_000.jpg	99
1711.24	1.513	1513.0	generate	Run3	generate/STIM_000.jpg	99
1714.978	1.295	1295.2	generate	Run3	generate/STIM_000.jpg	99
1718.643	1.031	1031.2	generate	Run3	generate/STIM_001.jpg	100
1722.804	1.112	1112.3	generate	Run3	generate/STIM_001.jpg	100
1727.78	1.509	1508.6	generate	Run3	generate/STIM_001.jpg	100
1732.386	1.197	1197.3	generate	Run3	generate/STIM_001.jpg	100
1736.807	0.881	881.1	generate	Run3	generate/STIM_001.jpg	99
1741.227	1.559	1558.7	generate	Run3	generate/STIM_002.jpg	99
1745.974	0.811	811.2	generate	Run3	generate/STIM_002.jpg	99
1748.848	1.081	1081.2	generate	Run3	generate/STIM_002.jpg	100
1753.287	1.766	1765.8	generate	Run3	generate/STIM_002.jpg	99
1758.682	1.203	1203.3	generate	Run3	generate/STIM_002.jpg	100
1762.302	1.514	1513.7	generate	Run3	generate/STIM_003.jpg	100
1767.464	1.388	1388.1	generate	Run3	generate/STIM_003.jpg	99
1771.067	1.034	1034.1	generate	Run3	generate/STIM_003.jpg	99
1775.165	1.493	1492.6	generate	Run3	generate/STIM_003.jpg	100
1779.267	1.341	1341.3	generate	Run3	generate/STIM_003.jpg	99
1783.37	1.839	1839.4	generate	Run3	generate/STIM_004.jpg	99
1788.709	1.442	1442.3	generate	Run3	generate/STIM_004.jpg	100
1793.674	1.365	1365.2	generate	Run3	generate/STIM_004.jpg	99
1798.571	0.85	849.9	generate	Run3	generate/STIM_004.jpg	99
1801.513	0.885	884.6	generate	Run3	generate/STIM_004.jpg	99
1805.477	0.771	770.9	generate	Run3	generate/STIM_005.jpg	100
1809.415	0.827	826.8	generate	Run3	generate/STIM_005.jpg	99
1813.11	1.335	1335.2	generate	Run3	generate/STIM_005.jpg	100
1817.84	1.687	1687.0	generate	Run3	generate/STIM_005.jpg	100
1822.242	1.594	1594.0	generate	Run3	generate/STIM_005.jpg	100
1825.973	0.95	949.8	generate	Run3	generate/STIM_006.jpg	100
1828.944	0.959	958.9	generate	Run3	generate/STIM_006.jpg	99
1832.255	0.83	830.3	generate	Run3	generate/STIM_006.jpg	100
1836.239	0.78	779.6	generate	Run3	generate/STIM_006.jpg	100
1839.514	1.046	1045.9	generate	Run3	generate/STIM_006.jpg	100
1844.542	0.911	910.7	generate	Run3	generate/STIM_007.jpg	100
1848.516	1.33	1329.9	generate	Run3	generate/STIM_007.jpg	100
1851.9	0.805	804.7	generate	Run3	generate/STIM_007.jpg	100
1855.793	1.721	1721.2	generate	Run3	generate/STIM_007.jpg	100
1859.606	1.298	1298.2	generate	Run3	generate/STIM_007.jpg	99
1864.608	1.217	1217.0	generate	Run3	generate/STIM_008.jpg	99
1869.801	1.177	1177.3	generate	Run3	generate/STIM_008.jpg	99
1873.223	0.822	822.5	generate	Run3	generate/STIM_008.jpg	99
1877.078	1.529	1529.4	generate	Run3	generate/STIM_008.jpg	99
1880.689	1.603	1603.3	generate	Run3	generate/STIM_008.jpg	100
1885.302	1.225	1225.2	generate	Run3	generate/STIM_009.jpg	100
1889.663	1.539	1538.9	generate	Run3	generate/STIM_009.jpg	100
1894.771	1.125	1125.2	generate	Run3	generate/STIM_009.jpg	100
1898.672	1.23	1229.7	generate	Run3	generate/STIM_009.jpg	99
1903.104	1.714	1714.4	generate	Run3	generate/STIM_009.jpg	99
1907.967	1.2	1200.4	generate	Run3	generate/STIM_010.jpg	100
1911.656	1.013	1013.0	generate	Run3	generate/STIM_010.jpg	99
1915.633	0.82	819.5	generate	Run3	generate/STIM_010.jpg	100
1919.897	1.223	1223.0	generate	Run3	generate/STIM_010.jpg	100
1924.123	1.306	1306.5	generate	Run3	generate/STIM_010.jpg	100
1928.014	1.546	1546.3	generate	Run3	generate/STIM_011.jpg	100
1931.876	1.589	1588.6	generate	Run3	generate/STIM_011.jpg	99
1936.393	1.333	1333.4	generate	Run3	generate/STIM_011.jpg	99
1939.854	1.866	1866.2	generate	Run3	generate/STIM_011.jpg	99
1944.444	1.171	1171.0	generate	Run3	generate/STIM_011.jpg	99
1947.782	0.851	851.2	generate	Run3	generate/STIM_012.jpg	99
1951.552	1.37	1369.6	generate	Run3	generate/STIM_012.jpg	100
1956.096	1.518	1518.0	generate	Run3	generate/STIM_012.jpg	100
1959.719	0.835	835.0	generate	Run3	generate/STIM_012.jpg	99
1964.163	1.818	1818.3	generate	Run3	generate/STIM_012.jpg	100
1969.453	1.487	1487.0	generate	Run3	generate/STIM_013.jpg	100
1974.756	1.816	1815.5	generate	Run3	generate/STIM_013.jpg	100
1979.163	1.17	1170.1	generate	Run3	generate/STIM_013.jpg	100
1982.974	1.029	1029.4	generate	Run3	generate/STIM_013.jpg	100
1986.463	0.882	881.5	generate	Run3	generate/STIM_013.jpg	99
1991.339	1.594	1594.2	generate	Run3	generate/STIM_014.jpg	100
1995.887	1.238	1238.0	generate	Run3	generate/STIM_014.jpg	100
2000.164	0.902	901.7	generate	Run3	generate/STIM_014.jpg	99
2003.382	0.964	964.5	generate	Run3	generate/STIM_014.jpg	99
2007.317	1.544	1543.6	generate	Run3	generate/STIM_014.jpg	99
2011.68	1.179	1179.2	generate	Run3	generate/STIM_015.jpg	99
2015.128	0.99	989.5	generate	Run3	generate/STIM_015.jpg	100
2019.719	1.664	1663.5	generate	Run3	generate/STIM_015.jpg	99
2023.467	1.755	1754.6	generate	Run3	generate/STIM_015.jpg	100
2027.656	0.896	895.6	generate	Run3	generate/STIM_015.jpg	100
2031.99	1.161	1160.7	generate	Run3	generate/STIM_016.jpg	99
2037.014	1.582	1582.5	generate	Run3	generate/STIM_016.jpg	100
2041.245	1.385	1385.0	generate	Run3	generate/STIM_016.jpg	99
2045.997	1.316	1315.6	generate	Run3	generate/STIM_016.jpg	99
2050.313	0.886	885.5	generate	Run3	generate/STIM_016.jpg	100
2053.857	1.56	1559.6	generate	Run3	generate/STIM_017.jpg	99
2059.35	1.821	1821.3	generate	Run3	generate/STIM_017.jpg	99
2064.671	1.753	1752.9	generate	Run3	generate/STIM_017.jpg	100
2068.974	0.964	963.9	generate	Run3	generate/STIM_017.jpg	99
2072.453	1.678	1677.5	generate	Run3	generate/STIM_017.jpg	99
2076.837	1.235	1234.8	generate	Run3	generate/STIM_018.jpg	99
2080.82	0.966	965.7	generate	Run3	generate/STIM_018.jpg	100
2085.77	0.978	978.3	generate	Run3	generate/STIM_018.jpg	100
2089.14	1.419	1418.6	generate	Run3	generate/STIM_018.jpg	99
2093.399	1.125	1124.6	generate	Run3	generate/STIM_018.jpg	100
2098.327	1.285	1285.0	generate	Run3	generate/STIM_019.jpg	99
2102.51	1.116	1116.5	generate	Run3	generate/STIM_019.jpg	99
2107.462	1.004	1003.5	generate	Run3	generate/STIM_019.jpg	100
2111.83	1.782	1781.5	generate	Run3	generate/STIM_019.jpg	99
2116.874	1.584	1584.2	generate	Run3	generate/STIM_019.jpg	99
2120.845	1.159	1159.0	generate	Run3	generate/STIM_020.jpg	99
2125.618	1.184	1184.1	generate	Run3	generate/STIM_020.jpg	100
2130.279	1.42	1419.8	generate	Run3	generate/STIM_020.jpg	100
2134.148	1.188	1188.1	generate	Run3	generate/STIM_020.jpg	99
2138.13	1.455	1455.3	generate	Run3	generate/STIM_020.jpg	99
2143.074	1.103	1103.1	generate	Run3	generate/STIM_021.jpg	100
2147.975	0.952	951.8	generate	Run3	generate/STIM_021.jpg	99
2152.298	0.88	879.5	generate	Run3	generate/STIM_021.jpg	99
2156.202	0.98	980.2	generate	Run3	generate/STIM_021.jpg	99
2159.758	1.1	1100.2	generate	Run3	generate/STIM_021.jpg	99
2163.776	1.418	1417.8	generate	Run3	generate/STIM_022.jpg	100
2167.436	1.6	1600.3	generate	Run3	generate/STIM_022.jpg	99
2172.995	1.875	1875.3	generate	Run3	generate/STIM_022.jpg	99
2177.226	0.824	824.4	generate	Run3	generate/STIM_022.jpg	100
2180.361	1.828	1828.1	generate	Run3	generate/STIM_022.jpg	99
2184.242	1.776	1775.8	generate	Run3	generate/STIM_023.jpg	99
2188.889	1.694	1693.5	generate	Run3	generate/STIM_023.jpg	99
2193.684	1.479	1479.1	generate	Run3	generate/STIM_023.jpg	99
2197.321	0.836	835.8	generate	Run3	generate/STIM_023.jpg	99
2201.494	1.006	1006.1	generate	Run3	generate/STIM_023.jpg	100
2205.925	1.796	1796.2	generate	Run3	generate/STIM_024.jpg	99
2210.963	1.3	1299.8	generate	Run3	generate/STIM_024.jpg	99
2215.615	1.844	1844.2	generate	Run3	generate/STIM_024.jpg	100
2219.511	0.754	754.4	generate	Run3	generate/STIM_024.jpg	99
2222.363	1.193	1193.4	generate	Run3	generate/STIM_024.jpg	99
2227.204	0.578	577.9	repeat	Run3	repeat/STIM_000.jpg	100
2231.279	0.609	608.7	repeat	Run3	repeat/STIM_000.jpg	99
2234.706	0.705	705.2	repeat	Run3	repeat/STIM_000.jpg	99
2239.379	0.668	668.2	repeat	Run3	repeat/STIM_000.jpg	99
2243.526	0.881	881.3	repeat	Run3	repeat/STIM_000.jpg	100
2247.614	0.797	797.1	repeat	Run3	repeat/STIM_001.jpg	99
2251.377	0.716	716.2	repeat	Run3	repeat/STIM_001.jpg	100
2254.37	0.617	617.2	repeat	Run3	repeat/STIM_001.jpg	100
2257.034	0.885	885.0	repeat	Run3	repeat/STIM_001.jpg	100
2260.229	0.624	624.3	repeat	Run3	repeat/STIM_001.jpg	100
2264.559	0.584	584.4	repeat	Run3	repeat/STIM_002.jpg	99
2268.733	0.521	520.6	repeat	Run3	repeat/STIM_002.jpg	99
2272.057	0.815	814.7	repeat	Run3	repeat/STIM_002.jpg	100
2275.467	0.483	483.4	repeat	Run3	repeat/STIM_002.jpg	100
2279.533	0.818	818.0	repeat	Run3	repeat/STIM_002.jpg	100
2282.596	0.687	687.4	repeat	Run3	repeat/STIM_003.jpg	99
2285.894	0.75	749.8	repeat	Run3	repeat/STIM_003.jpg	100
2290.454	0.552	551.7	repeat	Run3	repeat/STIM_003.jpg	100
2293.939	0.869	869.1	repeat	Run3	repeat/STIM_003.jpg	100
2297.438	0.743	743.2	repeat	Run3	repeat/STIM_003.jpg	100
2302.158	0.572	572.2	repeat	Run3	repeat/STIM_004.jpg	100
2306.684	0.618	617.6	repeat	Run3	repeat/STIM_004.jpg	99
2309.847	0.695	694.9	repeat	Run3	repeat/STIM_004.jpg	99
2313.155	0.532	531.6	repeat	Run3	repeat/STIM_004.jpg	99
2316.471	0.522	521.9	repeat	Run3	repeat/STIM_004.jpg	99
2320.593	0.531	531.1	repeat	Run3	repeat/STIM_005.jpg	100
2325.013	0.492	491.8	repeat	Run3	repeat/STIM_005.jpg	100
2327.604	0.836	836.5	repeat	Run3	repeat/STIM_005.jpg	99
2330.442	0.517	517.1	repeat	Run3	repeat/STIM_005.jpg	100
2334.748	0.762	762.1	repeat	Run3	repeat/STIM_005.jpg	100
2338.113	0.513	513.3	repeat	Run3	repeat/STIM_006.jpg	100
2341.912	0.674	673.8	repeat	Run3	repeat/STIM_006.jpg	100
2345.443	0.532	531.8	repeat	Run3	repeat/STIM_006.jpg	99
2348.102	0.483	483.2	repeat	Run3	repeat/STIM_006.jpg	100
2350.633	0.863	862.9	repeat	Run3	repeat/STIM_006.jpg	100
2354.358	0.728	727.6	repeat	Run3	repeat/STIM_007.jpg	99
2358.411	0.628	628.5	repeat	Run3	repeat/STIM_007.jpg	99
2362.481	0.775	775.3	repeat	Run3	repeat/STIM_007.jpg	99
2365.902	0.855	855.4	repeat	Run3	repeat/STIM_007.jpg	99
2370.294	0.817	817.2	repeat	Run3	repeat/STIM_007.jpg	99
2374.285	0.854	854.0	repeat	Run3	repeat/STIM_008.jpg	99
2377.725	0.652	652.1	repeat	Run3	repeat/STIM_008.jpg	99
2381.926	0.477	476.8	repeat	Run3	repeat/STIM_008.jpg	99
2385.751	0.865	865.4	repeat	Run3	repeat/STIM_008.jpg	99
2389.692	0.51	509.6	repeat	Run3	repeat/STIM_008.jpg	99
2393.328	0.584	584.3	repeat	Run3	repeat/STIM_009.jpg	100
2396.258	0.555	554.6	repeat	Run3	repeat/STIM_009.jpg	100
2400.282	0.506	506.3	repeat	Run3	repeat/STIM_009.jpg	100
2403.479	0.561	561.1	repeat	Run3	repeat/STIM_009.jpg	99
2407.018	0.498	498.3	repeat	Run3	repeat/STIM_009.jpg	100
2410.857	0.868	867.7	repeat	Run3	repeat/STIM_010.jpg	99
2413.963	0.759	758.7	repeat	Run3	repeat/STIM_010.jpg	99
2417.862	0.618	617.5	repeat	Run3	repeat/STIM_010.jpg	99
2420.98	0.594	594.0	repeat	Run3	repeat/STIM_010.jpg	100
2425.414	0.652	651.7	repeat	Run3	repeat/STIM_010.jpg	99
2428.846	0.812	811.7	repeat	Run3	repeat/STIM_011.jpg	99
2433.378	0.844	844.3	repeat	Run3	repeat/STIM_011.jpg	99
2436.953	0.784	784.5	repeat	Run3	repeat/STIM_011.jpg	99
2441.112	0.757	757.2	repeat	Run3	repeat/STIM_011.jpg	100
2445.225	0.873	873.0	repeat	Run3	repeat/STIM_011.jpg	100
2449.887	0.729	728.7	repeat	Run3	repeat/STIM_012.jpg	99
2454.454	0.488	488.4	repeat	Run3	repeat/STIM_012.jpg	99
2457.701	0.849	849.4	repeat	Run3	repeat/STIM_012.jpg	100
2462.102	0.848	848.0	repeat	Run3	repeat/STIM_012.jpg	99
2465.613	0.791	790.9	repeat	Run3	repeat/STIM_012.jpg	100
2469.435	0.542	542.2	repeat	Run3	repeat/STIM_013.jpg	100
2472.043	0.585	585.1	repeat	Run3	repeat/STIM_013.jpg	99
2475.545	0.848	848.5	repeat	Run3	repeat/STIM_013.jpg	99
2479.629	0.591	590.8	repeat	Run3	repeat/STIM_013.jpg	99
2482.569	0.702	702.2	repeat	Run3	repeat/STIM_013.jpg	100
2486.696	0.766	765.8	repeat	Run3	repeat/STIM_014.jpg	99
2490.488	0.662	661.5	repeat	Run3	repeat/STIM_014.jpg	99
2494.785	0.751	751.0	repeat	Run3	repeat/STIM_014.jpg	99
2498.803	0.578	578.1	repeat	Run3	repeat/STIM_014.jpg	100
2503.254	0.465	465.2	repeat	Run3	repeat/STIM_014.jpg	100
2506.183	1.696	1696.3	generate	Run4	generate/STIM_000.jpg	100
2510.814	0.835	834.6	generate	Run4	generate/STIM_000.jpg	100
2515.52	1.623	1623.2	generate	Run4	generate/STIM_000.jpg	100
2521.022	0.769	768.9	generate	Run4	generate/STIM_000.jpg	100
2523.904	0.867	866.8	generate	Run4	generate/STIM_000.jpg	99
2527.95	1.319	1318.7	generate	Run4	generate/STIM_001.jpg	99
2532.68	1.539	1539.4	generate	Run4	generate/STIM_001.jpg	99
2537.117	1.824	1824.1	generate	Run4	generate/STIM_001.jpg	99
2541.646	1.198	1197.6	generate	Run4	generate/STIM_001.jpg	100
2545.58	1.826	1825.5	generate	Run4	generate/STIM_001.jpg	99
2549.546	0.867	867.0	generate	Run4	generate/STIM_002.jpg	99
2554.103	1.671	1671.0	generate	Run4	generate/STIM_002.jpg	99
2559.653	1.087	1087.3	generate	Run4	generate/STIM_002.jpg	99
2564.468	1.031	1031.1	generate	Run4	generate/STIM_002.jpg	100
2568.99	1.173	1173.1	generate	Run4	generate/STIM_002.jpg	100
2572.17	1.492	1491.6	generate	Run4	generate/STIM_003.jpg	99
2576.308	1.641	1640.6	generate	Run4	generate/STIM_003.jpg	99
2580.894	1.788	1788.4	generate	Run4	generate/STIM_003.jpg	99
2584.746	1.766	1765.6	generate	Run4	generate/STIM_003.jpg	100
2590.001	1.801	1801.4	generate	Run4	generate/STIM_003.jpg	99
2593.853	0.768	768.4	generate	Run4	generate/STIM_004.jpg	100
2597.45	1.363	1362.7	generate	Run4	generate/STIM_004.jpg	99
2601.179	0.949	948.6	generate	Run4	generate/STIM_004.jpg	100
2604.214	1.756	1756.5	generate	Run4	generate/STIM_004.jpg	100
2609.785	1.302	1301.5	generate	Run4	generate/STIM_004.jpg	99
2613.509	0.765	764.7	generate	Run4	generate/STIM_005.jpg	100
2616.722	1.412	1411.5	generate	Run4	generate/STIM_005.jpg	99
2620.894	1.496	1495.7	generate	Run4	generate/STIM_005.jpg	100
2624.647	1.86	1860.3	generate	Run4	generate/STIM_005.jpg	100
2629.639	0.896	896.2	generate	Run4	generate/STIM_005.jpg	100
2634.49	0.782	781.6	generate	Run4	generate/STIM_006.jpg	100
2639.019	1.317	1317.3	generate	Run4	generate/STIM_006.jpg	100
2642.833	1.033	1032.8	generate	Run4	generate/STIM_006.jpg	99
2646.831	0.794	793.7	generate	Run4	generate/STIM_006.jpg	100
2650.654	0.814	813.5	generate	Run4	generate/STIM_006.jpg	99
2654.996	0.834	834.0	generate	Run4	generate/STIM_007.jpg	100
2659.1	1.302	1302.5	generate	Run4	generate/STIM_007.jpg	99
2662.812	1.152	1151.7	generate	Run4	generate/STIM_007.jpg	99
2666.175	1.514	1514.2	generate	Run4	generate/STIM_007.jpg	99
2671.026	1.736	1736.5	generate	Run4	generate/STIM_007.jpg	100
2675.548	1.477	1477.2	generate	Run4	generate/STIM_008.jpg	100
2679.035	0.857	857.1	generate	Run4	generate/STIM_008.jpg	100
2682.87	0.864	864.3	generate	Run4	generate/STIM_008.jpg	100
2686.983	1.739	1739.0	generate	Run4	generate/STIM_008.jpg	99
2691.283	0.831	831.4	generate	Run4	generate/STIM_008.jpg	100
2695.5	1.815	1815.2	generate	Run4	generate/STIM_009.jpg	99
2699.619	0.944	943.5	generate	Run4	generate/STIM_009.jpg	99
2702.785	1.298	1298.2	generate	Run4	generate/STIM_009.jpg	100
2707.716	0.859	859.2	generate	Run4	generate/STIM_009.jpg	100
2711.529	1.648	1647.9	generate	Run4	generate/STIM_009.jpg	100
2716.621	1.466	1466.2	generate	Run4	generate/STIM_010.jpg	100
2721.334	1.087	1086.7	generate	Run4	generate/STIM_010.jpg	100
2725.547	1.26	1260.3	generate	Run4	generate/STIM_010.jpg	99
2730.708	1.203	1203.2	generate	Run4	generate/STIM_010.jpg	100
2734.581	1.035	1034.6	generate	Run4	generate/STIM_010.jpg	99
2738.021	1.686	1686.4	generate	Run4	generate/STIM_011.jpg	99
2742.045	0.914	913.8	generate	Run4	generate/STIM_011.jpg	99
2746.436	1.879	1878.9	generate	Run4	generate/STIM_011.jpg	99
2750.633	0.981	980.6	generate	Run4	generate/STIM_011.jpg	99
2754.244	1.744	1743.7	generate	Run4	generate/STIM_011.jpg	99
2758.296	1.141	1141.3	generate	Run4	generate/STIM_012.jpg	99
2762.545	1.506	1505.5	generate	Run4	generate/STIM_012.jpg	100
2766.077	1.328	1327.8	generate	Run4	generate/STIM_012.jpg	100
2770.298	1.051	1051.4	generate	Run4	generate/STIM_012.jpg	99
2774.932	1.067	1067.4	generate	Run4	generate/STIM_012.jpg	99
2778.649	1.825	1825.1	generate	Run4	generate/STIM_013.jpg	100
2784.198	0.874	873.7	generate	Run4	generate/STIM_013.jpg	100
2788.311	1.008	1008.5	generate	Run4	generate/STIM_013.jpg	99
2793.079	1.684	1683.9	generate	Run4	generate/STIM_013.jpg	99
2797.345	1.084	1083.6	generate	Run4	generate/STIM_013.jpg	99
2800.753	1.312	1311.8	generate	Run4	generate/STIM_014.jpg	99
2805.001	1.025	1025.4	generate	Run4	generate/STIM_014.jpg	99
2808.231	1.712	1712.1	generate	Run4	generate/STIM_014.jpg	100
2812.897	1.539	1539.1	generate	Run4	generate/STIM_014.jpg	100
2818.33	1.286	1286.4	generate	Run4	generate/STIM_014.jpg	99
2823.188	1.304	1303.9	generate	Run4	generate/STIM_015.jpg	99
2827.583	1.237	1236.6	generate	Run4	generate/STIM_015.jpg	99
2832.0	1.737	1736.8	generate	Run4	generate/STIM_015.jpg	100
2836.847	1.232	1231.5	generate	Run4	generate/STIM_015.jpg	100
2841.545	0.796	795.5	generate	Run4	generate/STIM_015.jpg	100
2844.506	1.141	1141.1	generate	Run4	generate/STIM_016.jpg	100
2849.426	1.434	1434.0	generate	Run4	generate/STIM_016.jpg	99
2852.93	1.522	1521.6	generate	Run4	generate/STIM_016.jpg	100
2858.395	1.487	1487.1	generate	Run4	generate/STIM_016.jpg	99
2863.025	0.842	841.5	generate	Run4	generate/STIM_016.jpg	99
2866.169	1.768	1767.6	generate	Run4	generate/STIM_017.jpg	100
2870.75	1.356	1355.7	generate	Run4	generate/STIM_017.jpg	99
2875.73	1.024	1023.5	generate	Run4	generate/STIM_017.jpg	99
2879.828	1.413	1413.1	generate	Run4	generate/STIM_017.jpg	100
2885.138	0.786	786.2	generate	Run4	generate/STIM_017.jpg	99
2888.691	1.05	1050.4	generate	Run4	generate/STIM_018.jpg	99
2891.894	0.949	949.4	generate	Run4	generate/STIM_018.jpg	100
2895.425	1.828	1828.1	generate	Run4	generate/STIM_018.jpg	100
2900.331	1.794	1794.1	generate	Run4	generate/STIM_018.jpg	99
2904.466	0.885	885.0	generate	Run4	generate/STIM_018.jpg	99
2907.445	1.694	1693.6	generate	Run4	generate/STIM_019.jpg	100
2911.786	1.788	1787.9	generate	Run4	generate/STIM_019.jpg	100
2915.992	1.45	1450.3	generate	Run4	generate/STIM_019.jpg	100
2919.815	1.672	1672.3	generate	Run4	generate/STIM_019.jpg	100
2924.27	0.812	811.9	generate	Run4	generate/STIM_019.jpg	100
2927.564	1.652	1651.6	generate	Run4	generate/STIM_020.jpg	99
2931.691	1.284	1283.9	generate	Run4	generate/STIM_020.jpg	99
2936.468	1.786	1785.7	generate	Run4	generate/STIM_020.jpg	100
2940.907	1.561	1560.9	generate	Run4	generate/STIM_020.jpg	100
2945.876	1.017	1016.9	generate	Run4	generate/STIM_020.jpg	99
2950.28	1.46	1459.9	generate	Run4	generate/STIM_021.jpg	100
2954.053	0.81	809.5	generate	Run4	generate/STIM_021.jpg	100
2957.092	1.268	1268.3	generate	Run4	generate/STIM_021.jpg	99
2960.886	0.799	798.7	generate	Run4	generate/STIM_021.jpg	100
2964.87	1.605	1604.7	generate	Run4	generate/STIM_021.jpg	99
2969.998	1.612	1611.7	generate	Run4	generate/STIM_022.jpg	100
2975.208	1.816	1815.7	generate	Run4	generate/STIM_022.jpg	100
2979.635	1.274	1273.5	generate	Run4	generate/STIM_022.jpg	100
2984.123	1.83	1829.5	generate	Run4	generate/STIM_022.jpg	100
2988.728	1.801	1800.8	generate	Run4	generate/STIM_022.jpg	99
2992.869	1.876	1876.3	generate	Run4	generate/STIM_023.jpg	99
2997.531	1.217	1217.0	generate	Run4	generate/STIM_023.jpg	99
3001.987	1.1	1100.2	generate	Run4	generate/STIM_023.jpg	99
3006.97	1.175	1174.6	generate	Run4	generate/STIM_023.jpg	99
3012.046	1.318	1318.2	generate	Run4	generate/STIM_023.jpg	99
3015.403	1.462	1462.5	generate	Run4	generate/STIM_024.jpg	100
3019.824	1.284	1284.5	generate	Run4	generate/STIM_024.jpg	99
3023.324	0.928	928.1	generate	Run4	generate/STIM_024.jpg	100
3026.876	1.403	1403.2	generate	Run4	generate/STIM_024.jpg	100
3030.367	1.267	1266.6	generate	Run4	generate/STIM_024.jpg	100
3035.013	0.825	824.6	repeat	Run4	repeat/STIM_000.jpg	99
3038.014	0.609	609.4	repeat	Run4	repeat/STIM_000.jpg	99
3041.19	0.549	548.6	repeat	Run4	repeat/STIM_000.jpg	99
3045.194	0.714	713.6	repeat	Run4	repeat/STIM_000.jpg	99
3048.267	0.464	463.7	repeat	Run4	repeat/STIM_000.jpg	99
3051.737	0.758	758.0	repeat	Run4	repeat/STIM_001.jpg	100
3056.424	0.731	731.0	repeat	Run4	repeat/STIM_001.jpg	100
3060.082	0.773	772.7	repeat	Run4	repeat/STIM_001.jpg	100
3064.8	0.504	503.7	repeat	Run4	repeat/STIM_001.jpg	99
3068.868	0.719	719.2	repeat	Run4	repeat/STIM_001.jpg	100
3072.089	0.492	492.4	repeat	Run4	repeat/STIM_002.jpg	100
3076.312	0.812	812.0	repeat	Run4	repeat/STIM_002.jpg	100
3080.393	0.758	758.3	repeat	Run4	repeat/STIM_002.jpg	100
3083.761	0.876	876.3	repeat	Run4	repeat/STIM_002.jpg	99
3088.109	0.536	536.2	repeat	Run4	repeat/STIM_002.jpg	100
3092.546	0.492	492.0	repeat	Run4	repeat/STIM_003.jpg	99
3096.292	0.728	728.4	repeat	Run4	repeat/STIM_003.jpg	100
3100.119	0.69	689.9	repeat	Run4	repeat/STIM_003.jpg	99
3104.762	0.547	546.9	repeat	Run4	repeat/STIM_003.jpg	99
3108.529	0.875	875.0	repeat	Run4	repeat/STIM_003.jpg	100
3112.116	0.51	510.5	repeat	Run4	repeat/STIM_004.jpg	99
3115.616	0.489	489.2	repeat	Run4	repeat/STIM_004.jpg	100
3119.077	0.698	697.5	repeat	Run4	repeat/STIM_004.jpg	100
3123.296	0.841	841.0	repeat	Run4	repeat/STIM_004.jpg	100
3127.83	0.719	719.4	repeat	Run4	repeat/STIM_004.jpg	99
3131.126	0.659	659.3	repeat	Run4	repeat/STIM_005.jpg	100
3133.949	0.718	718.2	repeat	Run4	repeat/STIM_005.jpg	100
3138.614	0.684	684.3	repeat	Run4	repeat/STIM_005.jpg	99
3142.96	0.514	513.8	repeat	Run4	repeat/STIM_005.jpg	99
3146.196	0.627	627.3	repeat	Run4	repeat/STIM_005.jpg	99
3150.012	0.69	690.5	repeat	Run4	repeat/STIM_006.jpg	100
3154.469	0.77	770.1	repeat	Run4	repeat/STIM_006.jpg	99
3158.11	0.758	758.3	repeat	Run4	repeat/STIM_006.jpg	100
3161.226	0.742	741.9	repeat	Run4	repeat/STIM_006.jpg	99
3164.055	0.771	770.9	repeat	Run4	repeat/STIM_006.jpg	100
3168.23	0.799	799.2	repeat	Run4	repeat/STIM_007.jpg	99
3171.706	0.791	791.3	repeat	Run4	repeat/STIM_007.jpg	100
3175.266	0.784	783.5	repeat	Run4	repeat/STIM_007.jpg	100
3178.103	0.53	530.0	repeat	Run4	repeat/STIM_007.jpg	100
3180.94	0.848	848.2	repeat	Run4	repeat/STIM_007.jpg	100
3185.153	0.642	642.1	repeat	Run4	repeat/STIM_008.jpg	100
3187.898	0.505	505.4	repeat	Run4	repeat/STIM_008.jpg	99
3192.215	0.861	861.1	repeat	Run4	repeat/STIM_008.jpg	99
3195.321	0.67	670.0	repeat	Run4	repeat/STIM_008.jpg	100
3198.431	0.74	739.5	repeat	Run4	repeat/STIM_008.jpg	99
3202.316	0.617	617.0	repeat	Run4	repeat/STIM_009.jpg	99
3206.298	0.701	701.1	repeat	Run4	repeat/STIM_009.jpg	99
3210.618	0.523	523.4	repeat	Run4	repeat/STIM_009.jpg	99
3215.07	0.673	673.3	repeat	Run4	repeat/STIM_009.jpg	99
3219.104	0.864	863.7	repeat	Run4	repeat/STIM_009.jpg	100
3222.859	0.476	476.2	repeat	Run4	repeat/STIM_010.jpg	99
3225.969	0.857	856.6	repeat	Run4	repeat/STIM_010.jpg	100
3229.206	0.602	602.5	repeat	Run4	repeat/STIM_010.jpg	100
3233.71	0.554	554.2	repeat	Run4	repeat/STIM_010.jpg	99
3237.806	0.484	484.0	repeat	Run4	repeat/STIM_010.jpg	99
3240.409	0.893	892.7	repeat	Run4	repeat/STIM_011.jpg	99
3243.379	0.756	756.5	repeat	Run4	repeat/STIM_011.jpg	99
3246.526	0.584	583.9	repeat	Run4	repeat/STIM_011.jpg	99
3250.555	0.882	881.5	repeat	Run4	repeat/STIM_011.jpg	100
3254.515	0.829	828.9	repeat	Run4	repeat/STIM_011.jpg	99
3257.634	0.69	689.5	repeat	Run4	repeat/STIM_012.jpg	99
3260.683	0.53	530.1	repeat	Run4	repeat/STIM_012.jpg	99
3263.865	0.735	734.8	repeat	Run4	repeat/STIM_012.jpg	99
3268.475	0.525	524.7	repeat	Run4	repeat/STIM_012.jpg	99
3272.634	0.464	464.0	repeat	Run4	repeat/STIM_012.jpg	99
3275.214	0.54	540.3	repeat	Run4	repeat/STIM_013.jpg	100
3277.855	0.569	569.4	repeat	Run4	repeat/STIM_013.jpg	99
3281.532	0.577	577.4	repeat	Run4	repeat/STIM_013.jpg	99
3284.671	0.451	451.0	repeat	Run4	repeat/STIM_013.jpg	100
3287.607	0.856	856.3	repeat	Run4	repeat/STIM_013.jpg	99
3291.347	0.63	630.4	repeat	Run4	repeat/STIM_014.jpg	100
3295.874	0.761	761.0	repeat	Run4	repeat/STIM_014.jpg	100
3300.477	0.791	791.0	repeat	Run4	repeat/STIM_014.jpg	99
3304.18	0.633	632.9	repeat	Run4	repeat/STIM_014.jpg	100
3307.133	0.838	837.7	repeat	Run4	repeat/STIM_014.jpg	99
