onset	duration	accuracy_binary	trial_type	learning_stage	stimulus
0.0	1.391	1	generate	Run1	generate/STIM_000.jpg
5.419	2.47	1	generate	Run1	generate/STIM_000.jpg
11.381	1.891	0	generate	Run1	generate/STIM_000.jpg
16.515	1.921	0	generate	Run1	generate/STIM_000.jpg
22.052	1.161	0	generate	Run1	generate/STIM_000.jpg
25.274	2.068	1	generate	Run1	generate/STIM_001.jpg
30.919	1.139	1	generate	Run1	generate/STIM_001.jpg
34.735	1.224	1	generate	Run1	generate/STIM_001.jpg
38.043	1.858	1	generate	Run1	generate/STIM_001.jpg
43.016	2.226	1	generate	Run1	generate/STIM_001.jpg
48.659	1.617	0	generate	Run1	generate/STIM_002.jpg
53.472	1.506	1	generate	Run1	generate/STIM_002.jpg
58.344	1.475	1	generate	Run1	generate/STIM_002.jpg
61.892	1.882	1	generate	Run1	generate/STIM_002.jpg
66.231	2.039	1	generate	Run1	generate/STIM_002.jpg
70.705	2.855	0	generate	Run1	generate/STIM_003.jpg
76.919	2.103	1	generate	Run1	generate/STIM_003.jpg
82.42	1.05	1	generate	Run1	generate/STIM_003.jpg
86.749	2.351	0	generate	Run1	generate/STIM_003.jpg
92.081	2.276	1	generate	Run1	generate/STIM_003.jpg
97.889	2.776	1	generate	Run1	generate/STIM_004.jpg
104.43	1.69	0	generate	Run1	generate/STIM_004.jpg
109.497	1.795	1	generate	Run1	generate/STIM_004.jpg
114.801	2.253	1	generate	Run1	generate/STIM_004.jpg
120.352	2.199	0	generate	Run1	generate/STIM_004.jpg
125.702	1.945	0	generate	Run1	generate/STIM_005.jpg
131.472	2.462	1	generate	Run1	generate/STIM_005.jpg
137.991	2.231	1	generate	Run1	generate/STIM_005.jpg
142.443	1.894	1	generate	Run1	generate/STIM_005.jpg
147.602	1.542	0	generate	Run1	generate/STIM_005.jpg
152.605	2.608	0	generate	Run1	generate/STIM_006.jpg
157.768	2.288	1	generate	Run1	generate/STIM_006.jpg
163.183	1.256	1	generate	Run1	generate/STIM_006.jpg
166.773	2.211	1	generate	Run1	generate/STIM_006.jpg
171.905	1.36	1	generate	Run1	generate/STIM_006.jpg
175.596	1.224	1	generate	Run1	generate/STIM_007.jpg
178.88	2.48	0	generate	Run1	generate/STIM_007.jpg
184.858	1.966	1	generate	Run1	generate/STIM_007.jpg
189.68	1.076	1	generate	Run1	generate/STIM_007.jpg
194.043	1.109	1	generate	Run1	generate/STIM_007.jpg
197.679	1.61	1	generate	Run1	generate/STIM_008.jpg
203.316	1.456	1	generate	Run1	generate/STIM_008.jpg
207.66	1.475	1	generate	Run1	generate/STIM_008.jpg
212.421	2.056	1	generate	Run1	generate/STIM_008.jpg
217.252	0.965	0	generate	Run1	generate/STIM_008.jpg
220.646	2.544	1	generate	Run1	generate/STIM_009.jpg
225.695	1.197	0	generate	Run1	generate/STIM_009.jpg
229.667	1.879	1	generate	Run1	generate/STIM_009.jpg
234.268	1.68	1	generate	Run1	generate/STIM_009.jpg
239.401	1.736	1	generate	Run1	generate/STIM_009.jpg
243.667	2.12	1	generate	Run1	generate/STIM_010.jpg
248.815	2.678	1	generate	Run1	generate/STIM_010.jpg
254.048	1.787	0	generate	Run1	generate/STIM_010.jpg
259.564	2.18	1	generate	Run1	generate/STIM_010.jpg
264.259	2.207	1	generate	Run1	generate/STIM_010.jpg
269.238	1.969	1	generate	Run1	generate/STIM_011.jpg
275.257	2.313	1	generate	Run1	generate/STIM_011.jpg
280.684	1.676	1	generate	Run1	generate/STIM_011.jpg
284.472	1.86	1	generate	Run1	generate/STIM_011.jpg
288.856	2.208	1	generate	Run1	generate/STIM_011.jpg
295.041	1.284	1	generate	Run1	generate/STIM_012.jpg
299.756	1.426	0	generate	Run1	generate/STIM_012.jpg
303.374	2.496	1	generate	Run1	generate/STIM_012.jpg
308.894	2.034	0	generate	Run1	generate/STIM_012.jpg
314.083	1.965	1	generate	Run1	generate/STIM_012.jpg
319.814	2.084	1	generate	Run1	generate/STIM_013.jpg
325.778	1.27	1	generate	Run1	generate/STIM_013.jpg
331.089	1.972	0	generate	Run1	generate/STIM_013.jpg
336.07	1.511	1	generate	Run1	generate/STIM_013.jpg
340.295	1.963	1	generate	Run1	generate/STIM_013.jpg
344.565	2.552	1	generate	Run1	generate/STIM_014.jpg
349.773	2.169	1	generate	Run1	generate/STIM_014.jpg
355.942	2.366	1	generate	Run1	generate/STIM_014.jpg
361.717	2.086	1	generate	Run1	generate/STIM_014.jpg
367.802	1.081	1	generate	Run1	generate/STIM_014.jpg
371.673	2.667	1	generate	Run1	generate/STIM_015.jpg
377.948	1.389	1	generate	Run1	generate/STIM_015.jpg
383.06	1.545	0	generate	Run1	generate/STIM_015.jpg
387.959	1.403	1	generate	Run1	generate/STIM_015.jpg
391.599	2.296	1	generate	Run1	generate/STIM_015.jpg
397.049	2.655	1	generate	Run1	generate/STIM_016.jpg
402.402	2.39	1	generate	Run1	generate/STIM_016.jpg
407.128	1.418	1	generate	Run1	generate/STIM_016.jpg
412.373	1.513	1	generate	Run1	generate/STIM_016.jpg
416.249	1.558	1	generate	Run1	generate/STIM_016.jpg
421.024	1.726	0	generate	Run1	generate/STIM_017.jpg
425.368	1.867	1	generate	Run1	generate/STIM_017.jpg
429.855	2.291	1	generate	Run1	generate/STIM_017.jpg
435.136	1.377	0	generate	Run1	generate/STIM_017.jpg
438.923	1.082	1	generate	Run1	generate/STIM_017.jpg
442.049	2.478	1	generate	Run1	generate/STIM_018.jpg
447.641	2.258	0	generate	Run1	generate/STIM_018.jpg
452.453	1.656	1	generate	Run1	generate/STIM_018.jpg
456.931	2.425	1	generate	Run1	generate/STIM_018.jpg
462.719	0.934	1	generate	Run1	generate/STIM_018.jpg
466.759	2.58	1	generate	Run1	generate/STIM_019.jpg
473.412	1.466	1	generate	Run1	generate/STIM_019.jpg
478.812	1.214	0	generate	Run1	generate/STIM_019.jpg
482.691	2.435	1	generate	Run1	generate/STIM_019.jpg
487.807	1.0	1	generate	Run1	generate/STIM_019.jpg
492.679	2.302	1	generate	Run1	generate/STIM_020.jpg
497.386	1.261	1	generate	Run1	generate/STIM_020.jpg
501.312	1.613	1	generate	Run1	generate/STIM_020.jpg
505.894	1.655	1	generate	Run1	generate/STIM_020.jpg
510.28	2.007	1	generate	Run1	generate/STIM_020.jpg
515.327	1.838	1	generate	Run1	generate/STIM_021.jpg
519.496	1.165	1	generate	Run1	generate/STIM_021.jpg
523.767	1.771	1	generate	Run1	generate/STIM_021.jpg
529.465	2.342	1	generate	Run1	generate/STIM_021.jpg
534.375	1.696	0	generate	Run1	generate/STIM_021.jpg
538.291	2.787	1	generate	Run1	generate/STIM_022.jpg
543.496	2.498	0	generate	Run1	generate/STIM_022.jpg
549.977	2.306	1	generate	Run1	generate/STIM_022.jpg
554.756	1.921	1	generate	Run1	generate/STIM_022.jpg
559.474	1.064	1	generate	Run1	generate/STIM_022.jpg
562.884	2.068	1	generate	Run1	generate/STIM_023.jpg
567.36	2.155	1	generate	Run1	generate/STIM_023.jpg
571.684	2.104	1	generate	Run1	generate/STIM_023.jpg
575.888	1.698	1	generate	Run1	generate/STIM_023.jpg
581.225	1.717	1	generate	Run1	generate/STIM_023.jpg
586.349	2.49	1	generate	Run1	generate/STIM_024.jpg
591.541	1.418	0	generate	Run1	generate/STIM_024.jpg
596.315	1.353	0	generate	Run1	generate/STIM_024.jpg
601.354	1.452	1	generate	Run1	generate/STIM_024.jpg
606.701	1.996	0	generate	Run1	generate/STIM_024.jpg
612.046	0.811	1	repeat	Run1	repeat/STIM_000.jpg
615.598	0.579	1	repeat	Run1	repeat/STIM_000.jpg
619.794	0.566	1	repeat	Run1	repeat/STIM_000.jpg
624.367	0.904	1	repeat	Run1	repeat/STIM_000.jpg
628.43	0.817	0	repeat	Run1	repeat/STIM_000.jpg
632.548	0.876	1	repeat	Run1	repeat/STIM_001.jpg
636.564	0.642	1	repeat	Run1	repeat/STIM_001.jpg
639.943	0.768	1	repeat	Run1	repeat/STIM_001.jpg
642.804	0.502	1	repeat	Run1	repeat/STIM_001.jpg
646.694	0.881	1	repeat	Run1	repeat/STIM_001.jpg
649.662	0.599	1	repeat	Run1	repeat/STIM_002.jpg
653.919	0.862	1	repeat	Run1	repeat/STIM_002.jpg
658.249	0.7	1	repeat	Run1	repeat/STIM_002.jpg
662.197	0.642	1	repeat	Run1	repeat/STIM_002.jpg
666.125	0.814	1	repeat	Run1	repeat/STIM_002.jpg
669.683	0.812	1	repeat	Run1	repeat/STIM_003.jpg
672.725	0.548	1	repeat	Run1	repeat/STIM_003.jpg
677.0	0.576	1	repeat	Run1	repeat/STIM_003.jpg
681.262	0.85	1	repeat	Run1	repeat/STIM_003.jpg
686.006	0.748	1	repeat	Run1	repeat/STIM_003.jpg
689.701	0.946	1	repeat	Run1	repeat/STIM_004.jpg
694.159	0.734	1	repeat	Run1	repeat/STIM_004.jpg
698.504	0.83	1	repeat	Run1	repeat/STIM_004.jpg
702.963	0.886	1	repeat	Run1	repeat/STIM_004.jpg
706.314	0.526	1	repeat	Run1	repeat/STIM_004.jpg
709.58	0.78	1	repeat	Run1	repeat/STIM_005.jpg
713.095	0.65	1	repeat	Run1	repeat/STIM_005.jpg
716.528	0.494	1	repeat	Run1	repeat/STIM_005.jpg
719.377	0.822	0	repeat	Run1	repeat/STIM_005.jpg
722.496	0.608	1	repeat	Run1	repeat/STIM_005.jpg
725.615	0.485	1	repeat	Run1	repeat/STIM_006.jpg
729.926	0.485	1	repeat	Run1	repeat/STIM_006.jpg
733.38	0.784	1	repeat	Run1	repeat/STIM_006.jpg
736.882	0.674	1	repeat	Run1	repeat/STIM_006.jpg
740.129	0.61	1	repeat	Run1	repeat/STIM_006.jpg
743.033	0.672	1	repeat	Run1	repeat/STIM_007.jpg
745.851	0.91	1	repeat	Run1	repeat/STIM_007.jpg
750.221	0.704	1	repeat	Run1	repeat/STIM_007.jpg
754.113	0.841	0	repeat	Run1	repeat/STIM_007.jpg
757.789	0.902	1	repeat	Run1	repeat/STIM_007.jpg
761.294	0.656	1	repeat	Run1	repeat/STIM_008.jpg
764.75	0.732	1	repeat	Run1	repeat/STIM_008.jpg
768.996	0.758	1	repeat	Run1	repeat/STIM_008.jpg
773.593	0.599	1	repeat	Run1	repeat/STIM_008.jpg
777.792	0.892	1	repeat	Run1	repeat/STIM_008.jpg
782.665	0.633	1	repeat	Run1	repeat/STIM_009.jpg
787.044	0.9	1	repeat	Run1	repeat/STIM_009.jpg
790.944	0.685	1	repeat	Run1	repeat/STIM_009.jpg
795.09	0.965	1	repeat	Run1	repeat/STIM_009.jpg
798.615	0.672	1	repeat	Run1	repeat/STIM_009.jpg
802.45	0.661	1	repeat	Run1	repeat/STIM_010.jpg
806.481	0.577	1	repeat	Run1	repeat/STIM_010.jpg
809.54	0.859	1	repeat	Run1	repeat/STIM_010.jpg
813.072	0.774	1	repeat	Run1	repeat/STIM_010.jpg
817.007	0.52	1	repeat	Run1	repeat/STIM_010.jpg
821.341	0.506	1	repeat	Run1	repeat/STIM_011.jpg
825.067	0.684	1	repeat	Run1	repeat/STIM_011.jpg
828.541	0.508	0	repeat	Run1	repeat/STIM_011.jpg
831.84	0.829	1	repeat	Run1	repeat/STIM_011.jpg
835.931	0.696	1	repeat	Run1	repeat/STIM_011.jpg
839.228	0.57	1	repeat	Run1	repeat/STIM_012.jpg
843.767	0.685	1	repeat	Run1	repeat/STIM_012.jpg
846.663	0.72	1	repeat	Run1	repeat/STIM_012.jpg
849.463	0.932	1	repeat	Run1	repeat/STIM_012.jpg
853.818	0.891	1	repeat	Run1	repeat/STIM_012.jpg
857.617	0.515	1	repeat	Run1	repeat/STIM_013.jpg
860.408	0.509	1	repeat	Run1	repeat/STIM_013.jpg
864.358	0.57	1	repeat	Run1	repeat/STIM_013.jpg
868.33	0.741	1	repeat	Run1	repeat/STIM_013.jpg
871.743	0.631	1	repeat	Run1	repeat/STIM_013.jpg
875.383	0.571	1	repeat	Run1	repeat/STIM_014.jpg
879.775	0.868	1	repeat	Run1	repeat/STIM_014.jpg
884.418	0.911	1	repeat	Run1	repeat/STIM_014.jpg
888.803	0.774	1	repeat	Run1	repeat/STIM_014.jpg
892.584	0.936	1	repeat	Run1	repeat/STIM_014.jpg
897.241	1.325	1	generate	Run2	generate/STIM_000.jpg
901.68	1.062	1	generate	Run2	generate/STIM_000.jpg
905.0	1.097	1	generate	Run2	generate/STIM_000.jpg
909.673	1.88	1	generate	Run2	generate/STIM_000.jpg
913.792	1.657	1	generate	Run2	generate/STIM_000.jpg
918.53	1.922	1	generate	Run2	generate/STIM_001.jpg
923.09	1.073	1	generate	Run2	generate/STIM_001.jpg
928.042	1.005	0	generate	Run2	generate/STIM_001.jpg
932.279	1.419	1	generate	Run2	generate/STIM_001.jpg
937.605	1.65	1	generate	Run2	generate/STIM_001.jpg
941.722	1.335	0	generate	Run2	generate/STIM_002.jpg
946.865	1.853	1	generate	Run2	generate/STIM_002.jpg
952.597	1.796	0	generate	Run2	generate/STIM_002.jpg
957.527	1.077	1	generate	Run2	generate/STIM_002.jpg
961.854	1.483	1	generate	Run2	generate/STIM_002.jpg
965.744	1.873	1	generate	Run2	generate/STIM_003.jpg
970.705	1.585	1	generate	Run2	generate/STIM_003.jpg
975.293	1.191	1	generate	Run2	generate/STIM_003.jpg
979.654	1.292	1	generate	Run2	generate/STIM_003.jpg
984.934	1.939	1	generate	Run2	generate/STIM_003.jpg
989.281	2.435	1	generate	Run2	generate/STIM_004.jpg
993.902	2.195	1	generate	Run2	generate/STIM_004.jpg
998.687	1.994	1	generate	Run2	generate/STIM_004.jpg
1004.261	1.13	1	generate	Run2	generate/STIM_004.jpg
1008.886	1.532	0	generate	Run2	generate/STIM_004.jpg
1014.424	1.489	1	generate	Run2	generate/STIM_005.jpg
1018.111	2.147	1	generate	Run2	generate/STIM_005.jpg
1024.138	0.973	1	generate	Run2	generate/STIM_005.jpg
1028.964	1.499	1	generate	Run2	generate/STIM_005.jpg
1032.609	1.541	1	generate	Run2	generate/STIM_005.jpg
1036.804	1.437	1	generate	Run2	generate/STIM_006.jpg
1042.185	1.674	1	generate	Run2	generate/STIM_006.jpg
1047.248	1.883	1	generate	Run2	generate/STIM_006.jpg
1051.93	0.849	1	generate	Run2	generate/STIM_006.jpg
1055.388	1.857	1	generate	Run2	generate/STIM_006.jpg
1060.166	1.276	1	generate	Run2	generate/STIM_007.jpg
1064.652	1.085	1	generate	Run2	generate/STIM_007.jpg
1069.577	1.914	1	generate	Run2	generate/STIM_007.jpg
1074.522	1.635	1	generate	Run2	generate/STIM_007.jpg
1078.439	1.35	1	generate	Run2	generate/STIM_007.jpg
1083.25	1.673	1	generate	Run2	generate/STIM_008.jpg
1087.682	1.787	1	generate	Run2	generate/STIM_008.jpg
1091.574	1.176	1	generate	Run2	generate/STIM_008.jpg
1096.359	1.36	1	generate	Run2	generate/STIM_008.jpg
1101.741	1.792	1	generate	Run2	generate/STIM_008.jpg
1106.26	1.983	0	generate	Run2	generate/STIM_009.jpg
1111.31	1.796	1	generate	Run2	generate/STIM_009.jpg
1116.247	1.586	1	generate	Run2	generate/STIM_009.jpg
1121.564	1.818	1	generate	Run2	generate/STIM_009.jpg
1127.398	1.771	1	generate	Run2	generate/STIM_009.jpg
1131.698	1.668	1	generate	Run2	generate/STIM_010.jpg
1136.325	1.611	0	generate	Run2	generate/STIM_010.jpg
1141.943	1.83	1	generate	Run2	generate/STIM_010.jpg
1146.677	1.221	1	generate	Run2	generate/STIM_010.jpg
1151.042	1.186	1	generate	Run2	generate/STIM_010.jpg
1155.566	1.943	1	generate	Run2	generate/STIM_011.jpg
1160.711	1.864	1	generate	Run2	generate/STIM_011.jpg
1165.747	1.714	1	generate	Run2	generate/STIM_011.jpg
1170.031	1.523	1	generate	Run2	generate/STIM_011.jpg
1174.13	1.378	1	generate	Run2	generate/STIM_011.jpg
1178.533	2.274	0	generate	Run2	generate/STIM_012.jpg
1183.654	1.927	1	generate	Run2	generate/STIM_012.jpg
1188.774	1.644	1	generate	Run2	generate/STIM_012.jpg
1194.181	0.83	0	generate	Run2	generate/STIM_012.jpg
1198.692	1.627	1	generate	Run2	generate/STIM_012.jpg
1203.401	1.412	0	generate	Run2	generate/STIM_013.jpg
1208.269	1.396	1	generate	Run2	generate/STIM_013.jpg
1211.844	1.029	1	generate	Run2	generate/STIM_013.jpg
1216.891	2.022	1	generate	Run2	generate/STIM_013.jpg
1222.511	1.925	1	generate	Run2	generate/STIM_013.jpg
1227.198	2.44	1	generate	Run2	generate/STIM_014.jpg
1232.503	0.969	0	generate	Run2	generate/STIM_014.jpg
1237.064	2.018	1	generate	Run2	generate/STIM_014.jpg
1241.285	1.7	0	generate	Run2	generate/STIM_014.jpg
1245.213	1.394	1	generate	Run2	generate/STIM_014.jpg
1250.254	2.432	1	generate	Run2	generate/STIM_015.jpg
1255.745	1.0	1	generate	Run2	generate/STIM_015.jpg
1259.652	1.493	1	generate	Run2	generate/STIM_015.jpg
1264.562	2.013	1	generate	Run2	generate/STIM_015.jpg
1269.823	1.81	1	generate	Run2	generate/STIM_015.jpg
1273.725	2.422	1	generate	Run2	generate/STIM_016.jpg
1279.932	2.02	1	generate	Run2	generate/STIM_016.jpg
1285.772	1.119	1	generate	Run2	generate/STIM_016.jpg
1289.543	0.976	0	generate	Run2	generate/STIM_016.jpg
1292.922	1.058	1	generate	Run2	generate/STIM_016.jpg
1296.657	2.38	1	generate	Run2	generate/STIM_017.jpg
1302.789	1.859	1	generate	Run2	generate/STIM_017.jpg
1308.553	1.336	1	generate	Run2	generate/STIM_017.jpg
1313.721	1.184	1	generate	Run2	generate/STIM_017.jpg
1317.417	1.953	0	generate	Run2	generate/STIM_017.jpg
1322.95	2.034	1	generate	Run2	generate/STIM_018.jpg
1327.255	2.223	0	generate	Run2	generate/STIM_018.jpg
1333.128	1.988	0	generate	Run2	generate/STIM_018.jpg
1339.108	1.986	1	generate	Run2	generate/STIM_018.jpg
1344.443	1.776	1	generate	Run2	generate/STIM_018.jpg
1348.339	1.542	1	generate	Run2	generate/STIM_019.jpg
1352.335	2.146	1	generate	Run2	generate/STIM_019.jpg
1358.144	1.539	0	generate	Run2	generate/STIM_019.jpg
1361.812	0.945	1	generate	Run2	generate/STIM_019.jpg
1365.041	1.905	1	generate	Run2	generate/STIM_019.jpg
1369.268	1.018	0	generate	Run2	generate/STIM_020.jpg
1373.601	1.382	1	generate	Run2	generate/STIM_020.jpg
1378.046	1.815	1	generate	Run2	generate/STIM_020.jpg
1383.231	1.41	1	generate	Run2	generate/STIM_020.jpg
1388.116	1.556	1	generate	Run2	generate/STIM_020.jpg
1392.989	1.873	1	generate	Run2	generate/STIM_021.jpg
1397.709	1.858	1	generate	Run2	generate/STIM_021.jpg
1403.429	1.656	1	generate	Run2	generate/STIM_021.jpg
1407.296	1.508	1	generate	Run2	generate/STIM_021.jpg
1411.663	0.997	1	generate	Run2	generate/STIM_021.jpg
1414.872	1.354	1	generate	Run2	generate/STIM_022.jpg
1419.962	1.464	1	generate	Run2	generate/STIM_022.jpg
1423.743	1.195	1	generate	Run2	generate/STIM_022.jpg
1428.608	2.003	0	generate	Run2	generate/STIM_022.jpg
1433.56	0.847	1	generate	Run2	generate/STIM_022.jpg
1437.308	2.213	1	generate	Run2	generate/STIM_023.jpg
1442.003	1.761	1	generate	Run2	generate/STIM_023.jpg
1447.07	0.928	1	generate	Run2	generate/STIM_023.jpg
1450.37	1.958	1	generate	Run2	generate/STIM_023.jpg
1454.948	1.507	1	generate	Run2	generate/STIM_023.jpg
1460.115	0.997	1	generate	Run2	generate/STIM_024.jpg
1463.752	1.48	0	generate	Run2	generate/STIM_024.jpg
1468.764	2.004	1	generate	Run2	generate/STIM_024.jpg
1474.757	1.15	1	generate	Run2	generate/STIM_024.jpg
1478.23	1.226	1	generate	Run2	generate/STIM_024.jpg
1483.226	0.851	0	repeat	Run2	repeat/STIM_000.jpg
1486.745	0.964	1	repeat	Run2	repeat/STIM_000.jpg
1489.801	0.539	1	repeat	Run2	repeat/STIM_000.jpg
1493.945	0.666	1	repeat	Run2	repeat/STIM_000.jpg
1496.641	0.564	1	repeat	Run2	repeat/STIM_000.jpg
1499.93	0.685	0	repeat	Run2	repeat/STIM_001.jpg
1504.526	0.602	1	repeat	Run2	repeat/STIM_001.jpg
1507.968	0.565	1	repeat	Run2	repeat/STIM_001.jpg
1511.259	0.75	1	repeat	Run2	repeat/STIM_001.jpg
1515.507	0.743	1	repeat	Run2	repeat/STIM_001.jpg
1518.582	0.534	1	repeat	Run2	repeat/STIM_002.jpg
1521.959	0.877	1	repeat	Run2	repeat/STIM_002.jpg
1525.397	0.942	1	repeat	Run2	repeat/STIM_002.jpg
1530.34	0.737	1	repeat	Run2	repeat/STIM_002.jpg
1533.837	0.794	1	repeat	Run2	repeat/STIM_002.jpg
1538.05	0.883	1	repeat	Run2	repeat/STIM_003.jpg
1541.173	0.918	1	repeat	Run2	repeat/STIM_003.jpg
1544.691	0.926	0	repeat	Run2	repeat/STIM_003.jpg
1547.864	0.781	1	repeat	Run2	repeat/STIM_003.jpg
1551.153	0.716	1	repeat	Run2	repeat/STIM_003.jpg
1554.247	0.611	1	repeat	Run2	repeat/STIM_004.jpg
1557.433	0.702	1	repeat	Run2	repeat/STIM_004.jpg
1561.808	0.597	1	repeat	Run2	repeat/STIM_004.jpg
1565.007	0.62	1	repeat	Run2	repeat/STIM_004.jpg
1569.528	0.495	1	repeat	Run2	repeat/STIM_004.jpg
1572.758	0.574	1	repeat	Run2	repeat/STIM_005.jpg
1575.923	0.896	1	repeat	Run2	repeat/STIM_005.jpg
1579.523	0.949	1	repeat	Run2	repeat/STIM_005.jpg
1582.957	0.712	1	repeat	Run2	repeat/STIM_005.jpg
1586.712	0.726	1	repeat	Run2	repeat/STIM_005.jpg
1590.311	0.821	1	repeat	Run2	repeat/STIM_006.jpg
1594.754	0.781	0	repeat	Run2	repeat/STIM_006.jpg
1598.615	0.757	1	repeat	Run2	repeat/STIM_006.jpg
1603.113	0.586	1	repeat	Run2	repeat/STIM_006.jpg
1606.675	0.898	1	repeat	Run2	repeat/STIM_006.jpg
1609.974	0.813	1	repeat	Run2	repeat/STIM_007.jpg
1613.146	0.604	1	repeat	Run2	repeat/STIM_007.jpg
1617.043	0.942	1	repeat	Run2	repeat/STIM_007.jpg
1621.483	0.535	1	repeat	Run2	repeat/STIM_007.jpg
1625.881	0.66	1	repeat	Run2	repeat/STIM_007.jpg
1630.47	0.934	1	repeat	Run2	repeat/STIM_008.jpg
1634.349	0.593	1	repeat	Run2	repeat/STIM_008.jpg
1637.0	0.558	1	repeat	Run2	repeat/STIM_008.jpg
1640.48	0.686	1	repeat	Run2	repeat/STIM_008.jpg
1644.606	0.86	0	repeat	Run2	repeat/STIM_008.jpg
1648.72	0.606	1	repeat	Run2	repeat/STIM_009.jpg
1652.65	0.792	1	repeat	Run2	repeat/STIM_009.jpg
1657.391	0.712	1	repeat	Run2	repeat/STIM_009.jpg
1661.59	0.578	1	repeat	Run2	repeat/STIM_009.jpg
1665.072	0.812	1	repeat	Run2	repeat/STIM_009.jpg
1669.26	0.638	1	repeat	Run2	repeat/STIM_010.jpg
1672.751	0.716	1	repeat	Run2	repeat/STIM_010.jpg
1677.129	0.514	1	repeat	Run2	repeat/STIM_010.jpg
1680.769	0.928	1	repeat	Run2	repeat/STIM_010.jpg
1684.845	0.846	1	repeat	Run2	repeat/STIM_010.jpg
1688.683	0.563	1	repeat	Run2	repeat/STIM_011.jpg
1691.357	0.821	1	repeat	Run2	repeat/STIM_011.jpg
1696.182	0.823	1	repeat	Run2	repeat/STIM_011.jpg
1699.062	0.837	1	repeat	Run2	repeat/STIM_011.jpg
1702.334	0.559	1	repeat	Run2	repeat/STIM_011.jpg
1706.756	0.819	1	repeat	Run2	repeat/STIM_012.jpg
1709.717	0.54	0	repeat	Run2	repeat/STIM_012.jpg
1713.164	0.944	1	repeat	Run2	repeat/STIM_012.jpg
1716.893	0.852	1	repeat	Run2	repeat/STIM_012.jpg
1721.509	0.592	1	repeat	Run2	repeat/STIM_012.jpg
1724.673	0.944	1	repeat	Run2	repeat/STIM_013.jpg
1728.631	0.486	1	repeat	Run2	repeat/STIM_013.jpg
1731.565	0.689	1	repeat	Run2	repeat/STIM_013.jpg
1735.674	0.729	1	repeat	Run2	repeat/STIM_013.jpg
1740.004	0.591	1	repeat	Run2	repeat/STIM_013.jpg
1743.532	0.873	1	repeat	Run2	repeat/STIM_014.jpg
1748.252	0.513	1	repeat	Run2	repeat/STIM_014.jpg
1751.018	0.84	1	repeat	Run2	repeat/STIM_014.jpg
1755.272	0.677	1	repeat	Run2	repeat/STIM_014.jpg
1759.033	0.694	1	repeat	Run2	repeat/STIM_014.jpg
1762.539	1.388	1	generate	Run3	generate/STIM_000.jpg
1766.902	1.893	1	generate	Run3	generate/STIM_000.jpg
1771.587	1.931	1	generate	Run3	generate/STIM_000.jpg
1776.954	1.287	1	generate	Run3	generate/STIM_000.jpg
1780.703	0.947	1	generate	Run3	generate/STIM_000.jpg
1784.661	1.744	1	generate	Run3	generate/STIM_001.jpg
1788.638	1.962	1	generate	Run3	generate/STIM_001.jpg
1793.518	0.959	1	generate	Run3	generate/STIM_001.jpg
1796.935	0.953	1	generate	Run3	generate/STIM_001.jpg
1801.897	1.448	1	generate	Run3	generate/STIM_001.jpg
1807.083	1.811	0	generate	Run3	generate/STIM_002.jpg
1811.517	1.64	1	generate	Run3	generate/STIM_002.jpg
1816.843	1.316	1	generate	Run3	generate/STIM_002.jpg
1820.257	0.823	1	generate	Run3	generate/STIM_002.jpg
1823.433	1.766	1	generate	Run3	generate/STIM_002.jpg
1828.297	1.633	1	generate	Run3	generate/STIM_003.jpg
1833.201	1.995	1	generate	Run3	generate/STIM_003.jpg
1838.098	1.652	1	generate	Run3	generate/STIM_003.jpg
1842.011	1.223	1	generate	Run3	generate/STIM_003.jpg
1847.0	0.897	0	generate	Run3	generate/STIM_003.jpg
1850.867	1.046	1	generate	Run3	generate/STIM_004.jpg
1855.919	1.006	1	generate	Run3	generate/STIM_004.jpg
1859.499	0.896	1	generate	Run3	generate/STIM_004.jpg
1863.608	1.471	1	generate	Run3	generate/STIM_004.jpg
1868.781	1.699	1	generate	Run3	generate/STIM_004.jpg
1873.831	1.103	1	generate	Run3	generate/STIM_005.jpg
1877.088	1.31	1	generate	Run3	generate/STIM_005.jpg
1881.01	1.73	1	generate	Run3	generate/STIM_005.jpg
1885.054	1.123	1	generate	Run3	generate/STIM_005.jpg
1889.395	1.718	1	generate	Run3	generate/STIM_005.jpg
1893.947	1.15	0	generate	Run3	generate/STIM_006.jpg
1898.874	1.936	1	generate	Run3	generate/STIM_006.jpg
1903.847	2.009	1	generate	Run3	generate/STIM_006.jpg
1908.517	2.027	1	generate	Run3	generate/STIM_006.jpg
1913.067	1.625	1	generate	Run3	generate/STIM_006.jpg
1918.151	1.338	1	generate	Run3	generate/STIM_007.jpg
1923.506	1.452	1	generate	Run3	generate/STIM_007.jpg
1927.747	1.968	1	generate	Run3	generate/STIM_007.jpg
1932.078	1.88	1	generate	Run3	generate/STIM_007.jpg
1936.223	1.192	0	generate	Run3	generate/STIM_007.jpg
1939.457	0.924	1	generate	Run3	generate/STIM_008.jpg
1942.769	1.192	1	generate	Run3	generate/STIM_008.jpg
1947.251	0.9	1	generate	Run3	generate/STIM_008.jpg
1950.675	1.775	1	generate	Run3	generate/STIM_008.jpg
1955.088	1.204	1	generate	Run3	generate/STIM_008.jpg
1959.294	1.688	1	generate	Run3	generate/STIM_009.jpg
1963.953	1.43	1	generate	Run3	generate/STIM_009.jpg
1967.433	1.942	1	generate	Run3	generate/STIM_009.jpg
1971.818	1.702	1	generate	Run3	generate/STIM_009.jpg
1977.284	1.383	1	generate	Run3	generate/STIM_009.jpg
1982.159	1.252	1	generate	Run3	generate/STIM_010.jpg
1985.519	1.901	1	generate	Run3	generate/STIM_010.jpg
1990.951	1.108	1	generate	Run3	generate/STIM_010.jpg
1995.878	1.585	1	generate	Run3	generate/STIM_010.jpg
2001.242	1.089	1	generate	Run3	generate/STIM_010.jpg
2004.64	1.897	1	generate	Run3	generate/STIM_011.jpg
2009.681	1.466	0	generate	Run3	generate/STIM_011.jpg
2014.431	1.851	1	generate	Run3	generate/STIM_011.jpg
2018.458	0.873	1	generate	Run3	generate/STIM_011.jpg
2022.975	1.643	1	generate	Run3	generate/STIM_011.jpg
2027.025	1.316	1	generate	Run3	generate/STIM_012.jpg
2031.235	1.618	1	generate	Run3	generate/STIM_012.jpg
2035.679	1.6	1	generate	Run3	generate/STIM_012.jpg
2040.245	1.387	1	generate	Run3	generate/STIM_012.jpg
2045.422	1.945	1	generate	Run3	generate/STIM_012.jpg
2051.352	0.881	1	generate	Run3	generate/STIM_013.jpg
2054.309	1.187	1	generate	Run3	generate/STIM_013.jpg
2058.111	1.992	1	generate	Run3	generate/STIM_013.jpg
2063.315	1.861	0	generate	Run3	generate/STIM_013.jpg
2067.369	0.911	0	generate	Run3	generate/STIM_013.jpg
2072.139	0.988	1	generate	Run3	generate/STIM_014.jpg
2075.587	0.937	1	generate	Run3	generate/STIM_014.jpg
2078.881	0.91	1	generate	Run3	generate/STIM_014.jpg
2083.276	1.31	1	generate	Run3	generate/STIM_014.jpg
2087.498	1.809	1	generate	Run3	generate/STIM_014.jpg
2091.407	1.06	0	generate	Run3	generate/STIM_015.jpg
2096.315	1.645	1	generate	Run3	generate/STIM_015.jpg
2100.053	1.522	1	generate	Run3	generate/STIM_015.jpg
2103.791	1.983	1	generate	Run3	generate/STIM_015.jpg
2108.763	1.078	1	generate	Run3	generate/STIM_015.jpg
2112.827	1.544	1	generate	Run3	generate/STIM_016.jpg
2117.283	1.431	1	generate	Run3	generate/STIM_016.jpg
2121.224	1.589	1	generate	Run3	generate/STIM_016.jpg
2125.543	1.219	1	generate	Run3	generate/STIM_016.jpg
2130.44	1.398	1	generate	Run3	generate/STIM_016.jpg
2134.736	1.307	1	generate	Run3	generate/STIM_017.jpg
2140.017	1.443	1	generate	Run3	generate/STIM_017.jpg
2144.226	1.896	1	generate	Run3	generate/STIM_017.jpg
2149.03	1.998	1	generate	Run3	generate/STIM_017.jpg
2153.89	1.806	1	generate	Run3	generate/STIM_017.jpg
2159.753	1.497	1	generate	Run3	generate/STIM_018.jpg
2163.734	1.245	1	generate	Run3	generate/STIM_018.jpg
2167.933	0.974	1	generate	Run3	generate/STIM_018.jpg
2172.503	1.184	1	generate	Run3	generate/STIM_018.jpg
2177.17	0.835	1	generate	Run3	generate/STIM_018.jpg
2181.753	2.002	1	generate	Run3	generate/STIM_019.jpg
2187.536	0.999	1	generate	Run3	generate/STIM_019.jpg
2192.543	1.523	1	generate	Run3	generate/STIM_019.jpg
2197.345	1.03	1	generate	Run3	generate/STIM_019.jpg
2202.347	1.271	1	generate	Run3	generate/STIM_019.jpg
2207.21	0.875	1	generate	Run3	generate/STIM_020.jpg
2210.851	1.856	0	generate	Run3	generate/STIM_020.jpg
2215.954	1.896	1	generate	Run3	generate/STIM_020.jpg
2221.73	1.513	1	generate	Run3	generate/STIM_020.jpg
2226.17	1.145	1	generate	Run3	generate/STIM_020.jpg
2229.456	1.542	1	generate	Run3	generate/STIM_021.jpg
2234.823	1.294	1	generate	Run3	generate/STIM_021.jpg
2239.034	1.604	1	generate	Run3	generate/STIM_021.jpg
2243.324	1.706	1	generate	Run3	generate/STIM_021.jpg
2247.902	2.006	1	generate	Run3	generate/STIM_021.jpg
2252.835	1.684	1	generate	Run3	generate/STIM_022.jpg
2258.448	1.263	1	generate	Run3	generate/STIM_022.jpg
2262.719	1.364	0	generate	Run3	generate/STIM_022.jpg
2267.217	0.862	1	generate	Run3	generate/STIM_022.jpg
2271.363	1.017	1	generate	Run3	generate/STIM_022.jpg
2275.144	1.311	1	generate	Run3	generate/STIM_023.jpg
2279.854	1.903	1	generate	Run3	generate/STIM_023.jpg
2284.806	1.575	1	generate	Run3	generate/STIM_023.jpg
2288.538	1.54	1	generate	Run3	generate/STIM_023.jpg
2292.61	2.03	1	generate	Run3	generate/STIM_023.jpg
2296.744	1.592	1	generate	Run3	generate/STIM_024.jpg
2301.233	2.01	1	generate	Run3	generate/STIM_024.jpg
2306.607	1.133	0	generate	Run3	generate/STIM_024.jpg
2311.311	0.836	1	generate	Run3	generate/STIM_024.jpg
2314.885	2.007	1	generate	Run3	generate/STIM_024.jpg
2319.453	0.57	1	repeat	Run3	repeat/STIM_000.jpg
2322.995	0.837	1	repeat	Run3	repeat/STIM_000.jpg
2327.176	0.52	1	repeat	Run3	repeat/STIM_000.jpg
2330.556	0.788	1	repeat	Run3	repeat/STIM_000.jpg
2333.462	0.778	0	repeat	Run3	repeat/STIM_000.jpg
2337.36	0.938	1	repeat	Run3	repeat/STIM_001.jpg
2341.627	0.801	1	repeat	Run3	repeat/STIM_001.jpg
2345.442	0.656	1	repeat	Run3	repeat/STIM_001.jpg
2349.257	0.818	1	repeat	Run3	repeat/STIM_001.jpg
2352.275	0.77	1	repeat	Run3	repeat/STIM_001.jpg
2356.221	0.49	1	repeat	Run3	repeat/STIM_002.jpg
2359.278	0.863	1	repeat	Run3	repeat/STIM_002.jpg
2363.344	0.598	1	repeat	Run3	repeat/STIM_002.jpg
2367.279	0.852	1	repeat	Run3	repeat/STIM_002.jpg
2370.988	0.648	1	repeat	Run3	repeat/STIM_002.jpg
2374.144	0.856	1	repeat	Run3	repeat/STIM_003.jpg
2378.711	0.507	1	repeat	Run3	repeat/STIM_003.jpg
2382.928	0.561	1	repeat	Run3	repeat/STIM_003.jpg
2387.019	0.572	1	repeat	Run3	repeat/STIM_003.jpg
2390.757	0.768	1	repeat	Run3	repeat/STIM_003.jpg
2394.809	0.881	1	repeat	Run3	repeat/STIM_004.jpg
2398.136	0.878	1	repeat	Run3	repeat/STIM_004.jpg
2401.201	0.615	1	repeat	Run3	repeat/STIM_004.jpg
2404.91	0.779	1	repeat	Run3	repeat/STIM_004.jpg
2408.099	0.634	1	repeat	Run3	repeat/STIM_004.jpg
2412.525	0.836	1	repeat	Run3	repeat/STIM_005.jpg
2415.481	0.728	1	repeat	Run3	repeat/STIM_005.jpg
2419.539	0.623	0	repeat	Run3	repeat/STIM_005.jpg
2422.784	0.551	1	repeat	Run3	repeat/STIM_005.jpg
2425.615	0.902	1	repeat	Run3	repeat/STIM_005.jpg
2429.499	0.51	1	repeat	Run3	repeat/STIM_006.jpg
2432.299	0.825	1	repeat	Run3	repeat/STIM_006.jpg
2436.426	0.58	1	repeat	Run3	repeat/STIM_006.jpg
2440.166	0.952	1	repeat	Run3	repeat/STIM_006.jpg
2444.256	0.631	1	repeat	Run3	repeat/STIM_006.jpg
2447.105	0.853	1	repeat	Run3	repeat/STIM_007.jpg
2451.238	0.822	1	repeat	Run3	repeat/STIM_007.jpg
2455.092	0.569	1	repeat	Run3	repeat/STIM_007.jpg
2458.86	0.614	1	repeat	Run3	repeat/STIM_007.jpg
2461.779	0.704	1	repeat	Run3	repeat/STIM_007.jpg
2464.554	0.688	1	repeat	Run3	repeat/STIM_008.jpg
2467.403	0.964	1	repeat	Run3	repeat/STIM_008.jpg
2470.513	0.78	1	repeat	Run3	repeat/STIM_008.jpg
2474.873	0.784	0	repeat	Run3	repeat/STIM_008.jpg
2478.293	0.643	1	repeat	Run3	repeat/STIM_008.jpg
2482.335	0.527	1	repeat	Run3	repeat/STIM_009.jpg
2486.032	0.68	1	repeat	Run3	repeat/STIM_009.jpg
2490.39	0.58	1	repeat	Run3	repeat/STIM_009.jpg
2493.696	0.648	1	repeat	Run3	repeat/STIM_009.jpg
2496.824	0.492	1	repeat	Run3	repeat/STIM_009.jpg
2500.983	0.614	1	repeat	Run3	repeat/STIM_010.jpg
2503.907	0.671	1	repeat	Run3	repeat/STIM_010.jpg
2508.213	0.68	1	repeat	Run3	repeat/STIM_010.jpg
2511.024	0.929	1	repeat	Run3	repeat/STIM_010.jpg
2514.017	0.598	1	repeat	Run3	repeat/STIM_010.jpg
2517.154	0.874	1	repeat	Run3	repeat/STIM_011.jpg
2521.745	0.673	1	repeat	Run3	repeat/STIM_011.jpg
2525.513	0.571	1	repeat	Run3	repeat/STIM_011.jpg
2528.428	0.59	1	repeat	Run3	repeat/STIM_011.jpg
2532.603	0.822	1	repeat	Run3	repeat/STIM_011.jpg
2536.04	0.753	1	repeat	Run3	repeat/STIM_012.jpg
2540.177	0.82	1	repeat	Run3	repeat/STIM_012.jpg
2543.261	0.523	1	repeat	Run3	repeat/STIM_012.jpg
2547.025	0.606	1	repeat	Run3	repeat/STIM_012.jpg
2550.934	0.961	1	repeat	Run3	repeat/STIM_012.jpg
2555.905	0.556	1	repeat	Run3	repeat/STIM_013.jpg
2560.131	0.67	1	repeat	Run3	repeat/STIM_013.jpg
2563.032	0.542	1	repeat	Run3	repeat/STIM_013.jpg
2565.977	0.834	1	repeat	Run3	repeat/STIM_013.jpg
2569.584	0.506	1	repeat	Run3	repeat/STIM_013.jpg
2573.38	0.612	1	repeat	Run3	repeat/STIM_014.jpg
2576.878	0.593	1	repeat	Run3	repeat/STIM_014.jpg
2580.269	0.827	1	repeat	Run3	repeat/STIM_014.jpg
2583.48	0.795	1	repeat	Run3	repeat/STIM_014.jpg
2586.491	0.629	0	repeat	Run3	repeat/STIM_014.jpg
2590.049	1.805	0	generate	Run4	generate/STIM_000.jpg
2595.146	1.223	1	generate	Run4	generate/STIM_000.jpg
2599.887	1.994	1	generate	Run4	generate/STIM_000.jpg
2605.18	1.594	1	generate	Run4	generate/STIM_000.jpg
2610.558	1.955	1	generate	Run4	generate/STIM_000.jpg
2616.325	1.939	1	generate	Run4	generate/STIM_001.jpg
2620.441	1.078	1	generate	Run4	generate/STIM_001.jpg
2625.321	1.828	1	generate	Run4	generate/STIM_001.jpg
2631.006	1.939	1	generate	Run4	generate/STIM_001.jpg
2635.053	1.189	1	generate	Run4	generate/STIM_001.jpg
2639.564	0.979	1	generate	Run4	generate/STIM_002.jpg
2644.373	1.637	1	generate	Run4	generate/STIM_002.jpg
2648.971	1.686	1	generate	Run4	generate/STIM_002.jpg
2653.774	1.656	1	generate	Run4	generate/STIM_002.jpg
2658.473	1.656	1	generate	Run4	generate/STIM_002.jpg
2663.599	1.796	1	generate	Run4	generate/STIM_003.jpg
2667.9	1.451	1	generate	Run4	generate/STIM_003.jpg
2673.322	2.01	1	generate	Run4	generate/STIM_003.jpg
2677.994	1.924	1	generate	Run4	generate/STIM_003.jpg
2683.739	0.898	1	generate	Run4	generate/STIM_003.jpg
2687.567	1.917	1	generate	Run4	generate/STIM_004.jpg
2691.711	1.838	1	generate	Run4	generate/STIM_004.jpg
2695.767	1.672	1	generate	Run4	generate/STIM_004.jpg
2699.994	1.83	1	generate	Run4	generate/STIM_004.jpg
2705.126	1.931	1	generate	Run4	generate/STIM_004.jpg
2710.94	1.122	1	generate	Run4	generate/STIM_005.jpg
2715.046	1.615	1	generate	Run4	generate/STIM_005.jpg
2720.153	1.768	1	generate	Run4	generate/STIM_005.jpg
2725.372	0.848	1	generate	Run4	generate/STIM_005.jpg
2730.087	1.517	1	generate	Run4	generate/STIM_005.jpg
2734.452	1.857	1	generate	Run4	generate/STIM_006.jpg
2740.201	0.839	1	generate	Run4	generate/STIM_006.jpg
2743.436	1.267	1	generate	Run4	generate/STIM_006.jpg
2748.312	1.41	0	generate	Run4	generate/STIM_006.jpg
2752.334	1.77	1	generate	Run4	generate/STIM_006.jpg
2757.158	1.547	1	generate	Run4	generate/STIM_007.jpg
2762.592	1.224	1	generate	Run4	generate/STIM_007.jpg
2766.194	1.38	1	generate	Run4	generate/STIM_007.jpg
2769.844	1.815	1	generate	Run4	generate/STIM_007.jpg
2774.739	1.016	1	generate	Run4	generate/STIM_007.jpg
2778.567	0.893	1	generate	Run4	generate/STIM_008.jpg
2782.558	1.969	1	generate	Run4	generate/STIM_008.jpg
2788.58	0.831	1	generate	Run4	generate/STIM_008.jpg
2792.272	2.015	1	generate	Run4	generate/STIM_008.jpg
2797.425	1.172	1	generate	Run4	generate/STIM_008.jpg
2801.598	1.633	1	generate	Run4	generate/STIM_009.jpg
2805.519	1.586	1	generate	Run4	generate/STIM_009.jpg
2809.838	1.917	1	generate	Run4	generate/STIM_009.jpg
2815.616	1.414	1	generate	Run4	generate/STIM_009.jpg
2820.838	0.947	1	generate	Run4	generate/STIM_009.jpg
2825.591	0.869	1	generate	Run4	generate/STIM_010.jpg
2829.263	0.904	1	generate	Run4	generate/STIM_010.jpg
2832.935	1.653	1	generate	Run4	generate/STIM_010.jpg
2836.88	1.387	1	generate	Run4	generate/STIM_010.jpg
2840.925	1.875	1	generate	Run4	generate/STIM_010.jpg
2846.402	1.841	1	generate	Run4	generate/STIM_011.jpg
2850.852	1.512	1	generate	Run4	generate/STIM_011.jpg
2855.022	1.062	1	generate	Run4	generate/STIM_011.jpg
2859.023	1.828	1	generate	Run4	generate/STIM_011.jpg
2863.763	1.907	1	generate	Run4	generate/STIM_011.jpg
2867.943	1.494	1	generate	Run4	generate/STIM_012.jpg
2872.93	1.451	1	generate	Run4	generate/STIM_012.jpg
2878.404	1.283	1	generate	Run4	generate/STIM_012.jpg
2883.611	1.041	1	generate	Run4	generate/STIM_012.jpg
2887.687	0.837	1	generate	Run4	generate/STIM_012.jpg
2892.135	1.623	1	generate	Run4	generate/STIM_013.jpg
2897.714	1.823	1	generate	Run4	generate/STIM_013.jpg
2902.676	1.893	0	generate	Run4	generate/STIM_013.jpg
2908.418	1.138	1	generate	Run4	generate/STIM_013.jpg
2911.627	0.965	1	generate	Run4	generate/STIM_013.jpg
2915.024	1.283	1	generate	Run4	generate/STIM_014.jpg
2918.93	1.832	1	generate	Run4	generate/STIM_014.jpg
2923.674	1.64	1	generate	Run4	generate/STIM_014.jpg
2928.854	1.251	1	generate	Run4	generate/STIM_014.jpg
2933.199	1.431	1	generate	Run4	generate/STIM_014.jpg
2938.362	1.889	1	generate	Run4	generate/STIM_015.jpg
2943.577	2.018	1	generate	Run4	generate/STIM_015.jpg
2948.418	1.475	1	generate	Run4	generate/STIM_015.jpg
2953.204	1.794	1	generate	Run4	generate/STIM_015.jpg
2957.884	1.784	1	generate	Run4	generate/STIM_015.jpg
2963.53	1.545	1	generate	Run4	generate/STIM_016.jpg
2968.909	1.381	1	generate	Run4	generate/STIM_016.jpg
2972.457	0.954	1	generate	Run4	generate/STIM_016.jpg
2975.688	1.716	1	generate	Run4	generate/STIM_016.jpg
2980.564	1.329	1	generate	Run4	generate/STIM_016.jpg
2984.672	1.673	1	generate	Run4	generate/STIM_017.jpg
2990.367	1.184	1	generate	Run4	generate/STIM_017.jpg
2994.086	1.619	1	generate	Run4	generate/STIM_017.jpg
2998.952	2.026	1	generate	Run4	generate/STIM_017.jpg
3004.079	1.294	1	generate	Run4	generate/STIM_017.jpg
3008.004	1.381	1	generate	Run4	generate/STIM_018.jpg
3013.277	1.93	1	generate	Run4	generate/STIM_018.jpg
3018.652	1.087	1	generate	Run4	generate/STIM_018.jpg
3022.555	1.605	1	generate	Run4	generate/STIM_018.jpg
3028.112	1.572	1	generate	Run4	generate/STIM_018.jpg
3033.109	0.948	1	generate	Run4	generate/STIM_019.jpg
3036.852	0.941	1	generate	Run4	generate/STIM_019.jpg
3039.841	1.783	0	generate	Run4	generate/STIM_019.jpg
3043.691	0.823	1	generate	Run4	generate/STIM_019.jpg
3047.574	0.916	1	generate	Run4	generate/STIM_019.jpg
3051.052	1.58	1	generate	Run4	generate/STIM_020.jpg
3056.118	1.711	1	generate	Run4	generate/STIM_020.jpg
3060.245	1.752	1	generate	Run4	generate/STIM_020.jpg
3064.605	1.384	1	generate	Run4	generate/STIM_020.jpg
3068.747	1.083	1	generate	Run4	generate/STIM_020.jpg
3072.056	1.153	1	generate	Run4	generate/STIM_021.jpg
3077.167	1.821	1	generate	Run4	generate/STIM_021.jpg
3082.652	1.434	1	generate	Run4	generate/STIM_021.jpg
3087.407	1.062	1	generate	Run4	generate/STIM_021.jpg
3092.276	1.125	1	generate	Run4	generate/STIM_021.jpg
3096.283	1.405	1	generate	Run4	generate/STIM_022.jpg
3101.531	1.152	1	generate	Run4	generate/STIM_022.jpg
3105.431	1.21	1	generate	Run4	generate/STIM_022.jpg
3109.883	1.354	1	generate	Run4	generate/STIM_022.jpg
3114.159	1.298	1	generate	Run4	generate/STIM_022.jpg
3119.015	1.133	1	generate	Run4	generate/STIM_023.jpg
3123.932	1.616	1	generate	Run4	generate/STIM_023.jpg
3129.206	1.504	0	generate	Run4	generate/STIM_023.jpg
3134.163	1.31	1	generate	Run4	generate/STIM_023.jpg
3138.839	1.225	1	generate	Run4	generate/STIM_023.jpg
3143.071	1.426	1	generate	Run4	generate/STIM_024.jpg
3147.805	1.477	1	generate	Run4	generate/STIM_024.jpg
3152.322	1.27	1	generate	Run4	generate/STIM_024.jpg
3155.812	1.085	1	generate	Run4	generate/STIM_024.jpg
3159.724	1.422	1	generate	Run4	generate/STIM_024.jpg
3164.095	0.725	1	repeat	Run4	repeat/STIM_000.jpg
3168.535	0.579	1	repeat	Run4	repeat/STIM_000.jpg
3172.599	0.706	1	repeat	Run4	repeat/STIM_000.jpg
3176.856	0.76	1	repeat	Run4	repeat/STIM_000.jpg
3181.41	0.774	1	repeat	Run4	repeat/STIM_000.jpg
3185.547	0.8	1	repeat	Run4	repeat/STIM_001.jpg
3189.554	0.836	1	repeat	Run4	repeat/STIM_001.jpg
3193.678	0.526	1	repeat	Run4	repeat/STIM_001.jpg
3197.184	0.606	1	repeat	Run4	repeat/STIM_001.jpg
3200.306	0.899	1	repeat	Run4	repeat/STIM_001.jpg
3203.923	0.685	1	repeat	Run4	repeat/STIM_002.jpg
3208.389	0.903	1	repeat	Run4	repeat/STIM_002.jpg
3212.702	0.672	1	repeat	Run4	repeat/STIM_002.jpg
3215.647	0.598	1	repeat	Run4	repeat/STIM_002.jpg
3219.66	0.54	1	repeat	Run4	repeat/STIM_002.jpg
3223.28	0.486	1	repeat	Run4	repeat/STIM_003.jpg
3226.247	0.927	1	repeat	Run4	repeat/STIM_003.jpg
3230.265	0.729	1	repeat	Run4	repeat/STIM_003.jpg
3233.322	0.486	1	repeat	Run4	repeat/STIM_003.jpg
3237.756	0.507	1	repeat	Run4	repeat/STIM_003.jpg
3240.662	0.596	1	repeat	Run4	repeat/STIM_004.jpg
3243.692	0.815	1	repeat	Run4	repeat/STIM_004.jpg
3247.156	0.959	1	repeat	Run4	repeat/STIM_004.jpg
3250.342	0.835	1	repeat	Run4	repeat/STIM_004.jpg
3254.232	0.846	1	repeat	Run4	repeat/STIM_004.jpg
3258.855	0.636	1	repeat	Run4	repeat/STIM_005.jpg
3262.575	0.845	1	repeat	Run4	repeat/STIM_005.jpg
3267.224	0.675	1	repeat	Run4	repeat/STIM_005.jpg
3271.268	0.633	1	repeat	Run4	repeat/STIM_005.jpg
3275.765	0.965	1	repeat	Run4	repeat/STIM_005.jpg
3279.33	0.585	1	repeat	Run4	repeat/STIM_006.jpg
3282.464	0.54	1	repeat	Run4	repeat/STIM_006.jpg
3285.698	0.548	1	repeat	Run4	repeat/STIM_006.jpg
3288.62	0.83	0	repeat	Run4	repeat/STIM_006.jpg
3291.669	0.651	1	repeat	Run4	repeat/STIM_006.jpg
3294.862	0.688	1	repeat	Run4	repeat/STIM_007.jpg
3298.301	0.887	0	repeat	Run4	repeat/STIM_007.jpg
3302.362	0.549	1	repeat	Run4	repeat/STIM_007.jpg
3306.248	0.549	1	repeat	Run4	repeat/STIM_007.jpg
3309.576	0.706	0	repeat	Run4	repeat/STIM_007.jpg
3313.135	0.565	1	repeat	Run4	repeat/STIM_008.jpg
3316.292	0.565	1	repeat	Run4	repeat/STIM_008.jpg
3319.943	0.733	1	repeat	Run4	repeat/STIM_008.jpg
3322.893	0.822	1	repeat	Run4	repeat/STIM_008.jpg
3326.521	0.485	0	repeat	Run4	repeat/STIM_008.jpg
3330.45	0.798	1	repeat	Run4	repeat/STIM_009.jpg
3335.036	0.57	1	repeat	Run4	repeat/STIM_009.jpg
3338.988	0.662	1	repeat	Run4	repeat/STIM_009.jpg
3343.509	0.6	1	repeat	Run4	repeat/STIM_009.jpg
3347.951	0.643	1	repeat	Run4	repeat/STIM_009.jpg
3350.891	0.941	1	repeat	Run4	repeat/STIM_010.jpg
3354.505	0.568	1	repeat	Run4	repeat/STIM_010.jpg
3358.288	0.707	1	repeat	Run4	repeat/STIM_010.jpg
3362.415	0.829	1	repeat	Run4	repeat/STIM_010.jpg
3366.615	0.913	1	repeat	Run4	repeat/STIM_010.jpg
3370.58	0.637	1	repeat	Run4	repeat/STIM_011.jpg
3373.403	0.857	1	repeat	Run4	repeat/STIM_011.jpg
3378.108	0.961	1	repeat	Run4	repeat/STIM_011.jpg
3382.462	0.539	1	repeat	Run4	repeat/STIM_011.jpg
3385.602	0.497	1	repeat	Run4	repeat/STIM_011.jpg
3389.045	0.651	1	repeat	Run4	repeat/STIM_012.jpg
3392.236	0.653	1	repeat	Run4	repeat/STIM_012.jpg
3395.884	0.879	1	repeat	Run4	repeat/STIM_012.jpg
3398.833	0.622	1	repeat	Run4	repeat/STIM_012.jpg
3403.404	0.884	1	repeat	Run4	repeat/STIM_012.jpg
3407.54	0.518	1	repeat	Run4	repeat/STIM_013.jpg
3411.689	0.905	1	repeat	Run4	repeat/STIM_013.jpg
3415.487	0.565	1	repeat	Run4	repeat/STIM_013.jpg
3419.397	0.693	1	repeat	Run4	repeat/STIM_013.jpg
3424.112	0.828	1	repeat	Run4	repeat/STIM_013.jpg
3427.399	0.5	1	repeat	Run4	repeat/STIM_014.jpg
3430.531	0.669	1	repeat	Run4	repeat/STIM_014.jpg
3433.382	0.628	1	repeat	Run4	repeat/STIM_014.jpg
3437.58	0.717	1	repeat	Run4	repeat/STIM_014.jpg
3442.115	0.913	1	repeat	Run4	repeat/STIM_014.jpg
