onset	duration	accuracy_binary	trial_type	learning_stage	stimulus
0.0	1.796	1	generate	Run1	generate/STIM_000.jpg
5.767	2.431	1	generate	Run1	generate/STIM_000.jpg
11.008	1.592	1	generate	Run1	generate/STIM_000.jpg
15.218	1.003	0	generate	Run1	generate/STIM_000.jpg
19.237	1.287	0	generate	Run1	generate/STIM_000.jpg
24.385	2.123	0	generate	Run1	generate/STIM_001.jpg
30.504	1.59	1	generate	Run1	generate/STIM_001.jpg
34.325	1.634	1	generate	Run1	generate/STIM_001.jpg
38.096	1.088	1	generate	Run1	generate/STIM_001.jpg
41.491	1.416	1	generate	Run1	generate/STIM_001.jpg
45.567	2.583	0	generate	Run1	generate/STIM_002.jpg
50.851	2.556	1	generate	Run1	generate/STIM_002.jpg
56.13	2.4	1	generate	Run1	generate/STIM_002.jpg
60.537	1.246	1	generate	Run1	generate/STIM_002.jpg
64.46	1.565	1	generate	Run1	generate/STIM_002.jpg
68.577	1.366	0	generate	Run1	generate/STIM_003.jpg
72.625	2.322	1	generate	Run1	generate/STIM_003.jpg
78.046	1.058	1	generate	Run1	generate/STIM_003.jpg
82.971	1.935	1	generate	Run1	generate/STIM_003.jpg
87.202	1.033	1	generate	Run1	generate/STIM_003.jpg
91.511	2.088	1	generate	Run1	generate/STIM_004.jpg
96.265	2.487	0	generate	Run1	generate/STIM_004.jpg
102.638	2.284	1	generate	Run1	generate/STIM_004.jpg
107.688	1.571	1	generate	Run1	generate/STIM_004.jpg
112.258	1.613	0	generate	Run1	generate/STIM_004.jpg
116.267	2.127	0	generate	Run1	generate/STIM_005.jpg
121.673	2.218	1	generate	Run1	generate/STIM_005.jpg
127.498	1.5	1	generate	Run1	generate/STIM_005.jpg
132.532	2.164	1	generate	Run1	generate/STIM_005.jpg
138.463	1.617	1	generate	Run1	generate/STIM_005.jpg
143.276	1.272	0	generate	Run1	generate/STIM_006.jpg
147.711	1.849	1	generate	Run1	generate/STIM_006.jpg
153.326	1.979	1	generate	Run1	generate/STIM_006.jpg
157.901	1.186	0	generate	Run1	generate/STIM_006.jpg
162.097	1.598	1	generate	Run1	generate/STIM_006.jpg
165.769	1.269	1	generate	Run1	generate/STIM_007.jpg
169.85	1.347	0	generate	Run1	generate/STIM_007.jpg
174.877	1.562	1	generate	Run1	generate/STIM_007.jpg
179.378	1.129	1	generate	Run1	generate/STIM_007.jpg
182.81	1.505	1	generate	Run1	generate/STIM_007.jpg
187.401	1.632	1	generate	Run1	generate/STIM_008.jpg
191.166	1.446	1	generate	Run1	generate/STIM_008.jpg
195.222	1.972	1	generate	Run1	generate/STIM_008.jpg
200.211	1.918	1	generate	Run1	generate/STIM_008.jpg
205.216	2.182	0	generate	Run1	generate/STIM_008.jpg
209.777	1.867	1	generate	Run1	generate/STIM_009.jpg
214.315	1.177	0	generate	Run1	generate/STIM_009.jpg
217.952	1.691	1	generate	Run1	generate/STIM_009.jpg
223.133	1.083	1	generate	Run1	generate/STIM_009.jpg
226.569	1.924	1	generate	Run1	generate/STIM_009.jpg
232.206	2.277	1	generate	Run1	generate/STIM_010.jpg
236.5	1.16	1	generate	Run1	generate/STIM_010.jpg
241.635	1.363	0	generate	Run1	generate/STIM_010.jpg
245.557	1.491	1	generate	Run1	generate/STIM_010.jpg
250.971	0.932	1	generate	Run1	generate/STIM_010.jpg
255.294	1.617	1	generate	Run1	generate/STIM_011.jpg
259.67	1.91	1	generate	Run1	generate/STIM_011.jpg
263.71	1.482	1	generate	Run1	generate/STIM_011.jpg
267.611	1.843	1	generate	Run1	generate/STIM_011.jpg
272.337	1.314	1	generate	Run1	generate/STIM_011.jpg
277.071	1.813	0	generate	Run1	generate/STIM_012.jpg
282.192	1.895	0	generate	Run1	generate/STIM_012.jpg
286.32	1.667	1	generate	Run1	generate/STIM_012.jpg
290.445	1.875	0	generate	Run1	generate/STIM_012.jpg
295.425	2.243	1	generate	Run1	generate/STIM_012.jpg
300.222	1.173	1	generate	Run1	generate/STIM_013.jpg
304.595	1.75	1	generate	Run1	generate/STIM_013.jpg
309.383	1.523	0	generate	Run1	generate/STIM_013.jpg
314.737	2.254	1	generate	Run1	generate/STIM_013.jpg
320.767	1.354	1	generate	Run1	generate/STIM_013.jpg
325.177	2.326	1	generate	Run1	generate/STIM_014.jpg
330.886	1.566	1	generate	Run1	generate/STIM_014.jpg
334.614	1.666	1	generate	Run1	generate/STIM_014.jpg
339.007	1.991	1	generate	Run1	generate/STIM_014.jpg
343.515	2.248	1	generate	Run1	generate/STIM_014.jpg
349.26	2.268	1	generate	Run1	generate/STIM_015.jpg
354.781	2.562	1	generate	Run1	generate/STIM_015.jpg
360.451	1.292	0	generate	Run1	generate/STIM_015.jpg
365.643	1.349	1	generate	Run1	generate/STIM_015.jpg
370.728	1.054	1	generate	Run1	generate/STIM_015.jpg
374.267	2.76	1	generate	Run1	generate/STIM_016.jpg
380.442	1.525	0	generate	Run1	generate/STIM_016.jpg
385.607	1.291	0	generate	Run1	generate/STIM_016.jpg
389.321	1.117	1	generate	Run1	generate/STIM_016.jpg
394.327	1.547	1	generate	Run1	generate/STIM_016.jpg
399.659	2.626	1	generate	Run1	generate/STIM_017.jpg
405.454	1.144	1	generate	Run1	generate/STIM_017.jpg
409.738	1.277	1	generate	Run1	generate/STIM_017.jpg
413.885	1.619	0	generate	Run1	generate/STIM_017.jpg
418.073	1.591	1	generate	Run1	generate/STIM_017.jpg
423.228	1.384	0	generate	Run1	generate/STIM_018.jpg
427.489	1.496	0	generate	Run1	generate/STIM_018.jpg
432.718	2.452	1	generate	Run1	generate/STIM_018.jpg
438.691	2.342	1	generate	Run1	generate/STIM_018.jpg
444.349	2.147	1	generate	Run1	generate/STIM_018.jpg
450.199	2.566	1	generate	Run1	generate/STIM_019.jpg
454.809	1.078	1	generate	Run1	generate/STIM_019.jpg
459.266	1.345	0	generate	Run1	generate/STIM_019.jpg
464.554	1.76	0	generate	Run1	generate/STIM_019.jpg
469.245	1.795	0	generate	Run1	generate/STIM_019.jpg
473.412	2.198	1	generate	Run1	generate/STIM_020.jpg
478.225	1.893	1	generate	Run1	generate/STIM_020.jpg
482.831	1.156	1	generate	Run1	generate/STIM_020.jpg
486.399	1.826	1	generate	Run1	generate/STIM_020.jpg
492.107	1.342	1	generate	Run1	generate/STIM_020.jpg
497.048	2.458	1	generate	Run1	generate/STIM_021.jpg
502.853	2.662	0	generate	Run1	generate/STIM_021.jpg
507.872	1.133	1	generate	Run1	generate/STIM_021.jpg
511.247	1.986	1	generate	Run1	generate/STIM_021.jpg
516.828	1.705	0	generate	Run1	generate/STIM_021.jpg
522.179	1.215	1	generate	Run1	generate/STIM_022.jpg
525.673	1.659	0	generate	Run1	generate/STIM_022.jpg
529.631	2.188	1	generate	Run1	generate/STIM_022.jpg
534.791	1.44	1	generate	Run1	generate/STIM_022.jpg
538.94	1.177	1	generate	Run1	generate/STIM_022.jpg
543.565	2.007	1	generate	Run1	generate/STIM_023.jpg
548.178	2.452	0	generate	Run1	generate/STIM_023.jpg
553.874	2.027	1	generate	Run1	generate/STIM_023.jpg
558.519	2.261	1	generate	Run1	generate/STIM_023.jpg
564.168	1.235	1	generate	Run1	generate/STIM_023.jpg
569.258	1.213	1	generate	Run1	generate/STIM_024.jpg
573.371	1.37	0	generate	Run1	generate/STIM_024.jpg
576.953	1.437	0	generate	Run1	generate/STIM_024.jpg
580.71	1.273	1	generate	Run1	generate/STIM_024.jpg
584.265	1.81	0	generate	Run1	generate/STIM_024.jpg
589.865	0.769	1	repeat	Run1	repeat/STIM_000.jpg
593.452	0.87	1	repeat	Run1	repeat/STIM_000.jpg
596.999	0.781	1	repeat	Run1	repeat/STIM_000.jpg
600.16	0.774	1	repeat	Run1	repeat/STIM_000.jpg
603.583	0.87	0	repeat	Run1	repeat/STIM_000.jpg
608.174	0.924	1	repeat	Run1	repeat/STIM_001.jpg
612.838	0.747	1	repeat	Run1	repeat/STIM_001.jpg
616.576	0.745	1	repeat	Run1	repeat/STIM_001.jpg
619.482	0.884	0	repeat	Run1	repeat/STIM_001.jpg
623.539	0.62	1	repeat	Run1	repeat/STIM_001.jpg
627.718	0.628	1	repeat	Run1	repeat/STIM_002.jpg
630.974	0.737	1	repeat	Run1	repeat/STIM_002.jpg
634.354	0.856	1	repeat	Run1	repeat/STIM_002.jpg
637.91	0.896	1	repeat	Run1	repeat/STIM_002.jpg
642.576	0.781	1	repeat	Run1	repeat/STIM_002.jpg
646.843	0.592	1	repeat	Run1	repeat/STIM_003.jpg
650.042	0.588	1	repeat	Run1	repeat/STIM_003.jpg
653.04	0.834	1	repeat	Run1	repeat/STIM_003.jpg
656.027	0.721	1	repeat	Run1	repeat/STIM_003.jpg
659.314	0.622	1	repeat	Run1	repeat/STIM_003.jpg
662.617	0.694	1	repeat	Run1	repeat/STIM_004.jpg
665.602	0.597	1	repeat	Run1	repeat/STIM_004.jpg
670.119	0.481	1	repeat	Run1	repeat/STIM_004.jpg
673.307	0.823	1	repeat	Run1	repeat/STIM_004.jpg
677.176	0.491	1	repeat	Run1	repeat/STIM_004.jpg
681.2	0.822	1	repeat	Run1	repeat/STIM_005.jpg
685.557	0.666	0	repeat	Run1	repeat/STIM_005.jpg
688.564	0.597	1	repeat	Run1	repeat/STIM_005.jpg
692.576	0.505	1	repeat	Run1	repeat/STIM_005.jpg
695.511	0.511	1	repeat	Run1	repeat/STIM_005.jpg
698.922	0.751	1	repeat	Run1	repeat/STIM_006.jpg
702.901	0.535	1	repeat	Run1	repeat/STIM_006.jpg
706.337	0.642	1	repeat	Run1	repeat/STIM_006.jpg
710.976	0.616	1	repeat	Run1	repeat/STIM_006.jpg
715.155	0.56	1	repeat	Run1	repeat/STIM_006.jpg
718.455	0.839	1	repeat	Run1	repeat/STIM_007.jpg
723.242	0.867	1	repeat	Run1	repeat/STIM_007.jpg
726.236	0.765	1	repeat	Run1	repeat/STIM_007.jpg
730.479	0.736	0	repeat	Run1	repeat/STIM_007.jpg
733.562	0.5	1	repeat	Run1	repeat/STIM_007.jpg
736.078	0.902	1	repeat	Run1	repeat/STIM_008.jpg
740.271	0.859	1	repeat	Run1	repeat/STIM_008.jpg
743.554	0.531	1	repeat	Run1	repeat/STIM_008.jpg
747.53	0.802	1	repeat	Run1	repeat/STIM_008.jpg
752.143	0.49	1	repeat	Run1	repeat/STIM_008.jpg
755.347	0.866	1	repeat	Run1	repeat/STIM_009.jpg
759.026	0.519	1	repeat	Run1	repeat/STIM_009.jpg
763.037	0.763	1	repeat	Run1	repeat/STIM_009.jpg
767.475	0.627	1	repeat	Run1	repeat/STIM_009.jpg
771.686	0.576	1	repeat	Run1	repeat/STIM_009.jpg
774.761	0.685	1	repeat	Run1	repeat/STIM_010.jpg
778.25	0.513	1	repeat	Run1	repeat/STIM_010.jpg
782.477	0.672	0	repeat	Run1	repeat/STIM_010.jpg
786.255	0.522	1	repeat	Run1	repeat/STIM_010.jpg
790.733	0.904	1	repeat	Run1	repeat/STIM_010.jpg
793.962	0.885	1	repeat	Run1	repeat/STIM_011.jpg
797.655	0.604	1	repeat	Run1	repeat/STIM_011.jpg
802.115	0.666	0	repeat	Run1	repeat/STIM_011.jpg
806.487	0.568	1	repeat	Run1	repeat/STIM_011.jpg
810.238	0.777	1	repeat	Run1	repeat/STIM_011.jpg
813.46	0.608	1	repeat	Run1	repeat/STIM_012.jpg
816.933	0.654	1	repeat	Run1	repeat/STIM_012.jpg
820.445	0.697	1	repeat	Run1	repeat/STIM_012.jpg
824.137	0.801	1	repeat	Run1	repeat/STIM_012.jpg
827.016	0.81	1	repeat	Run1	repeat/STIM_012.jpg
830.416	0.776	0	repeat	Run1	repeat/STIM_013.jpg
833.935	0.808	1	repeat	Run1	repeat/STIM_013.jpg
837.938	0.529	1	repeat	Run1	repeat/STIM_013.jpg
840.528	0.738	0	repeat	Run1	repeat/STIM_013.jpg
844.598	0.522	1	repeat	Run1	repeat/STIM_013.jpg
848.843	0.786	1	repeat	Run1	repeat/STIM_014.jpg
852.881	0.909	1	repeat	Run1	repeat/STIM_014.jpg
856.403	0.748	1	repeat	Run1	repeat/STIM_014.jpg
860.927	0.63	1	repeat	Run1	repeat/STIM_014.jpg
865.436	0.494	1	repeat	Run1	repeat/STIM_014.jpg
869.2	1.975	1	generate	Run2	generate/STIM_000.jpg
873.768	1.542	1	generate	Run2	generate/STIM_000.jpg
877.758	2.042	1	generate	Run2	generate/STIM_000.jpg
882.161	1.329	1	generate	Run2	generate/STIM_000.jpg
885.639	1.764	1	generate	Run2	generate/STIM_000.jpg
890.278	2.011	1	generate	Run2	generate/STIM_001.jpg
894.749	2.137	1	generate	Run2	generate/STIM_001.jpg
899.362	1.618	1	generate	Run2	generate/STIM_001.jpg
903.289	0.99	1	generate	Run2	generate/STIM_001.jpg
906.803	1.17	1	generate	Run2	generate/STIM_001.jpg
911.721	1.868	0	generate	Run2	generate/STIM_002.jpg
917.079	0.985	1	generate	Run2	generate/STIM_002.jpg
920.243	1.027	0	generate	Run2	generate/STIM_002.jpg
924.353	1.649	1	generate	Run2	generate/STIM_002.jpg
928.162	1.424	0	generate	Run2	generate/STIM_002.jpg
931.734	1.088	1	generate	Run2	generate/STIM_003.jpg
935.018	1.915	1	generate	Run2	generate/STIM_003.jpg
939.764	2.009	1	generate	Run2	generate/STIM_003.jpg
944.781	1.941	0	generate	Run2	generate/STIM_003.jpg
949.486	1.257	1	generate	Run2	generate/STIM_003.jpg
952.98	1.301	1	generate	Run2	generate/STIM_004.jpg
957.338	1.932	0	generate	Run2	generate/STIM_004.jpg
962.008	1.01	1	generate	Run2	generate/STIM_004.jpg
965.826	1.866	1	generate	Run2	generate/STIM_004.jpg
971.448	0.813	0	generate	Run2	generate/STIM_004.jpg
974.439	1.82	1	generate	Run2	generate/STIM_005.jpg
979.952	1.292	1	generate	Run2	generate/STIM_005.jpg
984.673	1.234	1	generate	Run2	generate/STIM_005.jpg
989.547	0.851	1	generate	Run2	generate/STIM_005.jpg
993.971	1.839	1	generate	Run2	generate/STIM_005.jpg
999.415	1.593	1	generate	Run2	generate/STIM_006.jpg
1003.119	1.265	1	generate	Run2	generate/STIM_006.jpg
1007.091	1.351	1	generate	Run2	generate/STIM_006.jpg
1010.947	1.558	0	generate	Run2	generate/STIM_006.jpg
1014.753	1.27	1	generate	Run2	generate/STIM_006.jpg
1019.853	1.439	1	generate	Run2	generate/STIM_007.jpg
1025.127	2.214	1	generate	Run2	generate/STIM_007.jpg
1031.122	1.339	1	generate	Run2	generate/STIM_007.jpg
1036.295	0.802	1	generate	Run2	generate/STIM_007.jpg
1040.763	1.761	1	generate	Run2	generate/STIM_007.jpg
1045.625	1.37	1	generate	Run2	generate/STIM_008.jpg
1050.206	0.978	1	generate	Run2	generate/STIM_008.jpg
1054.555	1.267	1	generate	Run2	generate/STIM_008.jpg
1058.298	1.326	1	generate	Run2	generate/STIM_008.jpg
1062.836	1.278	1	generate	Run2	generate/STIM_008.jpg
1066.98	1.793	1	generate	Run2	generate/STIM_009.jpg
1072.016	1.748	1	generate	Run2	generate/STIM_009.jpg
1076.535	0.87	1	generate	Run2	generate/STIM_009.jpg
1079.784	1.297	1	generate	Run2	generate/STIM_009.jpg
1085.066	1.24	1	generate	Run2	generate/STIM_009.jpg
1089.083	1.466	1	generate	Run2	generate/STIM_010.jpg
1093.062	1.915	0	generate	Run2	generate/STIM_010.jpg
1097.967	0.972	1	generate	Run2	generate/STIM_010.jpg
1102.274	1.236	1	generate	Run2	generate/STIM_010.jpg
1106.736	1.547	1	generate	Run2	generate/STIM_010.jpg
1111.911	1.858	0	generate	Run2	generate/STIM_011.jpg
1116.601	0.984	1	generate	Run2	generate/STIM_011.jpg
1121.363	1.649	1	generate	Run2	generate/STIM_011.jpg
1126.07	1.008	1	generate	Run2	generate/STIM_011.jpg
1130.83	1.248	1	generate	Run2	generate/STIM_011.jpg
1136.072	1.093	0	generate	Run2	generate/STIM_012.jpg
1140.62	1.526	1	generate	Run2	generate/STIM_012.jpg
1144.796	1.925	1	generate	Run2	generate/STIM_012.jpg
1150.664	1.066	0	generate	Run2	generate/STIM_012.jpg
1155.57	1.744	1	generate	Run2	generate/STIM_012.jpg
1160.457	1.236	0	generate	Run2	generate/STIM_013.jpg
1163.734	0.996	1	generate	Run2	generate/STIM_013.jpg
1167.366	2.032	1	generate	Run2	generate/STIM_013.jpg
1173.33	0.859	1	generate	Run2	generate/STIM_013.jpg
1177.403	1.377	1	generate	Run2	generate/STIM_013.jpg
1181.465	1.456	1	generate	Run2	generate/STIM_014.jpg
1186.085	2.2	0	generate	Run2	generate/STIM_014.jpg
1191.604	1.049	1	generate	Run2	generate/STIM_014.jpg
1195.905	1.893	1	generate	Run2	generate/STIM_014.jpg
1199.848	1.126	1	generate	Run2	generate/STIM_014.jpg
1203.418	2.37	1	generate	Run2	generate/STIM_015.jpg
1208.221	0.968	1	generate	Run2	generate/STIM_015.jpg
1211.297	1.179	1	generate	Run2	generate/STIM_015.jpg
1214.646	1.195	1	generate	Run2	generate/STIM_015.jpg
1219.029	1.735	1	generate	Run2	generate/STIM_015.jpg
1224.357	2.37	1	generate	Run2	generate/STIM_016.jpg
1230.311	1.009	1	generate	Run2	generate/STIM_016.jpg
1234.129	0.914	0	generate	Run2	generate/STIM_016.jpg
1238.392	1.465	0	generate	Run2	generate/STIM_016.jpg
1241.971	0.936	1	generate	Run2	generate/STIM_016.jpg
1246.692	1.307	1	generate	Run2	generate/STIM_017.jpg
1251.363	1.672	1	generate	Run2	generate/STIM_017.jpg
1256.585	1.891	1	generate	Run2	generate/STIM_017.jpg
1260.904	1.909	1	generate	Run2	generate/STIM_017.jpg
1265.295	1.164	1	generate	Run2	generate/STIM_017.jpg
1268.667	1.91	1	generate	Run2	generate/STIM_018.jpg
1274.367	2.024	0	generate	Run2	generate/STIM_018.jpg
1280.139	1.384	0	generate	Run2	generate/STIM_018.jpg
1285.066	0.848	0	generate	Run2	generate/STIM_018.jpg
1288.844	1.133	1	generate	Run2	generate/STIM_018.jpg
1292.615	1.63	1	generate	Run2	generate/STIM_019.jpg
1297.374	0.914	1	generate	Run2	generate/STIM_019.jpg
1301.973	1.302	0	generate	Run2	generate/STIM_019.jpg
1306.599	1.771	1	generate	Run2	generate/STIM_019.jpg
1310.561	1.571	1	generate	Run2	generate/STIM_019.jpg
1314.736	2.161	0	generate	Run2	generate/STIM_020.jpg
1319.294	1.229	1	generate	Run2	generate/STIM_020.jpg
1323.289	0.938	1	generate	Run2	generate/STIM_020.jpg
1327.113	1.734	1	generate	Run2	generate/STIM_020.jpg
1332.723	1.535	1	generate	Run2	generate/STIM_020.jpg
1337.616	2.283	0	generate	Run2	generate/STIM_021.jpg
1342.115	1.362	1	generate	Run2	generate/STIM_021.jpg
1347.256	1.89	1	generate	Run2	generate/STIM_021.jpg
1352.905	1.01	1	generate	Run2	generate/STIM_021.jpg
1356.221	1.946	1	generate	Run2	generate/STIM_021.jpg
1361.517	2.306	1	generate	Run2	generate/STIM_022.jpg
1367.08	0.997	1	generate	Run2	generate/STIM_022.jpg
1370.783	1.712	1	generate	Run2	generate/STIM_022.jpg
1374.57	0.999	0	generate	Run2	generate/STIM_022.jpg
1378.587	1.937	1	generate	Run2	generate/STIM_022.jpg
1384.522	1.022	0	generate	Run2	generate/STIM_023.jpg
1388.375	1.291	1	generate	Run2	generate/STIM_023.jpg
1391.738	1.742	1	generate	Run2	generate/STIM_023.jpg
1396.901	1.278	1	generate	Run2	generate/STIM_023.jpg
1401.894	1.538	1	generate	Run2	generate/STIM_023.jpg
1406.96	2.143	1	generate	Run2	generate/STIM_024.jpg
1412.972	1.788	0	generate	Run2	generate/STIM_024.jpg
1417.804	1.618	1	generate	Run2	generate/STIM_024.jpg
1422.822	1.239	1	generate	Run2	generate/STIM_024.jpg
1426.71	1.494	1	generate	Run2	generate/STIM_024.jpg
1431.196	0.816	0	repeat	Run2	repeat/STIM_000.jpg
1435.723	0.768	1	repeat	Run2	repeat/STIM_000.jpg
1438.832	0.86	1	repeat	Run2	repeat/STIM_000.jpg
1442.475	0.576	1	repeat	Run2	repeat/STIM_000.jpg
1446.129	0.628	1	repeat	Run2	repeat/STIM_000.jpg
1450.705	0.848	0	repeat	Run2	repeat/STIM_001.jpg
1454.811	0.504	1	repeat	Run2	repeat/STIM_001.jpg
1458.802	0.884	1	repeat	Run2	repeat/STIM_001.jpg
1463.195	0.484	1	repeat	Run2	repeat/STIM_001.jpg
1466.065	0.5	1	repeat	Run2	repeat/STIM_001.jpg
1469.447	0.665	1	repeat	Run2	repeat/STIM_002.jpg
1472.806	0.614	1	repeat	Run2	repeat/STIM_002.jpg
1475.756	0.611	1	repeat	Run2	repeat/STIM_002.jpg
1479.97	0.68	1	repeat	Run2	repeat/STIM_002.jpg
1484.459	0.564	1	repeat	Run2	repeat/STIM_002.jpg
1487.287	0.626	1	repeat	Run2	repeat/STIM_003.jpg
1490.207	0.564	1	repeat	Run2	repeat/STIM_003.jpg
1493.202	0.63	0	repeat	Run2	repeat/STIM_003.jpg
1496.303	0.625	1	repeat	Run2	repeat/STIM_003.jpg
1500.169	0.664	1	repeat	Run2	repeat/STIM_003.jpg
1503.786	0.743	1	repeat	Run2	repeat/STIM_004.jpg
1508.054	0.736	1	repeat	Run2	repeat/STIM_004.jpg
1512.679	0.486	1	repeat	Run2	repeat/STIM_004.jpg
1517.029	0.723	1	repeat	Run2	repeat/STIM_004.jpg
1520.932	0.551	1	repeat	Run2	repeat/STIM_004.jpg
1523.848	0.624	1	repeat	Run2	repeat/STIM_005.jpg
1528.391	0.608	1	repeat	Run2	repeat/STIM_005.jpg
1531.385	0.848	1	repeat	Run2	repeat/STIM_005.jpg
1535.975	0.524	1	repeat	Run2	repeat/STIM_005.jpg
1539.399	0.767	1	repeat	Run2	repeat/STIM_005.jpg
1544.029	0.744	1	repeat	Run2	repeat/STIM_006.jpg
1546.813	0.515	0	repeat	Run2	repeat/STIM_006.jpg
1549.996	0.509	1	repeat	Run2	repeat/STIM_006.jpg
1554.12	0.672	0	repeat	Run2	repeat/STIM_006.jpg
1557.965	0.539	1	repeat	Run2	repeat/STIM_006.jpg
1562.259	0.803	1	repeat	Run2	repeat/STIM_007.jpg
1565.434	0.505	1	repeat	Run2	repeat/STIM_007.jpg
1569.329	0.882	1	repeat	Run2	repeat/STIM_007.jpg
1573.79	0.712	1	repeat	Run2	repeat/STIM_007.jpg
1578.421	0.508	1	repeat	Run2	repeat/STIM_007.jpg
1582.864	0.91	1	repeat	Run2	repeat/STIM_008.jpg
1587.262	0.759	1	repeat	Run2	repeat/STIM_008.jpg
1590.877	0.66	1	repeat	Run2	repeat/STIM_008.jpg
1595.185	0.785	1	repeat	Run2	repeat/STIM_008.jpg
1598.188	0.57	1	repeat	Run2	repeat/STIM_008.jpg
1602.193	0.688	1	repeat	Run2	repeat/STIM_009.jpg
1605.488	0.734	1	repeat	Run2	repeat/STIM_009.jpg
1609.039	0.624	1	repeat	Run2	repeat/STIM_009.jpg
1612.586	0.475	1	repeat	Run2	repeat/STIM_009.jpg
1616.43	0.936	1	repeat	Run2	repeat/STIM_009.jpg
1619.806	0.546	1	repeat	Run2	repeat/STIM_010.jpg
1622.795	0.662	1	repeat	Run2	repeat/STIM_010.jpg
1627.196	0.76	1	repeat	Run2	repeat/STIM_010.jpg
1630.91	0.912	1	repeat	Run2	repeat/STIM_010.jpg
1633.975	0.667	1	repeat	Run2	repeat/STIM_010.jpg
1638.47	0.919	1	repeat	Run2	repeat/STIM_011.jpg
1641.81	0.729	1	repeat	Run2	repeat/STIM_011.jpg
1646.092	0.498	1	repeat	Run2	repeat/STIM_011.jpg
1650.321	0.624	0	repeat	Run2	repeat/STIM_011.jpg
1654.004	0.895	1	repeat	Run2	repeat/STIM_011.jpg
1658.065	0.699	1	repeat	Run2	repeat/STIM_012.jpg
1662.029	0.641	0	repeat	Run2	repeat/STIM_012.jpg
1666.407	0.572	1	repeat	Run2	repeat/STIM_012.jpg
1670.945	0.588	1	repeat	Run2	repeat/STIM_012.jpg
1674.866	0.901	1	repeat	Run2	repeat/STIM_012.jpg
1679.735	0.743	1	repeat	Run2	repeat/STIM_013.jpg
1682.747	0.897	1	repeat	Run2	repeat/STIM_013.jpg
1686.281	0.807	1	repeat	Run2	repeat/STIM_013.jpg
1690.529	0.598	1	repeat	Run2	repeat/STIM_013.jpg
1694.217	0.542	1	repeat	Run2	repeat/STIM_013.jpg
1697.177	0.791	1	repeat	Run2	repeat/STIM_014.jpg
1700.249	0.786	1	repeat	Run2	repeat/STIM_014.jpg
1704.831	0.935	1	repeat	Run2	repeat/STIM_014.jpg
1708.146	0.691	1	repeat	Run2	repeat/STIM_014.jpg
1712.122	0.754	1	repeat	Run2	repeat/STIM_014.jpg
1716.646	0.906	1	generate	Run3	generate/STIM_000.jpg
1720.055	1.923	1	generate	Run3	generate/STIM_000.jpg
1724.269	1.264	1	generate	Run3	generate/STIM_000.jpg
1728.847	1.442	1	generate	Run3	generate/STIM_000.jpg
1732.967	1.934	0	generate	Run3	generate/STIM_000.jpg
1737.731	0.965	1	generate	Run3	generate/STIM_001.jpg
1742.179	1.462	1	generate	Run3	generate/STIM_001.jpg
1746.352	1.123	1	generate	Run3	generate/STIM_001.jpg
1749.598	1.296	1	generate	Run3	generate/STIM_001.jpg
1754.643	1.621	1	generate	Run3	generate/STIM_001.jpg
1759.839	1.663	1	generate	Run3	generate/STIM_002.jpg
1764.947	1.856	1	generate	Run3	generate/STIM_002.jpg
1770.559	0.934	1	generate	Run3	generate/STIM_002.jpg
1774.933	1.711	1	generate	Run3	generate/STIM_002.jpg
1780.377	0.85	1	generate	Run3	generate/STIM_002.jpg
1784.699	1.953	1	generate	Run3	generate/STIM_003.jpg
1790.561	1.514	1	generate	Run3	generate/STIM_003.jpg
1795.951	1.951	1	generate	Run3	generate/STIM_003.jpg
1801.373	1.655	1	generate	Run3	generate/STIM_003.jpg
1805.543	0.861	0	generate	Run3	generate/STIM_003.jpg
1809.413	1.338	1	generate	Run3	generate/STIM_004.jpg
1813.026	1.876	1	generate	Run3	generate/STIM_004.jpg
1817.652	1.293	1	generate	Run3	generate/STIM_004.jpg
1822.405	1.82	1	generate	Run3	generate/STIM_004.jpg
1827.575	1.87	0	generate	Run3	generate/STIM_004.jpg
1831.517	1.746	1	generate	Run3	generate/STIM_005.jpg
1835.454	1.12	1	generate	Run3	generate/STIM_005.jpg
1839.542	0.863	1	generate	Run3	generate/STIM_005.jpg
1843.128	1.049	1	generate	Run3	generate/STIM_005.jpg
1846.467	1.402	1	generate	Run3	generate/STIM_005.jpg
1850.451	1.462	1	generate	Run3	generate/STIM_006.jpg
1854.882	1.741	1	generate	Run3	generate/STIM_006.jpg
1858.714	1.212	1	generate	Run3	generate/STIM_006.jpg
1863.467	1.382	1	generate	Run3	generate/STIM_006.jpg
1868.727	1.69	1	generate	Run3	generate/STIM_006.jpg
1873.396	1.518	1	generate	Run3	generate/STIM_007.jpg
1877.147	1.23	1	generate	Run3	generate/STIM_007.jpg
1880.586	1.595	1	generate	Run3	generate/STIM_007.jpg
1885.344	1.631	1	generate	Run3	generate/STIM_007.jpg
1890.49	1.083	0	generate	Run3	generate/STIM_007.jpg
1893.799	1.425	1	generate	Run3	generate/STIM_008.jpg
1898.604	1.668	1	generate	Run3	generate/STIM_008.jpg
1904.21	1.84	0	generate	Run3	generate/STIM_008.jpg
1908.957	1.53	1	generate	Run3	generate/STIM_008.jpg
1913.051	1.916	1	generate	Run3	generate/STIM_008.jpg
1918.049	0.907	0	generate	Run3	generate/STIM_009.jpg
1922.732	1.239	1	generate	Run3	generate/STIM_009.jpg
1927.64	0.999	1	generate	Run3	generate/STIM_009.jpg
1930.83	1.646	1	generate	Run3	generate/STIM_009.jpg
1936.238	0.896	1	generate	Run3	generate/STIM_009.jpg
1940.25	1.842	1	generate	Run3	generate/STIM_010.jpg
1944.485	1.489	1	generate	Run3	generate/STIM_010.jpg
1948.871	1.026	1	generate	Run3	generate/STIM_010.jpg
1952.275	1.166	1	generate	Run3	generate/STIM_010.jpg
1956.282	1.757	1	generate	Run3	generate/STIM_010.jpg
1961.709	1.141	1	generate	Run3	generate/STIM_011.jpg
1965.967	0.922	1	generate	Run3	generate/STIM_011.jpg
1970.455	1.369	1	generate	Run3	generate/STIM_011.jpg
1975.378	1.024	1	generate	Run3	generate/STIM_011.jpg
1980.104	1.211	1	generate	Run3	generate/STIM_011.jpg
1983.736	1.552	1	generate	Run3	generate/STIM_012.jpg
1988.489	1.219	0	generate	Run3	generate/STIM_012.jpg
1992.171	1.339	0	generate	Run3	generate/STIM_012.jpg
1997.058	0.98	1	generate	Run3	generate/STIM_012.jpg
2000.166	1.885	1	generate	Run3	generate/STIM_012.jpg
2005.402	1.675	1	generate	Run3	generate/STIM_013.jpg
2009.87	1.119	1	generate	Run3	generate/STIM_013.jpg
2014.502	1.598	1	generate	Run3	generate/STIM_013.jpg
2018.858	0.868	1	generate	Run3	generate/STIM_013.jpg
2023.263	1.684	0	generate	Run3	generate/STIM_013.jpg
2028.585	1.779	1	generate	Run3	generate/STIM_014.jpg
2032.987	1.251	1	generate	Run3	generate/STIM_014.jpg
2037.356	1.182	1	generate	Run3	generate/STIM_014.jpg
2042.325	1.402	1	generate	Run3	generate/STIM_014.jpg
2046.907	1.434	1	generate	Run3	generate/STIM_014.jpg
2050.501	1.311	0	generate	Run3	generate/STIM_015.jpg
2055.329	1.486	1	generate	Run3	generate/STIM_015.jpg
2059.604	0.956	0	generate	Run3	generate/STIM_015.jpg
2064.096	1.762	1	generate	Run3	generate/STIM_015.jpg
2067.968	1.011	1	generate	Run3	generate/STIM_015.jpg
2071.87	1.108	1	generate	Run3	generate/STIM_016.jpg
2076.828	0.893	1	generate	Run3	generate/STIM_016.jpg
2080.147	1.934	1	generate	Run3	generate/STIM_016.jpg
2084.225	0.836	1	generate	Run3	generate/STIM_016.jpg
2088.169	1.438	1	generate	Run3	generate/STIM_016.jpg
2093.121	1.736	1	generate	Run3	generate/STIM_017.jpg
2096.956	0.877	1	generate	Run3	generate/STIM_017.jpg
2100.94	1.235	1	generate	Run3	generate/STIM_017.jpg
2105.894	1.588	1	generate	Run3	generate/STIM_017.jpg
2111.297	1.31	1	generate	Run3	generate/STIM_017.jpg
2116.38	1.76	1	generate	Run3	generate/STIM_018.jpg
2120.238	1.374	1	generate	Run3	generate/STIM_018.jpg
2125.143	1.955	1	generate	Run3	generate/STIM_018.jpg
2130.741	1.876	1	generate	Run3	generate/STIM_018.jpg
2134.7	0.943	1	generate	Run3	generate/STIM_018.jpg
2139.097	1.291	1	generate	Run3	generate/STIM_019.jpg
2144.157	1.074	1	generate	Run3	generate/STIM_019.jpg
2147.46	1.376	1	generate	Run3	generate/STIM_019.jpg
2151.812	1.586	1	generate	Run3	generate/STIM_019.jpg
2156.303	1.181	1	generate	Run3	generate/STIM_019.jpg
2160.089	1.088	1	generate	Run3	generate/STIM_020.jpg
2163.994	1.108	0	generate	Run3	generate/STIM_020.jpg
2167.465	1.943	1	generate	Run3	generate/STIM_020.jpg
2172.716	1.572	1	generate	Run3	generate/STIM_020.jpg
2177.871	1.097	1	generate	Run3	generate/STIM_020.jpg
2181.038	0.947	1	generate	Run3	generate/STIM_021.jpg
2185.161	1.587	1	generate	Run3	generate/STIM_021.jpg
2190.441	1.251	1	generate	Run3	generate/STIM_021.jpg
2194.183	0.929	1	generate	Run3	generate/STIM_021.jpg
2198.61	1.123	1	generate	Run3	generate/STIM_021.jpg
2203.418	1.216	0	generate	Run3	generate/STIM_022.jpg
2207.18	1.119	1	generate	Run3	generate/STIM_022.jpg
2211.131	0.992	0	generate	Run3	generate/STIM_022.jpg
2215.931	0.896	1	generate	Run3	generate/STIM_022.jpg
2218.965	1.489	1	generate	Run3	generate/STIM_022.jpg
2224.264	1.944	1	generate	Run3	generate/STIM_023.jpg
2229.489	0.983	1	generate	Run3	generate/STIM_023.jpg
2233.747	1.467	1	generate	Run3	generate/STIM_023.jpg
2238.998	1.456	1	generate	Run3	generate/STIM_023.jpg
2242.74	1.461	1	generate	Run3	generate/STIM_023.jpg
2247.974	0.799	1	generate	Run3	generate/STIM_024.jpg
2252.472	1.191	1	generate	Run3	generate/STIM_024.jpg
2255.889	1.494	0	generate	Run3	generate/STIM_024.jpg
2260.233	1.097	1	generate	Run3	generate/STIM_024.jpg
2264.512	1.111	1	generate	Run3	generate/STIM_024.jpg
2268.469	0.64	1	repeat	Run3	repeat/STIM_000.jpg
2271.671	0.669	1	repeat	Run3	repeat/STIM_000.jpg
2275.163	0.492	1	repeat	Run3	repeat/STIM_000.jpg
2278.502	0.704	1	repeat	Run3	repeat/STIM_000.jpg
2281.717	0.56	0	repeat	Run3	repeat/STIM_000.jpg
2285.554	0.929	1	repeat	Run3	repeat/STIM_001.jpg
2290.285	0.59	1	repeat	Run3	repeat/STIM_001.jpg
2292.966	0.841	1	repeat	Run3	repeat/STIM_001.jpg
2297.528	0.712	0	repeat	Run3	repeat/STIM_001.jpg
2301.141	0.873	1	repeat	Run3	repeat/STIM_001.jpg
2304.57	0.518	1	repeat	Run3	repeat/STIM_002.jpg
2308.805	0.867	1	repeat	Run3	repeat/STIM_002.jpg
2312.047	0.551	1	repeat	Run3	repeat/STIM_002.jpg
2316.094	0.509	1	repeat	Run3	repeat/STIM_002.jpg
2320.569	0.88	1	repeat	Run3	repeat/STIM_002.jpg
2324.423	0.574	1	repeat	Run3	repeat/STIM_003.jpg
2327.921	0.632	1	repeat	Run3	repeat/STIM_003.jpg
2331.958	0.529	1	repeat	Run3	repeat/STIM_003.jpg
2334.693	0.87	1	repeat	Run3	repeat/STIM_003.jpg
2337.579	0.723	1	repeat	Run3	repeat/STIM_003.jpg
2341.52	0.504	1	repeat	Run3	repeat/STIM_004.jpg
2345.313	0.695	1	repeat	Run3	repeat/STIM_004.jpg
2349.177	0.937	1	repeat	Run3	repeat/STIM_004.jpg
2352.653	0.773	1	repeat	Run3	repeat/STIM_004.jpg
2356.071	0.74	1	repeat	Run3	repeat/STIM_004.jpg
2360.617	0.88	1	repeat	Run3	repeat/STIM_005.jpg
2364.051	0.651	1	repeat	Run3	repeat/STIM_005.jpg
2367.573	0.522	0	repeat	Run3	repeat/STIM_005.jpg
2371.196	0.928	1	repeat	Run3	repeat/STIM_005.jpg
2374.452	0.813	1	repeat	Run3	repeat/STIM_005.jpg
2377.638	0.518	0	repeat	Run3	repeat/STIM_006.jpg
2381.548	0.664	1	repeat	Run3	repeat/STIM_006.jpg
2385.007	0.878	1	repeat	Run3	repeat/STIM_006.jpg
2388.743	0.93	1	repeat	Run3	repeat/STIM_006.jpg
2393.549	0.486	1	repeat	Run3	repeat/STIM_006.jpg
2396.699	0.923	0	repeat	Run3	repeat/STIM_007.jpg
2399.908	0.482	1	repeat	Run3	repeat/STIM_007.jpg
2403.933	0.836	1	repeat	Run3	repeat/STIM_007.jpg
2408.592	0.527	1	repeat	Run3	repeat/STIM_007.jpg
2412.706	0.681	1	repeat	Run3	repeat/STIM_007.jpg
2415.863	0.701	1	repeat	Run3	repeat/STIM_008.jpg
2419.573	0.79	1	repeat	Run3	repeat/STIM_008.jpg
2422.546	0.696	1	repeat	Run3	repeat/STIM_008.jpg
2425.943	0.88	0	repeat	Run3	repeat/STIM_008.jpg
2429.334	0.484	1	repeat	Run3	repeat/STIM_008.jpg
2433.75	0.633	1	repeat	Run3	repeat/STIM_009.jpg
2437.26	0.816	1	repeat	Run3	repeat/STIM_009.jpg
2440.235	0.626	1	repeat	Run3	repeat/STIM_009.jpg
2443.588	0.651	1	repeat	Run3	repeat/STIM_009.jpg
2447.158	0.534	1	repeat	Run3	repeat/STIM_009.jpg
2451.011	0.628	1	repeat	Run3	repeat/STIM_010.jpg
2454.258	0.885	1	repeat	Run3	repeat/STIM_010.jpg
2457.543	0.773	1	repeat	Run3	repeat/STIM_010.jpg
2461.043	0.733	1	repeat	Run3	repeat/STIM_010.jpg
2465.302	0.637	1	repeat	Run3	repeat/STIM_010.jpg
2468.36	0.86	1	repeat	Run3	repeat/STIM_011.jpg
2473.106	0.686	0	repeat	Run3	repeat/STIM_011.jpg
2476.454	0.596	1	repeat	Run3	repeat/STIM_011.jpg
2479.727	0.674	1	repeat	Run3	repeat/STIM_011.jpg
2484.148	0.54	1	repeat	Run3	repeat/STIM_011.jpg
2487.993	0.509	0	repeat	Run3	repeat/STIM_012.jpg
2492.35	0.669	1	repeat	Run3	repeat/STIM_012.jpg
2495.149	0.865	1	repeat	Run3	repeat/STIM_012.jpg
2498.414	0.589	1	repeat	Run3	repeat/STIM_012.jpg
2502.003	0.551	1	repeat	Run3	repeat/STIM_012.jpg
2504.711	0.824	1	repeat	Run3	repeat/STIM_013.jpg
2507.913	0.687	0	repeat	Run3	repeat/STIM_013.jpg
2512.21	0.485	1	repeat	Run3	repeat/STIM_013.jpg
2516.663	0.59	1	repeat	Run3	repeat/STIM_013.jpg
2519.327	0.538	1	repeat	Run3	repeat/STIM_013.jpg
2522.3	0.75	1	repeat	Run3	repeat/STIM_014.jpg
2526.483	0.75	1	repeat	Run3	repeat/STIM_014.jpg
2530.907	0.747	1	repeat	Run3	repeat/STIM_014.jpg
2535.084	0.807	1	repeat	Run3	repeat/STIM_014.jpg
2539.162	0.701	0	repeat	Run3	repeat/STIM_014.jpg
2541.92	1.762	0	generate	Run4	generate/STIM_000.jpg
2547.566	1.509	1	generate	Run4	generate/STIM_000.jpg
2552.212	1.244	1	generate	Run4	generate/STIM_000.jpg
2555.456	1.111	1	generate	Run4	generate/STIM_000.jpg
2558.895	1.832	1	generate	Run4	generate/STIM_000.jpg
2564.017	1.535	0	generate	Run4	generate/STIM_001.jpg
2567.607	1.531	1	generate	Run4	generate/STIM_001.jpg
2571.553	1.123	1	generate	Run4	generate/STIM_001.jpg
2575.052	1.948	1	generate	Run4	generate/STIM_001.jpg
2579.802	0.844	1	generate	Run4	generate/STIM_001.jpg
2583.373	1.532	1	generate	Run4	generate/STIM_002.jpg
2588.169	1.628	1	generate	Run4	generate/STIM_002.jpg
2591.901	1.822	0	generate	Run4	generate/STIM_002.jpg
2597.614	1.669	1	generate	Run4	generate/STIM_002.jpg
2602.359	1.816	1	generate	Run4	generate/STIM_002.jpg
2606.798	1.276	1	generate	Run4	generate/STIM_003.jpg
2610.564	1.583	1	generate	Run4	generate/STIM_003.jpg
2615.859	1.056	1	generate	Run4	generate/STIM_003.jpg
2619.811	1.179	1	generate	Run4	generate/STIM_003.jpg
2624.317	1.317	1	generate	Run4	generate/STIM_003.jpg
2628.14	1.583	1	generate	Run4	generate/STIM_004.jpg
2633.51	1.501	1	generate	Run4	generate/STIM_004.jpg
2637.349	1.448	1	generate	Run4	generate/STIM_004.jpg
2642.468	1.398	1	generate	Run4	generate/STIM_004.jpg
2646.694	1.835	1	generate	Run4	generate/STIM_004.jpg
2650.942	0.865	1	generate	Run4	generate/STIM_005.jpg
2655.639	1.142	1	generate	Run4	generate/STIM_005.jpg
2659.61	1.358	1	generate	Run4	generate/STIM_005.jpg
2663.822	1.89	1	generate	Run4	generate/STIM_005.jpg
2667.932	1.027	1	generate	Run4	generate/STIM_005.jpg
2671.428	1.826	0	generate	Run4	generate/STIM_006.jpg
2677.241	1.247	1	generate	Run4	generate/STIM_006.jpg
2681.901	1.514	1	generate	Run4	generate/STIM_006.jpg
2685.549	1.74	1	generate	Run4	generate/STIM_006.jpg
2691.285	1.414	1	generate	Run4	generate/STIM_006.jpg
2695.771	1.582	1	generate	Run4	generate/STIM_007.jpg
2700.603	1.186	1	generate	Run4	generate/STIM_007.jpg
2705.741	1.743	1	generate	Run4	generate/STIM_007.jpg
2711.339	1.412	1	generate	Run4	generate/STIM_007.jpg
2716.652	1.522	1	generate	Run4	generate/STIM_007.jpg
2720.604	1.607	1	generate	Run4	generate/STIM_008.jpg
2724.791	1.061	0	generate	Run4	generate/STIM_008.jpg
2728.806	1.195	1	generate	Run4	generate/STIM_008.jpg
2732.501	1.919	1	generate	Run4	generate/STIM_008.jpg
2738.311	1.301	1	generate	Run4	generate/STIM_008.jpg
2741.967	1.312	0	generate	Run4	generate/STIM_009.jpg
2747.21	1.228	1	generate	Run4	generate/STIM_009.jpg
2751.93	1.179	1	generate	Run4	generate/STIM_009.jpg
2755.371	1.324	1	generate	Run4	generate/STIM_009.jpg
2760.263	0.95	1	generate	Run4	generate/STIM_009.jpg
2763.227	0.824	1	generate	Run4	generate/STIM_010.jpg
2767.783	1.335	1	generate	Run4	generate/STIM_010.jpg
2771.297	1.744	1	generate	Run4	generate/STIM_010.jpg
2775.519	1.731	1	generate	Run4	generate/STIM_010.jpg
2779.538	0.898	1	generate	Run4	generate/STIM_010.jpg
2783.719	1.077	1	generate	Run4	generate/STIM_011.jpg
2788.346	1.843	1	generate	Run4	generate/STIM_011.jpg
2794.007	1.311	1	generate	Run4	generate/STIM_011.jpg
2797.383	1.589	1	generate	Run4	generate/STIM_011.jpg
2802.434	1.626	1	generate	Run4	generate/STIM_011.jpg
2807.774	1.762	1	generate	Run4	generate/STIM_012.jpg
2812.058	1.42	1	generate	Run4	generate/STIM_012.jpg
2817.34	1.815	1	generate	Run4	generate/STIM_012.jpg
2822.172	0.989	1	generate	Run4	generate/STIM_012.jpg
2825.746	1.628	1	generate	Run4	generate/STIM_012.jpg
2829.944	1.878	1	generate	Run4	generate/STIM_013.jpg
2835.614	1.078	1	generate	Run4	generate/STIM_013.jpg
2839.884	1.36	0	generate	Run4	generate/STIM_013.jpg
2844.596	1.942	1	generate	Run4	generate/STIM_013.jpg
2849.789	1.722	1	generate	Run4	generate/STIM_013.jpg
2854.11	1.881	1	generate	Run4	generate/STIM_014.jpg
2858.628	1.437	1	generate	Run4	generate/STIM_014.jpg
2863.383	0.914	1	generate	Run4	generate/STIM_014.jpg
2867.095	1.552	1	generate	Run4	generate/STIM_014.jpg
2872.007	1.649	1	generate	Run4	generate/STIM_014.jpg
2877.549	1.333	1	generate	Run4	generate/STIM_015.jpg
2881.355	1.733	1	generate	Run4	generate/STIM_015.jpg
2886.865	1.535	1	generate	Run4	generate/STIM_015.jpg
2890.518	1.61	1	generate	Run4	generate/STIM_015.jpg
2895.955	1.934	1	generate	Run4	generate/STIM_015.jpg
2900.304	1.432	1	generate	Run4	generate/STIM_016.jpg
2903.741	0.954	1	generate	Run4	generate/STIM_016.jpg
2907.55	1.0	1	generate	Run4	generate/STIM_016.jpg
2910.783	1.146	1	generate	Run4	generate/STIM_016.jpg
2914.779	1.929	1	generate	Run4	generate/STIM_016.jpg
2919.381	1.81	0	generate	Run4	generate/STIM_017.jpg
2923.523	0.97	1	generate	Run4	generate/STIM_017.jpg
2926.722	0.866	1	generate	Run4	generate/STIM_017.jpg
2931.506	1.153	1	generate	Run4	generate/STIM_017.jpg
2935.62	1.528	1	generate	Run4	generate/STIM_017.jpg
2940.401	1.652	1	generate	Run4	generate/STIM_018.jpg
2945.555	1.526	1	generate	Run4	generate/STIM_018.jpg
2950.565	1.826	1	generate	Run4	generate/STIM_018.jpg
2955.821	1.65	1	generate	Run4	generate/STIM_018.jpg
2960.103	1.082	1	generate	Run4	generate/STIM_018.jpg
2965.036	1.83	1	generate	Run4	generate/STIM_019.jpg
2969.673	1.276	1	generate	Run4	generate/STIM_019.jpg
2973.95	1.827	0	generate	Run4	generate/STIM_019.jpg
2979.665	1.722	1	generate	Run4	generate/STIM_019.jpg
2983.918	1.95	1	generate	Run4	generate/STIM_019.jpg
2989.076	1.521	1	generate	Run4	generate/STIM_020.jpg
2994.098	1.314	1	generate	Run4	generate/STIM_020.jpg
2997.622	1.352	1	generate	Run4	generate/STIM_020.jpg
3001.157	1.411	1	generate	Run4	generate/STIM_020.jpg
3005.893	0.96	1	generate	Run4	generate/STIM_020.jpg
3009.263	1.398	1	generate	Run4	generate/STIM_021.jpg
3014.163	1.759	1	generate	Run4	generate/STIM_021.jpg
3019.922	1.061	1	generate	Run4	generate/STIM_021.jpg
3024.766	1.507	1	generate	Run4	generate/STIM_021.jpg
3030.168	1.823	1	generate	Run4	generate/STIM_021.jpg
3035.779	1.042	1	generate	Run4	generate/STIM_022.jpg
3039.362	0.91	1	generate	Run4	generate/STIM_022.jpg
3042.764	0.949	1	generate	Run4	generate/STIM_022.jpg
3045.947	1.45	1	generate	Run4	generate/STIM_022.jpg
3049.538	1.589	1	generate	Run4	generate/STIM_022.jpg
3053.485	1.614	1	generate	Run4	generate/STIM_023.jpg
3058.006	1.305	1	generate	Run4	generate/STIM_023.jpg
3061.613	1.949	0	generate	Run4	generate/STIM_023.jpg
3067.271	1.195	1	generate	Run4	generate/STIM_023.jpg
3072.304	1.304	1	generate	Run4	generate/STIM_023.jpg
3076.228	1.263	0	generate	Run4	generate/STIM_024.jpg
3080.651	1.799	1	generate	Run4	generate/STIM_024.jpg
3086.048	0.942	1	generate	Run4	generate/STIM_024.jpg
3089.236	1.881	1	generate	Run4	generate/STIM_024.jpg
3093.568	1.563	1	generate	Run4	generate/STIM_024.jpg
3098.424	0.61	1	repeat	Run4	repeat/STIM_000.jpg
3102.192	0.532	1	repeat	Run4	repeat/STIM_000.jpg
3105.747	0.878	1	repeat	Run4	repeat/STIM_000.jpg
3109.575	0.491	1	repeat	Run4	repeat/STIM_000.jpg
3113.052	0.71	1	repeat	Run4	repeat/STIM_000.jpg
3116.086	0.555	1	repeat	Run4	repeat/STIM_001.jpg
3119.855	0.573	1	repeat	Run4	repeat/STIM_001.jpg
3122.699	0.641	1	repeat	Run4	repeat/STIM_001.jpg
3126.212	0.669	1	repeat	Run4	repeat/STIM_001.jpg
3129.528	0.708	1	repeat	Run4	repeat/STIM_001.jpg
3133.407	0.816	1	repeat	Run4	repeat/STIM_002.jpg
3138.029	0.874	1	repeat	Run4	repeat/STIM_002.jpg
3141.313	0.65	1	repeat	Run4	repeat/STIM_002.jpg
3143.973	0.588	1	repeat	Run4	repeat/STIM_002.jpg
3147.308	0.766	1	repeat	Run4	repeat/STIM_002.jpg
3151.815	0.706	1	repeat	Run4	repeat/STIM_003.jpg
3156.106	0.865	1	repeat	Run4	repeat/STIM_003.jpg
3160.76	0.613	1	repeat	Run4	repeat/STIM_003.jpg
3164.147	0.765	1	repeat	Run4	repeat/STIM_003.jpg
3166.991	0.513	1	repeat	Run4	repeat/STIM_003.jpg
3169.761	0.534	1	repeat	Run4	repeat/STIM_004.jpg
3172.657	0.859	1	repeat	Run4	repeat/STIM_004.jpg
3175.616	0.556	1	repeat	Run4	repeat/STIM_004.jpg
3178.231	0.715	1	repeat	Run4	repeat/STIM_004.jpg
3181.432	0.551	1	repeat	Run4	repeat/STIM_004.jpg
3185.267	0.774	1	repeat	Run4	repeat/STIM_005.jpg
3188.909	0.645	1	repeat	Run4	repeat/STIM_005.jpg
3191.727	0.661	1	repeat	Run4	repeat/STIM_005.jpg
3196.293	0.638	1	repeat	Run4	repeat/STIM_005.jpg
3199.397	0.867	1	repeat	Run4	repeat/STIM_005.jpg
3202.612	0.543	1	repeat	Run4	repeat/STIM_006.jpg
3206.715	0.728	1	repeat	Run4	repeat/STIM_006.jpg
3210.727	0.706	1	repeat	Run4	repeat/STIM_006.jpg
3214.174	0.648	0	repeat	Run4	repeat/STIM_006.jpg
3218.723	0.579	1	repeat	Run4	repeat/STIM_006.jpg
3223.28	0.548	0	repeat	Run4	repeat/STIM_007.jpg
3226.646	0.846	0	repeat	Run4	repeat/STIM_007.jpg
3231.417	0.639	1	repeat	Run4	repeat/STIM_007.jpg
3235.731	0.844	1	repeat	Run4	repeat/STIM_007.jpg
3239.378	0.904	0	repeat	Run4	repeat/STIM_007.jpg
3243.64	0.569	1	repeat	Run4	repeat/STIM_008.jpg
3246.54	0.842	1	repeat	Run4	repeat/STIM_008.jpg
3250.076	0.935	1	repeat	Run4	repeat/STIM_008.jpg
3253.214	0.799	1	repeat	Run4	repeat/STIM_008.jpg
3257.789	0.499	0	repeat	Run4	repeat/STIM_008.jpg
3261.066	0.745	1	repeat	Run4	repeat/STIM_009.jpg
3264.647	0.526	1	repeat	Run4	repeat/STIM_009.jpg
3268.614	0.846	1	repeat	Run4	repeat/STIM_009.jpg
3272.642	0.807	1	repeat	Run4	repeat/STIM_009.jpg
3275.756	0.837	1	repeat	Run4	repeat/STIM_009.jpg
3279.665	0.591	1	repeat	Run4	repeat/STIM_010.jpg
3283.01	0.602	1	repeat	Run4	repeat/STIM_010.jpg
3287.409	0.644	1	repeat	Run4	repeat/STIM_010.jpg
3290.067	0.669	1	repeat	Run4	repeat/STIM_010.jpg
3294.435	0.525	1	repeat	Run4	repeat/STIM_010.jpg
3298.056	0.813	1	repeat	Run4	repeat/STIM_011.jpg
3302.687	0.68	1	repeat	Run4	repeat/STIM_011.jpg
3306.756	0.699	1	repeat	Run4	repeat/STIM_011.jpg
3309.491	0.752	1	repeat	Run4	repeat/STIM_011.jpg
3313.909	0.577	1	repeat	Run4	repeat/STIM_011.jpg
3318.249	0.524	1	repeat	Run4	repeat/STIM_012.jpg
3321.164	0.799	1	repeat	Run4	repeat/STIM_012.jpg
3323.996	0.913	1	repeat	Run4	repeat/STIM_012.jpg
3328.023	0.823	1	repeat	Run4	repeat/STIM_012.jpg
3331.948	0.56	1	repeat	Run4	repeat/STIM_012.jpg
3336.437	0.605	1	repeat	Run4	repeat/STIM_013.jpg
3339.313	0.727	1	repeat	Run4	repeat/STIM_013.jpg
3343.425	0.828	1	repeat	Run4	repeat/STIM_013.jpg
3347.947	0.571	1	repeat	Run4	repeat/STIM_013.jpg
3351.57	0.527	1	repeat	Run4	repeat/STIM_013.jpg
3354.399	0.774	0	repeat	Run4	repeat/STIM_014.jpg
3357.564	0.91	1	repeat	Run4	repeat/STIM_014.jpg
3361.895	0.632	1	repeat	Run4	repeat/STIM_014.jpg
3365.839	0.533	1	repeat	Run4	repeat/STIM_014.jpg
3368.501	0.741	1	repeat	Run4	repeat/STIM_014.jpg
