onset	duration	response_time_ms	trial_type	learning_stage	stimulus	response_port
0.0	1.391	1390.7	generate	Run1	generate/STIM_000.jpg	99
5.419	2.47	2470.3	generate	Run1	generate/STIM_000.jpg	100
11.381	1.891	1890.8	generate	Run1	generate/STIM_000.jpg	100
16.515	1.921	1921.0	generate	Run1	generate/STIM_000.jpg	100
22.052	1.161	1160.9	generate	Run1	generate/STIM_000.jpg	100
25.274	2.068	2068.1	generate	Run1	generate/STIM_001.jpg	100
30.919	1.139	1138.7	generate	Run1	generate/STIM_001.jpg	100
34.735	1.224	1224.1	generate	Run1	generate/STIM_001.jpg	100
38.043	1.858	1857.5	generate	Run1	generate/STIM_001.jpg	100
43.016	2.226	2226.5	generate	Run1	generate/STIM_001.jpg	99
48.659	1.617	1616.6	generate	Run1	generate/STIM_002.jpg	100
53.472	1.506	1506.1	generate	Run1	generate/STIM_002.jpg	100
58.344	1.475	1475.0	generate	Run1	generate/STIM_002.jpg	99
61.892	1.882	1881.9	generate	Run1	generate/STIM_002.jpg	100
66.231	2.039	2039.2	generate	Run1	generate/STIM_002.jpg	100
70.705	2.855	2854.7	generate	Run1	generate/STIM_003.jpg	99
76.919	2.103	2103.4	generate	Run1	generate/STIM_003.jpg	99
82.42	1.05	1050.3	generate	Run1	generate/STIM_003.jpg	100
86.749	2.351	2351.3	generate	Run1	generate/STIM_003.jpg	100
92.081	2.276	2275.6	generate	Run1	generate/STIM_003.jpg	99
97.889	2.776	2775.7	generate	Run1	generate/STIM_004.jpg	99
104.43	1.69	1690.2	generate	Run1	generate/STIM_004.jpg	100
109.497	1.795	1794.6	generate	Run1	generate/STIM_004.jpg	100
114.801	2.253	2253.1	generate	Run1	generate/STIM_004.jpg	100
120.352	2.199	2199.0	generate	Run1	generate/STIM_004.jpg	100
125.702	1.945	1944.9	generate	Run1	generate/STIM_005.jpg	100
131.472	2.462	2461.5	generate	Run1	generate/STIM_005.jpg	99
137.991	2.231	2230.8	generate	Run1	generate/STIM_005.jpg	99
142.443	1.894	1894.1	generate	Run1	generate/STIM_005.jpg	100
147.602	1.542	1541.8	generate	Run1	generate/STIM_005.jpg	100
152.605	2.608	2608.3	generate	Run1	generate/STIM_006.jpg	100
157.768	2.288	2288.4	generate	Run1	generate/STIM_006.jpg	100
163.183	1.256	1255.8	generate	Run1	generate/STIM_006.jpg	99
166.773	2.211	2211.2	generate	Run1	generate/STIM_006.jpg	99
171.905	1.36	1360.2	generate	Run1	generate/STIM_006.jpg	100
175.596	1.224	1223.8	generate	Run1	generate/STIM_007.jpg	100
178.88	2.48	2479.8	generate	Run1	generate/STIM_007.jpg	99
184.858	1.966	1966.0	generate	Run1	generate/STIM_007.jpg	99
189.68	1.076	1076.5	generate	Run1	generate/STIM_007.jpg	100
194.043	1.109	1109.0	generate	Run1	generate/STIM_007.jpg	100
197.679	1.61	1610.1	generate	Run1	generate/STIM_008.jpg	99
203.316	1.456	1456.0	generate	Run1	generate/STIM_008.jpg	99
207.66	1.475	1475.3	generate	Run1	generate/STIM_008.jpg	100
212.421	2.056	2056.0	generate	Run1	generate/STIM_008.jpg	99
217.252	0.965	965.2	generate	Run1	generate/STIM_008.jpg	99
220.646	2.544	2544.1	generate	Run1	generate/STIM_009.jpg	100
225.695	1.197	1197.4	generate	Run1	generate/STIM_009.jpg	100
229.667	1.879	1879.0	generate	Run1	generate/STIM_009.jpg	100
234.268	1.68	1679.9	generate	Run1	generate/STIM_009.jpg	100
239.401	1.736	1735.6	generate	Run1	generate/STIM_009.jpg	100
243.667	2.12	2119.7	generate	Run1	generate/STIM_010.jpg	100
248.815	2.678	2677.6	generate	Run1	generate/STIM_010.jpg	100
254.048	1.787	1786.6	generate	Run1	generate/STIM_010.jpg	99
259.564	2.18	2179.6	generate	Run1	generate/STIM_010.jpg	99
264.259	2.207	2207.0	generate	Run1	generate/STIM_010.jpg	99
269.238	1.969	1969.1	generate	Run1	generate/STIM_011.jpg	99
275.257	2.313	2313.0	generate	Run1	generate/STIM_011.jpg	99
280.684	1.676	1676.4	generate	Run1	generate/STIM_011.jpg	100
284.472	1.86	1860.4	generate	Run1	generate/STIM_011.jpg	100
288.856	2.208	2208.0	generate	Run1	generate/STIM_011.jpg	100
295.041	1.284	1284.2	generate	Run1	generate/STIM_012.jpg	100
299.756	1.426	1425.5	generate	Run1	generate/STIM_012.jpg	100
303.374	2.496	2495.7	generate	Run1	generate/STIM_012.jpg	100
308.894	2.034	2033.5	generate	Run1	generate/STIM_012.jpg	100
314.083	1.965	1964.8	generate	Run1	generate/STIM_012.jpg	100
319.814	2.084	2084.0	generate	Run1	generate/STIM_013.jpg	99
325.778	1.27	1270.4	generate	Run1	generate/STIM_013.jpg	99
331.089	1.972	1971.5	generate	Run1	generate/STIM_013.jpg	100
336.07	1.511	1510.6	generate	Run1	generate/STIM_013.jpg	100
340.295	1.963	1962.7	generate	Run1	generate/STIM_013.jpg	100
344.565	2.552	2552.3	generate	Run1	generate/STIM_014.jpg	100
349.773	2.169	2169.3	generate	Run1	generate/STIM_014.jpg	100
355.942	2.366	2366.5	generate	Run1	generate/STIM_014.jpg	100
361.717	2.086	2085.6	generate	Run1	generate/STIM_014.jpg	100
367.802	1.081	1080.8	generate	Run1	generate/STIM_014.jpg	99
371.673	2.667	2666.7	generate	Run1	generate/STIM_015.jpg	99
377.948	1.389	1389.0	generate	Run1	generate/STIM_015.jpg	100
383.06	1.545	1545.0	generate	Run1	generate/STIM_015.jpg	100
387.959	1.403	1402.8	generate	Run1	generate/STIM_015.jpg	100
391.599	2.296	2295.5	generate	Run1	generate/STIM_015.jpg	100
397.049	2.655	2655.3	generate	Run1	generate/STIM_016.jpg	99
402.402	2.39	2390.5	generate	Run1	generate/STIM_016.jpg	100
407.128	1.418	1418.0	generate	Run1	generate/STIM_016.jpg	100
412.373	1.513	1513.2	generate	Run1	generate/STIM_016.jpg	100
416.249	1.558	1557.7	generate	Run1	generate/STIM_016.jpg	99
421.024	1.726	1725.6	generate	Run1	generate/STIM_017.jpg	99
425.368	1.867	1867.4	generate	Run1	generate/STIM_017.jpg	100
429.855	2.291	2291.2	generate	Run1	generate/STIM_017.jpg	100
435.136	1.377	1376.9	generate	Run1	generate/STIM_017.jpg	99
438.923	1.082	1082.2	generate	Run1	generate/STIM_017.jpg	100
442.049	2.478	2478.4	generate	Run1	generate/STIM_018.jpg	99
447.641	2.258	2257.8	generate	Run1	generate/STIM_018.jpg	99
452.453	1.656	1656.2	generate	Run1	generate/STIM_018.jpg	100
456.931	2.425	2424.6	generate	Run1	generate/STIM_018.jpg	100
462.719	0.934	934.0	generate	Run1	generate/STIM_018.jpg	100
466.759	2.58	2580.4	generate	Run1	generate/STIM_019.jpg	99
473.412	1.466	1466.1	generate	Run1	generate/STIM_019.jpg	99
478.812	1.214	1214.2	generate	Run1	generate/STIM_019.jpg	100
482.691	2.435	2435.1	generate	Run1	generate/STIM_019.jpg	99
487.807	1.0	999.9	generate	Run1	generate/STIM_019.jpg	100
492.679	2.302	2302.3	generate	Run1	generate/STIM_020.jpg	100
497.386	1.261	1260.7	generate	Run1	generate/STIM_020.jpg	99
501.312	1.613	1612.8	generate	Run1	generate/STIM_020.jpg	100
505.894	1.655	1654.6	generate	Run1	generate/STIM_020.jpg	100
510.28	2.007	2006.6	generate	Run1	generate/STIM_020.jpg	100
515.327	1.838	1837.8	generate	Run1	generate/STIM_021.jpg	99
519.496	1.165	1164.6	generate	Run1	generate/STIM_021.jpg	99
523.767	1.771	1770.7	generate	Run1	generate/STIM_021.jpg	100
529.465	2.342	2342.4	generate	Run1	generate/STIM_021.jpg	99
534.375	1.696	1696.3	generate	Run1	generate/STIM_021.jpg	100
538.291	2.787	2787.2	generate	Run1	generate/STIM_022.jpg	99
543.496	2.498	2498.1	generate	Run1	generate/STIM_022.jpg	99
549.977	2.306	2305.5	generate	Run1	generate/STIM_022.jpg	100
554.756	1.921	1921.3	generate	Run1	generate/STIM_022.jpg	99
559.474	1.064	1064.0	generate	Run1	generate/STIM_022.jpg	99
562.884	2.068	2068.2	generate	Run1	generate/STIM_023.jpg	99
567.36	2.155	2155.2	generate	Run1	generate/STIM_023.jpg	100
571.684	2.104	2103.9	generate	Run1	generate/STIM_023.jpg	99
575.888	1.698	1698.4	generate	Run1	generate/STIM_023.jpg	99
581.225	1.717	1717.1	generate	Run1	generate/STIM_023.jpg	100
586.349	2.49	2489.7	generate	Run1	generate/STIM_024.jpg	100
591.541	1.418	1418.1	generate	Run1	generate/STIM_024.jpg	100
596.315	1.353	1352.9	generate	Run1	generate/STIM_024.jpg	99
601.354	1.452	1451.5	generate	Run1	generate/STIM_024.jpg	99
606.701	1.996	1996.5	generate	Run1	generate/STIM_024.jpg	99
612.046	0.811	811.2	repeat	Run1	repeat/STIM_000.jpg	100
615.598	0.579	579.2	repeat	Run1	repeat/STIM_000.jpg	100
619.794	0.566	565.5	repeat	Run1	repeat/STIM_000.jpg	99
624.367	0.904	904.3	repeat	Run1	repeat/STIM_000.jpg	99
628.43	0.817	817.3	repeat	Run1	repeat/STIM_000.jpg	100
632.548	0.876	876.5	repeat	Run1	repeat/STIM_001.jpg	100
636.564	0.642	642.0	repeat	Run1	repeat/STIM_001.jpg	100
639.943	0.768	768.2	repeat	Run1	repeat/STIM_001.jpg	99
642.804	0.502	502.5	repeat	Run1	repeat/STIM_001.jpg	99
646.694	0.881	881.3	repeat	Run1	repeat/STIM_001.jpg	99
649.662	0.599	599.1	repeat	Run1	repeat/STIM_002.jpg	100
653.919	0.862	862.5	repeat	Run1	repeat/STIM_002.jpg	99
658.249	0.7	700.0	repeat	Run1	repeat/STIM_002.jpg	99
662.197	0.642	641.5	repeat	Run1	repeat/STIM_002.jpg	100
666.125	0.814	814.4	repeat	Run1	repeat/STIM_002.jpg	99
669.683	0.812	811.5	repeat	Run1	repeat/STIM_003.jpg	100
672.725	0.548	548.2	repeat	Run1	repeat/STIM_003.jpg	100
677.0	0.576	575.8	repeat	Run1	repeat/STIM_003.jpg	99
681.262	0.85	849.5	repeat	Run1	repeat/STIM_003.jpg	99
686.006	0.748	748.3	repeat	Run1	repeat/STIM_003.jpg	100
689.701	0.946	945.8	repeat	Run1	repeat/STIM_004.jpg	99
694.159	0.734	733.8	repeat	Run1	repeat/STIM_004.jpg	99
698.504	0.83	830.2	repeat	Run1	repeat/STIM_004.jpg	100
702.963	0.886	886.3	repeat	Run1	repeat/STIM_004.jpg	99
706.314	0.526	525.9	repeat	Run1	repeat/STIM_004.jpg	99
709.58	0.78	779.9	repeat	Run1	repeat/STIM_005.jpg	99
713.095	0.65	649.8	repeat	Run1	repeat/STIM_005.jpg	99
716.528	0.494	494.2	repeat	Run1	repeat/STIM_005.jpg	99
719.377	0.822	821.9	repeat	Run1	repeat/STIM_005.jpg	99
722.496	0.608	608.0	repeat	Run1	repeat/STIM_005.jpg	100
725.615	0.485	484.8	repeat	Run1	repeat/STIM_006.jpg	100
729.926	0.485	484.9	repeat	Run1	repeat/STIM_006.jpg	99
733.38	0.784	783.5	repeat	Run1	repeat/STIM_006.jpg	99
736.882	0.674	673.5	repeat	Run1	repeat/STIM_006.jpg	100
740.129	0.61	609.8	repeat	Run1	repeat/STIM_006.jpg	99
743.033	0.672	671.9	repeat	Run1	repeat/STIM_007.jpg	99
745.851	0.91	909.5	repeat	Run1	repeat/STIM_007.jpg	99
750.221	0.704	704.0	repeat	Run1	repeat/STIM_007.jpg	100
754.113	0.841	841.0	repeat	Run1	repeat/STIM_007.jpg	99
757.789	0.902	902.0	repeat	Run1	repeat/STIM_007.jpg	99
761.294	0.656	655.6	repeat	Run1	repeat/STIM_008.jpg	100
764.75	0.732	732.0	repeat	Run1	repeat/STIM_008.jpg	100
768.996	0.758	758.0	repeat	Run1	repeat/STIM_008.jpg	99
773.593	0.599	599.0	repeat	Run1	repeat/STIM_008.jpg	99
777.792	0.892	892.1	repeat	Run1	repeat/STIM_008.jpg	100
782.665	0.633	632.9	repeat	Run1	repeat/STIM_009.jpg	99
787.044	0.9	900.5	repeat	Run1	repeat/STIM_009.jpg	99
790.944	0.685	685.1	repeat	Run1	repeat/STIM_009.jpg	100
795.09	0.965	965.3	repeat	Run1	repeat/STIM_009.jpg	100
798.615	0.672	671.9	repeat	Run1	repeat/STIM_009.jpg	99
802.45	0.661	661.4	repeat	Run1	repeat/STIM_010.jpg	100
806.481	0.577	576.9	repeat	Run1	repeat/STIM_010.jpg	99
809.54	0.859	858.8	repeat	Run1	repeat/STIM_010.jpg	99
813.072	0.774	774.2	repeat	Run1	repeat/STIM_010.jpg	99
817.007	0.52	520.0	repeat	Run1	repeat/STIM_010.jpg	99
821.341	0.506	505.8	repeat	Run1	repeat/STIM_011.jpg	99
825.067	0.684	684.0	repeat	Run1	repeat/STIM_011.jpg	99
828.541	0.508	507.9	repeat	Run1	repeat/STIM_011.jpg	100
831.84	0.829	829.1	repeat	Run1	repeat/STIM_011.jpg	99
835.931	0.696	696.2	repeat	Run1	repeat/STIM_011.jpg	99
839.228	0.57	569.9	repeat	Run1	repeat/STIM_012.jpg	99
843.767	0.685	684.6	repeat	Run1	repeat/STIM_012.jpg	99
846.663	0.72	719.6	repeat	Run1	repeat/STIM_012.jpg	100
849.463	0.932	932.0	repeat	Run1	repeat/STIM_012.jpg	99
853.818	0.891	891.4	repeat	Run1	repeat/STIM_012.jpg	100
857.617	0.515	515.0	repeat	Run1	repeat/STIM_013.jpg	100
860.408	0.509	509.3	repeat	Run1	repeat/STIM_013.jpg	100
864.358	0.57	569.9	repeat	Run1	repeat/STIM_013.jpg	99
868.33	0.741	740.8	repeat	Run1	repeat/STIM_013.jpg	99
871.743	0.631	631.0	repeat	Run1	repeat/STIM_013.jpg	100
875.383	0.571	570.7	repeat	Run1	repeat/STIM_014.jpg	100
879.775	0.868	868.1	repeat	Run1	repeat/STIM_014.jpg	99
884.418	0.911	911.2	repeat	Run1	repeat/STIM_014.jpg	99
888.803	0.774	774.1	repeat	Run1	repeat/STIM_014.jpg	99
892.584	0.936	935.6	repeat	Run1	repeat/STIM_014.jpg	100
897.241	1.325	1325.0	generate	Run2	generate/STIM_000.jpg	100
901.68	1.062	1062.4	generate	Run2	generate/STIM_000.jpg	100
905.0	1.097	1097.0	generate	Run2	generate/STIM_000.jpg	99
909.673	1.88	1880.2	generate	Run2	generate/STIM_000.jpg	100
913.792	1.657	1656.9	generate	Run2	generate/STIM_000.jpg	100
918.53	1.922	1922.2	generate	Run2	generate/STIM_001.jpg	100
923.09	1.073	1072.9	generate	Run2	generate/STIM_001.jpg	99
928.042	1.005	1004.6	generate	Run2	generate/STIM_001.jpg	100
932.279	1.419	1419.2	generate	Run2	generate/STIM_001.jpg	99
937.605	1.65	1649.9	generate	Run2	generate/STIM_001.jpg	99
941.722	1.335	1334.7	generate	Run2	generate/STIM_002.jpg	99
946.865	1.853	1853.3	generate	Run2	generate/STIM_002.jpg	100
952.597	1.796	1796.5	generate	Run2	generate/STIM_002.jpg	99
957.527	1.077	1076.6	generate	Run2	generate/STIM_002.jpg	99
961.854	1.483	1483.4	generate	Run2	generate/STIM_002.jpg	99
965.744	1.873	1873.4	generate	Run2	generate/STIM_003.jpg	100
970.705	1.585	1585.2	generate	Run2	generate/STIM_003.jpg	99
975.293	1.191	1191.2	generate	Run2	generate/STIM_003.jpg	100
979.654	1.292	1292.0	generate	Run2	generate/STIM_003.jpg	100
984.934	1.939	1938.8	generate	Run2	generate/STIM_003.jpg	99
989.281	2.435	2434.9	generate	Run2	generate/STIM_004.jpg	100
993.902	2.195	2195.0	generate	Run2	generate/STIM_004.jpg	99
998.687	1.994	1993.5	generate	Run2	generate/STIM_004.jpg	100
1004.261	1.13	1130.0	generate	Run2	generate/STIM_004.jpg	99
1008.886	1.532	1532.1	generate	Run2	generate/STIM_004.jpg	99
1014.424	1.489	1489.1	generate	Run2	generate/STIM_005.jpg	99
1018.111	2.147	2147.4	generate	Run2	generate/STIM_005.jpg	100
1024.138	0.973	973.2	generate	Run2	generate/STIM_005.jpg	99
1028.964	1.499	1499.0	generate	Run2	generate/STIM_005.jpg	100
1032.609	1.541	1541.4	generate	Run2	generate/STIM_005.jpg	100
1036.804	1.437	1437.3	generate	Run2	generate/STIM_006.jpg	100
1042.185	1.674	1673.6	generate	Run2	generate/STIM_006.jpg	100
1047.248	1.883	1882.9	generate	Run2	generate/STIM_006.jpg	99
1051.93	0.849	848.7	generate	Run2	generate/STIM_006.jpg	100
1055.388	1.857	1856.6	generate	Run2	generate/STIM_006.jpg	99
1060.166	1.276	1276.2	generate	Run2	generate/STIM_007.jpg	100
1064.652	1.085	1084.7	generate	Run2	generate/STIM_007.jpg	99
1069.577	1.914	1914.2	generate	Run2	generate/STIM_007.jpg	100
1074.522	1.635	1635.2	generate	Run2	generate/STIM_007.jpg	99
1078.439	1.35	1349.7	generate	Run2	generate/STIM_007.jpg	99
1083.25	1.673	1673.4	generate	Run2	generate/STIM_008.jpg	100
1087.682	1.787	1787.1	generate	Run2	generate/STIM_008.jpg	99
1091.574	1.176	1175.9	generate	Run2	generate/STIM_008.jpg	100
1096.359	1.36	1360.4	generate	Run2	generate/STIM_008.jpg	100
1101.741	1.792	1792.0	generate	Run2	generate/STIM_008.jpg	99
1106.26	1.983	1983.3	generate	Run2	generate/STIM_009.jpg	99
1111.31	1.796	1795.7	generate	Run2	generate/STIM_009.jpg	99
1116.247	1.586	1586.1	generate	Run2	generate/STIM_009.jpg	99
1121.564	1.818	1818.2	generate	Run2	generate/STIM_009.jpg	99
1127.398	1.771	1771.3	generate	Run2	generate/STIM_009.jpg	100
1131.698	1.668	1667.6	generate	Run2	generate/STIM_010.jpg	99
1136.325	1.611	1611.2	generate	Run2	generate/STIM_010.jpg	99
1141.943	1.83	1830.2	generate	Run2	generate/STIM_010.jpg	99
1146.677	1.221	1220.9	generate	Run2	generate/STIM_010.jpg	100
1151.042	1.186	1186.0	generate	Run2	generate/STIM_010.jpg	99
1155.566	1.943	1942.7	generate	Run2	generate/STIM_011.jpg	100
1160.711	1.864	1863.6	generate	Run2	generate/STIM_011.jpg	99
1165.747	1.714	1714.4	generate	Run2	generate/STIM_011.jpg	99
1170.031	1.523	1523.1	generate	Run2	generate/STIM_011.jpg	99
1174.13	1.378	1378.0	generate	Run2	generate/STIM_011.jpg	99
1178.533	2.274	2274.2	generate	Run2	generate/STIM_012.jpg	99
1183.654	1.927	1926.6	generate	Run2	generate/STIM_012.jpg	100
1188.774	1.644	1644.2	generate	Run2	generate/STIM_012.jpg	99
1194.181	0.83	830.3	generate	Run2	generate/STIM_012.jpg	100
1198.692	1.627	1627.0	generate	Run2	generate/STIM_012.jpg	100
1203.401	1.412	1411.5	generate	Run2	generate/STIM_013.jpg	99
1208.269	1.396	1395.6	generate	Run2	generate/STIM_013.jpg	99
1211.844	1.029	1029.1	generate	Run2	generate/STIM_013.jpg	100
1216.891	2.022	2021.9	generate	Run2	generate/STIM_013.jpg	100
1222.511	1.925	1924.9	generate	Run2	generate/STIM_013.jpg	99
1227.198	2.44	2439.7	generate	Run2	generate/STIM_014.jpg	99
1232.503	0.969	968.7	generate	Run2	generate/STIM_014.jpg	99
1237.064	2.018	2017.5	generate	Run2	generate/STIM_014.jpg	100
1241.285	1.7	1699.8	generate	Run2	generate/STIM_014.jpg	100
1245.213	1.394	1393.9	generate	Run2	generate/STIM_014.jpg	99
1250.254	2.432	2431.6	generate	Run2	generate/STIM_015.jpg	100
1255.745	1.0	1000.4	generate	Run2	generate/STIM_015.jpg	100
1259.652	1.493	1492.9	generate	Run2	generate/STIM_015.jpg	100
1264.562	2.013	2012.5	generate	Run2	generate/STIM_015.jpg	99
1269.823	1.81	1810.5	generate	Run2	generate/STIM_015.jpg	99
1273.725	2.422	2422.0	generate	Run2	generate/STIM_016.jpg	100
1279.932	2.02	2019.7	generate	Run2	generate/STIM_016.jpg	100
1285.772	1.119	1118.6	generate	Run2	generate/STIM_016.jpg	99
1289.543	0.976	976.4	generate	Run2	generate/STIM_016.jpg	99
1292.922	1.058	1058.2	generate	Run2	generate/STIM_016.jpg	99
1296.657	2.38	2380.1	generate	Run2	generate/STIM_017.jpg	99
1302.789	1.859	1858.6	generate	Run2	generate/STIM_017.jpg	99
1308.553	1.336	1335.7	generate	Run2	generate/STIM_017.jpg	100
1313.721	1.184	1183.6	generate	Run2	generate/STIM_017.jpg	100
1317.417	1.953	1952.7	generate	Run2	generate/STIM_017.jpg	99
1322.95	2.034	2033.7	generate	Run2	generate/STIM_018.jpg	100
1327.255	2.223	2222.6	generate	Run2	generate/STIM_018.jpg	99
1333.128	1.988	1987.9	generate	Run2	generate/STIM_018.jpg	99
1339.108	1.986	1985.9	generate	Run2	generate/STIM_018.jpg	100
1344.443	1.776	1776.5	generate	Run2	generate/STIM_018.jpg	99
1348.339	1.542	1542.4	generate	Run2	generate/STIM_019.jpg	99
1352.335	2.146	2146.3	generate	Run2	generate/STIM_019.jpg	100
1358.144	1.539	1539.0	generate	Run2	generate/STIM_019.jpg	100
1361.812	0.945	945.0	generate	Run2	generate/STIM_019.jpg	100
1365.041	1.905	1905.1	generate	Run2	generate/STIM_019.jpg	99
1369.268	1.018	1017.7	generate	Run2	generate/STIM_020.jpg	99
1373.601	1.382	1382.4	generate	Run2	generate/STIM_020.jpg	99
1378.046	1.815	1814.7	generate	Run2	generate/STIM_020.jpg	100
1383.231	1.41	1409.7	generate	Run2	generate/STIM_020.jpg	99
1388.116	1.556	1556.2	generate	Run2	generate/STIM_020.jpg	99
1392.989	1.873	1872.7	generate	Run2	generate/STIM_021.jpg	100
1397.709	1.858	1857.6	generate	Run2	generate/STIM_021.jpg	99
1403.429	1.656	1656.1	generate	Run2	generate/STIM_021.jpg	99
1407.296	1.508	1508.0	generate	Run2	generate/STIM_021.jpg	99
1411.663	0.997	997.0	generate	Run2	generate/STIM_021.jpg	100
1414.872	1.354	1354.4	generate	Run2	generate/STIM_022.jpg	99
1419.962	1.464	1463.6	generate	Run2	generate/STIM_022.jpg	100
1423.743	1.195	1194.7	generate	Run2	generate/STIM_022.jpg	100
1428.608	2.003	2003.2	generate	Run2	generate/STIM_022.jpg	99
1433.56	0.847	847.0	generate	Run2	generate/STIM_022.jpg	99
1437.308	2.213	2212.7	generate	Run2	generate/STIM_023.jpg	99
1442.003	1.761	1761.3	generate	Run2	generate/STIM_023.jpg	100
1447.07	0.928	928.5	generate	Run2	generate/STIM_023.jpg	99
1450.37	1.958	1957.9	generate	Run2	generate/STIM_023.jpg	99
1454.948	1.507	1507.3	generate	Run2	generate/STIM_023.jpg	99
1460.115	0.997	996.8	generate	Run2	generate/STIM_024.jpg	100
1463.752	1.48	1479.5	generate	Run2	generate/STIM_024.jpg	100
1468.764	2.004	2004.4	generate	Run2	generate/STIM_024.jpg	100
1474.757	1.15	1150.5	generate	Run2	generate/STIM_024.jpg	99
1478.23	1.226	1225.8	generate	Run2	generate/STIM_024.jpg	100
1483.226	0.851	851.0	repeat	Run2	repeat/STIM_000.jpg	100
1486.745	0.964	964.4	repeat	Run2	repeat/STIM_000.jpg	99
1489.801	0.539	538.6	repeat	Run2	repeat/STIM_000.jpg	99
1493.945	0.666	665.8	repeat	Run2	repeat/STIM_000.jpg	100
1496.641	0.564	563.9	repeat	Run2	repeat/STIM_000.jpg	100
1499.93	0.685	685.2	repeat	Run2	repeat/STIM_001.jpg	100
1504.526	0.602	602.0	repeat	Run2	repeat/STIM_001.jpg	99
1507.968	0.565	564.7	repeat	Run2	repeat/STIM_001.jpg	99
1511.259	0.75	749.6	repeat	Run2	repeat/STIM_001.jpg	99
1515.507	0.743	742.6	repeat	Run2	repeat/STIM_001.jpg	99
1518.582	0.534	533.7	repeat	Run2	repeat/STIM_002.jpg	99
1521.959	0.877	876.7	repeat	Run2	repeat/STIM_002.jpg	100
1525.397	0.942	941.5	repeat	Run2	repeat/STIM_002.jpg	100
1530.34	0.737	736.6	repeat	Run2	repeat/STIM_002.jpg	99
1533.837	0.794	793.8	repeat	Run2	repeat/STIM_002.jpg	100
1538.05	0.883	882.8	repeat	Run2	repeat/STIM_003.jpg	100
1541.173	0.918	917.5	repeat	Run2	repeat/STIM_003.jpg	99
1544.691	0.926	925.8	repeat	Run2	repeat/STIM_003.jpg	100
1547.864	0.781	781.3	repeat	Run2	repeat/STIM_003.jpg	100
1551.153	0.716	716.1	repeat	Run2	repeat/STIM_003.jpg	99
1554.247	0.611	610.7	repeat	Run2	repeat/STIM_004.jpg	100
1557.433	0.702	702.1	repeat	Run2	repeat/STIM_004.jpg	99
1561.808	0.597	596.8	repeat	Run2	repeat/STIM_004.jpg	99
1565.007	0.62	619.9	repeat	Run2	repeat/STIM_004.jpg	99
1569.528	0.495	495.0	repeat	Run2	repeat/STIM_004.jpg	99
1572.758	0.574	574.4	repeat	Run2	repeat/STIM_005.jpg	99
1575.923	0.896	895.6	repeat	Run2	repeat/STIM_005.jpg	100
1579.523	0.949	949.1	repeat	Run2	repeat/STIM_005.jpg	99
1582.957	0.712	712.0	repeat	Run2	repeat/STIM_005.jpg	99
1586.712	0.726	725.8	repeat	Run2	repeat/STIM_005.jpg	100
1590.311	0.821	820.6	repeat	Run2	repeat/STIM_006.jpg	99
1594.754	0.781	780.6	repeat	Run2	repeat/STIM_006.jpg	100
1598.615	0.757	757.1	repeat	Run2	repeat/STIM_006.jpg	99
1603.113	0.586	586.3	repeat	Run2	repeat/STIM_006.jpg	99
1606.675	0.898	897.6	repeat	Run2	repeat/STIM_006.jpg	100
1609.974	0.813	812.6	repeat	Run2	repeat/STIM_007.jpg	99
1613.146	0.604	604.3	repeat	Run2	repeat/STIM_007.jpg	100
1617.043	0.942	941.8	repeat	Run2	repeat/STIM_007.jpg	100
1621.483	0.535	535.4	repeat	Run2	repeat/STIM_007.jpg	99
1625.881	0.66	660.2	repeat	Run2	repeat/STIM_007.jpg	100
1630.47	0.934	933.9	repeat	Run2	repeat/STIM_008.jpg	99
1634.349	0.593	592.9	repeat	Run2	repeat/STIM_008.jpg	100
1637.0	0.558	557.5	repeat	Run2	repeat/STIM_008.jpg	99
1640.48	0.686	685.9	repeat	Run2	repeat/STIM_008.jpg	99
1644.606	0.86	860.5	repeat	Run2	repeat/STIM_008.jpg	99
1648.72	0.606	606.0	repeat	Run2	repeat/STIM_009.jpg	99
1652.65	0.792	791.7	repeat	Run2	repeat/STIM_009.jpg	99
1657.391	0.712	711.8	repeat	Run2	repeat/STIM_009.jpg	100
1661.59	0.578	578.5	repeat	Run2	repeat/STIM_009.jpg	99
1665.072	0.812	812.5	repeat	Run2	repeat/STIM_009.jpg	99
1669.26	0.638	638.4	repeat	Run2	repeat/STIM_010.jpg	100
1672.751	0.716	715.6	repeat	Run2	repeat/STIM_010.jpg	100
1677.129	0.514	514.2	repeat	Run2	repeat/STIM_010.jpg	100
1680.769	0.928	928.4	repeat	Run2	repeat/STIM_010.jpg	99
1684.845	0.846	846.3	repeat	Run2	repeat/STIM_010.jpg	99
1688.683	0.563	563.0	repeat	Run2	repeat/STIM_011.jpg	100
1691.357	0.821	820.6	repeat	Run2	repeat/STIM_011.jpg	100
1696.182	0.823	822.7	repeat	Run2	repeat/STIM_011.jpg	99
1699.062	0.837	837.4	repeat	Run2	repeat/STIM_011.jpg	99
1702.334	0.559	559.0	repeat	Run2	repeat/STIM_011.jpg	100
1706.756	0.819	819.0	repeat	Run2	repeat/STIM_012.jpg	99
1709.717	0.54	540.0	repeat	Run2	repeat/STIM_012.jpg	99
1713.164	0.944	944.3	repeat	Run2	repeat/STIM_012.jpg	100
1716.893	0.852	852.4	repeat	Run2	repeat/STIM_012.jpg	99
1721.509	0.592	592.0	repeat	Run2	repeat/STIM_012.jpg	99
1724.673	0.944	944.2	repeat	Run2	repeat/STIM_013.jpg	99
1728.631	0.486	486.4	repeat	Run2	repeat/STIM_013.jpg	99
1731.565	0.689	689.4	repeat	Run2	repeat/STIM_013.jpg	99
1735.674	0.729	729.3	repeat	Run2	repeat/STIM_013.jpg	100
1740.004	0.591	591.3	repeat	Run2	repeat/STIM_013.jpg	99
1743.532	0.873	873.1	repeat	Run2	repeat/STIM_014.jpg	99
1748.252	0.513	513.4	repeat	Run2	repeat/STIM_014.jpg	100
1751.018	0.84	840.5	repeat	Run2	repeat/STIM_014.jpg	99
1755.272	0.677	676.7	repeat	Run2	repeat/STIM_014.jpg	99
1759.033	0.694	693.6	repeat	Run2	repeat/STIM_014.jpg	99
1762.539	1.388	1387.7	generate	Run3	generate/STIM_000.jpg	100
1766.902	1.893	1892.9	generate	Run3	generate/STIM_000.jpg	99
1771.587	1.931	1930.9	generate	Run3	generate/STIM_000.jpg	99
1776.954	1.287	1286.7	generate	Run3	generate/STIM_000.jpg	99
1780.703	0.947	946.9	generate	Run3	generate/STIM_000.jpg	99
1784.661	1.744	1744.1	generate	Run3	generate/STIM_001.jpg	100
1788.638	1.962	1961.9	generate	Run3	generate/STIM_001.jpg	99
1793.518	0.959	958.7	generate	Run3	generate/STIM_001.jpg	100
1796.935	0.953	952.6	generate	Run3	generate/STIM_001.jpg	99
1801.897	1.448	1448.1	generate	Run3	generate/STIM_001.jpg	100
1807.083	1.811	1810.8	generate	Run3	generate/STIM_002.jpg	99
1811.517	1.64	1640.1	generate	Run3	generate/STIM_002.jpg	99
1816.843	1.316	1316.2	generate	Run3	generate/STIM_002.jpg	100
1820.257	0.823	823.1	generate	Run3	generate/STIM_002.jpg	99
1823.433	1.766	1766.5	generate	Run3	generate/STIM_002.jpg	99
1828.297	1.633	1633.3	generate	Run3	generate/STIM_003.jpg	100
1833.201	1.995	1994.7	generate	Run3	generate/STIM_003.jpg	100
1838.098	1.652	1651.8	generate	Run3	generate/STIM_003.jpg	99
1842.011	1.223	1222.7	generate	Run3	generate/STIM_003.jpg	99
1847.0	0.897	897.3	generate	Run3	generate/STIM_003.jpg	99
1850.867	1.046	1046.4	generate	Run3	generate/STIM_004.jpg	99
1855.919	1.006	1006.1	generate	Run3	generate/STIM_004.jpg	100
1859.499	0.896	895.6	generate	Run3	generate/STIM_004.jpg	99
1863.608	1.471	1470.8	generate	Run3	generate/STIM_004.jpg	100
1868.781	1.699	1698.7	generate	Run3	generate/STIM_004.jpg	100
1873.831	1.103	1103.4	generate	Run3	generate/STIM_005.jpg	100
1877.088	1.31	1309.8	generate	Run3	generate/STIM_005.jpg	100
1881.01	1.73	1730.5	generate	Run3	generate/STIM_005.jpg	99
1885.054	1.123	1123.0	generate	Run3	generate/STIM_005.jpg	99
1889.395	1.718	1717.9	generate	Run3	generate/STIM_005.jpg	99
1893.947	1.15	1149.5	generate	Run3	generate/STIM_006.jpg	99
1898.874	1.936	1936.2	generate	Run3	generate/STIM_006.jpg	99
1903.847	2.009	2008.7	generate	Run3	generate/STIM_006.jpg	99
1908.517	2.027	2027.1	generate	Run3	generate/STIM_006.jpg	100
1913.067	1.625	1625.2	generate	Run3	generate/STIM_006.jpg	100
1918.151	1.338	1338.5	generate	Run3	generate/STIM_007.jpg	100
1923.506	1.452	1452.5	generate	Run3	generate/STIM_007.jpg	99
1927.747	1.968	1968.5	generate	Run3	generate/STIM_007.jpg	99
1932.078	1.88	1879.7	generate	Run3	generate/STIM_007.jpg	99
1936.223	1.192	1191.5	generate	Run3	generate/STIM_007.jpg	100
1939.457	0.924	923.7	generate	Run3	generate/STIM_008.jpg	99
1942.769	1.192	1192.3	generate	Run3	generate/STIM_008.jpg	100
1947.251	0.9	899.9	generate	Run3	generate/STIM_008.jpg	99
1950.675	1.775	1774.9	generate	Run3	generate/STIM_008.jpg	100
1955.088	1.204	1203.7	generate	Run3	generate/STIM_008.jpg	99
1959.294	1.688	1688.1	generate	Run3	generate/STIM_009.jpg	99
1963.953	1.43	1429.5	generate	Run3	generate/STIM_009.jpg	99
1967.433	1.942	1942.1	generate	Run3	generate/STIM_009.jpg	100
1971.818	1.702	1702.5	generate	Run3	generate/STIM_009.jpg	99
1977.284	1.383	1383.0	generate	Run3	generate/STIM_009.jpg	100
1982.159	1.252	1252.3	generate	Run3	generate/STIM_010.jpg	99
1985.519	1.901	1900.6	generate	Run3	generate/STIM_010.jpg	100
1990.951	1.108	1108.4	generate	Run3	generate/STIM_010.jpg	99
1995.878	1.585	1585.0	generate	Run3	generate/STIM_010.jpg	100
2001.242	1.089	1088.8	generate	Run3	generate/STIM_010.jpg	100
2004.64	1.897	1896.6	generate	Run3	generate/STIM_011.jpg	99
2009.681	1.466	1465.5	generate	Run3	generate/STIM_011.jpg	99
2014.431	1.851	1851.1	generate	Run3	generate/STIM_011.jpg	99
2018.458	0.873	873.2	generate	Run3	generate/STIM_011.jpg	99
2022.975	1.643	1642.7	generate	Run3	generate/STIM_011.jpg	99
2027.025	1.316	1316.0	generate	Run3	generate/STIM_012.jpg	100
2031.235	1.618	1617.5	generate	Run3	generate/STIM_012.jpg	99
2035.679	1.6	1600.4	generate	Run3	generate/STIM_012.jpg	100
2040.245	1.387	1387.3	generate	Run3	generate/STIM_012.jpg	100
2045.422	1.945	1944.9	generate	Run3	generate/STIM_012.jpg	100
2051.352	0.881	880.8	generate	Run3	generate/STIM_013.jpg	100
2054.309	1.187	1187.2	generate	Run3	generate/STIM_013.jpg	99
2058.111	1.992	1992.0	generate	Run3	generate/STIM_013.jpg	99
2063.315	1.861	1861.4	generate	Run3	generate/STIM_013.jpg	100
2067.369	0.911	911.0	generate	Run3	generate/STIM_013.jpg	99
2072.139	0.988	988.2	generate	Run3	generate/STIM_014.jpg	100
2075.587	0.937	937.1	generate	Run3	generate/STIM_014.jpg	99
2078.881	0.91	909.5	generate	Run3	generate/STIM_014.jpg	100
2083.276	1.31	1310.2	generate	Run3	generate/STIM_014.jpg	100
2087.498	1.809	1808.6	generate	Run3	generate/STIM_014.jpg	99
2091.407	1.06	1060.3	generate	Run3	generate/STIM_015.jpg	99
2096.315	1.645	1644.9	generate	Run3	generate/STIM_015.jpg	100
2100.053	1.522	1522.1	generate	Run3	generate/STIM_015.jpg	100
2103.791	1.983	1983.2	generate	Run3	generate/STIM_015.jpg	100
2108.763	1.078	1078.0	generate	Run3	generate/STIM_015.jpg	100
2112.827	1.544	1543.6	generate	Run3	generate/STIM_016.jpg	100
2117.283	1.431	1431.4	generate	Run3	generate/STIM_016.jpg	99
2121.224	1.589	1588.9	generate	Run3	generate/STIM_016.jpg	99
2125.543	1.219	1218.9	generate	Run3	generate/STIM_016.jpg	99
2130.44	1.398	1398.0	generate	Run3	generate/STIM_016.jpg	99
2134.736	1.307	1307.4	generate	Run3	generate/STIM_017.jpg	99
2140.017	1.443	1443.1	generate	Run3	generate/STIM_017.jpg	99
2144.226	1.896	1896.1	generate	Run3	generate/STIM_017.jpg	100
2149.03	1.998	1997.9	generate	Run3	generate/STIM_017.jpg	100
2153.89	1.806	1806.2	generate	Run3	generate/STIM_017.jpg	99
2159.753	1.497	1497.0	generate	Run3	generate/STIM_018.jpg	100
2163.734	1.245	1245.4	generate	Run3	generate/STIM_018.jpg	100
2167.933	0.974	974.0	generate	Run3	generate/STIM_018.jpg	100
2172.503	1.184	1183.5	generate	Run3	generate/STIM_018.jpg	99
2177.17	0.835	834.6	generate	Run3	generate/STIM_018.jpg	100
2181.753	2.002	2001.5	generate	Run3	generate/STIM_019.jpg	100
2187.536	0.999	999.2	generate	Run3	generate/STIM_019.jpg	100
2192.543	1.523	1523.4	generate	Run3	generate/STIM_019.jpg	100
2197.345	1.03	1029.6	generate	Run3	generate/STIM_019.jpg	99
2202.347	1.271	1270.9	generate	Run3	generate/STIM_019.jpg	99
2207.21	0.875	875.2	generate	Run3	generate/STIM_020.jpg	99
2210.851	1.856	1855.9	generate	Run3	generate/STIM_020.jpg	99
2215.954	1.896	1896.2	generate	Run3	generate/STIM_020.jpg	100
2221.73	1.513	1512.9	generate	Run3	generate/STIM_020.jpg	99
2226.17	1.145	1144.9	generate	Run3	generate/STIM_020.jpg	99
2229.456	1.542	1542.2	generate	Run3	generate/STIM_021.jpg	100
2234.823	1.294	1293.7	generate	Run3	generate/STIM_021.jpg	99
2239.034	1.604	1604.0	generate	Run3	generate/STIM_021.jpg	99
2243.324	1.706	1706.3	generate	Run3	generate/STIM_021.jpg	99
2247.902	2.006	2006.3	generate	Run3	generate/STIM_021.jpg	99
2252.835	1.684	1683.6	generate	Run3	generate/STIM_022.jpg	100
2258.448	1.263	1263.3	generate	Run3	generate/STIM_022.jpg	100
2262.719	1.364	1363.6	generate	Run3	generate/STIM_022.jpg	99
2267.217	0.862	861.5	generate	Run3	generate/STIM_022.jpg	100
2271.363	1.017	1017.0	generate	Run3	generate/STIM_022.jpg	100
2275.144	1.311	1311.1	generate	Run3	generate/STIM_023.jpg	99
2279.854	1.903	1902.9	generate	Run3	generate/STIM_023.jpg	99
2284.806	1.575	1575.0	generate	Run3	generate/STIM_023.jpg	99
2288.538	1.54	1540.3	generate	Run3	generate/STIM_023.jpg	100
2292.61	2.03	2030.1	generate	Run3	generate/STIM_023.jpg	100
2296.744	1.592	1591.7	generate	Run3	generate/STIM_024.jpg	99
2301.233	2.01	2010.4	generate	Run3	generate/STIM_024.jpg	99
2306.607	1.133	1132.9	generate	Run3	generate/STIM_024.jpg	99
2311.311	0.836	836.3	generate	Run3	generate/STIM_024.jpg	100
2314.885	2.007	2006.8	generate	Run3	generate/STIM_024.jpg	99
2319.453	0.57	570.0	repeat	Run3	repeat/STIM_000.jpg	100
2322.995	0.837	837.2	repeat	Run3	repeat/STIM_000.jpg	100
2327.176	0.52	520.1	repeat	Run3	repeat/STIM_000.jpg	100
2330.556	0.788	787.8	repeat	Run3	repeat/STIM_000.jpg	100
2333.462	0.778	778.2	repeat	Run3	repeat/STIM_000.jpg	100
2337.36	0.938	937.7	repeat	Run3	repeat/STIM_001.jpg	99
2341.627	0.801	800.7	repeat	Run3	repeat/STIM_001.jpg	99
2345.442	0.656	656.1	repeat	Run3	repeat/STIM_001.jpg	100
2349.257	0.818	818.4	repeat	Run3	repeat/STIM_001.jpg	100
2352.275	0.77	770.4	repeat	Run3	repeat/STIM_001.jpg	100
2356.221	0.49	490.3	repeat	Run3	repeat/STIM_002.jpg	99
2359.278	0.863	862.9	repeat	Run3	repeat/STIM_002.jpg	100
2363.344	0.598	597.5	repeat	Run3	repeat/STIM_002.jpg	100
2367.279	0.852	852.3	repeat	Run3	repeat/STIM_002.jpg	100
2370.988	0.648	647.8	repeat	Run3	repeat/STIM_002.jpg	99
2374.144	0.856	856.2	repeat	Run3	repeat/STIM_003.jpg	99
2378.711	0.507	506.8	repeat	Run3	repeat/STIM_003.jpg	99
2382.928	0.561	560.7	repeat	Run3	repeat/STIM_003.jpg	99
2387.019	0.572	571.8	repeat	Run3	repeat/STIM_003.jpg	99
2390.757	0.768	768.0	repeat	Run3	repeat/STIM_003.jpg	99
2394.809	0.881	881.3	repeat	Run3	repeat/STIM_004.jpg	99
2398.136	0.878	878.0	repeat	Run3	repeat/STIM_004.jpg	99
2401.201	0.615	614.9	repeat	Run3	repeat/STIM_004.jpg	99
2404.91	0.779	778.8	repeat	Run3	repeat/STIM_004.jpg	99
2408.099	0.634	634.2	repeat	Run3	repeat/STIM_004.jpg	100
2412.525	0.836	835.8	repeat	Run3	repeat/STIM_005.jpg	99
2415.481	0.728	728.4	repeat	Run3	repeat/STIM_005.jpg	100
2419.539	0.623	623.1	repeat	Run3	repeat/STIM_005.jpg	99
2422.784	0.551	550.6	repeat	Run3	repeat/STIM_005.jpg	99
2425.615	0.902	901.6	repeat	Run3	repeat/STIM_005.jpg	100
2429.499	0.51	509.7	repeat	Run3	repeat/STIM_006.jpg	100
2432.299	0.825	825.1	repeat	Run3	repeat/STIM_006.jpg	100
2436.426	0.58	579.9	repeat	Run3	repeat/STIM_006.jpg	99
2440.166	0.952	952.0	repeat	Run3	repeat/STIM_006.jpg	99
2444.256	0.631	631.3	repeat	Run3	repeat/STIM_006.jpg	99
2447.105	0.853	853.4	repeat	Run3	repeat/STIM_007.jpg	99
2451.238	0.822	822.5	repeat	Run3	repeat/STIM_007.jpg	100
2455.092	0.569	568.6	repeat	Run3	repeat/STIM_007.jpg	100
2458.86	0.614	613.7	repeat	Run3	repeat/STIM_007.jpg	100
2461.779	0.704	704.5	repeat	Run3	repeat/STIM_007.jpg	100
2464.554	0.688	688.1	repeat	Run3	repeat/STIM_008.jpg	100
2467.403	0.964	964.2	repeat	Run3	repeat/STIM_008.jpg	100
2470.513	0.78	780.4	repeat	Run3	repeat/STIM_008.jpg	99
2474.873	0.784	783.9	repeat	Run3	repeat/STIM_008.jpg	99
2478.293	0.643	642.6	repeat	Run3	repeat/STIM_008.jpg	99
2482.335	0.527	527.0	repeat	Run3	repeat/STIM_009.jpg	99
2486.032	0.68	679.8	repeat	Run3	repeat/STIM_009.jpg	100
2490.39	0.58	580.4	repeat	Run3	repeat/STIM_009.jpg	99
2493.696	0.648	647.8	repeat	Run3	repeat/STIM_009.jpg	100
2496.824	0.492	491.7	repeat	Run3	repeat/STIM_009.jpg	100
2500.983	0.614	613.5	repeat	Run3	repeat/STIM_010.jpg	100
2503.907	0.671	670.9	repeat	Run3	repeat/STIM_010.jpg	99
2508.213	0.68	679.7	repeat	Run3	repeat/STIM_010.jpg	100
2511.024	0.929	929.3	repeat	Run3	repeat/STIM_010.jpg	99
2514.017	0.598	598.2	repeat	Run3	repeat/STIM_010.jpg	99
2517.154	0.874	874.2	repeat	Run3	repeat/STIM_011.jpg	100
2521.745	0.673	673.0	repeat	Run3	repeat/STIM_011.jpg	100
2525.513	0.571	571.4	repeat	Run3	repeat/STIM_011.jpg	99
2528.428	0.59	589.6	repeat	Run3	repeat/STIM_011.jpg	99
2532.603	0.822	822.5	repeat	Run3	repeat/STIM_011.jpg	100
2536.04	0.753	753.4	repeat	Run3	repeat/STIM_012.jpg	99
2540.177	0.82	820.3	repeat	Run3	repeat/STIM_012.jpg	100
2543.261	0.523	523.4	repeat	Run3	repeat/STIM_012.jpg	100
2547.025	0.606	605.6	repeat	Run3	repeat/STIM_012.jpg	100
2550.934	0.961	961.4	repeat	Run3	repeat/STIM_012.jpg	99
2555.905	0.556	556.1	repeat	Run3	repeat/STIM_013.jpg	100
2560.131	0.67	670.2	repeat	Run3	repeat/STIM_013.jpg	100
2563.032	0.542	542.0	repeat	Run3	repeat/STIM_013.jpg	99
2565.977	0.834	834.2	repeat	Run3	repeat/STIM_013.jpg	100
2569.584	0.506	506.5	repeat	Run3	repeat/STIM_013.jpg	99
2573.38	0.612	612.3	repeat	Run3	repeat/STIM_014.jpg	99
2576.878	0.593	592.7	repeat	Run3	repeat/STIM_014.jpg	100
2580.269	0.827	826.6	repeat	Run3	repeat/STIM_014.jpg	99
2583.48	0.795	795.3	repeat	Run3	repeat/STIM_014.jpg	100
2586.491	0.629	629.4	repeat	Run3	repeat/STIM_014.jpg	100
2590.049	1.805	1804.9	generate	Run4	generate/STIM_000.jpg	99
2595.146	1.223	1223.0	generate	Run4	generate/STIM_000.jpg	100
2599.887	1.994	1994.1	generate	Run4	generate/STIM_000.jpg	100
2605.18	1.594	1594.5	generate	Run4	generate/STIM_000.jpg	100
2610.558	1.955	1954.6	generate	Run4	generate/STIM_000.jpg	100
2616.325	1.939	1939.1	generate	Run4	generate/STIM_001.jpg	100
2620.441	1.078	1078.3	generate	Run4	generate/STIM_001.jpg	99
2625.321	1.828	1827.9	generate	Run4	generate/STIM_001.jpg	99
2631.006	1.939	1938.9	generate	Run4	generate/STIM_001.jpg	100
2635.053	1.189	1188.9	generate	Run4	generate/STIM_001.jpg	99
2639.564	0.979	978.6	generate	Run4	generate/STIM_002.jpg	99
2644.373	1.637	1637.3	generate	Run4	generate/STIM_002.jpg	100
2648.971	1.686	1685.8	generate	Run4	generate/STIM_002.jpg	99
2653.774	1.656	1655.5	generate	Run4	generate/STIM_002.jpg	100
2658.473	1.656	1655.7	generate	Run4	generate/STIM_002.jpg	99
2663.599	1.796	1795.6	generate	Run4	generate/STIM_003.jpg	99
2667.9	1.451	1451.4	generate	Run4	generate/STIM_003.jpg	100
2673.322	2.01	2009.9	generate	Run4	generate/STIM_003.jpg	99
2677.994	1.924	1924.5	generate	Run4	generate/STIM_003.jpg	99
2683.739	0.898	898.1	generate	Run4	generate/STIM_003.jpg	99
2687.567	1.917	1916.9	generate	Run4	generate/STIM_004.jpg	99
2691.711	1.838	1838.0	generate	Run4	generate/STIM_004.jpg	100
2695.767	1.672	1671.6	generate	Run4	generate/STIM_004.jpg	99
2699.994	1.83	1829.6	generate	Run4	generate/STIM_004.jpg	99
2705.126	1.931	1931.2	generate	Run4	generate/STIM_004.jpg	99
2710.94	1.122	1122.1	generate	Run4	generate/STIM_005.jpg	99
2715.046	1.615	1614.9	generate	Run4	generate/STIM_005.jpg	100
2720.153	1.768	1768.3	generate	Run4	generate/STIM_005.jpg	100
2725.372	0.848	848.3	generate	Run4	generate/STIM_005.jpg	100
2730.087	1.517	1516.7	generate	Run4	generate/STIM_005.jpg	100
2734.452	1.857	1857.3	generate	Run4	generate/STIM_006.jpg	100
2740.201	0.839	839.0	generate	Run4	generate/STIM_006.jpg	99
2743.436	1.267	1266.8	generate	Run4	generate/STIM_006.jpg	99
2748.312	1.41	1410.1	generate	Run4	generate/STIM_006.jpg	100
2752.334	1.77	1769.8	generate	Run4	generate/STIM_006.jpg	100
2757.158	1.547	1547.2	generate	Run4	generate/STIM_007.jpg	100
2762.592	1.224	1223.5	generate	Run4	generate/STIM_007.jpg	100
2766.194	1.38	1379.5	generate	Run4	generate/STIM_007.jpg	99
2769.844	1.815	1815.1	generate	Run4	generate/STIM_007.jpg	99
2774.739	1.016	1016.2	generate	Run4	generate/STIM_007.jpg	100
2778.567	0.893	892.9	generate	Run4	generate/STIM_008.jpg	99
2782.558	1.969	1969.2	generate	Run4	generate/STIM_008.jpg	99
2788.58	0.831	830.9	generate	Run4	generate/STIM_008.jpg	99
2792.272	2.015	2015.2	generate	Run4	generate/STIM_008.jpg	99
2797.425	1.172	1172.0	generate	Run4	generate/STIM_008.jpg	99
2801.598	1.633	1632.7	generate	Run4	generate/STIM_009.jpg	99
2805.519	1.586	1586.5	generate	Run4	generate/STIM_009.jpg	99
2809.838	1.917	1916.6	generate	Run4	generate/STIM_009.jpg	100
2815.616	1.414	1414.2	generate	Run4	generate/STIM_009.jpg	100
2820.838	0.947	947.2	generate	Run4	generate/STIM_009.jpg	100
2825.591	0.869	869.4	generate	Run4	generate/STIM_010.jpg	100
2829.263	0.904	903.9	generate	Run4	generate/STIM_010.jpg	99
2832.935	1.653	1653.3	generate	Run4	generate/STIM_010.jpg	100
2836.88	1.387	1386.7	generate	Run4	generate/STIM_010.jpg	100
2840.925	1.875	1874.7	generate	Run4	generate/STIM_010.jpg	100
2846.402	1.841	1840.6	generate	Run4	generate/STIM_011.jpg	100
2850.852	1.512	1512.0	generate	Run4	generate/STIM_011.jpg	100
2855.022	1.062	1061.5	generate	Run4	generate/STIM_011.jpg	100
2859.023	1.828	1827.8	generate	Run4	generate/STIM_011.jpg	99
2863.763	1.907	1906.8	generate	Run4	generate/STIM_011.jpg	99
2867.943	1.494	1493.9	generate	Run4	generate/STIM_012.jpg	99
2872.93	1.451	1450.8	generate	Run4	generate/STIM_012.jpg	99
2878.404	1.283	1283.1	generate	Run4	generate/STIM_012.jpg	99
2883.611	1.041	1041.0	generate	Run4	generate/STIM_012.jpg	99
2887.687	0.837	837.2	generate	Run4	generate/STIM_012.jpg	99
2892.135	1.623	1623.3	generate	Run4	generate/STIM_013.jpg	99
2897.714	1.823	1822.8	generate	Run4	generate/STIM_013.jpg	100
2902.676	1.893	1893.3	generate	Run4	generate/STIM_013.jpg	99
2908.418	1.138	1138.1	generate	Run4	generate/STIM_013.jpg	99
2911.627	0.965	964.6	generate	Run4	generate/STIM_013.jpg	99
2915.024	1.283	1283.2	generate	Run4	generate/STIM_014.jpg	100
2918.93	1.832	1832.1	generate	Run4	generate/STIM_014.jpg	100
2923.674	1.64	1639.5	generate	Run4	generate/STIM_014.jpg	99
2928.854	1.251	1251.2	generate	Run4	generate/STIM_014.jpg	99
2933.199	1.431	1430.8	generate	Run4	generate/STIM_014.jpg	99
2938.362	1.889	1889.0	generate	Run4	generate/STIM_015.jpg	100
2943.577	2.018	2017.6	generate	Run4	generate/STIM_015.jpg	100
2948.418	1.475	1474.9	generate	Run4	generate/STIM_015.jpg	99
2953.204	1.794	1794.0	generate	Run4	generate/STIM_015.jpg	99
2957.884	1.784	1783.7	generate	Run4	generate/STIM_015.jpg	99
2963.53	1.545	1544.6	generate	Run4	generate/STIM_016.jpg	99
2968.909	1.381	1380.8	generate	Run4	generate/STIM_016.jpg	99
2972.457	0.954	953.8	generate	Run4	generate/STIM_016.jpg	99
2975.688	1.716	1716.1	generate	Run4	generate/STIM_016.jpg	99
2980.564	1.329	1328.7	generate	Run4	generate/STIM_016.jpg	100
2984.672	1.673	1673.3	generate	Run4	generate/STIM_017.jpg	100
2990.367	1.184	1183.6	generate	Run4	generate/STIM_017.jpg	99
2994.086	1.619	1618.6	generate	Run4	generate/STIM_017.jpg	100
2998.952	2.026	2026.4	generate	Run4	generate/STIM_017.jpg	99
3004.079	1.294	1293.9	generate	Run4	generate/STIM_017.jpg	100
3008.004	1.381	1380.9	generate	Run4	generate/STIM_018.jpg	99
3013.277	1.93	1929.7	generate	Run4	generate/STIM_018.jpg	100
3018.652	1.087	1086.7	generate	Run4	generate/STIM_018.jpg	99
3022.555	1.605	1605.2	generate	Run4	generate/STIM_018.jpg	100
3028.112	1.572	1572.4	generate	Run4	generate/STIM_018.jpg	100
3033.109	0.948	947.6	generate	Run4	generate/STIM_019.jpg	99
3036.852	0.941	940.6	generate	Run4	generate/STIM_019.jpg	99
3039.841	1.783	1782.8	generate	Run4	generate/STIM_019.jpg	100
3043.691	0.823	822.8	generate	Run4	generate/STIM_019.jpg	99
3047.574	0.916	916.1	generate	Run4	generate/STIM_019.jpg	100
3051.052	1.58	1579.5	generate	Run4	generate/STIM_020.jpg	100
3056.118	1.711	1711.4	generate	Run4	generate/STIM_020.jpg	99
3060.245	1.752	1751.5	generate	Run4	generate/STIM_020.jpg	100
3064.605	1.384	1384.5	generate	Run4	generate/STIM_020.jpg	99
3068.747	1.083	1083.4	generate	Run4	generate/STIM_020.jpg	100
3072.056	1.153	1153.1	generate	Run4	generate/STIM_021.jpg	100
3077.167	1.821	1821.1	generate	Run4	generate/STIM_021.jpg	100
3082.652	1.434	1434.0	generate	Run4	generate/STIM_021.jpg	100
3087.407	1.062	1061.8	generate	Run4	generate/STIM_021.jpg	99
3092.276	1.125	1124.6	generate	Run4	generate/STIM_021.jpg	99
3096.283	1.405	1405.2	generate	Run4	generate/STIM_022.jpg	100
3101.531	1.152	1152.3	generate	Run4	generate/STIM_022.jpg	100
3105.431	1.21	1210.5	generate	Run4	generate/STIM_022.jpg	100
3109.883	1.354	1354.4	generate	Run4	generate/STIM_022.jpg	100
3114.159	1.298	1298.4	generate	Run4	generate/STIM_022.jpg	100
3119.015	1.133	1132.6	generate	Run4	generate/STIM_023.jpg	100
3123.932	1.616	1615.9	generate	Run4	generate/STIM_023.jpg	99
3129.206	1.504	1504.5	generate	Run4	generate/STIM_023.jpg	100
3134.163	1.31	1309.8	generate	Run4	generate/STIM_023.jpg	100
3138.839	1.225	1224.6	generate	Run4	generate/STIM_023.jpg	99
3143.071	1.426	1426.4	generate	Run4	generate/STIM_024.jpg	99
3147.805	1.477	1477.4	generate	Run4	generate/STIM_024.jpg	100
3152.322	1.27	1270.1	generate	Run4	generate/STIM_024.jpg	100
3155.812	1.085	1084.6	generate	Run4	generate/STIM_024.jpg	100
3159.724	1.422	1422.0	generate	Run4	generate/STIM_024.jpg	99
3164.095	0.725	724.8	repeat	Run4	repeat/STIM_000.jpg	99
3168.535	0.579	579.4	repeat	Run4	repeat/STIM_000.jpg	99
3172.599	0.706	705.6	repeat	Run4	repeat/STIM_000.jpg	99
3176.856	0.76	760.2	repeat	Run4	repeat/STIM_000.jpg	99
3181.41	0.774	773.6	repeat	Run4	repeat/STIM_000.jpg	100
3185.547	0.8	800.5	repeat	Run4	repeat/STIM_001.jpg	100
3189.554	0.836	835.8	repeat	Run4	repeat/STIM_001.jpg	99
3193.678	0.526	525.7	repeat	Run4	repeat/STIM_001.jpg	99
3197.184	0.606	605.7	repeat	Run4	repeat/STIM_001.jpg	100
3200.306	0.899	899.0	repeat	Run4	repeat/STIM_001.jpg	99
3203.923	0.685	685.0	repeat	Run4	repeat/STIM_002.jpg	99
3208.389	0.903	902.8	repeat	Run4	repeat/STIM_002.jpg	99
3212.702	0.672	672.4	repeat	Run4	repeat/STIM_002.jpg	100
3215.647	0.598	598.1	repeat	Run4	repeat/STIM_002.jpg	100
3219.66	0.54	540.5	repeat	Run4	repeat/STIM_002.jpg	99
3223.28	0.486	486.0	repeat	Run4	repeat/STIM_003.jpg	100
3226.247	0.927	926.8	repeat	Run4	repeat/STIM_003.jpg	99
3230.265	0.729	729.0	repeat	Run4	repeat/STIM_003.jpg	100
3233.322	0.486	486.2	repeat	Run4	repeat/STIM_003.jpg	99
3237.756	0.507	506.7	repeat	Run4	repeat/STIM_003.jpg	99
3240.662	0.596	596.2	repeat	Run4	repeat/STIM_004.jpg	100
3243.692	0.815	814.7	repeat	Run4	repeat/STIM_004.jpg	100
3247.156	0.959	958.8	repeat	Run4	repeat/STIM_004.jpg	99
3250.342	0.835	835.0	repeat	Run4	repeat/STIM_004.jpg	100
3254.232	0.846	846.0	repeat	Run4	repeat/STIM_004.jpg	99
3258.855	0.636	636.3	repeat	Run4	repeat/STIM_005.jpg	99
3262.575	0.845	844.8	repeat	Run4	repeat/STIM_005.jpg	99
3267.224	0.675	674.7	repeat	Run4	repeat/STIM_005.jpg	100
3271.268	0.633	633.0	repeat	Run4	repeat/STIM_005.jpg	100
3275.765	0.965	965.2	repeat	Run4	repeat/STIM_005.jpg	100
3279.33	0.585	584.8	repeat	Run4	repeat/STIM_006.jpg	99
3282.464	0.54	539.8	repeat	Run4	repeat/STIM_006.jpg	100
3285.698	0.548	548.0	repeat	Run4	repeat/STIM_006.jpg	100
3288.62	0.83	830.3	repeat	Run4	repeat/STIM_006.jpg	100
3291.669	0.651	651.4	repeat	Run4	repeat/STIM_006.jpg	100
3294.862	0.688	688.3	repeat	Run4	repeat/STIM_007.jpg	99
3298.301	0.887	886.6	repeat	Run4	repeat/STIM_007.jpg	99
3302.362	0.549	548.9	repeat	Run4	repeat/STIM_007.jpg	100
3306.248	0.549	548.6	repeat	Run4	repeat/STIM_007.jpg	99
3309.576	0.706	705.6	repeat	Run4	repeat/STIM_007.jpg	99
3313.135	0.565	564.9	repeat	Run4	repeat/STIM_008.jpg	99
3316.292	0.565	564.7	repeat	Run4	repeat/STIM_008.jpg	99
3319.943	0.733	733.4	repeat	Run4	repeat/STIM_008.jpg	99
3322.893	0.822	821.9	repeat	Run4	repeat/STIM_008.jpg	99
3326.521	0.485	485.1	repeat	Run4	repeat/STIM_008.jpg	99
3330.45	0.798	797.5	repeat	Run4	repeat/STIM_009.jpg	100
3335.036	0.57	569.5	repeat	Run4	repeat/STIM_009.jpg	99
3338.988	0.662	662.0	repeat	Run4	repeat/STIM_009.jpg	99
3343.509	0.6	600.0	repeat	Run4	repeat/STIM_009.jpg	100
3347.951	0.643	643.4	repeat	Run4	repeat/STIM_009.jpg	100
3350.891	0.941	941.3	repeat	Run4	repeat/STIM_010.jpg	99
3354.505	0.568	568.2	repeat	Run4	repeat/STIM_010.jpg	100
3358.288	0.707	706.7	repeat	Run4	repeat/STIM_010.jpg	100
3362.415	0.829	829.3	repeat	Run4	repeat/STIM_010.jpg	100
3366.615	0.913	912.8	repeat	Run4	repeat/STIM_010.jpg	100
3370.58	0.637	636.6	repeat	Run4	repeat/STIM_011.jpg	100
3373.403	0.857	856.6	repeat	Run4	repeat/STIM_011.jpg	100
3378.108	0.961	961.0	repeat	Run4	repeat/STIM_011.jpg	100
3382.462	0.539	538.7	repeat	Run4	repeat/STIM_011.jpg	100
3385.602	0.497	496.9	repeat	Run4	repeat/STIM_011.jpg	99
3389.045	0.651	651.3	repeat	Run4	repeat/STIM_012.jpg	99
3392.236	0.653	653.1	repeat	Run4	repeat/STIM_012.jpg	99
3395.884	0.879	878.9	repeat	Run4	repeat/STIM_012.jpg	100
3398.833	0.622	622.2	repeat	Run4	repeat/STIM_012.jpg	100
3403.404	0.884	883.9	repeat	Run4	repeat/STIM_012.jpg	100
3407.54	0.518	517.8	repeat	Run4	repeat/STIM_013.jpg	100
3411.689	0.905	905.3	repeat	Run4	repeat/STIM_013.jpg	100
3415.487	0.565	564.8	repeat	Run4	repeat/STIM_013.jpg	99
3419.397	0.693	692.8	repeat	Run4	repeat/STIM_013.jpg	99
3424.112	0.828	827.5	repeat	Run4	repeat/STIM_013.jpg	99
3427.399	0.5	499.7	repeat	Run4	repeat/STIM_014.jpg	100
3430.531	0.669	668.7	repeat	Run4	repeat/STIM_014.jpg	100
3433.382	0.628	627.7	repeat	Run4	repeat/STIM_014.jpg	100
3437.58	0.717	717.0	repeat	Run4	repeat/STIM_014.jpg	99
3442.115	0.913	913.4	repeat	Run4	repeat/STIM_014.jpg	99
