onset	duration	accuracy_binary	trial_type	learning_stage	stimulus
0.0	0.986	1	generate	Run1	generate/STIM_000.jpg
4.095	1.476	1	generate	Run1	generate/STIM_000.jpg
9.168	1.298	1	generate	Run1	generate/STIM_000.jpg
13.217	0.933	1	generate	Run1	generate/STIM_000.jpg
17.467	1.115	1	generate	Run1	generate/STIM_000.jpg
20.919	2.244	1	generate	Run1	generate/STIM_001.jpg
25.663	2.13	1	generate	Run1	generate/STIM_001.jpg
30.34	1.879	1	generate	Run1	generate/STIM_001.jpg
35.956	0.956	1	generate	Run1	generate/STIM_001.jpg
40.517	1.113	0	generate	Run1	generate/STIM_001.jpg
44.358	0.963	1	generate	Run1	generate/STIM_002.jpg
49.161	1.053	1	generate	Run1	generate/STIM_002.jpg
52.778	1.717	1	generate	Run1	generate/STIM_002.jpg
58.14	1.302	1	generate	Run1	generate/STIM_002.jpg
62.513	1.592	1	generate	Run1	generate/STIM_002.jpg
66.172	1.597	0	generate	Run1	generate/STIM_003.jpg
71.255	1.282	1	generate	Run1	generate/STIM_003.jpg
76.377	1.143	1	generate	Run1	generate/STIM_003.jpg
81.171	1.336	1	generate	Run1	generate/STIM_003.jpg
86.484	0.975	1	generate	Run1	generate/STIM_003.jpg
90.198	1.276	0	generate	Run1	generate/STIM_004.jpg
94.512	1.736	1	generate	Run1	generate/STIM_004.jpg
98.472	0.995	1	generate	Run1	generate/STIM_004.jpg
102.853	1.566	1	generate	Run1	generate/STIM_004.jpg
107.413	1.654	1	generate	Run1	generate/STIM_004.jpg
112.801	1.741	1	generate	Run1	generate/STIM_005.jpg
118.108	1.741	1	generate	Run1	generate/STIM_005.jpg
123.233	1.212	1	generate	Run1	generate/STIM_005.jpg
126.61	1.139	1	generate	Run1	generate/STIM_005.jpg
129.984	1.182	1	generate	Run1	generate/STIM_005.jpg
134.812	1.019	1	generate	Run1	generate/STIM_006.jpg
139.63	0.87	1	generate	Run1	generate/STIM_006.jpg
144.494	1.566	0	generate	Run1	generate/STIM_006.jpg
148.872	0.782	0	generate	Run1	generate/STIM_006.jpg
153.52	1.415	1	generate	Run1	generate/STIM_006.jpg
157.433	1.391	0	generate	Run1	generate/STIM_007.jpg
161.637	1.045	1	generate	Run1	generate/STIM_007.jpg
165.88	1.242	1	generate	Run1	generate/STIM_007.jpg
170.742	1.234	1	generate	Run1	generate/STIM_007.jpg
175.474	1.256	1	generate	Run1	generate/STIM_007.jpg
179.215	1.647	1	generate	Run1	generate/STIM_008.jpg
184.131	1.731	1	generate	Run1	generate/STIM_008.jpg
189.506	1.037	0	generate	Run1	generate/STIM_008.jpg
194.471	0.994	1	generate	Run1	generate/STIM_008.jpg
198.098	1.656	1	generate	Run1	generate/STIM_008.jpg
203.233	1.472	1	generate	Run1	generate/STIM_009.jpg
207.18	1.504	1	generate	Run1	generate/STIM_009.jpg
211.925	1.364	1	generate	Run1	generate/STIM_009.jpg
216.372	1.103	0	generate	Run1	generate/STIM_009.jpg
219.896	1.6	1	generate	Run1	generate/STIM_009.jpg
224.767	1.749	1	generate	Run1	generate/STIM_010.jpg
230.351	2.067	0	generate	Run1	generate/STIM_010.jpg
235.087	1.662	0	generate	Run1	generate/STIM_010.jpg
239.116	0.968	1	generate	Run1	generate/STIM_010.jpg
243.462	1.417	1	generate	Run1	generate/STIM_010.jpg
248.398	2.191	1	generate	Run1	generate/STIM_011.jpg
252.929	1.778	0	generate	Run1	generate/STIM_011.jpg
257.154	1.769	1	generate	Run1	generate/STIM_011.jpg
262.069	1.416	1	generate	Run1	generate/STIM_011.jpg
267.195	1.65	1	generate	Run1	generate/STIM_011.jpg
272.545	2.001	1	generate	Run1	generate/STIM_012.jpg
276.833	0.968	1	generate	Run1	generate/STIM_012.jpg
280.708	1.823	0	generate	Run1	generate/STIM_012.jpg
286.505	0.874	1	generate	Run1	generate/STIM_012.jpg
290.36	0.932	1	generate	Run1	generate/STIM_012.jpg
294.728	1.286	1	generate	Run1	generate/STIM_013.jpg
298.96	0.98	0	generate	Run1	generate/STIM_013.jpg
302.33	0.98	1	generate	Run1	generate/STIM_013.jpg
306.005	1.022	1	generate	Run1	generate/STIM_013.jpg
310.936	1.114	1	generate	Run1	generate/STIM_013.jpg
314.116	1.776	0	generate	Run1	generate/STIM_014.jpg
319.389	1.505	0	generate	Run1	generate/STIM_014.jpg
324.775	0.954	1	generate	Run1	generate/STIM_014.jpg
329.526	1.686	1	generate	Run1	generate/STIM_014.jpg
335.089	1.647	1	generate	Run1	generate/STIM_014.jpg
340.127	2.125	1	generate	Run1	generate/STIM_015.jpg
345.819	1.028	1	generate	Run1	generate/STIM_015.jpg
349.158	0.841	1	generate	Run1	generate/STIM_015.jpg
353.426	1.513	0	generate	Run1	generate/STIM_015.jpg
357.264	1.134	1	generate	Run1	generate/STIM_015.jpg
362.312	1.848	0	generate	Run1	generate/STIM_016.jpg
367.233	0.896	1	generate	Run1	generate/STIM_016.jpg
371.479	1.388	1	generate	Run1	generate/STIM_016.jpg
376.55	1.8	0	generate	Run1	generate/STIM_016.jpg
382.261	1.004	1	generate	Run1	generate/STIM_016.jpg
386.706	1.278	1	generate	Run1	generate/STIM_017.jpg
390.679	2.108	1	generate	Run1	generate/STIM_017.jpg
396.387	1.547	1	generate	Run1	generate/STIM_017.jpg
401.217	1.078	1	generate	Run1	generate/STIM_017.jpg
406.088	0.989	1	generate	Run1	generate/STIM_017.jpg
410.494	0.956	0	generate	Run1	generate/STIM_018.jpg
413.715	1.648	0	generate	Run1	generate/STIM_018.jpg
418.461	1.796	1	generate	Run1	generate/STIM_018.jpg
422.95	1.273	1	generate	Run1	generate/STIM_018.jpg
427.718	1.099	1	generate	Run1	generate/STIM_018.jpg
431.148	1.3	0	generate	Run1	generate/STIM_019.jpg
435.122	0.938	1	generate	Run1	generate/STIM_019.jpg
439.091	1.94	0	generate	Run1	generate/STIM_019.jpg
443.353	1.672	1	generate	Run1	generate/STIM_019.jpg
447.509	1.314	0	generate	Run1	generate/STIM_019.jpg
452.167	1.624	1	generate	Run1	generate/STIM_020.jpg
455.922	1.009	0	generate	Run1	generate/STIM_020.jpg
459.838	1.91	1	generate	Run1	generate/STIM_020.jpg
464.274	0.959	1	generate	Run1	generate/STIM_020.jpg
468.555	1.495	1	generate	Run1	generate/STIM_020.jpg
472.169	2.205	1	generate	Run1	generate/STIM_021.jpg
476.85	1.051	1	generate	Run1	generate/STIM_021.jpg
479.953	1.359	1	generate	Run1	generate/STIM_021.jpg
483.386	1.526	1	generate	Run1	generate/STIM_021.jpg
488.724	1.33	1	generate	Run1	generate/STIM_021.jpg
493.164	1.757	0	generate	Run1	generate/STIM_022.jpg
497.039	1.226	0	generate	Run1	generate/STIM_022.jpg
501.334	1.724	1	generate	Run1	generate/STIM_022.jpg
505.978	0.967	0	generate	Run1	generate/STIM_022.jpg
509.002	1.03	1	generate	Run1	generate/STIM_022.jpg
513.953	1.335	1	generate	Run1	generate/STIM_023.jpg
517.696	1.306	1	generate	Run1	generate/STIM_023.jpg
521.672	1.026	0	generate	Run1	generate/STIM_023.jpg
525.095	0.795	1	generate	Run1	generate/STIM_023.jpg
528.998	1.116	0	generate	Run1	generate/STIM_023.jpg
532.555	1.633	1	generate	Run1	generate/STIM_024.jpg
537.199	2.1	0	generate	Run1	generate/STIM_024.jpg
542.974	1.586	1	generate	Run1	generate/STIM_024.jpg
547.091	0.861	1	generate	Run1	generate/STIM_024.jpg
550.623	0.785	1	generate	Run1	generate/STIM_024.jpg
555.4	0.504	1	repeat	Run1	repeat/STIM_000.jpg
559.678	0.488	1	repeat	Run1	repeat/STIM_000.jpg
564.163	0.652	1	repeat	Run1	repeat/STIM_000.jpg
567.447	0.562	0	repeat	Run1	repeat/STIM_000.jpg
571.354	0.619	1	repeat	Run1	repeat/STIM_000.jpg
575.389	0.668	1	repeat	Run1	repeat/STIM_001.jpg
578.868	0.7	1	repeat	Run1	repeat/STIM_001.jpg
581.688	0.695	1	repeat	Run1	repeat/STIM_001.jpg
585.872	0.462	1	repeat	Run1	repeat/STIM_001.jpg
589.659	0.601	1	repeat	Run1	repeat/STIM_001.jpg
594.053	0.642	1	repeat	Run1	repeat/STIM_002.jpg
597.125	0.445	1	repeat	Run1	repeat/STIM_002.jpg
600.261	0.728	1	repeat	Run1	repeat/STIM_002.jpg
603.025	0.541	1	repeat	Run1	repeat/STIM_002.jpg
607.51	0.662	1	repeat	Run1	repeat/STIM_002.jpg
611.482	0.679	1	repeat	Run1	repeat/STIM_003.jpg
615.837	0.386	1	repeat	Run1	repeat/STIM_003.jpg
619.184	0.499	1	repeat	Run1	repeat/STIM_003.jpg
623.485	0.726	1	repeat	Run1	repeat/STIM_003.jpg
626.618	0.418	1	repeat	Run1	repeat/STIM_003.jpg
629.316	0.735	1	repeat	Run1	repeat/STIM_004.jpg
633.298	0.648	1	repeat	Run1	repeat/STIM_004.jpg
636.834	0.531	1	repeat	Run1	repeat/STIM_004.jpg
639.725	0.613	1	repeat	Run1	repeat/STIM_004.jpg
642.724	0.464	1	repeat	Run1	repeat/STIM_004.jpg
645.713	0.401	1	repeat	Run1	repeat/STIM_005.jpg
648.123	0.689	1	repeat	Run1	repeat/STIM_005.jpg
651.549	0.577	1	repeat	Run1	repeat/STIM_005.jpg
654.586	0.493	1	repeat	Run1	repeat/STIM_005.jpg
657.941	0.562	1	repeat	Run1	repeat/STIM_005.jpg
660.875	0.729	0	repeat	Run1	repeat/STIM_006.jpg
663.995	0.43	0	repeat	Run1	repeat/STIM_006.jpg
667.704	0.664	1	repeat	Run1	repeat/STIM_006.jpg
671.11	0.737	1	repeat	Run1	repeat/STIM_006.jpg
674.862	0.554	1	repeat	Run1	repeat/STIM_006.jpg
678.959	0.428	1	repeat	Run1	repeat/STIM_007.jpg
682.028	0.417	1	repeat	Run1	repeat/STIM_007.jpg
685.368	0.459	1	repeat	Run1	repeat/STIM_007.jpg
689.571	0.718	1	repeat	Run1	repeat/STIM_007.jpg
692.356	0.692	1	repeat	Run1	repeat/STIM_007.jpg
695.809	0.673	1	repeat	Run1	repeat/STIM_008.jpg
699.591	0.667	1	repeat	Run1	repeat/STIM_008.jpg
702.972	0.432	1	repeat	Run1	repeat/STIM_008.jpg
705.924	0.647	1	repeat	Run1	repeat/STIM_008.jpg
709.958	0.592	1	repeat	Run1	repeat/STIM_008.jpg
714.476	0.594	1	repeat	Run1	repeat/STIM_009.jpg
718.323	0.606	1	repeat	Run1	repeat/STIM_009.jpg
722.874	0.717	1	repeat	Run1	repeat/STIM_009.jpg
726.845	0.386	1	repeat	Run1	repeat/STIM_009.jpg
730.968	0.64	1	repeat	Run1	repeat/STIM_009.jpg
734.194	0.585	1	repeat	Run1	repeat/STIM_010.jpg
738.321	0.732	1	repeat	Run1	repeat/STIM_010.jpg
741.642	0.466	1	repeat	Run1	repeat/STIM_010.jpg
744.573	0.381	1	repeat	Run1	repeat/STIM_010.jpg
747.468	0.489	1	repeat	Run1	repeat/STIM_010.jpg
750.021	0.588	1	repeat	Run1	repeat/STIM_011.jpg
754.061	0.538	1	repeat	Run1	repeat/STIM_011.jpg
757.591	0.711	1	repeat	Run1	repeat/STIM_011.jpg
760.509	0.633	1	repeat	Run1	repeat/STIM_011.jpg
763.301	0.544	1	repeat	Run1	repeat/STIM_011.jpg
767.586	0.495	1	repeat	Run1	repeat/STIM_012.jpg
770.495	0.464	1	repeat	Run1	repeat/STIM_012.jpg
774.363	0.396	1	repeat	Run1	repeat/STIM_012.jpg
777.948	0.611	1	repeat	Run1	repeat/STIM_012.jpg
781.402	0.614	1	repeat	Run1	repeat/STIM_012.jpg
784.435	0.51	1	repeat	Run1	repeat/STIM_013.jpg
788.291	0.424	1	repeat	Run1	repeat/STIM_013.jpg
791.366	0.705	1	repeat	Run1	repeat/STIM_013.jpg
795.309	0.627	1	repeat	Run1	repeat/STIM_013.jpg
798.524	0.548	1	repeat	Run1	repeat/STIM_013.jpg
801.281	0.461	1	repeat	Run1	repeat/STIM_014.jpg
804.032	0.41	1	repeat	Run1	repeat/STIM_014.jpg
807.773	0.585	1	repeat	Run1	repeat/STIM_014.jpg
810.829	0.568	1	repeat	Run1	repeat/STIM_014.jpg
814.236	0.436	1	repeat	Run1	repeat/STIM_014.jpg
816.702	1.384	1	generate	Run2	generate/STIM_000.jpg
821.437	1.486	1	generate	Run2	generate/STIM_000.jpg
825.095	1.115	1	generate	Run2	generate/STIM_000.jpg
829.039	1.328	1	generate	Run2	generate/STIM_000.jpg
833.429	1.276	1	generate	Run2	generate/STIM_000.jpg
837.93	0.782	1	generate	Run2	generate/STIM_001.jpg
840.904	1.05	1	generate	Run2	generate/STIM_001.jpg
844.213	1.151	1	generate	Run2	generate/STIM_001.jpg
849.119	0.804	0	generate	Run2	generate/STIM_001.jpg
852.278	1.544	1	generate	Run2	generate/STIM_001.jpg
857.072	0.844	1	generate	Run2	generate/STIM_002.jpg
861.514	1.3	1	generate	Run2	generate/STIM_002.jpg
866.726	0.762	1	generate	Run2	generate/STIM_002.jpg
871.246	0.925	1	generate	Run2	generate/STIM_002.jpg
874.515	0.7	1	generate	Run2	generate/STIM_002.jpg
877.742	1.314	1	generate	Run2	generate/STIM_003.jpg
881.114	1.299	1	generate	Run2	generate/STIM_003.jpg
885.815	1.624	1	generate	Run2	generate/STIM_003.jpg
889.978	0.862	1	generate	Run2	generate/STIM_003.jpg
893.078	0.634	1	generate	Run2	generate/STIM_003.jpg
897.312	1.476	1	generate	Run2	generate/STIM_004.jpg
902.428	0.998	1	generate	Run2	generate/STIM_004.jpg
905.559	1.496	1	generate	Run2	generate/STIM_004.jpg
910.954	1.18	1	generate	Run2	generate/STIM_004.jpg
914.848	1.021	1	generate	Run2	generate/STIM_004.jpg
919.152	1.358	1	generate	Run2	generate/STIM_005.jpg
922.688	1.451	1	generate	Run2	generate/STIM_005.jpg
927.407	1.591	1	generate	Run2	generate/STIM_005.jpg
931.254	0.902	1	generate	Run2	generate/STIM_005.jpg
934.759	0.92	1	generate	Run2	generate/STIM_005.jpg
938.016	1.458	1	generate	Run2	generate/STIM_006.jpg
942.934	1.534	1	generate	Run2	generate/STIM_006.jpg
948.253	0.682	1	generate	Run2	generate/STIM_006.jpg
952.135	0.666	0	generate	Run2	generate/STIM_006.jpg
956.728	1.066	1	generate	Run2	generate/STIM_006.jpg
960.239	1.8	1	generate	Run2	generate/STIM_007.jpg
965.461	0.989	0	generate	Run2	generate/STIM_007.jpg
970.096	1.267	0	generate	Run2	generate/STIM_007.jpg
974.215	0.912	1	generate	Run2	generate/STIM_007.jpg
978.858	1.49	1	generate	Run2	generate/STIM_007.jpg
983.228	1.775	1	generate	Run2	generate/STIM_008.jpg
987.286	1.236	1	generate	Run2	generate/STIM_008.jpg
992.222	0.894	1	generate	Run2	generate/STIM_008.jpg
996.672	0.885	1	generate	Run2	generate/STIM_008.jpg
1001.44	1.331	0	generate	Run2	generate/STIM_008.jpg
1006.614	1.273	1	generate	Run2	generate/STIM_009.jpg
1010.641	1.611	1	generate	Run2	generate/STIM_009.jpg
1014.388	0.986	1	generate	Run2	generate/STIM_009.jpg
1018.289	0.921	1	generate	Run2	generate/STIM_009.jpg
1022.536	1.135	1	generate	Run2	generate/STIM_009.jpg
1026.483	1.618	1	generate	Run2	generate/STIM_010.jpg
1031.517	0.996	1	generate	Run2	generate/STIM_010.jpg
1035.788	1.13	1	generate	Run2	generate/STIM_010.jpg
1039.408	0.784	1	generate	Run2	generate/STIM_010.jpg
1042.654	1.005	1	generate	Run2	generate/STIM_010.jpg
1045.761	0.914	1	generate	Run2	generate/STIM_011.jpg
1050.158	1.03	1	generate	Run2	generate/STIM_011.jpg
1053.629	1.616	1	generate	Run2	generate/STIM_011.jpg
1057.722	1.147	1	generate	Run2	generate/STIM_011.jpg
1062.541	1.137	1	generate	Run2	generate/STIM_011.jpg
1067.563	1.771	1	generate	Run2	generate/STIM_012.jpg
1071.48	1.224	0	generate	Run2	generate/STIM_012.jpg
1075.826	1.298	1	generate	Run2	generate/STIM_012.jpg
1081.0	1.006	0	generate	Run2	generate/STIM_012.jpg
1085.137	1.17	1	generate	Run2	generate/STIM_012.jpg
1089.349	1.794	1	generate	Run2	generate/STIM_013.jpg
1094.617	1.428	0	generate	Run2	generate/STIM_013.jpg
1098.403	1.065	0	generate	Run2	generate/STIM_013.jpg
1102.325	1.061	1	generate	Run2	generate/STIM_013.jpg
1106.688	1.423	1	generate	Run2	generate/STIM_013.jpg
1110.416	1.271	0	generate	Run2	generate/STIM_014.jpg
1115.632	1.138	1	generate	Run2	generate/STIM_014.jpg
1119.858	1.399	0	generate	Run2	generate/STIM_014.jpg
1125.177	0.704	1	generate	Run2	generate/STIM_014.jpg
1129.871	1.524	1	generate	Run2	generate/STIM_014.jpg
1134.267	1.353	1	generate	Run2	generate/STIM_015.jpg
1139.17	1.265	1	generate	Run2	generate/STIM_015.jpg
1144.267	0.9	1	generate	Run2	generate/STIM_015.jpg
1149.048	0.895	1	generate	Run2	generate/STIM_015.jpg
1152.796	1.3	1	generate	Run2	generate/STIM_015.jpg
1157.59	1.328	0	generate	Run2	generate/STIM_016.jpg
1161.88	1.56	0	generate	Run2	generate/STIM_016.jpg
1166.246	0.769	1	generate	Run2	generate/STIM_016.jpg
1170.705	0.757	0	generate	Run2	generate/STIM_016.jpg
1175.461	1.397	1	generate	Run2	generate/STIM_016.jpg
1179.425	1.437	1	generate	Run2	generate/STIM_017.jpg
1183.793	1.017	1	generate	Run2	generate/STIM_017.jpg
1188.505	0.925	0	generate	Run2	generate/STIM_017.jpg
1192.114	0.695	1	generate	Run2	generate/STIM_017.jpg
1196.324	0.688	1	generate	Run2	generate/STIM_017.jpg
1200.002	1.076	1	generate	Run2	generate/STIM_018.jpg
1204.783	1.091	1	generate	Run2	generate/STIM_018.jpg
1208.34	1.661	1	generate	Run2	generate/STIM_018.jpg
1212.611	1.437	1	generate	Run2	generate/STIM_018.jpg
1217.483	0.717	1	generate	Run2	generate/STIM_018.jpg
1220.891	1.117	1	generate	Run2	generate/STIM_019.jpg
1225.284	0.862	1	generate	Run2	generate/STIM_019.jpg
1228.772	1.042	1	generate	Run2	generate/STIM_019.jpg
1232.734	1.172	1	generate	Run2	generate/STIM_019.jpg
1236.744	1.246	0	generate	Run2	generate/STIM_019.jpg
1241.496	1.541	0	generate	Run2	generate/STIM_020.jpg
1245.569	0.976	1	generate	Run2	generate/STIM_020.jpg
1249.701	1.235	1	generate	Run2	generate/STIM_020.jpg
1254.936	1.177	1	generate	Run2	generate/STIM_020.jpg
1259.312	0.727	1	generate	Run2	generate/STIM_020.jpg
1262.913	0.835	1	generate	Run2	generate/STIM_021.jpg
1266.027	1.366	1	generate	Run2	generate/STIM_021.jpg
1270.471	0.701	1	generate	Run2	generate/STIM_021.jpg
1274.294	0.652	1	generate	Run2	generate/STIM_021.jpg
1278.54	1.113	1	generate	Run2	generate/STIM_021.jpg
1282.752	0.962	1	generate	Run2	generate/STIM_022.jpg
1285.925	0.879	1	generate	Run2	generate/STIM_022.jpg
1290.43	1.127	1	generate	Run2	generate/STIM_022.jpg
1294.248	1.059	1	generate	Run2	generate/STIM_022.jpg
1298.494	1.211	1	generate	Run2	generate/STIM_022.jpg
1302.585	1.544	0	generate	Run2	generate/STIM_023.jpg
1306.47	0.745	1	generate	Run2	generate/STIM_023.jpg
1309.471	1.604	1	generate	Run2	generate/STIM_023.jpg
1314.537	1.356	1	generate	Run2	generate/STIM_023.jpg
1319.191	0.848	1	generate	Run2	generate/STIM_023.jpg
1323.531	1.111	1	generate	Run2	generate/STIM_024.jpg
1328.608	1.697	1	generate	Run2	generate/STIM_024.jpg
1333.804	0.852	1	generate	Run2	generate/STIM_024.jpg
1338.487	0.652	1	generate	Run2	generate/STIM_024.jpg
1343.055	0.981	1	generate	Run2	generate/STIM_024.jpg
1346.265	0.515	1	repeat	Run2	repeat/STIM_000.jpg
1348.788	0.472	1	repeat	Run2	repeat/STIM_000.jpg
1352.566	0.46	0	repeat	Run2	repeat/STIM_000.jpg
1355.909	0.463	1	repeat	Run2	repeat/STIM_000.jpg
1359.309	0.689	1	repeat	Run2	repeat/STIM_000.jpg
1363.005	0.734	1	repeat	Run2	repeat/STIM_001.jpg
1367.726	0.389	1	repeat	Run2	repeat/STIM_001.jpg
1370.394	0.604	1	repeat	Run2	repeat/STIM_001.jpg
1373.128	0.609	1	repeat	Run2	repeat/STIM_001.jpg
1376.704	0.546	1	repeat	Run2	repeat/STIM_001.jpg
1380.883	0.485	1	repeat	Run2	repeat/STIM_002.jpg
1384.72	0.71	1	repeat	Run2	repeat/STIM_002.jpg
1388.448	0.462	1	repeat	Run2	repeat/STIM_002.jpg
1391.28	0.623	1	repeat	Run2	repeat/STIM_002.jpg
1395.661	0.699	1	repeat	Run2	repeat/STIM_002.jpg
1399.666	0.61	1	repeat	Run2	repeat/STIM_003.jpg
1403.682	0.598	0	repeat	Run2	repeat/STIM_003.jpg
1407.692	0.413	1	repeat	Run2	repeat/STIM_003.jpg
1411.956	0.403	1	repeat	Run2	repeat/STIM_003.jpg
1416.243	0.727	1	repeat	Run2	repeat/STIM_003.jpg
1420.332	0.621	1	repeat	Run2	repeat/STIM_004.jpg
1423.848	0.704	1	repeat	Run2	repeat/STIM_004.jpg
1428.531	0.408	1	repeat	Run2	repeat/STIM_004.jpg
1431.336	0.465	1	repeat	Run2	repeat/STIM_004.jpg
1435.693	0.392	1	repeat	Run2	repeat/STIM_004.jpg
1439.158	0.416	1	repeat	Run2	repeat/STIM_005.jpg
1442.988	0.666	1	repeat	Run2	repeat/STIM_005.jpg
1446.094	0.431	1	repeat	Run2	repeat/STIM_005.jpg
1448.926	0.441	1	repeat	Run2	repeat/STIM_005.jpg
1452.058	0.476	1	repeat	Run2	repeat/STIM_005.jpg
1456.478	0.592	1	repeat	Run2	repeat/STIM_006.jpg
1459.663	0.439	1	repeat	Run2	repeat/STIM_006.jpg
1463.148	0.563	1	repeat	Run2	repeat/STIM_006.jpg
1467.526	0.671	1	repeat	Run2	repeat/STIM_006.jpg
1471.384	0.647	1	repeat	Run2	repeat/STIM_006.jpg
1475.107	0.405	0	repeat	Run2	repeat/STIM_007.jpg
1478.221	0.705	1	repeat	Run2	repeat/STIM_007.jpg
1482.532	0.386	0	repeat	Run2	repeat/STIM_007.jpg
1485.431	0.58	1	repeat	Run2	repeat/STIM_007.jpg
1489.462	0.487	1	repeat	Run2	repeat/STIM_007.jpg
1492.453	0.734	1	repeat	Run2	repeat/STIM_008.jpg
1495.841	0.724	1	repeat	Run2	repeat/STIM_008.jpg
1499.346	0.465	1	repeat	Run2	repeat/STIM_008.jpg
1503.696	0.463	1	repeat	Run2	repeat/STIM_008.jpg
1506.632	0.748	1	repeat	Run2	repeat/STIM_008.jpg
1510.536	0.705	1	repeat	Run2	repeat/STIM_009.jpg
1514.607	0.517	1	repeat	Run2	repeat/STIM_009.jpg
1518.727	0.494	1	repeat	Run2	repeat/STIM_009.jpg
1522.463	0.474	1	repeat	Run2	repeat/STIM_009.jpg
1526.692	0.747	1	repeat	Run2	repeat/STIM_009.jpg
1529.947	0.471	1	repeat	Run2	repeat/STIM_010.jpg
1533.372	0.682	1	repeat	Run2	repeat/STIM_010.jpg
1536.721	0.63	0	repeat	Run2	repeat/STIM_010.jpg
1540.926	0.73	1	repeat	Run2	repeat/STIM_010.jpg
1544.054	0.447	1	repeat	Run2	repeat/STIM_010.jpg
1548.155	0.464	1	repeat	Run2	repeat/STIM_011.jpg
1552.578	0.747	1	repeat	Run2	repeat/STIM_011.jpg
1555.343	0.378	1	repeat	Run2	repeat/STIM_011.jpg
1557.939	0.476	1	repeat	Run2	repeat/STIM_011.jpg
1561.21	0.481	1	repeat	Run2	repeat/STIM_011.jpg
1565.438	0.576	1	repeat	Run2	repeat/STIM_012.jpg
1569.094	0.726	1	repeat	Run2	repeat/STIM_012.jpg
1572.919	0.604	0	repeat	Run2	repeat/STIM_012.jpg
1576.879	0.659	1	repeat	Run2	repeat/STIM_012.jpg
1579.882	0.614	0	repeat	Run2	repeat/STIM_012.jpg
1582.975	0.38	1	repeat	Run2	repeat/STIM_013.jpg
1586.962	0.639	1	repeat	Run2	repeat/STIM_013.jpg
1590.54	0.598	1	repeat	Run2	repeat/STIM_013.jpg
1594.184	0.538	1	repeat	Run2	repeat/STIM_013.jpg
1597.875	0.481	1	repeat	Run2	repeat/STIM_013.jpg
1601.97	0.46	1	repeat	Run2	repeat/STIM_014.jpg
1604.804	0.602	1	repeat	Run2	repeat/STIM_014.jpg
1608.48	0.59	0	repeat	Run2	repeat/STIM_014.jpg
1611.974	0.623	0	repeat	Run2	repeat/STIM_014.jpg
1615.177	0.49	1	repeat	Run2	repeat/STIM_014.jpg
1617.762	1.396	1	generate	Run3	generate/STIM_000.jpg
1621.697	1.268	1	generate	Run3	generate/STIM_000.jpg
1625.76	0.824	1	generate	Run3	generate/STIM_000.jpg
1630.195	1.151	1	generate	Run3	generate/STIM_000.jpg
1633.878	1.132	1	generate	Run3	generate/STIM_000.jpg
1638.387	1.533	1	generate	Run3	generate/STIM_001.jpg
1642.466	0.886	1	generate	Run3	generate/STIM_001.jpg
1646.205	1.093	1	generate	Run3	generate/STIM_001.jpg
1650.067	1.007	1	generate	Run3	generate/STIM_001.jpg
1654.628	0.876	1	generate	Run3	generate/STIM_001.jpg
1658.075	0.726	1	generate	Run3	generate/STIM_002.jpg
1661.624	0.632	1	generate	Run3	generate/STIM_002.jpg
1665.832	0.805	1	generate	Run3	generate/STIM_002.jpg
1669.976	1.277	0	generate	Run3	generate/STIM_002.jpg
1674.206	0.956	1	generate	Run3	generate/STIM_002.jpg
1677.499	0.765	1	generate	Run3	generate/STIM_003.jpg
1680.982	0.674	1	generate	Run3	generate/STIM_003.jpg
1685.049	1.552	1	generate	Run3	generate/STIM_003.jpg
1689.509	1.116	1	generate	Run3	generate/STIM_003.jpg
1693.22	0.688	1	generate	Run3	generate/STIM_003.jpg
1697.134	0.722	0	generate	Run3	generate/STIM_004.jpg
1700.105	1.236	1	generate	Run3	generate/STIM_004.jpg
1704.111	1.322	0	generate	Run3	generate/STIM_004.jpg
1708.471	1.108	1	generate	Run3	generate/STIM_004.jpg
1713.405	0.997	1	generate	Run3	generate/STIM_004.jpg
1716.507	1.358	0	generate	Run3	generate/STIM_005.jpg
1721.177	1.047	1	generate	Run3	generate/STIM_005.jpg
1725.61	1.488	1	generate	Run3	generate/STIM_005.jpg
1729.644	1.386	1	generate	Run3	generate/STIM_005.jpg
1733.671	0.854	1	generate	Run3	generate/STIM_005.jpg
1738.46	1.562	1	generate	Run3	generate/STIM_006.jpg
1743.713	1.424	1	generate	Run3	generate/STIM_006.jpg
1748.897	1.335	1	generate	Run3	generate/STIM_006.jpg
1753.85	1.352	1	generate	Run3	generate/STIM_006.jpg
1758.303	1.282	1	generate	Run3	generate/STIM_006.jpg
1762.97	0.878	1	generate	Run3	generate/STIM_007.jpg
1767.315	1.556	1	generate	Run3	generate/STIM_007.jpg
1770.918	1.26	1	generate	Run3	generate/STIM_007.jpg
1775.633	0.637	1	generate	Run3	generate/STIM_007.jpg
1778.683	0.873	1	generate	Run3	generate/STIM_007.jpg
1781.858	0.699	1	generate	Run3	generate/STIM_008.jpg
1784.61	1.228	1	generate	Run3	generate/STIM_008.jpg
1788.337	0.726	1	generate	Run3	generate/STIM_008.jpg
1792.219	1.508	1	generate	Run3	generate/STIM_008.jpg
1796.268	0.911	1	generate	Run3	generate/STIM_008.jpg
1800.719	1.242	1	generate	Run3	generate/STIM_009.jpg
1804.539	0.884	1	generate	Run3	generate/STIM_009.jpg
1809.164	1.273	1	generate	Run3	generate/STIM_009.jpg
1814.375	1.521	0	generate	Run3	generate/STIM_009.jpg
1819.481	1.538	1	generate	Run3	generate/STIM_009.jpg
1824.891	1.224	1	generate	Run3	generate/STIM_010.jpg
1829.845	0.651	1	generate	Run3	generate/STIM_010.jpg
1833.852	0.788	1	generate	Run3	generate/STIM_010.jpg
1836.907	0.757	1	generate	Run3	generate/STIM_010.jpg
1841.045	0.813	1	generate	Run3	generate/STIM_010.jpg
1844.408	0.903	1	generate	Run3	generate/STIM_011.jpg
1848.294	1.314	1	generate	Run3	generate/STIM_011.jpg
1852.434	0.801	1	generate	Run3	generate/STIM_011.jpg
1856.984	1.396	1	generate	Run3	generate/STIM_011.jpg
1861.934	1.089	1	generate	Run3	generate/STIM_011.jpg
1866.601	1.409	1	generate	Run3	generate/STIM_012.jpg
1870.772	1.363	1	generate	Run3	generate/STIM_012.jpg
1874.513	1.164	1	generate	Run3	generate/STIM_012.jpg
1878.988	0.704	1	generate	Run3	generate/STIM_012.jpg
1883.231	0.697	1	generate	Run3	generate/STIM_012.jpg
1886.451	1.168	1	generate	Run3	generate/STIM_013.jpg
1891.328	0.846	1	generate	Run3	generate/STIM_013.jpg
1896.146	0.638	1	generate	Run3	generate/STIM_013.jpg
1899.681	0.989	0	generate	Run3	generate/STIM_013.jpg
1904.642	1.1	1	generate	Run3	generate/STIM_013.jpg
1908.112	1.261	1	generate	Run3	generate/STIM_014.jpg
1912.388	1.187	1	generate	Run3	generate/STIM_014.jpg
1915.773	1.307	0	generate	Run3	generate/STIM_014.jpg
1921.031	1.05	1	generate	Run3	generate/STIM_014.jpg
1924.665	1.22	1	generate	Run3	generate/STIM_014.jpg
1928.675	0.693	1	generate	Run3	generate/STIM_015.jpg
1932.903	0.965	1	generate	Run3	generate/STIM_015.jpg
1937.578	1.449	1	generate	Run3	generate/STIM_015.jpg
1942.739	0.756	1	generate	Run3	generate/STIM_015.jpg
1946.864	1.266	1	generate	Run3	generate/STIM_015.jpg
1952.069	1.22	1	generate	Run3	generate/STIM_016.jpg
1956.11	1.393	1	generate	Run3	generate/STIM_016.jpg
1959.559	0.888	1	generate	Run3	generate/STIM_016.jpg
1962.819	1.454	1	generate	Run3	generate/STIM_016.jpg
1966.61	1.411	1	generate	Run3	generate/STIM_016.jpg
1971.084	1.202	1	generate	Run3	generate/STIM_017.jpg
1975.906	0.968	1	generate	Run3	generate/STIM_017.jpg
1980.465	0.799	1	generate	Run3	generate/STIM_017.jpg
1984.316	0.946	1	generate	Run3	generate/STIM_017.jpg
1988.786	1.536	1	generate	Run3	generate/STIM_017.jpg
1992.848	0.817	1	generate	Run3	generate/STIM_018.jpg
1997.393	1.426	0	generate	Run3	generate/STIM_018.jpg
2001.755	0.848	1	generate	Run3	generate/STIM_018.jpg
2006.205	0.908	1	generate	Run3	generate/STIM_018.jpg
2009.565	0.962	1	generate	Run3	generate/STIM_018.jpg
2014.361	1.058	1	generate	Run3	generate/STIM_019.jpg
2018.94	1.159	1	generate	Run3	generate/STIM_019.jpg
2023.916	0.785	1	generate	Run3	generate/STIM_019.jpg
2028.03	1.263	1	generate	Run3	generate/STIM_019.jpg
2032.112	1.069	1	generate	Run3	generate/STIM_019.jpg
2035.276	0.912	0	generate	Run3	generate/STIM_020.jpg
2038.666	0.886	0	generate	Run3	generate/STIM_020.jpg
2041.993	1.16	0	generate	Run3	generate/STIM_020.jpg
2046.189	1.192	1	generate	Run3	generate/STIM_020.jpg
2050.549	1.284	1	generate	Run3	generate/STIM_020.jpg
2054.363	1.266	1	generate	Run3	generate/STIM_021.jpg
2058.238	1.132	1	generate	Run3	generate/STIM_021.jpg
2062.905	1.153	0	generate	Run3	generate/STIM_021.jpg
2067.639	1.18	1	generate	Run3	generate/STIM_021.jpg
2071.185	1.025	1	generate	Run3	generate/STIM_021.jpg
2074.317	1.461	1	generate	Run3	generate/STIM_022.jpg
2078.439	0.856	1	generate	Run3	generate/STIM_022.jpg
2083.08	1.148	1	generate	Run3	generate/STIM_022.jpg
2088.121	0.773	1	generate	Run3	generate/STIM_022.jpg
2091.269	1.061	1	generate	Run3	generate/STIM_022.jpg
2094.841	1.254	0	generate	Run3	generate/STIM_023.jpg
2098.909	0.936	1	generate	Run3	generate/STIM_023.jpg
2103.299	0.657	1	generate	Run3	generate/STIM_023.jpg
2106.382	1.022	1	generate	Run3	generate/STIM_023.jpg
2110.02	0.905	1	generate	Run3	generate/STIM_023.jpg
2114.734	1.252	1	generate	Run3	generate/STIM_024.jpg
2118.533	1.07	1	generate	Run3	generate/STIM_024.jpg
2122.144	1.38	1	generate	Run3	generate/STIM_024.jpg
2126.804	1.451	1	generate	Run3	generate/STIM_024.jpg
2130.373	1.545	1	generate	Run3	generate/STIM_024.jpg
2135.656	0.447	1	repeat	Run3	repeat/STIM_000.jpg
2138.288	0.416	1	repeat	Run3	repeat/STIM_000.jpg
2141.697	0.708	1	repeat	Run3	repeat/STIM_000.jpg
2144.457	0.444	1	repeat	Run3	repeat/STIM_000.jpg
2147.894	0.636	1	repeat	Run3	repeat/STIM_000.jpg
2150.775	0.412	1	repeat	Run3	repeat/STIM_001.jpg
2154.608	0.539	1	repeat	Run3	repeat/STIM_001.jpg
2157.531	0.422	1	repeat	Run3	repeat/STIM_001.jpg
2160.296	0.643	1	repeat	Run3	repeat/STIM_001.jpg
2164.329	0.522	1	repeat	Run3	repeat/STIM_001.jpg
2167.59	0.562	1	repeat	Run3	repeat/STIM_002.jpg
2170.917	0.467	1	repeat	Run3	repeat/STIM_002.jpg
2173.845	0.412	1	repeat	Run3	repeat/STIM_002.jpg
2177.676	0.581	1	repeat	Run3	repeat/STIM_002.jpg
2180.64	0.7	1	repeat	Run3	repeat/STIM_002.jpg
2184.544	0.599	1	repeat	Run3	repeat/STIM_003.jpg
2187.522	0.63	1	repeat	Run3	repeat/STIM_003.jpg
2190.942	0.656	1	repeat	Run3	repeat/STIM_003.jpg
2194.272	0.42	1	repeat	Run3	repeat/STIM_003.jpg
2198.68	0.55	1	repeat	Run3	repeat/STIM_003.jpg
2201.97	0.612	1	repeat	Run3	repeat/STIM_004.jpg
2206.577	0.377	1	repeat	Run3	repeat/STIM_004.jpg
2209.91	0.668	1	repeat	Run3	repeat/STIM_004.jpg
2213.272	0.411	1	repeat	Run3	repeat/STIM_004.jpg
2216.522	0.476	1	repeat	Run3	repeat/STIM_004.jpg
2219.115	0.514	1	repeat	Run3	repeat/STIM_005.jpg
2222.4	0.462	1	repeat	Run3	repeat/STIM_005.jpg
2226.712	0.632	1	repeat	Run3	repeat/STIM_005.jpg
2230.338	0.405	1	repeat	Run3	repeat/STIM_005.jpg
2233.046	0.45	1	repeat	Run3	repeat/STIM_005.jpg
2236.777	0.424	1	repeat	Run3	repeat/STIM_006.jpg
2239.571	0.697	1	repeat	Run3	repeat/STIM_006.jpg
2242.58	0.377	1	repeat	Run3	repeat/STIM_006.jpg
2245.656	0.673	0	repeat	Run3	repeat/STIM_006.jpg
2249.628	0.626	1	repeat	Run3	repeat/STIM_006.jpg
2252.714	0.408	1	repeat	Run3	repeat/STIM_007.jpg
2256.724	0.38	1	repeat	Run3	repeat/STIM_007.jpg
2260.904	0.69	1	repeat	Run3	repeat/STIM_007.jpg
2265.098	0.452	0	repeat	Run3	repeat/STIM_007.jpg
2268.699	0.62	1	repeat	Run3	repeat/STIM_007.jpg
2273.176	0.594	1	repeat	Run3	repeat/STIM_008.jpg
2277.151	0.532	1	repeat	Run3	repeat/STIM_008.jpg
2281.211	0.63	1	repeat	Run3	repeat/STIM_008.jpg
2284.418	0.501	1	repeat	Run3	repeat/STIM_008.jpg
2288.318	0.538	1	repeat	Run3	repeat/STIM_008.jpg
2291.332	0.438	1	repeat	Run3	repeat/STIM_009.jpg
2294.787	0.656	1	repeat	Run3	repeat/STIM_009.jpg
2299.201	0.698	1	repeat	Run3	repeat/STIM_009.jpg
2303.741	0.73	1	repeat	Run3	repeat/STIM_009.jpg
2308.417	0.662	1	repeat	Run3	repeat/STIM_009.jpg
2312.939	0.673	1	repeat	Run3	repeat/STIM_010.jpg
2315.973	0.533	1	repeat	Run3	repeat/STIM_010.jpg
2319.02	0.469	1	repeat	Run3	repeat/STIM_010.jpg
2322.685	0.622	1	repeat	Run3	repeat/STIM_010.jpg
2327.301	0.566	1	repeat	Run3	repeat/STIM_010.jpg
2330.891	0.421	1	repeat	Run3	repeat/STIM_011.jpg
2334.087	0.515	1	repeat	Run3	repeat/STIM_011.jpg
2338.04	0.639	1	repeat	Run3	repeat/STIM_011.jpg
2342.086	0.582	1	repeat	Run3	repeat/STIM_011.jpg
2345.461	0.734	1	repeat	Run3	repeat/STIM_011.jpg
2349.846	0.607	1	repeat	Run3	repeat/STIM_012.jpg
2352.556	0.723	1	repeat	Run3	repeat/STIM_012.jpg
2355.454	0.542	1	repeat	Run3	repeat/STIM_012.jpg
2359.394	0.377	1	repeat	Run3	repeat/STIM_012.jpg
2362.112	0.492	0	repeat	Run3	repeat/STIM_012.jpg
2364.635	0.454	1	repeat	Run3	repeat/STIM_013.jpg
2368.232	0.418	1	repeat	Run3	repeat/STIM_013.jpg
2370.855	0.565	1	repeat	Run3	repeat/STIM_013.jpg
2374.418	0.448	1	repeat	Run3	repeat/STIM_013.jpg
2377.808	0.624	1	repeat	Run3	repeat/STIM_013.jpg
2381.805	0.533	1	repeat	Run3	repeat/STIM_014.jpg
2385.527	0.576	1	repeat	Run3	repeat/STIM_014.jpg
2389.883	0.518	1	repeat	Run3	repeat/STIM_014.jpg
2392.424	0.689	0	repeat	Run3	repeat/STIM_014.jpg
2396.608	0.741	1	repeat	Run3	repeat/STIM_014.jpg
2401.292	0.64	1	generate	Run4	generate/STIM_000.jpg
2404.317	1.488	1	generate	Run4	generate/STIM_000.jpg
2409.389	0.751	1	generate	Run4	generate/STIM_000.jpg
2412.496	0.962	1	generate	Run4	generate/STIM_000.jpg
2416.003	1.3	1	generate	Run4	generate/STIM_000.jpg
2420.414	0.647	1	generate	Run4	generate/STIM_001.jpg
2424.852	1.02	1	generate	Run4	generate/STIM_001.jpg
2429.237	1.442	1	generate	Run4	generate/STIM_001.jpg
2433.79	0.691	1	generate	Run4	generate/STIM_001.jpg
2437.694	1.293	1	generate	Run4	generate/STIM_001.jpg
2442.521	1.139	1	generate	Run4	generate/STIM_002.jpg
2446.06	0.797	0	generate	Run4	generate/STIM_002.jpg
2450.417	0.67	1	generate	Run4	generate/STIM_002.jpg
2453.914	1.137	1	generate	Run4	generate/STIM_002.jpg
2457.476	0.816	1	generate	Run4	generate/STIM_002.jpg
2462.081	1.186	0	generate	Run4	generate/STIM_003.jpg
2466.576	1.197	1	generate	Run4	generate/STIM_003.jpg
2470.499	0.718	1	generate	Run4	generate/STIM_003.jpg
2473.313	0.641	1	generate	Run4	generate/STIM_003.jpg
2477.785	0.653	1	generate	Run4	generate/STIM_003.jpg
2480.773	1.101	1	generate	Run4	generate/STIM_004.jpg
2484.037	1.128	1	generate	Run4	generate/STIM_004.jpg
2487.189	1.144	1	generate	Run4	generate/STIM_004.jpg
2491.709	0.71	1	generate	Run4	generate/STIM_004.jpg
2494.684	1.221	1	generate	Run4	generate/STIM_004.jpg
2499.651	1.524	1	generate	Run4	generate/STIM_005.jpg
2503.324	1.074	1	generate	Run4	generate/STIM_005.jpg
2507.163	1.427	1	generate	Run4	generate/STIM_005.jpg
2512.269	0.87	1	generate	Run4	generate/STIM_005.jpg
2515.23	1.218	1	generate	Run4	generate/STIM_005.jpg
2518.833	1.247	1	generate	Run4	generate/STIM_006.jpg
2522.645	1.064	1	generate	Run4	generate/STIM_006.jpg
2526.603	0.822	0	generate	Run4	generate/STIM_006.jpg
2530.381	1.468	1	generate	Run4	generate/STIM_006.jpg
2533.884	0.766	1	generate	Run4	generate/STIM_006.jpg
2537.022	0.955	1	generate	Run4	generate/STIM_007.jpg
2540.9	1.409	1	generate	Run4	generate/STIM_007.jpg
2544.988	0.939	1	generate	Run4	generate/STIM_007.jpg
2548.757	1.547	1	generate	Run4	generate/STIM_007.jpg
2552.791	0.639	1	generate	Run4	generate/STIM_007.jpg
2555.667	0.796	1	generate	Run4	generate/STIM_008.jpg
2559.393	1.016	1	generate	Run4	generate/STIM_008.jpg
2563.52	1.18	1	generate	Run4	generate/STIM_008.jpg
2567.866	1.164	1	generate	Run4	generate/STIM_008.jpg
2571.904	1.23	1	generate	Run4	generate/STIM_008.jpg
2576.435	0.64	1	generate	Run4	generate/STIM_009.jpg
2580.638	1.459	1	generate	Run4	generate/STIM_009.jpg
2584.67	1.32	1	generate	Run4	generate/STIM_009.jpg
2589.53	1.491	1	generate	Run4	generate/STIM_009.jpg
2594.87	1.302	1	generate	Run4	generate/STIM_009.jpg
2599.014	1.169	1	generate	Run4	generate/STIM_010.jpg
2603.22	0.721	1	generate	Run4	generate/STIM_010.jpg
2606.22	1.413	1	generate	Run4	generate/STIM_010.jpg
2610.209	0.836	1	generate	Run4	generate/STIM_010.jpg
2614.085	1.19	1	generate	Run4	generate/STIM_010.jpg
2619.215	1.33	1	generate	Run4	generate/STIM_011.jpg
2623.941	1.27	1	generate	Run4	generate/STIM_011.jpg
2627.397	0.653	1	generate	Run4	generate/STIM_011.jpg
2631.347	1.227	1	generate	Run4	generate/STIM_011.jpg
2635.951	1.42	1	generate	Run4	generate/STIM_011.jpg
2640.569	0.836	1	generate	Run4	generate/STIM_012.jpg
2643.904	1.273	1	generate	Run4	generate/STIM_012.jpg
2648.197	1.228	1	generate	Run4	generate/STIM_012.jpg
2652.831	1.392	1	generate	Run4	generate/STIM_012.jpg
2657.976	1.463	1	generate	Run4	generate/STIM_012.jpg
2663.055	0.646	1	generate	Run4	generate/STIM_013.jpg
2666.073	1.465	1	generate	Run4	generate/STIM_013.jpg
2670.317	1.541	1	generate	Run4	generate/STIM_013.jpg
2674.44	0.869	1	generate	Run4	generate/STIM_013.jpg
2677.639	1.38	1	generate	Run4	generate/STIM_013.jpg
2682.509	1.148	1	generate	Run4	generate/STIM_014.jpg
2686.82	0.868	1	generate	Run4	generate/STIM_014.jpg
2691.325	0.719	1	generate	Run4	generate/STIM_014.jpg
2695.42	1.422	1	generate	Run4	generate/STIM_014.jpg
2700.367	1.554	1	generate	Run4	generate/STIM_014.jpg
2704.809	1.569	1	generate	Run4	generate/STIM_015.jpg
2708.733	1.278	1	generate	Run4	generate/STIM_015.jpg
2712.033	1.039	1	generate	Run4	generate/STIM_015.jpg
2716.705	0.824	1	generate	Run4	generate/STIM_015.jpg
2720.848	1.493	1	generate	Run4	generate/STIM_015.jpg
2724.827	1.274	1	generate	Run4	generate/STIM_016.jpg
2728.852	0.915	1	generate	Run4	generate/STIM_016.jpg
2732.904	1.48	1	generate	Run4	generate/STIM_016.jpg
2736.504	0.797	1	generate	Run4	generate/STIM_016.jpg
2739.714	0.91	1	generate	Run4	generate/STIM_016.jpg
2742.657	0.694	1	generate	Run4	generate/STIM_017.jpg
2746.553	1.458	1	generate	Run4	generate/STIM_017.jpg
2751.475	1.003	1	generate	Run4	generate/STIM_017.jpg
2755.635	1.521	1	generate	Run4	generate/STIM_017.jpg
2760.837	1.245	1	generate	Run4	generate/STIM_017.jpg
2765.621	1.461	1	generate	Run4	generate/STIM_018.jpg
2770.253	1.334	1	generate	Run4	generate/STIM_018.jpg
2773.867	0.95	1	generate	Run4	generate/STIM_018.jpg
2778.609	0.82	1	generate	Run4	generate/STIM_018.jpg
2781.624	1.146	1	generate	Run4	generate/STIM_018.jpg
2785.625	1.146	1	generate	Run4	generate/STIM_019.jpg
2790.349	0.8	1	generate	Run4	generate/STIM_019.jpg
2794.892	1.407	1	generate	Run4	generate/STIM_019.jpg
2799.722	0.852	1	generate	Run4	generate/STIM_019.jpg
2802.776	0.982	1	generate	Run4	generate/STIM_019.jpg
2806.844	0.679	0	generate	Run4	generate/STIM_020.jpg
2810.688	0.692	1	generate	Run4	generate/STIM_020.jpg
2814.728	1.495	1	generate	Run4	generate/STIM_020.jpg
2820.209	1.501	1	generate	Run4	generate/STIM_020.jpg
2824.341	1.092	1	generate	Run4	generate/STIM_020.jpg
2827.754	1.388	1	generate	Run4	generate/STIM_021.jpg
2831.375	1.177	1	generate	Run4	generate/STIM_021.jpg
2836.32	1.573	1	generate	Run4	generate/STIM_021.jpg
2841.771	1.375	1	generate	Run4	generate/STIM_021.jpg
2846.213	1.0	1	generate	Run4	generate/STIM_021.jpg
2850.242	1.348	1	generate	Run4	generate/STIM_022.jpg
2853.745	0.912	1	generate	Run4	generate/STIM_022.jpg
2857.511	1.087	1	generate	Run4	generate/STIM_022.jpg
2860.955	0.978	1	generate	Run4	generate/STIM_022.jpg
2864.179	1.126	1	generate	Run4	generate/STIM_022.jpg
2867.717	1.501	1	generate	Run4	generate/STIM_023.jpg
2871.534	0.748	1	generate	Run4	generate/STIM_023.jpg
2874.474	1.108	1	generate	Run4	generate/STIM_023.jpg
2878.72	0.973	1	generate	Run4	generate/STIM_023.jpg
2881.745	1.104	1	generate	Run4	generate/STIM_023.jpg
2886.598	0.696	1	generate	Run4	generate/STIM_024.jpg
2889.492	1.185	1	generate	Run4	generate/STIM_024.jpg
2894.027	1.108	1	generate	Run4	generate/STIM_024.jpg
2897.846	0.692	1	generate	Run4	generate/STIM_024.jpg
2900.888	1.403	1	generate	Run4	generate/STIM_024.jpg
2905.657	0.743	1	repeat	Run4	repeat/STIM_000.jpg
2909.942	0.672	1	repeat	Run4	repeat/STIM_000.jpg
2913.69	0.497	1	repeat	Run4	repeat/STIM_000.jpg
2916.788	0.578	1	repeat	Run4	repeat/STIM_000.jpg
2919.467	0.456	0	repeat	Run4	repeat/STIM_000.jpg
2922.068	0.513	1	repeat	Run4	repeat/STIM_001.jpg
2924.931	0.477	1	repeat	Run4	repeat/STIM_001.jpg
2929.345	0.53	1	repeat	Run4	repeat/STIM_001.jpg
2932.673	0.733	1	repeat	Run4	repeat/STIM_001.jpg
2936.018	0.386	1	repeat	Run4	repeat/STIM_001.jpg
2938.959	0.466	1	repeat	Run4	repeat/STIM_002.jpg
2942.092	0.47	1	repeat	Run4	repeat/STIM_002.jpg
2945.089	0.742	1	repeat	Run4	repeat/STIM_002.jpg
2949.26	0.447	1	repeat	Run4	repeat/STIM_002.jpg
2953.387	0.416	1	repeat	Run4	repeat/STIM_002.jpg
2956.418	0.525	1	repeat	Run4	repeat/STIM_003.jpg
2959.902	0.72	1	repeat	Run4	repeat/STIM_003.jpg
2963.983	0.584	1	repeat	Run4	repeat/STIM_003.jpg
2966.979	0.405	1	repeat	Run4	repeat/STIM_003.jpg
2969.587	0.406	1	repeat	Run4	repeat/STIM_003.jpg
2973.934	0.601	1	repeat	Run4	repeat/STIM_004.jpg
2978.06	0.568	1	repeat	Run4	repeat/STIM_004.jpg
2981.455	0.654	1	repeat	Run4	repeat/STIM_004.jpg
2985.203	0.738	1	repeat	Run4	repeat/STIM_004.jpg
2989.833	0.392	1	repeat	Run4	repeat/STIM_004.jpg
2993.345	0.504	1	repeat	Run4	repeat/STIM_005.jpg
2997.229	0.628	1	repeat	Run4	repeat/STIM_005.jpg
3001.342	0.42	1	repeat	Run4	repeat/STIM_005.jpg
3004.056	0.587	1	repeat	Run4	repeat/STIM_005.jpg
3008.643	0.448	1	repeat	Run4	repeat/STIM_005.jpg
3011.683	0.642	1	repeat	Run4	repeat/STIM_006.jpg
3015.116	0.73	1	repeat	Run4	repeat/STIM_006.jpg
3019.517	0.737	1	repeat	Run4	repeat/STIM_006.jpg
3024.059	0.675	1	repeat	Run4	repeat/STIM_006.jpg
3027.634	0.383	1	repeat	Run4	repeat/STIM_006.jpg
3031.519	0.68	1	repeat	Run4	repeat/STIM_007.jpg
3034.43	0.641	0	repeat	Run4	repeat/STIM_007.jpg
3037.181	0.58	0	repeat	Run4	repeat/STIM_007.jpg
3039.993	0.443	1	repeat	Run4	repeat/STIM_007.jpg
3042.756	0.443	1	repeat	Run4	repeat/STIM_007.jpg
3045.29	0.487	1	repeat	Run4	repeat/STIM_008.jpg
3049.02	0.731	1	repeat	Run4	repeat/STIM_008.jpg
3053.542	0.662	1	repeat	Run4	repeat/STIM_008.jpg
3058.102	0.458	0	repeat	Run4	repeat/STIM_008.jpg
3062.128	0.421	1	repeat	Run4	repeat/STIM_008.jpg
3066.385	0.468	1	repeat	Run4	repeat/STIM_009.jpg
3069.92	0.505	1	repeat	Run4	repeat/STIM_009.jpg
3073.995	0.624	1	repeat	Run4	repeat/STIM_009.jpg
3077.846	0.509	1	repeat	Run4	repeat/STIM_009.jpg
3082.179	0.625	1	repeat	Run4	repeat/STIM_009.jpg
3086.328	0.451	1	repeat	Run4	repeat/STIM_010.jpg
3088.947	0.689	1	repeat	Run4	repeat/STIM_010.jpg
3093.462	0.438	1	repeat	Run4	repeat/STIM_010.jpg
3097.674	0.435	1	repeat	Run4	repeat/STIM_010.jpg
3101.051	0.474	1	repeat	Run4	repeat/STIM_010.jpg
3105.117	0.436	1	repeat	Run4	repeat/STIM_011.jpg
3108.609	0.581	1	repeat	Run4	repeat/STIM_011.jpg
3112.031	0.514	1	repeat	Run4	repeat/STIM_011.jpg
3115.526	0.592	1	repeat	Run4	repeat/STIM_011.jpg
3119.302	0.623	1	repeat	Run4	repeat/STIM_011.jpg
3123.769	0.567	1	repeat	Run4	repeat/STIM_012.jpg
3127.729	0.727	1	repeat	Run4	repeat/STIM_012.jpg
3131.119	0.624	1	repeat	Run4	repeat/STIM_012.jpg
3134.104	0.575	0	repeat	Run4	repeat/STIM_012.jpg
3137.746	0.666	1	repeat	Run4	repeat/STIM_012.jpg
3140.484	0.488	1	repeat	Run4	repeat/STIM_013.jpg
3143.55	0.549	1	repeat	Run4	repeat/STIM_013.jpg
3147.081	0.65	1	repeat	Run4	repeat/STIM_013.jpg
3151.033	0.666	1	repeat	Run4	repeat/STIM_013.jpg
3155.384	0.694	1	repeat	Run4	repeat/STIM_013.jpg
3158.792	0.483	1	repeat	Run4	repeat/STIM_014.jpg
3162.046	0.378	1	repeat	Run4	repeat/STIM_014.jpg
3164.677	0.397	1	repeat	Run4	repeat/STIM_014.jpg
3167.233	0.62	1	repeat	Run4	repeat/STIM_014.jpg
3171.406	0.606	1	repeat	Run4	repeat/STIM_014.jpg
