onset	duration	response_time_ms	trial_type	learning_stage	stimulus	response_port
0.0	3.233	3232.8	generate	Run1	generate/STIM_000.jpg	100
5.515	2.68	2679.8	generate	Run1	generate/STIM_000.jpg	100
10.066	1.987	1987.2	generate	Run1	generate/STIM_000.jpg	100
14.462	1.943	1943.4	generate	Run1	generate/STIM_000.jpg	99
19.437	1.122	1121.6	generate	Run1	generate/STIM_000.jpg	100
22.766	2.432	2431.7	generate	Run1	generate/STIM_001.jpg	100
28.251	1.28	1280.2	generate	Run1	generate/STIM_001.jpg	100
32.984	1.84	1839.5	generate	Run1	generate/STIM_001.jpg	100
38.507	2.499	2499.1	generate	Run1	generate/STIM_001.jpg	99
44.618	1.266	1265.7	generate	Run1	generate/STIM_001.jpg	99
49.663	1.483	1483.0	generate	Run1	generate/STIM_002.jpg	99
54.257	2.718	2717.9	generate	Run1	generate/STIM_002.jpg	100
60.083	2.842	2841.5	generate	Run1	generate/STIM_002.jpg	100
65.076	2.762	2761.7	generate	Run1	generate/STIM_002.jpg	100
71.255	2.576	2576.2	generate	Run1	generate/STIM_002.jpg	99
77.055	1.358	1358.1	generate	Run1	generate/STIM_003.jpg	99
81.136	2.77	2769.9	generate	Run1	generate/STIM_003.jpg	100
87.07	2.165	2165.1	generate	Run1	generate/STIM_003.jpg	99
91.145	2.036	2036.4	generate	Run1	generate/STIM_003.jpg	99
95.613	1.934	1933.9	generate	Run1	generate/STIM_003.jpg	99
101.33	2.472	2471.8	generate	Run1	generate/STIM_004.jpg	100
107.439	1.586	1586.3	generate	Run1	generate/STIM_004.jpg	100
111.541	1.806	1805.9	generate	Run1	generate/STIM_004.jpg	100
116.324	2.503	2503.1	generate	Run1	generate/STIM_004.jpg	99
121.944	1.841	1841.0	generate	Run1	generate/STIM_004.jpg	100
126.192	2.294	2293.5	generate	Run1	generate/STIM_005.jpg	100
130.767	2.502	2501.6	generate	Run1	generate/STIM_005.jpg	99
136.492	1.658	1657.6	generate	Run1	generate/STIM_005.jpg	99
140.359	1.744	1744.3	generate	Run1	generate/STIM_005.jpg	100
144.582	2.247	2246.8	generate	Run1	generate/STIM_005.jpg	99
149.96	2.176	2175.8	generate	Run1	generate/STIM_006.jpg	99
155.731	1.388	1387.8	generate	Run1	generate/STIM_006.jpg	100
160.284	2.432	2431.9	generate	Run1	generate/STIM_006.jpg	100
164.697	1.942	1942.4	generate	Run1	generate/STIM_006.jpg	100
169.565	1.143	1143.1	generate	Run1	generate/STIM_006.jpg	99
173.676	2.614	2614.5	generate	Run1	generate/STIM_007.jpg	100
179.898	1.854	1853.7	generate	Run1	generate/STIM_007.jpg	100
184.261	1.753	1752.6	generate	Run1	generate/STIM_007.jpg	100
188.493	1.336	1336.3	generate	Run1	generate/STIM_007.jpg	99
191.934	2.307	2307.2	generate	Run1	generate/STIM_007.jpg	99
196.964	3.33	3329.7	generate	Run1	generate/STIM_008.jpg	100
203.046	1.418	1418.4	generate	Run1	generate/STIM_008.jpg	99
208.123	1.605	1604.6	generate	Run1	generate/STIM_008.jpg	99
213.477	2.806	2806.5	generate	Run1	generate/STIM_008.jpg	99
217.991	1.788	1788.5	generate	Run1	generate/STIM_008.jpg	100
222.815	3.145	3144.9	generate	Run1	generate/STIM_009.jpg	100
227.853	2.558	2558.4	generate	Run1	generate/STIM_009.jpg	99
233.168	2.449	2448.8	generate	Run1	generate/STIM_009.jpg	99
237.499	2.02	2020.2	generate	Run1	generate/STIM_009.jpg	99
242.598	2.388	2388.4	generate	Run1	generate/STIM_009.jpg	99
247.453	2.075	2075.2	generate	Run1	generate/STIM_010.jpg	99
252.247	1.329	1329.2	generate	Run1	generate/STIM_010.jpg	100
255.744	2.355	2354.6	generate	Run1	generate/STIM_010.jpg	99
261.036	1.805	1805.2	generate	Run1	generate/STIM_010.jpg	99
264.723	1.543	1543.4	generate	Run1	generate/STIM_010.jpg	99
269.639	1.368	1368.3	generate	Run1	generate/STIM_011.jpg	100
273.124	2.487	2487.3	generate	Run1	generate/STIM_011.jpg	99
277.43	2.836	2836.4	generate	Run1	generate/STIM_011.jpg	99
283.051	1.744	1743.7	generate	Run1	generate/STIM_011.jpg	99
287.863	1.197	1197.3	generate	Run1	generate/STIM_011.jpg	99
291.235	2.785	2785.0	generate	Run1	generate/STIM_012.jpg	99
297.33	1.668	1667.7	generate	Run1	generate/STIM_012.jpg	100
301.405	1.776	1776.1	generate	Run1	generate/STIM_012.jpg	100
305.253	2.592	2592.3	generate	Run1	generate/STIM_012.jpg	99
309.583	2.526	2525.5	generate	Run1	generate/STIM_012.jpg	99
315.772	2.167	2167.1	generate	Run1	generate/STIM_013.jpg	99
319.843	2.03	2030.2	generate	Run1	generate/STIM_013.jpg	99
324.901	2.308	2307.7	generate	Run1	generate/STIM_013.jpg	100
330.5	1.238	1238.0	generate	Run1	generate/STIM_013.jpg	100
335.046	1.429	1429.3	generate	Run1	generate/STIM_013.jpg	99
339.771	2.102	2101.6	generate	Run1	generate/STIM_014.jpg	99
344.832	1.298	1297.7	generate	Run1	generate/STIM_014.jpg	99
348.492	2.156	2156.5	generate	Run1	generate/STIM_014.jpg	99
352.422	2.784	2783.5	generate	Run1	generate/STIM_014.jpg	100
358.139	1.443	1443.3	generate	Run1	generate/STIM_014.jpg	99
362.444	2.246	2245.6	generate	Run1	generate/STIM_015.jpg	99
367.287	1.673	1673.1	generate	Run1	generate/STIM_015.jpg	100
372.193	2.407	2407.2	generate	Run1	generate/STIM_015.jpg	100
377.435	1.502	1502.3	generate	Run1	generate/STIM_015.jpg	99
381.988	2.337	2337.4	generate	Run1	generate/STIM_015.jpg	99
387.533	1.47	1469.8	generate	Run1	generate/STIM_016.jpg	100
391.283	1.802	1801.9	generate	Run1	generate/STIM_016.jpg	99
394.937	2.304	2303.9	generate	Run1	generate/STIM_016.jpg	100
400.208	1.686	1686.5	generate	Run1	generate/STIM_016.jpg	100
404.405	2.151	2150.9	generate	Run1	generate/STIM_016.jpg	99
409.473	2.139	2139.4	generate	Run1	generate/STIM_017.jpg	100
414.198	2.944	2943.7	generate	Run1	generate/STIM_017.jpg	100
420.812	2.853	2852.9	generate	Run1	generate/STIM_017.jpg	100
426.395	2.686	2685.5	generate	Run1	generate/STIM_017.jpg	99
431.162	1.839	1839.3	generate	Run1	generate/STIM_017.jpg	100
436.311	2.408	2408.5	generate	Run1	generate/STIM_018.jpg	99
441.444	2.397	2396.9	generate	Run1	generate/STIM_018.jpg	99
446.729	2.31	2310.4	generate	Run1	generate/STIM_018.jpg	99
451.164	1.672	1671.8	generate	Run1	generate/STIM_018.jpg	99
455.255	1.313	1313.2	generate	Run1	generate/STIM_018.jpg	100
459.548	1.819	1819.3	generate	Run1	generate/STIM_019.jpg	100
464.203	1.323	1323.3	generate	Run1	generate/STIM_019.jpg	99
468.033	3.007	3006.9	generate	Run1	generate/STIM_019.jpg	99
473.915	1.368	1367.7	generate	Run1	generate/STIM_019.jpg	99
477.968	1.926	1926.5	generate	Run1	generate/STIM_019.jpg	100
482.295	2.02	2020.1	generate	Run1	generate/STIM_020.jpg	100
487.587	2.168	2168.5	generate	Run1	generate/STIM_020.jpg	99
492.032	2.238	2238.0	generate	Run1	generate/STIM_020.jpg	100
496.789	2.161	2160.7	generate	Run1	generate/STIM_020.jpg	99
500.99	1.592	1591.5	generate	Run1	generate/STIM_020.jpg	100
505.365	2.941	2940.9	generate	Run1	generate/STIM_021.jpg	100
510.762	1.445	1444.6	generate	Run1	generate/STIM_021.jpg	100
514.487	2.098	2097.7	generate	Run1	generate/STIM_021.jpg	100
519.48	1.601	1600.7	generate	Run1	generate/STIM_021.jpg	99
524.806	1.711	1710.8	generate	Run1	generate/STIM_021.jpg	100
528.751	1.796	1796.1	generate	Run1	generate/STIM_022.jpg	100
534.226	2.428	2428.1	generate	Run1	generate/STIM_022.jpg	100
539.944	2.779	2778.6	generate	Run1	generate/STIM_022.jpg	100
545.033	2.58	2580.3	generate	Run1	generate/STIM_022.jpg	99
549.689	1.32	1319.9	generate	Run1	generate/STIM_022.jpg	99
553.491	2.513	2512.8	generate	Run1	generate/STIM_023.jpg	100
558.613	1.454	1454.5	generate	Run1	generate/STIM_023.jpg	99
563.135	1.767	1767.4	generate	Run1	generate/STIM_023.jpg	100
567.145	1.863	1863.1	generate	Run1	generate/STIM_023.jpg	100
570.83	2.652	2652.5	generate	Run1	generate/STIM_023.jpg	99
576.783	1.523	1522.9	generate	Run1	generate/STIM_024.jpg	100
582.022	1.838	1838.0	generate	Run1	generate/STIM_024.jpg	100
587.051	2.813	2813.2	generate	Run1	generate/STIM_024.jpg	100
592.208	2.851	2851.3	generate	Run1	generate/STIM_024.jpg	99
597.496	2.418	2417.7	generate	Run1	generate/STIM_024.jpg	100
602.785	0.982	982.4	repeat	Run1	repeat/STIM_000.jpg	99
607.302	0.756	756.5	repeat	Run1	repeat/STIM_000.jpg	99
610.542	0.959	959.2	repeat	Run1	repeat/STIM_000.jpg	100
614.032	1.02	1020.4	repeat	Run1	repeat/STIM_000.jpg	100
617.873	0.636	636.0	repeat	Run1	repeat/STIM_000.jpg	100
621.348	0.675	675.2	repeat	Run1	repeat/STIM_001.jpg	99
624.397	1.12	1120.5	repeat	Run1	repeat/STIM_001.jpg	99
629.324	0.798	798.4	repeat	Run1	repeat/STIM_001.jpg	99
632.43	0.937	937.3	repeat	Run1	repeat/STIM_001.jpg	99
636.54	0.874	873.5	repeat	Run1	repeat/STIM_001.jpg	99
639.971	0.851	850.8	repeat	Run1	repeat/STIM_002.jpg	100
644.701	0.744	743.5	repeat	Run1	repeat/STIM_002.jpg	99
647.616	1.002	1002.5	repeat	Run1	repeat/STIM_002.jpg	99
650.824	0.855	854.6	repeat	Run1	repeat/STIM_002.jpg	100
654.599	1.064	1064.0	repeat	Run1	repeat/STIM_002.jpg	99
658.999	1.059	1058.9	repeat	Run1	repeat/STIM_003.jpg	100
662.74	0.912	912.5	repeat	Run1	repeat/STIM_003.jpg	100
666.495	0.913	913.4	repeat	Run1	repeat/STIM_003.jpg	99
670.814	0.685	685.2	repeat	Run1	repeat/STIM_003.jpg	99
673.976	0.738	737.7	repeat	Run1	repeat/STIM_003.jpg	100
676.96	1.008	1008.2	repeat	Run1	repeat/STIM_004.jpg	99
680.076	0.97	970.3	repeat	Run1	repeat/STIM_004.jpg	99
684.557	0.988	988.2	repeat	Run1	repeat/STIM_004.jpg	99
688.591	0.631	630.6	repeat	Run1	repeat/STIM_004.jpg	99
691.56	0.624	624.5	repeat	Run1	repeat/STIM_004.jpg	99
696.089	0.967	967.2	repeat	Run1	repeat/STIM_005.jpg	99
700.27	0.89	890.2	repeat	Run1	repeat/STIM_005.jpg	100
704.472	1.1	1099.5	repeat	Run1	repeat/STIM_005.jpg	99
708.808	0.806	806.4	repeat	Run1	repeat/STIM_005.jpg	99
713.039	0.801	801.3	repeat	Run1	repeat/STIM_005.jpg	100
716.438	0.766	765.8	repeat	Run1	repeat/STIM_006.jpg	100
719.681	0.75	750.0	repeat	Run1	repeat/STIM_006.jpg	99
724.016	0.63	630.3	repeat	Run1	repeat/STIM_006.jpg	99
726.631	0.994	993.6	repeat	Run1	repeat/STIM_006.jpg	99
731.28	0.922	921.8	repeat	Run1	repeat/STIM_006.jpg	99
734.846	0.564	563.6	repeat	Run1	repeat/STIM_007.jpg	99
737.541	0.805	804.8	repeat	Run1	repeat/STIM_007.jpg	100
740.682	0.742	742.2	repeat	Run1	repeat/STIM_007.jpg	99
744.716	0.968	968.4	repeat	Run1	repeat/STIM_007.jpg	99
749.368	0.896	895.9	repeat	Run1	repeat/STIM_007.jpg	100
752.412	0.996	995.7	repeat	Run1	repeat/STIM_008.jpg	100
755.574	0.938	937.6	repeat	Run1	repeat/STIM_008.jpg	100
758.463	0.591	591.4	repeat	Run1	repeat/STIM_008.jpg	100
762.933	1.003	1002.6	repeat	Run1	repeat/STIM_008.jpg	100
767.617	0.816	816.5	repeat	Run1	repeat/STIM_008.jpg	100
771.654	0.887	886.7	repeat	Run1	repeat/STIM_009.jpg	100
775.412	1.05	1049.6	repeat	Run1	repeat/STIM_009.jpg	100
778.451	1.086	1085.9	repeat	Run1	repeat/STIM_009.jpg	100
782.321	1.12	1119.6	repeat	Run1	repeat/STIM_009.jpg	99
786.285	0.909	909.1	repeat	Run1	repeat/STIM_009.jpg	100
789.494	1.089	1089.0	repeat	Run1	repeat/STIM_010.jpg	100
793.272	1.031	1031.2	repeat	Run1	repeat/STIM_010.jpg	100
796.446	0.953	953.1	repeat	Run1	repeat/STIM_010.jpg	99
800.076	1.112	1111.6	repeat	Run1	repeat/STIM_010.jpg	99
804.143	0.806	805.5	repeat	Run1	repeat/STIM_010.jpg	99
807.052	0.982	982.3	repeat	Run1	repeat/STIM_011.jpg	99
811.004	0.889	889.2	repeat	Run1	repeat/STIM_011.jpg	100
813.898	1.062	1061.5	repeat	Run1	repeat/STIM_011.jpg	100
818.431	1.056	1055.5	repeat	Run1	repeat/STIM_011.jpg	100
823.03	0.898	898.0	repeat	Run1	repeat/STIM_011.jpg	100
826.575	1.032	1032.1	repeat	Run1	repeat/STIM_012.jpg	99
830.582	0.827	827.2	repeat	Run1	repeat/STIM_012.jpg	100
835.041	0.607	607.4	repeat	Run1	repeat/STIM_012.jpg	100
838.058	1.085	1085.2	repeat	Run1	repeat/STIM_012.jpg	100
841.606	1.048	1047.5	repeat	Run1	repeat/STIM_012.jpg	99
845.138	0.935	934.8	repeat	Run1	repeat/STIM_013.jpg	100
848.345	0.713	712.7	repeat	Run1	repeat/STIM_013.jpg	100
851.616	1.059	1059.4	repeat	Run1	repeat/STIM_013.jpg	100
855.403	0.96	959.8	repeat	Run1	repeat/STIM_013.jpg	99
859.941	0.765	764.6	repeat	Run1	repeat/STIM_013.jpg	99
864.46	0.95	950.5	repeat	Run1	repeat/STIM_014.jpg	99
867.822	0.692	692.3	repeat	Run1	repeat/STIM_014.jpg	99
871.824	0.772	772.4	repeat	Run1	repeat/STIM_014.jpg	100
875.22	0.711	711.4	repeat	Run1	repeat/STIM_014.jpg	99
879.815	0.973	973.2	repeat	Run1	repeat/STIM_014.jpg	100
884.187	2.37	2369.9	generate	Run2	generate/STIM_000.jpg	100
890.25	2.487	2486.6	generate	Run2	generate/STIM_000.jpg	99
896.213	2.246	2246.1	generate	Run2	generate/STIM_000.jpg	99
900.966	1.717	1717.2	generate	Run2	generate/STIM_000.jpg	100
904.78	1.03	1030.4	generate	Run2	generate/STIM_000.jpg	100
909.448	2.578	2577.7	generate	Run2	generate/STIM_001.jpg	100
915.477	2.391	2391.1	generate	Run2	generate/STIM_001.jpg	100
921.495	1.587	1586.8	generate	Run2	generate/STIM_001.jpg	99
926.622	1.879	1879.3	generate	Run2	generate/STIM_001.jpg	99
930.687	1.189	1189.3	generate	Run2	generate/STIM_001.jpg	99
933.956	1.268	1268.0	generate	Run2	generate/STIM_002.jpg	100
938.427	2.049	2049.4	generate	Run2	generate/STIM_002.jpg	100
942.746	1.338	1338.4	generate	Run2	generate/STIM_002.jpg	100
947.182	1.89	1890.4	generate	Run2	generate/STIM_002.jpg	99
951.174	1.35	1349.9	generate	Run2	generate/STIM_002.jpg	99
954.952	2.315	2315.2	generate	Run2	generate/STIM_003.jpg	99
959.142	2.646	2646.0	generate	Run2	generate/STIM_003.jpg	100
964.568	1.809	1809.2	generate	Run2	generate/STIM_003.jpg	100
968.334	1.465	1465.3	generate	Run2	generate/STIM_003.jpg	99
973.57	1.186	1186.0	generate	Run2	generate/STIM_003.jpg	100
978.119	1.679	1678.8	generate	Run2	generate/STIM_004.jpg	99
982.833	1.642	1642.1	generate	Run2	generate/STIM_004.jpg	99
986.637	2.21	2210.2	generate	Run2	generate/STIM_004.jpg	100
992.175	1.503	1503.3	generate	Run2	generate/STIM_004.jpg	99
996.488	1.889	1889.0	generate	Run2	generate/STIM_004.jpg	99
1000.53	1.183	1183.1	generate	Run2	generate/STIM_005.jpg	100
1003.824	1.21	1209.5	generate	Run2	generate/STIM_005.jpg	100
1008.217	1.672	1671.8	generate	Run2	generate/STIM_005.jpg	100
1011.824	1.359	1358.8	generate	Run2	generate/STIM_005.jpg	100
1015.173	2.05	2049.9	generate	Run2	generate/STIM_005.jpg	99
1019.938	1.32	1319.9	generate	Run2	generate/STIM_006.jpg	100
1024.487	1.11	1109.8	generate	Run2	generate/STIM_006.jpg	100
1028.27	1.132	1131.5	generate	Run2	generate/STIM_006.jpg	100
1031.536	1.652	1652.4	generate	Run2	generate/STIM_006.jpg	99
1036.49	1.18	1180.3	generate	Run2	generate/STIM_006.jpg	99
1040.722	2.298	2298.3	generate	Run2	generate/STIM_007.jpg	99
1046.124	1.213	1213.1	generate	Run2	generate/STIM_007.jpg	100
1049.642	1.726	1726.2	generate	Run2	generate/STIM_007.jpg	100
1053.765	1.988	1988.2	generate	Run2	generate/STIM_007.jpg	100
1058.751	1.822	1821.5	generate	Run2	generate/STIM_007.jpg	100
1063.622	1.603	1602.7	generate	Run2	generate/STIM_008.jpg	99
1068.85	2.213	2212.7	generate	Run2	generate/STIM_008.jpg	99
1073.263	1.314	1313.7	generate	Run2	generate/STIM_008.jpg	99
1076.479	2.041	2040.9	generate	Run2	generate/STIM_008.jpg	100
1081.322	1.727	1727.1	generate	Run2	generate/STIM_008.jpg	100
1085.135	1.507	1506.7	generate	Run2	generate/STIM_009.jpg	100
1090.168	1.546	1545.7	generate	Run2	generate/STIM_009.jpg	100
1094.248	1.192	1191.8	generate	Run2	generate/STIM_009.jpg	99
1099.08	1.564	1563.7	generate	Run2	generate/STIM_009.jpg	100
1104.233	1.616	1615.5	generate	Run2	generate/STIM_009.jpg	99
1108.467	2.652	2651.8	generate	Run2	generate/STIM_010.jpg	99
1114.671	1.254	1253.8	generate	Run2	generate/STIM_010.jpg	99
1118.559	1.642	1641.7	generate	Run2	generate/STIM_010.jpg	99
1123.948	1.921	1920.6	generate	Run2	generate/STIM_010.jpg	100
1127.794	2.266	2266.5	generate	Run2	generate/STIM_010.jpg	100
1132.96	2.025	2024.6	generate	Run2	generate/STIM_011.jpg	99
1138.551	2.014	2014.0	generate	Run2	generate/STIM_011.jpg	99
1144.061	2.034	2033.5	generate	Run2	generate/STIM_011.jpg	99
1148.019	2.114	2114.1	generate	Run2	generate/STIM_011.jpg	100
1151.975	1.675	1675.2	generate	Run2	generate/STIM_011.jpg	100
1155.476	2.685	2685.3	generate	Run2	generate/STIM_012.jpg	100
1161.101	1.796	1795.6	generate	Run2	generate/STIM_012.jpg	99
1165.902	2.114	2113.6	generate	Run2	generate/STIM_012.jpg	99
1170.368	1.779	1778.6	generate	Run2	generate/STIM_012.jpg	100
1174.886	1.032	1032.1	generate	Run2	generate/STIM_012.jpg	99
1178.036	1.279	1279.1	generate	Run2	generate/STIM_013.jpg	99
1182.523	1.152	1152.2	generate	Run2	generate/STIM_013.jpg	100
1187.264	1.588	1587.9	generate	Run2	generate/STIM_013.jpg	99
1191.616	0.989	988.8	generate	Run2	generate/STIM_013.jpg	100
1195.248	0.946	946.3	generate	Run2	generate/STIM_013.jpg	99
1198.827	1.763	1762.6	generate	Run2	generate/STIM_014.jpg	99
1203.268	1.983	1983.2	generate	Run2	generate/STIM_014.jpg	99
1207.763	1.798	1798.1	generate	Run2	generate/STIM_014.jpg	99
1212.774	1.274	1274.0	generate	Run2	generate/STIM_014.jpg	100
1216.167	2.279	2279.0	generate	Run2	generate/STIM_014.jpg	100
1221.474	2.155	2154.7	generate	Run2	generate/STIM_015.jpg	99
1225.504	1.545	1544.9	generate	Run2	generate/STIM_015.jpg	100
1229.414	2.487	2487.4	generate	Run2	generate/STIM_015.jpg	99
1235.139	1.643	1642.7	generate	Run2	generate/STIM_015.jpg	99
1240.163	1.297	1297.0	generate	Run2	generate/STIM_015.jpg	100
1244.553	1.786	1786.0	generate	Run2	generate/STIM_016.jpg	99
1248.355	1.372	1372.0	generate	Run2	generate/STIM_016.jpg	100
1252.591	2.216	2216.3	generate	Run2	generate/STIM_016.jpg	99
1258.067	2.085	2084.9	generate	Run2	generate/STIM_016.jpg	99
1263.793	1.199	1199.2	generate	Run2	generate/STIM_016.jpg	99
1268.71	1.215	1215.1	generate	Run2	generate/STIM_017.jpg	100
1273.12	2.214	2213.5	generate	Run2	generate/STIM_017.jpg	99
1277.82	1.456	1456.0	generate	Run2	generate/STIM_017.jpg	99
1282.886	1.26	1260.3	generate	Run2	generate/STIM_017.jpg	99
1286.297	1.274	1273.8	generate	Run2	generate/STIM_017.jpg	99
1290.301	2.828	2827.8	generate	Run2	generate/STIM_018.jpg	100
1296.292	1.878	1878.4	generate	Run2	generate/STIM_018.jpg	100
1301.766	2.216	2215.9	generate	Run2	generate/STIM_018.jpg	100
1305.854	1.713	1713.3	generate	Run2	generate/STIM_018.jpg	99
1311.226	1.953	1952.6	generate	Run2	generate/STIM_018.jpg	100
1315.808	1.871	1870.8	generate	Run2	generate/STIM_019.jpg	100
1320.218	1.592	1592.4	generate	Run2	generate/STIM_019.jpg	100
1324.428	1.36	1360.2	generate	Run2	generate/STIM_019.jpg	100
1328.273	2.192	2191.7	generate	Run2	generate/STIM_019.jpg	99
1332.422	1.838	1838.1	generate	Run2	generate/STIM_019.jpg	100
1337.787	2.249	2249.2	generate	Run2	generate/STIM_020.jpg	99
1343.776	1.224	1223.9	generate	Run2	generate/STIM_020.jpg	99
1347.651	2.194	2193.6	generate	Run2	generate/STIM_020.jpg	99
1353.497	1.401	1401.2	generate	Run2	generate/STIM_020.jpg	99
1357.434	2.007	2006.6	generate	Run2	generate/STIM_020.jpg	99
1363.17	1.398	1397.5	generate	Run2	generate/STIM_021.jpg	100
1367.029	2.652	2652.3	generate	Run2	generate/STIM_021.jpg	99
1372.233	2.326	2326.3	generate	Run2	generate/STIM_021.jpg	100
1376.737	1.75	1749.5	generate	Run2	generate/STIM_021.jpg	99
1382.051	2.012	2011.9	generate	Run2	generate/STIM_021.jpg	100
1386.252	2.226	2225.6	generate	Run2	generate/STIM_022.jpg	100
1391.282	2.192	2192.4	generate	Run2	generate/STIM_022.jpg	100
1396.39	1.91	1909.5	generate	Run2	generate/STIM_022.jpg	100
1401.823	1.596	1595.9	generate	Run2	generate/STIM_022.jpg	99
1406.955	1.728	1727.6	generate	Run2	generate/STIM_022.jpg	100
1412.258	1.789	1789.1	generate	Run2	generate/STIM_023.jpg	99
1416.341	1.927	1927.2	generate	Run2	generate/STIM_023.jpg	99
1420.497	2.213	2213.0	generate	Run2	generate/STIM_023.jpg	100
1426.24	1.712	1712.3	generate	Run2	generate/STIM_023.jpg	99
1430.312	1.228	1228.4	generate	Run2	generate/STIM_023.jpg	99
1434.531	1.922	1921.5	generate	Run2	generate/STIM_024.jpg	100
1439.059	2.403	2403.3	generate	Run2	generate/STIM_024.jpg	100
1444.438	2.267	2266.7	generate	Run2	generate/STIM_024.jpg	100
1448.765	1.047	1047.1	generate	Run2	generate/STIM_024.jpg	99
1453.115	1.039	1039.3	generate	Run2	generate/STIM_024.jpg	100
1458.027	0.85	849.8	repeat	Run2	repeat/STIM_000.jpg	99
1461.088	0.606	606.2	repeat	Run2	repeat/STIM_000.jpg	100
1465.168	0.655	655.2	repeat	Run2	repeat/STIM_000.jpg	99
1469.146	0.99	989.7	repeat	Run2	repeat/STIM_000.jpg	99
1472.038	0.73	729.5	repeat	Run2	repeat/STIM_000.jpg	100
1476.233	0.882	882.5	repeat	Run2	repeat/STIM_001.jpg	99
1479.244	0.944	944.0	repeat	Run2	repeat/STIM_001.jpg	100
1482.657	0.722	722.0	repeat	Run2	repeat/STIM_001.jpg	99
1485.649	0.565	564.6	repeat	Run2	repeat/STIM_001.jpg	100
1489.421	0.854	853.9	repeat	Run2	repeat/STIM_001.jpg	100
1493.168	1.008	1008.1	repeat	Run2	repeat/STIM_002.jpg	99
1496.192	0.92	920.5	repeat	Run2	repeat/STIM_002.jpg	99
1500.143	0.646	645.5	repeat	Run2	repeat/STIM_002.jpg	99
1503.104	0.598	597.5	repeat	Run2	repeat/STIM_002.jpg	99
1507.135	0.952	951.5	repeat	Run2	repeat/STIM_002.jpg	100
1510.959	0.73	729.9	repeat	Run2	repeat/STIM_003.jpg	100
1514.054	0.86	860.2	repeat	Run2	repeat/STIM_003.jpg	99
1518.216	0.564	563.6	repeat	Run2	repeat/STIM_003.jpg	100
1521.577	0.613	613.3	repeat	Run2	repeat/STIM_003.jpg	99
1525.527	1.041	1040.9	repeat	Run2	repeat/STIM_003.jpg	100
1530.276	0.928	928.1	repeat	Run2	repeat/STIM_004.jpg	100
1534.703	0.957	957.0	repeat	Run2	repeat/STIM_004.jpg	99
1539.076	0.616	615.6	repeat	Run2	repeat/STIM_004.jpg	99
1543.066	0.581	580.6	repeat	Run2	repeat/STIM_004.jpg	99
1546.456	1.073	1073.3	repeat	Run2	repeat/STIM_004.jpg	99
1550.571	0.713	713.3	repeat	Run2	repeat/STIM_005.jpg	100
1554.496	0.6	600.2	repeat	Run2	repeat/STIM_005.jpg	100
1558.059	0.878	877.8	repeat	Run2	repeat/STIM_005.jpg	99
1562.435	0.599	599.1	repeat	Run2	repeat/STIM_005.jpg	100
1565.306	0.594	594.4	repeat	Run2	repeat/STIM_005.jpg	99
1569.178	0.734	734.5	repeat	Run2	repeat/STIM_006.jpg	99
1572.645	0.689	688.6	repeat	Run2	repeat/STIM_006.jpg	99
1575.464	0.866	865.8	repeat	Run2	repeat/STIM_006.jpg	100
1578.92	0.894	894.2	repeat	Run2	repeat/STIM_006.jpg	100
1582.324	0.899	899.4	repeat	Run2	repeat/STIM_006.jpg	100
1586.07	1.118	1117.9	repeat	Run2	repeat/STIM_007.jpg	100
1591.011	0.95	950.4	repeat	Run2	repeat/STIM_007.jpg	100
1595.375	0.876	876.0	repeat	Run2	repeat/STIM_007.jpg	99
1599.202	0.612	612.3	repeat	Run2	repeat/STIM_007.jpg	99
1602.146	0.998	998.1	repeat	Run2	repeat/STIM_007.jpg	100
1605.271	0.601	601.0	repeat	Run2	repeat/STIM_008.jpg	99
1609.561	1.047	1047.1	repeat	Run2	repeat/STIM_008.jpg	99
1613.517	1.082	1082.1	repeat	Run2	repeat/STIM_008.jpg	100
1617.724	0.762	762.2	repeat	Run2	repeat/STIM_008.jpg	99
1621.015	0.824	823.6	repeat	Run2	repeat/STIM_008.jpg	100
1624.55	0.898	898.0	repeat	Run2	repeat/STIM_009.jpg	99
1628.757	0.766	765.8	repeat	Run2	repeat/STIM_009.jpg	99
1631.793	1.03	1030.4	repeat	Run2	repeat/STIM_009.jpg	100
1636.12	1.068	1067.9	repeat	Run2	repeat/STIM_009.jpg	99
1640.588	1.097	1096.7	repeat	Run2	repeat/STIM_009.jpg	99
1645.057	1.008	1007.6	repeat	Run2	repeat/STIM_010.jpg	100
1649.077	0.581	580.6	repeat	Run2	repeat/STIM_010.jpg	100
1651.894	1.119	1118.6	repeat	Run2	repeat/STIM_010.jpg	99
1655.409	0.83	829.9	repeat	Run2	repeat/STIM_010.jpg	100
1658.868	0.74	739.9	repeat	Run2	repeat/STIM_010.jpg	99
1662.062	0.593	592.8	repeat	Run2	repeat/STIM_011.jpg	100
1665.576	0.854	853.6	repeat	Run2	repeat/STIM_011.jpg	100
1669.158	0.612	612.0	repeat	Run2	repeat/STIM_011.jpg	99
1672.255	0.915	914.7	repeat	Run2	repeat/STIM_011.jpg	100
1676.604	0.718	718.5	repeat	Run2	repeat/STIM_011.jpg	99
1680.576	0.68	680.1	repeat	Run2	repeat/STIM_012.jpg	99
1684.469	0.836	835.9	repeat	Run2	repeat/STIM_012.jpg	100
1688.09	0.698	697.9	repeat	Run2	repeat/STIM_012.jpg	99
1691.499	0.866	865.6	repeat	Run2	repeat/STIM_012.jpg	100
1694.9	0.786	786.2	repeat	Run2	repeat/STIM_012.jpg	100
1699.158	0.885	884.8	repeat	Run2	repeat/STIM_013.jpg	100
1703.36	0.687	686.6	repeat	Run2	repeat/STIM_013.jpg	100
1706.577	0.9	899.8	repeat	Run2	repeat/STIM_013.jpg	99
1711.042	0.847	847.3	repeat	Run2	repeat/STIM_013.jpg	99
1714.511	0.997	997.0	repeat	Run2	repeat/STIM_013.jpg	99
1718.93	0.904	904.3	repeat	Run2	repeat/STIM_014.jpg	99
1723.306	0.997	997.0	repeat	Run2	repeat/STIM_014.jpg	100
1726.701	0.629	629.4	repeat	Run2	repeat/STIM_014.jpg	99
1730.977	0.749	749.2	repeat	Run2	repeat/STIM_014.jpg	99
1733.971	0.708	707.7	repeat	Run2	repeat/STIM_014.jpg	99
1737.151	1.745	1744.9	generate	Run3	generate/STIM_000.jpg	99
1741.139	1.178	1178.0	generate	Run3	generate/STIM_000.jpg	100
1744.633	1.944	1943.8	generate	Run3	generate/STIM_000.jpg	99
1749.749	1.858	1858.2	generate	Run3	generate/STIM_000.jpg	100
1754.509	1.094	1094.1	generate	Run3	generate/STIM_000.jpg	99
1759.134	1.054	1053.5	generate	Run3	generate/STIM_001.jpg	99
1762.798	1.624	1624.0	generate	Run3	generate/STIM_001.jpg	99
1767.342	2.33	2330.5	generate	Run3	generate/STIM_001.jpg	99
1772.966	1.101	1101.1	generate	Run3	generate/STIM_001.jpg	100
1777.732	1.744	1744.0	generate	Run3	generate/STIM_001.jpg	100
1781.483	1.915	1915.2	generate	Run3	generate/STIM_002.jpg	99
1785.605	2.024	2024.0	generate	Run3	generate/STIM_002.jpg	99
1790.467	1.853	1852.8	generate	Run3	generate/STIM_002.jpg	99
1794.149	1.681	1681.0	generate	Run3	generate/STIM_002.jpg	100
1798.905	1.668	1667.5	generate	Run3	generate/STIM_002.jpg	100
1802.564	1.712	1711.5	generate	Run3	generate/STIM_003.jpg	99
1806.357	2.264	2264.3	generate	Run3	generate/STIM_003.jpg	100
1810.387	1.348	1347.7	generate	Run3	generate/STIM_003.jpg	99
1814.61	2.027	2027.1	generate	Run3	generate/STIM_003.jpg	100
1819.577	2.102	2102.2	generate	Run3	generate/STIM_003.jpg	99
1824.536	1.951	1951.2	generate	Run3	generate/STIM_004.jpg	99
1829.001	1.554	1554.2	generate	Run3	generate/STIM_004.jpg	99
1834.047	1.694	1693.6	generate	Run3	generate/STIM_004.jpg	100
1839.173	2.302	2302.1	generate	Run3	generate/STIM_004.jpg	99
1845.054	1.266	1265.9	generate	Run3	generate/STIM_004.jpg	99
1848.6	2.048	2047.9	generate	Run3	generate/STIM_005.jpg	99
1853.54	1.566	1565.9	generate	Run3	generate/STIM_005.jpg	99
1858.648	1.787	1786.8	generate	Run3	generate/STIM_005.jpg	100
1862.774	1.667	1666.6	generate	Run3	generate/STIM_005.jpg	100
1866.421	2.129	2128.8	generate	Run3	generate/STIM_005.jpg	99
1871.177	1.17	1170.5	generate	Run3	generate/STIM_006.jpg	100
1875.914	1.577	1577.2	generate	Run3	generate/STIM_006.jpg	100
1879.807	1.478	1477.5	generate	Run3	generate/STIM_006.jpg	99
1883.476	2.311	2311.4	generate	Run3	generate/STIM_006.jpg	99
1888.194	2.166	2166.5	generate	Run3	generate/STIM_006.jpg	100
1892.794	1.448	1448.5	generate	Run3	generate/STIM_007.jpg	100
1896.553	1.608	1608.5	generate	Run3	generate/STIM_007.jpg	100
1900.212	2.019	2018.9	generate	Run3	generate/STIM_007.jpg	100
1904.324	2.275	2274.6	generate	Run3	generate/STIM_007.jpg	99
1910.107	1.108	1107.9	generate	Run3	generate/STIM_007.jpg	100
1914.443	2.122	2121.5	generate	Run3	generate/STIM_008.jpg	100
1920.283	1.592	1592.1	generate	Run3	generate/STIM_008.jpg	100
1925.527	1.883	1882.8	generate	Run3	generate/STIM_008.jpg	99
1929.9	2.307	2307.1	generate	Run3	generate/STIM_008.jpg	100
1935.485	1.142	1141.7	generate	Run3	generate/STIM_008.jpg	99
1938.522	2.343	2343.0	generate	Run3	generate/STIM_009.jpg	99
1943.445	1.625	1625.3	generate	Run3	generate/STIM_009.jpg	99
1948.612	2.267	2266.8	generate	Run3	generate/STIM_009.jpg	99
1953.212	2.345	2344.9	generate	Run3	generate/STIM_009.jpg	100
1958.33	2.191	2191.2	generate	Run3	generate/STIM_009.jpg	100
1962.748	1.489	1489.4	generate	Run3	generate/STIM_010.jpg	99
1967.389	0.946	945.7	generate	Run3	generate/STIM_010.jpg	99
1970.326	1.477	1477.0	generate	Run3	generate/STIM_010.jpg	100
1974.116	0.969	968.6	generate	Run3	generate/STIM_010.jpg	99
1978.539	1.372	1371.5	generate	Run3	generate/STIM_010.jpg	100
1982.942	1.313	1313.3	generate	Run3	generate/STIM_011.jpg	99
1988.041	2.287	2286.8	generate	Run3	generate/STIM_011.jpg	100
1992.496	2.249	2249.3	generate	Run3	generate/STIM_011.jpg	99
1997.912	1.613	1612.9	generate	Run3	generate/STIM_011.jpg	99
2001.366	1.408	1407.5	generate	Run3	generate/STIM_011.jpg	100
2005.56	1.807	1807.2	generate	Run3	generate/STIM_012.jpg	100
2009.189	1.416	1415.5	generate	Run3	generate/STIM_012.jpg	100
2013.039	1.309	1308.8	generate	Run3	generate/STIM_012.jpg	100
2017.69	2.172	2171.8	generate	Run3	generate/STIM_012.jpg	100
2023.558	1.358	1358.4	generate	Run3	generate/STIM_012.jpg	100
2028.724	1.328	1327.5	generate	Run3	generate/STIM_013.jpg	100
2032.832	1.056	1056.5	generate	Run3	generate/STIM_013.jpg	99
2037.732	1.767	1767.2	generate	Run3	generate/STIM_013.jpg	99
2041.318	1.704	1703.9	generate	Run3	generate/STIM_013.jpg	100
2044.865	1.959	1959.2	generate	Run3	generate/STIM_013.jpg	99
2049.812	1.077	1076.6	generate	Run3	generate/STIM_014.jpg	99
2052.797	1.275	1274.9	generate	Run3	generate/STIM_014.jpg	99
2057.9	1.305	1305.3	generate	Run3	generate/STIM_014.jpg	100
2062.777	2.119	2119.1	generate	Run3	generate/STIM_014.jpg	99
2067.347	1.896	1895.5	generate	Run3	generate/STIM_014.jpg	100
2072.23	2.188	2188.2	generate	Run3	generate/STIM_015.jpg	99
2077.329	1.301	1301.1	generate	Run3	generate/STIM_015.jpg	99
2081.769	1.773	1772.9	generate	Run3	generate/STIM_015.jpg	99
2086.602	1.997	1996.9	generate	Run3	generate/STIM_015.jpg	99
2092.28	1.234	1233.6	generate	Run3	generate/STIM_015.jpg	100
2096.407	1.06	1060.5	generate	Run3	generate/STIM_016.jpg	100
2100.736	2.215	2215.3	generate	Run3	generate/STIM_016.jpg	100
2104.74	1.386	1386.1	generate	Run3	generate/STIM_016.jpg	100
2108.66	1.806	1805.7	generate	Run3	generate/STIM_016.jpg	100
2112.949	1.228	1228.5	generate	Run3	generate/STIM_016.jpg	100
2117.071	1.668	1667.8	generate	Run3	generate/STIM_017.jpg	100
2120.723	1.42	1419.8	generate	Run3	generate/STIM_017.jpg	100
2124.336	1.471	1471.3	generate	Run3	generate/STIM_017.jpg	100
2128.085	1.18	1179.5	generate	Run3	generate/STIM_017.jpg	100
2131.737	1.69	1690.2	generate	Run3	generate/STIM_017.jpg	100
2136.809	1.682	1682.3	generate	Run3	generate/STIM_018.jpg	100
2142.29	1.471	1471.0	generate	Run3	generate/STIM_018.jpg	100
2147.455	1.294	1293.8	generate	Run3	generate/STIM_018.jpg	100
2152.374	1.557	1557.3	generate	Run3	generate/STIM_018.jpg	99
2156.924	2.087	2087.1	generate	Run3	generate/STIM_018.jpg	99
2160.956	2.186	2185.8	generate	Run3	generate/STIM_019.jpg	99
2165.041	1.206	1205.9	generate	Run3	generate/STIM_019.jpg	100
2169.264	2.226	2226.5	generate	Run3	generate/STIM_019.jpg	100
2174.379	1.332	1331.5	generate	Run3	generate/STIM_019.jpg	99
2179.551	2.191	2190.6	generate	Run3	generate/STIM_019.jpg	100
2184.949	1.219	1219.3	generate	Run3	generate/STIM_020.jpg	99
2188.742	1.643	1643.3	generate	Run3	generate/STIM_020.jpg	100
2193.555	0.975	974.6	generate	Run3	generate/STIM_020.jpg	99
2197.818	1.279	1278.6	generate	Run3	generate/STIM_020.jpg	100
2201.005	1.166	1165.9	generate	Run3	generate/STIM_020.jpg	100
2205.414	2.191	2190.8	generate	Run3	generate/STIM_021.jpg	100
2210.34	1.479	1479.1	generate	Run3	generate/STIM_021.jpg	100
2215.597	1.572	1572.4	generate	Run3	generate/STIM_021.jpg	100
2219.371	1.816	1815.8	generate	Run3	generate/STIM_021.jpg	100
2223.8	1.523	1523.3	generate	Run3	generate/STIM_021.jpg	99
2227.715	1.416	1416.5	generate	Run3	generate/STIM_022.jpg	100
2231.38	1.061	1061.2	generate	Run3	generate/STIM_022.jpg	99
2234.432	1.658	1658.2	generate	Run3	generate/STIM_022.jpg	99
2239.721	2.277	2277.0	generate	Run3	generate/STIM_022.jpg	99
2245.117	1.407	1407.3	generate	Run3	generate/STIM_022.jpg	100
2249.9	2.3	2300.4	generate	Run3	generate/STIM_023.jpg	99
2254.586	1.132	1132.3	generate	Run3	generate/STIM_023.jpg	100
2259.266	1.008	1008.2	generate	Run3	generate/STIM_023.jpg	99
2263.623	1.736	1736.4	generate	Run3	generate/STIM_023.jpg	100
2267.605	1.012	1011.5	generate	Run3	generate/STIM_023.jpg	100
2272.458	1.774	1774.0	generate	Run3	generate/STIM_024.jpg	100
2277.378	1.955	1955.3	generate	Run3	generate/STIM_024.jpg	100
2282.2	1.479	1479.1	generate	Run3	generate/STIM_024.jpg	99
2286.288	2.169	2169.2	generate	Run3	generate/STIM_024.jpg	100
2290.917	1.78	1780.3	generate	Run3	generate/STIM_024.jpg	100
2295.11	0.685	685.3	repeat	Run3	repeat/STIM_000.jpg	99
2299.222	1.01	1009.6	repeat	Run3	repeat/STIM_000.jpg	99
2302.325	1.1	1100.5	repeat	Run3	repeat/STIM_000.jpg	99
2305.436	1.115	1115.3	repeat	Run3	repeat/STIM_000.jpg	99
2308.631	0.953	953.2	repeat	Run3	repeat/STIM_000.jpg	99
2312.733	1.033	1033.4	repeat	Run3	repeat/STIM_001.jpg	100
2315.897	0.703	702.9	repeat	Run3	repeat/STIM_001.jpg	99
2319.606	0.603	602.6	repeat	Run3	repeat/STIM_001.jpg	99
2322.218	0.888	888.2	repeat	Run3	repeat/STIM_001.jpg	99
2326.299	1.11	1109.9	repeat	Run3	repeat/STIM_001.jpg	100
2330.287	0.716	715.9	repeat	Run3	repeat/STIM_002.jpg	99
2334.9	0.81	810.0	repeat	Run3	repeat/STIM_002.jpg	100
2338.972	0.72	720.5	repeat	Run3	repeat/STIM_002.jpg	100
2343.068	1.084	1083.5	repeat	Run3	repeat/STIM_002.jpg	99
2346.819	0.627	627.2	repeat	Run3	repeat/STIM_002.jpg	99
2350.881	1.113	1113.2	repeat	Run3	repeat/STIM_003.jpg	99
2355.831	0.994	994.5	repeat	Run3	repeat/STIM_003.jpg	100
2360.404	0.92	919.9	repeat	Run3	repeat/STIM_003.jpg	99
2365.195	0.83	830.4	repeat	Run3	repeat/STIM_003.jpg	100
2369.007	0.92	920.1	repeat	Run3	repeat/STIM_003.jpg	100
2372.221	0.932	931.7	repeat	Run3	repeat/STIM_004.jpg	100
2375.691	0.655	655.4	repeat	Run3	repeat/STIM_004.jpg	100
2379.27	0.601	600.7	repeat	Run3	repeat/STIM_004.jpg	100
2382.001	0.86	859.5	repeat	Run3	repeat/STIM_004.jpg	100
2385.507	0.949	948.7	repeat	Run3	repeat/STIM_004.jpg	100
2388.838	0.911	911.4	repeat	Run3	repeat/STIM_005.jpg	100
2392.822	0.852	852.0	repeat	Run3	repeat/STIM_005.jpg	100
2396.811	0.672	672.5	repeat	Run3	repeat/STIM_005.jpg	99
2401.2	0.692	691.9	repeat	Run3	repeat/STIM_005.jpg	100
2404.568	0.78	779.6	repeat	Run3	repeat/STIM_005.jpg	100
2409.21	0.724	723.6	repeat	Run3	repeat/STIM_006.jpg	99
2412.004	1.078	1077.9	repeat	Run3	repeat/STIM_006.jpg	100
2415.604	1.112	1111.6	repeat	Run3	repeat/STIM_006.jpg	99
2419.696	0.859	859.2	repeat	Run3	repeat/STIM_006.jpg	100
2422.518	0.985	984.8	repeat	Run3	repeat/STIM_006.jpg	99
2427.263	1.096	1095.8	repeat	Run3	repeat/STIM_007.jpg	99
2430.398	1.112	1111.9	repeat	Run3	repeat/STIM_007.jpg	99
2435.109	1.096	1095.6	repeat	Run3	repeat/STIM_007.jpg	100
2438.656	1.026	1025.8	repeat	Run3	repeat/STIM_007.jpg	99
2441.959	0.702	701.6	repeat	Run3	repeat/STIM_007.jpg	100
2446.292	0.979	978.8	repeat	Run3	repeat/STIM_008.jpg	100
2449.528	0.805	805.3	repeat	Run3	repeat/STIM_008.jpg	99
2452.652	1.074	1073.8	repeat	Run3	repeat/STIM_008.jpg	99
2457.106	0.992	992.3	repeat	Run3	repeat/STIM_008.jpg	100
2461.252	0.921	920.9	repeat	Run3	repeat/STIM_008.jpg	100
2465.874	0.729	729.1	repeat	Run3	repeat/STIM_009.jpg	99
2468.839	0.599	599.1	repeat	Run3	repeat/STIM_009.jpg	99
2471.702	0.723	722.6	repeat	Run3	repeat/STIM_009.jpg	100
2476.322	0.842	841.9	repeat	Run3	repeat/STIM_009.jpg	100
2479.913	0.783	783.3	repeat	Run3	repeat/STIM_009.jpg	99
2483.229	0.808	807.7	repeat	Run3	repeat/STIM_010.jpg	100
2487.839	0.77	769.6	repeat	Run3	repeat/STIM_010.jpg	99
2491.714	0.863	863.0	repeat	Run3	repeat/STIM_010.jpg	99
2494.827	0.927	927.0	repeat	Run3	repeat/STIM_010.jpg	100
2498.744	0.563	562.7	repeat	Run3	repeat/STIM_010.jpg	100
2501.673	0.73	730.1	repeat	Run3	repeat/STIM_011.jpg	99
2506.266	0.938	937.7	repeat	Run3	repeat/STIM_011.jpg	100
2510.827	1.021	1020.6	repeat	Run3	repeat/STIM_011.jpg	99
2514.605	0.655	654.6	repeat	Run3	repeat/STIM_011.jpg	99
2517.727	0.887	887.4	repeat	Run3	repeat/STIM_011.jpg	100
2521.758	0.945	945.1	repeat	Run3	repeat/STIM_012.jpg	99
2524.742	1.114	1114.2	repeat	Run3	repeat/STIM_012.jpg	100
2527.906	0.616	615.9	repeat	Run3	repeat/STIM_012.jpg	99
2532.286	0.632	632.2	repeat	Run3	repeat/STIM_012.jpg	100
2535.362	0.637	637.1	repeat	Run3	repeat/STIM_012.jpg	100
2538.605	1.089	1089.3	repeat	Run3	repeat/STIM_013.jpg	99
2542.068	1.0	999.8	repeat	Run3	repeat/STIM_013.jpg	99
2546.493	0.63	629.9	repeat	Run3	repeat/STIM_013.jpg	100
2549.214	0.825	825.2	repeat	Run3	repeat/STIM_013.jpg	100
2553.886	0.783	783.1	repeat	Run3	repeat/STIM_013.jpg	100
2558.045	0.598	598.1	repeat	Run3	repeat/STIM_014.jpg	100
2561.474	0.723	723.0	repeat	Run3	repeat/STIM_014.jpg	100
2565.201	1.03	1029.5	repeat	Run3	repeat/STIM_014.jpg	99
2569.93	0.648	648.5	repeat	Run3	repeat/STIM_014.jpg	100
2574.048	1.105	1105.3	repeat	Run3	repeat/STIM_014.jpg	99
2578.335	1.021	1020.8	generate	Run4	generate/STIM_000.jpg	99
2582.444	2.261	2260.9	generate	Run4	generate/STIM_000.jpg	99
2587.537	0.965	964.8	generate	Run4	generate/STIM_000.jpg	100
2590.613	1.09	1089.9	generate	Run4	generate/STIM_000.jpg	99
2594.582	1.297	1297.3	generate	Run4	generate/STIM_000.jpg	99
2598.944	1.178	1178.4	generate	Run4	generate/STIM_001.jpg	99
2603.006	1.642	1642.4	generate	Run4	generate/STIM_001.jpg	100
2606.909	2.04	2040.0	generate	Run4	generate/STIM_001.jpg	100
2612.008	2.023	2023.1	generate	Run4	generate/STIM_001.jpg	100
2616.92	1.877	1877.0	generate	Run4	generate/STIM_001.jpg	100
2621.39	1.368	1367.5	generate	Run4	generate/STIM_002.jpg	99
2626.451	1.002	1002.5	generate	Run4	generate/STIM_002.jpg	100
2629.918	1.17	1170.1	generate	Run4	generate/STIM_002.jpg	99
2634.451	1.486	1486.4	generate	Run4	generate/STIM_002.jpg	99
2637.858	1.355	1355.1	generate	Run4	generate/STIM_002.jpg	100
2641.26	1.639	1639.3	generate	Run4	generate/STIM_003.jpg	99
2645.053	2.01	2010.0	generate	Run4	generate/STIM_003.jpg	99
2649.87	1.159	1158.6	generate	Run4	generate/STIM_003.jpg	99
2652.974	1.914	1913.7	generate	Run4	generate/STIM_003.jpg	99
2656.785	2.106	2106.2	generate	Run4	generate/STIM_003.jpg	100
2661.085	1.834	1833.5	generate	Run4	generate/STIM_004.jpg	100
2666.437	1.388	1388.5	generate	Run4	generate/STIM_004.jpg	99
2670.736	1.656	1655.9	generate	Run4	generate/STIM_004.jpg	99
2675.392	1.959	1959.0	generate	Run4	generate/STIM_004.jpg	99
2679.322	1.48	1479.8	generate	Run4	generate/STIM_004.jpg	100
2683.059	2.213	2212.9	generate	Run4	generate/STIM_005.jpg	100
2687.819	1.186	1186.1	generate	Run4	generate/STIM_005.jpg	99
2692.303	2.135	2134.7	generate	Run4	generate/STIM_005.jpg	100
2698.186	2.244	2243.8	generate	Run4	generate/STIM_005.jpg	100
2703.519	1.95	1949.7	generate	Run4	generate/STIM_005.jpg	99
2707.362	1.006	1006.4	generate	Run4	generate/STIM_006.jpg	99
2712.118	0.962	962.5	generate	Run4	generate/STIM_006.jpg	100
2715.183	1.681	1681.4	generate	Run4	generate/STIM_006.jpg	99
2718.988	1.17	1170.5	generate	Run4	generate/STIM_006.jpg	99
2722.321	1.026	1025.7	generate	Run4	generate/STIM_006.jpg	100
2726.258	2.258	2257.7	generate	Run4	generate/STIM_007.jpg	99
2731.862	1.861	1861.2	generate	Run4	generate/STIM_007.jpg	100
2737.316	1.903	1903.3	generate	Run4	generate/STIM_007.jpg	99
2742.823	2.26	2259.6	generate	Run4	generate/STIM_007.jpg	99
2748.467	2.333	2332.9	generate	Run4	generate/STIM_007.jpg	99
2753.859	2.153	2153.4	generate	Run4	generate/STIM_008.jpg	100
2759.483	2.053	2052.9	generate	Run4	generate/STIM_008.jpg	100
2765.045	2.288	2288.1	generate	Run4	generate/STIM_008.jpg	100
2769.41	2.142	2142.3	generate	Run4	generate/STIM_008.jpg	99
2774.082	1.039	1038.8	generate	Run4	generate/STIM_008.jpg	99
2777.391	1.21	1210.3	generate	Run4	generate/STIM_009.jpg	100
2781.247	1.227	1226.6	generate	Run4	generate/STIM_009.jpg	99
2786.085	2.318	2318.1	generate	Run4	generate/STIM_009.jpg	100
2791.859	1.494	1493.7	generate	Run4	generate/STIM_009.jpg	100
2795.646	2.042	2042.0	generate	Run4	generate/STIM_009.jpg	100
2800.509	1.314	1313.7	generate	Run4	generate/STIM_010.jpg	100
2803.788	1.861	1860.7	generate	Run4	generate/STIM_010.jpg	100
2807.609	0.978	977.8	generate	Run4	generate/STIM_010.jpg	99
2811.085	1.332	1332.4	generate	Run4	generate/STIM_010.jpg	100
2815.758	1.57	1570.3	generate	Run4	generate/STIM_010.jpg	99
2820.127	1.893	1892.6	generate	Run4	generate/STIM_011.jpg	100
2825.684	1.389	1389.0	generate	Run4	generate/STIM_011.jpg	99
2830.273	1.477	1476.8	generate	Run4	generate/STIM_011.jpg	99
2834.189	2.276	2276.0	generate	Run4	generate/STIM_011.jpg	100
2839.422	1.42	1420.5	generate	Run4	generate/STIM_011.jpg	100
2844.339	1.546	1546.3	generate	Run4	generate/STIM_012.jpg	100
2848.799	1.231	1230.7	generate	Run4	generate/STIM_012.jpg	100
2853.014	1.472	1472.1	generate	Run4	generate/STIM_012.jpg	99
2858.097	1.613	1612.6	generate	Run4	generate/STIM_012.jpg	100
2863.415	2.337	2337.0	generate	Run4	generate/STIM_012.jpg	100
2868.634	1.641	1640.9	generate	Run4	generate/STIM_013.jpg	100
2872.63	1.893	1893.3	generate	Run4	generate/STIM_013.jpg	100
2876.477	1.363	1363.3	generate	Run4	generate/STIM_013.jpg	100
2880.144	1.204	1203.6	generate	Run4	generate/STIM_013.jpg	99
2884.323	2.326	2325.5	generate	Run4	generate/STIM_013.jpg	100
2890.231	2.081	2080.9	generate	Run4	generate/STIM_014.jpg	99
2894.181	2.095	2095.3	generate	Run4	generate/STIM_014.jpg	99
2899.311	1.556	1556.3	generate	Run4	generate/STIM_014.jpg	99
2902.951	1.485	1485.3	generate	Run4	generate/STIM_014.jpg	99
2907.721	2.156	2156.4	generate	Run4	generate/STIM_014.jpg	100
2912.858	1.25	1249.5	generate	Run4	generate/STIM_015.jpg	99
2917.174	1.231	1230.6	generate	Run4	generate/STIM_015.jpg	99
2921.324	1.08	1079.7	generate	Run4	generate/STIM_015.jpg	99
2925.406	1.982	1982.2	generate	Run4	generate/STIM_015.jpg	99
2930.196	1.397	1396.8	generate	Run4	generate/STIM_015.jpg	99
2933.689	1.874	1874.2	generate	Run4	generate/STIM_016.jpg	99
2938.6	1.095	1095.2	generate	Run4	generate/STIM_016.jpg	100
2942.592	1.379	1378.6	generate	Run4	generate/STIM_016.jpg	99
2946.383	1.619	1619.2	generate	Run4	generate/STIM_016.jpg	99
2951.804	1.984	1984.4	generate	Run4	generate/STIM_016.jpg	99
2956.236	2.263	2262.9	generate	Run4	generate/STIM_017.jpg	99
2961.001	0.986	985.7	generate	Run4	generate/STIM_017.jpg	99
2964.583	1.855	1855.4	generate	Run4	generate/STIM_017.jpg	99
2970.155	1.86	1860.4	generate	Run4	generate/STIM_017.jpg	99
2974.121	1.774	1774.5	generate	Run4	generate/STIM_017.jpg	99
2978.762	1.64	1639.8	generate	Run4	generate/STIM_018.jpg	100
2983.893	2.056	2056.1	generate	Run4	generate/STIM_018.jpg	100
2988.919	1.152	1151.9	generate	Run4	generate/STIM_018.jpg	99
2992.156	1.19	1190.4	generate	Run4	generate/STIM_018.jpg	100
2995.239	1.204	1203.6	generate	Run4	generate/STIM_018.jpg	99
2999.321	1.855	1854.7	generate	Run4	generate/STIM_019.jpg	99
3004.906	1.469	1468.7	generate	Run4	generate/STIM_019.jpg	99
3008.917	1.584	1584.2	generate	Run4	generate/STIM_019.jpg	100
3013.56	2.302	2301.5	generate	Run4	generate/STIM_019.jpg	100
3019.564	1.117	1117.0	generate	Run4	generate/STIM_019.jpg	99
3024.202	1.757	1757.4	generate	Run4	generate/STIM_020.jpg	100
3028.792	1.952	1951.7	generate	Run4	generate/STIM_020.jpg	100
3034.271	1.925	1925.4	generate	Run4	generate/STIM_020.jpg	99
3039.976	1.636	1635.8	generate	Run4	generate/STIM_020.jpg	100
3043.63	1.958	1958.1	generate	Run4	generate/STIM_020.jpg	99
3048.85	1.17	1170.2	generate	Run4	generate/STIM_021.jpg	100
3052.161	1.407	1407.2	generate	Run4	generate/STIM_021.jpg	100
3056.95	1.887	1886.6	generate	Run4	generate/STIM_021.jpg	100
3062.615	1.673	1673.3	generate	Run4	generate/STIM_021.jpg	100
3066.667	1.169	1168.7	generate	Run4	generate/STIM_021.jpg	99
3069.73	1.544	1543.9	generate	Run4	generate/STIM_022.jpg	100
3073.189	1.211	1210.8	generate	Run4	generate/STIM_022.jpg	99
3078.244	1.938	1937.9	generate	Run4	generate/STIM_022.jpg	99
3083.617	2.084	2084.0	generate	Run4	generate/STIM_022.jpg	99
3089.272	1.135	1135.1	generate	Run4	generate/STIM_022.jpg	99
3092.354	1.88	1880.3	generate	Run4	generate/STIM_023.jpg	99
3097.666	1.524	1524.3	generate	Run4	generate/STIM_023.jpg	99
3101.865	1.641	1640.7	generate	Run4	generate/STIM_023.jpg	99
3106.867	2.274	2274.2	generate	Run4	generate/STIM_023.jpg	99
3111.504	1.198	1197.7	generate	Run4	generate/STIM_023.jpg	99
3115.868	1.501	1501.0	generate	Run4	generate/STIM_024.jpg	99
3121.088	1.276	1275.5	generate	Run4	generate/STIM_024.jpg	100
3125.053	1.866	1866.0	generate	Run4	generate/STIM_024.jpg	100
3129.181	1.282	1281.7	generate	Run4	generate/STIM_024.jpg	99
3133.038	1.364	1363.6	generate	Run4	generate/STIM_024.jpg	100
3137.923	0.848	848.1	repeat	Run4	repeat/STIM_000.jpg	100
3140.926	1.063	1063.3	repeat	Run4	repeat/STIM_000.jpg	99
3145.683	0.656	655.8	repeat	Run4	repeat/STIM_000.jpg	99
3149.514	1.06	1059.7	repeat	Run4	repeat/STIM_000.jpg	99
3154.059	0.884	883.6	repeat	Run4	repeat/STIM_000.jpg	99
3158.271	0.849	849.3	repeat	Run4	repeat/STIM_001.jpg	99
3161.16	0.82	819.7	repeat	Run4	repeat/STIM_001.jpg	99
3164.622	0.732	731.5	repeat	Run4	repeat/STIM_001.jpg	100
3169.116	0.575	575.0	repeat	Run4	repeat/STIM_001.jpg	100
3173.116	0.691	691.3	repeat	Run4	repeat/STIM_001.jpg	99
3176.793	1.09	1090.5	repeat	Run4	repeat/STIM_002.jpg	99
3181.358	0.698	697.8	repeat	Run4	repeat/STIM_002.jpg	100
3184.254	0.89	890.2	repeat	Run4	repeat/STIM_002.jpg	100
3187.54	0.742	742.3	repeat	Run4	repeat/STIM_002.jpg	100
3190.211	0.892	891.5	repeat	Run4	repeat/STIM_002.jpg	99
3194.315	0.815	814.7	repeat	Run4	repeat/STIM_003.jpg	100
3197.972	0.723	722.8	repeat	Run4	repeat/STIM_003.jpg	100
3200.983	0.79	790.5	repeat	Run4	repeat/STIM_003.jpg	100
3205.064	0.924	923.8	repeat	Run4	repeat/STIM_003.jpg	99
3209.312	1.046	1045.8	repeat	Run4	repeat/STIM_003.jpg	100
3212.986	1.119	1119.4	repeat	Run4	repeat/STIM_004.jpg	100
3217.669	0.93	929.5	repeat	Run4	repeat/STIM_004.jpg	100
3221.659	1.055	1055.1	repeat	Run4	repeat/STIM_004.jpg	100
3225.341	0.758	757.8	repeat	Run4	repeat/STIM_004.jpg	100
3228.569	1.031	1030.9	repeat	Run4	repeat/STIM_004.jpg	100
3233.482	0.889	889.2	repeat	Run4	repeat/STIM_005.jpg	100
3238.088	0.732	732.3	repeat	Run4	repeat/STIM_005.jpg	99
3242.102	1.009	1009.1	repeat	Run4	repeat/STIM_005.jpg	99
3246.936	0.702	701.7	repeat	Run4	repeat/STIM_005.jpg	99
3250.773	1.064	1064.1	repeat	Run4	repeat/STIM_005.jpg	100
3254.457	0.682	682.2	repeat	Run4	repeat/STIM_006.jpg	99
3257.093	0.642	641.6	repeat	Run4	repeat/STIM_006.jpg	100
3260.692	0.823	822.6	repeat	Run4	repeat/STIM_006.jpg	100
3265.236	1.006	1006.2	repeat	Run4	repeat/STIM_006.jpg	99
3269.237	0.712	712.5	repeat	Run4	repeat/STIM_006.jpg	100
3273.148	0.812	811.8	repeat	Run4	repeat/STIM_007.jpg	100
3277.44	0.946	945.7	repeat	Run4	repeat/STIM_007.jpg	100
3280.528	1.055	1054.7	repeat	Run4	repeat/STIM_007.jpg	100
3284.502	0.985	985.2	repeat	Run4	repeat/STIM_007.jpg	99
3288.026	0.942	941.5	repeat	Run4	repeat/STIM_007.jpg	99
3292.747	0.853	852.9	repeat	Run4	repeat/STIM_008.jpg	99
3297.269	0.893	893.0	repeat	Run4	repeat/STIM_008.jpg	100
3301.543	0.759	758.9	repeat	Run4	repeat/STIM_008.jpg	99
3304.975	0.796	796.1	repeat	Run4	repeat/STIM_008.jpg	100
3309.038	0.742	742.1	repeat	Run4	repeat/STIM_008.jpg	100
3313.632	0.912	911.7	repeat	Run4	repeat/STIM_009.jpg	100
3316.472	0.645	644.8	repeat	Run4	repeat/STIM_009.jpg	99
3319.119	0.765	764.9	repeat	Run4	repeat/STIM_009.jpg	100
3322.78	0.638	637.8	repeat	Run4	repeat/STIM_009.jpg	99
3326.857	0.934	933.8	repeat	Run4	repeat/STIM_009.jpg	99
3330.661	0.899	899.4	repeat	Run4	repeat/STIM_010.jpg	99
3334.753	0.61	609.9	repeat	Run4	repeat/STIM_010.jpg	100
3337.998	0.913	913.4	repeat	Run4	repeat/STIM_010.jpg	100
3342.736	0.783	782.7	repeat	Run4	repeat/STIM_010.jpg	100
3345.765	0.988	987.9	repeat	Run4	repeat/STIM_010.jpg	100
3349.64	0.789	789.2	repeat	Run4	repeat/STIM_011.jpg	100
3352.363	0.979	978.9	repeat	Run4	repeat/STIM_011.jpg	100
3355.483	1.036	1036.2	repeat	Run4	repeat/STIM_011.jpg	99
3359.928	0.75	749.9	repeat	Run4	repeat/STIM_011.jpg	99
3363.286	0.62	619.5	repeat	Run4	repeat/STIM_011.jpg	99
3366.236	0.64	640.0	repeat	Run4	repeat/STIM_012.jpg	99
3369.49	0.841	841.2	repeat	Run4	repeat/STIM_012.jpg	100
3372.968	0.629	629.4	repeat	Run4	repeat/STIM_012.jpg	100
3376.983	1.008	1008.0	repeat	Run4	repeat/STIM_012.jpg	99
3381.241	0.601	600.7	repeat	Run4	repeat/STIM_012.jpg	100
3385.155	0.886	885.6	repeat	Run4	repeat/STIM_013.jpg	99
3389.723	0.961	961.4	repeat	Run4	repeat/STIM_013.jpg	100
3393.016	0.859	859.2	repeat	Run4	repeat/STIM_013.jpg	100
3397.062	0.916	915.5	repeat	Run4	repeat/STIM_013.jpg	100
3400.333	0.563	563.1	repeat	Run4	repeat/STIM_013.jpg	100
3403.405	0.822	822.2	repeat	Run4	repeat/STIM_014.jpg	100
3407.38	0.783	783.4	repeat	Run4	repeat/STIM_014.jpg	99
3411.443	0.575	574.9	repeat	Run4	repeat/STIM_014.jpg	100
3415.194	0.601	601.2	repeat	Run4	repeat/STIM_014.jpg	99
3419.189	1.036	1035.5	repeat	Run4	repeat/STIM_014.jpg	100
