onset	duration	response_time_ms	trial_type	learning_stage	stimulus	response_port
0.0	2.731	2730.7	regulate	Run1	regulate/STIM_000.jpg	100
4.973	3.043	3043.4	regulate	Run1	regulate/STIM_000.jpg	99
10.909	1.97	1969.8	regulate	Run1	regulate/STIM_000.jpg	99
16.012	1.396	1396.5	regulate	Run1	regulate/STIM_000.jpg	99
20.249	3.411	3410.6	regulate	Run1	regulate/STIM_001.jpg	100
26.125	2.3	2299.9	regulate	Run1	regulate/STIM_001.jpg	99
32.062	3.052	3052.0	regulate	Run1	regulate/STIM_001.jpg	100
38.527	1.406	1406.4	regulate	Run1	regulate/STIM_001.jpg	99
42.286	3.274	3273.8	regulate	Run1	regulate/STIM_002.jpg	100
49.31	2.922	2921.6	regulate	Run1	regulate/STIM_002.jpg	99
54.452	1.828	1828.5	regulate	Run1	regulate/STIM_002.jpg	99
59.911	2.226	2225.7	regulate	Run1	regulate/STIM_002.jpg	100
65.352	2.732	2731.5	regulate	Run1	regulate/STIM_003.jpg	100
70.074	1.745	1745.0	regulate	Run1	regulate/STIM_003.jpg	99
74.064	2.251	2250.8	regulate	Run1	regulate/STIM_003.jpg	99
78.644	1.34	1339.9	regulate	Run1	regulate/STIM_003.jpg	99
82.553	1.878	1878.1	regulate	Run1	regulate/STIM_004.jpg	99
87.284	3.207	3207.2	regulate	Run1	regulate/STIM_004.jpg	100
93.271	2.253	2253.0	regulate	Run1	regulate/STIM_004.jpg	99
98.64	1.362	1361.5	regulate	Run1	regulate/STIM_004.jpg	99
102.551	2.978	2977.5	regulate	Run1	regulate/STIM_005.jpg	100
108.521	1.943	1942.6	regulate	Run1	regulate/STIM_005.jpg	100
113.229	1.984	1983.6	regulate	Run1	regulate/STIM_005.jpg	99
119.054	2.386	2385.5	regulate	Run1	regulate/STIM_005.jpg	99
124.849	2.002	2002.1	regulate	Run1	regulate/STIM_006.jpg	99
129.841	2.813	2812.7	regulate	Run1	regulate/STIM_006.jpg	99
135.43	2.013	2013.1	regulate	Run1	regulate/STIM_006.jpg	100
140.068	1.3	1299.7	regulate	Run1	regulate/STIM_006.jpg	99
145.27	2.137	2136.6	regulate	Run1	regulate/STIM_007.jpg	99
149.629	2.644	2643.7	regulate	Run1	regulate/STIM_007.jpg	99
155.771	1.776	1775.5	regulate	Run1	regulate/STIM_007.jpg	100
159.718	1.467	1466.9	regulate	Run1	regulate/STIM_007.jpg	99
164.848	3.324	3324.3	regulate	Run1	regulate/STIM_008.jpg	99
170.242	2.75	2750.0	regulate	Run1	regulate/STIM_008.jpg	99
176.103	2.204	2204.5	regulate	Run1	regulate/STIM_008.jpg	99
181.604	2.586	2586.3	regulate	Run1	regulate/STIM_008.jpg	99
186.378	2.206	2205.6	regulate	Run1	regulate/STIM_009.jpg	100
192.436	2.476	2475.5	regulate	Run1	regulate/STIM_009.jpg	100
197.47	2.503	2503.2	regulate	Run1	regulate/STIM_009.jpg	99
203.467	2.506	2505.8	regulate	Run1	regulate/STIM_009.jpg	100
208.321	1.944	1943.9	regulate	Run1	regulate/STIM_010.jpg	99
212.43	1.916	1915.7	regulate	Run1	regulate/STIM_010.jpg	99
217.73	1.644	1644.4	regulate	Run1	regulate/STIM_010.jpg	99
223.208	1.324	1324.5	regulate	Run1	regulate/STIM_010.jpg	99
226.683	2.486	2485.8	regulate	Run1	regulate/STIM_011.jpg	100
232.793	2.608	2608.2	regulate	Run1	regulate/STIM_011.jpg	99
238.69	1.745	1745.4	regulate	Run1	regulate/STIM_011.jpg	100
244.154	2.712	2712.5	regulate	Run1	regulate/STIM_011.jpg	100
250.726	1.627	1627.4	regulate	Run1	regulate/STIM_012.jpg	100
255.563	1.974	1974.4	regulate	Run1	regulate/STIM_012.jpg	100
259.708	2.049	2048.9	regulate	Run1	regulate/STIM_012.jpg	100
265.156	2.9	2900.0	regulate	Run1	regulate/STIM_012.jpg	100
271.282	1.827	1827.3	regulate	Run1	regulate/STIM_013.jpg	100
275.972	2.906	2905.5	regulate	Run1	regulate/STIM_013.jpg	99
282.812	2.648	2648.4	regulate	Run1	regulate/STIM_013.jpg	100
287.976	2.076	2076.2	regulate	Run1	regulate/STIM_013.jpg	100
292.11	3.492	3492.4	regulate	Run1	regulate/STIM_014.jpg	100
298.548	1.568	1568.4	regulate	Run1	regulate/STIM_014.jpg	99
302.927	2.916	2915.6	regulate	Run1	regulate/STIM_014.jpg	100
309.348	2.302	2301.6	regulate	Run1	regulate/STIM_014.jpg	100
315.327	3.041	3041.3	regulate	Run1	regulate/STIM_015.jpg	99
321.333	1.694	1694.5	regulate	Run1	regulate/STIM_015.jpg	100
326.468	2.674	2674.3	regulate	Run1	regulate/STIM_015.jpg	99
331.514	1.684	1684.2	regulate	Run1	regulate/STIM_015.jpg	100
336.299	2.822	2822.3	regulate	Run1	regulate/STIM_016.jpg	99
341.098	1.949	1949.1	regulate	Run1	regulate/STIM_016.jpg	100
346.34	1.824	1824.0	regulate	Run1	regulate/STIM_016.jpg	100
350.923	1.403	1402.9	regulate	Run1	regulate/STIM_016.jpg	100
354.481	2.624	2623.6	regulate	Run1	regulate/STIM_017.jpg	100
360.13	2.591	2591.3	regulate	Run1	regulate/STIM_017.jpg	99
366.237	1.994	1994.1	regulate	Run1	regulate/STIM_017.jpg	100
370.497	2.174	2174.1	regulate	Run1	regulate/STIM_017.jpg	100
375.249	2.275	2275.2	regulate	Run1	regulate/STIM_018.jpg	99
381.474	2.87	2869.5	regulate	Run1	regulate/STIM_018.jpg	99
386.598	1.873	1872.6	regulate	Run1	regulate/STIM_018.jpg	99
391.532	1.854	1853.5	regulate	Run1	regulate/STIM_018.jpg	99
396.183	2.492	2492.5	regulate	Run1	regulate/STIM_019.jpg	99
401.527	2.927	2926.9	regulate	Run1	regulate/STIM_019.jpg	100
406.458	1.693	1692.6	regulate	Run1	regulate/STIM_019.jpg	100
410.256	2.081	2080.7	regulate	Run1	regulate/STIM_019.jpg	100
416.162	3.024	3023.6	regulate	Run1	regulate/STIM_020.jpg	100
421.333	2.88	2879.9	regulate	Run1	regulate/STIM_020.jpg	100
427.284	3.124	3124.5	regulate	Run1	regulate/STIM_020.jpg	100
432.611	2.884	2883.9	regulate	Run1	regulate/STIM_020.jpg	99
439.244	2.969	2969.2	regulate	Run1	regulate/STIM_021.jpg	99
445.277	3.145	3144.8	regulate	Run1	regulate/STIM_021.jpg	100
451.391	1.597	1596.8	regulate	Run1	regulate/STIM_021.jpg	100
455.096	2.121	2120.7	regulate	Run1	regulate/STIM_021.jpg	99
460.583	2.682	2682.4	regulate	Run1	regulate/STIM_022.jpg	100
467.124	1.895	1894.8	regulate	Run1	regulate/STIM_022.jpg	99
471.307	3.12	3119.8	regulate	Run1	regulate/STIM_022.jpg	99
477.94	2.576	2576.4	regulate	Run1	regulate/STIM_022.jpg	99
484.219	2.238	2237.7	regulate	Run1	regulate/STIM_023.jpg	99
489.601	2.411	2410.8	regulate	Run1	regulate/STIM_023.jpg	100
495.268	2.334	2334.5	regulate	Run1	regulate/STIM_023.jpg	100
501.387	2.909	2909.4	regulate	Run1	regulate/STIM_023.jpg	99
507.919	2.956	2956.4	regulate	Run1	regulate/STIM_024.jpg	99
513.924	2.771	2771.4	regulate	Run1	regulate/STIM_024.jpg	100
519.41	2.916	2916.5	regulate	Run1	regulate/STIM_024.jpg	100
524.328	2.354	2354.1	regulate	Run1	regulate/STIM_024.jpg	99
528.82	2.45	2449.9	regulate	Run1	regulate/STIM_025.jpg	99
534.736	3.118	3117.7	regulate	Run1	regulate/STIM_025.jpg	100
541.359	2.252	2251.7	regulate	Run1	regulate/STIM_025.jpg	99
546.885	2.259	2259.0	regulate	Run1	regulate/STIM_025.jpg	99
551.325	1.967	1967.3	regulate	Run1	regulate/STIM_026.jpg	100
557.087	2.977	2977.4	regulate	Run1	regulate/STIM_026.jpg	100
563.709	1.601	1601.0	regulate	Run1	regulate/STIM_026.jpg	99
567.322	1.469	1469.0	regulate	Run1	regulate/STIM_026.jpg	99
571.446	1.815	1814.8	regulate	Run1	regulate/STIM_027.jpg	100
575.566	2.103	2103.4	regulate	Run1	regulate/STIM_027.jpg	99
581.496	2.588	2588.0	regulate	Run1	regulate/STIM_027.jpg	99
586.123	2.388	2388.4	regulate	Run1	regulate/STIM_027.jpg	99
591.025	2.64	2640.4	regulate	Run1	regulate/STIM_028.jpg	99
597.18	2.901	2900.6	regulate	Run1	regulate/STIM_028.jpg	99
603.043	2.761	2760.7	regulate	Run1	regulate/STIM_028.jpg	99
608.126	2.152	2152.3	regulate	Run1	regulate/STIM_028.jpg	99
613.862	1.632	1631.7	regulate	Run1	regulate/STIM_029.jpg	100
618.108	2.788	2788.4	regulate	Run1	regulate/STIM_029.jpg	100
623.197	2.526	2526.5	regulate	Run1	regulate/STIM_029.jpg	100
627.936	2.554	2554.2	regulate	Run1	regulate/STIM_029.jpg	99
634.096	1.542	1541.7	observe	Run1	observe/STIM_000.jpg	99
638.459	0.967	966.8	observe	Run1	observe/STIM_000.jpg	99
642.779	1.357	1356.6	observe	Run1	observe/STIM_000.jpg	100
646.921	0.915	914.9	observe	Run1	observe/STIM_000.jpg	100
649.98	0.96	959.5	observe	Run1	observe/STIM_001.jpg	99
653.874	1.199	1199.2	observe	Run1	observe/STIM_001.jpg	100
658.194	1.124	1124.3	observe	Run1	observe/STIM_001.jpg	100
662.57	1.28	1280.0	observe	Run1	observe/STIM_001.jpg	99
666.451	1.437	1437.4	observe	Run1	observe/STIM_002.jpg	100
671.015	1.33	1330.0	observe	Run1	observe/STIM_002.jpg	99
675.416	1.044	1043.8	observe	Run1	observe/STIM_002.jpg	99
678.624	0.988	988.2	observe	Run1	observe/STIM_002.jpg	100
682.066	1.538	1538.0	observe	Run1	observe/STIM_003.jpg	99
687.303	1.202	1201.7	observe	Run1	observe/STIM_003.jpg	99
690.993	1.021	1021.4	observe	Run1	observe/STIM_003.jpg	99
694.898	0.974	974.0	observe	Run1	observe/STIM_003.jpg	100
699.678	1.06	1059.9	observe	Run1	observe/STIM_004.jpg	99
702.869	1.093	1092.7	observe	Run1	observe/STIM_004.jpg	100
706.882	1.412	1412.5	observe	Run1	observe/STIM_004.jpg	99
711.682	1.355	1355.4	observe	Run1	observe/STIM_004.jpg	99
715.466	1.234	1233.9	observe	Run1	observe/STIM_005.jpg	99
719.778	0.852	851.5	observe	Run1	observe/STIM_005.jpg	99
722.708	1.041	1041.4	observe	Run1	observe/STIM_005.jpg	99
727.28	1.417	1417.3	observe	Run1	observe/STIM_005.jpg	99
732.657	1.492	1492.1	observe	Run1	observe/STIM_006.jpg	99
736.402	1.443	1443.3	observe	Run1	observe/STIM_006.jpg	99
740.652	1.065	1065.1	observe	Run1	observe/STIM_006.jpg	99
745.301	1.415	1415.1	observe	Run1	observe/STIM_006.jpg	99
749.747	1.574	1574.1	observe	Run1	observe/STIM_007.jpg	99
754.072	0.937	937.3	observe	Run1	observe/STIM_007.jpg	99
758.958	0.85	850.0	observe	Run1	observe/STIM_007.jpg	99
762.753	1.081	1081.4	observe	Run1	observe/STIM_007.jpg	100
766.077	0.953	952.7	observe	Run1	observe/STIM_008.jpg	100
769.584	1.535	1534.8	observe	Run1	observe/STIM_008.jpg	100
773.97	0.82	819.8	observe	Run1	observe/STIM_008.jpg	99
777.281	0.911	910.8	observe	Run1	observe/STIM_008.jpg	100
781.217	1.106	1106.4	observe	Run1	observe/STIM_009.jpg	99
784.903	1.018	1017.7	observe	Run1	observe/STIM_009.jpg	100
788.301	0.98	979.6	observe	Run1	observe/STIM_009.jpg	99
792.131	1.42	1419.7	observe	Run1	observe/STIM_009.jpg	100
796.602	1.476	1476.4	observe	Run1	observe/STIM_010.jpg	99
800.532	1.317	1316.8	observe	Run1	observe/STIM_010.jpg	99
804.422	0.815	815.1	observe	Run1	observe/STIM_010.jpg	100
807.637	1.553	1553.4	observe	Run1	observe/STIM_010.jpg	99
811.38	1.304	1303.9	observe	Run1	observe/STIM_011.jpg	100
815.465	1.342	1342.1	observe	Run1	observe/STIM_011.jpg	99
820.481	1.016	1015.5	observe	Run1	observe/STIM_011.jpg	99
823.52	1.254	1253.6	observe	Run1	observe/STIM_011.jpg	99
828.688	0.978	978.1	observe	Run1	observe/STIM_012.jpg	100
833.302	1.246	1246.3	observe	Run1	observe/STIM_012.jpg	99
837.733	1.242	1241.7	observe	Run1	observe/STIM_012.jpg	100
842.136	1.264	1263.5	observe	Run1	observe/STIM_012.jpg	100
845.592	0.97	970.2	observe	Run1	observe/STIM_013.jpg	99
850.149	1.147	1147.2	observe	Run1	observe/STIM_013.jpg	100
853.331	1.172	1172.2	observe	Run1	observe/STIM_013.jpg	99
857.529	0.872	872.3	observe	Run1	observe/STIM_013.jpg	100
860.537	1.272	1271.7	observe	Run1	observe/STIM_014.jpg	99
863.902	1.428	1428.0	observe	Run1	observe/STIM_014.jpg	100
869.194	1.114	1113.8	observe	Run1	observe/STIM_014.jpg	99
873.399	1.211	1210.7	observe	Run1	observe/STIM_014.jpg	99
877.514	1.404	1404.5	observe	Run1	observe/STIM_015.jpg	100
882.721	0.918	918.5	observe	Run1	observe/STIM_015.jpg	100
886.575	1.315	1315.4	observe	Run1	observe/STIM_015.jpg	100
891.437	1.437	1437.1	observe	Run1	observe/STIM_015.jpg	100
895.482	1.118	1118.1	observe	Run1	observe/STIM_016.jpg	100
899.183	1.112	1111.6	observe	Run1	observe/STIM_016.jpg	99
902.738	1.411	1411.1	observe	Run1	observe/STIM_016.jpg	99
906.714	1.088	1088.2	observe	Run1	observe/STIM_016.jpg	100
910.459	1.216	1216.4	observe	Run1	observe/STIM_017.jpg	99
914.018	1.563	1562.7	observe	Run1	observe/STIM_017.jpg	100
918.596	1.044	1044.3	observe	Run1	observe/STIM_017.jpg	100
922.197	1.412	1411.5	observe	Run1	observe/STIM_017.jpg	100
926.349	1.254	1254.1	observe	Run1	observe/STIM_018.jpg	100
930.639	1.392	1391.7	observe	Run1	observe/STIM_018.jpg	99
934.623	1.074	1074.3	observe	Run1	observe/STIM_018.jpg	100
938.604	1.501	1501.3	observe	Run1	observe/STIM_018.jpg	99
942.411	1.606	1605.5	observe	Run1	observe/STIM_019.jpg	99
946.371	1.527	1526.9	observe	Run1	observe/STIM_019.jpg	100
951.767	1.501	1501.1	observe	Run1	observe/STIM_019.jpg	100
956.614	1.563	1563.2	observe	Run1	observe/STIM_019.jpg	99
960.551	1.724	1724.3	regulate	Run2	regulate/STIM_000.jpg	100
964.847	2.709	2709.0	regulate	Run2	regulate/STIM_000.jpg	99
970.642	2.538	2537.9	regulate	Run2	regulate/STIM_000.jpg	100
977.034	1.398	1397.8	regulate	Run2	regulate/STIM_000.jpg	100
980.512	2.459	2458.6	regulate	Run2	regulate/STIM_001.jpg	100
985.779	1.508	1507.6	regulate	Run2	regulate/STIM_001.jpg	100
990.679	1.999	1999.2	regulate	Run2	regulate/STIM_001.jpg	100
995.722	2.204	2203.6	regulate	Run2	regulate/STIM_001.jpg	99
1000.161	1.691	1691.4	regulate	Run2	regulate/STIM_002.jpg	100
1005.537	1.403	1403.4	regulate	Run2	regulate/STIM_002.jpg	100
1009.359	2.049	2049.4	regulate	Run2	regulate/STIM_002.jpg	99
1014.116	1.078	1078.0	regulate	Run2	regulate/STIM_002.jpg	99
1018.298	2.98	2980.4	regulate	Run2	regulate/STIM_003.jpg	99
1023.66	1.989	1988.8	regulate	Run2	regulate/STIM_003.jpg	100
1029.146	1.472	1471.9	regulate	Run2	regulate/STIM_003.jpg	100
1033.098	1.456	1455.7	regulate	Run2	regulate/STIM_003.jpg	100
1036.858	2.643	2642.6	regulate	Run2	regulate/STIM_004.jpg	100
1042.813	1.644	1644.4	regulate	Run2	regulate/STIM_004.jpg	99
1047.915	2.365	2365.3	regulate	Run2	regulate/STIM_004.jpg	99
1053.04	2.302	2301.6	regulate	Run2	regulate/STIM_004.jpg	100
1058.736	1.77	1770.0	regulate	Run2	regulate/STIM_005.jpg	100
1063.075	2.637	2637.4	regulate	Run2	regulate/STIM_005.jpg	100
1067.99	1.563	1562.7	regulate	Run2	regulate/STIM_005.jpg	99
1073.04	2.346	2346.0	regulate	Run2	regulate/STIM_005.jpg	99
1078.611	2.464	2464.5	regulate	Run2	regulate/STIM_006.jpg	99
1084.505	1.452	1452.0	regulate	Run2	regulate/STIM_006.jpg	100
1089.489	1.563	1563.4	regulate	Run2	regulate/STIM_006.jpg	100
1094.994	1.518	1518.4	regulate	Run2	regulate/STIM_006.jpg	100
1099.775	2.909	2909.4	regulate	Run2	regulate/STIM_007.jpg	99
1106.573	1.492	1491.6	regulate	Run2	regulate/STIM_007.jpg	99
1111.51	2.428	2427.9	regulate	Run2	regulate/STIM_007.jpg	99
1117.085	2.105	2104.8	regulate	Run2	regulate/STIM_007.jpg	99
1121.479	2.248	2248.4	regulate	Run2	regulate/STIM_008.jpg	100
1126.065	2.664	2664.0	regulate	Run2	regulate/STIM_008.jpg	100
1131.372	1.607	1606.8	regulate	Run2	regulate/STIM_008.jpg	100
1135.971	1.241	1240.6	regulate	Run2	regulate/STIM_008.jpg	99
1141.19	2.616	2616.0	regulate	Run2	regulate/STIM_009.jpg	99
1146.659	1.745	1744.6	regulate	Run2	regulate/STIM_009.jpg	100
1150.426	1.565	1565.2	regulate	Run2	regulate/STIM_009.jpg	100
1155.164	2.437	2437.1	regulate	Run2	regulate/STIM_009.jpg	99
1161.038	1.371	1371.0	regulate	Run2	regulate/STIM_010.jpg	99
1165.567	2.781	2781.0	regulate	Run2	regulate/STIM_010.jpg	100
1172.21	1.809	1809.4	regulate	Run2	regulate/STIM_010.jpg	100
1177.475	2.406	2405.9	regulate	Run2	regulate/STIM_010.jpg	100
1183.793	1.495	1495.4	regulate	Run2	regulate/STIM_011.jpg	100
1189.069	2.067	2067.2	regulate	Run2	regulate/STIM_011.jpg	100
1193.135	1.177	1177.2	regulate	Run2	regulate/STIM_011.jpg	100
1197.979	1.575	1574.6	regulate	Run2	regulate/STIM_011.jpg	100
1202.881	2.279	2279.3	regulate	Run2	regulate/STIM_012.jpg	99
1207.726	2.793	2793.4	regulate	Run2	regulate/STIM_012.jpg	99
1213.62	1.846	1845.8	regulate	Run2	regulate/STIM_012.jpg	99
1218.014	1.062	1061.6	regulate	Run2	regulate/STIM_012.jpg	99
1221.838	2.929	2929.1	regulate	Run2	regulate/STIM_013.jpg	99
1227.308	1.75	1750.5	regulate	Run2	regulate/STIM_013.jpg	100
1232.59	2.356	2356.3	regulate	Run2	regulate/STIM_013.jpg	99
1237.403	2.292	2292.5	regulate	Run2	regulate/STIM_013.jpg	99
1242.775	2.013	2012.9	regulate	Run2	regulate/STIM_014.jpg	99
1247.073	1.581	1581.1	regulate	Run2	regulate/STIM_014.jpg	100
1251.021	2.228	2228.1	regulate	Run2	regulate/STIM_014.jpg	100
1255.353	1.597	1597.1	regulate	Run2	regulate/STIM_014.jpg	99
1258.937	2.125	2124.6	regulate	Run2	regulate/STIM_015.jpg	100
1264.897	2.182	2182.4	regulate	Run2	regulate/STIM_015.jpg	99
1270.289	2.636	2635.7	regulate	Run2	regulate/STIM_015.jpg	100
1276.057	1.399	1398.8	regulate	Run2	regulate/STIM_015.jpg	100
1280.357	2.772	2772.1	regulate	Run2	regulate/STIM_016.jpg	100
1286.672	1.628	1627.6	regulate	Run2	regulate/STIM_016.jpg	99
1291.044	1.822	1822.4	regulate	Run2	regulate/STIM_016.jpg	99
1296.284	1.817	1817.2	regulate	Run2	regulate/STIM_016.jpg	99
1301.046	1.706	1706.5	regulate	Run2	regulate/STIM_017.jpg	100
1305.057	2.421	2420.7	regulate	Run2	regulate/STIM_017.jpg	100
1310.242	2.376	2376.3	regulate	Run2	regulate/STIM_017.jpg	99
1316.109	1.201	1200.6	regulate	Run2	regulate/STIM_017.jpg	100
1320.79	1.695	1694.7	regulate	Run2	regulate/STIM_018.jpg	100
1325.544	2.629	2628.7	regulate	Run2	regulate/STIM_018.jpg	99
1330.375	1.818	1818.2	regulate	Run2	regulate/STIM_018.jpg	100
1335.939	2.137	2136.6	regulate	Run2	regulate/STIM_018.jpg	99
1341.709	1.476	1475.6	regulate	Run2	regulate/STIM_019.jpg	100
1346.221	2.378	2377.7	regulate	Run2	regulate/STIM_019.jpg	100
1351.845	1.815	1815.1	regulate	Run2	regulate/STIM_019.jpg	99
1356.285	1.622	1622.0	regulate	Run2	regulate/STIM_019.jpg	99
1361.358	2.714	2714.2	regulate	Run2	regulate/STIM_020.jpg	100
1367.356	1.767	1767.3	regulate	Run2	regulate/STIM_020.jpg	99
1372.494	1.178	1178.2	regulate	Run2	regulate/STIM_020.jpg	100
1376.086	1.226	1226.5	regulate	Run2	regulate/STIM_020.jpg	99
1379.788	2.088	2088.5	regulate	Run2	regulate/STIM_021.jpg	99
1384.981	1.606	1605.7	regulate	Run2	regulate/STIM_021.jpg	99
1390.005	1.27	1270.5	regulate	Run2	regulate/STIM_021.jpg	100
1393.65	1.861	1860.7	regulate	Run2	regulate/STIM_021.jpg	99
1398.126	2.858	2857.8	regulate	Run2	regulate/STIM_022.jpg	99
1403.509	1.31	1309.8	regulate	Run2	regulate/STIM_022.jpg	99
1407.853	2.023	2022.9	regulate	Run2	regulate/STIM_022.jpg	100
1412.846	1.646	1645.6	regulate	Run2	regulate/STIM_022.jpg	100
1417.354	1.638	1637.5	regulate	Run2	regulate/STIM_023.jpg	99
1421.907	2.355	2355.1	regulate	Run2	regulate/STIM_023.jpg	99
1426.606	1.773	1772.8	regulate	Run2	regulate/STIM_023.jpg	99
1430.727	1.246	1246.1	regulate	Run2	regulate/STIM_023.jpg	99
1434.345	1.878	1878.2	regulate	Run2	regulate/STIM_024.jpg	99
1440.094	2.03	2030.0	regulate	Run2	regulate/STIM_024.jpg	99
1445.379	2.165	2165.0	regulate	Run2	regulate/STIM_024.jpg	99
1450.763	1.08	1080.2	regulate	Run2	regulate/STIM_024.jpg	100
1455.681	1.586	1585.9	regulate	Run2	regulate/STIM_025.jpg	99
1461.246	2.027	2026.6	regulate	Run2	regulate/STIM_025.jpg	100
1467.035	2.354	2354.2	regulate	Run2	regulate/STIM_025.jpg	100
1472.754	2.423	2423.1	regulate	Run2	regulate/STIM_025.jpg	99
1477.757	1.482	1482.4	regulate	Run2	regulate/STIM_026.jpg	99
1482.623	1.799	1798.7	regulate	Run2	regulate/STIM_026.jpg	99
1487.914	2.382	2381.6	regulate	Run2	regulate/STIM_026.jpg	100
1494.244	1.222	1221.7	regulate	Run2	regulate/STIM_026.jpg	100
1498.261	1.943	1943.0	regulate	Run2	regulate/STIM_027.jpg	100
1504.012	1.537	1536.8	regulate	Run2	regulate/STIM_027.jpg	99
1507.748	1.724	1723.9	regulate	Run2	regulate/STIM_027.jpg	99
1512.113	2.166	2165.7	regulate	Run2	regulate/STIM_027.jpg	99
1516.672	1.531	1531.1	regulate	Run2	regulate/STIM_028.jpg	100
1520.964	2.395	2395.4	regulate	Run2	regulate/STIM_028.jpg	99
1526.212	1.389	1388.9	regulate	Run2	regulate/STIM_028.jpg	99
1530.068	1.421	1420.6	regulate	Run2	regulate/STIM_028.jpg	100
1533.632	2.77	2770.4	regulate	Run2	regulate/STIM_029.jpg	99
1538.913	2.814	2813.9	regulate	Run2	regulate/STIM_029.jpg	100
1543.926	1.49	1490.2	regulate	Run2	regulate/STIM_029.jpg	100
1548.198	1.272	1272.2	regulate	Run2	regulate/STIM_029.jpg	99
1552.707	1.2	1200.4	observe	Run2	observe/STIM_000.jpg	100
1557.156	0.937	936.7	observe	Run2	observe/STIM_000.jpg	100
1560.414	1.095	1094.8	observe	Run2	observe/STIM_000.jpg	99
1564.72	0.863	863.4	observe	Run2	observe/STIM_000.jpg	100
1569.393	1.124	1123.9	observe	Run2	observe/STIM_001.jpg	99
1572.898	0.992	991.7	observe	Run2	observe/STIM_001.jpg	99
1576.714	0.894	894.5	observe	Run2	observe/STIM_001.jpg	100
1581.364	1.343	1343.1	observe	Run2	observe/STIM_001.jpg	99
1584.76	1.359	1359.3	observe	Run2	observe/STIM_002.jpg	99
1588.584	0.941	940.7	observe	Run2	observe/STIM_002.jpg	100
1592.27	1.615	1615.2	observe	Run2	observe/STIM_002.jpg	99
1596.066	1.106	1106.1	observe	Run2	observe/STIM_002.jpg	99
1599.961	1.281	1281.2	observe	Run2	observe/STIM_003.jpg	100
1604.271	1.587	1586.8	observe	Run2	observe/STIM_003.jpg	100
1608.133	1.123	1123.2	observe	Run2	observe/STIM_003.jpg	100
1613.107	1.066	1066.1	observe	Run2	observe/STIM_003.jpg	100
1616.969	1.252	1251.5	observe	Run2	observe/STIM_004.jpg	100
1622.046	1.408	1408.2	observe	Run2	observe/STIM_004.jpg	99
1626.281	1.534	1534.1	observe	Run2	observe/STIM_004.jpg	99
1631.088	1.543	1542.6	observe	Run2	observe/STIM_004.jpg	100
1636.056	1.571	1571.4	observe	Run2	observe/STIM_005.jpg	99
1640.253	0.891	891.2	observe	Run2	observe/STIM_005.jpg	99
1644.679	0.862	862.1	observe	Run2	observe/STIM_005.jpg	100
1648.759	1.419	1418.8	observe	Run2	observe/STIM_005.jpg	99
1653.897	0.872	871.9	observe	Run2	observe/STIM_006.jpg	100
1656.773	1.26	1260.4	observe	Run2	observe/STIM_006.jpg	99
1661.362	0.908	908.4	observe	Run2	observe/STIM_006.jpg	100
1664.984	1.323	1323.1	observe	Run2	observe/STIM_006.jpg	100
1668.642	1.202	1201.5	observe	Run2	observe/STIM_007.jpg	99
1672.475	1.177	1177.1	observe	Run2	observe/STIM_007.jpg	100
1676.575	1.312	1311.9	observe	Run2	observe/STIM_007.jpg	100
1680.029	0.812	812.3	observe	Run2	observe/STIM_007.jpg	99
1683.249	0.818	818.1	observe	Run2	observe/STIM_008.jpg	100
1686.073	1.014	1013.6	observe	Run2	observe/STIM_008.jpg	100
1690.742	1.545	1544.6	observe	Run2	observe/STIM_008.jpg	99
1694.529	1.55	1550.1	observe	Run2	observe/STIM_008.jpg	100
1699.465	1.482	1482.4	observe	Run2	observe/STIM_009.jpg	99
1704.432	0.901	901.1	observe	Run2	observe/STIM_009.jpg	100
1707.829	0.873	873.1	observe	Run2	observe/STIM_009.jpg	99
1712.584	1.463	1462.9	observe	Run2	observe/STIM_009.jpg	99
1716.097	1.235	1234.8	observe	Run2	observe/STIM_010.jpg	99
1720.736	1.358	1357.5	observe	Run2	observe/STIM_010.jpg	99
1724.627	0.969	968.8	observe	Run2	observe/STIM_010.jpg	100
1727.659	0.944	944.5	observe	Run2	observe/STIM_010.jpg	99
1732.194	0.968	967.6	observe	Run2	observe/STIM_011.jpg	99
1735.249	1.221	1220.6	observe	Run2	observe/STIM_011.jpg	99
1739.87	0.978	977.8	observe	Run2	observe/STIM_011.jpg	99
1744.481	1.55	1550.3	observe	Run2	observe/STIM_011.jpg	99
1748.031	1.402	1402.3	observe	Run2	observe/STIM_012.jpg	99
1752.147	0.982	981.5	observe	Run2	observe/STIM_012.jpg	100
1756.44	1.553	1552.6	observe	Run2	observe/STIM_012.jpg	99
1761.83	1.519	1519.3	observe	Run2	observe/STIM_012.jpg	99
1765.429	0.927	926.8	observe	Run2	observe/STIM_013.jpg	100
1768.448	1.36	1360.0	observe	Run2	observe/STIM_013.jpg	99
1773.159	1.608	1608.4	observe	Run2	observe/STIM_013.jpg	100
1777.236	1.154	1154.5	observe	Run2	observe/STIM_013.jpg	99
1780.468	1.2	1199.7	observe	Run2	observe/STIM_014.jpg	100
1785.57	1.302	1302.2	observe	Run2	observe/STIM_014.jpg	100
1788.991	1.093	1093.3	observe	Run2	observe/STIM_014.jpg	99
1794.05	1.469	1469.2	observe	Run2	observe/STIM_014.jpg	99
1798.375	1.494	1494.1	observe	Run2	observe/STIM_015.jpg	100
1803.353	1.304	1303.9	observe	Run2	observe/STIM_015.jpg	100
1808.301	1.394	1394.0	observe	Run2	observe/STIM_015.jpg	100
1811.731	1.199	1198.9	observe	Run2	observe/STIM_015.jpg	99
1816.71	1.159	1158.7	observe	Run2	observe/STIM_016.jpg	100
1821.01	1.467	1466.9	observe	Run2	observe/STIM_016.jpg	100
1824.865	0.816	815.7	observe	Run2	observe/STIM_016.jpg	99
1827.836	0.962	961.8	observe	Run2	observe/STIM_016.jpg	100
1831.742	1.447	1446.9	observe	Run2	observe/STIM_017.jpg	100
1836.142	1.559	1558.8	observe	Run2	observe/STIM_017.jpg	100
1840.354	0.979	978.7	observe	Run2	observe/STIM_017.jpg	100
1844.05	1.052	1051.8	observe	Run2	observe/STIM_017.jpg	100
1847.444	1.568	1567.5	observe	Run2	observe/STIM_018.jpg	99
1851.113	1.059	1059.3	observe	Run2	observe/STIM_018.jpg	99
1855.154	0.865	864.9	observe	Run2	observe/STIM_018.jpg	99
1858.888	0.844	844.4	observe	Run2	observe/STIM_018.jpg	99
1862.227	1.049	1049.2	observe	Run2	observe/STIM_019.jpg	100
1866.025	0.97	969.9	observe	Run2	observe/STIM_019.jpg	100
1870.891	1.018	1017.8	observe	Run2	observe/STIM_019.jpg	100
1874.316	1.347	1346.7	observe	Run2	observe/STIM_019.jpg	100
1878.554	2.234	2234.1	regulate	Run3	regulate/STIM_000.jpg	100
1883.829	1.237	1237.2	regulate	Run3	regulate/STIM_000.jpg	99
1887.851	1.367	1366.9	regulate	Run3	regulate/STIM_000.jpg	99
1892.669	1.312	1311.8	regulate	Run3	regulate/STIM_000.jpg	100
1897.363	1.976	1975.9	regulate	Run3	regulate/STIM_001.jpg	99
1901.669	1.205	1204.6	regulate	Run3	regulate/STIM_001.jpg	99
1905.275	1.679	1678.7	regulate	Run3	regulate/STIM_001.jpg	99
1909.787	2.155	2154.8	regulate	Run3	regulate/STIM_001.jpg	99
1915.88	1.167	1166.6	regulate	Run3	regulate/STIM_002.jpg	99
1919.789	2.282	2281.9	regulate	Run3	regulate/STIM_002.jpg	99
1925.18	1.621	1621.0	regulate	Run3	regulate/STIM_002.jpg	99
1930.418	1.411	1411.1	regulate	Run3	regulate/STIM_002.jpg	100
1934.266	1.437	1437.0	regulate	Run3	regulate/STIM_003.jpg	99
1939.135	1.908	1907.9	regulate	Run3	regulate/STIM_003.jpg	100
1944.557	1.959	1958.9	regulate	Run3	regulate/STIM_003.jpg	100
1949.444	2.324	2324.0	regulate	Run3	regulate/STIM_003.jpg	100
1955.412	1.966	1965.8	regulate	Run3	regulate/STIM_004.jpg	99
1960.646	1.56	1559.6	regulate	Run3	regulate/STIM_004.jpg	99
1964.716	1.214	1213.5	regulate	Run3	regulate/STIM_004.jpg	99
1969.205	1.97	1970.0	regulate	Run3	regulate/STIM_004.jpg	100
1974.101	2.175	2175.3	regulate	Run3	regulate/STIM_005.jpg	100
1979.569	2.24	2240.5	regulate	Run3	regulate/STIM_005.jpg	100
1984.353	1.481	1481.3	regulate	Run3	regulate/STIM_005.jpg	100
1988.797	1.3	1300.0	regulate	Run3	regulate/STIM_005.jpg	99
1993.507	1.895	1895.3	regulate	Run3	regulate/STIM_006.jpg	100
1997.541	2.015	2014.7	regulate	Run3	regulate/STIM_006.jpg	99
2003.509	2.414	2413.7	regulate	Run3	regulate/STIM_006.jpg	100
2009.103	2.245	2244.6	regulate	Run3	regulate/STIM_006.jpg	99
2014.937	1.69	1690.2	regulate	Run3	regulate/STIM_007.jpg	100
2020.483	1.989	1989.4	regulate	Run3	regulate/STIM_007.jpg	100
2025.468	2.093	2092.7	regulate	Run3	regulate/STIM_007.jpg	100
2031.107	1.278	1277.9	regulate	Run3	regulate/STIM_007.jpg	99
2035.533	1.927	1926.8	regulate	Run3	regulate/STIM_008.jpg	100
2039.683	1.805	1804.6	regulate	Run3	regulate/STIM_008.jpg	99
2044.285	2.198	2198.1	regulate	Run3	regulate/STIM_008.jpg	99
2049.399	2.258	2258.2	regulate	Run3	regulate/STIM_008.jpg	99
2054.264	2.444	2443.8	regulate	Run3	regulate/STIM_009.jpg	99
2059.571	1.163	1162.6	regulate	Run3	regulate/STIM_009.jpg	99
2063.142	1.348	1348.5	regulate	Run3	regulate/STIM_009.jpg	99
2067.943	2.43	2430.2	regulate	Run3	regulate/STIM_009.jpg	99
2072.96	2.066	2066.5	regulate	Run3	regulate/STIM_010.jpg	100
2077.312	1.894	1894.3	regulate	Run3	regulate/STIM_010.jpg	99
2082.317	1.445	1445.2	regulate	Run3	regulate/STIM_010.jpg	99
2085.792	1.519	1518.6	regulate	Run3	regulate/STIM_010.jpg	99
2090.388	1.168	1167.8	regulate	Run3	regulate/STIM_011.jpg	99
2095.314	1.182	1181.9	regulate	Run3	regulate/STIM_011.jpg	99
2099.137	1.172	1171.6	regulate	Run3	regulate/STIM_011.jpg	100
2103.403	1.313	1313.2	regulate	Run3	regulate/STIM_011.jpg	99
2107.733	1.233	1232.8	regulate	Run3	regulate/STIM_012.jpg	99
2111.833	2.356	2356.4	regulate	Run3	regulate/STIM_012.jpg	100
2116.697	1.778	1777.6	regulate	Run3	regulate/STIM_012.jpg	100
2120.881	1.346	1346.3	regulate	Run3	regulate/STIM_012.jpg	100
2126.159	2.421	2421.3	regulate	Run3	regulate/STIM_013.jpg	100
2131.123	2.24	2239.5	regulate	Run3	regulate/STIM_013.jpg	99
2137.169	1.418	1417.5	regulate	Run3	regulate/STIM_013.jpg	99
2141.02	1.808	1808.4	regulate	Run3	regulate/STIM_013.jpg	100
2146.434	2.17	2170.4	regulate	Run3	regulate/STIM_014.jpg	99
2152.548	2.264	2263.5	regulate	Run3	regulate/STIM_014.jpg	99
2157.076	2.032	2032.0	regulate	Run3	regulate/STIM_014.jpg	99
2162.336	1.286	1286.1	regulate	Run3	regulate/STIM_014.jpg	99
2167.119	1.937	1937.0	regulate	Run3	regulate/STIM_015.jpg	99
2171.691	2.03	2030.4	regulate	Run3	regulate/STIM_015.jpg	99
2176.414	1.716	1715.5	regulate	Run3	regulate/STIM_015.jpg	100
2180.285	1.941	1941.4	regulate	Run3	regulate/STIM_015.jpg	100
2186.199	1.26	1260.2	regulate	Run3	regulate/STIM_016.jpg	99
2191.346	1.982	1982.5	regulate	Run3	regulate/STIM_016.jpg	99
2195.72	1.57	1570.5	regulate	Run3	regulate/STIM_016.jpg	99
2200.38	1.193	1192.8	regulate	Run3	regulate/STIM_016.jpg	99
2205.298	1.3	1299.5	regulate	Run3	regulate/STIM_017.jpg	99
2210.419	1.427	1427.2	regulate	Run3	regulate/STIM_017.jpg	99
2214.235	2.018	2017.9	regulate	Run3	regulate/STIM_017.jpg	100
2219.673	1.929	1928.7	regulate	Run3	regulate/STIM_017.jpg	100
2225.329	1.832	1831.5	regulate	Run3	regulate/STIM_018.jpg	100
2230.122	2.186	2186.2	regulate	Run3	regulate/STIM_018.jpg	100
2235.349	2.352	2351.7	regulate	Run3	regulate/STIM_018.jpg	100
2240.226	1.884	1883.6	regulate	Run3	regulate/STIM_018.jpg	100
2245.274	1.88	1879.5	regulate	Run3	regulate/STIM_019.jpg	99
2249.724	1.13	1130.4	regulate	Run3	regulate/STIM_019.jpg	99
2254.29	1.693	1693.0	regulate	Run3	regulate/STIM_019.jpg	100
2258.685	1.825	1825.2	regulate	Run3	regulate/STIM_019.jpg	100
2263.601	2.104	2104.5	regulate	Run3	regulate/STIM_020.jpg	100
2269.117	2.267	2267.2	regulate	Run3	regulate/STIM_020.jpg	100
2273.513	1.863	1862.8	regulate	Run3	regulate/STIM_020.jpg	100
2278.957	1.346	1345.5	regulate	Run3	regulate/STIM_020.jpg	99
2282.851	2.358	2358.3	regulate	Run3	regulate/STIM_021.jpg	100
2287.704	1.502	1502.4	regulate	Run3	regulate/STIM_021.jpg	100
2292.948	1.923	1923.4	regulate	Run3	regulate/STIM_021.jpg	99
2297.811	1.539	1538.6	regulate	Run3	regulate/STIM_021.jpg	99
2302.25	2.417	2417.4	regulate	Run3	regulate/STIM_022.jpg	100
2307.792	1.966	1965.8	regulate	Run3	regulate/STIM_022.jpg	100
2312.811	2.186	2185.8	regulate	Run3	regulate/STIM_022.jpg	99
2318.03	1.861	1861.4	regulate	Run3	regulate/STIM_022.jpg	100
2323.651	1.345	1344.7	regulate	Run3	regulate/STIM_023.jpg	100
2327.012	1.462	1461.9	regulate	Run3	regulate/STIM_023.jpg	99
2332.312	1.272	1272.5	regulate	Run3	regulate/STIM_023.jpg	100
2337.466	1.166	1166.0	regulate	Run3	regulate/STIM_023.jpg	99
2341.802	2.151	2150.8	regulate	Run3	regulate/STIM_024.jpg	100
2346.824	1.297	1296.8	regulate	Run3	regulate/STIM_024.jpg	99
2350.545	1.236	1236.4	regulate	Run3	regulate/STIM_024.jpg	100
2354.455	1.102	1101.8	regulate	Run3	regulate/STIM_024.jpg	100
2357.6	1.499	1499.2	regulate	Run3	regulate/STIM_025.jpg	99
2361.341	1.742	1742.0	regulate	Run3	regulate/STIM_025.jpg	99
2365.123	2.322	2322.0	regulate	Run3	regulate/STIM_025.jpg	100
2370.926	2.101	2101.1	regulate	Run3	regulate/STIM_025.jpg	99
2376.856	1.56	1560.2	regulate	Run3	regulate/STIM_026.jpg	100
2380.914	1.584	1584.4	regulate	Run3	regulate/STIM_026.jpg	100
2385.525	1.791	1791.2	regulate	Run3	regulate/STIM_026.jpg	100
2390.099	1.604	1603.8	regulate	Run3	regulate/STIM_026.jpg	99
2394.984	1.613	1613.3	regulate	Run3	regulate/STIM_027.jpg	99
2399.819	2.459	2459.0	regulate	Run3	regulate/STIM_027.jpg	99
2405.321	1.596	1595.9	regulate	Run3	regulate/STIM_027.jpg	99
2409.743	1.698	1698.2	regulate	Run3	regulate/STIM_027.jpg	99
2415.149	2.078	2077.7	regulate	Run3	regulate/STIM_028.jpg	100
2420.824	1.2	1200.1	regulate	Run3	regulate/STIM_028.jpg	100
2425.518	2.023	2022.9	regulate	Run3	regulate/STIM_028.jpg	100
2431.146	1.746	1745.9	regulate	Run3	regulate/STIM_028.jpg	100
2436.867	1.568	1568.0	regulate	Run3	regulate/STIM_029.jpg	99
2440.605	2.281	2281.2	regulate	Run3	regulate/STIM_029.jpg	99
2446.419	1.256	1256.1	regulate	Run3	regulate/STIM_029.jpg	100
2450.615	2.375	2374.9	regulate	Run3	regulate/STIM_029.jpg	100
2456.629	1.214	1214.5	observe	Run3	observe/STIM_000.jpg	100
2460.362	0.858	857.9	observe	Run3	observe/STIM_000.jpg	99
2463.579	1.303	1302.8	observe	Run3	observe/STIM_000.jpg	100
2468.426	1.276	1276.1	observe	Run3	observe/STIM_000.jpg	100
2472.044	0.928	928.3	observe	Run3	observe/STIM_001.jpg	100
2476.716	1.152	1152.0	observe	Run3	observe/STIM_001.jpg	99
2480.35	0.838	838.3	observe	Run3	observe/STIM_001.jpg	99
2484.914	1.174	1173.6	observe	Run3	observe/STIM_001.jpg	100
2488.135	1.441	1441.0	observe	Run3	observe/STIM_002.jpg	99
2491.775	1.29	1290.4	observe	Run3	observe/STIM_002.jpg	99
2495.209	0.835	835.1	observe	Run3	observe/STIM_002.jpg	100
2499.481	0.993	993.4	observe	Run3	observe/STIM_002.jpg	100
2503.595	1.094	1093.9	observe	Run3	observe/STIM_003.jpg	99
2507.027	1.437	1436.8	observe	Run3	observe/STIM_003.jpg	100
2511.877	1.236	1235.8	observe	Run3	observe/STIM_003.jpg	100
2516.405	1.276	1275.6	observe	Run3	observe/STIM_003.jpg	100
2520.745	0.983	983.2	observe	Run3	observe/STIM_004.jpg	100
2524.704	1.129	1129.2	observe	Run3	observe/STIM_004.jpg	99
2528.993	1.461	1460.7	observe	Run3	observe/STIM_004.jpg	99
2533.484	1.497	1496.7	observe	Run3	observe/STIM_004.jpg	99
2538.428	1.262	1262.0	observe	Run3	observe/STIM_005.jpg	99
2543.548	1.036	1035.8	observe	Run3	observe/STIM_005.jpg	99
2548.302	1.412	1411.5	observe	Run3	observe/STIM_005.jpg	100
2552.615	0.874	874.3	observe	Run3	observe/STIM_005.jpg	100
2555.927	1.44	1440.0	observe	Run3	observe/STIM_006.jpg	99
2560.318	1.327	1327.0	observe	Run3	observe/STIM_006.jpg	99
2564.845	0.913	912.6	observe	Run3	observe/STIM_006.jpg	99
2569.734	1.052	1051.9	observe	Run3	observe/STIM_006.jpg	99
2572.994	1.333	1332.6	observe	Run3	observe/STIM_007.jpg	100
2578.279	0.953	953.0	observe	Run3	observe/STIM_007.jpg	99
2582.382	1.261	1261.3	observe	Run3	observe/STIM_007.jpg	99
2585.685	0.883	883.1	observe	Run3	observe/STIM_007.jpg	99
2588.969	1.544	1543.8	observe	Run3	observe/STIM_008.jpg	99
2592.721	1.495	1495.0	observe	Run3	observe/STIM_008.jpg	99
2596.809	1.506	1505.6	observe	Run3	observe/STIM_008.jpg	100
2601.497	1.381	1380.8	observe	Run3	observe/STIM_008.jpg	99
2605.265	1.429	1428.7	observe	Run3	observe/STIM_009.jpg	100
2610.024	0.974	974.3	observe	Run3	observe/STIM_009.jpg	99
2613.1	1.593	1593.4	observe	Run3	observe/STIM_009.jpg	100
2616.924	0.987	986.9	observe	Run3	observe/STIM_009.jpg	99
2621.717	1.456	1456.3	observe	Run3	observe/STIM_010.jpg	99
2625.21	0.857	856.8	observe	Run3	observe/STIM_010.jpg	99
2629.738	1.485	1484.9	observe	Run3	observe/STIM_010.jpg	99
2633.451	1.216	1216.2	observe	Run3	observe/STIM_010.jpg	99
2638.156	1.151	1150.8	observe	Run3	observe/STIM_011.jpg	100
2641.978	1.449	1448.8	observe	Run3	observe/STIM_011.jpg	99
2645.503	1.04	1039.6	observe	Run3	observe/STIM_011.jpg	100
2648.572	0.918	917.8	observe	Run3	observe/STIM_011.jpg	99
2651.622	1.058	1058.2	observe	Run3	observe/STIM_012.jpg	99
2656.548	1.501	1500.9	observe	Run3	observe/STIM_012.jpg	99
2661.246	1.0	1000.1	observe	Run3	observe/STIM_012.jpg	99
2665.111	1.339	1339.3	observe	Run3	observe/STIM_012.jpg	99
2669.145	1.056	1056.4	observe	Run3	observe/STIM_013.jpg	100
2673.738	1.603	1602.6	observe	Run3	observe/STIM_013.jpg	99
2677.408	0.924	924.5	observe	Run3	observe/STIM_013.jpg	99
2681.862	1.069	1069.1	observe	Run3	observe/STIM_013.jpg	100
2685.221	0.848	847.7	observe	Run3	observe/STIM_014.jpg	100
2689.974	1.174	1174.4	observe	Run3	observe/STIM_014.jpg	100
2693.784	0.891	890.6	observe	Run3	observe/STIM_014.jpg	100
2697.817	1.278	1278.3	observe	Run3	observe/STIM_014.jpg	99
2702.077	1.072	1072.4	observe	Run3	observe/STIM_015.jpg	99
2705.556	1.56	1560.0	observe	Run3	observe/STIM_015.jpg	100
2709.174	1.594	1593.6	observe	Run3	observe/STIM_015.jpg	99
2713.03	0.908	907.8	observe	Run3	observe/STIM_015.jpg	100
2715.959	1.547	1547.3	observe	Run3	observe/STIM_016.jpg	100
2720.016	1.308	1307.9	observe	Run3	observe/STIM_016.jpg	99
2723.355	1.284	1283.5	observe	Run3	observe/STIM_016.jpg	99
2728.319	1.493	1493.4	observe	Run3	observe/STIM_016.jpg	100
2732.065	0.954	954.0	observe	Run3	observe/STIM_017.jpg	100
2736.049	1.275	1275.4	observe	Run3	observe/STIM_017.jpg	100
2741.266	1.324	1324.3	observe	Run3	observe/STIM_017.jpg	100
2744.588	1.436	1435.7	observe	Run3	observe/STIM_017.jpg	99
2748.377	1.024	1024.5	observe	Run3	observe/STIM_018.jpg	99
2752.35	1.154	1153.6	observe	Run3	observe/STIM_018.jpg	99
2756.35	0.823	822.8	observe	Run3	observe/STIM_018.jpg	100
2760.85	1.386	1386.5	observe	Run3	observe/STIM_018.jpg	99
2765.03	1.566	1565.6	observe	Run3	observe/STIM_019.jpg	100
2770.241	1.225	1225.1	observe	Run3	observe/STIM_019.jpg	100
2773.696	1.431	1431.1	observe	Run3	observe/STIM_019.jpg	100
2777.684	1.057	1056.6	observe	Run3	observe/STIM_019.jpg	100
