onset	duration	response_time_ms	trial_type	learning_stage	stimulus	response_port
0.0	0.814	813.5	incongruent	Block1	incongruent/STIM_000.jpg	100
3.435	1.226	1226.2	incongruent	Block1	incongruent/STIM_000.jpg	99
6.895	1.005	1005.1	incongruent	Block1	incongruent/STIM_000.jpg	100
10.908	1.162	1161.8	incongruent	Block1	incongruent/STIM_000.jpg	99
14.965	0.988	987.9	incongruent	Block1	incongruent/STIM_000.jpg	99
18.097	1.378	1378.5	incongruent	Block1	incongruent/STIM_001.jpg	100
22.516	0.713	713.2	incongruent	Block1	incongruent/STIM_001.jpg	100
25.922	1.071	1071.2	incongruent	Block1	incongruent/STIM_001.jpg	99
30.202	0.956	956.1	incongruent	Block1	incongruent/STIM_001.jpg	100
34.098	0.969	969.1	incongruent	Block1	incongruent/STIM_001.jpg	99
38.902	0.801	800.7	incongruent	Block1	incongruent/STIM_002.jpg	100
42.163	0.788	787.8	incongruent	Block1	incongruent/STIM_002.jpg	100
46.396	0.75	750.3	incongruent	Block1	incongruent/STIM_002.jpg	99
51.077	1.142	1142.3	incongruent	Block1	incongruent/STIM_002.jpg	100
54.64	0.882	881.6	incongruent	Block1	incongruent/STIM_002.jpg	99
57.655	0.98	979.6	incongruent	Block1	incongruent/STIM_003.jpg	100
61.555	0.84	840.4	incongruent	Block1	incongruent/STIM_003.jpg	100
65.481	1.072	1072.5	incongruent	Block1	incongruent/STIM_003.jpg	100
69.798	0.978	977.8	incongruent	Block1	incongruent/STIM_003.jpg	100
73.746	0.931	931.3	incongruent	Block1	incongruent/STIM_003.jpg	99
78.58	1.247	1247.2	incongruent	Block1	incongruent/STIM_004.jpg	100
83.704	0.799	799.3	incongruent	Block1	incongruent/STIM_004.jpg	100
86.914	1.131	1131.2	incongruent	Block1	incongruent/STIM_004.jpg	99
92.108	0.814	814.2	incongruent	Block1	incongruent/STIM_004.jpg	99
96.39	0.621	620.9	incongruent	Block1	incongruent/STIM_004.jpg	99
99.547	1.297	1297.3	incongruent	Block1	incongruent/STIM_005.jpg	100
103.75	1.11	1110.5	incongruent	Block1	incongruent/STIM_005.jpg	99
107.99	0.746	746.2	incongruent	Block1	incongruent/STIM_005.jpg	99
110.85	0.829	828.6	incongruent	Block1	incongruent/STIM_005.jpg	99
114.248	0.532	531.6	incongruent	Block1	incongruent/STIM_005.jpg	100
117.944	0.936	935.7	incongruent	Block1	incongruent/STIM_006.jpg	99
121.612	1.056	1055.7	incongruent	Block1	incongruent/STIM_006.jpg	100
126.088	1.228	1228.1	incongruent	Block1	incongruent/STIM_006.jpg	100
129.714	0.65	649.5	incongruent	Block1	incongruent/STIM_006.jpg	99
133.748	1.06	1060.0	incongruent	Block1	incongruent/STIM_006.jpg	99
138.882	0.759	759.3	incongruent	Block1	incongruent/STIM_007.jpg	99
143.077	1.225	1225.3	incongruent	Block1	incongruent/STIM_007.jpg	100
148.062	0.828	827.5	incongruent	Block1	incongruent/STIM_007.jpg	100
151.954	0.706	705.8	incongruent	Block1	incongruent/STIM_007.jpg	99
155.767	1.048	1047.8	incongruent	Block1	incongruent/STIM_007.jpg	100
160.365	1.032	1032.5	incongruent	Block1	incongruent/STIM_008.jpg	100
165.078	1.075	1075.3	incongruent	Block1	incongruent/STIM_008.jpg	99
169.815	0.732	732.3	incongruent	Block1	incongruent/STIM_008.jpg	100
172.902	1.095	1095.3	incongruent	Block1	incongruent/STIM_008.jpg	99
176.747	0.522	522.4	incongruent	Block1	incongruent/STIM_008.jpg	100
179.741	0.775	775.1	incongruent	Block1	incongruent/STIM_009.jpg	100
184.156	1.146	1145.5	incongruent	Block1	incongruent/STIM_009.jpg	99
188.919	1.151	1150.8	incongruent	Block1	incongruent/STIM_009.jpg	99
193.567	1.108	1108.1	incongruent	Block1	incongruent/STIM_009.jpg	99
198.294	1.089	1089.2	incongruent	Block1	incongruent/STIM_009.jpg	99
202.051	1.088	1087.6	incongruent	Block1	incongruent/STIM_010.jpg	100
207.048	0.702	701.6	incongruent	Block1	incongruent/STIM_010.jpg	99
209.928	0.621	620.9	incongruent	Block1	incongruent/STIM_010.jpg	99
213.601	0.77	769.9	incongruent	Block1	incongruent/STIM_010.jpg	100
216.901	0.676	675.5	incongruent	Block1	incongruent/STIM_010.jpg	100
220.17	0.813	813.0	incongruent	Block1	incongruent/STIM_011.jpg	99
224.097	0.666	666.3	incongruent	Block1	incongruent/STIM_011.jpg	99
228.654	0.775	774.7	incongruent	Block1	incongruent/STIM_011.jpg	99
232.468	1.08	1080.4	incongruent	Block1	incongruent/STIM_011.jpg	99
237.134	0.638	638.5	incongruent	Block1	incongruent/STIM_011.jpg	100
241.145	1.153	1153.0	incongruent	Block1	incongruent/STIM_012.jpg	100
244.966	1.067	1067.4	incongruent	Block1	incongruent/STIM_012.jpg	99
249.399	0.865	865.2	incongruent	Block1	incongruent/STIM_012.jpg	100
252.556	0.608	608.0	incongruent	Block1	incongruent/STIM_012.jpg	100
255.264	0.917	916.8	incongruent	Block1	incongruent/STIM_012.jpg	100
259.437	1.117	1117.1	incongruent	Block1	incongruent/STIM_013.jpg	99
263.774	1.18	1179.6	incongruent	Block1	incongruent/STIM_013.jpg	100
267.615	0.678	678.1	incongruent	Block1	incongruent/STIM_013.jpg	100
272.08	1.118	1118.1	incongruent	Block1	incongruent/STIM_013.jpg	100
275.751	0.777	777.2	incongruent	Block1	incongruent/STIM_013.jpg	99
279.52	0.752	752.0	incongruent	Block1	incongruent/STIM_014.jpg	100
283.914	1.093	1092.6	incongruent	Block1	incongruent/STIM_014.jpg	100
287.944	1.173	1173.3	incongruent	Block1	incongruent/STIM_014.jpg	99
291.684	0.961	961.2	incongruent	Block1	incongruent/STIM_014.jpg	100
296.643	0.663	663.0	incongruent	Block1	incongruent/STIM_014.jpg	99
300.283	1.37	1370.5	incongruent	Block1	incongruent/STIM_015.jpg	100
304.319	1.233	1232.7	incongruent	Block1	incongruent/STIM_015.jpg	100
308.076	1.17	1170.3	incongruent	Block1	incongruent/STIM_015.jpg	100
312.433	1.082	1082.1	incongruent	Block1	incongruent/STIM_015.jpg	99
315.982	0.946	946.1	incongruent	Block1	incongruent/STIM_015.jpg	99
319.856	0.952	952.1	incongruent	Block1	incongruent/STIM_016.jpg	100
323.961	0.623	623.4	incongruent	Block1	incongruent/STIM_016.jpg	99
327.537	0.695	694.9	incongruent	Block1	incongruent/STIM_016.jpg	100
330.988	1.154	1154.0	incongruent	Block1	incongruent/STIM_016.jpg	100
335.699	0.746	745.7	incongruent	Block1	incongruent/STIM_016.jpg	99
338.758	0.822	822.3	incongruent	Block1	incongruent/STIM_017.jpg	100
343.35	0.66	659.6	incongruent	Block1	incongruent/STIM_017.jpg	100
347.663	0.602	602.0	incongruent	Block1	incongruent/STIM_017.jpg	99
350.74	0.591	590.7	incongruent	Block1	incongruent/STIM_017.jpg	99
354.769	0.773	773.2	incongruent	Block1	incongruent/STIM_017.jpg	100
359.202	0.707	707.3	incongruent	Block1	incongruent/STIM_018.jpg	100
363.801	0.693	693.1	incongruent	Block1	incongruent/STIM_018.jpg	99
368.368	1.24	1239.6	incongruent	Block1	incongruent/STIM_018.jpg	99
372.593	1.096	1095.7	incongruent	Block1	incongruent/STIM_018.jpg	100
377.621	0.746	745.8	incongruent	Block1	incongruent/STIM_018.jpg	100
381.722	0.833	833.2	incongruent	Block1	incongruent/STIM_019.jpg	99
385.505	1.082	1081.6	incongruent	Block1	incongruent/STIM_019.jpg	99
390.593	1.106	1105.9	incongruent	Block1	incongruent/STIM_019.jpg	99
395.609	1.008	1008.2	incongruent	Block1	incongruent/STIM_019.jpg	100
399.965	0.883	883.0	incongruent	Block1	incongruent/STIM_019.jpg	100
404.275	0.668	667.5	incongruent	Block1	incongruent/STIM_020.jpg	100
407.861	0.803	802.6	incongruent	Block1	incongruent/STIM_020.jpg	100
411.955	0.92	919.6	incongruent	Block1	incongruent/STIM_020.jpg	100
415.935	0.854	854.0	incongruent	Block1	incongruent/STIM_020.jpg	100
420.577	0.61	609.8	incongruent	Block1	incongruent/STIM_020.jpg	99
423.428	1.369	1368.9	incongruent	Block1	incongruent/STIM_021.jpg	99
427.747	1.297	1297.3	incongruent	Block1	incongruent/STIM_021.jpg	100
432.28	0.659	658.7	incongruent	Block1	incongruent/STIM_021.jpg	100
435.124	1.089	1089.4	incongruent	Block1	incongruent/STIM_021.jpg	100
438.588	0.534	533.8	incongruent	Block1	incongruent/STIM_021.jpg	100
442.878	0.681	681.4	incongruent	Block1	incongruent/STIM_022.jpg	100
446.543	0.944	943.7	incongruent	Block1	incongruent/STIM_022.jpg	99
449.717	0.764	763.7	incongruent	Block1	incongruent/STIM_022.jpg	100
453.74	0.811	811.0	incongruent	Block1	incongruent/STIM_022.jpg	100
457.797	0.525	524.8	incongruent	Block1	incongruent/STIM_022.jpg	99
462.186	1.186	1186.1	incongruent	Block1	incongruent/STIM_023.jpg	99
466.957	1.226	1225.8	incongruent	Block1	incongruent/STIM_023.jpg	99
471.916	1.065	1065.0	incongruent	Block1	incongruent/STIM_023.jpg	99
476.014	1.153	1153.3	incongruent	Block1	incongruent/STIM_023.jpg	99
480.477	0.892	892.3	incongruent	Block1	incongruent/STIM_023.jpg	99
485.065	1.146	1145.8	incongruent	Block1	incongruent/STIM_024.jpg	100
488.375	0.669	669.1	incongruent	Block1	incongruent/STIM_024.jpg	99
491.582	0.682	682.5	incongruent	Block1	incongruent/STIM_024.jpg	100
495.989	0.924	924.1	incongruent	Block1	incongruent/STIM_024.jpg	100
499.313	0.986	985.9	incongruent	Block1	incongruent/STIM_024.jpg	99
502.634	1.247	1247.0	incongruent	Block1	incongruent/STIM_025.jpg	99
506.328	1.151	1150.6	incongruent	Block1	incongruent/STIM_025.jpg	99
510.885	0.907	907.3	incongruent	Block1	incongruent/STIM_025.jpg	100
514.292	0.98	980.5	incongruent	Block1	incongruent/STIM_025.jpg	100
517.985	1.11	1109.7	incongruent	Block1	incongruent/STIM_025.jpg	99
522.799	0.729	728.8	incongruent	Block1	incongruent/STIM_026.jpg	99
527.189	0.991	990.9	incongruent	Block1	incongruent/STIM_026.jpg	100
531.828	1.133	1133.2	incongruent	Block1	incongruent/STIM_026.jpg	99
536.284	0.746	746.1	incongruent	Block1	incongruent/STIM_026.jpg	99
539.527	0.759	759.0	incongruent	Block1	incongruent/STIM_026.jpg	100
543.083	1.011	1011.4	incongruent	Block1	incongruent/STIM_027.jpg	99
547.984	1.163	1162.6	incongruent	Block1	incongruent/STIM_027.jpg	99
551.359	1.227	1226.6	incongruent	Block1	incongruent/STIM_027.jpg	100
555.425	0.727	726.6	incongruent	Block1	incongruent/STIM_027.jpg	99
559.024	0.616	616.5	incongruent	Block1	incongruent/STIM_027.jpg	100
563.379	1.014	1014.1	incongruent	Block1	incongruent/STIM_028.jpg	99
568.026	0.742	741.9	incongruent	Block1	incongruent/STIM_028.jpg	99
571.406	0.725	724.8	incongruent	Block1	incongruent/STIM_028.jpg	100
575.114	0.828	827.7	incongruent	Block1	incongruent/STIM_028.jpg	99
579.329	0.63	630.4	incongruent	Block1	incongruent/STIM_028.jpg	100
582.438	1.044	1043.6	incongruent	Block1	incongruent/STIM_029.jpg	99
586.581	1.211	1211.2	incongruent	Block1	incongruent/STIM_029.jpg	100
591.349	0.733	732.8	incongruent	Block1	incongruent/STIM_029.jpg	100
594.372	1.12	1119.8	incongruent	Block1	incongruent/STIM_029.jpg	100
597.735	1.053	1052.6	incongruent	Block1	incongruent/STIM_029.jpg	100
602.41	0.52	519.5	congruent	Block1	congruent/STIM_000.jpg	99
606.568	0.624	623.6	congruent	Block1	congruent/STIM_000.jpg	99
610.697	0.814	813.8	congruent	Block1	congruent/STIM_000.jpg	99
613.886	0.534	533.5	congruent	Block1	congruent/STIM_000.jpg	99
617.84	0.678	677.5	congruent	Block1	congruent/STIM_000.jpg	100
620.83	0.564	563.9	congruent	Block1	congruent/STIM_001.jpg	100
625.049	0.52	520.4	congruent	Block1	congruent/STIM_001.jpg	99
627.647	0.61	609.8	congruent	Block1	congruent/STIM_001.jpg	100
631.673	0.571	570.9	congruent	Block1	congruent/STIM_001.jpg	100
635.278	0.64	639.6	congruent	Block1	congruent/STIM_001.jpg	99
639.391	0.707	707.4	congruent	Block1	congruent/STIM_002.jpg	100
644.043	0.685	685.2	congruent	Block1	congruent/STIM_002.jpg	99
648.257	0.622	621.7	congruent	Block1	congruent/STIM_002.jpg	99
652.859	0.819	819.1	congruent	Block1	congruent/STIM_002.jpg	99
655.876	0.628	628.3	congruent	Block1	congruent/STIM_002.jpg	100
659.73	0.597	597.2	congruent	Block1	congruent/STIM_003.jpg	99
662.447	0.576	575.5	congruent	Block1	congruent/STIM_003.jpg	100
665.988	0.617	616.7	congruent	Block1	congruent/STIM_003.jpg	100
669.988	0.693	692.6	congruent	Block1	congruent/STIM_003.jpg	100
673.968	0.736	736.5	congruent	Block1	congruent/STIM_003.jpg	99
678.233	0.577	576.8	congruent	Block1	congruent/STIM_004.jpg	99
681.634	0.73	729.9	congruent	Block1	congruent/STIM_004.jpg	100
684.657	0.627	626.8	congruent	Block1	congruent/STIM_004.jpg	99
688.191	0.469	469.4	congruent	Block1	congruent/STIM_004.jpg	100
692.076	0.622	622.4	congruent	Block1	congruent/STIM_004.jpg	100
696.179	0.626	625.8	congruent	Block1	congruent/STIM_005.jpg	100
700.34	0.62	619.6	congruent	Block1	congruent/STIM_005.jpg	99
704.223	0.766	765.5	congruent	Block1	congruent/STIM_005.jpg	100
708.165	0.528	528.2	congruent	Block1	congruent/STIM_005.jpg	99
710.821	0.789	788.8	congruent	Block1	congruent/STIM_005.jpg	99
714.697	0.502	502.1	congruent	Block1	congruent/STIM_006.jpg	100
719.144	0.695	694.9	congruent	Block1	congruent/STIM_006.jpg	100
723.47	0.699	699.0	congruent	Block1	congruent/STIM_006.jpg	99
727.613	0.56	560.1	congruent	Block1	congruent/STIM_006.jpg	100
732.109	0.615	614.6	congruent	Block1	congruent/STIM_006.jpg	99
735.7	0.688	687.6	congruent	Block1	congruent/STIM_007.jpg	99
739.172	0.62	620.5	congruent	Block1	congruent/STIM_007.jpg	100
743.478	0.731	731.3	congruent	Block1	congruent/STIM_007.jpg	99
747.532	0.604	603.8	congruent	Block1	congruent/STIM_007.jpg	99
751.704	0.547	547.1	congruent	Block1	congruent/STIM_007.jpg	99
754.456	0.482	482.5	congruent	Block1	congruent/STIM_008.jpg	100
758.213	0.788	788.1	congruent	Block1	congruent/STIM_008.jpg	100
761.093	0.564	564.1	congruent	Block1	congruent/STIM_008.jpg	100
765.244	0.671	670.7	congruent	Block1	congruent/STIM_008.jpg	99
769.767	0.758	758.4	congruent	Block1	congruent/STIM_008.jpg	99
774.082	0.803	803.4	congruent	Block1	congruent/STIM_009.jpg	99
778.71	0.526	526.5	congruent	Block1	congruent/STIM_009.jpg	100
782.278	0.764	764.2	congruent	Block1	congruent/STIM_009.jpg	100
785.329	0.826	825.6	congruent	Block1	congruent/STIM_009.jpg	99
789.813	0.802	801.5	congruent	Block1	congruent/STIM_009.jpg	100
792.888	0.59	590.5	congruent	Block1	congruent/STIM_010.jpg	100
795.786	0.654	653.5	congruent	Block1	congruent/STIM_010.jpg	100
798.927	0.628	628.2	congruent	Block1	congruent/STIM_010.jpg	100
802.926	0.634	634.2	congruent	Block1	congruent/STIM_010.jpg	100
806.338	0.528	527.6	congruent	Block1	congruent/STIM_010.jpg	100
809.299	0.475	475.4	congruent	Block1	congruent/STIM_011.jpg	100
812.852	0.498	497.5	congruent	Block1	congruent/STIM_011.jpg	100
817.348	0.597	597.1	congruent	Block1	congruent/STIM_011.jpg	100
821.44	0.567	567.2	congruent	Block1	congruent/STIM_011.jpg	100
825.082	0.73	730.4	congruent	Block1	congruent/STIM_011.jpg	100
829.147	0.737	736.8	congruent	Block1	congruent/STIM_012.jpg	100
833.011	0.8	799.6	congruent	Block1	congruent/STIM_012.jpg	100
837.29	0.598	598.5	congruent	Block1	congruent/STIM_012.jpg	100
841.347	0.806	806.4	congruent	Block1	congruent/STIM_012.jpg	99
845.03	0.828	827.6	congruent	Block1	congruent/STIM_012.jpg	99
848.123	0.533	533.1	congruent	Block1	congruent/STIM_013.jpg	100
851.704	0.473	473.0	congruent	Block1	congruent/STIM_013.jpg	100
855.592	0.778	778.1	congruent	Block1	congruent/STIM_013.jpg	99
859.844	0.836	835.8	congruent	Block1	congruent/STIM_013.jpg	99
864.478	0.642	641.7	congruent	Block1	congruent/STIM_013.jpg	100
867.605	0.593	592.6	congruent	Block1	congruent/STIM_014.jpg	99
871.894	0.631	630.9	congruent	Block1	congruent/STIM_014.jpg	100
874.726	0.579	578.9	congruent	Block1	congruent/STIM_014.jpg	99
878.093	0.467	467.2	congruent	Block1	congruent/STIM_014.jpg	100
880.941	0.634	634.2	congruent	Block1	congruent/STIM_014.jpg	99
885.394	0.627	627.3	congruent	Block1	congruent/STIM_015.jpg	100
888.603	0.761	760.6	congruent	Block1	congruent/STIM_015.jpg	99
893.273	0.562	561.6	congruent	Block1	congruent/STIM_015.jpg	99
897.186	0.666	666.4	congruent	Block1	congruent/STIM_015.jpg	99
900.119	0.833	833.1	congruent	Block1	congruent/STIM_015.jpg	100
903.536	0.802	802.4	congruent	Block1	congruent/STIM_016.jpg	99
906.962	0.594	593.9	congruent	Block1	congruent/STIM_016.jpg	99
909.799	0.527	527.1	congruent	Block1	congruent/STIM_016.jpg	100
912.596	0.586	586.4	congruent	Block1	congruent/STIM_016.jpg	99
915.973	0.817	817.1	congruent	Block1	congruent/STIM_016.jpg	99
920.646	0.554	553.8	congruent	Block1	congruent/STIM_017.jpg	100
924.787	0.64	639.7	congruent	Block1	congruent/STIM_017.jpg	99
928.109	0.756	755.6	congruent	Block1	congruent/STIM_017.jpg	99
931.041	0.549	549.4	congruent	Block1	congruent/STIM_017.jpg	99
935.099	0.552	552.5	congruent	Block1	congruent/STIM_017.jpg	100
938.013	0.757	757.1	congruent	Block1	congruent/STIM_018.jpg	99
941.057	0.798	798.1	congruent	Block1	congruent/STIM_018.jpg	99
944.394	0.491	490.9	congruent	Block1	congruent/STIM_018.jpg	100
948.362	0.766	766.3	congruent	Block1	congruent/STIM_018.jpg	99
952.129	0.568	567.9	congruent	Block1	congruent/STIM_018.jpg	99
954.835	0.582	582.3	congruent	Block1	congruent/STIM_019.jpg	100
957.613	0.748	748.0	congruent	Block1	congruent/STIM_019.jpg	100
961.379	0.788	788.3	congruent	Block1	congruent/STIM_019.jpg	99
966.121	0.657	656.6	congruent	Block1	congruent/STIM_019.jpg	99
969.321	0.721	721.2	congruent	Block1	congruent/STIM_019.jpg	99
973.213	0.744	743.8	congruent	Block1	congruent/STIM_020.jpg	99
977.446	0.747	747.4	congruent	Block1	congruent/STIM_020.jpg	99
980.893	0.759	759.0	congruent	Block1	congruent/STIM_020.jpg	100
984.916	0.496	496.2	congruent	Block1	congruent/STIM_020.jpg	99
988.323	0.743	742.8	congruent	Block1	congruent/STIM_020.jpg	99
991.507	0.5	500.2	congruent	Block1	congruent/STIM_021.jpg	99
994.264	0.552	552.4	congruent	Block1	congruent/STIM_021.jpg	99
997.749	0.739	738.8	congruent	Block1	congruent/STIM_021.jpg	100
1001.514	0.805	804.7	congruent	Block1	congruent/STIM_021.jpg	100
1005.543	0.582	582.1	congruent	Block1	congruent/STIM_021.jpg	100
1009.993	0.751	751.2	congruent	Block1	congruent/STIM_022.jpg	99
1013.755	0.766	766.3	congruent	Block1	congruent/STIM_022.jpg	99
1018.143	0.551	551.0	congruent	Block1	congruent/STIM_022.jpg	99
1022.051	0.609	609.2	congruent	Block1	congruent/STIM_022.jpg	99
1026.571	0.687	687.2	congruent	Block1	congruent/STIM_022.jpg	99
1030.359	0.645	644.6	congruent	Block1	congruent/STIM_023.jpg	99
1033.803	0.815	815.0	congruent	Block1	congruent/STIM_023.jpg	99
1037.006	0.675	675.4	congruent	Block1	congruent/STIM_023.jpg	100
1041.255	0.664	664.3	congruent	Block1	congruent/STIM_023.jpg	100
1045.502	0.617	617.0	congruent	Block1	congruent/STIM_023.jpg	99
1050.002	0.743	743.4	congruent	Block1	congruent/STIM_024.jpg	99
1054.393	0.718	718.2	congruent	Block1	congruent/STIM_024.jpg	100
1058.424	0.672	672.1	congruent	Block1	congruent/STIM_024.jpg	100
1062.224	0.56	560.0	congruent	Block1	congruent/STIM_024.jpg	100
1065.57	0.746	745.6	congruent	Block1	congruent/STIM_024.jpg	100
1069.47	0.601	601.2	congruent	Block1	congruent/STIM_025.jpg	99
1073.605	0.561	561.4	congruent	Block1	congruent/STIM_025.jpg	100
1076.856	0.806	806.5	congruent	Block1	congruent/STIM_025.jpg	100
1081.02	0.609	608.9	congruent	Block1	congruent/STIM_025.jpg	99
1085.164	0.564	563.8	congruent	Block1	congruent/STIM_025.jpg	100
1088.979	0.582	582.1	congruent	Block1	congruent/STIM_026.jpg	99
1092.795	0.686	685.5	congruent	Block1	congruent/STIM_026.jpg	100
1096.047	0.622	622.5	congruent	Block1	congruent/STIM_026.jpg	100
1099.06	0.748	747.5	congruent	Block1	congruent/STIM_026.jpg	99
1102.765	0.67	669.7	congruent	Block1	congruent/STIM_026.jpg	99
1105.804	0.709	709.1	congruent	Block1	congruent/STIM_027.jpg	100
1110.149	0.804	804.1	congruent	Block1	congruent/STIM_027.jpg	99
1114.748	0.622	622.3	congruent	Block1	congruent/STIM_027.jpg	99
1118.966	0.539	539.0	congruent	Block1	congruent/STIM_027.jpg	99
1122.509	0.498	497.5	congruent	Block1	congruent/STIM_027.jpg	100
1126.841	0.471	471.0	congruent	Block1	congruent/STIM_028.jpg	100
1131.155	0.559	559.0	congruent	Block1	congruent/STIM_028.jpg	100
1135.24	0.779	779.0	congruent	Block1	congruent/STIM_028.jpg	100
1139.944	0.756	756.2	congruent	Block1	congruent/STIM_028.jpg	100
1143.034	0.595	594.7	congruent	Block1	congruent/STIM_028.jpg	100
1146.987	0.603	603.2	congruent	Block1	congruent/STIM_029.jpg	99
1151.29	0.469	469.0	congruent	Block1	congruent/STIM_029.jpg	99
1153.986	0.799	798.6	congruent	Block1	congruent/STIM_029.jpg	100
1157.735	0.82	820.3	congruent	Block1	congruent/STIM_029.jpg	99
1161.485	0.826	825.9	congruent	Block1	congruent/STIM_029.jpg	100
1165.67	0.74	739.9	incongruent	Block2	incongruent/STIM_000.jpg	99
1170.043	0.695	694.8	incongruent	Block2	incongruent/STIM_000.jpg	100
1173.316	0.764	763.8	incongruent	Block2	incongruent/STIM_000.jpg	99
1177.033	0.836	835.6	incongruent	Block2	incongruent/STIM_000.jpg	99
1180.614	0.484	484.5	incongruent	Block2	incongruent/STIM_000.jpg	99
1183.532	0.681	680.7	incongruent	Block2	incongruent/STIM_001.jpg	99
1188.238	0.62	619.5	incongruent	Block2	incongruent/STIM_001.jpg	99
1192.897	0.554	554.5	incongruent	Block2	incongruent/STIM_001.jpg	100
1196.129	0.84	840.1	incongruent	Block2	incongruent/STIM_001.jpg	99
1200.941	0.466	466.1	incongruent	Block2	incongruent/STIM_001.jpg	99
1205.167	0.742	741.6	incongruent	Block2	incongruent/STIM_002.jpg	99
1208.084	1.095	1095.4	incongruent	Block2	incongruent/STIM_002.jpg	100
1212.853	0.932	932.0	incongruent	Block2	incongruent/STIM_002.jpg	99
1216.695	0.865	865.0	incongruent	Block2	incongruent/STIM_002.jpg	100
1221.014	0.754	754.3	incongruent	Block2	incongruent/STIM_002.jpg	99
1223.856	1.006	1005.9	incongruent	Block2	incongruent/STIM_003.jpg	100
1227.03	0.956	956.3	incongruent	Block2	incongruent/STIM_003.jpg	100
1230.897	0.518	518.5	incongruent	Block2	incongruent/STIM_003.jpg	100
1234.644	0.599	599.3	incongruent	Block2	incongruent/STIM_003.jpg	100
1238.91	0.755	754.9	incongruent	Block2	incongruent/STIM_003.jpg	100
1241.832	1.12	1119.6	incongruent	Block2	incongruent/STIM_004.jpg	99
1245.193	1.103	1103.2	incongruent	Block2	incongruent/STIM_004.jpg	100
1249.004	0.962	961.7	incongruent	Block2	incongruent/STIM_004.jpg	100
1252.067	0.908	908.0	incongruent	Block2	incongruent/STIM_004.jpg	99
1256.917	0.822	822.3	incongruent	Block2	incongruent/STIM_004.jpg	99
1260.276	0.894	893.8	incongruent	Block2	incongruent/STIM_005.jpg	99
1264.173	0.947	947.4	incongruent	Block2	incongruent/STIM_005.jpg	99
1268.874	0.518	517.8	incongruent	Block2	incongruent/STIM_005.jpg	100
1272.449	0.543	543.1	incongruent	Block2	incongruent/STIM_005.jpg	99
1275.633	0.828	828.0	incongruent	Block2	incongruent/STIM_005.jpg	100
1279.821	0.741	741.1	incongruent	Block2	incongruent/STIM_006.jpg	99
1283.886	0.674	673.6	incongruent	Block2	incongruent/STIM_006.jpg	100
1288.142	0.614	614.3	incongruent	Block2	incongruent/STIM_006.jpg	100
1292.336	0.805	805.2	incongruent	Block2	incongruent/STIM_006.jpg	100
1296.101	0.639	638.6	incongruent	Block2	incongruent/STIM_006.jpg	99
1300.73	0.586	585.5	incongruent	Block2	incongruent/STIM_007.jpg	99
1304.055	1.089	1088.6	incongruent	Block2	incongruent/STIM_007.jpg	100
1307.582	0.615	614.9	incongruent	Block2	incongruent/STIM_007.jpg	100
1310.693	0.648	647.6	incongruent	Block2	incongruent/STIM_007.jpg	99
1314.312	0.651	651.0	incongruent	Block2	incongruent/STIM_007.jpg	100
1317.09	0.632	631.7	incongruent	Block2	incongruent/STIM_008.jpg	99
1320.258	0.643	643.2	incongruent	Block2	incongruent/STIM_008.jpg	99
1324.594	0.968	968.5	incongruent	Block2	incongruent/STIM_008.jpg	99
1327.637	0.811	811.0	incongruent	Block2	incongruent/STIM_008.jpg	99
1330.611	0.764	763.5	incongruent	Block2	incongruent/STIM_008.jpg	99
1333.596	0.556	555.9	incongruent	Block2	incongruent/STIM_009.jpg	100
1338.047	0.804	804.2	incongruent	Block2	incongruent/STIM_009.jpg	100
1342.896	0.782	782.4	incongruent	Block2	incongruent/STIM_009.jpg	99
1346.648	0.504	504.0	incongruent	Block2	incongruent/STIM_009.jpg	99
1350.982	0.597	597.4	incongruent	Block2	incongruent/STIM_009.jpg	99
1355.458	0.864	863.6	incongruent	Block2	incongruent/STIM_010.jpg	99
1359.823	0.642	642.4	incongruent	Block2	incongruent/STIM_010.jpg	99
1362.528	0.997	997.2	incongruent	Block2	incongruent/STIM_010.jpg	100
1367.172	0.918	917.5	incongruent	Block2	incongruent/STIM_010.jpg	99
1370.653	0.678	678.0	incongruent	Block2	incongruent/STIM_010.jpg	100
1375.243	0.902	902.5	incongruent	Block2	incongruent/STIM_011.jpg	99
1379.053	0.902	901.8	incongruent	Block2	incongruent/STIM_011.jpg	99
1384.016	0.931	931.3	incongruent	Block2	incongruent/STIM_011.jpg	100
1388.602	0.69	690.3	incongruent	Block2	incongruent/STIM_011.jpg	99
1391.882	0.541	541.2	incongruent	Block2	incongruent/STIM_011.jpg	99
1394.52	0.583	582.8	incongruent	Block2	incongruent/STIM_012.jpg	100
1398.188	0.641	641.3	incongruent	Block2	incongruent/STIM_012.jpg	100
1401.569	0.852	852.0	incongruent	Block2	incongruent/STIM_012.jpg	99
1405.091	0.54	540.1	incongruent	Block2	incongruent/STIM_012.jpg	100
1409.636	0.781	780.9	incongruent	Block2	incongruent/STIM_012.jpg	100
1413.619	0.564	564.1	incongruent	Block2	incongruent/STIM_013.jpg	100
1416.938	0.94	939.8	incongruent	Block2	incongruent/STIM_013.jpg	99
1420.653	0.683	682.8	incongruent	Block2	incongruent/STIM_013.jpg	100
1423.516	0.851	851.4	incongruent	Block2	incongruent/STIM_013.jpg	99
1428.111	0.609	608.8	incongruent	Block2	incongruent/STIM_013.jpg	100
1431.183	0.977	977.4	incongruent	Block2	incongruent/STIM_014.jpg	100
1435.618	1.008	1008.2	incongruent	Block2	incongruent/STIM_014.jpg	100
1439.338	0.823	822.8	incongruent	Block2	incongruent/STIM_014.jpg	99
1442.73	0.931	931.1	incongruent	Block2	incongruent/STIM_014.jpg	100
1447.366	0.554	554.4	incongruent	Block2	incongruent/STIM_014.jpg	100
1450.224	1.142	1142.3	incongruent	Block2	incongruent/STIM_015.jpg	100
1453.787	0.706	706.0	incongruent	Block2	incongruent/STIM_015.jpg	100
1457.641	0.933	932.8	incongruent	Block2	incongruent/STIM_015.jpg	100
1460.979	0.673	673.1	incongruent	Block2	incongruent/STIM_015.jpg	100
1464.241	0.686	685.9	incongruent	Block2	incongruent/STIM_015.jpg	99
1467.876	0.819	818.7	incongruent	Block2	incongruent/STIM_016.jpg	100
1472.374	0.928	928.5	incongruent	Block2	incongruent/STIM_016.jpg	99
1476.32	0.878	878.0	incongruent	Block2	incongruent/STIM_016.jpg	100
1480.201	0.632	631.6	incongruent	Block2	incongruent/STIM_016.jpg	99
1483.82	0.86	859.7	incongruent	Block2	incongruent/STIM_016.jpg	99
1488.042	0.615	615.3	incongruent	Block2	incongruent/STIM_017.jpg	99
1492.011	0.818	818.4	incongruent	Block2	incongruent/STIM_017.jpg	100
1496.828	0.762	761.6	incongruent	Block2	incongruent/STIM_017.jpg	100
1500.375	0.841	841.1	incongruent	Block2	incongruent/STIM_017.jpg	99
1505.139	0.511	511.0	incongruent	Block2	incongruent/STIM_017.jpg	99
1508.365	1.082	1082.5	incongruent	Block2	incongruent/STIM_018.jpg	100
1512.897	0.885	884.7	incongruent	Block2	incongruent/STIM_018.jpg	100
1517.392	0.992	992.2	incongruent	Block2	incongruent/STIM_018.jpg	99
1520.6	0.641	640.8	incongruent	Block2	incongruent/STIM_018.jpg	99
1524.989	0.922	922.4	incongruent	Block2	incongruent/STIM_018.jpg	100
1529.772	0.758	758.2	incongruent	Block2	incongruent/STIM_019.jpg	100
1533.582	0.772	772.4	incongruent	Block2	incongruent/STIM_019.jpg	99
1537.217	0.816	815.5	incongruent	Block2	incongruent/STIM_019.jpg	100
1540.73	0.837	837.1	incongruent	Block2	incongruent/STIM_019.jpg	99
1544.666	0.518	517.7	incongruent	Block2	incongruent/STIM_019.jpg	99
1547.921	1.17	1169.8	incongruent	Block2	incongruent/STIM_020.jpg	100
1552.829	0.702	702.3	incongruent	Block2	incongruent/STIM_020.jpg	99
1557.35	0.877	876.6	incongruent	Block2	incongruent/STIM_020.jpg	99
1560.843	0.971	970.7	incongruent	Block2	incongruent/STIM_020.jpg	100
1564.459	0.968	968.4	incongruent	Block2	incongruent/STIM_020.jpg	99
1568.752	0.575	575.4	incongruent	Block2	incongruent/STIM_021.jpg	99
1572.981	0.963	963.4	incongruent	Block2	incongruent/STIM_021.jpg	100
1577.741	0.85	849.5	incongruent	Block2	incongruent/STIM_021.jpg	99
1580.933	0.575	574.8	incongruent	Block2	incongruent/STIM_021.jpg	100
1584.162	0.768	768.3	incongruent	Block2	incongruent/STIM_021.jpg	99
1587.418	0.736	736.3	incongruent	Block2	incongruent/STIM_022.jpg	99
1591.921	1.002	1001.7	incongruent	Block2	incongruent/STIM_022.jpg	100
1595.555	0.507	507.2	incongruent	Block2	incongruent/STIM_022.jpg	100
1599.31	0.786	785.5	incongruent	Block2	incongruent/STIM_022.jpg	100
1602.383	0.659	659.1	incongruent	Block2	incongruent/STIM_022.jpg	100
1605.945	0.582	582.1	incongruent	Block2	incongruent/STIM_023.jpg	99
1609.226	1.099	1098.8	incongruent	Block2	incongruent/STIM_023.jpg	100
1614.363	0.831	831.0	incongruent	Block2	incongruent/STIM_023.jpg	99
1617.785	0.695	695.1	incongruent	Block2	incongruent/STIM_023.jpg	100
1621.492	0.477	477.0	incongruent	Block2	incongruent/STIM_023.jpg	99
1624.019	0.777	777.3	incongruent	Block2	incongruent/STIM_024.jpg	99
1628.023	1.113	1113.1	incongruent	Block2	incongruent/STIM_024.jpg	99
1631.326	0.597	596.8	incongruent	Block2	incongruent/STIM_024.jpg	100
1635.444	0.804	803.8	incongruent	Block2	incongruent/STIM_024.jpg	99
1639.144	0.657	656.8	incongruent	Block2	incongruent/STIM_024.jpg	99
1643.827	1.003	1002.8	incongruent	Block2	incongruent/STIM_025.jpg	100
1647.918	0.601	601.3	incongruent	Block2	incongruent/STIM_025.jpg	100
1650.566	1.019	1019.1	incongruent	Block2	incongruent/STIM_025.jpg	100
1655.479	0.609	609.0	incongruent	Block2	incongruent/STIM_025.jpg	100
1659.163	0.673	673.0	incongruent	Block2	incongruent/STIM_025.jpg	100
1662.577	1.091	1090.9	incongruent	Block2	incongruent/STIM_026.jpg	100
1666.959	1.083	1083.0	incongruent	Block2	incongruent/STIM_026.jpg	99
1670.186	0.812	812.4	incongruent	Block2	incongruent/STIM_026.jpg	100
1674.64	0.858	857.6	incongruent	Block2	incongruent/STIM_026.jpg	100
1678.395	0.963	963.3	incongruent	Block2	incongruent/STIM_026.jpg	99
1683.363	0.793	792.7	incongruent	Block2	incongruent/STIM_027.jpg	99
1686.66	0.938	937.7	incongruent	Block2	incongruent/STIM_027.jpg	100
1690.127	0.603	603.2	incongruent	Block2	incongruent/STIM_027.jpg	100
1693.097	0.972	971.5	incongruent	Block2	incongruent/STIM_027.jpg	100
1696.521	0.864	864.3	incongruent	Block2	incongruent/STIM_027.jpg	100
1700.562	0.862	862.2	incongruent	Block2	incongruent/STIM_028.jpg	100
1705.231	0.545	545.0	incongruent	Block2	incongruent/STIM_028.jpg	99
1709.361	0.927	926.9	incongruent	Block2	incongruent/STIM_028.jpg	99
1713.637	0.603	603.2	incongruent	Block2	incongruent/STIM_028.jpg	100
1716.406	0.899	899.2	incongruent	Block2	incongruent/STIM_028.jpg	100
1719.716	0.846	846.3	incongruent	Block2	incongruent/STIM_029.jpg	100
1722.686	0.804	804.3	incongruent	Block2	incongruent/STIM_029.jpg	99
1726.152	0.608	608.1	incongruent	Block2	incongruent/STIM_029.jpg	99
1729.057	0.824	823.9	incongruent	Block2	incongruent/STIM_029.jpg	100
1732.433	0.468	468.5	incongruent	Block2	incongruent/STIM_029.jpg	99
1736.556	0.653	652.7	congruent	Block2	congruent/STIM_000.jpg	100
1739.476	0.507	506.8	congruent	Block2	congruent/STIM_000.jpg	100
1742.265	0.516	515.6	congruent	Block2	congruent/STIM_000.jpg	99
1745.894	0.472	471.6	congruent	Block2	congruent/STIM_000.jpg	100
1748.542	0.48	479.6	congruent	Block2	congruent/STIM_000.jpg	100
1752.893	0.696	696.2	congruent	Block2	congruent/STIM_001.jpg	99
1757.562	0.648	647.5	congruent	Block2	congruent/STIM_001.jpg	99
1760.531	0.678	678.1	congruent	Block2	congruent/STIM_001.jpg	100
1763.51	0.534	533.5	congruent	Block2	congruent/STIM_001.jpg	99
1767.323	0.528	527.6	congruent	Block2	congruent/STIM_001.jpg	100
1770.915	0.819	818.9	congruent	Block2	congruent/STIM_002.jpg	100
1774.67	0.657	657.4	congruent	Block2	congruent/STIM_002.jpg	99
1777.835	0.578	578.2	congruent	Block2	congruent/STIM_002.jpg	100
1781.105	0.606	606.2	congruent	Block2	congruent/STIM_002.jpg	100
1784.435	0.677	676.8	congruent	Block2	congruent/STIM_002.jpg	99
1787.74	0.718	717.8	congruent	Block2	congruent/STIM_003.jpg	100
1791.5	0.829	828.8	congruent	Block2	congruent/STIM_003.jpg	100
1794.764	0.562	562.3	congruent	Block2	congruent/STIM_003.jpg	100
1799.059	0.545	545.1	congruent	Block2	congruent/STIM_003.jpg	99
1802.95	0.518	518.3	congruent	Block2	congruent/STIM_003.jpg	99
1805.98	0.53	530.2	congruent	Block2	congruent/STIM_004.jpg	99
1809.29	0.627	626.7	congruent	Block2	congruent/STIM_004.jpg	100
1812.215	0.635	634.8	congruent	Block2	congruent/STIM_004.jpg	100
1816.26	0.649	649.2	congruent	Block2	congruent/STIM_004.jpg	100
1819.582	0.621	620.7	congruent	Block2	congruent/STIM_004.jpg	100
1823.483	0.797	796.7	congruent	Block2	congruent/STIM_005.jpg	99
1827.545	0.491	491.3	congruent	Block2	congruent/STIM_005.jpg	100
1831.851	0.573	573.4	congruent	Block2	congruent/STIM_005.jpg	100
1836.036	0.506	506.3	congruent	Block2	congruent/STIM_005.jpg	99
1838.901	0.555	555.0	congruent	Block2	congruent/STIM_005.jpg	100
1842.783	0.812	812.2	congruent	Block2	congruent/STIM_006.jpg	100
1847.139	0.719	719.1	congruent	Block2	congruent/STIM_006.jpg	99
1850.431	0.704	703.8	congruent	Block2	congruent/STIM_006.jpg	100
1854.368	0.718	718.1	congruent	Block2	congruent/STIM_006.jpg	99
1858.077	0.63	630.2	congruent	Block2	congruent/STIM_006.jpg	99
1862.357	0.83	830.2	congruent	Block2	congruent/STIM_007.jpg	99
1866.463	0.721	721.3	congruent	Block2	congruent/STIM_007.jpg	100
1871.207	0.737	736.9	congruent	Block2	congruent/STIM_007.jpg	100
1874.346	0.641	640.7	congruent	Block2	congruent/STIM_007.jpg	99
1878.171	0.507	507.4	congruent	Block2	congruent/STIM_007.jpg	100
1882.182	0.686	686.2	congruent	Block2	congruent/STIM_008.jpg	100
1886.021	0.768	768.3	congruent	Block2	congruent/STIM_008.jpg	100
1889.126	0.74	739.7	congruent	Block2	congruent/STIM_008.jpg	100
1892.506	0.61	609.9	congruent	Block2	congruent/STIM_008.jpg	99
1896.452	0.751	751.4	congruent	Block2	congruent/STIM_008.jpg	100
1899.602	0.789	789.1	congruent	Block2	congruent/STIM_009.jpg	100
1903.785	0.516	515.6	congruent	Block2	congruent/STIM_009.jpg	100
1907.913	0.739	739.4	congruent	Block2	congruent/STIM_009.jpg	100
1912.204	0.669	669.0	congruent	Block2	congruent/STIM_009.jpg	100
1915.422	0.743	742.6	congruent	Block2	congruent/STIM_009.jpg	99
1918.76	0.8	800.0	congruent	Block2	congruent/STIM_010.jpg	99
1922.207	0.533	533.0	congruent	Block2	congruent/STIM_010.jpg	99
1925.244	0.486	486.4	congruent	Block2	congruent/STIM_010.jpg	100
1927.866	0.615	615.4	congruent	Block2	congruent/STIM_010.jpg	100
1931.293	0.517	516.7	congruent	Block2	congruent/STIM_010.jpg	100
1934.231	0.733	732.8	congruent	Block2	congruent/STIM_011.jpg	100
1938.411	0.601	601.2	congruent	Block2	congruent/STIM_011.jpg	100
1941.788	0.636	636.4	congruent	Block2	congruent/STIM_011.jpg	100
1946.024	0.753	752.6	congruent	Block2	congruent/STIM_011.jpg	100
1950.834	0.534	534.1	congruent	Block2	congruent/STIM_011.jpg	99
1954.875	0.73	730.1	congruent	Block2	congruent/STIM_012.jpg	100
1959.65	0.558	558.4	congruent	Block2	congruent/STIM_012.jpg	99
1963.015	0.618	618.2	congruent	Block2	congruent/STIM_012.jpg	100
1966.193	0.58	580.4	congruent	Block2	congruent/STIM_012.jpg	100
1969.675	0.767	767.4	congruent	Block2	congruent/STIM_012.jpg	99
1974.364	0.516	515.5	congruent	Block2	congruent/STIM_013.jpg	100
1978.021	0.613	613.2	congruent	Block2	congruent/STIM_013.jpg	99
1981.171	0.699	699.2	congruent	Block2	congruent/STIM_013.jpg	99
1984.46	0.514	514.4	congruent	Block2	congruent/STIM_013.jpg	100
1988.577	0.629	628.6	congruent	Block2	congruent/STIM_013.jpg	100
1992.722	0.533	533.4	congruent	Block2	congruent/STIM_014.jpg	100
1995.952	0.698	697.6	congruent	Block2	congruent/STIM_014.jpg	99
2000.257	0.529	528.6	congruent	Block2	congruent/STIM_014.jpg	100
2004.766	0.773	773.2	congruent	Block2	congruent/STIM_014.jpg	100
2009.287	0.764	764.1	congruent	Block2	congruent/STIM_014.jpg	99
2013.546	0.631	631.2	congruent	Block2	congruent/STIM_015.jpg	99
2016.913	0.769	769.3	congruent	Block2	congruent/STIM_015.jpg	99
2020.477	0.717	716.6	congruent	Block2	congruent/STIM_015.jpg	99
2023.391	0.785	785.1	congruent	Block2	congruent/STIM_015.jpg	99
2027.637	0.498	498.5	congruent	Block2	congruent/STIM_015.jpg	100
2030.948	0.834	833.8	congruent	Block2	congruent/STIM_016.jpg	100
2035.817	0.612	611.7	congruent	Block2	congruent/STIM_016.jpg	100
2039.575	0.495	495.0	congruent	Block2	congruent/STIM_016.jpg	99
2044.073	0.598	597.7	congruent	Block2	congruent/STIM_016.jpg	99
2047.76	0.746	745.7	congruent	Block2	congruent/STIM_016.jpg	100
2051.208	0.708	708.5	congruent	Block2	congruent/STIM_017.jpg	99
2055.917	0.592	592.0	congruent	Block2	congruent/STIM_017.jpg	100
2058.613	0.596	596.0	congruent	Block2	congruent/STIM_017.jpg	99
2061.803	0.8	800.5	congruent	Block2	congruent/STIM_017.jpg	100
2064.692	0.575	574.6	congruent	Block2	congruent/STIM_017.jpg	100
2069.302	0.759	758.6	congruent	Block2	congruent/STIM_018.jpg	100
2072.755	0.536	536.4	congruent	Block2	congruent/STIM_018.jpg	100
2075.828	0.578	578.2	congruent	Block2	congruent/STIM_018.jpg	99
2080.078	0.629	629.2	congruent	Block2	congruent/STIM_018.jpg	100
2083.271	0.476	476.5	congruent	Block2	congruent/STIM_018.jpg	100
2086.012	0.7	699.8	congruent	Block2	congruent/STIM_019.jpg	100
2090.152	0.671	671.0	congruent	Block2	congruent/STIM_019.jpg	99
2093.89	0.559	558.6	congruent	Block2	congruent/STIM_019.jpg	99
2098.209	0.542	541.6	congruent	Block2	congruent/STIM_019.jpg	99
2100.897	0.773	772.9	congruent	Block2	congruent/STIM_019.jpg	100
2105.518	0.755	755.0	congruent	Block2	congruent/STIM_020.jpg	99
2110.225	0.795	795.4	congruent	Block2	congruent/STIM_020.jpg	99
2113.091	0.493	493.2	congruent	Block2	congruent/STIM_020.jpg	99
2117.597	0.607	606.8	congruent	Block2	congruent/STIM_020.jpg	99
2121.977	0.526	526.0	congruent	Block2	congruent/STIM_020.jpg	100
2125.391	0.671	671.4	congruent	Block2	congruent/STIM_021.jpg	99
2129.725	0.617	617.2	congruent	Block2	congruent/STIM_021.jpg	99
2134.211	0.785	784.9	congruent	Block2	congruent/STIM_021.jpg	100
2138.894	0.798	798.5	congruent	Block2	congruent/STIM_021.jpg	100
2142.83	0.472	472.4	congruent	Block2	congruent/STIM_021.jpg	100
2146.893	0.773	772.8	congruent	Block2	congruent/STIM_022.jpg	99
2150.915	0.716	715.9	congruent	Block2	congruent/STIM_022.jpg	100
2154.081	0.547	547.4	congruent	Block2	congruent/STIM_022.jpg	99
2158.416	0.621	620.6	congruent	Block2	congruent/STIM_022.jpg	100
2161.536	0.592	592.0	congruent	Block2	congruent/STIM_022.jpg	99
2165.688	0.76	760.1	congruent	Block2	congruent/STIM_023.jpg	99
2169.483	0.636	635.6	congruent	Block2	congruent/STIM_023.jpg	99
2172.406	0.726	726.0	congruent	Block2	congruent/STIM_023.jpg	100
2176.307	0.771	770.7	congruent	Block2	congruent/STIM_023.jpg	100
2180.351	0.548	548.3	congruent	Block2	congruent/STIM_023.jpg	100
2183.269	0.607	607.2	congruent	Block2	congruent/STIM_024.jpg	99
2187.703	0.575	575.1	congruent	Block2	congruent/STIM_024.jpg	100
2192.139	0.656	655.7	congruent	Block2	congruent/STIM_024.jpg	100
2194.941	0.723	722.7	congruent	Block2	congruent/STIM_024.jpg	99
2198.186	0.702	701.5	congruent	Block2	congruent/STIM_024.jpg	99
2202.632	0.642	642.3	congruent	Block2	congruent/STIM_025.jpg	100
2206.754	0.584	584.0	congruent	Block2	congruent/STIM_025.jpg	99
2210.867	0.78	780.2	congruent	Block2	congruent/STIM_025.jpg	99
2215.146	0.73	729.7	congruent	Block2	congruent/STIM_025.jpg	100
2219.866	0.562	561.6	congruent	Block2	congruent/STIM_025.jpg	99
2223.615	0.818	818.5	congruent	Block2	congruent/STIM_026.jpg	100
2228.368	0.548	547.8	congruent	Block2	congruent/STIM_026.jpg	100
2231.442	0.558	558.0	congruent	Block2	congruent/STIM_026.jpg	99
2236.015	0.648	648.3	congruent	Block2	congruent/STIM_026.jpg	100
2238.717	0.713	712.9	congruent	Block2	congruent/STIM_026.jpg	100
2241.675	0.639	639.4	congruent	Block2	congruent/STIM_027.jpg	100
2245.393	0.652	652.2	congruent	Block2	congruent/STIM_027.jpg	99
2249.384	0.741	741.3	congruent	Block2	congruent/STIM_027.jpg	100
2253.222	0.678	678.4	congruent	Block2	congruent/STIM_027.jpg	99
2257.775	0.646	645.8	congruent	Block2	congruent/STIM_027.jpg	99
2261.681	0.556	555.9	congruent	Block2	congruent/STIM_028.jpg	100
2265.46	0.503	502.8	congruent	Block2	congruent/STIM_028.jpg	99
2269.801	0.65	650.4	congruent	Block2	congruent/STIM_028.jpg	99
2273.457	0.81	810.0	congruent	Block2	congruent/STIM_028.jpg	100
2276.482	0.616	616.5	congruent	Block2	congruent/STIM_028.jpg	100
2279.482	0.776	776.0	congruent	Block2	congruent/STIM_029.jpg	99
2282.748	0.71	709.9	congruent	Block2	congruent/STIM_029.jpg	100
2286.773	0.505	505.4	congruent	Block2	congruent/STIM_029.jpg	99
2289.404	0.596	596.4	congruent	Block2	congruent/STIM_029.jpg	100
2293.419	0.607	606.6	congruent	Block2	congruent/STIM_029.jpg	100
2296.995	0.9	900.5	incongruent	Block3	incongruent/STIM_000.jpg	99
2301.909	0.566	566.2	incongruent	Block3	incongruent/STIM_000.jpg	100
2305.259	0.618	618.5	incongruent	Block3	incongruent/STIM_000.jpg	100
2308.11	0.834	834.1	incongruent	Block3	incongruent/STIM_000.jpg	99
2312.231	0.547	546.6	incongruent	Block3	incongruent/STIM_000.jpg	99
2315.285	0.942	941.9	incongruent	Block3	incongruent/STIM_001.jpg	100
2320.263	0.564	564.3	incongruent	Block3	incongruent/STIM_001.jpg	100
2322.942	0.681	681.0	incongruent	Block3	incongruent/STIM_001.jpg	99
2327.261	0.968	967.8	incongruent	Block3	incongruent/STIM_001.jpg	99
2331.474	0.722	721.7	incongruent	Block3	incongruent/STIM_001.jpg	100
2335.617	0.926	926.0	incongruent	Block3	incongruent/STIM_002.jpg	99
2338.965	0.747	747.2	incongruent	Block3	incongruent/STIM_002.jpg	99
2342.829	0.691	690.9	incongruent	Block3	incongruent/STIM_002.jpg	100
2346.518	0.689	689.1	incongruent	Block3	incongruent/STIM_002.jpg	99
2350.434	0.694	693.8	incongruent	Block3	incongruent/STIM_002.jpg	99
2354.185	0.584	584.2	incongruent	Block3	incongruent/STIM_003.jpg	99
2358.271	0.798	797.6	incongruent	Block3	incongruent/STIM_003.jpg	100
2362.281	0.596	596.0	incongruent	Block3	incongruent/STIM_003.jpg	100
2366.694	0.612	611.8	incongruent	Block3	incongruent/STIM_003.jpg	99
2370.711	0.976	975.5	incongruent	Block3	incongruent/STIM_003.jpg	100
2375.339	0.459	458.8	incongruent	Block3	incongruent/STIM_004.jpg	99
2378.6	0.523	522.7	incongruent	Block3	incongruent/STIM_004.jpg	100
2382.109	0.511	510.8	incongruent	Block3	incongruent/STIM_004.jpg	100
2386.603	0.837	837.3	incongruent	Block3	incongruent/STIM_004.jpg	100
2391.156	0.519	519.0	incongruent	Block3	incongruent/STIM_004.jpg	100
2394.521	0.841	840.7	incongruent	Block3	incongruent/STIM_005.jpg	100
2397.875	0.949	948.7	incongruent	Block3	incongruent/STIM_005.jpg	100
2401.962	0.528	528.3	incongruent	Block3	incongruent/STIM_005.jpg	99
2406.21	0.464	463.8	incongruent	Block3	incongruent/STIM_005.jpg	99
2409.05	0.534	534.1	incongruent	Block3	incongruent/STIM_005.jpg	100
2412.908	0.761	760.7	incongruent	Block3	incongruent/STIM_006.jpg	99
2416.981	0.698	697.8	incongruent	Block3	incongruent/STIM_006.jpg	100
2420.614	0.913	913.0	incongruent	Block3	incongruent/STIM_006.jpg	99
2423.665	0.828	827.6	incongruent	Block3	incongruent/STIM_006.jpg	100
2426.777	0.566	565.6	incongruent	Block3	incongruent/STIM_006.jpg	99
2431.072	0.892	891.5	incongruent	Block3	incongruent/STIM_007.jpg	99
2435.101	0.864	864.2	incongruent	Block3	incongruent/STIM_007.jpg	99
2438.62	0.72	719.9	incongruent	Block3	incongruent/STIM_007.jpg	99
2441.889	0.674	673.9	incongruent	Block3	incongruent/STIM_007.jpg	100
2445.849	0.734	733.7	incongruent	Block3	incongruent/STIM_007.jpg	100
2449.05	0.7	699.9	incongruent	Block3	incongruent/STIM_008.jpg	99
2451.889	0.727	727.2	incongruent	Block3	incongruent/STIM_008.jpg	99
2455.524	0.726	725.5	incongruent	Block3	incongruent/STIM_008.jpg	100
2460.216	0.614	613.7	incongruent	Block3	incongruent/STIM_008.jpg	100
2463.521	0.855	854.8	incongruent	Block3	incongruent/STIM_008.jpg	100
2466.861	0.809	808.8	incongruent	Block3	incongruent/STIM_009.jpg	99
2470.938	0.486	485.5	incongruent	Block3	incongruent/STIM_009.jpg	99
2474.873	0.919	918.9	incongruent	Block3	incongruent/STIM_009.jpg	99
2478.057	0.859	858.9	incongruent	Block3	incongruent/STIM_009.jpg	100
2482.431	0.545	545.0	incongruent	Block3	incongruent/STIM_009.jpg	100
2486.866	0.678	677.8	incongruent	Block3	incongruent/STIM_010.jpg	100
2490.198	0.769	768.9	incongruent	Block3	incongruent/STIM_010.jpg	100
2493.748	0.924	924.1	incongruent	Block3	incongruent/STIM_010.jpg	99
2498.643	0.647	646.9	incongruent	Block3	incongruent/STIM_010.jpg	99
2503.337	0.834	834.4	incongruent	Block3	incongruent/STIM_010.jpg	100
2507.496	0.668	667.6	incongruent	Block3	incongruent/STIM_011.jpg	100
2510.518	0.74	740.3	incongruent	Block3	incongruent/STIM_011.jpg	100
2515.071	0.898	897.5	incongruent	Block3	incongruent/STIM_011.jpg	100
2519.207	0.641	641.1	incongruent	Block3	incongruent/STIM_011.jpg	100
2521.974	0.51	510.3	incongruent	Block3	incongruent/STIM_011.jpg	99
2525.972	0.812	811.7	incongruent	Block3	incongruent/STIM_012.jpg	100
2530.056	0.724	724.4	incongruent	Block3	incongruent/STIM_012.jpg	100
2533.133	0.7	700.4	incongruent	Block3	incongruent/STIM_012.jpg	99
2536.842	0.486	486.3	incongruent	Block3	incongruent/STIM_012.jpg	99
2539.743	0.615	614.6	incongruent	Block3	incongruent/STIM_012.jpg	100
2542.939	0.543	543.3	incongruent	Block3	incongruent/STIM_013.jpg	100
2547.22	0.488	487.8	incongruent	Block3	incongruent/STIM_013.jpg	100
2551.315	0.89	889.6	incongruent	Block3	incongruent/STIM_013.jpg	99
2555.803	0.664	663.5	incongruent	Block3	incongruent/STIM_013.jpg	99
2559.386	0.614	614.2	incongruent	Block3	incongruent/STIM_013.jpg	100
2563.988	0.663	662.8	incongruent	Block3	incongruent/STIM_014.jpg	100
2568.026	0.621	621.1	incongruent	Block3	incongruent/STIM_014.jpg	99
2572.582	0.569	568.8	incongruent	Block3	incongruent/STIM_014.jpg	99
2575.501	0.816	815.8	incongruent	Block3	incongruent/STIM_014.jpg	99
2579.21	0.809	808.8	incongruent	Block3	incongruent/STIM_014.jpg	100
2582.211	0.607	607.4	incongruent	Block3	incongruent/STIM_015.jpg	99
2584.91	0.571	571.0	incongruent	Block3	incongruent/STIM_015.jpg	100
2588.259	0.908	907.6	incongruent	Block3	incongruent/STIM_015.jpg	100
2591.666	0.928	927.8	incongruent	Block3	incongruent/STIM_015.jpg	99
2595.457	0.792	792.2	incongruent	Block3	incongruent/STIM_015.jpg	99
2599.939	0.869	868.7	incongruent	Block3	incongruent/STIM_016.jpg	99
2603.314	0.643	642.7	incongruent	Block3	incongruent/STIM_016.jpg	99
2606.828	0.638	637.7	incongruent	Block3	incongruent/STIM_016.jpg	99
2610.598	0.815	815.0	incongruent	Block3	incongruent/STIM_016.jpg	100
2615.125	0.933	932.6	incongruent	Block3	incongruent/STIM_016.jpg	99
2619.038	0.5	500.3	incongruent	Block3	incongruent/STIM_017.jpg	99
2623.522	0.851	850.7	incongruent	Block3	incongruent/STIM_017.jpg	99
2627.667	0.527	527.4	incongruent	Block3	incongruent/STIM_017.jpg	100
2632.183	0.591	591.1	incongruent	Block3	incongruent/STIM_017.jpg	100
2636.694	0.472	471.9	incongruent	Block3	incongruent/STIM_017.jpg	100
2640.101	0.832	831.5	incongruent	Block3	incongruent/STIM_018.jpg	100
2643.348	0.588	588.0	incongruent	Block3	incongruent/STIM_018.jpg	99
2646.541	0.563	562.8	incongruent	Block3	incongruent/STIM_018.jpg	100
2651.001	0.456	456.1	incongruent	Block3	incongruent/STIM_018.jpg	99
2654.105	0.644	643.8	incongruent	Block3	incongruent/STIM_018.jpg	100
2657.039	0.503	503.3	incongruent	Block3	incongruent/STIM_019.jpg	100
2660.997	0.472	472.5	incongruent	Block3	incongruent/STIM_019.jpg	100
2665.095	0.676	676.4	incongruent	Block3	incongruent/STIM_019.jpg	100
2667.949	0.727	727.1	incongruent	Block3	incongruent/STIM_019.jpg	100
2672.488	0.756	755.5	incongruent	Block3	incongruent/STIM_019.jpg	99
2676.128	0.686	686.5	incongruent	Block3	incongruent/STIM_020.jpg	100
2680.144	0.869	868.6	incongruent	Block3	incongruent/STIM_020.jpg	100
2684.042	0.814	813.7	incongruent	Block3	incongruent/STIM_020.jpg	99
2687.526	0.897	896.7	incongruent	Block3	incongruent/STIM_020.jpg	100
2691.092	0.509	508.6	incongruent	Block3	incongruent/STIM_020.jpg	100
2695.056	0.596	596.0	incongruent	Block3	incongruent/STIM_021.jpg	100
2698.111	0.57	570.0	incongruent	Block3	incongruent/STIM_021.jpg	99
2701.151	0.85	849.8	incongruent	Block3	incongruent/STIM_021.jpg	99
2705.626	0.498	498.4	incongruent	Block3	incongruent/STIM_021.jpg	99
2709.429	0.903	902.9	incongruent	Block3	incongruent/STIM_021.jpg	99
2712.423	0.969	969.2	incongruent	Block3	incongruent/STIM_022.jpg	99
2716.62	0.911	911.2	incongruent	Block3	incongruent/STIM_022.jpg	99
2720.516	0.828	827.7	incongruent	Block3	incongruent/STIM_022.jpg	100
2723.939	0.58	580.2	incongruent	Block3	incongruent/STIM_022.jpg	99
2728.018	0.643	643.2	incongruent	Block3	incongruent/STIM_022.jpg	99
2731.01	0.903	903.0	incongruent	Block3	incongruent/STIM_023.jpg	100
2734.612	0.566	565.5	incongruent	Block3	incongruent/STIM_023.jpg	100
2737.407	0.715	714.7	incongruent	Block3	incongruent/STIM_023.jpg	99
2742.155	0.765	765.4	incongruent	Block3	incongruent/STIM_023.jpg	99
2746.869	0.56	560.3	incongruent	Block3	incongruent/STIM_023.jpg	99
2751.025	0.961	960.9	incongruent	Block3	incongruent/STIM_024.jpg	99
2756.056	0.527	527.4	incongruent	Block3	incongruent/STIM_024.jpg	100
2759.106	0.764	764.3	incongruent	Block3	incongruent/STIM_024.jpg	100
2762.372	0.808	807.8	incongruent	Block3	incongruent/STIM_024.jpg	100
2765.802	0.763	762.8	incongruent	Block3	incongruent/STIM_024.jpg	100
2770.32	0.763	763.3	incongruent	Block3	incongruent/STIM_025.jpg	99
2773.213	0.739	739.2	incongruent	Block3	incongruent/STIM_025.jpg	100
2777.9	0.874	874.3	incongruent	Block3	incongruent/STIM_025.jpg	100
2782.517	0.756	755.9	incongruent	Block3	incongruent/STIM_025.jpg	99
2786.464	0.639	638.7	incongruent	Block3	incongruent/STIM_025.jpg	100
2791.118	0.615	615.2	incongruent	Block3	incongruent/STIM_026.jpg	99
2794.112	0.749	748.6	incongruent	Block3	incongruent/STIM_026.jpg	99
2797.527	0.546	545.7	incongruent	Block3	incongruent/STIM_026.jpg	100
2800.122	0.933	933.1	incongruent	Block3	incongruent/STIM_026.jpg	99
2803.619	0.906	906.4	incongruent	Block3	incongruent/STIM_026.jpg	100
2808.364	0.93	930.2	incongruent	Block3	incongruent/STIM_027.jpg	99
2812.306	0.843	842.8	incongruent	Block3	incongruent/STIM_027.jpg	100
2816.241	0.753	752.7	incongruent	Block3	incongruent/STIM_027.jpg	100
2820.309	0.8	799.8	incongruent	Block3	incongruent/STIM_027.jpg	99
2823.209	0.722	721.8	incongruent	Block3	incongruent/STIM_027.jpg	100
2826.352	0.883	882.9	incongruent	Block3	incongruent/STIM_028.jpg	99
2829.478	0.974	973.6	incongruent	Block3	incongruent/STIM_028.jpg	100
2834.33	0.8	799.5	incongruent	Block3	incongruent/STIM_028.jpg	100
2837.988	0.896	895.9	incongruent	Block3	incongruent/STIM_028.jpg	99
2841.271	0.583	582.9	incongruent	Block3	incongruent/STIM_028.jpg	99
2845.557	0.471	471.1	incongruent	Block3	incongruent/STIM_029.jpg	99
2848.269	0.77	769.9	incongruent	Block3	incongruent/STIM_029.jpg	99
2851.604	0.693	693.1	incongruent	Block3	incongruent/STIM_029.jpg	100
2855.785	0.764	764.3	incongruent	Block3	incongruent/STIM_029.jpg	99
2858.619	0.701	701.3	incongruent	Block3	incongruent/STIM_029.jpg	100
2861.959	0.666	666.4	congruent	Block3	congruent/STIM_000.jpg	100
2865.764	0.706	705.6	congruent	Block3	congruent/STIM_000.jpg	99
2870.109	0.75	749.5	congruent	Block3	congruent/STIM_000.jpg	99
2873.384	0.605	605.3	congruent	Block3	congruent/STIM_000.jpg	100
2876.588	0.5	500.4	congruent	Block3	congruent/STIM_000.jpg	100
2880.966	0.543	542.9	congruent	Block3	congruent/STIM_001.jpg	99
2883.925	0.821	820.9	congruent	Block3	congruent/STIM_001.jpg	99
2887.761	0.49	490.2	congruent	Block3	congruent/STIM_001.jpg	99
2891.515	0.591	591.4	congruent	Block3	congruent/STIM_001.jpg	100
2896.149	0.628	628.0	congruent	Block3	congruent/STIM_001.jpg	100
2899.299	0.825	825.0	congruent	Block3	congruent/STIM_002.jpg	99
2903.714	0.626	625.7	congruent	Block3	congruent/STIM_002.jpg	100
2907.214	0.536	536.1	congruent	Block3	congruent/STIM_002.jpg	100
2910.647	0.578	578.1	congruent	Block3	congruent/STIM_002.jpg	100
2913.582	0.507	506.7	congruent	Block3	congruent/STIM_002.jpg	100
2916.349	0.728	728.3	congruent	Block3	congruent/STIM_003.jpg	100
2921.011	0.8	800.5	congruent	Block3	congruent/STIM_003.jpg	99
2924.061	0.707	707.0	congruent	Block3	congruent/STIM_003.jpg	99
2928.381	0.58	579.7	congruent	Block3	congruent/STIM_003.jpg	99
2931.993	0.491	491.3	congruent	Block3	congruent/STIM_003.jpg	100
2935.88	0.745	744.7	congruent	Block3	congruent/STIM_004.jpg	100
2938.895	0.562	561.9	congruent	Block3	congruent/STIM_004.jpg	100
2942.955	0.522	522.2	congruent	Block3	congruent/STIM_004.jpg	100
2946.274	0.83	830.5	congruent	Block3	congruent/STIM_004.jpg	99
2949.526	0.502	501.9	congruent	Block3	congruent/STIM_004.jpg	100
2952.213	0.577	577.3	congruent	Block3	congruent/STIM_005.jpg	99
2956.793	0.472	472.0	congruent	Block3	congruent/STIM_005.jpg	99
2960.757	0.573	573.1	congruent	Block3	congruent/STIM_005.jpg	100
2964.427	0.51	510.0	congruent	Block3	congruent/STIM_005.jpg	99
2967.705	0.484	483.8	congruent	Block3	congruent/STIM_005.jpg	99
2971.774	0.725	725.4	congruent	Block3	congruent/STIM_006.jpg	100
2976.076	0.73	729.9	congruent	Block3	congruent/STIM_006.jpg	99
2980.2	0.788	788.1	congruent	Block3	congruent/STIM_006.jpg	100
2983.242	0.752	752.1	congruent	Block3	congruent/STIM_006.jpg	100
2986.892	0.688	688.5	congruent	Block3	congruent/STIM_006.jpg	99
2990.486	0.56	560.1	congruent	Block3	congruent/STIM_007.jpg	99
2994.157	0.642	641.6	congruent	Block3	congruent/STIM_007.jpg	99
2997.977	0.519	518.9	congruent	Block3	congruent/STIM_007.jpg	100
3000.682	0.698	698.3	congruent	Block3	congruent/STIM_007.jpg	99
3003.855	0.528	527.6	congruent	Block3	congruent/STIM_007.jpg	100
3008.059	0.759	758.7	congruent	Block3	congruent/STIM_008.jpg	100
3012.06	0.75	749.6	congruent	Block3	congruent/STIM_008.jpg	100
3016.154	0.737	737.0	congruent	Block3	congruent/STIM_008.jpg	99
3019.894	0.641	641.0	congruent	Block3	congruent/STIM_008.jpg	100
3022.733	0.816	815.5	congruent	Block3	congruent/STIM_008.jpg	100
3027.335	0.49	489.8	congruent	Block3	congruent/STIM_009.jpg	100
3031.17	0.651	651.3	congruent	Block3	congruent/STIM_009.jpg	100
3035.343	0.666	665.7	congruent	Block3	congruent/STIM_009.jpg	99
3038.497	0.809	808.9	congruent	Block3	congruent/STIM_009.jpg	99
3041.641	0.835	834.6	congruent	Block3	congruent/STIM_009.jpg	99
3046.045	0.607	607.3	congruent	Block3	congruent/STIM_010.jpg	100
3049.492	0.8	800.0	congruent	Block3	congruent/STIM_010.jpg	100
3052.95	0.616	616.2	congruent	Block3	congruent/STIM_010.jpg	100
3056.657	0.833	832.6	congruent	Block3	congruent/STIM_010.jpg	99
3060.564	0.517	517.4	congruent	Block3	congruent/STIM_010.jpg	99
3063.778	0.492	491.6	congruent	Block3	congruent/STIM_011.jpg	99
3067.083	0.67	669.9	congruent	Block3	congruent/STIM_011.jpg	100
3071.428	0.741	741.1	congruent	Block3	congruent/STIM_011.jpg	99
3074.925	0.66	659.5	congruent	Block3	congruent/STIM_011.jpg	99
3078.624	0.62	620.3	congruent	Block3	congruent/STIM_011.jpg	100
3083.022	0.56	559.6	congruent	Block3	congruent/STIM_012.jpg	100
3086.513	0.492	491.5	congruent	Block3	congruent/STIM_012.jpg	100
3090.208	0.582	582.1	congruent	Block3	congruent/STIM_012.jpg	100
3093.594	0.609	608.6	congruent	Block3	congruent/STIM_012.jpg	100
3097.667	0.536	535.7	congruent	Block3	congruent/STIM_012.jpg	100
3100.733	0.556	556.1	congruent	Block3	congruent/STIM_013.jpg	99
3104.25	0.513	513.1	congruent	Block3	congruent/STIM_013.jpg	99
3107.669	0.531	531.0	congruent	Block3	congruent/STIM_013.jpg	100
3110.329	0.595	594.8	congruent	Block3	congruent/STIM_013.jpg	100
3113.649	0.573	573.0	congruent	Block3	congruent/STIM_013.jpg	99
3118.03	0.586	586.4	congruent	Block3	congruent/STIM_014.jpg	100
3121.149	0.632	631.7	congruent	Block3	congruent/STIM_014.jpg	99
3124.205	0.834	833.9	congruent	Block3	congruent/STIM_014.jpg	99
3128.389	0.745	745.2	congruent	Block3	congruent/STIM_014.jpg	99
3132.787	0.563	563.0	congruent	Block3	congruent/STIM_014.jpg	100
3137.174	0.812	812.5	congruent	Block3	congruent/STIM_015.jpg	100
3140.929	0.824	823.6	congruent	Block3	congruent/STIM_015.jpg	100
3144.651	0.533	533.4	congruent	Block3	congruent/STIM_015.jpg	100
3148.218	0.568	568.3	congruent	Block3	congruent/STIM_015.jpg	99
3152.491	0.764	764.3	congruent	Block3	congruent/STIM_015.jpg	100
3155.575	0.543	543.2	congruent	Block3	congruent/STIM_016.jpg	99
3159.978	0.752	752.3	congruent	Block3	congruent/STIM_016.jpg	100
3164.076	0.516	515.9	congruent	Block3	congruent/STIM_016.jpg	99
3168.579	0.468	467.7	congruent	Block3	congruent/STIM_016.jpg	99
3172.33	0.726	725.5	congruent	Block3	congruent/STIM_016.jpg	99
3177.071	0.715	714.6	congruent	Block3	congruent/STIM_017.jpg	99
3181.599	0.713	713.2	congruent	Block3	congruent/STIM_017.jpg	99
3185.997	0.64	639.5	congruent	Block3	congruent/STIM_017.jpg	99
3190.066	0.674	673.5	congruent	Block3	congruent/STIM_017.jpg	100
3193.239	0.694	693.7	congruent	Block3	congruent/STIM_017.jpg	99
3197.371	0.601	601.4	congruent	Block3	congruent/STIM_018.jpg	99
3201.399	0.758	758.1	congruent	Block3	congruent/STIM_018.jpg	100
3205.926	0.772	772.5	congruent	Block3	congruent/STIM_018.jpg	100
3210.104	0.509	509.3	congruent	Block3	congruent/STIM_018.jpg	99
3214.072	0.768	767.5	congruent	Block3	congruent/STIM_018.jpg	100
3218.825	0.642	641.9	congruent	Block3	congruent/STIM_019.jpg	100
3223.182	0.578	578.4	congruent	Block3	congruent/STIM_019.jpg	100
3225.966	0.571	571.4	congruent	Block3	congruent/STIM_019.jpg	99
3228.675	0.829	828.9	congruent	Block3	congruent/STIM_019.jpg	100
3232.536	0.77	770.2	congruent	Block3	congruent/STIM_019.jpg	99
3235.928	0.734	733.6	congruent	Block3	congruent/STIM_020.jpg	100
3240.149	0.6	600.0	congruent	Block3	congruent/STIM_020.jpg	100
3243.819	0.704	704.4	congruent	Block3	congruent/STIM_020.jpg	99
3247.982	0.799	798.6	congruent	Block3	congruent/STIM_020.jpg	99
3251.413	0.491	490.9	congruent	Block3	congruent/STIM_020.jpg	100
3255.848	0.714	714.3	congruent	Block3	congruent/STIM_021.jpg	99
3258.857	0.834	833.8	congruent	Block3	congruent/STIM_021.jpg	99
3263.607	0.78	779.8	congruent	Block3	congruent/STIM_021.jpg	100
3266.785	0.582	581.5	congruent	Block3	congruent/STIM_021.jpg	100
3270.855	0.718	718.1	congruent	Block3	congruent/STIM_021.jpg	100
3274.914	0.548	548.0	congruent	Block3	congruent/STIM_022.jpg	99
3277.661	0.762	762.4	congruent	Block3	congruent/STIM_022.jpg	99
3282.317	0.823	822.6	congruent	Block3	congruent/STIM_022.jpg	100
3285.921	0.731	731.2	congruent	Block3	congruent/STIM_022.jpg	100
3289.286	0.807	807.3	congruent	Block3	congruent/STIM_022.jpg	100
3294.029	0.748	747.6	congruent	Block3	congruent/STIM_023.jpg	100
3297.35	0.481	480.9	congruent	Block3	congruent/STIM_023.jpg	100
3299.93	0.792	791.7	congruent	Block3	congruent/STIM_023.jpg	99
3303.757	0.557	557.3	congruent	Block3	congruent/STIM_023.jpg	99
3306.8	0.549	549.3	congruent	Block3	congruent/STIM_023.jpg	99
3310.487	0.794	794.3	congruent	Block3	congruent/STIM_024.jpg	99
3314.166	0.592	591.8	congruent	Block3	congruent/STIM_024.jpg	100
3317.126	0.542	541.8	congruent	Block3	congruent/STIM_024.jpg	99
3320.813	0.795	794.8	congruent	Block3	congruent/STIM_024.jpg	100
3324.209	0.557	556.6	congruent	Block3	congruent/STIM_024.jpg	100
3328.421	0.693	692.9	congruent	Block3	congruent/STIM_025.jpg	99
3332.072	0.636	636.1	congruent	Block3	congruent/STIM_025.jpg	100
3336.471	0.826	825.9	congruent	Block3	congruent/STIM_025.jpg	99
3339.496	0.523	522.9	congruent	Block3	congruent/STIM_025.jpg	99
3342.611	0.544	544.4	congruent	Block3	congruent/STIM_025.jpg	100
3346.192	0.71	709.9	congruent	Block3	congruent/STIM_026.jpg	100
3349.152	0.545	544.8	congruent	Block3	congruent/STIM_026.jpg	100
3352.148	0.531	530.8	congruent	Block3	congruent/STIM_026.jpg	99
3355.893	0.762	762.1	congruent	Block3	congruent/STIM_026.jpg	100
3359.572	0.559	558.6	congruent	Block3	congruent/STIM_026.jpg	100
3363.97	0.668	667.5	congruent	Block3	congruent/STIM_027.jpg	99
3367.383	0.662	662.2	congruent	Block3	congruent/STIM_027.jpg	99
3370.621	0.665	665.2	congruent	Block3	congruent/STIM_027.jpg	99
3373.435	0.627	627.4	congruent	Block3	congruent/STIM_027.jpg	100
3376.325	0.794	794.3	congruent	Block3	congruent/STIM_027.jpg	100
3379.181	0.711	711.2	congruent	Block3	congruent/STIM_028.jpg	100
3383.424	0.546	545.8	congruent	Block3	congruent/STIM_028.jpg	99
3387.831	0.658	658.3	congruent	Block3	congruent/STIM_028.jpg	100
3392.531	0.558	558.4	congruent	Block3	congruent/STIM_028.jpg	100
3395.173	0.631	630.9	congruent	Block3	congruent/STIM_028.jpg	100
3398.67	0.686	685.9	congruent	Block3	congruent/STIM_029.jpg	99
3402.93	0.723	722.7	congruent	Block3	congruent/STIM_029.jpg	99
3406.833	0.47	469.6	congruent	Block3	congruent/STIM_029.jpg	100
3411.092	0.627	626.6	congruent	Block3	congruent/STIM_029.jpg	100
3414.068	0.791	791.1	congruent	Block3	congruent/STIM_029.jpg	100
