onset	duration	accuracy_binary	trial_type	learning_stage	stimulus
0.0	2.432	1	regulate	Run1	regulate/STIM_000.jpg
5.066	1.842	1	regulate	Run1	regulate/STIM_000.jpg
9.085	1.483	1	regulate	Run1	regulate/STIM_000.jpg
13.801	2.905	1	regulate	Run1	regulate/STIM_000.jpg
19.76	3.215	0	regulate	Run1	regulate/STIM_001.jpg
26.606	1.977	1	regulate	Run1	regulate/STIM_001.jpg
30.863	1.867	1	regulate	Run1	regulate/STIM_001.jpg
36.19	2.948	1	regulate	Run1	regulate/STIM_001.jpg
41.338	2.876	1	regulate	Run1	regulate/STIM_002.jpg
46.446	2.092	1	regulate	Run1	regulate/STIM_002.jpg
51.076	3.198	1	regulate	Run1	regulate/STIM_002.jpg
58.078	1.615	1	regulate	Run1	regulate/STIM_002.jpg
62.72	1.846	1	regulate	Run1	regulate/STIM_003.jpg
67.062	2.674	1	regulate	Run1	regulate/STIM_003.jpg
72.855	1.674	1	regulate	Run1	regulate/STIM_003.jpg
76.658	2.792	1	regulate	Run1	regulate/STIM_003.jpg
82.913	2.911	0	regulate	Run1	regulate/STIM_004.jpg
87.886	2.118	1	regulate	Run1	regulate/STIM_004.jpg
91.95	3.11	0	regulate	Run1	regulate/STIM_004.jpg
98.346	2.642	1	regulate	Run1	regulate/STIM_004.jpg
103.762	1.681	1	regulate	Run1	regulate/STIM_005.jpg
107.54	2.624	1	regulate	Run1	regulate/STIM_005.jpg
112.148	1.927	1	regulate	Run1	regulate/STIM_005.jpg
116.104	2.701	0	regulate	Run1	regulate/STIM_005.jpg
121.03	3.237	0	regulate	Run1	regulate/STIM_006.jpg
126.627	1.942	1	regulate	Run1	regulate/STIM_006.jpg
131.272	2.896	0	regulate	Run1	regulate/STIM_006.jpg
137.857	2.915	1	regulate	Run1	regulate/STIM_006.jpg
143.281	3.582	0	regulate	Run1	regulate/STIM_007.jpg
150.447	3.242	1	regulate	Run1	regulate/STIM_007.jpg
156.462	2.981	1	regulate	Run1	regulate/STIM_007.jpg
162.642	2.176	1	regulate	Run1	regulate/STIM_007.jpg
167.497	2.018	1	regulate	Run1	regulate/STIM_008.jpg
172.514	2.102	0	regulate	Run1	regulate/STIM_008.jpg
177.042	2.297	1	regulate	Run1	regulate/STIM_008.jpg
182.199	1.624	1	regulate	Run1	regulate/STIM_008.jpg
185.924	2.991	0	regulate	Run1	regulate/STIM_009.jpg
191.692	2.506	1	regulate	Run1	regulate/STIM_009.jpg
196.483	2.345	1	regulate	Run1	regulate/STIM_009.jpg
200.898	2.189	0	regulate	Run1	regulate/STIM_009.jpg
205.908	2.558	1	regulate	Run1	regulate/STIM_010.jpg
211.197	2.233	1	regulate	Run1	regulate/STIM_010.jpg
217.142	2.364	1	regulate	Run1	regulate/STIM_010.jpg
221.519	1.653	1	regulate	Run1	regulate/STIM_010.jpg
225.865	2.46	0	regulate	Run1	regulate/STIM_011.jpg
231.43	1.508	1	regulate	Run1	regulate/STIM_011.jpg
236.063	2.011	0	regulate	Run1	regulate/STIM_011.jpg
241.418	1.879	1	regulate	Run1	regulate/STIM_011.jpg
246.559	2.055	1	regulate	Run1	regulate/STIM_012.jpg
252.483	2.597	1	regulate	Run1	regulate/STIM_012.jpg
257.932	3.118	0	regulate	Run1	regulate/STIM_012.jpg
262.904	2.432	1	regulate	Run1	regulate/STIM_012.jpg
268.517	2.032	1	regulate	Run1	regulate/STIM_013.jpg
273.697	1.538	1	regulate	Run1	regulate/STIM_013.jpg
277.837	3.145	1	regulate	Run1	regulate/STIM_013.jpg
284.516	2.392	0	regulate	Run1	regulate/STIM_013.jpg
289.239	1.925	0	regulate	Run1	regulate/STIM_014.jpg
293.775	1.655	1	regulate	Run1	regulate/STIM_014.jpg
298.123	1.464	1	regulate	Run1	regulate/STIM_014.jpg
301.976	1.864	1	regulate	Run1	regulate/STIM_014.jpg
306.148	2.125	1	regulate	Run1	regulate/STIM_015.jpg
310.666	1.492	1	regulate	Run1	regulate/STIM_015.jpg
315.567	2.068	1	regulate	Run1	regulate/STIM_015.jpg
320.477	3.032	1	regulate	Run1	regulate/STIM_015.jpg
325.606	3.021	0	regulate	Run1	regulate/STIM_016.jpg
331.688	3.505	1	regulate	Run1	regulate/STIM_016.jpg
338.422	2.043	1	regulate	Run1	regulate/STIM_016.jpg
344.152	1.533	0	regulate	Run1	regulate/STIM_016.jpg
348.25	1.868	1	regulate	Run1	regulate/STIM_017.jpg
352.461	2.928	1	regulate	Run1	regulate/STIM_017.jpg
357.707	1.984	1	regulate	Run1	regulate/STIM_017.jpg
362.613	2.252	1	regulate	Run1	regulate/STIM_017.jpg
368.456	3.112	1	regulate	Run1	regulate/STIM_018.jpg
374.589	3.2	1	regulate	Run1	regulate/STIM_018.jpg
381.598	3.03	1	regulate	Run1	regulate/STIM_018.jpg
387.831	2.556	1	regulate	Run1	regulate/STIM_018.jpg
393.749	3.03	1	regulate	Run1	regulate/STIM_019.jpg
400.142	2.386	1	regulate	Run1	regulate/STIM_019.jpg
404.677	1.38	0	regulate	Run1	regulate/STIM_019.jpg
409.282	3.064	1	regulate	Run1	regulate/STIM_019.jpg
414.908	2.405	1	regulate	Run1	regulate/STIM_020.jpg
420.597	3.044	1	regulate	Run1	regulate/STIM_020.jpg
425.534	1.956	1	regulate	Run1	regulate/STIM_020.jpg
429.961	2.39	1	regulate	Run1	regulate/STIM_020.jpg
434.778	2.241	1	regulate	Run1	regulate/STIM_021.jpg
439.593	3.31	0	regulate	Run1	regulate/STIM_021.jpg
446.217	2.485	1	regulate	Run1	regulate/STIM_021.jpg
451.789	2.696	1	regulate	Run1	regulate/STIM_021.jpg
457.009	3.641	0	regulate	Run1	regulate/STIM_022.jpg
463.993	2.527	0	regulate	Run1	regulate/STIM_022.jpg
470.34	2.379	0	regulate	Run1	regulate/STIM_022.jpg
475.082	2.277	1	regulate	Run1	regulate/STIM_022.jpg
480.819	3.188	1	regulate	Run1	regulate/STIM_023.jpg
486.611	2.495	1	regulate	Run1	regulate/STIM_023.jpg
491.526	3.108	1	regulate	Run1	regulate/STIM_023.jpg
497.566	2.728	0	regulate	Run1	regulate/STIM_023.jpg
502.288	3.121	1	regulate	Run1	regulate/STIM_024.jpg
508.622	2.52	1	regulate	Run1	regulate/STIM_024.jpg
513.394	2.857	1	regulate	Run1	regulate/STIM_024.jpg
519.115	1.234	1	regulate	Run1	regulate/STIM_024.jpg
522.806	2.678	1	regulate	Run1	regulate/STIM_025.jpg
527.556	2.904	1	regulate	Run1	regulate/STIM_025.jpg
533.021	3.015	1	regulate	Run1	regulate/STIM_025.jpg
538.712	2.19	1	regulate	Run1	regulate/STIM_025.jpg
543.084	1.707	1	regulate	Run1	regulate/STIM_026.jpg
546.937	3.249	1	regulate	Run1	regulate/STIM_026.jpg
552.889	1.747	1	regulate	Run1	regulate/STIM_026.jpg
556.882	2.252	0	regulate	Run1	regulate/STIM_026.jpg
561.406	3.508	0	regulate	Run1	regulate/STIM_027.jpg
567.381	1.654	0	regulate	Run1	regulate/STIM_027.jpg
571.852	2.224	1	regulate	Run1	regulate/STIM_027.jpg
576.235	1.949	1	regulate	Run1	regulate/STIM_027.jpg
581.007	2.707	1	regulate	Run1	regulate/STIM_028.jpg
586.876	2.779	0	regulate	Run1	regulate/STIM_028.jpg
591.704	3.03	1	regulate	Run1	regulate/STIM_028.jpg
597.167	1.38	1	regulate	Run1	regulate/STIM_028.jpg
602.26	3.55	1	regulate	Run1	regulate/STIM_029.jpg
609.361	3.386	0	regulate	Run1	regulate/STIM_029.jpg
614.661	3.155	1	regulate	Run1	regulate/STIM_029.jpg
621.404	2.663	1	regulate	Run1	regulate/STIM_029.jpg
625.997	1.395	1	observe	Run1	observe/STIM_000.jpg
630.555	1.447	1	observe	Run1	observe/STIM_000.jpg
634.656	1.202	1	observe	Run1	observe/STIM_000.jpg
638.221	1.135	1	observe	Run1	observe/STIM_000.jpg
642.77	1.155	1	observe	Run1	observe/STIM_001.jpg
646.462	1.404	0	observe	Run1	observe/STIM_001.jpg
650.622	0.932	1	observe	Run1	observe/STIM_001.jpg
653.841	1.216	1	observe	Run1	observe/STIM_001.jpg
658.201	1.016	1	observe	Run1	observe/STIM_002.jpg
661.473	1.552	1	observe	Run1	observe/STIM_002.jpg
666.705	0.993	1	observe	Run1	observe/STIM_002.jpg
669.843	1.552	1	observe	Run1	observe/STIM_002.jpg
673.362	1.609	1	observe	Run1	observe/STIM_003.jpg
677.79	1.183	1	observe	Run1	observe/STIM_003.jpg
682.277	1.496	1	observe	Run1	observe/STIM_003.jpg
687.371	1.449	1	observe	Run1	observe/STIM_003.jpg
692.75	1.313	1	observe	Run1	observe/STIM_004.jpg
696.158	1.738	1	observe	Run1	observe/STIM_004.jpg
701.09	0.841	1	observe	Run1	observe/STIM_004.jpg
705.81	1.29	1	observe	Run1	observe/STIM_004.jpg
709.695	1.268	1	observe	Run1	observe/STIM_005.jpg
714.641	0.935	1	observe	Run1	observe/STIM_005.jpg
719.24	1.038	1	observe	Run1	observe/STIM_005.jpg
722.903	1.283	1	observe	Run1	observe/STIM_005.jpg
726.24	1.285	1	observe	Run1	observe/STIM_006.jpg
730.972	1.02	1	observe	Run1	observe/STIM_006.jpg
734.292	0.918	1	observe	Run1	observe/STIM_006.jpg
737.383	0.857	1	observe	Run1	observe/STIM_006.jpg
741.126	1.072	1	observe	Run1	observe/STIM_007.jpg
744.734	1.504	1	observe	Run1	observe/STIM_007.jpg
749.909	1.134	1	observe	Run1	observe/STIM_007.jpg
753.931	1.69	1	observe	Run1	observe/STIM_007.jpg
757.548	1.013	1	observe	Run1	observe/STIM_008.jpg
761.325	1.257	1	observe	Run1	observe/STIM_008.jpg
765.421	1.297	1	observe	Run1	observe/STIM_008.jpg
768.988	1.622	1	observe	Run1	observe/STIM_008.jpg
774.015	1.048	1	observe	Run1	observe/STIM_009.jpg
777.84	1.639	1	observe	Run1	observe/STIM_009.jpg
782.467	1.159	1	observe	Run1	observe/STIM_009.jpg
787.129	1.04	1	observe	Run1	observe/STIM_009.jpg
790.383	1.341	1	observe	Run1	observe/STIM_010.jpg
794.612	1.237	1	observe	Run1	observe/STIM_010.jpg
799.137	1.626	0	observe	Run1	observe/STIM_010.jpg
803.949	1.625	1	observe	Run1	observe/STIM_010.jpg
808.8	1.069	0	observe	Run1	observe/STIM_011.jpg
811.9	1.281	1	observe	Run1	observe/STIM_011.jpg
816.644	1.194	1	observe	Run1	observe/STIM_011.jpg
819.913	1.073	1	observe	Run1	observe/STIM_011.jpg
822.956	1.227	1	observe	Run1	observe/STIM_012.jpg
827.724	1.588	1	observe	Run1	observe/STIM_012.jpg
832.556	1.673	0	observe	Run1	observe/STIM_012.jpg
836.66	0.938	1	observe	Run1	observe/STIM_012.jpg
840.823	1.494	1	observe	Run1	observe/STIM_013.jpg
845.635	1.672	1	observe	Run1	observe/STIM_013.jpg
850.154	1.399	1	observe	Run1	observe/STIM_013.jpg
854.029	1.226	1	observe	Run1	observe/STIM_013.jpg
858.769	1.157	1	observe	Run1	observe/STIM_014.jpg
862.057	0.798	1	observe	Run1	observe/STIM_014.jpg
866.534	1.298	1	observe	Run1	observe/STIM_014.jpg
870.584	0.966	1	observe	Run1	observe/STIM_014.jpg
874.632	1.226	0	observe	Run1	observe/STIM_015.jpg
877.92	1.01	1	observe	Run1	observe/STIM_015.jpg
882.451	1.154	1	observe	Run1	observe/STIM_015.jpg
887.315	1.088	1	observe	Run1	observe/STIM_015.jpg
891.024	1.622	1	observe	Run1	observe/STIM_016.jpg
895.587	1.441	1	observe	Run1	observe/STIM_016.jpg
899.714	1.345	1	observe	Run1	observe/STIM_016.jpg
903.742	1.318	1	observe	Run1	observe/STIM_016.jpg
907.647	0.902	1	observe	Run1	observe/STIM_017.jpg
911.558	1.047	1	observe	Run1	observe/STIM_017.jpg
915.724	1.176	1	observe	Run1	observe/STIM_017.jpg
919.521	1.636	1	observe	Run1	observe/STIM_017.jpg
923.348	1.098	1	observe	Run1	observe/STIM_018.jpg
928.185	1.304	1	observe	Run1	observe/STIM_018.jpg
931.791	1.665	1	observe	Run1	observe/STIM_018.jpg
935.569	1.558	1	observe	Run1	observe/STIM_018.jpg
940.9	1.444	1	observe	Run1	observe/STIM_019.jpg
945.956	1.368	0	observe	Run1	observe/STIM_019.jpg
950.671	1.141	1	observe	Run1	observe/STIM_019.jpg
954.442	1.037	1	observe	Run1	observe/STIM_019.jpg
959.031	1.469	1	regulate	Run2	regulate/STIM_000.jpg
964.01	2.72	1	regulate	Run2	regulate/STIM_000.jpg
968.736	2.438	1	regulate	Run2	regulate/STIM_000.jpg
975.121	1.638	1	regulate	Run2	regulate/STIM_000.jpg
978.843	2.384	1	regulate	Run2	regulate/STIM_001.jpg
984.417	1.407	1	regulate	Run2	regulate/STIM_001.jpg
988.112	1.782	1	regulate	Run2	regulate/STIM_001.jpg
991.819	2.099	1	regulate	Run2	regulate/STIM_001.jpg
996.076	1.624	1	regulate	Run2	regulate/STIM_002.jpg
1000.035	2.83	1	regulate	Run2	regulate/STIM_002.jpg
1005.065	2.325	1	regulate	Run2	regulate/STIM_002.jpg
1011.202	1.429	1	regulate	Run2	regulate/STIM_002.jpg
1015.568	1.78	1	regulate	Run2	regulate/STIM_003.jpg
1020.8	2.445	1	regulate	Run2	regulate/STIM_003.jpg
1026.702	1.501	1	regulate	Run2	regulate/STIM_003.jpg
1030.615	1.964	1	regulate	Run2	regulate/STIM_003.jpg
1035.32	2.615	1	regulate	Run2	regulate/STIM_004.jpg
1041.727	2.368	1	regulate	Run2	regulate/STIM_004.jpg
1047.986	1.614	0	regulate	Run2	regulate/STIM_004.jpg
1051.731	2.517	1	regulate	Run2	regulate/STIM_004.jpg
1057.398	2.339	1	regulate	Run2	regulate/STIM_005.jpg
1062.091	1.81	1	regulate	Run2	regulate/STIM_005.jpg
1067.539	1.179	0	regulate	Run2	regulate/STIM_005.jpg
1071.833	1.947	1	regulate	Run2	regulate/STIM_005.jpg
1075.765	2.323	1	regulate	Run2	regulate/STIM_006.jpg
1080.166	2.166	1	regulate	Run2	regulate/STIM_006.jpg
1085.326	1.311	1	regulate	Run2	regulate/STIM_006.jpg
1088.855	1.847	1	regulate	Run2	regulate/STIM_006.jpg
1094.262	1.452	1	regulate	Run2	regulate/STIM_007.jpg
1098.046	1.658	0	regulate	Run2	regulate/STIM_007.jpg
1101.809	2.353	1	regulate	Run2	regulate/STIM_007.jpg
1107.27	1.986	1	regulate	Run2	regulate/STIM_007.jpg
1112.233	2.633	1	regulate	Run2	regulate/STIM_008.jpg
1118.366	1.865	1	regulate	Run2	regulate/STIM_008.jpg
1123.622	1.962	1	regulate	Run2	regulate/STIM_008.jpg
1129.058	1.275	1	regulate	Run2	regulate/STIM_008.jpg
1132.449	2.932	1	regulate	Run2	regulate/STIM_009.jpg
1139.104	2.851	0	regulate	Run2	regulate/STIM_009.jpg
1145.477	1.586	1	regulate	Run2	regulate/STIM_009.jpg
1150.123	2.491	1	regulate	Run2	regulate/STIM_009.jpg
1155.617	2.328	1	regulate	Run2	regulate/STIM_010.jpg
1160.276	2.691	1	regulate	Run2	regulate/STIM_010.jpg
1165.318	2.75	1	regulate	Run2	regulate/STIM_010.jpg
1169.967	1.75	1	regulate	Run2	regulate/STIM_010.jpg
1175.505	1.57	1	regulate	Run2	regulate/STIM_011.jpg
1179.189	2.294	1	regulate	Run2	regulate/STIM_011.jpg
1183.994	1.519	1	regulate	Run2	regulate/STIM_011.jpg
1188.296	1.024	1	regulate	Run2	regulate/STIM_011.jpg
1191.674	2.852	1	regulate	Run2	regulate/STIM_012.jpg
1197.518	2.688	1	regulate	Run2	regulate/STIM_012.jpg
1202.538	1.355	1	regulate	Run2	regulate/STIM_012.jpg
1206.408	1.166	1	regulate	Run2	regulate/STIM_012.jpg
1209.972	1.445	1	regulate	Run2	regulate/STIM_013.jpg
1213.391	2.13	1	regulate	Run2	regulate/STIM_013.jpg
1218.934	2.395	1	regulate	Run2	regulate/STIM_013.jpg
1223.683	2.302	1	regulate	Run2	regulate/STIM_013.jpg
1228.656	2.074	1	regulate	Run2	regulate/STIM_014.jpg
1234.503	2.114	1	regulate	Run2	regulate/STIM_014.jpg
1239.152	1.804	1	regulate	Run2	regulate/STIM_014.jpg
1244.689	2.32	1	regulate	Run2	regulate/STIM_014.jpg
1249.659	2.269	1	regulate	Run2	regulate/STIM_015.jpg
1255.542	2.2	1	regulate	Run2	regulate/STIM_015.jpg
1260.677	2.406	1	regulate	Run2	regulate/STIM_015.jpg
1265.913	2.33	1	regulate	Run2	regulate/STIM_015.jpg
1271.013	1.537	1	regulate	Run2	regulate/STIM_016.jpg
1275.942	2.416	1	regulate	Run2	regulate/STIM_016.jpg
1281.416	2.236	1	regulate	Run2	regulate/STIM_016.jpg
1286.771	2.408	0	regulate	Run2	regulate/STIM_016.jpg
1293.001	2.372	1	regulate	Run2	regulate/STIM_017.jpg
1297.37	1.469	1	regulate	Run2	regulate/STIM_017.jpg
1301.892	2.62	1	regulate	Run2	regulate/STIM_017.jpg
1307.235	1.574	1	regulate	Run2	regulate/STIM_017.jpg
1310.808	1.856	0	regulate	Run2	regulate/STIM_018.jpg
1315.419	1.512	0	regulate	Run2	regulate/STIM_018.jpg
1319.185	2.487	1	regulate	Run2	regulate/STIM_018.jpg
1324.576	2.327	1	regulate	Run2	regulate/STIM_018.jpg
1330.501	1.648	1	regulate	Run2	regulate/STIM_019.jpg
1335.95	2.616	1	regulate	Run2	regulate/STIM_019.jpg
1341.267	2.198	1	regulate	Run2	regulate/STIM_019.jpg
1347.139	1.54	1	regulate	Run2	regulate/STIM_019.jpg
1350.959	2.336	1	regulate	Run2	regulate/STIM_020.jpg
1355.818	2.345	1	regulate	Run2	regulate/STIM_020.jpg
1360.379	1.978	1	regulate	Run2	regulate/STIM_020.jpg
1366.192	1.233	1	regulate	Run2	regulate/STIM_020.jpg
1369.544	1.785	1	regulate	Run2	regulate/STIM_021.jpg
1375.132	2.637	1	regulate	Run2	regulate/STIM_021.jpg
1380.485	2.604	1	regulate	Run2	regulate/STIM_021.jpg
1385.209	1.165	1	regulate	Run2	regulate/STIM_021.jpg
1388.588	2.472	1	regulate	Run2	regulate/STIM_022.jpg
1393.972	2.763	0	regulate	Run2	regulate/STIM_022.jpg
1399.715	2.374	1	regulate	Run2	regulate/STIM_022.jpg
1404.841	1.408	1	regulate	Run2	regulate/STIM_022.jpg
1408.579	2.031	1	regulate	Run2	regulate/STIM_023.jpg
1413.432	2.1	1	regulate	Run2	regulate/STIM_023.jpg
1418.804	1.645	1	regulate	Run2	regulate/STIM_023.jpg
1423.258	1.85	1	regulate	Run2	regulate/STIM_023.jpg
1427.986	1.936	1	regulate	Run2	regulate/STIM_024.jpg
1433.664	1.527	0	regulate	Run2	regulate/STIM_024.jpg
1438.02	1.315	0	regulate	Run2	regulate/STIM_024.jpg
1441.425	1.829	1	regulate	Run2	regulate/STIM_024.jpg
1446.486	1.64	1	regulate	Run2	regulate/STIM_025.jpg
1450.272	1.99	1	regulate	Run2	regulate/STIM_025.jpg
1455.824	1.772	1	regulate	Run2	regulate/STIM_025.jpg
1460.468	1.873	1	regulate	Run2	regulate/STIM_025.jpg
1464.736	2.539	1	regulate	Run2	regulate/STIM_026.jpg
1469.868	2.842	1	regulate	Run2	regulate/STIM_026.jpg
1476.48	2.434	1	regulate	Run2	regulate/STIM_026.jpg
1482.353	1.756	0	regulate	Run2	regulate/STIM_026.jpg
1487.893	2.402	1	regulate	Run2	regulate/STIM_027.jpg
1492.715	2.324	1	regulate	Run2	regulate/STIM_027.jpg
1497.441	2.608	1	regulate	Run2	regulate/STIM_027.jpg
1502.156	2.383	0	regulate	Run2	regulate/STIM_027.jpg
1508.241	2.837	1	regulate	Run2	regulate/STIM_028.jpg
1514.064	2.732	1	regulate	Run2	regulate/STIM_028.jpg
1518.836	1.731	1	regulate	Run2	regulate/STIM_028.jpg
1522.945	1.87	1	regulate	Run2	regulate/STIM_028.jpg
1527.602	3.019	1	regulate	Run2	regulate/STIM_029.jpg
1533.8	2.419	1	regulate	Run2	regulate/STIM_029.jpg
1538.844	2.276	1	regulate	Run2	regulate/STIM_029.jpg
1543.063	1.453	1	regulate	Run2	regulate/STIM_029.jpg
1547.083	1.386	0	observe	Run2	observe/STIM_000.jpg
1551.638	1.051	1	observe	Run2	observe/STIM_000.jpg
1555.627	0.921	1	observe	Run2	observe/STIM_000.jpg
1559.692	1.381	1	observe	Run2	observe/STIM_000.jpg
1563.923	1.665	1	observe	Run2	observe/STIM_001.jpg
1567.885	1.484	1	observe	Run2	observe/STIM_001.jpg
1572.326	1.434	1	observe	Run2	observe/STIM_001.jpg
1577.577	1.39	1	observe	Run2	observe/STIM_001.jpg
1581.033	1.015	1	observe	Run2	observe/STIM_002.jpg
1584.067	1.534	1	observe	Run2	observe/STIM_002.jpg
1588.373	0.864	1	observe	Run2	observe/STIM_002.jpg
1591.877	1.388	1	observe	Run2	observe/STIM_002.jpg
1596.471	1.078	1	observe	Run2	observe/STIM_003.jpg
1600.448	1.1	1	observe	Run2	observe/STIM_003.jpg
1604.866	0.968	1	observe	Run2	observe/STIM_003.jpg
1608.8	1.069	1	observe	Run2	observe/STIM_003.jpg
1612.801	0.828	1	observe	Run2	observe/STIM_004.jpg
1617.046	0.995	1	observe	Run2	observe/STIM_004.jpg
1620.978	1.119	1	observe	Run2	observe/STIM_004.jpg
1624.309	1.221	1	observe	Run2	observe/STIM_004.jpg
1628.417	1.314	1	observe	Run2	observe/STIM_005.jpg
1633.251	1.06	1	observe	Run2	observe/STIM_005.jpg
1636.951	1.014	1	observe	Run2	observe/STIM_005.jpg
1640.565	1.148	1	observe	Run2	observe/STIM_005.jpg
1643.721	1.175	1	observe	Run2	observe/STIM_006.jpg
1647.474	1.381	1	observe	Run2	observe/STIM_006.jpg
1652.223	1.351	1	observe	Run2	observe/STIM_006.jpg
1657.112	1.26	1	observe	Run2	observe/STIM_006.jpg
1660.914	1.064	1	observe	Run2	observe/STIM_007.jpg
1665.772	1.536	1	observe	Run2	observe/STIM_007.jpg
1671.135	1.013	1	observe	Run2	observe/STIM_007.jpg
1675.676	1.19	1	observe	Run2	observe/STIM_007.jpg
1679.638	0.885	1	observe	Run2	observe/STIM_008.jpg
1684.447	1.259	1	observe	Run2	observe/STIM_008.jpg
1688.083	1.284	1	observe	Run2	observe/STIM_008.jpg
1693.112	1.395	1	observe	Run2	observe/STIM_008.jpg
1696.836	1.555	1	observe	Run2	observe/STIM_009.jpg
1701.579	1.347	1	observe	Run2	observe/STIM_009.jpg
1705.704	1.239	1	observe	Run2	observe/STIM_009.jpg
1709.928	1.488	1	observe	Run2	observe/STIM_009.jpg
1714.072	1.669	1	observe	Run2	observe/STIM_010.jpg
1717.661	1.34	1	observe	Run2	observe/STIM_010.jpg
1721.452	1.317	0	observe	Run2	observe/STIM_010.jpg
1726.239	1.618	1	observe	Run2	observe/STIM_010.jpg
1730.214	1.036	0	observe	Run2	observe/STIM_011.jpg
1733.606	1.089	1	observe	Run2	observe/STIM_011.jpg
1737.64	0.924	1	observe	Run2	observe/STIM_011.jpg
1741.205	1.536	1	observe	Run2	observe/STIM_011.jpg
1745.084	1.36	1	observe	Run2	observe/STIM_012.jpg
1750.14	1.346	1	observe	Run2	observe/STIM_012.jpg
1753.839	1.314	0	observe	Run2	observe/STIM_012.jpg
1757.465	1.324	1	observe	Run2	observe/STIM_012.jpg
1762.323	1.334	1	observe	Run2	observe/STIM_013.jpg
1766.988	1.102	1	observe	Run2	observe/STIM_013.jpg
1771.78	1.403	1	observe	Run2	observe/STIM_013.jpg
1775.975	1.31	1	observe	Run2	observe/STIM_013.jpg
1781.207	0.992	1	observe	Run2	observe/STIM_014.jpg
1785.052	0.998	1	observe	Run2	observe/STIM_014.jpg
1788.559	1.06	1	observe	Run2	observe/STIM_014.jpg
1791.653	1.46	1	observe	Run2	observe/STIM_014.jpg
1795.684	1.023	1	observe	Run2	observe/STIM_015.jpg
1799.655	1.44	1	observe	Run2	observe/STIM_015.jpg
1803.668	0.876	1	observe	Run2	observe/STIM_015.jpg
1807.838	1.254	1	observe	Run2	observe/STIM_015.jpg
1812.621	1.632	1	observe	Run2	observe/STIM_016.jpg
1816.926	0.966	1	observe	Run2	observe/STIM_016.jpg
1820.427	1.24	1	observe	Run2	observe/STIM_016.jpg
1824.678	1.079	1	observe	Run2	observe/STIM_016.jpg
1828.021	0.972	1	observe	Run2	observe/STIM_017.jpg
1831.965	1.639	1	observe	Run2	observe/STIM_017.jpg
1836.297	1.512	1	observe	Run2	observe/STIM_017.jpg
1840.464	1.451	1	observe	Run2	observe/STIM_017.jpg
1845.525	0.973	1	observe	Run2	observe/STIM_018.jpg
1849.575	0.952	1	observe	Run2	observe/STIM_018.jpg
1853.148	1.61	1	observe	Run2	observe/STIM_018.jpg
1858.149	1.464	1	observe	Run2	observe/STIM_018.jpg
1863.229	1.388	1	observe	Run2	observe/STIM_019.jpg
1867.292	1.438	1	observe	Run2	observe/STIM_019.jpg
1870.854	1.208	1	observe	Run2	observe/STIM_019.jpg
1875.306	1.613	1	observe	Run2	observe/STIM_019.jpg
1879.875	1.177	1	regulate	Run3	regulate/STIM_000.jpg
1883.395	1.149	1	regulate	Run3	regulate/STIM_000.jpg
1886.956	1.61	1	regulate	Run3	regulate/STIM_000.jpg
1891.861	2.036	1	regulate	Run3	regulate/STIM_000.jpg
1895.945	2.271	1	regulate	Run3	regulate/STIM_001.jpg
1900.29	1.689	1	regulate	Run3	regulate/STIM_001.jpg
1904.935	1.236	1	regulate	Run3	regulate/STIM_001.jpg
1909.331	2.36	1	regulate	Run3	regulate/STIM_001.jpg
1914.499	2.429	1	regulate	Run3	regulate/STIM_002.jpg
1919.552	1.812	1	regulate	Run3	regulate/STIM_002.jpg
1924.825	2.079	1	regulate	Run3	regulate/STIM_002.jpg
1930.125	2.206	1	regulate	Run3	regulate/STIM_002.jpg
1934.832	2.23	1	regulate	Run3	regulate/STIM_003.jpg
1940.133	1.123	1	regulate	Run3	regulate/STIM_003.jpg
1944.842	1.241	1	regulate	Run3	regulate/STIM_003.jpg
1950.003	1.659	1	regulate	Run3	regulate/STIM_003.jpg
1954.63	1.914	1	regulate	Run3	regulate/STIM_004.jpg
1959.297	2.324	1	regulate	Run3	regulate/STIM_004.jpg
1964.712	2.457	1	regulate	Run3	regulate/STIM_004.jpg
1969.993	1.547	1	regulate	Run3	regulate/STIM_004.jpg
1974.465	1.679	1	regulate	Run3	regulate/STIM_005.jpg
1978.846	1.794	1	regulate	Run3	regulate/STIM_005.jpg
1983.254	2.052	1	regulate	Run3	regulate/STIM_005.jpg
1988.664	1.896	1	regulate	Run3	regulate/STIM_005.jpg
1993.332	2.558	1	regulate	Run3	regulate/STIM_006.jpg
1999.394	1.581	1	regulate	Run3	regulate/STIM_006.jpg
2003.078	1.93	0	regulate	Run3	regulate/STIM_006.jpg
2007.671	1.186	1	regulate	Run3	regulate/STIM_006.jpg
2011.465	1.518	0	regulate	Run3	regulate/STIM_007.jpg
2015.061	1.459	1	regulate	Run3	regulate/STIM_007.jpg
2020.462	1.432	1	regulate	Run3	regulate/STIM_007.jpg
2025.746	2.462	1	regulate	Run3	regulate/STIM_007.jpg
2031.94	1.256	1	regulate	Run3	regulate/STIM_008.jpg
2035.861	2.108	1	regulate	Run3	regulate/STIM_008.jpg
2041.003	2.165	1	regulate	Run3	regulate/STIM_008.jpg
2046.9	2.442	1	regulate	Run3	regulate/STIM_008.jpg
2051.833	1.114	1	regulate	Run3	regulate/STIM_009.jpg
2056.01	2.045	1	regulate	Run3	regulate/STIM_009.jpg
2061.682	2.494	1	regulate	Run3	regulate/STIM_009.jpg
2068.113	1.295	1	regulate	Run3	regulate/STIM_009.jpg
2072.173	2.446	1	regulate	Run3	regulate/STIM_010.jpg
2076.662	2.133	1	regulate	Run3	regulate/STIM_010.jpg
2082.407	1.291	1	regulate	Run3	regulate/STIM_010.jpg
2086.229	2.553	1	regulate	Run3	regulate/STIM_010.jpg
2092.094	2.391	1	regulate	Run3	regulate/STIM_011.jpg
2098.143	1.391	1	regulate	Run3	regulate/STIM_011.jpg
2101.595	1.254	1	regulate	Run3	regulate/STIM_011.jpg
2106.501	1.161	0	regulate	Run3	regulate/STIM_011.jpg
2110.898	1.323	1	regulate	Run3	regulate/STIM_012.jpg
2114.718	1.662	1	regulate	Run3	regulate/STIM_012.jpg
2118.751	1.202	1	regulate	Run3	regulate/STIM_012.jpg
2122.386	1.379	0	regulate	Run3	regulate/STIM_012.jpg
2125.997	2.346	1	regulate	Run3	regulate/STIM_013.jpg
2130.501	1.777	1	regulate	Run3	regulate/STIM_013.jpg
2135.495	2.396	1	regulate	Run3	regulate/STIM_013.jpg
2140.64	2.305	1	regulate	Run3	regulate/STIM_013.jpg
2146.722	2.186	1	regulate	Run3	regulate/STIM_014.jpg
2151.825	1.777	1	regulate	Run3	regulate/STIM_014.jpg
2155.548	1.7	1	regulate	Run3	regulate/STIM_014.jpg
2159.763	1.706	1	regulate	Run3	regulate/STIM_014.jpg
2164.753	1.374	1	regulate	Run3	regulate/STIM_015.jpg
2168.727	1.641	1	regulate	Run3	regulate/STIM_015.jpg
2173.732	1.89	1	regulate	Run3	regulate/STIM_015.jpg
2178.222	2.5	1	regulate	Run3	regulate/STIM_015.jpg
2184.313	2.154	0	regulate	Run3	regulate/STIM_016.jpg
2190.095	2.522	1	regulate	Run3	regulate/STIM_016.jpg
2195.295	1.399	1	regulate	Run3	regulate/STIM_016.jpg
2199.796	1.324	1	regulate	Run3	regulate/STIM_016.jpg
2203.905	2.57	1	regulate	Run3	regulate/STIM_017.jpg
2208.636	2.034	1	regulate	Run3	regulate/STIM_017.jpg
2214.671	2.175	1	regulate	Run3	regulate/STIM_017.jpg
2219.548	2.576	1	regulate	Run3	regulate/STIM_017.jpg
2225.443	1.7	1	regulate	Run3	regulate/STIM_018.jpg
2229.199	1.944	1	regulate	Run3	regulate/STIM_018.jpg
2233.719	1.223	1	regulate	Run3	regulate/STIM_018.jpg
2238.051	2.401	1	regulate	Run3	regulate/STIM_018.jpg
2243.913	1.307	1	regulate	Run3	regulate/STIM_019.jpg
2247.979	2.256	1	regulate	Run3	regulate/STIM_019.jpg
2254.12	1.406	1	regulate	Run3	regulate/STIM_019.jpg
2258.085	1.978	1	regulate	Run3	regulate/STIM_019.jpg
2263.954	2.345	0	regulate	Run3	regulate/STIM_020.jpg
2268.605	1.849	1	regulate	Run3	regulate/STIM_020.jpg
2273.347	1.305	1	regulate	Run3	regulate/STIM_020.jpg
2278.03	1.826	1	regulate	Run3	regulate/STIM_020.jpg
2282.428	1.35	0	regulate	Run3	regulate/STIM_021.jpg
2287.382	1.809	1	regulate	Run3	regulate/STIM_021.jpg
2292.008	1.298	1	regulate	Run3	regulate/STIM_021.jpg
2296.841	1.838	1	regulate	Run3	regulate/STIM_021.jpg
2302.541	1.674	1	regulate	Run3	regulate/STIM_022.jpg
2307.647	1.813	1	regulate	Run3	regulate/STIM_022.jpg
2311.648	1.588	1	regulate	Run3	regulate/STIM_022.jpg
2316.167	1.601	1	regulate	Run3	regulate/STIM_022.jpg
2321.049	1.963	0	regulate	Run3	regulate/STIM_023.jpg
2326.264	1.742	1	regulate	Run3	regulate/STIM_023.jpg
2330.057	1.383	1	regulate	Run3	regulate/STIM_023.jpg
2333.928	2.148	1	regulate	Run3	regulate/STIM_023.jpg
2339.408	1.578	1	regulate	Run3	regulate/STIM_024.jpg
2342.981	2.336	1	regulate	Run3	regulate/STIM_024.jpg
2347.813	2.383	0	regulate	Run3	regulate/STIM_024.jpg
2352.89	1.321	1	regulate	Run3	regulate/STIM_024.jpg
2358.261	2.297	1	regulate	Run3	regulate/STIM_025.jpg
2363.332	2.282	1	regulate	Run3	regulate/STIM_025.jpg
2368.769	1.295	1	regulate	Run3	regulate/STIM_025.jpg
2372.391	1.64	1	regulate	Run3	regulate/STIM_025.jpg
2377.557	1.969	1	regulate	Run3	regulate/STIM_026.jpg
2382.754	1.671	1	regulate	Run3	regulate/STIM_026.jpg
2387.605	1.808	1	regulate	Run3	regulate/STIM_026.jpg
2392.74	2.347	1	regulate	Run3	regulate/STIM_026.jpg
2397.657	1.46	1	regulate	Run3	regulate/STIM_027.jpg
2402.516	1.913	1	regulate	Run3	regulate/STIM_027.jpg
2407.011	2.157	1	regulate	Run3	regulate/STIM_027.jpg
2412.152	1.554	1	regulate	Run3	regulate/STIM_027.jpg
2417.597	1.334	1	regulate	Run3	regulate/STIM_028.jpg
2422.256	1.575	1	regulate	Run3	regulate/STIM_028.jpg
2427.583	2.528	0	regulate	Run3	regulate/STIM_028.jpg
2432.568	1.522	1	regulate	Run3	regulate/STIM_028.jpg
2436.618	1.649	1	regulate	Run3	regulate/STIM_029.jpg
2441.055	1.965	1	regulate	Run3	regulate/STIM_029.jpg
2445.137	1.987	1	regulate	Run3	regulate/STIM_029.jpg
2449.955	1.232	1	regulate	Run3	regulate/STIM_029.jpg
2453.43	0.791	1	observe	Run3	observe/STIM_000.jpg
2457.287	0.88	1	observe	Run3	observe/STIM_000.jpg
2461.968	1.156	1	observe	Run3	observe/STIM_000.jpg
2466.021	1.38	1	observe	Run3	observe/STIM_000.jpg
2469.802	1.54	0	observe	Run3	observe/STIM_001.jpg
2475.239	1.585	1	observe	Run3	observe/STIM_001.jpg
2480.663	1.537	1	observe	Run3	observe/STIM_001.jpg
2484.455	1.37	1	observe	Run3	observe/STIM_001.jpg
2489.445	1.272	1	observe	Run3	observe/STIM_002.jpg
2493.962	1.6	1	observe	Run3	observe/STIM_002.jpg
2498.116	0.929	1	observe	Run3	observe/STIM_002.jpg
2502.034	0.856	1	observe	Run3	observe/STIM_002.jpg
2505.598	1.27	1	observe	Run3	observe/STIM_003.jpg
2510.454	1.629	0	observe	Run3	observe/STIM_003.jpg
2515.661	1.306	1	observe	Run3	observe/STIM_003.jpg
2520.05	1.192	1	observe	Run3	observe/STIM_003.jpg
2524.347	0.884	1	observe	Run3	observe/STIM_004.jpg
2528.509	0.927	1	observe	Run3	observe/STIM_004.jpg
2532.852	1.263	1	observe	Run3	observe/STIM_004.jpg
2537.824	1.524	1	observe	Run3	observe/STIM_004.jpg
2542.669	1.497	1	observe	Run3	observe/STIM_005.jpg
2546.688	1.596	1	observe	Run3	observe/STIM_005.jpg
2551.194	0.996	1	observe	Run3	observe/STIM_005.jpg
2554.647	0.986	1	observe	Run3	observe/STIM_005.jpg
2558.548	0.881	1	observe	Run3	observe/STIM_006.jpg
2562.326	1.736	1	observe	Run3	observe/STIM_006.jpg
2567.794	1.509	1	observe	Run3	observe/STIM_006.jpg
2572.524	1.35	1	observe	Run3	observe/STIM_006.jpg
2575.946	1.172	1	observe	Run3	observe/STIM_007.jpg
2580.023	1.152	1	observe	Run3	observe/STIM_007.jpg
2584.684	1.402	1	observe	Run3	observe/STIM_007.jpg
2589.529	1.389	1	observe	Run3	observe/STIM_007.jpg
2594.451	1.441	0	observe	Run3	observe/STIM_008.jpg
2598.968	1.111	1	observe	Run3	observe/STIM_008.jpg
2603.844	0.987	1	observe	Run3	observe/STIM_008.jpg
2606.887	1.081	1	observe	Run3	observe/STIM_008.jpg
2610.248	1.054	1	observe	Run3	observe/STIM_009.jpg
2613.812	1.704	1	observe	Run3	observe/STIM_009.jpg
2617.828	1.168	1	observe	Run3	observe/STIM_009.jpg
2622.11	1.707	1	observe	Run3	observe/STIM_009.jpg
2627.03	0.797	0	observe	Run3	observe/STIM_010.jpg
2630.796	1.012	1	observe	Run3	observe/STIM_010.jpg
2634.008	1.377	1	observe	Run3	observe/STIM_010.jpg
2638.859	1.164	1	observe	Run3	observe/STIM_010.jpg
2642.429	1.375	1	observe	Run3	observe/STIM_011.jpg
2646.357	1.067	1	observe	Run3	observe/STIM_011.jpg
2650.464	1.693	1	observe	Run3	observe/STIM_011.jpg
2655.314	0.991	1	observe	Run3	observe/STIM_011.jpg
2659.058	1.288	1	observe	Run3	observe/STIM_012.jpg
2664.283	1.446	1	observe	Run3	observe/STIM_012.jpg
2669.524	1.226	1	observe	Run3	observe/STIM_012.jpg
2674.273	1.625	1	observe	Run3	observe/STIM_012.jpg
2678.723	1.559	1	observe	Run3	observe/STIM_013.jpg
2683.361	0.934	1	observe	Run3	observe/STIM_013.jpg
2687.222	1.074	1	observe	Run3	observe/STIM_013.jpg
2691.69	1.212	1	observe	Run3	observe/STIM_013.jpg
2696.504	1.381	1	observe	Run3	observe/STIM_014.jpg
2701.759	1.1	1	observe	Run3	observe/STIM_014.jpg
2705.626	1.278	0	observe	Run3	observe/STIM_014.jpg
2708.927	1.703	1	observe	Run3	observe/STIM_014.jpg
2714.375	1.152	1	observe	Run3	observe/STIM_015.jpg
2718.573	0.802	1	observe	Run3	observe/STIM_015.jpg
2722.208	1.214	1	observe	Run3	observe/STIM_015.jpg
2727.209	1.318	1	observe	Run3	observe/STIM_015.jpg
2730.611	1.03	1	observe	Run3	observe/STIM_016.jpg
2735.427	0.993	1	observe	Run3	observe/STIM_016.jpg
2738.483	1.17	1	observe	Run3	observe/STIM_016.jpg
2741.876	1.496	1	observe	Run3	observe/STIM_016.jpg
2745.649	1.041	1	observe	Run3	observe/STIM_017.jpg
2748.569	1.612	1	observe	Run3	observe/STIM_017.jpg
2753.802	1.558	0	observe	Run3	observe/STIM_017.jpg
2758.864	1.33	1	observe	Run3	observe/STIM_017.jpg
2762.288	1.084	1	observe	Run3	observe/STIM_018.jpg
2765.809	1.515	1	observe	Run3	observe/STIM_018.jpg
2769.714	1.428	1	observe	Run3	observe/STIM_018.jpg
2774.542	1.178	1	observe	Run3	observe/STIM_018.jpg
2777.692	1.331	1	observe	Run3	observe/STIM_019.jpg
2781.027	1.374	1	observe	Run3	observe/STIM_019.jpg
2785.531	1.249	1	observe	Run3	observe/STIM_019.jpg
2789.317	1.409	1	observe	Run3	observe/STIM_019.jpg
