onset	duration	accuracy	trial_type	learning_stage	stimulus
0.0	2.448	correct	regulate	Run1	regulate/STIM_000.jpg
5.372	1.674	correct	regulate	Run1	regulate/STIM_000.jpg
9.319	1.454	correct	regulate	Run1	regulate/STIM_000.jpg
14.765	2.802	correct	regulate	Run1	regulate/STIM_000.jpg
21.329	2.1	incorrect	regulate	Run1	regulate/STIM_001.jpg
26.365	1.681	correct	regulate	Run1	regulate/STIM_001.jpg
30.083	2.11	correct	regulate	Run1	regulate/STIM_001.jpg
34.276	2.187	correct	regulate	Run1	regulate/STIM_001.jpg
39.362	2.734	correct	regulate	Run1	regulate/STIM_002.jpg
45.883	1.999	correct	regulate	Run1	regulate/STIM_002.jpg
51.769	2.616	correct	regulate	Run1	regulate/STIM_002.jpg
56.713	2.637	correct	regulate	Run1	regulate/STIM_002.jpg
62.275	2.799	correct	regulate	Run1	regulate/STIM_003.jpg
68.555	3.083	correct	regulate	Run1	regulate/STIM_003.jpg
75.572	2.447	correct	regulate	Run1	regulate/STIM_003.jpg
81.286	1.326	correct	regulate	Run1	regulate/STIM_003.jpg
85.467	2.416	incorrect	regulate	Run1	regulate/STIM_004.jpg
91.439	2.831	correct	regulate	Run1	regulate/STIM_004.jpg
98.089	2.614	correct	regulate	Run1	regulate/STIM_004.jpg
102.749	1.839	correct	regulate	Run1	regulate/STIM_004.jpg
107.945	2.273	correct	regulate	Run1	regulate/STIM_005.jpg
112.54	2.831	correct	regulate	Run1	regulate/STIM_005.jpg
118.908	2.121	correct	regulate	Run1	regulate/STIM_005.jpg
123.841	1.804	incorrect	regulate	Run1	regulate/STIM_005.jpg
127.911	2.501	correct	regulate	Run1	regulate/STIM_006.jpg
133.195	1.908	incorrect	regulate	Run1	regulate/STIM_006.jpg
138.803	1.949	incorrect	regulate	Run1	regulate/STIM_006.jpg
143.671	2.393	correct	regulate	Run1	regulate/STIM_006.jpg
149.817	1.569	incorrect	regulate	Run1	regulate/STIM_007.jpg
154.834	2.396	correct	regulate	Run1	regulate/STIM_007.jpg
160.757	2.436	correct	regulate	Run1	regulate/STIM_007.jpg
166.408	1.952	correct	regulate	Run1	regulate/STIM_007.jpg
172.043	2.186	correct	regulate	Run1	regulate/STIM_008.jpg
177.926	2.535	incorrect	regulate	Run1	regulate/STIM_008.jpg
183.876	1.293	correct	regulate	Run1	regulate/STIM_008.jpg
188.454	1.232	correct	regulate	Run1	regulate/STIM_008.jpg
193.336	1.794	incorrect	regulate	Run1	regulate/STIM_009.jpg
198.777	1.858	correct	regulate	Run1	regulate/STIM_009.jpg
203.7	2.667	correct	regulate	Run1	regulate/STIM_009.jpg
208.452	2.605	incorrect	regulate	Run1	regulate/STIM_009.jpg
213.701	2.171	correct	regulate	Run1	regulate/STIM_010.jpg
219.76	3.021	correct	regulate	Run1	regulate/STIM_010.jpg
226.59	2.758	correct	regulate	Run1	regulate/STIM_010.jpg
231.831	2.514	correct	regulate	Run1	regulate/STIM_010.jpg
237.842	2.897	incorrect	regulate	Run1	regulate/STIM_011.jpg
244.717	1.784	correct	regulate	Run1	regulate/STIM_011.jpg
249.013	1.624	incorrect	regulate	Run1	regulate/STIM_011.jpg
254.462	1.682	correct	regulate	Run1	regulate/STIM_011.jpg
259.325	2.231	correct	regulate	Run1	regulate/STIM_012.jpg
265.448	1.62	correct	regulate	Run1	regulate/STIM_012.jpg
269.963	2.003	incorrect	regulate	Run1	regulate/STIM_012.jpg
274.258	1.503	correct	regulate	Run1	regulate/STIM_012.jpg
277.847	3.109	correct	regulate	Run1	regulate/STIM_013.jpg
284.392	1.727	correct	regulate	Run1	regulate/STIM_013.jpg
289.397	2.022	incorrect	regulate	Run1	regulate/STIM_013.jpg
294.785	2.489	incorrect	regulate	Run1	regulate/STIM_013.jpg
300.757	1.497	incorrect	regulate	Run1	regulate/STIM_014.jpg
305.278	2.674	correct	regulate	Run1	regulate/STIM_014.jpg
310.277	2.292	correct	regulate	Run1	regulate/STIM_014.jpg
315.588	1.255	correct	regulate	Run1	regulate/STIM_014.jpg
320.129	1.794	correct	regulate	Run1	regulate/STIM_015.jpg
325.839	1.775	correct	regulate	Run1	regulate/STIM_015.jpg
331.474	2.377	correct	regulate	Run1	regulate/STIM_015.jpg
336.434	1.394	correct	regulate	Run1	regulate/STIM_015.jpg
339.884	2.546	incorrect	regulate	Run1	regulate/STIM_016.jpg
344.619	1.557	correct	regulate	Run1	regulate/STIM_016.jpg
349.942	2.253	correct	regulate	Run1	regulate/STIM_016.jpg
355.867	2.734	incorrect	regulate	Run1	regulate/STIM_016.jpg
361.811	3.143	correct	regulate	Run1	regulate/STIM_017.jpg
367.404	1.784	correct	regulate	Run1	regulate/STIM_017.jpg
372.409	2.181	correct	regulate	Run1	regulate/STIM_017.jpg
378.087	2.284	correct	regulate	Run1	regulate/STIM_017.jpg
383.843	2.179	correct	regulate	Run1	regulate/STIM_018.jpg
389.517	1.795	correct	regulate	Run1	regulate/STIM_018.jpg
394.18	2.159	correct	regulate	Run1	regulate/STIM_018.jpg
399.031	1.523	incorrect	regulate	Run1	regulate/STIM_018.jpg
404.251	2.741	correct	regulate	Run1	regulate/STIM_019.jpg
409.325	2.777	correct	regulate	Run1	regulate/STIM_019.jpg
416.101	2.259	correct	regulate	Run1	regulate/STIM_019.jpg
420.961	2.462	correct	regulate	Run1	regulate/STIM_019.jpg
426.929	2.288	correct	regulate	Run1	regulate/STIM_020.jpg
432.167	2.147	correct	regulate	Run1	regulate/STIM_020.jpg
436.36	2.593	correct	regulate	Run1	regulate/STIM_020.jpg
442.381	1.539	correct	regulate	Run1	regulate/STIM_020.jpg
446.372	1.929	correct	regulate	Run1	regulate/STIM_021.jpg
451.942	1.446	incorrect	regulate	Run1	regulate/STIM_021.jpg
456.56	1.728	correct	regulate	Run1	regulate/STIM_021.jpg
461.573	2.047	correct	regulate	Run1	regulate/STIM_021.jpg
466.272	3.193	incorrect	regulate	Run1	regulate/STIM_022.jpg
472.094	2.174	incorrect	regulate	Run1	regulate/STIM_022.jpg
476.939	1.53	incorrect	regulate	Run1	regulate/STIM_022.jpg
481.938	1.976	correct	regulate	Run1	regulate/STIM_022.jpg
486.469	3.102	correct	regulate	Run1	regulate/STIM_023.jpg
492.005	3.002	correct	regulate	Run1	regulate/STIM_023.jpg
498.346	1.47	correct	regulate	Run1	regulate/STIM_023.jpg
502.887	2.126	incorrect	regulate	Run1	regulate/STIM_023.jpg
508.314	2.548	correct	regulate	Run1	regulate/STIM_024.jpg
514.186	2.082	correct	regulate	Run1	regulate/STIM_024.jpg
518.892	2.435	correct	regulate	Run1	regulate/STIM_024.jpg
524.164	1.262	correct	regulate	Run1	regulate/STIM_024.jpg
528.939	2.484	correct	regulate	Run1	regulate/STIM_025.jpg
534.354	1.356	correct	regulate	Run1	regulate/STIM_025.jpg
538.861	2.741	correct	regulate	Run1	regulate/STIM_025.jpg
544.648	2.072	incorrect	regulate	Run1	regulate/STIM_025.jpg
549.596	1.76	correct	regulate	Run1	regulate/STIM_026.jpg
554.466	1.438	correct	regulate	Run1	regulate/STIM_026.jpg
558.199	1.874	correct	regulate	Run1	regulate/STIM_026.jpg
563.514	2.263	incorrect	regulate	Run1	regulate/STIM_026.jpg
569.501	2.581	incorrect	regulate	Run1	regulate/STIM_027.jpg
574.676	2.455	incorrect	regulate	Run1	regulate/STIM_027.jpg
580.151	2.813	correct	regulate	Run1	regulate/STIM_027.jpg
586.762	2.652	correct	regulate	Run1	regulate/STIM_027.jpg
591.583	1.702	correct	regulate	Run1	regulate/STIM_028.jpg
595.323	1.402	incorrect	regulate	Run1	regulate/STIM_028.jpg
600.684	2.729	correct	regulate	Run1	regulate/STIM_028.jpg
606.621	2.139	correct	regulate	Run1	regulate/STIM_028.jpg
611.049	1.568	incorrect	regulate	Run1	regulate/STIM_029.jpg
616.113	3.131	incorrect	regulate	Run1	regulate/STIM_029.jpg
622.987	2.116	correct	regulate	Run1	regulate/STIM_029.jpg
629.033	1.68	correct	regulate	Run1	regulate/STIM_029.jpg
634.485	0.781	correct	observe	Run1	observe/STIM_000.jpg
638.315	0.938	correct	observe	Run1	observe/STIM_000.jpg
641.869	1.469	correct	observe	Run1	observe/STIM_000.jpg
645.845	0.889	correct	observe	Run1	observe/STIM_000.jpg
650.1	1.414	correct	observe	Run1	observe/STIM_001.jpg
655.455	0.905	incorrect	observe	Run1	observe/STIM_001.jpg
658.798	1.248	correct	observe	Run1	observe/STIM_001.jpg
663.275	1.394	correct	observe	Run1	observe/STIM_001.jpg
668.177	1.154	correct	observe	Run1	observe/STIM_002.jpg
672.933	1.042	correct	observe	Run1	observe/STIM_002.jpg
676.67	1.033	correct	observe	Run1	observe/STIM_002.jpg
680.567	1.504	correct	observe	Run1	observe/STIM_002.jpg
684.7	1.415	correct	observe	Run1	observe/STIM_003.jpg
688.766	0.914	correct	observe	Run1	observe/STIM_003.jpg
692.095	1.276	correct	observe	Run1	observe/STIM_003.jpg
696.958	1.506	correct	observe	Run1	observe/STIM_003.jpg
700.489	0.972	correct	observe	Run1	observe/STIM_004.jpg
703.824	1.38	correct	observe	Run1	observe/STIM_004.jpg
707.819	1.227	correct	observe	Run1	observe/STIM_004.jpg
711.074	1.386	correct	observe	Run1	observe/STIM_004.jpg
716.437	0.89	correct	observe	Run1	observe/STIM_005.jpg
720.23	0.81	correct	observe	Run1	observe/STIM_005.jpg
723.396	1.378	correct	observe	Run1	observe/STIM_005.jpg
727.76	1.361	correct	observe	Run1	observe/STIM_005.jpg
731.479	1.0	correct	observe	Run1	observe/STIM_006.jpg
734.677	0.821	correct	observe	Run1	observe/STIM_006.jpg
738.824	1.101	correct	observe	Run1	observe/STIM_006.jpg
742.631	1.277	correct	observe	Run1	observe/STIM_006.jpg
746.053	1.493	correct	observe	Run1	observe/STIM_007.jpg
750.003	0.94	correct	observe	Run1	observe/STIM_007.jpg
754.277	0.852	correct	observe	Run1	observe/STIM_007.jpg
757.165	1.369	correct	observe	Run1	observe/STIM_007.jpg
761.879	0.811	correct	observe	Run1	observe/STIM_008.jpg
765.108	1.186	correct	observe	Run1	observe/STIM_008.jpg
769.607	1.424	correct	observe	Run1	observe/STIM_008.jpg
774.519	1.02	correct	observe	Run1	observe/STIM_008.jpg
779.44	1.184	correct	observe	Run1	observe/STIM_009.jpg
783.222	1.255	correct	observe	Run1	observe/STIM_009.jpg
787.284	1.272	correct	observe	Run1	observe/STIM_009.jpg
792.042	0.838	correct	observe	Run1	observe/STIM_009.jpg
794.996	1.209	correct	observe	Run1	observe/STIM_010.jpg
799.9	0.821	correct	observe	Run1	observe/STIM_010.jpg
803.249	1.228	incorrect	observe	Run1	observe/STIM_010.jpg
808.42	1.186	correct	observe	Run1	observe/STIM_010.jpg
812.159	1.312	incorrect	observe	Run1	observe/STIM_011.jpg
816.141	1.323	correct	observe	Run1	observe/STIM_011.jpg
821.256	0.883	correct	observe	Run1	observe/STIM_011.jpg
824.845	1.438	correct	observe	Run1	observe/STIM_011.jpg
829.095	1.312	correct	observe	Run1	observe/STIM_012.jpg
833.44	0.769	correct	observe	Run1	observe/STIM_012.jpg
837.977	1.172	incorrect	observe	Run1	observe/STIM_012.jpg
842.858	0.901	correct	observe	Run1	observe/STIM_012.jpg
846.498	0.858	correct	observe	Run1	observe/STIM_013.jpg
850.77	1.336	correct	observe	Run1	observe/STIM_013.jpg
855.73	1.496	correct	observe	Run1	observe/STIM_013.jpg
860.034	1.402	correct	observe	Run1	observe/STIM_013.jpg
865.407	1.29	correct	observe	Run1	observe/STIM_014.jpg
868.938	1.401	correct	observe	Run1	observe/STIM_014.jpg
872.623	0.968	correct	observe	Run1	observe/STIM_014.jpg
876.112	0.865	correct	observe	Run1	observe/STIM_014.jpg
880.184	1.048	incorrect	observe	Run1	observe/STIM_015.jpg
884.948	1.479	correct	observe	Run1	observe/STIM_015.jpg
890.03	1.292	correct	observe	Run1	observe/STIM_015.jpg
893.582	0.909	correct	observe	Run1	observe/STIM_015.jpg
896.848	0.759	correct	observe	Run1	observe/STIM_016.jpg
900.059	0.849	correct	observe	Run1	observe/STIM_016.jpg
904.89	1.2	correct	observe	Run1	observe/STIM_016.jpg
909.477	1.194	correct	observe	Run1	observe/STIM_016.jpg
914.228	1.122	correct	observe	Run1	observe/STIM_017.jpg
918.599	1.29	correct	observe	Run1	observe/STIM_017.jpg
922.461	0.839	correct	observe	Run1	observe/STIM_017.jpg
926.414	0.88	correct	observe	Run1	observe/STIM_017.jpg
929.54	0.767	correct	observe	Run1	observe/STIM_018.jpg
933.937	1.284	correct	observe	Run1	observe/STIM_018.jpg
938.628	1.511	correct	observe	Run1	observe/STIM_018.jpg
943.467	1.264	correct	observe	Run1	observe/STIM_018.jpg
948.039	0.845	correct	observe	Run1	observe/STIM_019.jpg
952.727	1.515	incorrect	observe	Run1	observe/STIM_019.jpg
958.162	0.917	correct	observe	Run1	observe/STIM_019.jpg
961.825	0.956	correct	observe	Run1	observe/STIM_019.jpg
966.023	2.284	correct	regulate	Run2	regulate/STIM_000.jpg
971.241	2.538	correct	regulate	Run2	regulate/STIM_000.jpg
977.384	2.032	correct	regulate	Run2	regulate/STIM_000.jpg
983.228	1.676	correct	regulate	Run2	regulate/STIM_000.jpg
987.393	1.958	correct	regulate	Run2	regulate/STIM_001.jpg
991.711	2.624	correct	regulate	Run2	regulate/STIM_001.jpg
998.082	2.218	correct	regulate	Run2	regulate/STIM_001.jpg
1003.553	1.28	correct	regulate	Run2	regulate/STIM_001.jpg
1006.894	1.62	correct	regulate	Run2	regulate/STIM_002.jpg
1010.627	1.376	correct	regulate	Run2	regulate/STIM_002.jpg
1015.405	1.504	correct	regulate	Run2	regulate/STIM_002.jpg
1019.889	1.875	correct	regulate	Run2	regulate/STIM_002.jpg
1025.185	2.62	correct	regulate	Run2	regulate/STIM_003.jpg
1031.664	2.581	incorrect	regulate	Run2	regulate/STIM_003.jpg
1037.732	2.335	correct	regulate	Run2	regulate/STIM_003.jpg
1042.996	1.333	incorrect	regulate	Run2	regulate/STIM_003.jpg
1047.246	2.338	correct	regulate	Run2	regulate/STIM_004.jpg
1052.233	1.885	correct	regulate	Run2	regulate/STIM_004.jpg
1057.418	1.658	incorrect	regulate	Run2	regulate/STIM_004.jpg
1061.664	1.192	correct	regulate	Run2	regulate/STIM_004.jpg
1066.695	2.416	correct	regulate	Run2	regulate/STIM_005.jpg
1071.179	1.23	correct	regulate	Run2	regulate/STIM_005.jpg
1075.252	1.378	correct	regulate	Run2	regulate/STIM_005.jpg
1079.366	1.357	correct	regulate	Run2	regulate/STIM_005.jpg
1084.528	1.454	incorrect	regulate	Run2	regulate/STIM_006.jpg
1089.706	1.316	correct	regulate	Run2	regulate/STIM_006.jpg
1093.048	2.0	correct	regulate	Run2	regulate/STIM_006.jpg
1097.086	1.484	correct	regulate	Run2	regulate/STIM_006.jpg
1102.116	2.377	correct	regulate	Run2	regulate/STIM_007.jpg
1107.633	1.277	incorrect	regulate	Run2	regulate/STIM_007.jpg
1112.04	1.225	correct	regulate	Run2	regulate/STIM_007.jpg
1116.69	1.776	correct	regulate	Run2	regulate/STIM_007.jpg
1121.508	1.658	correct	regulate	Run2	regulate/STIM_008.jpg
1125.507	2.487	correct	regulate	Run2	regulate/STIM_008.jpg
1130.82	1.102	correct	regulate	Run2	regulate/STIM_008.jpg
1134.601	1.056	correct	regulate	Run2	regulate/STIM_008.jpg
1138.358	1.793	correct	regulate	Run2	regulate/STIM_009.jpg
1143.574	1.699	incorrect	regulate	Run2	regulate/STIM_009.jpg
1147.445	1.707	correct	regulate	Run2	regulate/STIM_009.jpg
1151.975	1.201	correct	regulate	Run2	regulate/STIM_009.jpg
1156.222	1.839	correct	regulate	Run2	regulate/STIM_010.jpg
1161.127	1.964	correct	regulate	Run2	regulate/STIM_010.jpg
1166.003	1.381	correct	regulate	Run2	regulate/STIM_010.jpg
1169.529	1.53	correct	regulate	Run2	regulate/STIM_010.jpg
1173.649	1.806	correct	regulate	Run2	regulate/STIM_011.jpg
1179.043	1.705	correct	regulate	Run2	regulate/STIM_011.jpg
1182.961	1.879	correct	regulate	Run2	regulate/STIM_011.jpg
1187.559	1.116	incorrect	regulate	Run2	regulate/STIM_011.jpg
1191.143	2.584	correct	regulate	Run2	regulate/STIM_012.jpg
1197.122	1.177	correct	regulate	Run2	regulate/STIM_012.jpg
1201.557	1.265	correct	regulate	Run2	regulate/STIM_012.jpg
1205.943	1.554	correct	regulate	Run2	regulate/STIM_012.jpg
1209.652	1.964	correct	regulate	Run2	regulate/STIM_013.jpg
1213.96	1.549	correct	regulate	Run2	regulate/STIM_013.jpg
1219.197	1.779	correct	regulate	Run2	regulate/STIM_013.jpg
1224.263	1.018	correct	regulate	Run2	regulate/STIM_013.jpg
1228.539	1.252	correct	regulate	Run2	regulate/STIM_014.jpg
1231.925	1.542	correct	regulate	Run2	regulate/STIM_014.jpg
1237.023	1.24	correct	regulate	Run2	regulate/STIM_014.jpg
1241.04	1.011	correct	regulate	Run2	regulate/STIM_014.jpg
1244.422	1.587	correct	regulate	Run2	regulate/STIM_015.jpg
1249.368	1.326	correct	regulate	Run2	regulate/STIM_015.jpg
1253.025	1.352	correct	regulate	Run2	regulate/STIM_015.jpg
1257.295	1.642	correct	regulate	Run2	regulate/STIM_015.jpg
1261.274	1.261	correct	regulate	Run2	regulate/STIM_016.jpg
1265.151	1.765	correct	regulate	Run2	regulate/STIM_016.jpg
1269.886	2.127	correct	regulate	Run2	regulate/STIM_016.jpg
1274.511	1.744	incorrect	regulate	Run2	regulate/STIM_016.jpg
1279.171	1.666	correct	regulate	Run2	regulate/STIM_017.jpg
1284.273	2.533	correct	regulate	Run2	regulate/STIM_017.jpg
1290.439	2.375	correct	regulate	Run2	regulate/STIM_017.jpg
1295.543	2.118	correct	regulate	Run2	regulate/STIM_017.jpg
1300.174	2.231	incorrect	regulate	Run2	regulate/STIM_018.jpg
1305.831	1.278	incorrect	regulate	Run2	regulate/STIM_018.jpg
1310.801	1.78	correct	regulate	Run2	regulate/STIM_018.jpg
1314.888	1.912	correct	regulate	Run2	regulate/STIM_018.jpg
1320.075	2.759	correct	regulate	Run2	regulate/STIM_019.jpg
1326.332	2.451	correct	regulate	Run2	regulate/STIM_019.jpg
1332.637	1.796	correct	regulate	Run2	regulate/STIM_019.jpg
1338.215	1.16	correct	regulate	Run2	regulate/STIM_019.jpg
1341.484	2.632	correct	regulate	Run2	regulate/STIM_020.jpg
1346.896	1.169	correct	regulate	Run2	regulate/STIM_020.jpg
1351.996	1.375	correct	regulate	Run2	regulate/STIM_020.jpg
1356.118	2.221	correct	regulate	Run2	regulate/STIM_020.jpg
1360.865	2.446	correct	regulate	Run2	regulate/STIM_021.jpg
1366.498	1.436	correct	regulate	Run2	regulate/STIM_021.jpg
1370.76	1.691	correct	regulate	Run2	regulate/STIM_021.jpg
1375.843	1.368	correct	regulate	Run2	regulate/STIM_021.jpg
1380.347	1.471	correct	regulate	Run2	regulate/STIM_022.jpg
1383.939	1.804	correct	regulate	Run2	regulate/STIM_022.jpg
1388.905	2.249	correct	regulate	Run2	regulate/STIM_022.jpg
1394.436	1.467	correct	regulate	Run2	regulate/STIM_022.jpg
1399.335	1.789	correct	regulate	Run2	regulate/STIM_023.jpg
1404.212	2.342	correct	regulate	Run2	regulate/STIM_023.jpg
1409.771	1.269	correct	regulate	Run2	regulate/STIM_023.jpg
1413.631	1.91	correct	regulate	Run2	regulate/STIM_023.jpg
1417.957	2.188	correct	regulate	Run2	regulate/STIM_024.jpg
1424.135	2.47	incorrect	regulate	Run2	regulate/STIM_024.jpg
1428.661	2.286	incorrect	regulate	Run2	regulate/STIM_024.jpg
1434.824	1.714	correct	regulate	Run2	regulate/STIM_024.jpg
1439.969	2.631	correct	regulate	Run2	regulate/STIM_025.jpg
1444.823	1.857	correct	regulate	Run2	regulate/STIM_025.jpg
1450.315	1.477	correct	regulate	Run2	regulate/STIM_025.jpg
1454.436	2.276	correct	regulate	Run2	regulate/STIM_025.jpg
1459.905	1.325	correct	regulate	Run2	regulate/STIM_026.jpg
1463.813	1.6	correct	regulate	Run2	regulate/STIM_026.jpg
1468.9	1.695	correct	regulate	Run2	regulate/STIM_026.jpg
1472.75	2.088	incorrect	regulate	Run2	regulate/STIM_026.jpg
1478.374	1.602	correct	regulate	Run2	regulate/STIM_027.jpg
1482.762	1.404	correct	regulate	Run2	regulate/STIM_027.jpg
1486.457	1.93	correct	regulate	Run2	regulate/STIM_027.jpg
1491.213	1.309	incorrect	regulate	Run2	regulate/STIM_027.jpg
1496.498	2.434	correct	regulate	Run2	regulate/STIM_028.jpg
1501.067	1.33	correct	regulate	Run2	regulate/STIM_028.jpg
1505.024	1.452	correct	regulate	Run2	regulate/STIM_028.jpg
1508.589	1.662	correct	regulate	Run2	regulate/STIM_028.jpg
1512.48	1.708	correct	regulate	Run2	regulate/STIM_029.jpg
1516.68	2.132	incorrect	regulate	Run2	regulate/STIM_029.jpg
1520.907	1.526	correct	regulate	Run2	regulate/STIM_029.jpg
1526.088	1.639	correct	regulate	Run2	regulate/STIM_029.jpg
1530.705	0.766	correct	observe	Run2	observe/STIM_000.jpg
1533.889	1.417	correct	observe	Run2	observe/STIM_000.jpg
1537.819	0.87	correct	observe	Run2	observe/STIM_000.jpg
1542.061	1.466	correct	observe	Run2	observe/STIM_000.jpg
1545.899	0.95	correct	observe	Run2	observe/STIM_001.jpg
1548.853	1.233	correct	observe	Run2	observe/STIM_001.jpg
1552.927	0.871	correct	observe	Run2	observe/STIM_001.jpg
1557.134	0.885	correct	observe	Run2	observe/STIM_001.jpg
1560.42	0.99	correct	observe	Run2	observe/STIM_002.jpg
1564.897	0.852	correct	observe	Run2	observe/STIM_002.jpg
1568.149	0.85	correct	observe	Run2	observe/STIM_002.jpg
1571.215	1.333	correct	observe	Run2	observe/STIM_002.jpg
1576.361	0.952	correct	observe	Run2	observe/STIM_003.jpg
1580.075	1.313	correct	observe	Run2	observe/STIM_003.jpg
1585.036	0.827	correct	observe	Run2	observe/STIM_003.jpg
1588.446	0.928	correct	observe	Run2	observe/STIM_003.jpg
1591.85	1.105	correct	observe	Run2	observe/STIM_004.jpg
1596.152	1.115	correct	observe	Run2	observe/STIM_004.jpg
1599.867	1.466	correct	observe	Run2	observe/STIM_004.jpg
1605.085	1.092	correct	observe	Run2	observe/STIM_004.jpg
1608.87	1.071	correct	observe	Run2	observe/STIM_005.jpg
1613.296	0.85	correct	observe	Run2	observe/STIM_005.jpg
1617.952	0.787	correct	observe	Run2	observe/STIM_005.jpg
1621.668	1.089	correct	observe	Run2	observe/STIM_005.jpg
1626.294	1.214	correct	observe	Run2	observe/STIM_006.jpg
1629.853	0.854	correct	observe	Run2	observe/STIM_006.jpg
1633.145	1.113	incorrect	observe	Run2	observe/STIM_006.jpg
1637.685	1.31	correct	observe	Run2	observe/STIM_006.jpg
1642.928	1.266	correct	observe	Run2	observe/STIM_007.jpg
1646.599	1.386	correct	observe	Run2	observe/STIM_007.jpg
1651.357	1.2	correct	observe	Run2	observe/STIM_007.jpg
1655.642	1.128	correct	observe	Run2	observe/STIM_007.jpg
1660.678	0.892	correct	observe	Run2	observe/STIM_008.jpg
1665.119	1.223	correct	observe	Run2	observe/STIM_008.jpg
1668.56	1.134	correct	observe	Run2	observe/STIM_008.jpg
1672.573	1.147	correct	observe	Run2	observe/STIM_008.jpg
1677.164	1.424	correct	observe	Run2	observe/STIM_009.jpg
1682.516	1.382	correct	observe	Run2	observe/STIM_009.jpg
1686.832	1.319	correct	observe	Run2	observe/STIM_009.jpg
1691.1	1.396	correct	observe	Run2	observe/STIM_009.jpg
1695.205	1.511	correct	observe	Run2	observe/STIM_010.jpg
1699.949	1.024	correct	observe	Run2	observe/STIM_010.jpg
1703.004	1.072	incorrect	observe	Run2	observe/STIM_010.jpg
1707.712	0.928	correct	observe	Run2	observe/STIM_010.jpg
1711.95	1.16	incorrect	observe	Run2	observe/STIM_011.jpg
1716.994	1.293	correct	observe	Run2	observe/STIM_011.jpg
1721.524	1.0	correct	observe	Run2	observe/STIM_011.jpg
1726.377	1.234	correct	observe	Run2	observe/STIM_011.jpg
1729.952	1.228	correct	observe	Run2	observe/STIM_012.jpg
1734.94	1.498	correct	observe	Run2	observe/STIM_012.jpg
1740.13	1.01	correct	observe	Run2	observe/STIM_012.jpg
1745.109	1.168	correct	observe	Run2	observe/STIM_012.jpg
1749.528	1.148	correct	observe	Run2	observe/STIM_013.jpg
1753.365	1.509	correct	observe	Run2	observe/STIM_013.jpg
1757.688	0.779	correct	observe	Run2	observe/STIM_013.jpg
1761.393	0.999	correct	observe	Run2	observe/STIM_013.jpg
1765.525	0.816	correct	observe	Run2	observe/STIM_014.jpg
1768.992	0.925	correct	observe	Run2	observe/STIM_014.jpg
1772.616	1.235	correct	observe	Run2	observe/STIM_014.jpg
1776.023	1.475	correct	observe	Run2	observe/STIM_014.jpg
1779.588	1.232	correct	observe	Run2	observe/STIM_015.jpg
1784.281	1.149	incorrect	observe	Run2	observe/STIM_015.jpg
1788.656	0.923	correct	observe	Run2	observe/STIM_015.jpg
1792.336	0.996	correct	observe	Run2	observe/STIM_015.jpg
1795.635	0.941	correct	observe	Run2	observe/STIM_016.jpg
1799.502	1.211	correct	observe	Run2	observe/STIM_016.jpg
1804.613	1.093	correct	observe	Run2	observe/STIM_016.jpg
1808.031	1.046	correct	observe	Run2	observe/STIM_016.jpg
1812.106	0.891	correct	observe	Run2	observe/STIM_017.jpg
1815.334	1.056	correct	observe	Run2	observe/STIM_017.jpg
1819.641	0.877	correct	observe	Run2	observe/STIM_017.jpg
1824.369	1.383	correct	observe	Run2	observe/STIM_017.jpg
1829.105	1.154	correct	observe	Run2	observe/STIM_018.jpg
1833.874	1.136	correct	observe	Run2	observe/STIM_018.jpg
1837.887	1.307	correct	observe	Run2	observe/STIM_018.jpg
1841.505	1.065	correct	observe	Run2	observe/STIM_018.jpg
1845.026	0.856	correct	observe	Run2	observe/STIM_019.jpg
1849.567	1.462	correct	observe	Run2	observe/STIM_019.jpg
1854.228	1.322	correct	observe	Run2	observe/STIM_019.jpg
1858.052	1.422	correct	observe	Run2	observe/STIM_019.jpg
1862.789	1.535	correct	regulate	Run3	regulate/STIM_000.jpg
1867.121	2.263	correct	regulate	Run3	regulate/STIM_000.jpg
1871.877	2.247	correct	regulate	Run3	regulate/STIM_000.jpg
1877.823	1.23	correct	regulate	Run3	regulate/STIM_000.jpg
1881.3	1.524	correct	regulate	Run3	regulate/STIM_001.jpg
1885.237	1.649	correct	regulate	Run3	regulate/STIM_001.jpg
1889.867	1.959	correct	regulate	Run3	regulate/STIM_001.jpg
1894.25	2.148	correct	regulate	Run3	regulate/STIM_001.jpg
1899.472	1.612	correct	regulate	Run3	regulate/STIM_002.jpg
1903.781	1.942	correct	regulate	Run3	regulate/STIM_002.jpg
1907.984	1.284	correct	regulate	Run3	regulate/STIM_002.jpg
1912.812	1.982	correct	regulate	Run3	regulate/STIM_002.jpg
1917.263	1.62	correct	regulate	Run3	regulate/STIM_003.jpg
1922.224	1.651	correct	regulate	Run3	regulate/STIM_003.jpg
1926.673	2.239	correct	regulate	Run3	regulate/STIM_003.jpg
1932.911	1.095	correct	regulate	Run3	regulate/STIM_003.jpg
1936.543	1.494	correct	regulate	Run3	regulate/STIM_004.jpg
1941.685	1.158	incorrect	regulate	Run3	regulate/STIM_004.jpg
1946.133	2.128	correct	regulate	Run3	regulate/STIM_004.jpg
1950.945	1.451	correct	regulate	Run3	regulate/STIM_004.jpg
1955.239	1.005	correct	regulate	Run3	regulate/STIM_005.jpg
1958.313	1.441	correct	regulate	Run3	regulate/STIM_005.jpg
1963.656	1.691	correct	regulate	Run3	regulate/STIM_005.jpg
1969.33	1.556	correct	regulate	Run3	regulate/STIM_005.jpg
1973.715	2.054	correct	regulate	Run3	regulate/STIM_006.jpg
1977.877	0.999	correct	regulate	Run3	regulate/STIM_006.jpg
1981.316	1.862	incorrect	regulate	Run3	regulate/STIM_006.jpg
1985.781	1.432	correct	regulate	Run3	regulate/STIM_006.jpg
1990.95	1.939	incorrect	regulate	Run3	regulate/STIM_007.jpg
1996.694	1.164	correct	regulate	Run3	regulate/STIM_007.jpg
2001.265	1.77	correct	regulate	Run3	regulate/STIM_007.jpg
2006.69	2.116	correct	regulate	Run3	regulate/STIM_007.jpg
2012.416	2.158	correct	regulate	Run3	regulate/STIM_008.jpg
2016.617	2.073	correct	regulate	Run3	regulate/STIM_008.jpg
2022.162	1.032	correct	regulate	Run3	regulate/STIM_008.jpg
2026.987	1.112	correct	regulate	Run3	regulate/STIM_008.jpg
2030.593	2.181	correct	regulate	Run3	regulate/STIM_009.jpg
2034.79	1.458	correct	regulate	Run3	regulate/STIM_009.jpg
2039.077	2.316	correct	regulate	Run3	regulate/STIM_009.jpg
2044.466	1.131	correct	regulate	Run3	regulate/STIM_009.jpg
2049.055	2.125	correct	regulate	Run3	regulate/STIM_010.jpg
2053.816	1.918	correct	regulate	Run3	regulate/STIM_010.jpg
2059.019	1.556	correct	regulate	Run3	regulate/STIM_010.jpg
2063.39	2.311	correct	regulate	Run3	regulate/STIM_010.jpg
2067.875	1.321	correct	regulate	Run3	regulate/STIM_011.jpg
2071.66	2.008	incorrect	regulate	Run3	regulate/STIM_011.jpg
2076.583	2.046	incorrect	regulate	Run3	regulate/STIM_011.jpg
2081.194	1.803	correct	regulate	Run3	regulate/STIM_011.jpg
2086.647	2.029	correct	regulate	Run3	regulate/STIM_012.jpg
2090.746	1.146	correct	regulate	Run3	regulate/STIM_012.jpg
2094.651	1.76	correct	regulate	Run3	regulate/STIM_012.jpg
2099.447	2.176	incorrect	regulate	Run3	regulate/STIM_012.jpg
2103.631	1.82	correct	regulate	Run3	regulate/STIM_013.jpg
2109.144	2.308	correct	regulate	Run3	regulate/STIM_013.jpg
2115.086	2.041	correct	regulate	Run3	regulate/STIM_013.jpg
2119.591	2.19	correct	regulate	Run3	regulate/STIM_013.jpg
2124.732	1.431	correct	regulate	Run3	regulate/STIM_014.jpg
2128.71	1.414	correct	regulate	Run3	regulate/STIM_014.jpg
2133.468	1.492	correct	regulate	Run3	regulate/STIM_014.jpg
2138.21	2.077	correct	regulate	Run3	regulate/STIM_014.jpg
2142.615	2.321	correct	regulate	Run3	regulate/STIM_015.jpg
2147.883	2.263	correct	regulate	Run3	regulate/STIM_015.jpg
2153.547	2.068	correct	regulate	Run3	regulate/STIM_015.jpg
2159.3	2.145	correct	regulate	Run3	regulate/STIM_015.jpg
2164.625	1.862	correct	regulate	Run3	regulate/STIM_016.jpg
2170.425	1.178	correct	regulate	Run3	regulate/STIM_016.jpg
2174.398	1.53	correct	regulate	Run3	regulate/STIM_016.jpg
2179.7	1.728	correct	regulate	Run3	regulate/STIM_016.jpg
2184.727	1.812	correct	regulate	Run3	regulate/STIM_017.jpg
2190.278	1.516	correct	regulate	Run3	regulate/STIM_017.jpg
2194.464	1.978	correct	regulate	Run3	regulate/STIM_017.jpg
2198.748	1.684	correct	regulate	Run3	regulate/STIM_017.jpg
2204.12	1.731	correct	regulate	Run3	regulate/STIM_018.jpg
2209.403	1.528	correct	regulate	Run3	regulate/STIM_018.jpg
2213.083	1.214	correct	regulate	Run3	regulate/STIM_018.jpg
2216.351	1.683	correct	regulate	Run3	regulate/STIM_018.jpg
2220.409	1.993	correct	regulate	Run3	regulate/STIM_019.jpg
2226.321	1.61	correct	regulate	Run3	regulate/STIM_019.jpg
2231.244	1.558	correct	regulate	Run3	regulate/STIM_019.jpg
2236.081	1.785	correct	regulate	Run3	regulate/STIM_019.jpg
2239.902	2.052	correct	regulate	Run3	regulate/STIM_020.jpg
2244.652	1.876	correct	regulate	Run3	regulate/STIM_020.jpg
2249.833	2.034	correct	regulate	Run3	regulate/STIM_020.jpg
2254.099	1.548	correct	regulate	Run3	regulate/STIM_020.jpg
2258.482	1.038	incorrect	regulate	Run3	regulate/STIM_021.jpg
2262.241	1.63	correct	regulate	Run3	regulate/STIM_021.jpg
2266.468	1.96	correct	regulate	Run3	regulate/STIM_021.jpg
2271.337	1.482	correct	regulate	Run3	regulate/STIM_021.jpg
2275.904	1.343	correct	regulate	Run3	regulate/STIM_022.jpg
2279.733	1.633	correct	regulate	Run3	regulate/STIM_022.jpg
2284.092	2.306	correct	regulate	Run3	regulate/STIM_022.jpg
2288.447	2.308	correct	regulate	Run3	regulate/STIM_022.jpg
2294.074	1.398	correct	regulate	Run3	regulate/STIM_023.jpg
2298.12	1.603	correct	regulate	Run3	regulate/STIM_023.jpg
2302.164	1.62	correct	regulate	Run3	regulate/STIM_023.jpg
2307.558	1.248	correct	regulate	Run3	regulate/STIM_023.jpg
2310.846	2.081	correct	regulate	Run3	regulate/STIM_024.jpg
2315.394	1.294	correct	regulate	Run3	regulate/STIM_024.jpg
2319.239	1.595	incorrect	regulate	Run3	regulate/STIM_024.jpg
2323.74	1.999	correct	regulate	Run3	regulate/STIM_024.jpg
2327.838	1.804	correct	regulate	Run3	regulate/STIM_025.jpg
2332.265	2.144	correct	regulate	Run3	regulate/STIM_025.jpg
2336.706	1.591	correct	regulate	Run3	regulate/STIM_025.jpg
2341.988	1.122	correct	regulate	Run3	regulate/STIM_025.jpg
2346.061	1.238	correct	regulate	Run3	regulate/STIM_026.jpg
2350.986	1.323	correct	regulate	Run3	regulate/STIM_026.jpg
2354.951	1.504	correct	regulate	Run3	regulate/STIM_026.jpg
2359.055	1.6	correct	regulate	Run3	regulate/STIM_026.jpg
2364.418	2.216	correct	regulate	Run3	regulate/STIM_027.jpg
2369.66	1.692	correct	regulate	Run3	regulate/STIM_027.jpg
2374.425	1.353	correct	regulate	Run3	regulate/STIM_027.jpg
2378.834	2.224	correct	regulate	Run3	regulate/STIM_027.jpg
2383.419	1.577	correct	regulate	Run3	regulate/STIM_028.jpg
2388.867	1.064	correct	regulate	Run3	regulate/STIM_028.jpg
2393.326	2.007	correct	regulate	Run3	regulate/STIM_028.jpg
2397.648	2.133	correct	regulate	Run3	regulate/STIM_028.jpg
2403.357	1.337	correct	regulate	Run3	regulate/STIM_029.jpg
2408.584	2.192	correct	regulate	Run3	regulate/STIM_029.jpg
2414.323	2.047	correct	regulate	Run3	regulate/STIM_029.jpg
2419.374	1.181	correct	regulate	Run3	regulate/STIM_029.jpg
2423.162	0.871	correct	observe	Run3	observe/STIM_000.jpg
2426.472	1.466	correct	observe	Run3	observe/STIM_000.jpg
2431.781	1.294	correct	observe	Run3	observe/STIM_000.jpg
2435.764	1.407	correct	observe	Run3	observe/STIM_000.jpg
2439.324	1.262	incorrect	observe	Run3	observe/STIM_001.jpg
2442.71	1.338	correct	observe	Run3	observe/STIM_001.jpg
2448.02	1.476	correct	observe	Run3	observe/STIM_001.jpg
2452.765	0.887	correct	observe	Run3	observe/STIM_001.jpg
2456.152	1.02	correct	observe	Run3	observe/STIM_002.jpg
2459.85	1.052	correct	observe	Run3	observe/STIM_002.jpg
2463.891	0.992	correct	observe	Run3	observe/STIM_002.jpg
2468.456	0.976	correct	observe	Run3	observe/STIM_002.jpg
2472.279	1.321	correct	observe	Run3	observe/STIM_003.jpg
2476.429	1.452	incorrect	observe	Run3	observe/STIM_003.jpg
2481.706	1.509	correct	observe	Run3	observe/STIM_003.jpg
2485.407	1.15	correct	observe	Run3	observe/STIM_003.jpg
2489.178	0.939	correct	observe	Run3	observe/STIM_004.jpg
2493.164	0.861	correct	observe	Run3	observe/STIM_004.jpg
2497.048	1.164	correct	observe	Run3	observe/STIM_004.jpg
2500.922	0.969	correct	observe	Run3	observe/STIM_004.jpg
2505.529	0.849	correct	observe	Run3	observe/STIM_005.jpg
2508.712	1.374	correct	observe	Run3	observe/STIM_005.jpg
2513.478	1.461	correct	observe	Run3	observe/STIM_005.jpg
2518.056	1.231	correct	observe	Run3	observe/STIM_005.jpg
2522.017	0.806	correct	observe	Run3	observe/STIM_006.jpg
2525.867	0.791	correct	observe	Run3	observe/STIM_006.jpg
2530.006	1.391	correct	observe	Run3	observe/STIM_006.jpg
2533.423	1.412	correct	observe	Run3	observe/STIM_006.jpg
2537.767	0.841	correct	observe	Run3	observe/STIM_007.jpg
2541.271	0.815	correct	observe	Run3	observe/STIM_007.jpg
2544.223	0.922	correct	observe	Run3	observe/STIM_007.jpg
2547.758	0.823	incorrect	observe	Run3	observe/STIM_007.jpg
2551.006	1.334	incorrect	observe	Run3	observe/STIM_008.jpg
2555.525	1.276	correct	observe	Run3	observe/STIM_008.jpg
2559.185	1.333	correct	observe	Run3	observe/STIM_008.jpg
2564.046	0.874	correct	observe	Run3	observe/STIM_008.jpg
2567.531	1.165	correct	observe	Run3	observe/STIM_009.jpg
2571.396	1.416	correct	observe	Run3	observe/STIM_009.jpg
2576.627	1.422	correct	observe	Run3	observe/STIM_009.jpg
2581.027	1.109	correct	observe	Run3	observe/STIM_009.jpg
2585.8	0.865	incorrect	observe	Run3	observe/STIM_010.jpg
2588.971	0.915	correct	observe	Run3	observe/STIM_010.jpg
2592.648	0.994	correct	observe	Run3	observe/STIM_010.jpg
2595.665	0.81	correct	observe	Run3	observe/STIM_010.jpg
2600.238	0.991	correct	observe	Run3	observe/STIM_011.jpg
2604.758	1.18	correct	observe	Run3	observe/STIM_011.jpg
2608.04	0.896	correct	observe	Run3	observe/STIM_011.jpg
2611.277	1.354	correct	observe	Run3	observe/STIM_011.jpg
2615.463	1.069	correct	observe	Run3	observe/STIM_012.jpg
2618.8	1.36	correct	observe	Run3	observe/STIM_012.jpg
2623.305	0.931	correct	observe	Run3	observe/STIM_012.jpg
2626.787	0.807	correct	observe	Run3	observe/STIM_012.jpg
2629.734	1.141	correct	observe	Run3	observe/STIM_013.jpg
2633.169	1.304	correct	observe	Run3	observe/STIM_013.jpg
2636.906	0.926	correct	observe	Run3	observe/STIM_013.jpg
2641.114	1.255	correct	observe	Run3	observe/STIM_013.jpg
2645.866	1.005	correct	observe	Run3	observe/STIM_014.jpg
2650.545	0.882	correct	observe	Run3	observe/STIM_014.jpg
2655.117	1.309	incorrect	observe	Run3	observe/STIM_014.jpg
2659.659	1.229	correct	observe	Run3	observe/STIM_014.jpg
2663.273	1.417	correct	observe	Run3	observe/STIM_015.jpg
2667.44	1.093	correct	observe	Run3	observe/STIM_015.jpg
2672.351	1.198	correct	observe	Run3	observe/STIM_015.jpg
2676.402	1.116	correct	observe	Run3	observe/STIM_015.jpg
2679.913	1.281	incorrect	observe	Run3	observe/STIM_016.jpg
2684.077	1.28	correct	observe	Run3	observe/STIM_016.jpg
2687.561	1.378	correct	observe	Run3	observe/STIM_016.jpg
2692.233	1.223	correct	observe	Run3	observe/STIM_016.jpg
2697.058	1.166	correct	observe	Run3	observe/STIM_017.jpg
2701.401	0.851	correct	observe	Run3	observe/STIM_017.jpg
2705.587	1.031	incorrect	observe	Run3	observe/STIM_017.jpg
2709.564	1.138	correct	observe	Run3	observe/STIM_017.jpg
2714.057	1.412	correct	observe	Run3	observe/STIM_018.jpg
2717.863	1.309	correct	observe	Run3	observe/STIM_018.jpg
2723.066	1.365	correct	observe	Run3	observe/STIM_018.jpg
2727.695	0.914	correct	observe	Run3	observe/STIM_018.jpg
2731.641	0.945	correct	observe	Run3	observe/STIM_019.jpg
2736.131	0.908	correct	observe	Run3	observe/STIM_019.jpg
2739.705	1.189	correct	observe	Run3	observe/STIM_019.jpg
2744.389	1.12	correct	observe	Run3	observe/STIM_019.jpg
