onset	duration	response_time_ms	trial_type	learning_stage	stimulus	response_port
0.0	2.448	2448.0	regulate	Run1	regulate/STIM_000.jpg	99
5.372	1.674	1674.3	regulate	Run1	regulate/STIM_000.jpg	100
9.319	1.454	1454.0	regulate	Run1	regulate/STIM_000.jpg	99
14.765	2.802	2802.5	regulate	Run1	regulate/STIM_000.jpg	100
21.329	2.1	2099.5	regulate	Run1	regulate/STIM_001.jpg	99
26.365	1.681	1680.9	regulate	Run1	regulate/STIM_001.jpg	99
30.083	2.11	2110.1	regulate	Run1	regulate/STIM_001.jpg	99
34.276	2.187	2187.1	regulate	Run1	regulate/STIM_001.jpg	99
39.362	2.734	2733.6	regulate	Run1	regulate/STIM_002.jpg	99
45.883	1.999	1999.4	regulate	Run1	regulate/STIM_002.jpg	99
51.769	2.616	2615.5	regulate	Run1	regulate/STIM_002.jpg	100
56.713	2.637	2637.4	regulate	Run1	regulate/STIM_002.jpg	99
62.275	2.799	2798.8	regulate	Run1	regulate/STIM_003.jpg	99
68.555	3.083	3083.0	regulate	Run1	regulate/STIM_003.jpg	100
75.572	2.447	2447.3	regulate	Run1	regulate/STIM_003.jpg	99
81.286	1.326	1326.3	regulate	Run1	regulate/STIM_003.jpg	100
85.467	2.416	2416.4	regulate	Run1	regulate/STIM_004.jpg	100
91.439	2.831	2831.2	regulate	Run1	regulate/STIM_004.jpg	99
98.089	2.614	2614.2	regulate	Run1	regulate/STIM_004.jpg	99
102.749	1.839	1839.2	regulate	Run1	regulate/STIM_004.jpg	99
107.945	2.273	2273.2	regulate	Run1	regulate/STIM_005.jpg	99
112.54	2.831	2831.2	regulate	Run1	regulate/STIM_005.jpg	100
118.908	2.121	2121.4	regulate	Run1	regulate/STIM_005.jpg	100
123.841	1.804	1804.4	regulate	Run1	regulate/STIM_005.jpg	100
127.911	2.501	2501.3	regulate	Run1	regulate/STIM_006.jpg	99
133.195	1.908	1908.4	regulate	Run1	regulate/STIM_006.jpg	100
138.803	1.949	1949.3	regulate	Run1	regulate/STIM_006.jpg	100
143.671	2.393	2392.6	regulate	Run1	regulate/STIM_006.jpg	100
149.817	1.569	1569.2	regulate	Run1	regulate/STIM_007.jpg	100
154.834	2.396	2395.8	regulate	Run1	regulate/STIM_007.jpg	99
160.757	2.436	2435.9	regulate	Run1	regulate/STIM_007.jpg	99
166.408	1.952	1952.2	regulate	Run1	regulate/STIM_007.jpg	100
172.043	2.186	2186.1	regulate	Run1	regulate/STIM_008.jpg	99
177.926	2.535	2534.6	regulate	Run1	regulate/STIM_008.jpg	100
183.876	1.293	1293.1	regulate	Run1	regulate/STIM_008.jpg	99
188.454	1.232	1232.3	regulate	Run1	regulate/STIM_008.jpg	100
193.336	1.794	1794.4	regulate	Run1	regulate/STIM_009.jpg	100
198.777	1.858	1858.0	regulate	Run1	regulate/STIM_009.jpg	99
203.7	2.667	2667.3	regulate	Run1	regulate/STIM_009.jpg	100
208.452	2.605	2604.8	regulate	Run1	regulate/STIM_009.jpg	99
213.701	2.171	2170.8	regulate	Run1	regulate/STIM_010.jpg	99
219.76	3.021	3021.1	regulate	Run1	regulate/STIM_010.jpg	99
226.59	2.758	2758.3	regulate	Run1	regulate/STIM_010.jpg	100
231.831	2.514	2513.6	regulate	Run1	regulate/STIM_010.jpg	100
237.842	2.897	2896.6	regulate	Run1	regulate/STIM_011.jpg	100
244.717	1.784	1784.3	regulate	Run1	regulate/STIM_011.jpg	99
249.013	1.624	1624.2	regulate	Run1	regulate/STIM_011.jpg	99
254.462	1.682	1681.5	regulate	Run1	regulate/STIM_011.jpg	99
259.325	2.231	2231.2	regulate	Run1	regulate/STIM_012.jpg	100
265.448	1.62	1619.5	regulate	Run1	regulate/STIM_012.jpg	99
269.963	2.003	2003.2	regulate	Run1	regulate/STIM_012.jpg	100
274.258	1.503	1503.2	regulate	Run1	regulate/STIM_012.jpg	99
277.847	3.109	3109.1	regulate	Run1	regulate/STIM_013.jpg	99
284.392	1.727	1727.3	regulate	Run1	regulate/STIM_013.jpg	99
289.397	2.022	2021.6	regulate	Run1	regulate/STIM_013.jpg	100
294.785	2.489	2489.0	regulate	Run1	regulate/STIM_013.jpg	100
300.757	1.497	1497.4	regulate	Run1	regulate/STIM_014.jpg	100
305.278	2.674	2673.5	regulate	Run1	regulate/STIM_014.jpg	100
310.277	2.292	2291.8	regulate	Run1	regulate/STIM_014.jpg	100
315.588	1.255	1255.4	regulate	Run1	regulate/STIM_014.jpg	100
320.129	1.794	1793.6	regulate	Run1	regulate/STIM_015.jpg	100
325.839	1.775	1774.8	regulate	Run1	regulate/STIM_015.jpg	100
331.474	2.377	2376.7	regulate	Run1	regulate/STIM_015.jpg	99
336.434	1.394	1394.4	regulate	Run1	regulate/STIM_015.jpg	99
339.884	2.546	2546.4	regulate	Run1	regulate/STIM_016.jpg	99
344.619	1.557	1557.1	regulate	Run1	regulate/STIM_016.jpg	100
349.942	2.253	2252.6	regulate	Run1	regulate/STIM_016.jpg	100
355.867	2.734	2734.1	regulate	Run1	regulate/STIM_016.jpg	100
361.811	3.143	3143.4	regulate	Run1	regulate/STIM_017.jpg	99
367.404	1.784	1784.0	regulate	Run1	regulate/STIM_017.jpg	100
372.409	2.181	2181.2	regulate	Run1	regulate/STIM_017.jpg	99
378.087	2.284	2284.4	regulate	Run1	regulate/STIM_017.jpg	99
383.843	2.179	2178.6	regulate	Run1	regulate/STIM_018.jpg	99
389.517	1.795	1795.1	regulate	Run1	regulate/STIM_018.jpg	100
394.18	2.159	2158.8	regulate	Run1	regulate/STIM_018.jpg	99
399.031	1.523	1523.1	regulate	Run1	regulate/STIM_018.jpg	99
404.251	2.741	2740.7	regulate	Run1	regulate/STIM_019.jpg	99
409.325	2.777	2777.3	regulate	Run1	regulate/STIM_019.jpg	99
416.101	2.259	2258.7	regulate	Run1	regulate/STIM_019.jpg	99
420.961	2.462	2462.5	regulate	Run1	regulate/STIM_019.jpg	100
426.929	2.288	2287.5	regulate	Run1	regulate/STIM_020.jpg	99
432.167	2.147	2146.6	regulate	Run1	regulate/STIM_020.jpg	100
436.36	2.593	2593.1	regulate	Run1	regulate/STIM_020.jpg	100
442.381	1.539	1539.1	regulate	Run1	regulate/STIM_020.jpg	100
446.372	1.929	1928.6	regulate	Run1	regulate/STIM_021.jpg	99
451.942	1.446	1446.2	regulate	Run1	regulate/STIM_021.jpg	99
456.56	1.728	1728.1	regulate	Run1	regulate/STIM_021.jpg	99
461.573	2.047	2047.0	regulate	Run1	regulate/STIM_021.jpg	99
466.272	3.193	3193.0	regulate	Run1	regulate/STIM_022.jpg	100
472.094	2.174	2173.6	regulate	Run1	regulate/STIM_022.jpg	100
476.939	1.53	1530.2	regulate	Run1	regulate/STIM_022.jpg	100
481.938	1.976	1976.3	regulate	Run1	regulate/STIM_022.jpg	100
486.469	3.102	3101.7	regulate	Run1	regulate/STIM_023.jpg	100
492.005	3.002	3001.9	regulate	Run1	regulate/STIM_023.jpg	100
498.346	1.47	1469.9	regulate	Run1	regulate/STIM_023.jpg	99
502.887	2.126	2126.2	regulate	Run1	regulate/STIM_023.jpg	100
508.314	2.548	2548.4	regulate	Run1	regulate/STIM_024.jpg	99
514.186	2.082	2082.5	regulate	Run1	regulate/STIM_024.jpg	100
518.892	2.435	2435.3	regulate	Run1	regulate/STIM_024.jpg	99
524.164	1.262	1262.5	regulate	Run1	regulate/STIM_024.jpg	99
528.939	2.484	2484.5	regulate	Run1	regulate/STIM_025.jpg	100
534.354	1.356	1356.4	regulate	Run1	regulate/STIM_025.jpg	99
538.861	2.741	2741.1	regulate	Run1	regulate/STIM_025.jpg	99
544.648	2.072	2072.1	regulate	Run1	regulate/STIM_025.jpg	100
549.596	1.76	1760.2	regulate	Run1	regulate/STIM_026.jpg	99
554.466	1.438	1438.1	regulate	Run1	regulate/STIM_026.jpg	99
558.199	1.874	1873.7	regulate	Run1	regulate/STIM_026.jpg	99
563.514	2.263	2262.7	regulate	Run1	regulate/STIM_026.jpg	99
569.501	2.581	2581.2	regulate	Run1	regulate/STIM_027.jpg	99
574.676	2.455	2454.8	regulate	Run1	regulate/STIM_027.jpg	99
580.151	2.813	2813.0	regulate	Run1	regulate/STIM_027.jpg	100
586.762	2.652	2652.5	regulate	Run1	regulate/STIM_027.jpg	99
591.583	1.702	1701.5	regulate	Run1	regulate/STIM_028.jpg	100
595.323	1.402	1401.8	regulate	Run1	regulate/STIM_028.jpg	99
600.684	2.729	2729.0	regulate	Run1	regulate/STIM_028.jpg	99
606.621	2.139	2138.6	regulate	Run1	regulate/STIM_028.jpg	100
611.049	1.568	1568.1	regulate	Run1	regulate/STIM_029.jpg	100
616.113	3.131	3131.0	regulate	Run1	regulate/STIM_029.jpg	100
622.987	2.116	2115.5	regulate	Run1	regulate/STIM_029.jpg	100
629.033	1.68	1679.5	regulate	Run1	regulate/STIM_029.jpg	99
634.485	0.781	780.8	observe	Run1	observe/STIM_000.jpg	99
638.315	0.938	938.5	observe	Run1	observe/STIM_000.jpg	100
641.869	1.469	1468.8	observe	Run1	observe/STIM_000.jpg	99
645.845	0.889	888.8	observe	Run1	observe/STIM_000.jpg	100
650.1	1.414	1414.1	observe	Run1	observe/STIM_001.jpg	100
655.455	0.905	904.7	observe	Run1	observe/STIM_001.jpg	99
658.798	1.248	1248.1	observe	Run1	observe/STIM_001.jpg	100
663.275	1.394	1393.9	observe	Run1	observe/STIM_001.jpg	99
668.177	1.154	1153.6	observe	Run1	observe/STIM_002.jpg	100
672.933	1.042	1042.3	observe	Run1	observe/STIM_002.jpg	100
676.67	1.033	1032.9	observe	Run1	observe/STIM_002.jpg	100
680.567	1.504	1504.0	observe	Run1	observe/STIM_002.jpg	99
684.7	1.415	1415.2	observe	Run1	observe/STIM_003.jpg	99
688.766	0.914	914.5	observe	Run1	observe/STIM_003.jpg	100
692.095	1.276	1275.6	observe	Run1	observe/STIM_003.jpg	100
696.958	1.506	1506.4	observe	Run1	observe/STIM_003.jpg	100
700.489	0.972	971.5	observe	Run1	observe/STIM_004.jpg	99
703.824	1.38	1380.1	observe	Run1	observe/STIM_004.jpg	100
707.819	1.227	1227.1	observe	Run1	observe/STIM_004.jpg	99
711.074	1.386	1385.6	observe	Run1	observe/STIM_004.jpg	99
716.437	0.89	890.0	observe	Run1	observe/STIM_005.jpg	100
720.23	0.81	810.2	observe	Run1	observe/STIM_005.jpg	100
723.396	1.378	1378.0	observe	Run1	observe/STIM_005.jpg	100
727.76	1.361	1360.7	observe	Run1	observe/STIM_005.jpg	100
731.479	1.0	999.5	observe	Run1	observe/STIM_006.jpg	99
734.677	0.821	821.2	observe	Run1	observe/STIM_006.jpg	100
738.824	1.101	1100.6	observe	Run1	observe/STIM_006.jpg	100
742.631	1.277	1277.3	observe	Run1	observe/STIM_006.jpg	100
746.053	1.493	1493.0	observe	Run1	observe/STIM_007.jpg	99
750.003	0.94	940.0	observe	Run1	observe/STIM_007.jpg	99
754.277	0.852	851.8	observe	Run1	observe/STIM_007.jpg	99
757.165	1.369	1369.1	observe	Run1	observe/STIM_007.jpg	100
761.879	0.811	811.4	observe	Run1	observe/STIM_008.jpg	100
765.108	1.186	1185.8	observe	Run1	observe/STIM_008.jpg	100
769.607	1.424	1423.9	observe	Run1	observe/STIM_008.jpg	100
774.519	1.02	1019.5	observe	Run1	observe/STIM_008.jpg	99
779.44	1.184	1183.9	observe	Run1	observe/STIM_009.jpg	100
783.222	1.255	1255.0	observe	Run1	observe/STIM_009.jpg	99
787.284	1.272	1272.4	observe	Run1	observe/STIM_009.jpg	100
792.042	0.838	838.4	observe	Run1	observe/STIM_009.jpg	100
794.996	1.209	1209.1	observe	Run1	observe/STIM_010.jpg	99
799.9	0.821	821.0	observe	Run1	observe/STIM_010.jpg	99
803.249	1.228	1228.0	observe	Run1	observe/STIM_010.jpg	99
808.42	1.186	1186.4	observe	Run1	observe/STIM_010.jpg	99
812.159	1.312	1311.8	observe	Run1	observe/STIM_011.jpg	100
816.141	1.323	1322.7	observe	Run1	observe/STIM_011.jpg	99
821.256	0.883	882.6	observe	Run1	observe/STIM_011.jpg	100
824.845	1.438	1438.2	observe	Run1	observe/STIM_011.jpg	99
829.095	1.312	1312.0	observe	Run1	observe/STIM_012.jpg	100
833.44	0.769	768.6	observe	Run1	observe/STIM_012.jpg	100
837.977	1.172	1172.3	observe	Run1	observe/STIM_012.jpg	100
842.858	0.901	901.2	observe	Run1	observe/STIM_012.jpg	100
846.498	0.858	858.4	observe	Run1	observe/STIM_013.jpg	100
850.77	1.336	1336.3	observe	Run1	observe/STIM_013.jpg	100
855.73	1.496	1495.8	observe	Run1	observe/STIM_013.jpg	99
860.034	1.402	1401.7	observe	Run1	observe/STIM_013.jpg	99
865.407	1.29	1289.5	observe	Run1	observe/STIM_014.jpg	99
868.938	1.401	1400.9	observe	Run1	observe/STIM_014.jpg	100
872.623	0.968	967.6	observe	Run1	observe/STIM_014.jpg	99
876.112	0.865	864.9	observe	Run1	observe/STIM_014.jpg	99
880.184	1.048	1047.7	observe	Run1	observe/STIM_015.jpg	99
884.948	1.479	1479.1	observe	Run1	observe/STIM_015.jpg	99
890.03	1.292	1291.9	observe	Run1	observe/STIM_015.jpg	100
893.582	0.909	908.7	observe	Run1	observe/STIM_015.jpg	100
896.848	0.759	759.2	observe	Run1	observe/STIM_016.jpg	99
900.059	0.849	848.6	observe	Run1	observe/STIM_016.jpg	99
904.89	1.2	1200.0	observe	Run1	observe/STIM_016.jpg	100
909.477	1.194	1193.8	observe	Run1	observe/STIM_016.jpg	100
914.228	1.122	1121.9	observe	Run1	observe/STIM_017.jpg	99
918.599	1.29	1290.4	observe	Run1	observe/STIM_017.jpg	99
922.461	0.839	838.7	observe	Run1	observe/STIM_017.jpg	100
926.414	0.88	879.7	observe	Run1	observe/STIM_017.jpg	99
929.54	0.767	766.7	observe	Run1	observe/STIM_018.jpg	99
933.937	1.284	1284.1	observe	Run1	observe/STIM_018.jpg	99
938.628	1.511	1510.8	observe	Run1	observe/STIM_018.jpg	100
943.467	1.264	1264.1	observe	Run1	observe/STIM_018.jpg	100
948.039	0.845	844.9	observe	Run1	observe/STIM_019.jpg	99
952.727	1.515	1514.7	observe	Run1	observe/STIM_019.jpg	99
958.162	0.917	917.3	observe	Run1	observe/STIM_019.jpg	100
961.825	0.956	955.8	observe	Run1	observe/STIM_019.jpg	99
966.023	2.284	2284.2	regulate	Run2	regulate/STIM_000.jpg	99
971.241	2.538	2538.0	regulate	Run2	regulate/STIM_000.jpg	100
977.384	2.032	2032.4	regulate	Run2	regulate/STIM_000.jpg	100
983.228	1.676	1675.8	regulate	Run2	regulate/STIM_000.jpg	99
987.393	1.958	1957.5	regulate	Run2	regulate/STIM_001.jpg	100
991.711	2.624	2624.5	regulate	Run2	regulate/STIM_001.jpg	99
998.082	2.218	2217.5	regulate	Run2	regulate/STIM_001.jpg	99
1003.553	1.28	1279.6	regulate	Run2	regulate/STIM_001.jpg	99
1006.894	1.62	1619.5	regulate	Run2	regulate/STIM_002.jpg	100
1010.627	1.376	1375.6	regulate	Run2	regulate/STIM_002.jpg	100
1015.405	1.504	1504.0	regulate	Run2	regulate/STIM_002.jpg	100
1019.889	1.875	1875.1	regulate	Run2	regulate/STIM_002.jpg	100
1025.185	2.62	2620.5	regulate	Run2	regulate/STIM_003.jpg	100
1031.664	2.581	2581.0	regulate	Run2	regulate/STIM_003.jpg	99
1037.732	2.335	2335.1	regulate	Run2	regulate/STIM_003.jpg	99
1042.996	1.333	1332.6	regulate	Run2	regulate/STIM_003.jpg	99
1047.246	2.338	2338.0	regulate	Run2	regulate/STIM_004.jpg	99
1052.233	1.885	1885.1	regulate	Run2	regulate/STIM_004.jpg	99
1057.418	1.658	1657.5	regulate	Run2	regulate/STIM_004.jpg	99
1061.664	1.192	1192.4	regulate	Run2	regulate/STIM_004.jpg	100
1066.695	2.416	2415.9	regulate	Run2	regulate/STIM_005.jpg	99
1071.179	1.23	1230.4	regulate	Run2	regulate/STIM_005.jpg	100
1075.252	1.378	1377.9	regulate	Run2	regulate/STIM_005.jpg	100
1079.366	1.357	1356.8	regulate	Run2	regulate/STIM_005.jpg	100
1084.528	1.454	1454.3	regulate	Run2	regulate/STIM_006.jpg	100
1089.706	1.316	1316.1	regulate	Run2	regulate/STIM_006.jpg	100
1093.048	2.0	2000.1	regulate	Run2	regulate/STIM_006.jpg	99
1097.086	1.484	1483.8	regulate	Run2	regulate/STIM_006.jpg	99
1102.116	2.377	2376.9	regulate	Run2	regulate/STIM_007.jpg	99
1107.633	1.277	1276.9	regulate	Run2	regulate/STIM_007.jpg	100
1112.04	1.225	1225.2	regulate	Run2	regulate/STIM_007.jpg	99
1116.69	1.776	1776.0	regulate	Run2	regulate/STIM_007.jpg	100
1121.508	1.658	1657.5	regulate	Run2	regulate/STIM_008.jpg	100
1125.507	2.487	2487.2	regulate	Run2	regulate/STIM_008.jpg	99
1130.82	1.102	1102.3	regulate	Run2	regulate/STIM_008.jpg	100
1134.601	1.056	1055.5	regulate	Run2	regulate/STIM_008.jpg	99
1138.358	1.793	1793.3	regulate	Run2	regulate/STIM_009.jpg	100
1143.574	1.699	1699.2	regulate	Run2	regulate/STIM_009.jpg	99
1147.445	1.707	1707.0	regulate	Run2	regulate/STIM_009.jpg	99
1151.975	1.201	1201.2	regulate	Run2	regulate/STIM_009.jpg	100
1156.222	1.839	1839.3	regulate	Run2	regulate/STIM_010.jpg	100
1161.127	1.964	1964.5	regulate	Run2	regulate/STIM_010.jpg	99
1166.003	1.381	1380.7	regulate	Run2	regulate/STIM_010.jpg	100
1169.529	1.53	1529.7	regulate	Run2	regulate/STIM_010.jpg	100
1173.649	1.806	1806.4	regulate	Run2	regulate/STIM_011.jpg	99
1179.043	1.705	1704.7	regulate	Run2	regulate/STIM_011.jpg	99
1182.961	1.879	1878.8	regulate	Run2	regulate/STIM_011.jpg	99
1187.559	1.116	1116.1	regulate	Run2	regulate/STIM_011.jpg	100
1191.143	2.584	2584.2	regulate	Run2	regulate/STIM_012.jpg	99
1197.122	1.177	1176.7	regulate	Run2	regulate/STIM_012.jpg	100
1201.557	1.265	1264.9	regulate	Run2	regulate/STIM_012.jpg	99
1205.943	1.554	1554.3	regulate	Run2	regulate/STIM_012.jpg	99
1209.652	1.964	1964.4	regulate	Run2	regulate/STIM_013.jpg	99
1213.96	1.549	1548.9	regulate	Run2	regulate/STIM_013.jpg	99
1219.197	1.779	1779.2	regulate	Run2	regulate/STIM_013.jpg	99
1224.263	1.018	1017.6	regulate	Run2	regulate/STIM_013.jpg	100
1228.539	1.252	1251.6	regulate	Run2	regulate/STIM_014.jpg	99
1231.925	1.542	1542.5	regulate	Run2	regulate/STIM_014.jpg	99
1237.023	1.24	1239.5	regulate	Run2	regulate/STIM_014.jpg	100
1241.04	1.011	1011.4	regulate	Run2	regulate/STIM_014.jpg	99
1244.422	1.587	1586.9	regulate	Run2	regulate/STIM_015.jpg	99
1249.368	1.326	1325.7	regulate	Run2	regulate/STIM_015.jpg	99
1253.025	1.352	1351.9	regulate	Run2	regulate/STIM_015.jpg	99
1257.295	1.642	1642.2	regulate	Run2	regulate/STIM_015.jpg	99
1261.274	1.261	1261.1	regulate	Run2	regulate/STIM_016.jpg	100
1265.151	1.765	1765.0	regulate	Run2	regulate/STIM_016.jpg	100
1269.886	2.127	2127.3	regulate	Run2	regulate/STIM_016.jpg	99
1274.511	1.744	1744.0	regulate	Run2	regulate/STIM_016.jpg	99
1279.171	1.666	1666.2	regulate	Run2	regulate/STIM_017.jpg	99
1284.273	2.533	2532.8	regulate	Run2	regulate/STIM_017.jpg	99
1290.439	2.375	2374.6	regulate	Run2	regulate/STIM_017.jpg	99
1295.543	2.118	2117.6	regulate	Run2	regulate/STIM_017.jpg	100
1300.174	2.231	2230.8	regulate	Run2	regulate/STIM_018.jpg	99
1305.831	1.278	1278.2	regulate	Run2	regulate/STIM_018.jpg	99
1310.801	1.78	1780.4	regulate	Run2	regulate/STIM_018.jpg	99
1314.888	1.912	1912.3	regulate	Run2	regulate/STIM_018.jpg	99
1320.075	2.759	2759.2	regulate	Run2	regulate/STIM_019.jpg	99
1326.332	2.451	2451.0	regulate	Run2	regulate/STIM_019.jpg	100
1332.637	1.796	1796.2	regulate	Run2	regulate/STIM_019.jpg	100
1338.215	1.16	1160.4	regulate	Run2	regulate/STIM_019.jpg	99
1341.484	2.632	2631.9	regulate	Run2	regulate/STIM_020.jpg	99
1346.896	1.169	1169.3	regulate	Run2	regulate/STIM_020.jpg	100
1351.996	1.375	1374.8	regulate	Run2	regulate/STIM_020.jpg	99
1356.118	2.221	2221.3	regulate	Run2	regulate/STIM_020.jpg	99
1360.865	2.446	2445.7	regulate	Run2	regulate/STIM_021.jpg	100
1366.498	1.436	1435.9	regulate	Run2	regulate/STIM_021.jpg	100
1370.76	1.691	1690.7	regulate	Run2	regulate/STIM_021.jpg	99
1375.843	1.368	1368.5	regulate	Run2	regulate/STIM_021.jpg	100
1380.347	1.471	1471.1	regulate	Run2	regulate/STIM_022.jpg	100
1383.939	1.804	1804.1	regulate	Run2	regulate/STIM_022.jpg	100
1388.905	2.249	2249.4	regulate	Run2	regulate/STIM_022.jpg	99
1394.436	1.467	1466.9	regulate	Run2	regulate/STIM_022.jpg	99
1399.335	1.789	1788.8	regulate	Run2	regulate/STIM_023.jpg	99
1404.212	2.342	2342.4	regulate	Run2	regulate/STIM_023.jpg	99
1409.771	1.269	1269.3	regulate	Run2	regulate/STIM_023.jpg	100
1413.631	1.91	1909.7	regulate	Run2	regulate/STIM_023.jpg	99
1417.957	2.188	2188.3	regulate	Run2	regulate/STIM_024.jpg	99
1424.135	2.47	2470.2	regulate	Run2	regulate/STIM_024.jpg	100
1428.661	2.286	2285.7	regulate	Run2	regulate/STIM_024.jpg	100
1434.824	1.714	1713.9	regulate	Run2	regulate/STIM_024.jpg	100
1439.969	2.631	2630.8	regulate	Run2	regulate/STIM_025.jpg	99
1444.823	1.857	1856.7	regulate	Run2	regulate/STIM_025.jpg	99
1450.315	1.477	1476.9	regulate	Run2	regulate/STIM_025.jpg	100
1454.436	2.276	2276.4	regulate	Run2	regulate/STIM_025.jpg	100
1459.905	1.325	1325.2	regulate	Run2	regulate/STIM_026.jpg	99
1463.813	1.6	1600.4	regulate	Run2	regulate/STIM_026.jpg	100
1468.9	1.695	1695.4	regulate	Run2	regulate/STIM_026.jpg	99
1472.75	2.088	2087.9	regulate	Run2	regulate/STIM_026.jpg	100
1478.374	1.602	1601.6	regulate	Run2	regulate/STIM_027.jpg	99
1482.762	1.404	1403.5	regulate	Run2	regulate/STIM_027.jpg	100
1486.457	1.93	1929.5	regulate	Run2	regulate/STIM_027.jpg	99
1491.213	1.309	1308.9	regulate	Run2	regulate/STIM_027.jpg	100
1496.498	2.434	2434.4	regulate	Run2	regulate/STIM_028.jpg	99
1501.067	1.33	1329.5	regulate	Run2	regulate/STIM_028.jpg	99
1505.024	1.452	1452.1	regulate	Run2	regulate/STIM_028.jpg	100
1508.589	1.662	1661.7	regulate	Run2	regulate/STIM_028.jpg	100
1512.48	1.708	1707.7	regulate	Run2	regulate/STIM_029.jpg	99
1516.68	2.132	2132.3	regulate	Run2	regulate/STIM_029.jpg	100
1520.907	1.526	1526.5	regulate	Run2	regulate/STIM_029.jpg	100
1526.088	1.639	1639.3	regulate	Run2	regulate/STIM_029.jpg	99
1530.705	0.766	766.5	observe	Run2	observe/STIM_000.jpg	99
1533.889	1.417	1417.3	observe	Run2	observe/STIM_000.jpg	99
1537.819	0.87	870.4	observe	Run2	observe/STIM_000.jpg	100
1542.061	1.466	1465.8	observe	Run2	observe/STIM_000.jpg	99
1545.899	0.95	950.2	observe	Run2	observe/STIM_001.jpg	99
1548.853	1.233	1232.7	observe	Run2	observe/STIM_001.jpg	99
1552.927	0.871	871.2	observe	Run2	observe/STIM_001.jpg	99
1557.134	0.885	884.6	observe	Run2	observe/STIM_001.jpg	99
1560.42	0.99	990.4	observe	Run2	observe/STIM_002.jpg	99
1564.897	0.852	851.8	observe	Run2	observe/STIM_002.jpg	100
1568.149	0.85	850.4	observe	Run2	observe/STIM_002.jpg	100
1571.215	1.333	1332.6	observe	Run2	observe/STIM_002.jpg	99
1576.361	0.952	952.1	observe	Run2	observe/STIM_003.jpg	100
1580.075	1.313	1312.7	observe	Run2	observe/STIM_003.jpg	99
1585.036	0.827	826.7	observe	Run2	observe/STIM_003.jpg	99
1588.446	0.928	928.4	observe	Run2	observe/STIM_003.jpg	100
1591.85	1.105	1105.0	observe	Run2	observe/STIM_004.jpg	100
1596.152	1.115	1114.8	observe	Run2	observe/STIM_004.jpg	99
1599.867	1.466	1465.9	observe	Run2	observe/STIM_004.jpg	100
1605.085	1.092	1092.5	observe	Run2	observe/STIM_004.jpg	100
1608.87	1.071	1070.6	observe	Run2	observe/STIM_005.jpg	99
1613.296	0.85	849.7	observe	Run2	observe/STIM_005.jpg	99
1617.952	0.787	786.8	observe	Run2	observe/STIM_005.jpg	99
1621.668	1.089	1088.7	observe	Run2	observe/STIM_005.jpg	100
1626.294	1.214	1214.2	observe	Run2	observe/STIM_006.jpg	100
1629.853	0.854	853.8	observe	Run2	observe/STIM_006.jpg	99
1633.145	1.113	1113.2	observe	Run2	observe/STIM_006.jpg	99
1637.685	1.31	1310.2	observe	Run2	observe/STIM_006.jpg	100
1642.928	1.266	1266.3	observe	Run2	observe/STIM_007.jpg	99
1646.599	1.386	1386.4	observe	Run2	observe/STIM_007.jpg	100
1651.357	1.2	1200.5	observe	Run2	observe/STIM_007.jpg	99
1655.642	1.128	1128.2	observe	Run2	observe/STIM_007.jpg	100
1660.678	0.892	892.1	observe	Run2	observe/STIM_008.jpg	100
1665.119	1.223	1222.9	observe	Run2	observe/STIM_008.jpg	99
1668.56	1.134	1134.5	observe	Run2	observe/STIM_008.jpg	100
1672.573	1.147	1147.0	observe	Run2	observe/STIM_008.jpg	100
1677.164	1.424	1423.8	observe	Run2	observe/STIM_009.jpg	100
1682.516	1.382	1381.5	observe	Run2	observe/STIM_009.jpg	99
1686.832	1.319	1319.0	observe	Run2	observe/STIM_009.jpg	100
1691.1	1.396	1396.2	observe	Run2	observe/STIM_009.jpg	99
1695.205	1.511	1511.1	observe	Run2	observe/STIM_010.jpg	99
1699.949	1.024	1024.2	observe	Run2	observe/STIM_010.jpg	99
1703.004	1.072	1071.5	observe	Run2	observe/STIM_010.jpg	100
1707.712	0.928	927.6	observe	Run2	observe/STIM_010.jpg	100
1711.95	1.16	1159.5	observe	Run2	observe/STIM_011.jpg	100
1716.994	1.293	1292.9	observe	Run2	observe/STIM_011.jpg	99
1721.524	1.0	1000.2	observe	Run2	observe/STIM_011.jpg	100
1726.377	1.234	1234.1	observe	Run2	observe/STIM_011.jpg	100
1729.952	1.228	1227.9	observe	Run2	observe/STIM_012.jpg	99
1734.94	1.498	1497.9	observe	Run2	observe/STIM_012.jpg	100
1740.13	1.01	1010.0	observe	Run2	observe/STIM_012.jpg	99
1745.109	1.168	1167.9	observe	Run2	observe/STIM_012.jpg	99
1749.528	1.148	1148.3	observe	Run2	observe/STIM_013.jpg	100
1753.365	1.509	1508.8	observe	Run2	observe/STIM_013.jpg	99
1757.688	0.779	779.3	observe	Run2	observe/STIM_013.jpg	99
1761.393	0.999	999.0	observe	Run2	observe/STIM_013.jpg	100
1765.525	0.816	815.8	observe	Run2	observe/STIM_014.jpg	100
1768.992	0.925	924.7	observe	Run2	observe/STIM_014.jpg	100
1772.616	1.235	1234.9	observe	Run2	observe/STIM_014.jpg	100
1776.023	1.475	1475.3	observe	Run2	observe/STIM_014.jpg	100
1779.588	1.232	1231.7	observe	Run2	observe/STIM_015.jpg	100
1784.281	1.149	1149.3	observe	Run2	observe/STIM_015.jpg	100
1788.656	0.923	922.8	observe	Run2	observe/STIM_015.jpg	100
1792.336	0.996	995.5	observe	Run2	observe/STIM_015.jpg	99
1795.635	0.941	941.2	observe	Run2	observe/STIM_016.jpg	99
1799.502	1.211	1211.3	observe	Run2	observe/STIM_016.jpg	99
1804.613	1.093	1093.3	observe	Run2	observe/STIM_016.jpg	100
1808.031	1.046	1045.9	observe	Run2	observe/STIM_016.jpg	100
1812.106	0.891	890.9	observe	Run2	observe/STIM_017.jpg	100
1815.334	1.056	1055.7	observe	Run2	observe/STIM_017.jpg	100
1819.641	0.877	876.6	observe	Run2	observe/STIM_017.jpg	100
1824.369	1.383	1382.6	observe	Run2	observe/STIM_017.jpg	100
1829.105	1.154	1153.9	observe	Run2	observe/STIM_018.jpg	100
1833.874	1.136	1136.1	observe	Run2	observe/STIM_018.jpg	100
1837.887	1.307	1306.9	observe	Run2	observe/STIM_018.jpg	99
1841.505	1.065	1064.7	observe	Run2	observe/STIM_018.jpg	100
1845.026	0.856	855.5	observe	Run2	observe/STIM_019.jpg	99
1849.567	1.462	1461.6	observe	Run2	observe/STIM_019.jpg	99
1854.228	1.322	1322.1	observe	Run2	observe/STIM_019.jpg	99
1858.052	1.422	1422.0	observe	Run2	observe/STIM_019.jpg	100
1862.789	1.535	1535.3	regulate	Run3	regulate/STIM_000.jpg	100
1867.121	2.263	2263.2	regulate	Run3	regulate/STIM_000.jpg	99
1871.877	2.247	2246.9	regulate	Run3	regulate/STIM_000.jpg	99
1877.823	1.23	1229.9	regulate	Run3	regulate/STIM_000.jpg	100
1881.3	1.524	1524.1	regulate	Run3	regulate/STIM_001.jpg	99
1885.237	1.649	1649.3	regulate	Run3	regulate/STIM_001.jpg	99
1889.867	1.959	1959.0	regulate	Run3	regulate/STIM_001.jpg	100
1894.25	2.148	2148.2	regulate	Run3	regulate/STIM_001.jpg	99
1899.472	1.612	1611.7	regulate	Run3	regulate/STIM_002.jpg	100
1903.781	1.942	1942.5	regulate	Run3	regulate/STIM_002.jpg	99
1907.984	1.284	1283.9	regulate	Run3	regulate/STIM_002.jpg	100
1912.812	1.982	1981.6	regulate	Run3	regulate/STIM_002.jpg	99
1917.263	1.62	1620.5	regulate	Run3	regulate/STIM_003.jpg	99
1922.224	1.651	1650.9	regulate	Run3	regulate/STIM_003.jpg	100
1926.673	2.239	2239.2	regulate	Run3	regulate/STIM_003.jpg	99
1932.911	1.095	1095.2	regulate	Run3	regulate/STIM_003.jpg	99
1936.543	1.494	1493.9	regulate	Run3	regulate/STIM_004.jpg	99
1941.685	1.158	1158.3	regulate	Run3	regulate/STIM_004.jpg	100
1946.133	2.128	2128.5	regulate	Run3	regulate/STIM_004.jpg	100
1950.945	1.451	1450.9	regulate	Run3	regulate/STIM_004.jpg	100
1955.239	1.005	1004.7	regulate	Run3	regulate/STIM_005.jpg	100
1958.313	1.441	1440.7	regulate	Run3	regulate/STIM_005.jpg	100
1963.656	1.691	1691.2	regulate	Run3	regulate/STIM_005.jpg	99
1969.33	1.556	1556.2	regulate	Run3	regulate/STIM_005.jpg	100
1973.715	2.054	2053.6	regulate	Run3	regulate/STIM_006.jpg	99
1977.877	0.999	999.0	regulate	Run3	regulate/STIM_006.jpg	100
1981.316	1.862	1862.1	regulate	Run3	regulate/STIM_006.jpg	100
1985.781	1.432	1431.8	regulate	Run3	regulate/STIM_006.jpg	99
1990.95	1.939	1939.2	regulate	Run3	regulate/STIM_007.jpg	100
1996.694	1.164	1164.5	regulate	Run3	regulate/STIM_007.jpg	100
2001.265	1.77	1770.2	regulate	Run3	regulate/STIM_007.jpg	99
2006.69	2.116	2116.4	regulate	Run3	regulate/STIM_007.jpg	99
2012.416	2.158	2158.1	regulate	Run3	regulate/STIM_008.jpg	99
2016.617	2.073	2072.6	regulate	Run3	regulate/STIM_008.jpg	99
2022.162	1.032	1032.2	regulate	Run3	regulate/STIM_008.jpg	99
2026.987	1.112	1112.2	regulate	Run3	regulate/STIM_008.jpg	99
2030.593	2.181	2181.3	regulate	Run3	regulate/STIM_009.jpg	99
2034.79	1.458	1458.1	regulate	Run3	regulate/STIM_009.jpg	99
2039.077	2.316	2315.8	regulate	Run3	regulate/STIM_009.jpg	100
2044.466	1.131	1131.4	regulate	Run3	regulate/STIM_009.jpg	99
2049.055	2.125	2124.7	regulate	Run3	regulate/STIM_010.jpg	100
2053.816	1.918	1918.4	regulate	Run3	regulate/STIM_010.jpg	100
2059.019	1.556	1555.5	regulate	Run3	regulate/STIM_010.jpg	99
2063.39	2.311	2311.1	regulate	Run3	regulate/STIM_010.jpg	99
2067.875	1.321	1320.6	regulate	Run3	regulate/STIM_011.jpg	99
2071.66	2.008	2007.8	regulate	Run3	regulate/STIM_011.jpg	100
2076.583	2.046	2045.7	regulate	Run3	regulate/STIM_011.jpg	100
2081.194	1.803	1802.7	regulate	Run3	regulate/STIM_011.jpg	100
2086.647	2.029	2028.8	regulate	Run3	regulate/STIM_012.jpg	100
2090.746	1.146	1145.8	regulate	Run3	regulate/STIM_012.jpg	99
2094.651	1.76	1760.0	regulate	Run3	regulate/STIM_012.jpg	100
2099.447	2.176	2176.5	regulate	Run3	regulate/STIM_012.jpg	100
2103.631	1.82	1819.6	regulate	Run3	regulate/STIM_013.jpg	99
2109.144	2.308	2308.2	regulate	Run3	regulate/STIM_013.jpg	100
2115.086	2.041	2041.2	regulate	Run3	regulate/STIM_013.jpg	100
2119.591	2.19	2190.4	regulate	Run3	regulate/STIM_013.jpg	100
2124.732	1.431	1431.0	regulate	Run3	regulate/STIM_014.jpg	100
2128.71	1.414	1413.8	regulate	Run3	regulate/STIM_014.jpg	99
2133.468	1.492	1492.2	regulate	Run3	regulate/STIM_014.jpg	100
2138.21	2.077	2076.6	regulate	Run3	regulate/STIM_014.jpg	100
2142.615	2.321	2320.6	regulate	Run3	regulate/STIM_015.jpg	100
2147.883	2.263	2263.3	regulate	Run3	regulate/STIM_015.jpg	100
2153.547	2.068	2067.7	regulate	Run3	regulate/STIM_015.jpg	99
2159.3	2.145	2144.8	regulate	Run3	regulate/STIM_015.jpg	99
2164.625	1.862	1861.9	regulate	Run3	regulate/STIM_016.jpg	100
2170.425	1.178	1178.4	regulate	Run3	regulate/STIM_016.jpg	99
2174.398	1.53	1530.5	regulate	Run3	regulate/STIM_016.jpg	99
2179.7	1.728	1728.0	regulate	Run3	regulate/STIM_016.jpg	99
2184.727	1.812	1811.5	regulate	Run3	regulate/STIM_017.jpg	100
2190.278	1.516	1515.8	regulate	Run3	regulate/STIM_017.jpg	100
2194.464	1.978	1977.9	regulate	Run3	regulate/STIM_017.jpg	99
2198.748	1.684	1683.7	regulate	Run3	regulate/STIM_017.jpg	100
2204.12	1.731	1730.6	regulate	Run3	regulate/STIM_018.jpg	99
2209.403	1.528	1528.1	regulate	Run3	regulate/STIM_018.jpg	99
2213.083	1.214	1213.9	regulate	Run3	regulate/STIM_018.jpg	99
2216.351	1.683	1683.4	regulate	Run3	regulate/STIM_018.jpg	99
2220.409	1.993	1992.9	regulate	Run3	regulate/STIM_019.jpg	99
2226.321	1.61	1610.4	regulate	Run3	regulate/STIM_019.jpg	99
2231.244	1.558	1558.4	regulate	Run3	regulate/STIM_019.jpg	99
2236.081	1.785	1784.8	regulate	Run3	regulate/STIM_019.jpg	99
2239.902	2.052	2052.4	regulate	Run3	regulate/STIM_020.jpg	99
2244.652	1.876	1876.0	regulate	Run3	regulate/STIM_020.jpg	100
2249.833	2.034	2034.2	regulate	Run3	regulate/STIM_020.jpg	100
2254.099	1.548	1547.6	regulate	Run3	regulate/STIM_020.jpg	99
2258.482	1.038	1038.1	regulate	Run3	regulate/STIM_021.jpg	100
2262.241	1.63	1629.7	regulate	Run3	regulate/STIM_021.jpg	99
2266.468	1.96	1960.1	regulate	Run3	regulate/STIM_021.jpg	100
2271.337	1.482	1481.8	regulate	Run3	regulate/STIM_021.jpg	100
2275.904	1.343	1342.7	regulate	Run3	regulate/STIM_022.jpg	99
2279.733	1.633	1633.1	regulate	Run3	regulate/STIM_022.jpg	99
2284.092	2.306	2305.9	regulate	Run3	regulate/STIM_022.jpg	100
2288.447	2.308	2308.2	regulate	Run3	regulate/STIM_022.jpg	100
2294.074	1.398	1398.0	regulate	Run3	regulate/STIM_023.jpg	99
2298.12	1.603	1603.2	regulate	Run3	regulate/STIM_023.jpg	100
2302.164	1.62	1620.0	regulate	Run3	regulate/STIM_023.jpg	99
2307.558	1.248	1247.7	regulate	Run3	regulate/STIM_023.jpg	100
2310.846	2.081	2080.6	regulate	Run3	regulate/STIM_024.jpg	99
2315.394	1.294	1294.3	regulate	Run3	regulate/STIM_024.jpg	100
2319.239	1.595	1595.1	regulate	Run3	regulate/STIM_024.jpg	99
2323.74	1.999	1999.1	regulate	Run3	regulate/STIM_024.jpg	100
2327.838	1.804	1804.4	regulate	Run3	regulate/STIM_025.jpg	100
2332.265	2.144	2143.6	regulate	Run3	regulate/STIM_025.jpg	99
2336.706	1.591	1591.3	regulate	Run3	regulate/STIM_025.jpg	99
2341.988	1.122	1122.0	regulate	Run3	regulate/STIM_025.jpg	100
2346.061	1.238	1237.6	regulate	Run3	regulate/STIM_026.jpg	100
2350.986	1.323	1323.2	regulate	Run3	regulate/STIM_026.jpg	100
2354.951	1.504	1503.6	regulate	Run3	regulate/STIM_026.jpg	100
2359.055	1.6	1600.0	regulate	Run3	regulate/STIM_026.jpg	99
2364.418	2.216	2215.5	regulate	Run3	regulate/STIM_027.jpg	99
2369.66	1.692	1691.6	regulate	Run3	regulate/STIM_027.jpg	100
2374.425	1.353	1353.2	regulate	Run3	regulate/STIM_027.jpg	100
2378.834	2.224	2223.7	regulate	Run3	regulate/STIM_027.jpg	100
2383.419	1.577	1576.7	regulate	Run3	regulate/STIM_028.jpg	100
2388.867	1.064	1063.7	regulate	Run3	regulate/STIM_028.jpg	99
2393.326	2.007	2006.8	regulate	Run3	regulate/STIM_028.jpg	99
2397.648	2.133	2133.4	regulate	Run3	regulate/STIM_028.jpg	100
2403.357	1.337	1336.6	regulate	Run3	regulate/STIM_029.jpg	100
2408.584	2.192	2192.3	regulate	Run3	regulate/STIM_029.jpg	99
2414.323	2.047	2047.2	regulate	Run3	regulate/STIM_029.jpg	99
2419.374	1.181	1181.2	regulate	Run3	regulate/STIM_029.jpg	100
2423.162	0.871	870.7	observe	Run3	observe/STIM_000.jpg	100
2426.472	1.466	1466.4	observe	Run3	observe/STIM_000.jpg	99
2431.781	1.294	1294.5	observe	Run3	observe/STIM_000.jpg	99
2435.764	1.407	1407.1	observe	Run3	observe/STIM_000.jpg	100
2439.324	1.262	1261.8	observe	Run3	observe/STIM_001.jpg	99
2442.71	1.338	1337.7	observe	Run3	observe/STIM_001.jpg	100
2448.02	1.476	1476.4	observe	Run3	observe/STIM_001.jpg	100
2452.765	0.887	886.7	observe	Run3	observe/STIM_001.jpg	99
2456.152	1.02	1019.9	observe	Run3	observe/STIM_002.jpg	100
2459.85	1.052	1052.3	observe	Run3	observe/STIM_002.jpg	99
2463.891	0.992	991.8	observe	Run3	observe/STIM_002.jpg	99
2468.456	0.976	976.5	observe	Run3	observe/STIM_002.jpg	100
2472.279	1.321	1320.8	observe	Run3	observe/STIM_003.jpg	100
2476.429	1.452	1451.9	observe	Run3	observe/STIM_003.jpg	99
2481.706	1.509	1509.3	observe	Run3	observe/STIM_003.jpg	99
2485.407	1.15	1150.1	observe	Run3	observe/STIM_003.jpg	100
2489.178	0.939	939.3	observe	Run3	observe/STIM_004.jpg	100
2493.164	0.861	861.1	observe	Run3	observe/STIM_004.jpg	100
2497.048	1.164	1163.5	observe	Run3	observe/STIM_004.jpg	100
2500.922	0.969	968.8	observe	Run3	observe/STIM_004.jpg	99
2505.529	0.849	848.8	observe	Run3	observe/STIM_005.jpg	99
2508.712	1.374	1374.5	observe	Run3	observe/STIM_005.jpg	100
2513.478	1.461	1461.2	observe	Run3	observe/STIM_005.jpg	99
2518.056	1.231	1230.8	observe	Run3	observe/STIM_005.jpg	99
2522.017	0.806	805.5	observe	Run3	observe/STIM_006.jpg	99
2525.867	0.791	791.3	observe	Run3	observe/STIM_006.jpg	99
2530.006	1.391	1391.4	observe	Run3	observe/STIM_006.jpg	99
2533.423	1.412	1412.1	observe	Run3	observe/STIM_006.jpg	100
2537.767	0.841	841.4	observe	Run3	observe/STIM_007.jpg	99
2541.271	0.815	814.8	observe	Run3	observe/STIM_007.jpg	99
2544.223	0.922	921.6	observe	Run3	observe/STIM_007.jpg	100
2547.758	0.823	823.0	observe	Run3	observe/STIM_007.jpg	99
2551.006	1.334	1334.0	observe	Run3	observe/STIM_008.jpg	99
2555.525	1.276	1276.1	observe	Run3	observe/STIM_008.jpg	99
2559.185	1.333	1332.6	observe	Run3	observe/STIM_008.jpg	99
2564.046	0.874	873.6	observe	Run3	observe/STIM_008.jpg	99
2567.531	1.165	1165.4	observe	Run3	observe/STIM_009.jpg	100
2571.396	1.416	1415.5	observe	Run3	observe/STIM_009.jpg	100
2576.627	1.422	1421.5	observe	Run3	observe/STIM_009.jpg	100
2581.027	1.109	1108.6	observe	Run3	observe/STIM_009.jpg	99
2585.8	0.865	864.9	observe	Run3	observe/STIM_010.jpg	100
2588.971	0.915	915.1	observe	Run3	observe/STIM_010.jpg	99
2592.648	0.994	994.4	observe	Run3	observe/STIM_010.jpg	100
2595.665	0.81	809.6	observe	Run3	observe/STIM_010.jpg	100
2600.238	0.991	990.7	observe	Run3	observe/STIM_011.jpg	99
2604.758	1.18	1180.3	observe	Run3	observe/STIM_011.jpg	100
2608.04	0.896	896.1	observe	Run3	observe/STIM_011.jpg	99
2611.277	1.354	1354.0	observe	Run3	observe/STIM_011.jpg	100
2615.463	1.069	1069.4	observe	Run3	observe/STIM_012.jpg	100
2618.8	1.36	1360.5	observe	Run3	observe/STIM_012.jpg	100
2623.305	0.931	931.1	observe	Run3	observe/STIM_012.jpg	99
2626.787	0.807	807.0	observe	Run3	observe/STIM_012.jpg	99
2629.734	1.141	1141.3	observe	Run3	observe/STIM_013.jpg	99
2633.169	1.304	1304.5	observe	Run3	observe/STIM_013.jpg	99
2636.906	0.926	925.6	observe	Run3	observe/STIM_013.jpg	100
2641.114	1.255	1255.4	observe	Run3	observe/STIM_013.jpg	100
2645.866	1.005	1004.7	observe	Run3	observe/STIM_014.jpg	99
2650.545	0.882	882.3	observe	Run3	observe/STIM_014.jpg	100
2655.117	1.309	1309.1	observe	Run3	observe/STIM_014.jpg	100
2659.659	1.229	1229.4	observe	Run3	observe/STIM_014.jpg	100
2663.273	1.417	1416.7	observe	Run3	observe/STIM_015.jpg	100
2667.44	1.093	1093.0	observe	Run3	observe/STIM_015.jpg	100
2672.351	1.198	1197.9	observe	Run3	observe/STIM_015.jpg	100
2676.402	1.116	1116.3	observe	Run3	observe/STIM_015.jpg	99
2679.913	1.281	1280.6	observe	Run3	observe/STIM_016.jpg	100
2684.077	1.28	1279.9	observe	Run3	observe/STIM_016.jpg	100
2687.561	1.378	1377.7	observe	Run3	observe/STIM_016.jpg	100
2692.233	1.223	1222.8	observe	Run3	observe/STIM_016.jpg	100
2697.058	1.166	1166.4	observe	Run3	observe/STIM_017.jpg	99
2701.401	0.851	850.8	observe	Run3	observe/STIM_017.jpg	99
2705.587	1.031	1031.1	observe	Run3	observe/STIM_017.jpg	99
2709.564	1.138	1137.9	observe	Run3	observe/STIM_017.jpg	100
2714.057	1.412	1411.6	observe	Run3	observe/STIM_018.jpg	100
2717.863	1.309	1309.4	observe	Run3	observe/STIM_018.jpg	99
2723.066	1.365	1364.9	observe	Run3	observe/STIM_018.jpg	99
2727.695	0.914	914.2	observe	Run3	observe/STIM_018.jpg	99
2731.641	0.945	944.8	observe	Run3	observe/STIM_019.jpg	99
2736.131	0.908	908.1	observe	Run3	observe/STIM_019.jpg	99
2739.705	1.189	1188.9	observe	Run3	observe/STIM_019.jpg	99
2744.389	1.12	1120.1	observe	Run3	observe/STIM_019.jpg	99
