onset	duration	response_time_ms	trial_type	learning_stage	stimulus	response_port
0.0	2.432	2432.2	regulate	Run1	regulate/STIM_000.jpg	99
5.066	1.842	1842.2	regulate	Run1	regulate/STIM_000.jpg	100
9.085	1.483	1482.9	regulate	Run1	regulate/STIM_000.jpg	99
13.801	2.905	2905.4	regulate	Run1	regulate/STIM_000.jpg	100
19.76	3.215	3214.9	regulate	Run1	regulate/STIM_001.jpg	99
26.606	1.977	1977.3	regulate	Run1	regulate/STIM_001.jpg	99
30.863	1.867	1866.8	regulate	Run1	regulate/STIM_001.jpg	99
36.19	2.948	2947.9	regulate	Run1	regulate/STIM_001.jpg	99
41.338	2.876	2876.0	regulate	Run1	regulate/STIM_002.jpg	99
46.446	2.092	2092.5	regulate	Run1	regulate/STIM_002.jpg	99
51.076	3.198	3198.1	regulate	Run1	regulate/STIM_002.jpg	100
58.078	1.615	1614.6	regulate	Run1	regulate/STIM_002.jpg	99
62.72	1.846	1845.6	regulate	Run1	regulate/STIM_003.jpg	99
67.062	2.674	2674.0	regulate	Run1	regulate/STIM_003.jpg	100
72.855	1.674	1673.5	regulate	Run1	regulate/STIM_003.jpg	99
76.658	2.792	2791.7	regulate	Run1	regulate/STIM_003.jpg	100
82.913	2.911	2911.0	regulate	Run1	regulate/STIM_004.jpg	100
87.886	2.118	2117.6	regulate	Run1	regulate/STIM_004.jpg	99
91.95	3.11	3109.8	regulate	Run1	regulate/STIM_004.jpg	99
98.346	2.642	2641.7	regulate	Run1	regulate/STIM_004.jpg	99
103.762	1.681	1681.2	regulate	Run1	regulate/STIM_005.jpg	99
107.54	2.624	2624.1	regulate	Run1	regulate/STIM_005.jpg	100
112.148	1.927	1926.9	regulate	Run1	regulate/STIM_005.jpg	100
116.104	2.701	2701.4	regulate	Run1	regulate/STIM_005.jpg	100
121.03	3.237	3237.2	regulate	Run1	regulate/STIM_006.jpg	99
126.627	1.942	1941.7	regulate	Run1	regulate/STIM_006.jpg	100
131.272	2.896	2895.7	regulate	Run1	regulate/STIM_006.jpg	100
137.857	2.915	2915.1	regulate	Run1	regulate/STIM_006.jpg	100
143.281	3.582	3581.8	regulate	Run1	regulate/STIM_007.jpg	100
150.447	3.242	3241.7	regulate	Run1	regulate/STIM_007.jpg	99
156.462	2.981	2980.7	regulate	Run1	regulate/STIM_007.jpg	99
162.642	2.176	2175.6	regulate	Run1	regulate/STIM_007.jpg	100
167.497	2.018	2018.4	regulate	Run1	regulate/STIM_008.jpg	99
172.514	2.102	2102.3	regulate	Run1	regulate/STIM_008.jpg	100
177.042	2.297	2297.2	regulate	Run1	regulate/STIM_008.jpg	99
182.199	1.624	1623.9	regulate	Run1	regulate/STIM_008.jpg	100
185.924	2.991	2990.9	regulate	Run1	regulate/STIM_009.jpg	100
191.692	2.506	2506.5	regulate	Run1	regulate/STIM_009.jpg	99
196.483	2.345	2344.9	regulate	Run1	regulate/STIM_009.jpg	100
200.898	2.189	2189.4	regulate	Run1	regulate/STIM_009.jpg	99
205.908	2.558	2557.6	regulate	Run1	regulate/STIM_010.jpg	99
211.197	2.233	2232.8	regulate	Run1	regulate/STIM_010.jpg	99
217.142	2.364	2363.9	regulate	Run1	regulate/STIM_010.jpg	100
221.519	1.653	1652.8	regulate	Run1	regulate/STIM_010.jpg	100
225.865	2.46	2460.5	regulate	Run1	regulate/STIM_011.jpg	100
231.43	1.508	1508.0	regulate	Run1	regulate/STIM_011.jpg	99
236.063	2.011	2010.6	regulate	Run1	regulate/STIM_011.jpg	99
241.418	1.879	1879.3	regulate	Run1	regulate/STIM_011.jpg	99
246.559	2.055	2054.9	regulate	Run1	regulate/STIM_012.jpg	100
252.483	2.597	2597.3	regulate	Run1	regulate/STIM_012.jpg	99
257.932	3.118	3118.1	regulate	Run1	regulate/STIM_012.jpg	100
262.904	2.432	2431.5	regulate	Run1	regulate/STIM_012.jpg	99
268.517	2.032	2031.9	regulate	Run1	regulate/STIM_013.jpg	99
273.697	1.538	1538.0	regulate	Run1	regulate/STIM_013.jpg	99
277.837	3.145	3144.6	regulate	Run1	regulate/STIM_013.jpg	100
284.516	2.392	2392.4	regulate	Run1	regulate/STIM_013.jpg	100
289.239	1.925	1924.8	regulate	Run1	regulate/STIM_014.jpg	100
293.775	1.655	1654.6	regulate	Run1	regulate/STIM_014.jpg	100
298.123	1.464	1464.2	regulate	Run1	regulate/STIM_014.jpg	100
301.976	1.864	1863.7	regulate	Run1	regulate/STIM_014.jpg	100
306.148	2.125	2124.8	regulate	Run1	regulate/STIM_015.jpg	100
310.666	1.492	1491.6	regulate	Run1	regulate/STIM_015.jpg	100
315.567	2.068	2067.9	regulate	Run1	regulate/STIM_015.jpg	99
320.477	3.032	3032.3	regulate	Run1	regulate/STIM_015.jpg	99
325.606	3.021	3021.3	regulate	Run1	regulate/STIM_016.jpg	99
331.688	3.505	3504.9	regulate	Run1	regulate/STIM_016.jpg	100
338.422	2.043	2043.5	regulate	Run1	regulate/STIM_016.jpg	100
344.152	1.533	1532.9	regulate	Run1	regulate/STIM_016.jpg	100
348.25	1.868	1868.4	regulate	Run1	regulate/STIM_017.jpg	99
352.461	2.928	2927.5	regulate	Run1	regulate/STIM_017.jpg	100
357.707	1.984	1983.8	regulate	Run1	regulate/STIM_017.jpg	99
362.613	2.252	2252.0	regulate	Run1	regulate/STIM_017.jpg	99
368.456	3.112	3112.3	regulate	Run1	regulate/STIM_018.jpg	99
374.589	3.2	3200.0	regulate	Run1	regulate/STIM_018.jpg	100
381.598	3.03	3029.9	regulate	Run1	regulate/STIM_018.jpg	99
387.831	2.556	2555.7	regulate	Run1	regulate/STIM_018.jpg	99
393.749	3.03	3030.3	regulate	Run1	regulate/STIM_019.jpg	99
400.142	2.386	2385.6	regulate	Run1	regulate/STIM_019.jpg	99
404.677	1.38	1380.1	regulate	Run1	regulate/STIM_019.jpg	99
409.282	3.064	3063.7	regulate	Run1	regulate/STIM_019.jpg	100
414.908	2.405	2405.1	regulate	Run1	regulate/STIM_020.jpg	99
420.597	3.044	3044.2	regulate	Run1	regulate/STIM_020.jpg	100
425.534	1.956	1955.5	regulate	Run1	regulate/STIM_020.jpg	100
429.961	2.39	2390.1	regulate	Run1	regulate/STIM_020.jpg	100
434.778	2.241	2240.9	regulate	Run1	regulate/STIM_021.jpg	99
439.593	3.31	3310.0	regulate	Run1	regulate/STIM_021.jpg	99
446.217	2.485	2484.6	regulate	Run1	regulate/STIM_021.jpg	99
451.789	2.696	2695.5	regulate	Run1	regulate/STIM_021.jpg	99
457.009	3.641	3641.1	regulate	Run1	regulate/STIM_022.jpg	100
463.993	2.527	2527.4	regulate	Run1	regulate/STIM_022.jpg	100
470.34	2.379	2379.4	regulate	Run1	regulate/STIM_022.jpg	100
475.082	2.277	2276.7	regulate	Run1	regulate/STIM_022.jpg	100
480.819	3.188	3187.9	regulate	Run1	regulate/STIM_023.jpg	100
486.611	2.495	2495.0	regulate	Run1	regulate/STIM_023.jpg	100
491.526	3.108	3108.1	regulate	Run1	regulate/STIM_023.jpg	99
497.566	2.728	2727.7	regulate	Run1	regulate/STIM_023.jpg	100
502.288	3.121	3120.6	regulate	Run1	regulate/STIM_024.jpg	99
508.622	2.52	2520.1	regulate	Run1	regulate/STIM_024.jpg	100
513.394	2.857	2856.6	regulate	Run1	regulate/STIM_024.jpg	99
519.115	1.234	1233.7	regulate	Run1	regulate/STIM_024.jpg	99
522.806	2.678	2678.5	regulate	Run1	regulate/STIM_025.jpg	100
527.556	2.904	2903.8	regulate	Run1	regulate/STIM_025.jpg	99
533.021	3.015	3015.4	regulate	Run1	regulate/STIM_025.jpg	99
538.712	2.19	2189.7	regulate	Run1	regulate/STIM_025.jpg	100
543.084	1.707	1707.4	regulate	Run1	regulate/STIM_026.jpg	99
546.937	3.249	3248.7	regulate	Run1	regulate/STIM_026.jpg	99
552.889	1.747	1746.8	regulate	Run1	regulate/STIM_026.jpg	99
556.882	2.252	2252.3	regulate	Run1	regulate/STIM_026.jpg	99
561.406	3.508	3508.3	regulate	Run1	regulate/STIM_027.jpg	99
567.381	1.654	1653.8	regulate	Run1	regulate/STIM_027.jpg	99
571.852	2.224	2223.7	regulate	Run1	regulate/STIM_027.jpg	100
576.235	1.949	1949.4	regulate	Run1	regulate/STIM_027.jpg	99
581.007	2.707	2707.1	regulate	Run1	regulate/STIM_028.jpg	100
586.876	2.779	2779.0	regulate	Run1	regulate/STIM_028.jpg	99
591.704	3.03	3029.7	regulate	Run1	regulate/STIM_028.jpg	99
597.167	1.38	1379.9	regulate	Run1	regulate/STIM_028.jpg	100
602.26	3.55	3549.6	regulate	Run1	regulate/STIM_029.jpg	100
609.361	3.386	3386.3	regulate	Run1	regulate/STIM_029.jpg	100
614.661	3.155	3155.1	regulate	Run1	regulate/STIM_029.jpg	100
621.404	2.663	2663.4	regulate	Run1	regulate/STIM_029.jpg	99
625.997	1.395	1394.6	observe	Run1	observe/STIM_000.jpg	99
630.555	1.447	1447.2	observe	Run1	observe/STIM_000.jpg	100
634.656	1.202	1201.8	observe	Run1	observe/STIM_000.jpg	99
638.221	1.135	1135.1	observe	Run1	observe/STIM_000.jpg	100
642.77	1.155	1155.2	observe	Run1	observe/STIM_001.jpg	100
646.462	1.404	1403.6	observe	Run1	observe/STIM_001.jpg	99
650.622	0.932	931.5	observe	Run1	observe/STIM_001.jpg	100
653.841	1.216	1215.9	observe	Run1	observe/STIM_001.jpg	99
658.201	1.016	1016.4	observe	Run1	observe/STIM_002.jpg	100
661.473	1.552	1552.2	observe	Run1	observe/STIM_002.jpg	100
666.705	0.993	993.2	observe	Run1	observe/STIM_002.jpg	100
669.843	1.552	1551.9	observe	Run1	observe/STIM_002.jpg	99
673.362	1.609	1608.6	observe	Run1	observe/STIM_003.jpg	99
677.79	1.183	1182.6	observe	Run1	observe/STIM_003.jpg	100
682.277	1.496	1496.1	observe	Run1	observe/STIM_003.jpg	100
687.371	1.449	1449.1	observe	Run1	observe/STIM_003.jpg	100
692.75	1.313	1313.0	observe	Run1	observe/STIM_004.jpg	99
696.158	1.738	1738.0	observe	Run1	observe/STIM_004.jpg	100
701.09	0.841	840.7	observe	Run1	observe/STIM_004.jpg	99
705.81	1.29	1290.0	observe	Run1	observe/STIM_004.jpg	99
709.695	1.268	1267.7	observe	Run1	observe/STIM_005.jpg	100
714.641	0.935	935.3	observe	Run1	observe/STIM_005.jpg	100
719.24	1.038	1038.4	observe	Run1	observe/STIM_005.jpg	100
722.903	1.283	1283.3	observe	Run1	observe/STIM_005.jpg	100
726.24	1.285	1284.6	observe	Run1	observe/STIM_006.jpg	99
730.972	1.02	1019.7	observe	Run1	observe/STIM_006.jpg	100
734.292	0.918	917.7	observe	Run1	observe/STIM_006.jpg	100
737.383	0.857	857.1	observe	Run1	observe/STIM_006.jpg	100
741.126	1.072	1071.7	observe	Run1	observe/STIM_007.jpg	99
744.734	1.504	1504.1	observe	Run1	observe/STIM_007.jpg	99
749.909	1.134	1134.1	observe	Run1	observe/STIM_007.jpg	99
753.931	1.69	1690.1	observe	Run1	observe/STIM_007.jpg	100
757.548	1.013	1012.8	observe	Run1	observe/STIM_008.jpg	100
761.325	1.257	1257.0	observe	Run1	observe/STIM_008.jpg	100
765.421	1.297	1296.6	observe	Run1	observe/STIM_008.jpg	100
768.988	1.622	1621.8	observe	Run1	observe/STIM_008.jpg	99
774.015	1.048	1048.0	observe	Run1	observe/STIM_009.jpg	100
777.84	1.639	1638.7	observe	Run1	observe/STIM_009.jpg	99
782.467	1.159	1158.8	observe	Run1	observe/STIM_009.jpg	100
787.129	1.04	1039.8	observe	Run1	observe/STIM_009.jpg	100
790.383	1.341	1340.7	observe	Run1	observe/STIM_010.jpg	99
794.612	1.237	1237.3	observe	Run1	observe/STIM_010.jpg	99
799.137	1.626	1626.4	observe	Run1	observe/STIM_010.jpg	99
803.949	1.625	1624.6	observe	Run1	observe/STIM_010.jpg	99
808.8	1.069	1068.6	observe	Run1	observe/STIM_011.jpg	100
811.9	1.281	1281.0	observe	Run1	observe/STIM_011.jpg	99
816.644	1.194	1193.7	observe	Run1	observe/STIM_011.jpg	100
819.913	1.073	1073.1	observe	Run1	observe/STIM_011.jpg	99
822.956	1.227	1227.1	observe	Run1	observe/STIM_012.jpg	100
827.724	1.588	1588.4	observe	Run1	observe/STIM_012.jpg	100
832.556	1.673	1673.1	observe	Run1	observe/STIM_012.jpg	100
836.66	0.938	938.5	observe	Run1	observe/STIM_012.jpg	100
840.823	1.494	1494.4	observe	Run1	observe/STIM_013.jpg	100
845.635	1.672	1672.0	observe	Run1	observe/STIM_013.jpg	100
850.154	1.399	1398.7	observe	Run1	observe/STIM_013.jpg	99
854.029	1.226	1225.5	observe	Run1	observe/STIM_013.jpg	99
858.769	1.157	1157.1	observe	Run1	observe/STIM_014.jpg	99
862.057	0.798	797.7	observe	Run1	observe/STIM_014.jpg	100
866.534	1.298	1298.3	observe	Run1	observe/STIM_014.jpg	99
870.584	0.966	966.4	observe	Run1	observe/STIM_014.jpg	99
874.632	1.226	1226.1	observe	Run1	observe/STIM_015.jpg	99
877.92	1.01	1010.2	observe	Run1	observe/STIM_015.jpg	99
882.451	1.154	1153.8	observe	Run1	observe/STIM_015.jpg	100
887.315	1.088	1087.7	observe	Run1	observe/STIM_015.jpg	100
891.024	1.622	1622.5	observe	Run1	observe/STIM_016.jpg	99
895.587	1.441	1441.4	observe	Run1	observe/STIM_016.jpg	99
899.714	1.345	1344.7	observe	Run1	observe/STIM_016.jpg	100
903.742	1.318	1318.0	observe	Run1	observe/STIM_016.jpg	100
907.647	0.902	901.5	observe	Run1	observe/STIM_017.jpg	99
911.558	1.047	1047.4	observe	Run1	observe/STIM_017.jpg	99
915.724	1.176	1176.2	observe	Run1	observe/STIM_017.jpg	100
919.521	1.636	1636.2	observe	Run1	observe/STIM_017.jpg	99
923.348	1.098	1097.7	observe	Run1	observe/STIM_018.jpg	99
928.185	1.304	1304.4	observe	Run1	observe/STIM_018.jpg	99
931.791	1.665	1665.2	observe	Run1	observe/STIM_018.jpg	100
935.569	1.558	1558.0	observe	Run1	observe/STIM_018.jpg	100
940.9	1.444	1443.8	observe	Run1	observe/STIM_019.jpg	99
945.956	1.368	1367.5	observe	Run1	observe/STIM_019.jpg	99
950.671	1.141	1141.0	observe	Run1	observe/STIM_019.jpg	100
954.442	1.037	1036.8	observe	Run1	observe/STIM_019.jpg	99
959.031	1.469	1469.3	regulate	Run2	regulate/STIM_000.jpg	99
964.01	2.72	2719.7	regulate	Run2	regulate/STIM_000.jpg	100
968.736	2.438	2437.8	regulate	Run2	regulate/STIM_000.jpg	100
975.121	1.638	1638.3	regulate	Run2	regulate/STIM_000.jpg	99
978.843	2.384	2384.5	regulate	Run2	regulate/STIM_001.jpg	100
984.417	1.407	1407.4	regulate	Run2	regulate/STIM_001.jpg	99
988.112	1.782	1781.9	regulate	Run2	regulate/STIM_001.jpg	99
991.819	2.099	2098.9	regulate	Run2	regulate/STIM_001.jpg	99
996.076	1.624	1624.2	regulate	Run2	regulate/STIM_002.jpg	100
1000.035	2.83	2830.5	regulate	Run2	regulate/STIM_002.jpg	100
1005.065	2.325	2325.4	regulate	Run2	regulate/STIM_002.jpg	100
1011.202	1.429	1429.0	regulate	Run2	regulate/STIM_002.jpg	100
1015.568	1.78	1779.6	regulate	Run2	regulate/STIM_003.jpg	100
1020.8	2.445	2444.8	regulate	Run2	regulate/STIM_003.jpg	99
1026.702	1.501	1501.2	regulate	Run2	regulate/STIM_003.jpg	99
1030.615	1.964	1964.0	regulate	Run2	regulate/STIM_003.jpg	99
1035.32	2.615	2615.2	regulate	Run2	regulate/STIM_004.jpg	99
1041.727	2.368	2367.9	regulate	Run2	regulate/STIM_004.jpg	99
1047.986	1.614	1613.7	regulate	Run2	regulate/STIM_004.jpg	99
1051.731	2.517	2517.2	regulate	Run2	regulate/STIM_004.jpg	100
1057.398	2.339	2339.2	regulate	Run2	regulate/STIM_005.jpg	99
1062.091	1.81	1809.5	regulate	Run2	regulate/STIM_005.jpg	100
1067.539	1.179	1179.2	regulate	Run2	regulate/STIM_005.jpg	100
1071.833	1.947	1946.7	regulate	Run2	regulate/STIM_005.jpg	100
1075.765	2.323	2323.4	regulate	Run2	regulate/STIM_006.jpg	100
1080.166	2.166	2166.4	regulate	Run2	regulate/STIM_006.jpg	100
1085.326	1.311	1311.3	regulate	Run2	regulate/STIM_006.jpg	99
1088.855	1.847	1847.4	regulate	Run2	regulate/STIM_006.jpg	99
1094.262	1.452	1452.5	regulate	Run2	regulate/STIM_007.jpg	99
1098.046	1.658	1658.0	regulate	Run2	regulate/STIM_007.jpg	100
1101.809	2.353	2353.0	regulate	Run2	regulate/STIM_007.jpg	99
1107.27	1.986	1986.4	regulate	Run2	regulate/STIM_007.jpg	100
1112.233	2.633	2632.8	regulate	Run2	regulate/STIM_008.jpg	100
1118.366	1.865	1865.0	regulate	Run2	regulate/STIM_008.jpg	99
1123.622	1.962	1961.6	regulate	Run2	regulate/STIM_008.jpg	100
1129.058	1.275	1275.3	regulate	Run2	regulate/STIM_008.jpg	99
1132.449	2.932	2932.1	regulate	Run2	regulate/STIM_009.jpg	100
1139.104	2.851	2851.0	regulate	Run2	regulate/STIM_009.jpg	99
1145.477	1.586	1586.0	regulate	Run2	regulate/STIM_009.jpg	99
1150.123	2.491	2490.7	regulate	Run2	regulate/STIM_009.jpg	100
1155.617	2.328	2328.2	regulate	Run2	regulate/STIM_010.jpg	100
1160.276	2.691	2690.7	regulate	Run2	regulate/STIM_010.jpg	99
1165.318	2.75	2750.0	regulate	Run2	regulate/STIM_010.jpg	100
1169.967	1.75	1749.9	regulate	Run2	regulate/STIM_010.jpg	100
1175.505	1.57	1569.8	regulate	Run2	regulate/STIM_011.jpg	99
1179.189	2.294	2293.5	regulate	Run2	regulate/STIM_011.jpg	99
1183.994	1.519	1518.7	regulate	Run2	regulate/STIM_011.jpg	99
1188.296	1.024	1024.2	regulate	Run2	regulate/STIM_011.jpg	100
1191.674	2.852	2852.5	regulate	Run2	regulate/STIM_012.jpg	99
1197.518	2.688	2688.3	regulate	Run2	regulate/STIM_012.jpg	100
1202.538	1.355	1355.0	regulate	Run2	regulate/STIM_012.jpg	99
1206.408	1.166	1165.6	regulate	Run2	regulate/STIM_012.jpg	99
1209.972	1.445	1444.6	regulate	Run2	regulate/STIM_013.jpg	99
1213.391	2.13	2130.0	regulate	Run2	regulate/STIM_013.jpg	99
1218.934	2.395	2394.8	regulate	Run2	regulate/STIM_013.jpg	99
1223.683	2.302	2302.4	regulate	Run2	regulate/STIM_013.jpg	100
1228.656	2.074	2073.8	regulate	Run2	regulate/STIM_014.jpg	99
1234.503	2.114	2113.9	regulate	Run2	regulate/STIM_014.jpg	99
1239.152	1.804	1803.8	regulate	Run2	regulate/STIM_014.jpg	100
1244.689	2.32	2319.7	regulate	Run2	regulate/STIM_014.jpg	99
1249.659	2.269	2268.8	regulate	Run2	regulate/STIM_015.jpg	99
1255.542	2.2	2199.5	regulate	Run2	regulate/STIM_015.jpg	99
1260.677	2.406	2405.5	regulate	Run2	regulate/STIM_015.jpg	99
1265.913	2.33	2329.5	regulate	Run2	regulate/STIM_015.jpg	99
1271.013	1.537	1537.4	regulate	Run2	regulate/STIM_016.jpg	100
1275.942	2.416	2415.9	regulate	Run2	regulate/STIM_016.jpg	100
1281.416	2.236	2236.2	regulate	Run2	regulate/STIM_016.jpg	99
1286.771	2.408	2408.5	regulate	Run2	regulate/STIM_016.jpg	99
1293.001	2.372	2371.9	regulate	Run2	regulate/STIM_017.jpg	99
1297.37	1.469	1468.6	regulate	Run2	regulate/STIM_017.jpg	99
1301.892	2.62	2619.6	regulate	Run2	regulate/STIM_017.jpg	99
1307.235	1.574	1573.5	regulate	Run2	regulate/STIM_017.jpg	100
1310.808	1.856	1855.8	regulate	Run2	regulate/STIM_018.jpg	99
1315.419	1.512	1512.0	regulate	Run2	regulate/STIM_018.jpg	99
1319.185	2.487	2486.6	regulate	Run2	regulate/STIM_018.jpg	99
1324.576	2.327	2327.4	regulate	Run2	regulate/STIM_018.jpg	99
1330.501	1.648	1648.5	regulate	Run2	regulate/STIM_019.jpg	99
1335.95	2.616	2615.6	regulate	Run2	regulate/STIM_019.jpg	100
1341.267	2.198	2198.5	regulate	Run2	regulate/STIM_019.jpg	100
1347.139	1.54	1539.7	regulate	Run2	regulate/STIM_019.jpg	99
1350.959	2.336	2335.6	regulate	Run2	regulate/STIM_020.jpg	99
1355.818	2.345	2345.1	regulate	Run2	regulate/STIM_020.jpg	100
1360.379	1.978	1978.1	regulate	Run2	regulate/STIM_020.jpg	99
1366.192	1.233	1232.7	regulate	Run2	regulate/STIM_020.jpg	99
1369.544	1.785	1785.2	regulate	Run2	regulate/STIM_021.jpg	100
1375.132	2.637	2637.0	regulate	Run2	regulate/STIM_021.jpg	100
1380.485	2.604	2603.5	regulate	Run2	regulate/STIM_021.jpg	99
1385.209	1.165	1165.2	regulate	Run2	regulate/STIM_021.jpg	100
1388.588	2.472	2471.9	regulate	Run2	regulate/STIM_022.jpg	100
1393.972	2.763	2763.3	regulate	Run2	regulate/STIM_022.jpg	100
1399.715	2.374	2374.1	regulate	Run2	regulate/STIM_022.jpg	99
1404.841	1.408	1407.8	regulate	Run2	regulate/STIM_022.jpg	99
1408.579	2.031	2031.0	regulate	Run2	regulate/STIM_023.jpg	99
1413.432	2.1	2100.2	regulate	Run2	regulate/STIM_023.jpg	99
1418.804	1.645	1645.4	regulate	Run2	regulate/STIM_023.jpg	100
1423.258	1.85	1849.9	regulate	Run2	regulate/STIM_023.jpg	99
1427.986	1.936	1935.9	regulate	Run2	regulate/STIM_024.jpg	99
1433.664	1.527	1526.7	regulate	Run2	regulate/STIM_024.jpg	100
1438.02	1.315	1315.4	regulate	Run2	regulate/STIM_024.jpg	100
1441.425	1.829	1829.0	regulate	Run2	regulate/STIM_024.jpg	100
1446.486	1.64	1639.7	regulate	Run2	regulate/STIM_025.jpg	99
1450.272	1.99	1990.1	regulate	Run2	regulate/STIM_025.jpg	99
1455.824	1.772	1772.5	regulate	Run2	regulate/STIM_025.jpg	100
1460.468	1.873	1873.1	regulate	Run2	regulate/STIM_025.jpg	100
1464.736	2.539	2539.0	regulate	Run2	regulate/STIM_026.jpg	99
1469.868	2.842	2842.0	regulate	Run2	regulate/STIM_026.jpg	100
1476.48	2.434	2433.6	regulate	Run2	regulate/STIM_026.jpg	99
1482.353	1.756	1755.8	regulate	Run2	regulate/STIM_026.jpg	100
1487.893	2.402	2401.9	regulate	Run2	regulate/STIM_027.jpg	99
1492.715	2.324	2323.7	regulate	Run2	regulate/STIM_027.jpg	100
1497.441	2.608	2608.2	regulate	Run2	regulate/STIM_027.jpg	99
1502.156	2.383	2383.1	regulate	Run2	regulate/STIM_027.jpg	100
1508.241	2.837	2837.0	regulate	Run2	regulate/STIM_028.jpg	99
1514.064	2.732	2731.9	regulate	Run2	regulate/STIM_028.jpg	99
1518.836	1.731	1731.0	regulate	Run2	regulate/STIM_028.jpg	100
1522.945	1.87	1870.1	regulate	Run2	regulate/STIM_028.jpg	100
1527.602	3.019	3018.9	regulate	Run2	regulate/STIM_029.jpg	99
1533.8	2.419	2419.0	regulate	Run2	regulate/STIM_029.jpg	100
1538.844	2.276	2276.4	regulate	Run2	regulate/STIM_029.jpg	100
1543.063	1.453	1453.3	regulate	Run2	regulate/STIM_029.jpg	99
1547.083	1.386	1385.5	observe	Run2	observe/STIM_000.jpg	99
1551.638	1.051	1050.7	observe	Run2	observe/STIM_000.jpg	99
1555.627	0.921	920.7	observe	Run2	observe/STIM_000.jpg	100
1559.692	1.381	1381.0	observe	Run2	observe/STIM_000.jpg	99
1563.923	1.665	1664.7	observe	Run2	observe/STIM_001.jpg	99
1567.885	1.484	1484.4	observe	Run2	observe/STIM_001.jpg	99
1572.326	1.434	1434.5	observe	Run2	observe/STIM_001.jpg	99
1577.577	1.39	1389.8	observe	Run2	observe/STIM_001.jpg	99
1581.033	1.015	1014.8	observe	Run2	observe/STIM_002.jpg	99
1584.067	1.534	1533.6	observe	Run2	observe/STIM_002.jpg	100
1588.373	0.864	864.3	observe	Run2	observe/STIM_002.jpg	100
1591.877	1.388	1387.6	observe	Run2	observe/STIM_002.jpg	99
1596.471	1.078	1077.6	observe	Run2	observe/STIM_003.jpg	100
1600.448	1.1	1100.3	observe	Run2	observe/STIM_003.jpg	99
1604.866	0.968	967.6	observe	Run2	observe/STIM_003.jpg	99
1608.8	1.069	1068.6	observe	Run2	observe/STIM_003.jpg	100
1612.801	0.828	828.2	observe	Run2	observe/STIM_004.jpg	100
1617.046	0.995	995.4	observe	Run2	observe/STIM_004.jpg	99
1620.978	1.119	1119.1	observe	Run2	observe/STIM_004.jpg	100
1624.309	1.221	1221.0	observe	Run2	observe/STIM_004.jpg	100
1628.417	1.314	1314.4	observe	Run2	observe/STIM_005.jpg	99
1633.251	1.06	1059.6	observe	Run2	observe/STIM_005.jpg	99
1636.951	1.014	1014.3	observe	Run2	observe/STIM_005.jpg	99
1640.565	1.148	1148.3	observe	Run2	observe/STIM_005.jpg	100
1643.721	1.175	1174.8	observe	Run2	observe/STIM_006.jpg	100
1647.474	1.381	1381.1	observe	Run2	observe/STIM_006.jpg	99
1652.223	1.351	1350.8	observe	Run2	observe/STIM_006.jpg	99
1657.112	1.26	1260.1	observe	Run2	observe/STIM_006.jpg	100
1660.914	1.064	1064.0	observe	Run2	observe/STIM_007.jpg	99
1665.772	1.536	1536.5	observe	Run2	observe/STIM_007.jpg	100
1671.135	1.013	1013.0	observe	Run2	observe/STIM_007.jpg	99
1675.676	1.19	1190.5	observe	Run2	observe/STIM_007.jpg	100
1679.638	0.885	884.9	observe	Run2	observe/STIM_008.jpg	100
1684.447	1.259	1259.2	observe	Run2	observe/STIM_008.jpg	99
1688.083	1.284	1284.0	observe	Run2	observe/STIM_008.jpg	100
1693.112	1.395	1395.2	observe	Run2	observe/STIM_008.jpg	100
1696.836	1.555	1555.1	observe	Run2	observe/STIM_009.jpg	100
1701.579	1.347	1347.3	observe	Run2	observe/STIM_009.jpg	99
1705.704	1.239	1239.2	observe	Run2	observe/STIM_009.jpg	100
1709.928	1.488	1488.0	observe	Run2	observe/STIM_009.jpg	99
1714.072	1.669	1668.7	observe	Run2	observe/STIM_010.jpg	99
1717.661	1.34	1340.2	observe	Run2	observe/STIM_010.jpg	99
1721.452	1.317	1317.0	observe	Run2	observe/STIM_010.jpg	100
1726.239	1.618	1617.7	observe	Run2	observe/STIM_010.jpg	100
1730.214	1.036	1035.5	observe	Run2	observe/STIM_011.jpg	100
1733.606	1.089	1088.6	observe	Run2	observe/STIM_011.jpg	99
1737.64	0.924	923.6	observe	Run2	observe/STIM_011.jpg	100
1741.205	1.536	1535.6	observe	Run2	observe/STIM_011.jpg	100
1745.084	1.36	1359.6	observe	Run2	observe/STIM_012.jpg	99
1750.14	1.346	1345.8	observe	Run2	observe/STIM_012.jpg	100
1753.839	1.314	1313.7	observe	Run2	observe/STIM_012.jpg	99
1757.465	1.324	1323.9	observe	Run2	observe/STIM_012.jpg	99
1762.323	1.334	1333.9	observe	Run2	observe/STIM_013.jpg	100
1766.988	1.102	1102.0	observe	Run2	observe/STIM_013.jpg	99
1771.78	1.403	1403.3	observe	Run2	observe/STIM_013.jpg	99
1775.975	1.31	1310.4	observe	Run2	observe/STIM_013.jpg	100
1781.207	0.992	991.6	observe	Run2	observe/STIM_014.jpg	100
1785.052	0.998	997.5	observe	Run2	observe/STIM_014.jpg	100
1788.559	1.06	1059.6	observe	Run2	observe/STIM_014.jpg	100
1791.653	1.46	1460.4	observe	Run2	observe/STIM_014.jpg	100
1795.684	1.023	1022.6	observe	Run2	observe/STIM_015.jpg	100
1799.655	1.44	1440.4	observe	Run2	observe/STIM_015.jpg	100
1803.668	0.876	876.4	observe	Run2	observe/STIM_015.jpg	100
1807.838	1.254	1254.4	observe	Run2	observe/STIM_015.jpg	99
1812.621	1.632	1631.5	observe	Run2	observe/STIM_016.jpg	99
1816.926	0.966	965.7	observe	Run2	observe/STIM_016.jpg	99
1820.427	1.24	1240.3	observe	Run2	observe/STIM_016.jpg	100
1824.678	1.079	1078.9	observe	Run2	observe/STIM_016.jpg	100
1828.021	0.972	971.9	observe	Run2	observe/STIM_017.jpg	100
1831.965	1.639	1639.2	observe	Run2	observe/STIM_017.jpg	100
1836.297	1.512	1511.7	observe	Run2	observe/STIM_017.jpg	100
1840.464	1.451	1450.9	observe	Run2	observe/STIM_017.jpg	100
1845.525	0.973	972.8	observe	Run2	observe/STIM_018.jpg	100
1849.575	0.952	952.2	observe	Run2	observe/STIM_018.jpg	100
1853.148	1.61	1610.4	observe	Run2	observe/STIM_018.jpg	99
1858.149	1.464	1463.6	observe	Run2	observe/STIM_018.jpg	100
1863.229	1.388	1388.2	observe	Run2	observe/STIM_019.jpg	99
1867.292	1.438	1437.6	observe	Run2	observe/STIM_019.jpg	99
1870.854	1.208	1208.4	observe	Run2	observe/STIM_019.jpg	99
1875.306	1.613	1612.7	observe	Run2	observe/STIM_019.jpg	100
1879.875	1.177	1177.4	regulate	Run3	regulate/STIM_000.jpg	100
1883.395	1.149	1148.7	regulate	Run3	regulate/STIM_000.jpg	99
1886.956	1.61	1609.7	regulate	Run3	regulate/STIM_000.jpg	99
1891.861	2.036	2035.6	regulate	Run3	regulate/STIM_000.jpg	100
1895.945	2.271	2270.6	regulate	Run3	regulate/STIM_001.jpg	99
1900.29	1.689	1688.7	regulate	Run3	regulate/STIM_001.jpg	99
1904.935	1.236	1236.4	regulate	Run3	regulate/STIM_001.jpg	100
1909.331	2.36	2359.8	regulate	Run3	regulate/STIM_001.jpg	99
1914.499	2.429	2429.1	regulate	Run3	regulate/STIM_002.jpg	100
1919.552	1.812	1811.9	regulate	Run3	regulate/STIM_002.jpg	99
1924.825	2.079	2078.8	regulate	Run3	regulate/STIM_002.jpg	100
1930.125	2.206	2206.0	regulate	Run3	regulate/STIM_002.jpg	99
1934.832	2.23	2230.3	regulate	Run3	regulate/STIM_003.jpg	99
1940.133	1.123	1123.3	regulate	Run3	regulate/STIM_003.jpg	100
1944.842	1.241	1240.7	regulate	Run3	regulate/STIM_003.jpg	99
1950.003	1.659	1658.9	regulate	Run3	regulate/STIM_003.jpg	99
1954.63	1.914	1914.4	regulate	Run3	regulate/STIM_004.jpg	99
1959.297	2.324	2323.7	regulate	Run3	regulate/STIM_004.jpg	100
1964.712	2.457	2456.7	regulate	Run3	regulate/STIM_004.jpg	100
1969.993	1.547	1547.3	regulate	Run3	regulate/STIM_004.jpg	100
1974.465	1.679	1679.3	regulate	Run3	regulate/STIM_005.jpg	100
1978.846	1.794	1794.5	regulate	Run3	regulate/STIM_005.jpg	100
1983.254	2.052	2051.8	regulate	Run3	regulate/STIM_005.jpg	99
1988.664	1.896	1896.5	regulate	Run3	regulate/STIM_005.jpg	100
1993.332	2.558	2558.0	regulate	Run3	regulate/STIM_006.jpg	99
1999.394	1.581	1581.1	regulate	Run3	regulate/STIM_006.jpg	100
2003.078	1.93	1930.1	regulate	Run3	regulate/STIM_006.jpg	100
2007.671	1.186	1185.7	regulate	Run3	regulate/STIM_006.jpg	99
2011.465	1.518	1517.8	regulate	Run3	regulate/STIM_007.jpg	100
2015.061	1.459	1458.8	regulate	Run3	regulate/STIM_007.jpg	100
2020.462	1.432	1432.2	regulate	Run3	regulate/STIM_007.jpg	99
2025.746	2.462	2462.1	regulate	Run3	regulate/STIM_007.jpg	99
2031.94	1.256	1255.8	regulate	Run3	regulate/STIM_008.jpg	99
2035.861	2.108	2108.0	regulate	Run3	regulate/STIM_008.jpg	99
2041.003	2.165	2165.3	regulate	Run3	regulate/STIM_008.jpg	99
2046.9	2.442	2441.8	regulate	Run3	regulate/STIM_008.jpg	99
2051.833	1.114	1114.5	regulate	Run3	regulate/STIM_009.jpg	99
2056.01	2.045	2044.6	regulate	Run3	regulate/STIM_009.jpg	99
2061.682	2.494	2493.5	regulate	Run3	regulate/STIM_009.jpg	100
2068.113	1.295	1295.3	regulate	Run3	regulate/STIM_009.jpg	99
2072.173	2.446	2446.5	regulate	Run3	regulate/STIM_010.jpg	100
2076.662	2.133	2133.3	regulate	Run3	regulate/STIM_010.jpg	100
2082.407	1.291	1290.6	regulate	Run3	regulate/STIM_010.jpg	99
2086.229	2.553	2552.8	regulate	Run3	regulate/STIM_010.jpg	99
2092.094	2.391	2390.6	regulate	Run3	regulate/STIM_011.jpg	99
2098.143	1.391	1391.0	regulate	Run3	regulate/STIM_011.jpg	100
2101.595	1.254	1253.6	regulate	Run3	regulate/STIM_011.jpg	100
2106.501	1.161	1160.6	regulate	Run3	regulate/STIM_011.jpg	100
2110.898	1.323	1322.7	regulate	Run3	regulate/STIM_012.jpg	100
2114.718	1.662	1661.6	regulate	Run3	regulate/STIM_012.jpg	99
2118.751	1.202	1201.5	regulate	Run3	regulate/STIM_012.jpg	100
2122.386	1.379	1379.4	regulate	Run3	regulate/STIM_012.jpg	100
2125.997	2.346	2345.5	regulate	Run3	regulate/STIM_013.jpg	99
2130.501	1.777	1776.7	regulate	Run3	regulate/STIM_013.jpg	100
2135.495	2.396	2396.0	regulate	Run3	regulate/STIM_013.jpg	100
2140.64	2.305	2304.9	regulate	Run3	regulate/STIM_013.jpg	100
2146.722	2.186	2186.2	regulate	Run3	regulate/STIM_014.jpg	100
2151.825	1.777	1776.7	regulate	Run3	regulate/STIM_014.jpg	99
2155.548	1.7	1699.8	regulate	Run3	regulate/STIM_014.jpg	100
2159.763	1.706	1706.0	regulate	Run3	regulate/STIM_014.jpg	100
2164.753	1.374	1373.5	regulate	Run3	regulate/STIM_015.jpg	100
2168.727	1.641	1640.6	regulate	Run3	regulate/STIM_015.jpg	100
2173.732	1.89	1889.6	regulate	Run3	regulate/STIM_015.jpg	99
2178.222	2.5	2499.8	regulate	Run3	regulate/STIM_015.jpg	99
2184.313	2.154	2154.2	regulate	Run3	regulate/STIM_016.jpg	100
2190.095	2.522	2522.0	regulate	Run3	regulate/STIM_016.jpg	99
2195.295	1.399	1398.8	regulate	Run3	regulate/STIM_016.jpg	99
2199.796	1.324	1324.3	regulate	Run3	regulate/STIM_016.jpg	99
2203.905	2.57	2570.0	regulate	Run3	regulate/STIM_017.jpg	100
2208.636	2.034	2033.9	regulate	Run3	regulate/STIM_017.jpg	100
2214.671	2.175	2175.4	regulate	Run3	regulate/STIM_017.jpg	99
2219.548	2.576	2576.3	regulate	Run3	regulate/STIM_017.jpg	100
2225.443	1.7	1700.5	regulate	Run3	regulate/STIM_018.jpg	99
2229.199	1.944	1944.1	regulate	Run3	regulate/STIM_018.jpg	99
2233.719	1.223	1222.8	regulate	Run3	regulate/STIM_018.jpg	99
2238.051	2.401	2401.4	regulate	Run3	regulate/STIM_018.jpg	99
2243.913	1.307	1306.8	regulate	Run3	regulate/STIM_019.jpg	99
2247.979	2.256	2256.5	regulate	Run3	regulate/STIM_019.jpg	99
2254.12	1.406	1405.9	regulate	Run3	regulate/STIM_019.jpg	99
2258.085	1.978	1978.5	regulate	Run3	regulate/STIM_019.jpg	99
2263.954	2.345	2344.7	regulate	Run3	regulate/STIM_020.jpg	99
2268.605	1.849	1849.3	regulate	Run3	regulate/STIM_020.jpg	100
2273.347	1.305	1304.9	regulate	Run3	regulate/STIM_020.jpg	100
2278.03	1.826	1826.5	regulate	Run3	regulate/STIM_020.jpg	99
2282.428	1.35	1350.0	regulate	Run3	regulate/STIM_021.jpg	100
2287.382	1.809	1809.1	regulate	Run3	regulate/STIM_021.jpg	99
2292.008	1.298	1297.5	regulate	Run3	regulate/STIM_021.jpg	100
2296.841	1.838	1838.5	regulate	Run3	regulate/STIM_021.jpg	100
2302.541	1.674	1674.4	regulate	Run3	regulate/STIM_022.jpg	99
2307.647	1.813	1812.9	regulate	Run3	regulate/STIM_022.jpg	99
2311.648	1.588	1588.2	regulate	Run3	regulate/STIM_022.jpg	100
2316.167	1.601	1600.6	regulate	Run3	regulate/STIM_022.jpg	100
2321.049	1.963	1963.1	regulate	Run3	regulate/STIM_023.jpg	99
2326.264	1.742	1742.2	regulate	Run3	regulate/STIM_023.jpg	100
2330.057	1.383	1383.4	regulate	Run3	regulate/STIM_023.jpg	99
2333.928	2.148	2148.4	regulate	Run3	regulate/STIM_023.jpg	100
2339.408	1.578	1578.0	regulate	Run3	regulate/STIM_024.jpg	99
2342.981	2.336	2336.0	regulate	Run3	regulate/STIM_024.jpg	100
2347.813	2.383	2382.6	regulate	Run3	regulate/STIM_024.jpg	99
2352.89	1.321	1321.2	regulate	Run3	regulate/STIM_024.jpg	100
2358.261	2.297	2296.6	regulate	Run3	regulate/STIM_025.jpg	100
2363.332	2.282	2282.0	regulate	Run3	regulate/STIM_025.jpg	99
2368.769	1.295	1295.2	regulate	Run3	regulate/STIM_025.jpg	99
2372.391	1.64	1640.5	regulate	Run3	regulate/STIM_025.jpg	100
2377.557	1.969	1969.3	regulate	Run3	regulate/STIM_026.jpg	100
2382.754	1.671	1671.2	regulate	Run3	regulate/STIM_026.jpg	100
2387.605	1.808	1807.6	regulate	Run3	regulate/STIM_026.jpg	100
2392.74	2.347	2347.0	regulate	Run3	regulate/STIM_026.jpg	99
2397.657	1.46	1460.2	regulate	Run3	regulate/STIM_027.jpg	99
2402.516	1.913	1913.3	regulate	Run3	regulate/STIM_027.jpg	100
2407.011	2.157	2156.7	regulate	Run3	regulate/STIM_027.jpg	100
2412.152	1.554	1553.8	regulate	Run3	regulate/STIM_027.jpg	100
2417.597	1.334	1333.7	regulate	Run3	regulate/STIM_028.jpg	100
2422.256	1.575	1574.8	regulate	Run3	regulate/STIM_028.jpg	99
2427.583	2.528	2528.3	regulate	Run3	regulate/STIM_028.jpg	99
2432.568	1.522	1522.4	regulate	Run3	regulate/STIM_028.jpg	100
2436.618	1.649	1648.7	regulate	Run3	regulate/STIM_029.jpg	100
2441.055	1.965	1964.9	regulate	Run3	regulate/STIM_029.jpg	99
2445.137	1.987	1986.9	regulate	Run3	regulate/STIM_029.jpg	99
2449.955	1.232	1231.9	regulate	Run3	regulate/STIM_029.jpg	100
2453.43	0.791	791.3	observe	Run3	observe/STIM_000.jpg	100
2457.287	0.88	880.3	observe	Run3	observe/STIM_000.jpg	99
2461.968	1.156	1156.5	observe	Run3	observe/STIM_000.jpg	99
2466.021	1.38	1380.2	observe	Run3	observe/STIM_000.jpg	100
2469.802	1.54	1539.9	observe	Run3	observe/STIM_001.jpg	99
2475.239	1.585	1585.1	observe	Run3	observe/STIM_001.jpg	100
2480.663	1.537	1537.2	observe	Run3	observe/STIM_001.jpg	100
2484.455	1.37	1369.8	observe	Run3	observe/STIM_001.jpg	99
2489.445	1.272	1271.9	observe	Run3	observe/STIM_002.jpg	100
2493.962	1.6	1599.8	observe	Run3	observe/STIM_002.jpg	99
2498.116	0.929	929.2	observe	Run3	observe/STIM_002.jpg	99
2502.034	0.856	855.6	observe	Run3	observe/STIM_002.jpg	100
2505.598	1.27	1270.3	observe	Run3	observe/STIM_003.jpg	100
2510.454	1.629	1629.2	observe	Run3	observe/STIM_003.jpg	99
2515.661	1.306	1306.4	observe	Run3	observe/STIM_003.jpg	99
2520.05	1.192	1191.6	observe	Run3	observe/STIM_003.jpg	100
2524.347	0.884	884.0	observe	Run3	observe/STIM_004.jpg	100
2528.509	0.927	926.7	observe	Run3	observe/STIM_004.jpg	100
2532.852	1.263	1263.2	observe	Run3	observe/STIM_004.jpg	100
2537.824	1.524	1524.1	observe	Run3	observe/STIM_004.jpg	99
2542.669	1.497	1496.9	observe	Run3	observe/STIM_005.jpg	99
2546.688	1.596	1596.0	observe	Run3	observe/STIM_005.jpg	100
2551.194	0.996	996.5	observe	Run3	observe/STIM_005.jpg	99
2554.647	0.986	985.5	observe	Run3	observe/STIM_005.jpg	99
2558.548	0.881	880.7	observe	Run3	observe/STIM_006.jpg	99
2562.326	1.736	1736.4	observe	Run3	observe/STIM_006.jpg	99
2567.794	1.509	1509.1	observe	Run3	observe/STIM_006.jpg	99
2572.524	1.35	1350.0	observe	Run3	observe/STIM_006.jpg	100
2575.946	1.172	1171.9	observe	Run3	observe/STIM_007.jpg	99
2580.023	1.152	1151.9	observe	Run3	observe/STIM_007.jpg	99
2584.684	1.402	1402.3	observe	Run3	observe/STIM_007.jpg	100
2589.529	1.389	1389.2	observe	Run3	observe/STIM_007.jpg	99
2594.451	1.441	1440.8	observe	Run3	observe/STIM_008.jpg	99
2598.968	1.111	1111.2	observe	Run3	observe/STIM_008.jpg	99
2603.844	0.987	987.3	observe	Run3	observe/STIM_008.jpg	99
2606.887	1.081	1080.8	observe	Run3	observe/STIM_008.jpg	99
2610.248	1.054	1054.1	observe	Run3	observe/STIM_009.jpg	100
2613.812	1.704	1703.9	observe	Run3	observe/STIM_009.jpg	100
2617.828	1.168	1167.7	observe	Run3	observe/STIM_009.jpg	100
2622.11	1.707	1707.1	observe	Run3	observe/STIM_009.jpg	99
2627.03	0.797	796.7	observe	Run3	observe/STIM_010.jpg	100
2630.796	1.012	1011.5	observe	Run3	observe/STIM_010.jpg	99
2634.008	1.377	1377.2	observe	Run3	observe/STIM_010.jpg	100
2638.859	1.164	1163.7	observe	Run3	observe/STIM_010.jpg	100
2642.429	1.375	1374.9	observe	Run3	observe/STIM_011.jpg	99
2646.357	1.067	1066.7	observe	Run3	observe/STIM_011.jpg	100
2650.464	1.693	1692.8	observe	Run3	observe/STIM_011.jpg	99
2655.314	0.991	991.1	observe	Run3	observe/STIM_011.jpg	100
2659.058	1.288	1287.6	observe	Run3	observe/STIM_012.jpg	100
2664.283	1.446	1446.3	observe	Run3	observe/STIM_012.jpg	100
2669.524	1.226	1226.0	observe	Run3	observe/STIM_012.jpg	99
2674.273	1.625	1625.2	observe	Run3	observe/STIM_012.jpg	99
2678.723	1.559	1559.3	observe	Run3	observe/STIM_013.jpg	99
2683.361	0.934	933.9	observe	Run3	observe/STIM_013.jpg	99
2687.222	1.074	1074.2	observe	Run3	observe/STIM_013.jpg	100
2691.69	1.212	1211.9	observe	Run3	observe/STIM_013.jpg	100
2696.504	1.381	1381.2	observe	Run3	observe/STIM_014.jpg	99
2701.759	1.1	1100.3	observe	Run3	observe/STIM_014.jpg	100
2705.626	1.278	1277.6	observe	Run3	observe/STIM_014.jpg	100
2708.927	1.703	1702.7	observe	Run3	observe/STIM_014.jpg	100
2714.375	1.152	1151.9	observe	Run3	observe/STIM_015.jpg	100
2718.573	0.802	802.1	observe	Run3	observe/STIM_015.jpg	100
2722.208	1.214	1213.6	observe	Run3	observe/STIM_015.jpg	100
2727.209	1.318	1318.3	observe	Run3	observe/STIM_015.jpg	99
2730.611	1.03	1030.1	observe	Run3	observe/STIM_016.jpg	100
2735.427	0.993	992.7	observe	Run3	observe/STIM_016.jpg	100
2738.483	1.17	1169.7	observe	Run3	observe/STIM_016.jpg	100
2741.876	1.496	1496.2	observe	Run3	observe/STIM_016.jpg	100
2745.649	1.041	1041.1	observe	Run3	observe/STIM_017.jpg	99
2748.569	1.612	1612.3	observe	Run3	observe/STIM_017.jpg	99
2753.802	1.558	1558.2	observe	Run3	observe/STIM_017.jpg	99
2758.864	1.33	1330.3	observe	Run3	observe/STIM_017.jpg	100
2762.288	1.084	1084.1	observe	Run3	observe/STIM_018.jpg	100
2765.809	1.515	1514.6	observe	Run3	observe/STIM_018.jpg	99
2769.714	1.428	1427.5	observe	Run3	observe/STIM_018.jpg	99
2774.542	1.178	1178.0	observe	Run3	observe/STIM_018.jpg	99
2777.692	1.331	1331.2	observe	Run3	observe/STIM_019.jpg	99
2781.027	1.374	1374.1	observe	Run3	observe/STIM_019.jpg	99
2785.531	1.249	1248.9	observe	Run3	observe/STIM_019.jpg	99
2789.317	1.409	1409.3	observe	Run3	observe/STIM_019.jpg	99
