onset	duration	response_time_ms	trial_type	learning_stage	stimulus	coherence	response_port
0.000	n/a	n/a	learning	LS1	PICTURE_68.jpg	c	n/a
25.000	11.076	11076.0	learning	LS1	PICTURE_71.jpg	c	n/a
36.076	10.798	10798.0	learning	LS1	PICTURE_68.jpg	i	n/a
46.874	13.081	13081.0	learning	LS1	PICTURE_67.jpg	c	n/a
59.955	10.080	10080.0	learning	LS1	PICTURE_74.jpg	c	n/a
70.035	15.554	15554.0	learning	LS1	PICTURE_72.jpg	i	n/a
85.589	15.435	15435.0	learning	LS1	PICTURE_74.jpg	i	n/a
101.024	10.201	10201.0	learning	LS1	PICTURE_67.jpg	i	n/a
111.225	16.320	16320.0	learning	LS1	PICTURE_72.jpg	c	n/a
127.545	11.085	11085.0	learning	LS1	PICTURE_71.jpg	i	n/a
138.630	9.432	9432.0	learning	LS2	PICTURE_72.jpg	c	n/a
148.062	9.475	9475.0	learning	LS2	PICTURE_71.jpg	i	n/a
157.537	8.238	8238.0	learning	LS2	PICTURE_67.jpg	c	n/a
165.775	10.998	10998.0	learning	LS2	PICTURE_74.jpg	i	n/a
176.773	10.241	10241.0	learning	LS2	PICTURE_68.jpg	c	n/a
187.014	8.845	8845.0	learning	LS2	PICTURE_71.jpg	c	n/a
195.859	9.048	9048.0	learning	LS2	PICTURE_72.jpg	i	n/a
204.907	13.249	13249.0	learning	LS2	PICTURE_74.jpg	c	n/a
218.156	10.892	10892.0	learning	LS2	PICTURE_67.jpg	i	n/a
229.048	13.014	13014.0	learning	LS2	PICTURE_68.jpg	i	n/a
242.062	10.242	10242.0	learning	LS3	PICTURE_67.jpg	i	n/a
252.304	8.686	8686.0	learning	LS3	PICTURE_74.jpg	c	n/a
260.990	13.527	13527.0	learning	LS3	PICTURE_72.jpg	c	n/a
274.517	8.291	8291.0	learning	LS3	PICTURE_68.jpg	i	n/a
282.808	8.656	8656.0	learning	LS3	PICTURE_74.jpg	i	n/a
291.464	10.938	10938.0	learning	LS3	PICTURE_68.jpg	c	n/a
302.402	7.942	7942.0	learning	LS3	PICTURE_71.jpg	c	n/a
310.344	14.862	14862.0	learning	LS3	PICTURE_72.jpg	i	n/a
325.206	8.826	8826.0	learning	LS3	PICTURE_67.jpg	c	n/a
334.032	10.309	10309.0	learning	LS3	PICTURE_71.jpg	i	n/a
344.341	13.773	13773.0	learning	LS4	PICTURE_74.jpg	i	n/a
358.114	9.178	9178.0	learning	LS4	PICTURE_71.jpg	i	n/a
367.292	8.899	8899.0	learning	LS4	PICTURE_67.jpg	i	n/a
376.191	7.183	7183.0	learning	LS4	PICTURE_71.jpg	c	n/a
383.374	11.224	11224.0	learning	LS4	PICTURE_74.jpg	c	n/a
394.598	10.945	10945.0	learning	LS4	PICTURE_68.jpg	i	n/a
405.543	11.627	11627.0	learning	LS4	PICTURE_72.jpg	c	n/a
417.170	10.230	10230.0	learning	LS4	PICTURE_68.jpg	c	n/a
427.400	9.794	9794.0	learning	LS4	PICTURE_72.jpg	i	n/a
437.194	7.758	7758.0	learning	LS4	PICTURE_67.jpg	c	n/a
444.952	12.610	12610.0	learning	LS1	PICTURE_38.jpg	c	n/a
457.562	15.050	15050.0	learning	LS1	PICTURE_26.jpg	c	n/a
472.612	12.056	12056.0	learning	LS1	PICTURE_659.jpg	c	n/a
484.668	14.969	14969.0	learning	LS1	PICTURE_654.jpg	i	n/a
499.637	11.654	11654.0	learning	LS1	PICTURE_212.jpg	i	n/a
511.291	17.615	17615.0	learning	LS1	PICTURE_654.jpg	c	n/a
528.906	13.178	13178.0	learning	LS1	PICTURE_659.jpg	i	n/a
542.084	13.053	13053.0	learning	LS1	PICTURE_38.jpg	i	n/a
555.137	11.336	11336.0	learning	LS1	PICTURE_26.jpg	i	n/a
566.473	11.218	11218.0	learning	LS1	PICTURE_212.jpg	c	n/a
577.691	11.005	11005.0	learning	LS2	PICTURE_654.jpg	c	n/a
588.696	17.924	17924.0	learning	LS2	PICTURE_26.jpg	i	n/a
606.620	7.731	7731.0	learning	LS2	PICTURE_212.jpg	c	n/a
614.351	7.613	7613.0	learning	LS2	PICTURE_659.jpg	c	n/a
621.964	9.735	9735.0	learning	LS2	PICTURE_212.jpg	i	n/a
631.699	8.495	8495.0	learning	LS2	PICTURE_26.jpg	c	n/a
640.194	8.379	8379.0	learning	LS2	PICTURE_654.jpg	i	n/a
648.573	9.864	9864.0	learning	LS2	PICTURE_38.jpg	i	n/a
658.437	9.746	9746.0	learning	LS2	PICTURE_659.jpg	i	n/a
668.183	8.827	8827.0	learning	LS2	PICTURE_38.jpg	c	n/a
677.010	12.293	12293.0	learning	LS3	PICTURE_26.jpg	i	n/a
689.303	7.218	7218.0	learning	LS3	PICTURE_659.jpg	i	n/a
696.521	7.738	7738.0	learning	LS3	PICTURE_38.jpg	c	n/a
704.259	8.740	8740.0	learning	LS3	PICTURE_659.jpg	c	n/a
712.999	10.543	10543.0	learning	LS3	PICTURE_654.jpg	i	n/a
723.542	11.384	11384.0	learning	LS3	PICTURE_212.jpg	i	n/a
734.926	10.308	10308.0	learning	LS3	PICTURE_654.jpg	c	n/a
745.234	10.351	10351.0	learning	LS3	PICTURE_38.jpg	i	n/a
755.585	7.993	7993.0	learning	LS3	PICTURE_26.jpg	c	n/a
763.578	9.476	9476.0	learning	LS3	PICTURE_212.jpg	c	n/a
773.054	7.342	7342.0	learning	LS4	PICTURE_26.jpg	c	n/a
780.396	9.623	9623.0	learning	LS4	PICTURE_659.jpg	i	n/a
790.019	9.668	9668.0	learning	LS4	PICTURE_654.jpg	c	n/a
799.687	8.268	8268.0	learning	LS4	PICTURE_212.jpg	c	n/a
807.955	7.992	7992.0	learning	LS4	PICTURE_38.jpg	i	n/a
815.947	9.474	9474.0	learning	LS4	PICTURE_659.jpg	c	n/a
825.421	8.395	8395.0	learning	LS4	PICTURE_26.jpg	i	n/a
833.816	10.677	10677.0	learning	LS4	PICTURE_38.jpg	c	n/a
844.493	10.080	10080.0	learning	LS4	PICTURE_654.jpg	i	n/a
854.573	11.402	11402.0	learning	LS4	PICTURE_212.jpg	i	n/a
865.975	10.014	10014.0	learning	LS1	PICTURE_379.jpg	i	n/a
875.989	11.976	11976.0	learning	LS1	PICTURE_465.jpg	c	n/a
887.965	10.899	10899.0	learning	LS1	PICTURE_692.jpg	i	n/a
898.864	9.975	9975.0	learning	LS1	PICTURE_592.jpg	i	n/a
908.839	13.856	13856.0	learning	LS1	PICTURE_379.jpg	c	n/a
922.695	9.581	9581.0	learning	LS1	PICTURE_592.jpg	c	n/a
932.276	12.815	12815.0	learning	LS1	PICTURE_640.jpg	i	n/a
945.091	11.098	11098.0	learning	LS1	PICTURE_692.jpg	c	n/a
956.189	11.141	11141.0	learning	LS1	PICTURE_465.jpg	i	n/a
967.330	10.545	10545.0	learning	LS1	PICTURE_640.jpg	c	n/a
977.875	8.732	8732.0	learning	LS2	PICTURE_640.jpg	c	n/a
986.607	9.095	9095.0	learning	LS2	PICTURE_592.jpg	c	n/a
995.702	12.816	12816.0	learning	LS2	PICTURE_640.jpg	i	n/a
1008.518	10.940	10940.0	learning	LS2	PICTURE_692.jpg	i	n/a
1019.458	9.223	9223.0	learning	LS2	PICTURE_379.jpg	c	n/a
1028.681	9.906	9906.0	learning	LS2	PICTURE_592.jpg	i	n/a
1038.587	9.630	9630.0	learning	LS2	PICTURE_465.jpg	c	n/a
1048.217	8.393	8393.0	learning	LS2	PICTURE_379.jpg	i	n/a
1056.610	11.952	11952.0	learning	LS2	PICTURE_465.jpg	i	n/a
1068.562	10.395	10395.0	learning	LS2	PICTURE_692.jpg	c	n/a
1078.957	8.583	8583.0	learning	LS3	PICTURE_692.jpg	c	n/a
1087.540	n/a	n/a	learning	LS3	PICTURE_379.jpg	c	n/a
1112.540	7.708	7708.0	learning	LS3	PICTURE_640.jpg	c	n/a
1120.248	8.869	8869.0	learning	LS3	PICTURE_465.jpg	i	n/a
1129.117	9.393	9393.0	learning	LS3	PICTURE_592.jpg	i	n/a
1138.510	22.869	22869.0	learning	LS3	PICTURE_640.jpg	i	n/a
1161.379	13.157	13157.0	learning	LS3	PICTURE_379.jpg	i	n/a
1174.536	9.041	9041.0	learning	LS3	PICTURE_592.jpg	c	n/a
1183.577	9.883	9883.0	learning	LS3	PICTURE_692.jpg	i	n/a
1193.460	9.926	9926.0	learning	LS3	PICTURE_465.jpg	c	n/a
1203.386	10.670	10670.0	learning	LS4	PICTURE_379.jpg	i	n/a
1214.056	10.553	10553.0	learning	LS4	PICTURE_592.jpg	c	n/a
1224.609	7.877	7877.0	learning	LS4	PICTURE_640.jpg	c	n/a
1232.486	7.584	7584.0	learning	LS4	PICTURE_465.jpg	c	n/a
1240.070	10.825	10825.0	learning	LS4	PICTURE_379.jpg	c	n/a
1250.895	9.588	9588.0	learning	LS4	PICTURE_640.jpg	i	n/a
1260.483	10.749	10749.0	learning	LS4	PICTURE_692.jpg	i	n/a
1271.232	9.033	9033.0	learning	LS4	PICTURE_465.jpg	i	n/a
1280.265	8.435	8435.0	learning	LS4	PICTURE_592.jpg	i	n/a
1288.700	10.078	10078.0	learning	LS4	PICTURE_692.jpg	c	n/a
1298.778	13.008	13008.0	control	LS1	PICTURE_540.jpg	c	n/a
1311.786	15.283	15283.0	control	LS1	PICTURE_263.jpg	i	n/a
1327.069	12.447	12447.0	control	LS1	PICTURE_491.jpg	c	n/a
1339.516	12.330	12330.0	control	LS1	PICTURE_116.jpg	i	n/a
1351.846	10.774	10774.0	control	LS1	PICTURE_491.jpg	i	n/a
1362.620	10.976	10976.0	control	LS1	PICTURE_135.jpg	c	n/a
1373.596	9.921	9921.0	control	LS1	PICTURE_263.jpg	c	n/a
1383.517	8.821	8821.0	control	LS1	PICTURE_116.jpg	c	n/a
1392.338	9.184	9184.0	control	LS1	PICTURE_540.jpg	i	n/a
1401.522	11.785	11785.0	control	LS1	PICTURE_135.jpg	i	n/a
1413.307	11.571	11571.0	control	LS2	PICTURE_540.jpg	i	n/a
1424.878	10.016	10016.0	control	LS2	PICTURE_491.jpg	i	n/a
1434.894	10.857	10857.0	control	LS2	PICTURE_135.jpg	c	n/a
1445.751	7.861	7861.0	control	LS2	PICTURE_116.jpg	c	n/a
1453.612	8.543	8543.0	control	LS2	PICTURE_263.jpg	i	n/a
1462.155	8.427	8427.0	control	LS2	PICTURE_135.jpg	i	n/a
1470.582	9.271	9271.0	control	LS2	PICTURE_491.jpg	c	n/a
1479.853	7.553	7553.0	control	LS2	PICTURE_540.jpg	c	n/a
1487.406	10.315	10315.0	control	LS2	PICTURE_263.jpg	c	n/a
1497.721	9.559	9559.0	control	LS2	PICTURE_116.jpg	i	n/a
1507.280	12.064	12064.0	control	LS3	PICTURE_111.jpg	i	n/a
1519.344	13.067	13067.0	control	LS3	PICTURE_151.jpg	i	n/a
1532.411	8.952	8952.0	control	LS3	PICTURE_111.jpg	c	n/a
1541.363	13.631	13631.0	control	LS3	PICTURE_234.jpg	c	n/a
1554.994	9.195	9195.0	control	LS3	PICTURE_151.jpg	c	n/a
1564.189	10.358	10358.0	control	LS3	PICTURE_234.jpg	i	n/a
1574.547	8.482	8482.0	control	LS3	PICTURE_119.jpg	c	n/a
1583.029	11.243	11243.0	control	LS3	PICTURE_621.jpg	i	n/a
1594.272	12.084	12084.0	control	LS3	PICTURE_119.jpg	i	n/a
1606.356	9.727	9727.0	control	LS3	PICTURE_621.jpg	c	n/a
1616.083	12.393	12393.0	control	LS4	PICTURE_151.jpg	i	n/a
1628.476	8.596	8596.0	control	LS4	PICTURE_119.jpg	i	n/a
1637.072	12.639	12639.0	control	LS4	PICTURE_151.jpg	c	n/a
1649.711	9.321	9321.0	control	LS4	PICTURE_234.jpg	i	n/a
1659.032	9.045	9045.0	control	LS4	PICTURE_119.jpg	c	n/a
1668.077	10.208	10208.0	control	LS4	PICTURE_621.jpg	i	n/a
1678.285	8.491	8491.0	control	LS4	PICTURE_234.jpg	c	n/a
1686.776	8.214	8214.0	control	LS4	PICTURE_111.jpg	c	n/a
1694.990	8.257	8257.0	control	LS4	PICTURE_621.jpg	c	n/a
1703.247	9.259	9259.0	control	LS4	PICTURE_111.jpg	i	n/a
1712.506	12.673	12673.0	learning	LS1	PICTURE_148.jpg	c	n/a
1725.179	n/a	n/a	learning	LS1	PICTURE_453.jpg	c	n/a
1750.179	14.199	14199.0	learning	LS1	PICTURE_202.jpg	c	n/a
1764.378	8.483	8483.0	learning	LS1	PICTURE_358.jpg	c	n/a
1772.861	15.084	15084.0	learning	LS1	PICTURE_165.jpg	i	n/a
1787.945	14.325	14325.0	learning	LS1	PICTURE_202.jpg	i	n/a
1802.270	10.050	10050.0	learning	LS1	PICTURE_148.jpg	i	n/a
1812.320	16.331	16331.0	learning	LS1	PICTURE_358.jpg	i	n/a
1828.651	12.534	12534.0	learning	LS1	PICTURE_453.jpg	i	n/a
1841.185	10.499	10499.0	learning	LS1	PICTURE_165.jpg	c	n/a
1851.684	9.485	9485.0	learning	LS2	PICTURE_148.jpg	i	n/a
1861.169	10.648	10648.0	learning	LS2	PICTURE_358.jpg	c	n/a
1871.817	8.771	8771.0	learning	LS2	PICTURE_165.jpg	i	n/a
1880.588	10.414	10414.0	learning	LS2	PICTURE_148.jpg	c	n/a
1891.002	9.496	9496.0	learning	LS2	PICTURE_202.jpg	i	n/a
1900.498	9.539	9539.0	learning	LS2	PICTURE_453.jpg	c	n/a
1910.037	11.660	11660.0	learning	LS2	PICTURE_165.jpg	c	n/a
1921.697	9.144	9144.0	learning	LS2	PICTURE_202.jpg	c	n/a
1930.841	8.386	8386.0	learning	LS2	PICTURE_453.jpg	i	n/a
1939.227	19.145	19145.0	learning	LS2	PICTURE_358.jpg	i	n/a
1958.372	10.613	10613.0	learning	LS3	PICTURE_202.jpg	c	n/a
1968.985	11.455	11455.0	learning	LS3	PICTURE_358.jpg	i	n/a
1980.440	7.021	7021.0	learning	LS3	PICTURE_453.jpg	c	n/a
1987.461	9.463	9463.0	learning	LS3	PICTURE_202.jpg	i	n/a
1996.924	8.386	8386.0	learning	LS3	PICTURE_148.jpg	i	n/a
2005.310	8.910	8910.0	learning	LS3	PICTURE_358.jpg	c	n/a
2014.220	8.151	8151.0	learning	LS3	PICTURE_165.jpg	i	n/a
2022.371	9.793	9793.0	learning	LS3	PICTURE_453.jpg	i	n/a
2032.164	10.157	10157.0	learning	LS3	PICTURE_165.jpg	c	n/a
2042.321	9.719	9719.0	learning	LS3	PICTURE_148.jpg	c	n/a
2052.040	8.863	8863.0	learning	LS4	PICTURE_148.jpg	c	n/a
2060.903	8.589	8589.0	learning	LS4	PICTURE_358.jpg	c	n/a
2069.492	7.831	7831.0	learning	LS4	PICTURE_453.jpg	c	n/a
2077.323	8.194	8194.0	learning	LS4	PICTURE_165.jpg	c	n/a
2085.517	10.318	10318.0	learning	LS4	PICTURE_358.jpg	i	n/a
2095.835	8.601	8601.0	learning	LS4	PICTURE_202.jpg	i	n/a
2104.436	8.165	8165.0	learning	LS4	PICTURE_453.jpg	i	n/a
2112.601	7.727	7727.0	learning	LS4	PICTURE_202.jpg	c	n/a
2120.328	8.090	8090.0	learning	LS4	PICTURE_148.jpg	i	n/a
2128.418	8.451	8451.0	learning	LS4	PICTURE_165.jpg	i	n/a
2136.869	10.743	10743.0	learning	LS1	PICTURE_32.jpg	c	n/a
2147.612	11.265	11265.0	learning	LS1	PICTURE_77.jpg	i	n/a
2158.877	12.262	12262.0	learning	LS1	PICTURE_100.jpg	i	n/a
2171.139	15.342	15342.0	learning	LS1	PICTURE_77.jpg	c	n/a
2186.481	11.068	11068.0	learning	LS1	PICTURE_32.jpg	i	n/a
2197.549	10.468	10468.0	learning	LS1	PICTURE_100.jpg	c	n/a
2208.017	10.831	10831.0	learning	LS1	PICTURE_97.jpg	i	n/a
2218.848	14.392	14392.0	learning	LS1	PICTURE_267.jpg	c	n/a
2233.240	10.757	10757.0	learning	LS1	PICTURE_97.jpg	c	n/a
2243.997	19.437	19437.0	learning	LS1	PICTURE_267.jpg	i	n/a
2263.434	10.106	10106.0	learning	LS2	PICTURE_77.jpg	c	n/a
2273.540	9.669	9669.0	learning	LS2	PICTURE_32.jpg	i	n/a
2283.209	12.110	12110.0	learning	LS2	PICTURE_77.jpg	i	n/a
2295.319	9.114	9114.0	learning	LS2	PICTURE_100.jpg	c	n/a
2304.433	8.358	8358.0	learning	LS2	PICTURE_97.jpg	c	n/a
2312.791	13.518	13518.0	learning	LS2	PICTURE_32.jpg	c	n/a
2326.309	9.884	9884.0	learning	LS2	PICTURE_267.jpg	c	n/a
2336.193	13.445	13445.0	learning	LS2	PICTURE_97.jpg	i	n/a
2349.638	10.448	10448.0	learning	LS2	PICTURE_267.jpg	i	n/a
2360.086	9.373	9373.0	learning	LS2	PICTURE_100.jpg	i	n/a
2369.459	13.636	13636.0	learning	LS3	PICTURE_97.jpg	c	n/a
2383.095	11.269	11269.0	learning	LS3	PICTURE_267.jpg	c	n/a
2394.364	10.346	10346.0	learning	LS3	PICTURE_32.jpg	c	n/a
2404.710	11.030	11030.0	learning	LS3	PICTURE_100.jpg	i	n/a
2415.740	9.473	9473.0	learning	LS3	PICTURE_77.jpg	c	n/a
2425.213	9.995	9995.0	learning	LS3	PICTURE_267.jpg	i	n/a
2435.208	10.997	10997.0	learning	LS3	PICTURE_97.jpg	i	n/a
2446.205	9.760	9760.0	learning	LS3	PICTURE_77.jpg	i	n/a
2455.965	10.923	10923.0	learning	LS3	PICTURE_32.jpg	i	n/a
2466.888	11.126	11126.0	learning	LS3	PICTURE_100.jpg	c	n/a
2478.014	15.069	15069.0	learning	LS4	PICTURE_97.jpg	c	n/a
2493.083	12.553	12553.0	learning	LS4	PICTURE_267.jpg	i	n/a
2505.636	10.357	10357.0	learning	LS4	PICTURE_97.jpg	i	n/a
2515.993	8.481	8481.0	learning	LS4	PICTURE_32.jpg	i	n/a
2524.474	9.162	9162.0	learning	LS4	PICTURE_100.jpg	c	n/a
2533.636	9.686	9686.0	learning	LS4	PICTURE_32.jpg	c	n/a
2543.322	12.605	12605.0	learning	LS4	PICTURE_77.jpg	i	n/a
2555.927	11.211	11211.0	learning	LS4	PICTURE_100.jpg	i	n/a
2567.138	9.012	9012.0	learning	LS4	PICTURE_77.jpg	c	n/a
2576.150	15.132	15132.0	learning	LS4	PICTURE_267.jpg	c	n/a
2591.282	14.228	14228.0	control	LS1	PICTURE_368.jpg	i	n/a
2605.510	12.505	12505.0	control	LS1	PICTURE_338.jpg	c	n/a
2618.015	19.576	19576.0	control	LS1	PICTURE_255.jpg	i	n/a
2637.591	16.582	16582.0	control	LS1	PICTURE_391.jpg	i	n/a
2654.173	19.663	19663.0	control	LS1	PICTURE_398.jpg	c	n/a
2673.836	10.909	10909.0	control	LS1	PICTURE_391.jpg	c	n/a
2684.745	15.591	15591.0	control	LS1	PICTURE_338.jpg	i	n/a
2700.336	11.634	11634.0	control	LS1	PICTURE_368.jpg	c	n/a
2711.970	9.119	9119.0	control	LS1	PICTURE_398.jpg	i	n/a
2721.089	17.637	17637.0	control	LS1	PICTURE_255.jpg	c	n/a
2738.726	9.909	9909.0	control	LS2	PICTURE_398.jpg	i	n/a
2748.635	10.751	10751.0	control	LS2	PICTURE_255.jpg	i	n/a
2759.386	9.035	9035.0	control	LS2	PICTURE_368.jpg	c	n/a
2768.421	9.238	9238.0	control	LS2	PICTURE_391.jpg	c	n/a
2777.659	7.681	7681.0	control	LS2	PICTURE_338.jpg	c	n/a
2785.340	7.722	7722.0	control	LS2	PICTURE_368.jpg	i	n/a
2793.062	7.286	7286.0	control	LS2	PICTURE_255.jpg	c	n/a
2800.348	19.962	19962.0	control	LS2	PICTURE_398.jpg	c	n/a
2820.310	9.129	9129.0	control	LS2	PICTURE_391.jpg	i	n/a
2829.439	11.732	11732.0	control	LS2	PICTURE_338.jpg	i	n/a
2841.171	10.232	10232.0	control	LS3	PICTURE_551.jpg	c	n/a
2851.403	12.834	12834.0	control	LS3	PICTURE_19.jpg	c	n/a
2864.237	11.110	11110.0	control	LS3	PICTURE_185.jpg	c	n/a
2875.347	10.193	10193.0	control	LS3	PICTURE_551.jpg	i	n/a
2885.540	9.915	9915.0	control	LS3	PICTURE_185.jpg	i	n/a
2895.455	12.357	12357.0	control	LS3	PICTURE_343.jpg	c	n/a
2907.812	12.239	12239.0	control	LS3	PICTURE_708.jpg	i	n/a
2920.051	15.641	15641.0	control	LS3	PICTURE_343.jpg	i	n/a
2935.692	8.967	8967.0	control	LS3	PICTURE_708.jpg	c	n/a
2944.659	13.486	13486.0	control	LS3	PICTURE_19.jpg	i	n/a
2958.145	8.474	8474.0	control	LS4	PICTURE_343.jpg	c	n/a
2966.619	8.677	8677.0	control	LS4	PICTURE_551.jpg	i	n/a
2975.296	12.879	12879.0	control	LS4	PICTURE_185.jpg	i	n/a
2988.175	9.881	9881.0	control	LS4	PICTURE_19.jpg	i	n/a
2998.056	11.204	11204.0	control	LS4	PICTURE_708.jpg	c	n/a
3009.260	9.489	9489.0	control	LS4	PICTURE_185.jpg	c	n/a
3018.749	8.891	8891.0	control	LS4	PICTURE_343.jpg	i	n/a
3027.640	9.573	9573.0	control	LS4	PICTURE_551.jpg	c	n/a
3037.213	9.936	9936.0	control	LS4	PICTURE_19.jpg	c	n/a
3047.149	10.617	10617.0	control	LS4	PICTURE_708.jpg	i	n/a
3057.766	11.202	11202.0	learning	LS1	PICTURE_414.jpg	c	n/a
3068.968	19.553	19553.0	learning	LS1	PICTURE_566.jpg	i	n/a
3088.521	8.880	8880.0	learning	LS1	PICTURE_203.jpg	i	n/a
3097.401	13.560	13560.0	learning	LS1	PICTURE_42.jpg	i	n/a
3110.961	14.723	14723.0	learning	LS1	PICTURE_224.jpg	c	n/a
3125.684	11.087	11087.0	learning	LS1	PICTURE_42.jpg	c	n/a
3136.771	13.688	13688.0	learning	LS1	PICTURE_224.jpg	i	n/a
3150.459	11.652	11652.0	learning	LS1	PICTURE_566.jpg	c	n/a
3162.111	13.294	13294.0	learning	LS1	PICTURE_414.jpg	i	n/a
3175.405	14.777	14777.0	learning	LS1	PICTURE_203.jpg	c	n/a
3190.182	21.757	21757.0	learning	LS2	PICTURE_42.jpg	i	n/a
3211.939	12.204	12204.0	learning	LS2	PICTURE_414.jpg	c	n/a
3224.143	7.449	7449.0	learning	LS2	PICTURE_566.jpg	c	n/a
3231.592	12.769	12769.0	learning	LS2	PICTURE_203.jpg	c	n/a
3244.361	9.773	9773.0	learning	LS2	PICTURE_566.jpg	i	n/a
3254.134	13.016	13016.0	learning	LS2	PICTURE_203.jpg	i	n/a
3267.150	9.540	9540.0	learning	LS2	PICTURE_224.jpg	c	n/a
3276.690	10.542	10542.0	learning	LS2	PICTURE_414.jpg	i	n/a
3287.232	11.705	11705.0	learning	LS2	PICTURE_224.jpg	i	n/a
3298.937	11.428	11428.0	learning	LS2	PICTURE_42.jpg	c	n/a
3310.365	15.692	15692.0	learning	LS3	PICTURE_414.jpg	i	n/a
3326.057	7.098	7098.0	learning	LS3	PICTURE_566.jpg	c	n/a
3333.155	8.900	8900.0	learning	LS3	PICTURE_42.jpg	i	n/a
3342.055	12.141	12141.0	learning	LS3	PICTURE_566.jpg	i	n/a
3354.196	8.666	8666.0	learning	LS3	PICTURE_414.jpg	c	n/a
3362.862	8.390	8390.0	learning	LS3	PICTURE_224.jpg	i	n/a
3371.252	10.512	10512.0	learning	LS3	PICTURE_42.jpg	c	n/a
3381.764	10.554	10554.0	learning	LS3	PICTURE_203.jpg	i	n/a
3392.318	16.994	16994.0	learning	LS3	PICTURE_224.jpg	c	n/a
3409.312	11.119	11119.0	learning	LS3	PICTURE_203.jpg	c	n/a
3420.431	13.782	13782.0	learning	LS4	PICTURE_224.jpg	c	n/a
3434.213	11.585	11585.0	learning	LS4	PICTURE_414.jpg	c	n/a
3445.798	10.349	10349.0	learning	LS4	PICTURE_42.jpg	i	n/a
3456.147	10.392	10392.0	learning	LS4	PICTURE_203.jpg	c	n/a
3466.539	8.673	8673.0	learning	LS4	PICTURE_566.jpg	i	n/a
3475.212	9.676	9676.0	learning	LS4	PICTURE_414.jpg	i	n/a
3484.888	12.437	12437.0	learning	LS4	PICTURE_224.jpg	i	n/a
3497.325	10.401	10401.0	learning	LS4	PICTURE_203.jpg	i	n/a
3507.726	9.486	9486.0	learning	LS4	PICTURE_42.jpg	c	n/a
3517.212	9.368	9368.0	learning	LS4	PICTURE_566.jpg	c	n/a
