onset	duration	accuracy_binary	trial_type	learning_stage	stimulus	coherence
0.000	n/a	n/a	learning	LS1	PICTURE_68.jpg	c
25.000	11.076	1	learning	LS1	PICTURE_71.jpg	c
36.076	10.798	1	learning	LS1	PICTURE_68.jpg	i
46.874	13.081	1	learning	LS1	PICTURE_67.jpg	c
59.955	10.080	0	learning	LS1	PICTURE_74.jpg	c
70.035	15.554	0	learning	LS1	PICTURE_72.jpg	i
85.589	15.435	1	learning	LS1	PICTURE_74.jpg	i
101.024	10.201	0	learning	LS1	PICTURE_67.jpg	i
111.225	16.320	1	learning	LS1	PICTURE_72.jpg	c
127.545	11.085	1	learning	LS1	PICTURE_71.jpg	i
138.630	9.432	1	learning	LS2	PICTURE_72.jpg	c
148.062	9.475	1	learning	LS2	PICTURE_71.jpg	i
157.537	8.238	1	learning	LS2	PICTURE_67.jpg	c
165.775	10.998	0	learning	LS2	PICTURE_74.jpg	i
176.773	10.241	1	learning	LS2	PICTURE_68.jpg	c
187.014	8.845	1	learning	LS2	PICTURE_71.jpg	c
195.859	9.048	1	learning	LS2	PICTURE_72.jpg	i
204.907	13.249	1	learning	LS2	PICTURE_74.jpg	c
218.156	10.892	0	learning	LS2	PICTURE_67.jpg	i
229.048	13.014	1	learning	LS2	PICTURE_68.jpg	i
242.062	10.242	1	learning	LS3	PICTURE_67.jpg	i
252.304	8.686	1	learning	LS3	PICTURE_74.jpg	c
260.990	13.527	1	learning	LS3	PICTURE_72.jpg	c
274.517	8.291	1	learning	LS3	PICTURE_68.jpg	i
282.808	8.656	1	learning	LS3	PICTURE_74.jpg	i
291.464	10.938	1	learning	LS3	PICTURE_68.jpg	c
302.402	7.942	1	learning	LS3	PICTURE_71.jpg	c
310.344	14.862	1	learning	LS3	PICTURE_72.jpg	i
325.206	8.826	1	learning	LS3	PICTURE_67.jpg	c
334.032	10.309	1	learning	LS3	PICTURE_71.jpg	i
344.341	13.773	1	learning	LS4	PICTURE_74.jpg	i
358.114	9.178	1	learning	LS4	PICTURE_71.jpg	i
367.292	8.899	1	learning	LS4	PICTURE_67.jpg	i
376.191	7.183	1	learning	LS4	PICTURE_71.jpg	c
383.374	11.224	1	learning	LS4	PICTURE_74.jpg	c
394.598	10.945	1	learning	LS4	PICTURE_68.jpg	i
405.543	11.627	1	learning	LS4	PICTURE_72.jpg	c
417.170	10.230	1	learning	LS4	PICTURE_68.jpg	c
427.400	9.794	1	learning	LS4	PICTURE_72.jpg	i
437.194	7.758	1	learning	LS4	PICTURE_67.jpg	c
444.952	12.610	1	learning	LS1	PICTURE_38.jpg	c
457.562	15.050	1	learning	LS1	PICTURE_26.jpg	c
472.612	12.056	0	learning	LS1	PICTURE_659.jpg	c
484.668	14.969	0	learning	LS1	PICTURE_654.jpg	i
499.637	11.654	0	learning	LS1	PICTURE_212.jpg	i
511.291	17.615	1	learning	LS1	PICTURE_654.jpg	c
528.906	13.178	1	learning	LS1	PICTURE_659.jpg	i
542.084	13.053	1	learning	LS1	PICTURE_38.jpg	i
555.137	11.336	1	learning	LS1	PICTURE_26.jpg	i
566.473	11.218	1	learning	LS1	PICTURE_212.jpg	c
577.691	11.005	1	learning	LS2	PICTURE_654.jpg	c
588.696	17.924	1	learning	LS2	PICTURE_26.jpg	i
606.620	7.731	1	learning	LS2	PICTURE_212.jpg	c
614.351	7.613	1	learning	LS2	PICTURE_659.jpg	c
621.964	9.735	1	learning	LS2	PICTURE_212.jpg	i
631.699	8.495	1	learning	LS2	PICTURE_26.jpg	c
640.194	8.379	1	learning	LS2	PICTURE_654.jpg	i
648.573	9.864	1	learning	LS2	PICTURE_38.jpg	i
658.437	9.746	1	learning	LS2	PICTURE_659.jpg	i
668.183	8.827	1	learning	LS2	PICTURE_38.jpg	c
677.010	12.293	1	learning	LS3	PICTURE_26.jpg	i
689.303	7.218	1	learning	LS3	PICTURE_659.jpg	i
696.521	7.738	1	learning	LS3	PICTURE_38.jpg	c
704.259	8.740	1	learning	LS3	PICTURE_659.jpg	c
712.999	10.543	1	learning	LS3	PICTURE_654.jpg	i
723.542	11.384	1	learning	LS3	PICTURE_212.jpg	i
734.926	10.308	1	learning	LS3	PICTURE_654.jpg	c
745.234	10.351	1	learning	LS3	PICTURE_38.jpg	i
755.585	7.993	1	learning	LS3	PICTURE_26.jpg	c
763.578	9.476	1	learning	LS3	PICTURE_212.jpg	c
773.054	7.342	1	learning	LS4	PICTURE_26.jpg	c
780.396	9.623	1	learning	LS4	PICTURE_659.jpg	i
790.019	9.668	1	learning	LS4	PICTURE_654.jpg	c
799.687	8.268	1	learning	LS4	PICTURE_212.jpg	c
807.955	7.992	1	learning	LS4	PICTURE_38.jpg	i
815.947	9.474	1	learning	LS4	PICTURE_659.jpg	c
825.421	8.395	1	learning	LS4	PICTURE_26.jpg	i
833.816	10.677	1	learning	LS4	PICTURE_38.jpg	c
844.493	10.080	1	learning	LS4	PICTURE_654.jpg	i
854.573	11.402	1	learning	LS4	PICTURE_212.jpg	i
865.975	10.014	0	learning	LS1	PICTURE_379.jpg	i
875.989	11.976	1	learning	LS1	PICTURE_465.jpg	c
887.965	10.899	1	learning	LS1	PICTURE_692.jpg	i
898.864	9.975	0	learning	LS1	PICTURE_592.jpg	i
908.839	13.856	1	learning	LS1	PICTURE_379.jpg	c
922.695	9.581	1	learning	LS1	PICTURE_592.jpg	c
932.276	12.815	0	learning	LS1	PICTURE_640.jpg	i
945.091	11.098	1	learning	LS1	PICTURE_692.jpg	c
956.189	11.141	1	learning	LS1	PICTURE_465.jpg	i
967.330	10.545	1	learning	LS1	PICTURE_640.jpg	c
977.875	8.732	1	learning	LS2	PICTURE_640.jpg	c
986.607	9.095	1	learning	LS2	PICTURE_592.jpg	c
995.702	12.816	1	learning	LS2	PICTURE_640.jpg	i
1008.518	10.940	1	learning	LS2	PICTURE_692.jpg	i
1019.458	9.223	1	learning	LS2	PICTURE_379.jpg	c
1028.681	9.906	1	learning	LS2	PICTURE_592.jpg	i
1038.587	9.630	1	learning	LS2	PICTURE_465.jpg	c
1048.217	8.393	1	learning	LS2	PICTURE_379.jpg	i
1056.610	11.952	0	learning	LS2	PICTURE_465.jpg	i
1068.562	10.395	1	learning	LS2	PICTURE_692.jpg	c
1078.957	8.583	1	learning	LS3	PICTURE_692.jpg	c
1087.540	n/a	n/a	learning	LS3	PICTURE_379.jpg	c
1112.540	7.708	1	learning	LS3	PICTURE_640.jpg	c
1120.248	8.869	1	learning	LS3	PICTURE_465.jpg	i
1129.117	9.393	1	learning	LS3	PICTURE_592.jpg	i
1138.510	22.869	1	learning	LS3	PICTURE_640.jpg	i
1161.379	13.157	1	learning	LS3	PICTURE_379.jpg	i
1174.536	9.041	1	learning	LS3	PICTURE_592.jpg	c
1183.577	9.883	1	learning	LS3	PICTURE_692.jpg	i
1193.460	9.926	1	learning	LS3	PICTURE_465.jpg	c
1203.386	10.670	1	learning	LS4	PICTURE_379.jpg	i
1214.056	10.553	1	learning	LS4	PICTURE_592.jpg	c
1224.609	7.877	1	learning	LS4	PICTURE_640.jpg	c
1232.486	7.584	1	learning	LS4	PICTURE_465.jpg	c
1240.070	10.825	1	learning	LS4	PICTURE_379.jpg	c
1250.895	9.588	1	learning	LS4	PICTURE_640.jpg	i
1260.483	10.749	1	learning	LS4	PICTURE_692.jpg	i
1271.232	9.033	1	learning	LS4	PICTURE_465.jpg	i
1280.265	8.435	1	learning	LS4	PICTURE_592.jpg	i
1288.700	10.078	1	learning	LS4	PICTURE_692.jpg	c
1298.778	13.008	1	control	LS1	PICTURE_540.jpg	c
1311.786	15.283	1	control	LS1	PICTURE_263.jpg	i
1327.069	12.447	1	control	LS1	PICTURE_491.jpg	c
1339.516	12.330	1	control	LS1	PICTURE_116.jpg	i
1351.846	10.774	1	control	LS1	PICTURE_491.jpg	i
1362.620	10.976	1	control	LS1	PICTURE_135.jpg	c
1373.596	9.921	1	control	LS1	PICTURE_263.jpg	c
1383.517	8.821	1	control	LS1	PICTURE_116.jpg	c
1392.338	9.184	1	control	LS1	PICTURE_540.jpg	i
1401.522	11.785	1	control	LS1	PICTURE_135.jpg	i
1413.307	11.571	1	control	LS2	PICTURE_540.jpg	i
1424.878	10.016	1	control	LS2	PICTURE_491.jpg	i
1434.894	10.857	1	control	LS2	PICTURE_135.jpg	c
1445.751	7.861	1	control	LS2	PICTURE_116.jpg	c
1453.612	8.543	1	control	LS2	PICTURE_263.jpg	i
1462.155	8.427	1	control	LS2	PICTURE_135.jpg	i
1470.582	9.271	1	control	LS2	PICTURE_491.jpg	c
1479.853	7.553	1	control	LS2	PICTURE_540.jpg	c
1487.406	10.315	1	control	LS2	PICTURE_263.jpg	c
1497.721	9.559	1	control	LS2	PICTURE_116.jpg	i
1507.280	12.064	1	control	LS3	PICTURE_111.jpg	i
1519.344	13.067	1	control	LS3	PICTURE_151.jpg	i
1532.411	8.952	1	control	LS3	PICTURE_111.jpg	c
1541.363	13.631	1	control	LS3	PICTURE_234.jpg	c
1554.994	9.195	1	control	LS3	PICTURE_151.jpg	c
1564.189	10.358	1	control	LS3	PICTURE_234.jpg	i
1574.547	8.482	1	control	LS3	PICTURE_119.jpg	c
1583.029	11.243	1	control	LS3	PICTURE_621.jpg	i
1594.272	12.084	1	control	LS3	PICTURE_119.jpg	i
1606.356	9.727	1	control	LS3	PICTURE_621.jpg	c
1616.083	12.393	1	control	LS4	PICTURE_151.jpg	i
1628.476	8.596	1	control	LS4	PICTURE_119.jpg	i
1637.072	12.639	1	control	LS4	PICTURE_151.jpg	c
1649.711	9.321	1	control	LS4	PICTURE_234.jpg	i
1659.032	9.045	1	control	LS4	PICTURE_119.jpg	c
1668.077	10.208	1	control	LS4	PICTURE_621.jpg	i
1678.285	8.491	1	control	LS4	PICTURE_234.jpg	c
1686.776	8.214	1	control	LS4	PICTURE_111.jpg	c
1694.990	8.257	1	control	LS4	PICTURE_621.jpg	c
1703.247	9.259	1	control	LS4	PICTURE_111.jpg	i
1712.506	12.673	1	learning	LS1	PICTURE_148.jpg	c
1725.179	n/a	n/a	learning	LS1	PICTURE_453.jpg	c
1750.179	14.199	1	learning	LS1	PICTURE_202.jpg	c
1764.378	8.483	0	learning	LS1	PICTURE_358.jpg	c
1772.861	15.084	1	learning	LS1	PICTURE_165.jpg	i
1787.945	14.325	1	learning	LS1	PICTURE_202.jpg	i
1802.270	10.050	1	learning	LS1	PICTURE_148.jpg	i
1812.320	16.331	1	learning	LS1	PICTURE_358.jpg	i
1828.651	12.534	1	learning	LS1	PICTURE_453.jpg	i
1841.185	10.499	1	learning	LS1	PICTURE_165.jpg	c
1851.684	9.485	1	learning	LS2	PICTURE_148.jpg	i
1861.169	10.648	1	learning	LS2	PICTURE_358.jpg	c
1871.817	8.771	1	learning	LS2	PICTURE_165.jpg	i
1880.588	10.414	1	learning	LS2	PICTURE_148.jpg	c
1891.002	9.496	1	learning	LS2	PICTURE_202.jpg	i
1900.498	9.539	1	learning	LS2	PICTURE_453.jpg	c
1910.037	11.660	1	learning	LS2	PICTURE_165.jpg	c
1921.697	9.144	1	learning	LS2	PICTURE_202.jpg	c
1930.841	8.386	1	learning	LS2	PICTURE_453.jpg	i
1939.227	19.145	1	learning	LS2	PICTURE_358.jpg	i
1958.372	10.613	1	learning	LS3	PICTURE_202.jpg	c
1968.985	11.455	1	learning	LS3	PICTURE_358.jpg	i
1980.440	7.021	1	learning	LS3	PICTURE_453.jpg	c
1987.461	9.463	1	learning	LS3	PICTURE_202.jpg	i
1996.924	8.386	1	learning	LS3	PICTURE_148.jpg	i
2005.310	8.910	1	learning	LS3	PICTURE_358.jpg	c
2014.220	8.151	1	learning	LS3	PICTURE_165.jpg	i
2022.371	9.793	1	learning	LS3	PICTURE_453.jpg	i
2032.164	10.157	1	learning	LS3	PICTURE_165.jpg	c
2042.321	9.719	1	learning	LS3	PICTURE_148.jpg	c
2052.040	8.863	1	learning	LS4	PICTURE_148.jpg	c
2060.903	8.589	1	learning	LS4	PICTURE_358.jpg	c
2069.492	7.831	1	learning	LS4	PICTURE_453.jpg	c
2077.323	8.194	1	learning	LS4	PICTURE_165.jpg	c
2085.517	10.318	1	learning	LS4	PICTURE_358.jpg	i
2095.835	8.601	1	learning	LS4	PICTURE_202.jpg	i
2104.436	8.165	1	learning	LS4	PICTURE_453.jpg	i
2112.601	7.727	1	learning	LS4	PICTURE_202.jpg	c
2120.328	8.090	1	learning	LS4	PICTURE_148.jpg	i
2128.418	8.451	1	learning	LS4	PICTURE_165.jpg	i
2136.869	10.743	0	learning	LS1	PICTURE_32.jpg	c
2147.612	11.265	0	learning	LS1	PICTURE_77.jpg	i
2158.877	12.262	0	learning	LS1	PICTURE_100.jpg	i
2171.139	15.342	1	learning	LS1	PICTURE_77.jpg	c
2186.481	11.068	1	learning	LS1	PICTURE_32.jpg	i
2197.549	10.468	1	learning	LS1	PICTURE_100.jpg	c
2208.017	10.831	0	learning	LS1	PICTURE_97.jpg	i
2218.848	14.392	1	learning	LS1	PICTURE_267.jpg	c
2233.240	10.757	1	learning	LS1	PICTURE_97.jpg	c
2243.997	19.437	0	learning	LS1	PICTURE_267.jpg	i
2263.434	10.106	1	learning	LS2	PICTURE_77.jpg	c
2273.540	9.669	1	learning	LS2	PICTURE_32.jpg	i
2283.209	12.110	0	learning	LS2	PICTURE_77.jpg	i
2295.319	9.114	1	learning	LS2	PICTURE_100.jpg	c
2304.433	8.358	1	learning	LS2	PICTURE_97.jpg	c
2312.791	13.518	0	learning	LS2	PICTURE_32.jpg	c
2326.309	9.884	1	learning	LS2	PICTURE_267.jpg	c
2336.193	13.445	1	learning	LS2	PICTURE_97.jpg	i
2349.638	10.448	1	learning	LS2	PICTURE_267.jpg	i
2360.086	9.373	1	learning	LS2	PICTURE_100.jpg	i
2369.459	13.636	1	learning	LS3	PICTURE_97.jpg	c
2383.095	11.269	1	learning	LS3	PICTURE_267.jpg	c
2394.364	10.346	1	learning	LS3	PICTURE_32.jpg	c
2404.710	11.030	1	learning	LS3	PICTURE_100.jpg	i
2415.740	9.473	1	learning	LS3	PICTURE_77.jpg	c
2425.213	9.995	1	learning	LS3	PICTURE_267.jpg	i
2435.208	10.997	1	learning	LS3	PICTURE_97.jpg	i
2446.205	9.760	1	learning	LS3	PICTURE_77.jpg	i
2455.965	10.923	1	learning	LS3	PICTURE_32.jpg	i
2466.888	11.126	1	learning	LS3	PICTURE_100.jpg	c
2478.014	15.069	1	learning	LS4	PICTURE_97.jpg	c
2493.083	12.553	1	learning	LS4	PICTURE_267.jpg	i
2505.636	10.357	1	learning	LS4	PICTURE_97.jpg	i
2515.993	8.481	1	learning	LS4	PICTURE_32.jpg	i
2524.474	9.162	1	learning	LS4	PICTURE_100.jpg	c
2533.636	9.686	0	learning	LS4	PICTURE_32.jpg	c
2543.322	12.605	1	learning	LS4	PICTURE_77.jpg	i
2555.927	11.211	1	learning	LS4	PICTURE_100.jpg	i
2567.138	9.012	1	learning	LS4	PICTURE_77.jpg	c
2576.150	15.132	1	learning	LS4	PICTURE_267.jpg	c
2591.282	14.228	0	control	LS1	PICTURE_368.jpg	i
2605.510	12.505	1	control	LS1	PICTURE_338.jpg	c
2618.015	19.576	0	control	LS1	PICTURE_255.jpg	i
2637.591	16.582	1	control	LS1	PICTURE_391.jpg	i
2654.173	19.663	0	control	LS1	PICTURE_398.jpg	c
2673.836	10.909	1	control	LS1	PICTURE_391.jpg	c
2684.745	15.591	1	control	LS1	PICTURE_338.jpg	i
2700.336	11.634	1	control	LS1	PICTURE_368.jpg	c
2711.970	9.119	1	control	LS1	PICTURE_398.jpg	i
2721.089	17.637	1	control	LS1	PICTURE_255.jpg	c
2738.726	9.909	1	control	LS2	PICTURE_398.jpg	i
2748.635	10.751	1	control	LS2	PICTURE_255.jpg	i
2759.386	9.035	1	control	LS2	PICTURE_368.jpg	c
2768.421	9.238	1	control	LS2	PICTURE_391.jpg	c
2777.659	7.681	1	control	LS2	PICTURE_338.jpg	c
2785.340	7.722	1	control	LS2	PICTURE_368.jpg	i
2793.062	7.286	1	control	LS2	PICTURE_255.jpg	c
2800.348	19.962	1	control	LS2	PICTURE_398.jpg	c
2820.310	9.129	1	control	LS2	PICTURE_391.jpg	i
2829.439	11.732	1	control	LS2	PICTURE_338.jpg	i
2841.171	10.232	1	control	LS3	PICTURE_551.jpg	c
2851.403	12.834	1	control	LS3	PICTURE_19.jpg	c
2864.237	11.110	1	control	LS3	PICTURE_185.jpg	c
2875.347	10.193	1	control	LS3	PICTURE_551.jpg	i
2885.540	9.915	1	control	LS3	PICTURE_185.jpg	i
2895.455	12.357	1	control	LS3	PICTURE_343.jpg	c
2907.812	12.239	1	control	LS3	PICTURE_708.jpg	i
2920.051	15.641	1	control	LS3	PICTURE_343.jpg	i
2935.692	8.967	1	control	LS3	PICTURE_708.jpg	c
2944.659	13.486	1	control	LS3	PICTURE_19.jpg	i
2958.145	8.474	1	control	LS4	PICTURE_343.jpg	c
2966.619	8.677	1	control	LS4	PICTURE_551.jpg	i
2975.296	12.879	1	control	LS4	PICTURE_185.jpg	i
2988.175	9.881	1	control	LS4	PICTURE_19.jpg	i
2998.056	11.204	1	control	LS4	PICTURE_708.jpg	c
3009.260	9.489	1	control	LS4	PICTURE_185.jpg	c
3018.749	8.891	1	control	LS4	PICTURE_343.jpg	i
3027.640	9.573	1	control	LS4	PICTURE_551.jpg	c
3037.213	9.936	1	control	LS4	PICTURE_19.jpg	c
3047.149	10.617	1	control	LS4	PICTURE_708.jpg	i
3057.766	11.202	0	learning	LS1	PICTURE_414.jpg	c
3068.968	19.553	0	learning	LS1	PICTURE_566.jpg	i
3088.521	8.880	0	learning	LS1	PICTURE_203.jpg	i
3097.401	13.560	0	learning	LS1	PICTURE_42.jpg	i
3110.961	14.723	1	learning	LS1	PICTURE_224.jpg	c
3125.684	11.087	1	learning	LS1	PICTURE_42.jpg	c
3136.771	13.688	1	learning	LS1	PICTURE_224.jpg	i
3150.459	11.652	1	learning	LS1	PICTURE_566.jpg	c
3162.111	13.294	0	learning	LS1	PICTURE_414.jpg	i
3175.405	14.777	1	learning	LS1	PICTURE_203.jpg	c
3190.182	21.757	1	learning	LS2	PICTURE_42.jpg	i
3211.939	12.204	1	learning	LS2	PICTURE_414.jpg	c
3224.143	7.449	1	learning	LS2	PICTURE_566.jpg	c
3231.592	12.769	1	learning	LS2	PICTURE_203.jpg	c
3244.361	9.773	1	learning	LS2	PICTURE_566.jpg	i
3254.134	13.016	1	learning	LS2	PICTURE_203.jpg	i
3267.150	9.540	1	learning	LS2	PICTURE_224.jpg	c
3276.690	10.542	1	learning	LS2	PICTURE_414.jpg	i
3287.232	11.705	1	learning	LS2	PICTURE_224.jpg	i
3298.937	11.428	1	learning	LS2	PICTURE_42.jpg	c
3310.365	15.692	1	learning	LS3	PICTURE_414.jpg	i
3326.057	7.098	1	learning	LS3	PICTURE_566.jpg	c
3333.155	8.900	1	learning	LS3	PICTURE_42.jpg	i
3342.055	12.141	1	learning	LS3	PICTURE_566.jpg	i
3354.196	8.666	1	learning	LS3	PICTURE_414.jpg	c
3362.862	8.390	1	learning	LS3	PICTURE_224.jpg	i
3371.252	10.512	1	learning	LS3	PICTURE_42.jpg	c
3381.764	10.554	1	learning	LS3	PICTURE_203.jpg	i
3392.318	16.994	1	learning	LS3	PICTURE_224.jpg	c
3409.312	11.119	1	learning	LS3	PICTURE_203.jpg	c
3420.431	13.782	1	learning	LS4	PICTURE_224.jpg	c
3434.213	11.585	1	learning	LS4	PICTURE_414.jpg	c
3445.798	10.349	1	learning	LS4	PICTURE_42.jpg	i
3456.147	10.392	1	learning	LS4	PICTURE_203.jpg	c
3466.539	8.673	1	learning	LS4	PICTURE_566.jpg	i
3475.212	9.676	1	learning	LS4	PICTURE_414.jpg	i
3484.888	12.437	1	learning	LS4	PICTURE_224.jpg	i
3497.325	10.401	1	learning	LS4	PICTURE_203.jpg	i
3507.726	9.486	1	learning	LS4	PICTURE_42.jpg	c
3517.212	9.368	1	learning	LS4	PICTURE_566.jpg	c
