onset	duration	response_time_ms	trial_type	learning_stage	stimulus	response_port
24.1	2.623	2622.7	learning	LS1	learning/PICTURE_68.jpg	99
28.67	1.108	1107.6	learning	LS1	learning/PICTURE_71.jpg	99
33.24	1.08	1079.8	learning	LS1	learning/PICTURE_68.jpg	100
37.81	1.308	1308.1	learning	LS1	learning/PICTURE_67.jpg	99
42.396	1.008	1008.0	learning	LS1	learning/PICTURE_74.jpg	100
46.983	1.555	1555.3	learning	LS1	learning/PICTURE_72.jpg	99
51.552	1.544	1543.6	learning	LS1	learning/PICTURE_74.jpg	100
56.122	1.02	1020.1	learning	LS1	learning/PICTURE_67.jpg	99
60.692	1.632	1632.1	learning	LS1	learning/PICTURE_72.jpg	99
65.262	1.109	1108.5	learning	LS1	learning/PICTURE_71.jpg	100
74.351	0.943	943.1	learning	LS2	learning/PICTURE_72.jpg	99
78.921	0.948	947.5	learning	LS2	learning/PICTURE_71.jpg	100
83.491	0.824	823.8	learning	LS2	learning/PICTURE_67.jpg	99
88.061	1.1	1099.9	learning	LS2	learning/PICTURE_74.jpg	99
92.63	1.024	1024.1	learning	LS2	learning/PICTURE_68.jpg	99
97.2	0.884	884.5	learning	LS2	learning/PICTURE_71.jpg	99
101.77	0.905	904.8	learning	LS2	learning/PICTURE_72.jpg	100
106.34	1.325	1324.9	learning	LS2	learning/PICTURE_74.jpg	99
110.91	1.089	1089.2	learning	LS2	learning/PICTURE_67.jpg	99
115.48	1.301	1301.3	learning	LS2	learning/PICTURE_68.jpg	100
124.569	1.024	1024.2	learning	LS3	learning/PICTURE_67.jpg	100
129.139	0.869	868.6	learning	LS3	learning/PICTURE_74.jpg	99
133.709	1.353	1352.7	learning	LS3	learning/PICTURE_72.jpg	99
138.278	0.829	829.1	learning	LS3	learning/PICTURE_68.jpg	100
142.848	0.866	865.5	learning	LS3	learning/PICTURE_74.jpg	100
147.418	1.094	1093.7	learning	LS3	learning/PICTURE_68.jpg	99
151.988	0.794	794.2	learning	LS3	learning/PICTURE_71.jpg	99
156.558	1.486	1486.3	learning	LS3	learning/PICTURE_72.jpg	100
161.127	0.883	882.6	learning	LS3	learning/PICTURE_67.jpg	99
165.697	1.031	1030.9	learning	LS3	learning/PICTURE_71.jpg	100
174.787	1.377	1377.3	learning	LS4	learning/PICTURE_74.jpg	100
179.357	0.918	917.7	learning	LS4	learning/PICTURE_71.jpg	100
183.926	0.89	890.0	learning	LS4	learning/PICTURE_67.jpg	100
188.496	0.718	718.3	learning	LS4	learning/PICTURE_71.jpg	99
193.066	1.122	1122.4	learning	LS4	learning/PICTURE_74.jpg	99
197.636	1.095	1094.5	learning	LS4	learning/PICTURE_68.jpg	100
202.205	1.163	1162.7	learning	LS4	learning/PICTURE_72.jpg	99
206.775	1.023	1023.0	learning	LS4	learning/PICTURE_68.jpg	99
211.345	0.979	979.4	learning	LS4	learning/PICTURE_72.jpg	100
215.915	0.776	775.8	learning	LS4	learning/PICTURE_67.jpg	99
243.05	1.261	1261.0	learning	LS1	learning/PICTURE_38.jpg	99
247.62	1.505	1505.0	learning	LS1	learning/PICTURE_26.jpg	99
252.19	1.206	1205.6	learning	LS1	learning/PICTURE_659.jpg	100
256.776	1.497	1497.0	learning	LS1	learning/PICTURE_654.jpg	99
261.346	1.165	1165.5	learning	LS1	learning/PICTURE_212.jpg	99
265.916	1.762	1761.5	learning	LS1	learning/PICTURE_654.jpg	99
270.485	1.318	1317.8	learning	LS1	learning/PICTURE_659.jpg	100
275.072	1.305	1305.2	learning	LS1	learning/PICTURE_38.jpg	100
279.642	1.134	1133.6	learning	LS1	learning/PICTURE_26.jpg	100
284.212	1.122	1121.8	learning	LS1	learning/PICTURE_212.jpg	99
293.301	1.101	1100.5	learning	LS2	learning/PICTURE_654.jpg	99
297.871	1.792	1792.4	learning	LS2	learning/PICTURE_26.jpg	100
302.441	0.773	773.1	learning	LS2	learning/PICTURE_212.jpg	99
307.01	0.761	761.2	learning	LS2	learning/PICTURE_659.jpg	99
311.58	0.973	973.4	learning	LS2	learning/PICTURE_212.jpg	100
316.15	0.85	849.6	learning	LS2	learning/PICTURE_26.jpg	99
320.72	0.838	838.0	learning	LS2	learning/PICTURE_654.jpg	100
325.289	0.986	986.4	learning	LS2	learning/PICTURE_38.jpg	100
329.859	0.975	974.6	learning	LS2	learning/PICTURE_659.jpg	100
334.429	0.883	882.7	learning	LS2	learning/PICTURE_38.jpg	99
343.519	1.229	1229.3	learning	LS3	learning/PICTURE_26.jpg	100
348.088	0.722	721.8	learning	LS3	learning/PICTURE_659.jpg	100
352.658	0.774	773.8	learning	LS3	learning/PICTURE_38.jpg	99
357.228	0.874	874.0	learning	LS3	learning/PICTURE_659.jpg	99
361.798	1.054	1054.3	learning	LS3	learning/PICTURE_654.jpg	100
366.368	1.138	1138.4	learning	LS3	learning/PICTURE_212.jpg	100
370.937	1.031	1030.7	learning	LS3	learning/PICTURE_654.jpg	99
375.507	1.035	1035.0	learning	LS3	learning/PICTURE_38.jpg	100
380.077	0.799	799.3	learning	LS3	learning/PICTURE_26.jpg	99
384.647	0.948	947.6	learning	LS3	learning/PICTURE_212.jpg	99
393.736	0.734	734.2	learning	LS4	learning/PICTURE_26.jpg	99
398.306	0.962	962.3	learning	LS4	learning/PICTURE_659.jpg	100
402.876	0.967	966.7	learning	LS4	learning/PICTURE_654.jpg	99
407.446	0.827	826.8	learning	LS4	learning/PICTURE_212.jpg	99
412.015	0.799	799.1	learning	LS4	learning/PICTURE_38.jpg	100
416.585	0.947	947.3	learning	LS4	learning/PICTURE_659.jpg	99
421.155	0.84	839.5	learning	LS4	learning/PICTURE_26.jpg	100
425.725	1.068	1067.8	learning	LS4	learning/PICTURE_38.jpg	99
430.295	1.008	1008.0	learning	LS4	learning/PICTURE_654.jpg	100
434.864	1.14	1140.2	learning	LS4	learning/PICTURE_212.jpg	100
462.0	1.002	1001.5	learning	LS1	learning/PICTURE_379.jpg	99
466.569	1.198	1197.6	learning	LS1	learning/PICTURE_465.jpg	99
471.139	1.09	1089.9	learning	LS1	learning/PICTURE_692.jpg	100
475.726	0.998	997.5	learning	LS1	learning/PICTURE_592.jpg	99
480.296	1.385	1385.5	learning	LS1	learning/PICTURE_379.jpg	99
484.865	0.958	958.0	learning	LS1	learning/PICTURE_592.jpg	99
489.452	1.282	1281.5	learning	LS1	learning/PICTURE_640.jpg	99
494.022	1.11	1109.8	learning	LS1	learning/PICTURE_692.jpg	99
498.591	1.114	1114.1	learning	LS1	learning/PICTURE_465.jpg	100
503.161	1.054	1054.5	learning	LS1	learning/PICTURE_640.jpg	99
512.251	0.873	873.2	learning	LS2	learning/PICTURE_640.jpg	99
516.82	0.909	909.5	learning	LS2	learning/PICTURE_592.jpg	99
521.39	1.282	1281.7	learning	LS2	learning/PICTURE_640.jpg	100
525.96	1.094	1094.0	learning	LS2	learning/PICTURE_692.jpg	100
530.53	0.922	922.3	learning	LS2	learning/PICTURE_379.jpg	99
535.1	0.991	990.6	learning	LS2	learning/PICTURE_592.jpg	100
539.669	0.963	963.0	learning	LS2	learning/PICTURE_465.jpg	99
544.239	0.839	839.2	learning	LS2	learning/PICTURE_379.jpg	100
548.809	1.195	1195.1	learning	LS2	learning/PICTURE_465.jpg	99
553.379	1.04	1039.5	learning	LS2	learning/PICTURE_692.jpg	99
562.468	0.858	858.2	learning	LS3	learning/PICTURE_692.jpg	99
567.038	n/a	n/a	learning	LS3	learning/PICTURE_379.jpg	n/a
571.608	0.771	770.8	learning	LS3	learning/PICTURE_640.jpg	99
576.178	0.887	886.9	learning	LS3	learning/PICTURE_465.jpg	100
580.747	0.939	939.4	learning	LS3	learning/PICTURE_592.jpg	100
585.317	2.287	2286.9	learning	LS3	learning/PICTURE_640.jpg	100
589.887	1.316	1315.7	learning	LS3	learning/PICTURE_379.jpg	100
594.457	0.904	904.1	learning	LS3	learning/PICTURE_592.jpg	99
599.027	0.988	988.3	learning	LS3	learning/PICTURE_692.jpg	100
603.596	0.993	992.6	learning	LS3	learning/PICTURE_465.jpg	99
612.686	1.067	1067.0	learning	LS4	learning/PICTURE_379.jpg	100
617.256	1.055	1055.3	learning	LS4	learning/PICTURE_592.jpg	99
621.826	0.788	787.7	learning	LS4	learning/PICTURE_640.jpg	99
626.395	0.758	758.4	learning	LS4	learning/PICTURE_465.jpg	99
630.965	1.083	1082.5	learning	LS4	learning/PICTURE_379.jpg	99
635.535	0.959	958.8	learning	LS4	learning/PICTURE_640.jpg	100
640.105	1.075	1074.9	learning	LS4	learning/PICTURE_692.jpg	100
644.674	0.903	903.3	learning	LS4	learning/PICTURE_465.jpg	100
649.244	0.843	843.4	learning	LS4	learning/PICTURE_592.jpg	100
653.814	1.008	1007.8	learning	LS4	learning/PICTURE_692.jpg	99
680.949	1.301	1300.8	control	LS1	control/PICTURE_540.jpg	99
685.536	1.528	1528.3	control	LS1	control/PICTURE_263.jpg	100
690.106	1.245	1244.7	control	LS1	control/PICTURE_491.jpg	99
694.675	1.233	1233.0	control	LS1	control/PICTURE_116.jpg	100
699.245	1.077	1077.4	control	LS1	control/PICTURE_491.jpg	100
703.815	1.098	1097.6	control	LS1	control/PICTURE_135.jpg	99
708.385	0.992	992.1	control	LS1	control/PICTURE_263.jpg	99
712.955	0.882	882.1	control	LS1	control/PICTURE_116.jpg	99
717.524	0.918	918.4	control	LS1	control/PICTURE_540.jpg	100
722.094	1.179	1178.6	control	LS1	control/PICTURE_135.jpg	100
731.184	1.157	1157.1	control	LS2	control/PICTURE_540.jpg	100
735.753	1.002	1001.5	control	LS2	control/PICTURE_491.jpg	100
740.323	1.086	1085.6	control	LS2	control/PICTURE_135.jpg	99
744.893	0.786	786.1	control	LS2	control/PICTURE_116.jpg	99
749.463	0.854	854.3	control	LS2	control/PICTURE_263.jpg	100
754.033	0.843	842.7	control	LS2	control/PICTURE_135.jpg	100
758.602	0.927	927.1	control	LS2	control/PICTURE_491.jpg	99
763.172	0.755	755.4	control	LS2	control/PICTURE_540.jpg	99
767.742	1.032	1031.6	control	LS2	control/PICTURE_263.jpg	99
772.312	0.956	955.9	control	LS2	control/PICTURE_116.jpg	100
781.401	1.206	1206.5	control	LS3	control/PICTURE_111.jpg	100
785.971	1.307	1306.8	control	LS3	control/PICTURE_151.jpg	100
790.541	0.895	895.2	control	LS3	control/PICTURE_111.jpg	99
795.111	1.363	1363.1	control	LS3	control/PICTURE_234.jpg	99
799.68	0.919	919.5	control	LS3	control/PICTURE_151.jpg	99
804.25	1.036	1035.8	control	LS3	control/PICTURE_234.jpg	100
808.82	0.848	848.2	control	LS3	control/PICTURE_119.jpg	99
813.39	1.124	1124.3	control	LS3	control/PICTURE_621.jpg	100
817.96	1.208	1208.4	control	LS3	control/PICTURE_119.jpg	100
822.529	0.973	972.6	control	LS3	control/PICTURE_621.jpg	99
831.619	1.239	1239.3	control	LS4	control/PICTURE_151.jpg	100
836.189	0.86	859.6	control	LS4	control/PICTURE_119.jpg	100
840.759	1.264	1263.8	control	LS4	control/PICTURE_151.jpg	99
845.328	0.932	932.0	control	LS4	control/PICTURE_234.jpg	100
849.898	0.904	904.4	control	LS4	control/PICTURE_119.jpg	99
854.468	1.021	1020.8	control	LS4	control/PICTURE_621.jpg	100
859.038	0.849	849.2	control	LS4	control/PICTURE_234.jpg	99
863.607	0.821	821.4	control	LS4	control/PICTURE_111.jpg	99
868.177	0.826	825.7	control	LS4	control/PICTURE_621.jpg	99
872.747	0.926	925.9	control	LS4	control/PICTURE_111.jpg	100
899.882	1.267	1267.3	learning	LS1	learning/PICTURE_148.jpg	99
904.452	n/a	n/a	learning	LS1	learning/PICTURE_453.jpg	n/a
909.022	1.42	1419.9	learning	LS1	learning/PICTURE_202.jpg	99
913.592	0.848	848.3	learning	LS1	learning/PICTURE_358.jpg	100
918.161	1.508	1508.4	learning	LS1	learning/PICTURE_165.jpg	100
922.731	1.433	1432.5	learning	LS1	learning/PICTURE_202.jpg	100
927.301	1.005	1005.0	learning	LS1	learning/PICTURE_148.jpg	100
931.871	1.633	1633.1	learning	LS1	learning/PICTURE_358.jpg	100
936.441	1.254	1253.5	learning	LS1	learning/PICTURE_453.jpg	100
941.01	1.05	1049.9	learning	LS1	learning/PICTURE_165.jpg	99
950.1	0.949	948.5	learning	LS2	learning/PICTURE_148.jpg	100
954.67	1.065	1064.7	learning	LS2	learning/PICTURE_358.jpg	99
959.24	0.877	877.0	learning	LS2	learning/PICTURE_165.jpg	100
963.809	1.042	1041.5	learning	LS2	learning/PICTURE_148.jpg	99
968.379	0.95	949.6	learning	LS2	learning/PICTURE_202.jpg	100
972.949	0.954	953.9	learning	LS2	learning/PICTURE_453.jpg	99
977.519	1.166	1166.0	learning	LS2	learning/PICTURE_165.jpg	99
982.088	0.914	914.4	learning	LS2	learning/PICTURE_202.jpg	99
986.658	0.839	838.6	learning	LS2	learning/PICTURE_453.jpg	100
991.228	1.915	1914.5	learning	LS2	learning/PICTURE_358.jpg	100
1000.317	1.061	1061.4	learning	LS3	learning/PICTURE_202.jpg	99
1004.887	1.146	1145.6	learning	LS3	learning/PICTURE_358.jpg	100
1009.457	0.702	702.1	learning	LS3	learning/PICTURE_453.jpg	99
1014.027	0.946	946.3	learning	LS3	learning/PICTURE_202.jpg	100
1018.597	0.839	838.6	learning	LS3	learning/PICTURE_148.jpg	100
1023.167	0.891	890.9	learning	LS3	learning/PICTURE_358.jpg	99
1027.736	0.815	815.1	learning	LS3	learning/PICTURE_165.jpg	100
1032.306	0.979	979.2	learning	LS3	learning/PICTURE_453.jpg	100
1036.876	1.016	1015.7	learning	LS3	learning/PICTURE_165.jpg	99
1041.446	0.972	971.9	learning	LS3	learning/PICTURE_148.jpg	99
1050.535	0.886	886.3	learning	LS4	learning/PICTURE_148.jpg	99
1055.105	0.859	858.9	learning	LS4	learning/PICTURE_358.jpg	99
1059.675	0.783	783.1	learning	LS4	learning/PICTURE_453.jpg	99
1064.245	0.819	819.3	learning	LS4	learning/PICTURE_165.jpg	99
1068.814	1.032	1031.9	learning	LS4	learning/PICTURE_358.jpg	100
1073.384	0.86	860.2	learning	LS4	learning/PICTURE_202.jpg	100
1077.954	0.817	816.5	learning	LS4	learning/PICTURE_453.jpg	100
1082.524	0.773	772.7	learning	LS4	learning/PICTURE_202.jpg	99
1087.093	0.809	809.0	learning	LS4	learning/PICTURE_148.jpg	100
1091.663	0.845	845.1	learning	LS4	learning/PICTURE_165.jpg	100
1118.799	1.074	1074.3	learning	LS1	learning/PICTURE_32.jpg	100
1123.368	1.127	1126.5	learning	LS1	learning/PICTURE_77.jpg	99
1127.955	1.226	1226.1	learning	LS1	learning/PICTURE_100.jpg	99
1132.524	1.534	1534.2	learning	LS1	learning/PICTURE_77.jpg	99
1137.094	1.107	1106.8	learning	LS1	learning/PICTURE_32.jpg	100
1141.664	1.047	1046.9	learning	LS1	learning/PICTURE_100.jpg	99
1146.234	1.083	1083.1	learning	LS1	learning/PICTURE_97.jpg	99
1150.804	1.439	1439.2	learning	LS1	learning/PICTURE_267.jpg	99
1155.373	1.076	1075.7	learning	LS1	learning/PICTURE_97.jpg	99
1159.943	1.944	1943.7	learning	LS1	learning/PICTURE_267.jpg	99
1169.033	1.011	1010.6	learning	LS2	learning/PICTURE_77.jpg	99
1173.603	0.967	966.9	learning	LS2	learning/PICTURE_32.jpg	100
1178.172	1.211	1211.0	learning	LS2	learning/PICTURE_77.jpg	99
1182.742	0.911	911.4	learning	LS2	learning/PICTURE_100.jpg	99
1187.312	0.836	835.8	learning	LS2	learning/PICTURE_97.jpg	99
1191.882	1.352	1351.8	learning	LS2	learning/PICTURE_32.jpg	100
1196.452	0.988	988.3	learning	LS2	learning/PICTURE_267.jpg	99
1201.021	1.345	1344.5	learning	LS2	learning/PICTURE_97.jpg	100
1205.591	1.045	1044.7	learning	LS2	learning/PICTURE_267.jpg	100
1210.161	0.937	937.3	learning	LS2	learning/PICTURE_100.jpg	100
1219.251	1.364	1363.6	learning	LS3	learning/PICTURE_97.jpg	99
1223.82	1.127	1126.9	learning	LS3	learning/PICTURE_267.jpg	99
1228.39	1.035	1034.6	learning	LS3	learning/PICTURE_32.jpg	99
1232.96	1.103	1102.9	learning	LS3	learning/PICTURE_100.jpg	100
1237.53	0.947	947.3	learning	LS3	learning/PICTURE_77.jpg	99
1242.099	1.0	999.5	learning	LS3	learning/PICTURE_267.jpg	100
1246.669	1.1	1099.8	learning	LS3	learning/PICTURE_97.jpg	100
1251.239	0.976	976.0	learning	LS3	learning/PICTURE_77.jpg	100
1255.809	1.092	1092.3	learning	LS3	learning/PICTURE_32.jpg	100
1260.379	1.113	1112.6	learning	LS3	learning/PICTURE_100.jpg	99
1269.468	1.507	1507.0	learning	LS4	learning/PICTURE_97.jpg	99
1274.038	1.255	1255.3	learning	LS4	learning/PICTURE_267.jpg	100
1278.608	1.036	1035.8	learning	LS4	learning/PICTURE_97.jpg	100
1283.178	0.848	848.2	learning	LS4	learning/PICTURE_32.jpg	100
1287.747	0.916	916.2	learning	LS4	learning/PICTURE_100.jpg	99
1292.317	0.969	968.5	learning	LS4	learning/PICTURE_32.jpg	100
1296.887	1.26	1260.5	learning	LS4	learning/PICTURE_77.jpg	100
1301.457	1.121	1121.0	learning	LS4	learning/PICTURE_100.jpg	100
1306.026	0.901	901.2	learning	LS4	learning/PICTURE_77.jpg	99
1310.596	1.513	1513.2	learning	LS4	learning/PICTURE_267.jpg	99
1337.732	1.423	1422.8	control	LS1	control/PICTURE_368.jpg	99
1342.318	1.25	1250.5	control	LS1	control/PICTURE_338.jpg	99
1346.904	1.958	1957.6	control	LS1	control/PICTURE_255.jpg	99
1351.474	1.658	1658.2	control	LS1	control/PICTURE_391.jpg	100
1356.044	1.966	1966.3	control	LS1	control/PICTURE_398.jpg	100
1360.614	1.091	1090.8	control	LS1	control/PICTURE_391.jpg	99
1365.184	1.559	1559.0	control	LS1	control/PICTURE_338.jpg	100
1369.753	1.163	1163.5	control	LS1	control/PICTURE_368.jpg	99
1374.323	0.912	911.9	control	LS1	control/PICTURE_398.jpg	100
1378.893	1.764	1763.7	control	LS1	control/PICTURE_255.jpg	99
1387.983	0.991	990.9	control	LS2	control/PICTURE_398.jpg	100
1392.552	1.075	1075.1	control	LS2	control/PICTURE_255.jpg	100
1397.122	0.903	903.5	control	LS2	control/PICTURE_368.jpg	99
1401.692	0.924	923.8	control	LS2	control/PICTURE_391.jpg	99
1406.262	0.768	768.1	control	LS2	control/PICTURE_338.jpg	99
1410.831	0.772	772.2	control	LS2	control/PICTURE_368.jpg	100
1415.401	0.729	728.6	control	LS2	control/PICTURE_255.jpg	99
1419.971	1.996	1996.2	control	LS2	control/PICTURE_398.jpg	99
1424.541	0.913	912.8	control	LS2	control/PICTURE_391.jpg	100
1429.111	1.173	1173.2	control	LS2	control/PICTURE_338.jpg	100
1438.217	1.023	1023.2	control	LS3	control/PICTURE_551.jpg	99
1442.787	1.283	1283.4	control	LS3	control/PICTURE_19.jpg	99
1447.373	1.111	1111.0	control	LS3	control/PICTURE_185.jpg	99
1451.943	1.019	1019.3	control	LS3	control/PICTURE_551.jpg	100
1456.513	0.992	991.6	control	LS3	control/PICTURE_185.jpg	100
1461.082	1.236	1235.7	control	LS3	control/PICTURE_343.jpg	99
1465.652	1.224	1223.9	control	LS3	control/PICTURE_708.jpg	100
1470.222	1.564	1564.1	control	LS3	control/PICTURE_343.jpg	100
1474.792	0.897	896.7	control	LS3	control/PICTURE_708.jpg	99
1479.362	1.349	1348.6	control	LS3	control/PICTURE_19.jpg	100
1488.451	0.847	847.4	control	LS4	control/PICTURE_343.jpg	99
1493.021	0.868	867.7	control	LS4	control/PICTURE_551.jpg	100
1497.591	1.288	1287.9	control	LS4	control/PICTURE_185.jpg	100
1502.16	0.988	988.1	control	LS4	control/PICTURE_19.jpg	100
1506.73	1.12	1120.4	control	LS4	control/PICTURE_708.jpg	99
1511.3	0.949	948.8	control	LS4	control/PICTURE_185.jpg	99
1515.87	0.889	889.0	control	LS4	control/PICTURE_343.jpg	100
1520.44	0.957	957.2	control	LS4	control/PICTURE_551.jpg	99
1525.009	0.994	993.5	control	LS4	control/PICTURE_19.jpg	99
1529.579	1.062	1061.7	control	LS4	control/PICTURE_708.jpg	100
1538.669	1.12	1120.1	learning	LS1	learning/PICTURE_414.jpg	100
1543.255	1.955	1955.2	learning	LS1	learning/PICTURE_566.jpg	99
1547.825	0.888	888.1	learning	LS1	learning/PICTURE_203.jpg	99
1552.395	1.356	1356.1	learning	LS1	learning/PICTURE_42.jpg	99
1556.965	1.472	1472.3	learning	LS1	learning/PICTURE_224.jpg	99
1561.534	1.109	1108.7	learning	LS1	learning/PICTURE_42.jpg	99
1566.104	1.369	1368.8	learning	LS1	learning/PICTURE_224.jpg	100
1570.674	1.165	1165.2	learning	LS1	learning/PICTURE_566.jpg	99
1575.244	1.329	1329.4	learning	LS1	learning/PICTURE_414.jpg	99
1579.814	1.478	1477.6	learning	LS1	learning/PICTURE_203.jpg	99
1588.903	2.176	2175.8	learning	LS2	learning/PICTURE_42.jpg	100
1593.473	1.22	1220.4	learning	LS2	learning/PICTURE_414.jpg	99
1598.043	0.745	744.9	learning	LS2	learning/PICTURE_566.jpg	99
1602.612	1.277	1276.9	learning	LS2	learning/PICTURE_203.jpg	99
1607.182	0.977	977.3	learning	LS2	learning/PICTURE_566.jpg	100
1611.752	1.302	1301.6	learning	LS2	learning/PICTURE_203.jpg	100
1616.322	0.954	953.9	learning	LS2	learning/PICTURE_224.jpg	99
1620.892	1.054	1054.2	learning	LS2	learning/PICTURE_414.jpg	100
1625.461	1.171	1170.5	learning	LS2	learning/PICTURE_224.jpg	100
1630.031	1.143	1142.8	learning	LS2	learning/PICTURE_42.jpg	99
1639.121	1.569	1569.2	learning	LS3	learning/PICTURE_414.jpg	100
1643.691	0.71	709.8	learning	LS3	learning/PICTURE_566.jpg	99
1648.26	0.89	889.9	learning	LS3	learning/PICTURE_42.jpg	100
1652.83	1.214	1214.2	learning	LS3	learning/PICTURE_566.jpg	100
1657.4	0.867	866.6	learning	LS3	learning/PICTURE_414.jpg	99
1661.97	0.839	839.0	learning	LS3	learning/PICTURE_224.jpg	100
1666.54	1.051	1051.2	learning	LS3	learning/PICTURE_42.jpg	99
1671.109	1.055	1055.4	learning	LS3	learning/PICTURE_203.jpg	100
1675.679	1.699	1699.4	learning	LS3	learning/PICTURE_224.jpg	99
1680.249	1.112	1111.9	learning	LS3	learning/PICTURE_203.jpg	99
1689.338	1.378	1378.2	learning	LS4	learning/PICTURE_224.jpg	99
1693.908	1.159	1158.5	learning	LS4	learning/PICTURE_414.jpg	99
1698.478	1.035	1034.9	learning	LS4	learning/PICTURE_42.jpg	100
1703.048	1.039	1039.2	learning	LS4	learning/PICTURE_203.jpg	99
1707.618	0.867	867.3	learning	LS4	learning/PICTURE_566.jpg	100
1712.187	0.968	967.6	learning	LS4	learning/PICTURE_414.jpg	100
1716.757	1.244	1243.7	learning	LS4	learning/PICTURE_224.jpg	100
1721.327	1.04	1040.1	learning	LS4	learning/PICTURE_203.jpg	100
1725.897	0.949	948.6	learning	LS4	learning/PICTURE_42.jpg	99
1730.466	0.937	936.9	learning	LS4	learning/PICTURE_566.jpg	99
