onset	duration	response_time_ms	trial_type	learning_stage	stimulus	response_port
0.0	0.611	611.0	2back	Block1	2back/STIM_000.jpg	100
3.041	0.669	669.3	2back	Block1	2back/STIM_000.jpg	99
6.517	1.107	1107.2	2back	Block1	2back/STIM_000.jpg	100
11.3	0.984	984.2	2back	Block1	2back/STIM_001.jpg	99
16.13	0.742	742.1	2back	Block1	2back/STIM_001.jpg	99
20.056	1.108	1107.8	2back	Block1	2back/STIM_001.jpg	99
23.94	0.722	721.9	2back	Block1	2back/STIM_002.jpg	99
28.242	0.755	755.2	2back	Block1	2back/STIM_002.jpg	100
32.518	0.544	544.2	2back	Block1	2back/STIM_002.jpg	100
35.243	0.877	876.8	2back	Block1	2back/STIM_003.jpg	99
39.951	0.574	573.5	2back	Block1	2back/STIM_003.jpg	100
44.252	0.985	984.6	2back	Block1	2back/STIM_003.jpg	99
48.473	0.638	637.7	2back	Block1	2back/STIM_004.jpg	99
52.038	0.828	828.4	2back	Block1	2back/STIM_004.jpg	99
55.974	0.514	514.1	2back	Block1	2back/STIM_004.jpg	100
58.538	1.19	1189.9	2back	Block1	2back/STIM_005.jpg	99
63.739	1.132	1132.1	2back	Block1	2back/STIM_005.jpg	99
67.577	0.941	941.0	2back	Block1	2back/STIM_005.jpg	100
72.589	0.647	647.3	2back	Block1	2back/STIM_006.jpg	99
76.382	0.909	909.3	2back	Block1	2back/STIM_006.jpg	100
81.039	0.898	897.7	2back	Block1	2back/STIM_006.jpg	100
85.913	1.25	1250.5	2back	Block1	2back/STIM_007.jpg	99
89.797	0.755	754.9	2back	Block1	2back/STIM_007.jpg	100
94.481	0.703	703.2	2back	Block1	2back/STIM_007.jpg	99
98.052	1.282	1282.4	2back	Block1	2back/STIM_008.jpg	99
102.589	0.796	796.5	2back	Block1	2back/STIM_008.jpg	99
107.157	0.96	959.6	2back	Block1	2back/STIM_008.jpg	100
111.713	1.07	1070.2	2back	Block1	2back/STIM_009.jpg	100
114.962	1.123	1123.0	2back	Block1	2back/STIM_009.jpg	100
119.135	1.064	1064.0	2back	Block1	2back/STIM_009.jpg	100
122.984	0.569	568.8	2back	Block1	2back/STIM_010.jpg	99
125.718	1.064	1064.2	2back	Block1	2back/STIM_010.jpg	99
130.017	1.084	1084.1	2back	Block1	2back/STIM_010.jpg	99
135.144	1.116	1115.9	2back	Block1	2back/STIM_011.jpg	100
138.675	0.805	805.1	2back	Block1	2back/STIM_011.jpg	100
142.912	0.594	594.3	2back	Block1	2back/STIM_011.jpg	100
146.196	1.244	1244.4	2back	Block1	2back/STIM_012.jpg	100
151.077	1.154	1154.4	2back	Block1	2back/STIM_012.jpg	100
156.107	0.821	820.9	2back	Block1	2back/STIM_012.jpg	100
160.844	1.185	1185.2	2back	Block1	2back/STIM_013.jpg	100
165.702	0.767	766.8	2back	Block1	2back/STIM_013.jpg	99
170.181	1.122	1121.6	2back	Block1	2back/STIM_013.jpg	100
173.899	1.107	1106.7	2back	Block1	2back/STIM_014.jpg	100
178.186	1.191	1191.0	2back	Block1	2back/STIM_014.jpg	100
182.678	0.542	541.6	2back	Block1	2back/STIM_014.jpg	100
185.853	0.74	740.0	2back	Block1	2back/STIM_015.jpg	100
188.884	0.831	831.3	2back	Block1	2back/STIM_015.jpg	100
192.255	0.95	949.6	2back	Block1	2back/STIM_015.jpg	99
195.697	1.089	1089.4	2back	Block1	2back/STIM_016.jpg	100
199.301	1.008	1007.5	2back	Block1	2back/STIM_016.jpg	100
202.744	0.616	616.2	2back	Block1	2back/STIM_016.jpg	99
207.411	1.26	1259.8	2back	Block1	2back/STIM_017.jpg	99
211.001	0.833	833.0	2back	Block1	2back/STIM_017.jpg	100
215.495	0.656	655.5	2back	Block1	2back/STIM_017.jpg	99
218.249	0.92	919.9	2back	Block1	2back/STIM_018.jpg	100
221.59	0.734	733.9	2back	Block1	2back/STIM_018.jpg	100
226.186	0.932	932.2	2back	Block1	2back/STIM_018.jpg	100
229.523	1.23	1229.6	2back	Block1	2back/STIM_019.jpg	100
233.491	0.897	897.2	2back	Block1	2back/STIM_019.jpg	99
237.306	0.745	744.7	2back	Block1	2back/STIM_019.jpg	99
240.184	0.904	904.0	2back	Block1	2back/STIM_020.jpg	99
244.595	1.069	1069.4	2back	Block1	2back/STIM_020.jpg	99
248.172	0.554	554.5	2back	Block1	2back/STIM_020.jpg	100
251.163	0.67	670.3	2back	Block1	2back/STIM_021.jpg	99
254.641	0.794	794.5	2back	Block1	2back/STIM_021.jpg	100
258.281	0.611	611.1	2back	Block1	2back/STIM_021.jpg	100
261.453	1.252	1251.7	2back	Block1	2back/STIM_022.jpg	99
265.073	1.198	1197.5	2back	Block1	2back/STIM_022.jpg	99
269.77	1.07	1070.2	2back	Block1	2back/STIM_022.jpg	100
273.354	0.964	964.4	2back	Block1	2back/STIM_023.jpg	100
276.463	1.079	1079.1	2back	Block1	2back/STIM_023.jpg	99
279.996	0.584	583.5	2back	Block1	2back/STIM_023.jpg	99
283.376	1.212	1212.3	2back	Block1	2back/STIM_024.jpg	100
288.063	1.017	1016.6	2back	Block1	2back/STIM_024.jpg	100
292.655	1.089	1089.2	2back	Block1	2back/STIM_024.jpg	100
296.824	0.619	619.3	2back	Block1	2back/STIM_025.jpg	99
301.128	0.608	608.2	2back	Block1	2back/STIM_025.jpg	100
303.982	0.552	551.7	2back	Block1	2back/STIM_025.jpg	100
306.977	0.906	905.9	2back	Block1	2back/STIM_026.jpg	99
310.468	0.841	841.2	2back	Block1	2back/STIM_026.jpg	99
314.744	0.712	711.7	2back	Block1	2back/STIM_026.jpg	100
317.934	0.624	624.3	2back	Block1	2back/STIM_027.jpg	100
322.11	1.108	1108.4	2back	Block1	2back/STIM_027.jpg	99
325.325	0.586	586.1	2back	Block1	2back/STIM_027.jpg	99
328.214	0.885	885.4	2back	Block1	2back/STIM_028.jpg	99
332.342	0.527	527.2	2back	Block1	2back/STIM_028.jpg	100
334.964	1.052	1052.2	2back	Block1	2back/STIM_028.jpg	100
339.003	1.211	1211.4	2back	Block1	2back/STIM_029.jpg	100
344.279	1.215	1215.4	2back	Block1	2back/STIM_029.jpg	99
349.45	0.918	918.5	2back	Block1	2back/STIM_029.jpg	99
353.905	0.854	854.2	2back	Block1	2back/STIM_030.jpg	99
358.389	1.061	1061.3	2back	Block1	2back/STIM_030.jpg	100
362.715	1.123	1123.1	2back	Block1	2back/STIM_030.jpg	99
366.657	0.833	833.4	2back	Block1	2back/STIM_031.jpg	99
370.031	1.031	1031.3	2back	Block1	2back/STIM_031.jpg	100
375.016	0.913	913.3	2back	Block1	2back/STIM_031.jpg	100
378.432	0.868	867.7	2back	Block1	2back/STIM_032.jpg	100
381.826	0.795	795.1	2back	Block1	2back/STIM_032.jpg	100
384.78	0.681	681.0	2back	Block1	2back/STIM_032.jpg	99
389.224	0.819	819.2	2back	Block1	2back/STIM_033.jpg	99
393.624	1.014	1014.0	2back	Block1	2back/STIM_033.jpg	100
397.714	0.588	587.9	2back	Block1	2back/STIM_033.jpg	100
402.042	0.895	894.6	2back	Block1	2back/STIM_034.jpg	99
406.202	1.037	1037.1	2back	Block1	2back/STIM_034.jpg	100
410.35	0.935	934.6	2back	Block1	2back/STIM_034.jpg	99
415.005	1.277	1277.1	2back	Block1	2back/STIM_035.jpg	100
419.673	1.035	1034.7	2back	Block1	2back/STIM_035.jpg	100
422.885	0.707	706.9	2back	Block1	2back/STIM_035.jpg	99
427.152	1.26	1260.5	2back	Block1	2back/STIM_036.jpg	100
430.699	0.955	955.4	2back	Block1	2back/STIM_036.jpg	99
434.07	0.702	702.4	2back	Block1	2back/STIM_036.jpg	100
438.52	1.169	1169.4	2back	Block1	2back/STIM_037.jpg	100
442.886	0.578	578.2	2back	Block1	2back/STIM_037.jpg	99
447.108	0.843	843.0	2back	Block1	2back/STIM_037.jpg	99
451.303	1.06	1059.6	2back	Block1	2back/STIM_038.jpg	100
456.397	0.893	893.1	2back	Block1	2back/STIM_038.jpg	99
460.053	0.8	799.8	2back	Block1	2back/STIM_038.jpg	99
464.349	0.986	985.6	2back	Block1	2back/STIM_039.jpg	99
469.113	1.187	1186.6	2back	Block1	2back/STIM_039.jpg	99
474.323	1.033	1032.7	2back	Block1	2back/STIM_039.jpg	99
479.161	0.681	680.8	0back	Block1	0back/STIM_000.jpg	99
482.756	0.71	709.8	0back	Block1	0back/STIM_000.jpg	100
486.996	0.587	586.9	0back	Block1	0back/STIM_000.jpg	99
489.838	0.469	468.6	0back	Block1	0back/STIM_001.jpg	99
492.422	0.702	702.5	0back	Block1	0back/STIM_001.jpg	100
497.005	0.459	459.3	0back	Block1	0back/STIM_001.jpg	100
501.16	0.528	528.5	0back	Block1	0back/STIM_002.jpg	99
503.956	0.618	618.0	0back	Block1	0back/STIM_002.jpg	100
506.771	0.506	506.5	0back	Block1	0back/STIM_002.jpg	99
509.401	0.707	707.1	0back	Block1	0back/STIM_003.jpg	100
513.398	0.517	517.3	0back	Block1	0back/STIM_003.jpg	99
517.664	0.393	393.3	0back	Block1	0back/STIM_003.jpg	100
521.365	0.432	431.9	0back	Block1	0back/STIM_004.jpg	100
525.326	0.449	448.6	0back	Block1	0back/STIM_004.jpg	99
528.66	0.482	481.7	0back	Block1	0back/STIM_004.jpg	100
532.957	0.628	627.7	0back	Block1	0back/STIM_005.jpg	100
536.643	0.618	617.5	0back	Block1	0back/STIM_005.jpg	100
540.433	0.624	624.4	0back	Block1	0back/STIM_005.jpg	100
543.679	0.395	395.4	0back	Block1	0back/STIM_006.jpg	100
548.062	0.456	456.3	0back	Block1	0back/STIM_006.jpg	99
552.286	0.626	626.5	0back	Block1	0back/STIM_006.jpg	99
555.788	0.414	413.8	0back	Block1	0back/STIM_007.jpg	100
558.436	0.691	690.8	0back	Block1	0back/STIM_007.jpg	99
562.862	0.671	671.0	0back	Block1	0back/STIM_007.jpg	100
567.364	0.59	590.2	0back	Block1	0back/STIM_008.jpg	100
571.115	0.393	393.3	0back	Block1	0back/STIM_008.jpg	100
573.751	0.662	661.7	0back	Block1	0back/STIM_008.jpg	99
577.156	0.722	722.0	0back	Block1	0back/STIM_009.jpg	99
580.173	0.606	605.6	0back	Block1	0back/STIM_009.jpg	99
584.82	0.657	657.0	0back	Block1	0back/STIM_009.jpg	100
589.144	0.558	557.6	0back	Block1	0back/STIM_010.jpg	99
592.293	0.38	380.4	0back	Block1	0back/STIM_010.jpg	100
595.544	0.521	521.2	0back	Block1	0back/STIM_010.jpg	100
599.015	0.646	646.4	0back	Block1	0back/STIM_011.jpg	100
602.054	0.669	669.1	0back	Block1	0back/STIM_011.jpg	100
606.222	0.443	442.6	0back	Block1	0back/STIM_011.jpg	100
609.381	0.684	684.0	0back	Block1	0back/STIM_012.jpg	99
613.99	0.402	402.1	0back	Block1	0back/STIM_012.jpg	100
618.234	0.672	671.6	0back	Block1	0back/STIM_012.jpg	99
621.649	0.528	528.1	0back	Block1	0back/STIM_013.jpg	99
624.92	0.713	713.1	0back	Block1	0back/STIM_013.jpg	100
629.284	0.597	597.4	0back	Block1	0back/STIM_013.jpg	99
633.447	0.483	482.6	0back	Block1	0back/STIM_014.jpg	100
637.648	0.375	374.7	0back	Block1	0back/STIM_014.jpg	100
641.005	0.657	656.8	0back	Block1	0back/STIM_014.jpg	99
645.354	0.5	499.7	0back	Block1	0back/STIM_015.jpg	100
648.043	0.524	523.8	0back	Block1	0back/STIM_015.jpg	100
650.938	0.384	383.7	0back	Block1	0back/STIM_015.jpg	100
654.82	0.529	528.6	0back	Block1	0back/STIM_016.jpg	99
658.223	0.709	709.1	0back	Block1	0back/STIM_016.jpg	100
662.655	0.697	696.7	0back	Block1	0back/STIM_016.jpg	100
667.066	0.491	490.7	0back	Block1	0back/STIM_017.jpg	99
669.737	0.506	506.3	0back	Block1	0back/STIM_017.jpg	99
673.429	0.464	463.5	0back	Block1	0back/STIM_017.jpg	99
676.392	0.724	724.1	0back	Block1	0back/STIM_018.jpg	100
680.837	0.572	571.9	0back	Block1	0back/STIM_018.jpg	100
685.362	0.674	674.3	0back	Block1	0back/STIM_018.jpg	100
688.444	0.4	400.3	0back	Block1	0back/STIM_019.jpg	99
691.934	0.562	561.8	0back	Block1	0back/STIM_019.jpg	100
694.605	0.392	392.2	0back	Block1	0back/STIM_019.jpg	100
697.352	0.628	627.8	2back	Block2	2back/STIM_000.jpg	100
700.14	0.656	655.9	2back	Block2	2back/STIM_000.jpg	100
702.965	0.839	838.9	2back	Block2	2back/STIM_000.jpg	99
707.683	1.018	1018.2	2back	Block2	2back/STIM_001.jpg	99
711.91	0.598	598.4	2back	Block2	2back/STIM_001.jpg	100
715.927	0.666	666.2	2back	Block2	2back/STIM_001.jpg	99
720.256	0.948	947.7	2back	Block2	2back/STIM_002.jpg	100
724.54	0.45	449.6	2back	Block2	2back/STIM_002.jpg	99
728.768	0.909	908.9	2back	Block2	2back/STIM_002.jpg	99
733.62	0.866	866.3	2back	Block2	2back/STIM_003.jpg	100
737.09	0.785	784.6	2back	Block2	2back/STIM_003.jpg	100
741.88	0.436	436.4	2back	Block2	2back/STIM_003.jpg	99
745.736	0.67	669.7	2back	Block2	2back/STIM_004.jpg	99
748.609	0.65	650.5	2back	Block2	2back/STIM_004.jpg	100
752.642	0.927	927.4	2back	Block2	2back/STIM_004.jpg	99
755.866	0.839	839.4	2back	Block2	2back/STIM_005.jpg	100
759.251	0.932	932.0	2back	Block2	2back/STIM_005.jpg	100
763.971	0.655	655.4	2back	Block2	2back/STIM_005.jpg	99
767.171	0.829	829.3	2back	Block2	2back/STIM_006.jpg	100
770.801	1.026	1025.9	2back	Block2	2back/STIM_006.jpg	99
773.996	0.428	428.4	2back	Block2	2back/STIM_006.jpg	99
778.195	0.831	831.0	2back	Block2	2back/STIM_007.jpg	99
782.856	1.024	1023.7	2back	Block2	2back/STIM_007.jpg	100
786.003	0.907	907.3	2back	Block2	2back/STIM_007.jpg	99
789.162	0.928	927.7	2back	Block2	2back/STIM_008.jpg	100
793.535	0.903	902.8	2back	Block2	2back/STIM_008.jpg	100
797.069	0.784	784.1	2back	Block2	2back/STIM_008.jpg	99
801.598	0.787	786.7	2back	Block2	2back/STIM_009.jpg	100
806.235	0.711	711.3	2back	Block2	2back/STIM_009.jpg	100
809.513	0.418	418.4	2back	Block2	2back/STIM_009.jpg	100
813.571	0.728	727.9	2back	Block2	2back/STIM_010.jpg	100
818.107	0.771	771.2	2back	Block2	2back/STIM_010.jpg	99
821.695	0.754	754.5	2back	Block2	2back/STIM_010.jpg	99
825.158	0.769	769.3	2back	Block2	2back/STIM_011.jpg	100
828.429	0.647	647.0	2back	Block2	2back/STIM_011.jpg	99
831.855	0.577	577.0	2back	Block2	2back/STIM_011.jpg	100
835.839	0.856	856.0	2back	Block2	2back/STIM_012.jpg	100
840.114	0.744	744.3	2back	Block2	2back/STIM_012.jpg	99
843.639	0.875	874.9	2back	Block2	2back/STIM_012.jpg	100
847.072	0.926	926.1	2back	Block2	2back/STIM_013.jpg	100
851.3	0.871	871.4	2back	Block2	2back/STIM_013.jpg	99
855.824	0.783	783.1	2back	Block2	2back/STIM_013.jpg	99
859.911	0.612	612.1	2back	Block2	2back/STIM_014.jpg	99
863.399	0.943	943.4	2back	Block2	2back/STIM_014.jpg	100
867.091	0.501	501.2	2back	Block2	2back/STIM_014.jpg	99
871.514	0.478	477.5	2back	Block2	2back/STIM_015.jpg	99
875.188	0.72	719.6	2back	Block2	2back/STIM_015.jpg	99
879.203	0.539	539.0	2back	Block2	2back/STIM_015.jpg	99
882.47	0.95	949.8	2back	Block2	2back/STIM_016.jpg	100
887.138	0.78	780.2	2back	Block2	2back/STIM_016.jpg	99
891.208	0.932	932.3	2back	Block2	2back/STIM_016.jpg	99
895.202	0.913	912.6	2back	Block2	2back/STIM_017.jpg	99
899.176	0.769	769.2	2back	Block2	2back/STIM_017.jpg	99
903.303	0.496	496.1	2back	Block2	2back/STIM_017.jpg	100
906.88	0.833	832.6	2back	Block2	2back/STIM_018.jpg	100
910.227	0.712	712.1	2back	Block2	2back/STIM_018.jpg	99
913.214	0.869	869.0	2back	Block2	2back/STIM_018.jpg	99
917.546	0.944	944.3	2back	Block2	2back/STIM_019.jpg	100
921.081	0.99	989.9	2back	Block2	2back/STIM_019.jpg	99
925.913	0.681	681.1	2back	Block2	2back/STIM_019.jpg	100
930.264	0.716	715.8	2back	Block2	2back/STIM_020.jpg	100
934.696	0.48	479.8	2back	Block2	2back/STIM_020.jpg	99
938.191	0.909	908.6	2back	Block2	2back/STIM_020.jpg	99
943.08	0.693	693.0	2back	Block2	2back/STIM_021.jpg	99
947.719	0.448	447.8	2back	Block2	2back/STIM_021.jpg	99
951.72	0.907	907.4	2back	Block2	2back/STIM_021.jpg	100
956.678	0.658	657.7	2back	Block2	2back/STIM_022.jpg	100
959.973	0.786	785.9	2back	Block2	2back/STIM_022.jpg	99
963.058	0.417	417.1	2back	Block2	2back/STIM_022.jpg	99
966.98	0.913	912.6	2back	Block2	2back/STIM_023.jpg	99
971.202	0.467	466.7	2back	Block2	2back/STIM_023.jpg	99
974.78	0.605	604.7	2back	Block2	2back/STIM_023.jpg	100
978.436	0.986	986.4	2back	Block2	2back/STIM_024.jpg	100
982.934	0.821	820.8	2back	Block2	2back/STIM_024.jpg	99
987.647	0.898	898.1	2back	Block2	2back/STIM_024.jpg	100
991.763	0.648	647.9	2back	Block2	2back/STIM_025.jpg	100
994.887	0.933	933.0	2back	Block2	2back/STIM_025.jpg	99
998.36	0.746	745.9	2back	Block2	2back/STIM_025.jpg	99
1001.192	0.685	685.2	2back	Block2	2back/STIM_026.jpg	100
1004.225	0.761	760.7	2back	Block2	2back/STIM_026.jpg	99
1007.468	0.666	666.1	2back	Block2	2back/STIM_026.jpg	100
1010.939	0.535	534.6	2back	Block2	2back/STIM_027.jpg	100
1014.448	0.448	448.3	2back	Block2	2back/STIM_027.jpg	99
1017.313	0.716	716.3	2back	Block2	2back/STIM_027.jpg	100
1021.786	0.646	646.0	2back	Block2	2back/STIM_028.jpg	99
1025.146	0.975	975.2	2back	Block2	2back/STIM_028.jpg	100
1028.667	0.672	672.0	2back	Block2	2back/STIM_028.jpg	100
1033.054	0.718	717.6	2back	Block2	2back/STIM_029.jpg	99
1036.011	0.678	678.1	2back	Block2	2back/STIM_029.jpg	100
1040.621	0.474	474.3	2back	Block2	2back/STIM_029.jpg	100
1043.723	0.87	869.7	2back	Block2	2back/STIM_030.jpg	100
1048.411	0.657	657.1	2back	Block2	2back/STIM_030.jpg	99
1052.03	0.812	812.3	2back	Block2	2back/STIM_030.jpg	100
1055.952	0.885	884.6	2back	Block2	2back/STIM_031.jpg	100
1059.976	0.482	481.7	2back	Block2	2back/STIM_031.jpg	99
1063.619	0.827	827.0	2back	Block2	2back/STIM_031.jpg	100
1066.784	0.602	601.5	2back	Block2	2back/STIM_032.jpg	99
1070.951	0.875	874.6	2back	Block2	2back/STIM_032.jpg	99
1075.189	0.896	896.0	2back	Block2	2back/STIM_032.jpg	99
1078.444	0.675	675.1	2back	Block2	2back/STIM_033.jpg	100
1082.456	0.978	977.7	2back	Block2	2back/STIM_033.jpg	100
1087.065	0.837	836.7	2back	Block2	2back/STIM_033.jpg	99
1091.369	0.652	652.3	2back	Block2	2back/STIM_034.jpg	99
1094.797	0.603	603.2	2back	Block2	2back/STIM_034.jpg	99
1098.064	0.767	767.2	2back	Block2	2back/STIM_034.jpg	99
1101.839	0.96	959.9	2back	Block2	2back/STIM_035.jpg	100
1106.652	0.641	640.9	2back	Block2	2back/STIM_035.jpg	100
1109.388	0.484	483.6	2back	Block2	2back/STIM_035.jpg	100
1113.412	0.79	789.8	2back	Block2	2back/STIM_036.jpg	100
1117.152	0.485	484.8	2back	Block2	2back/STIM_036.jpg	100
1120.91	0.661	661.3	2back	Block2	2back/STIM_036.jpg	99
1125.626	0.526	526.1	2back	Block2	2back/STIM_037.jpg	100
1129.045	0.72	720.3	2back	Block2	2back/STIM_037.jpg	100
1133.523	0.494	494.3	2back	Block2	2back/STIM_037.jpg	100
1136.26	0.72	720.0	2back	Block2	2back/STIM_038.jpg	99
1140.694	0.951	950.7	2back	Block2	2back/STIM_038.jpg	99
1145.564	0.451	450.7	2back	Block2	2back/STIM_038.jpg	100
1148.388	0.745	745.1	2back	Block2	2back/STIM_039.jpg	100
1153.07	0.477	477.4	2back	Block2	2back/STIM_039.jpg	99
1157.088	0.615	615.0	2back	Block2	2back/STIM_039.jpg	99
1159.844	0.551	550.8	0back	Block2	0back/STIM_000.jpg	99
1164.409	0.732	731.6	0back	Block2	0back/STIM_000.jpg	99
1168.828	0.368	367.5	0back	Block2	0back/STIM_000.jpg	99
1173.173	0.527	527.2	0back	Block2	0back/STIM_001.jpg	100
1176.627	0.703	703.3	0back	Block2	0back/STIM_001.jpg	100
1179.842	0.726	726.4	0back	Block2	0back/STIM_001.jpg	99
1184.618	0.561	560.7	0back	Block2	0back/STIM_002.jpg	100
1187.561	0.607	607.2	0back	Block2	0back/STIM_002.jpg	99
1191.661	0.534	533.9	0back	Block2	0back/STIM_002.jpg	99
1196.178	0.574	574.1	0back	Block2	0back/STIM_003.jpg	100
1199.85	0.374	373.7	0back	Block2	0back/STIM_003.jpg	99
1202.262	0.444	444.1	0back	Block2	0back/STIM_003.jpg	99
1206.57	0.719	719.2	0back	Block2	0back/STIM_004.jpg	100
1210.313	0.456	455.6	0back	Block2	0back/STIM_004.jpg	100
1213.213	0.416	416.0	0back	Block2	0back/STIM_004.jpg	100
1215.788	0.456	456.5	0back	Block2	0back/STIM_005.jpg	100
1218.72	0.691	691.4	0back	Block2	0back/STIM_005.jpg	100
1222.385	0.684	684.2	0back	Block2	0back/STIM_005.jpg	100
1225.672	0.635	635.4	0back	Block2	0back/STIM_006.jpg	100
1229.935	0.683	683.0	0back	Block2	0back/STIM_006.jpg	99
1233.843	0.382	381.8	0back	Block2	0back/STIM_006.jpg	100
1237.264	0.682	681.5	0back	Block2	0back/STIM_007.jpg	99
1240.201	0.584	584.2	0back	Block2	0back/STIM_007.jpg	100
1243.273	0.511	511.5	0back	Block2	0back/STIM_007.jpg	99
1246.483	0.381	381.4	0back	Block2	0back/STIM_008.jpg	99
1249.158	0.472	472.2	0back	Block2	0back/STIM_008.jpg	100
1251.682	0.713	713.1	0back	Block2	0back/STIM_008.jpg	100
1255.294	0.624	624.4	0back	Block2	0back/STIM_009.jpg	100
1258.608	0.597	597.2	0back	Block2	0back/STIM_009.jpg	100
1263.111	0.481	481.2	0back	Block2	0back/STIM_009.jpg	100
1265.683	0.518	518.2	0back	Block2	0back/STIM_010.jpg	100
1268.711	0.67	670.3	0back	Block2	0back/STIM_010.jpg	100
1272.162	0.426	426.2	0back	Block2	0back/STIM_010.jpg	99
1274.692	0.388	388.4	0back	Block2	0back/STIM_011.jpg	99
1278.189	0.606	606.1	0back	Block2	0back/STIM_011.jpg	99
1281.205	0.488	488.5	0back	Block2	0back/STIM_011.jpg	99
1285.239	0.512	511.8	0back	Block2	0back/STIM_012.jpg	99
1289.067	0.385	384.8	0back	Block2	0back/STIM_012.jpg	100
1292.474	0.464	463.7	0back	Block2	0back/STIM_012.jpg	100
1296.654	0.539	539.1	0back	Block2	0back/STIM_013.jpg	99
1301.233	0.706	705.9	0back	Block2	0back/STIM_013.jpg	100
1305.529	0.53	529.5	0back	Block2	0back/STIM_013.jpg	99
1309.415	0.619	619.4	0back	Block2	0back/STIM_014.jpg	99
1313.359	0.393	393.4	0back	Block2	0back/STIM_014.jpg	100
1316.116	0.672	672.0	0back	Block2	0back/STIM_014.jpg	99
1319.38	0.659	658.7	0back	Block2	0back/STIM_015.jpg	100
1322.269	0.598	598.5	0back	Block2	0back/STIM_015.jpg	99
1325.364	0.7	699.6	0back	Block2	0back/STIM_015.jpg	100
1328.768	0.687	687.1	0back	Block2	0back/STIM_016.jpg	100
1333.213	0.514	514.2	0back	Block2	0back/STIM_016.jpg	100
1335.778	0.474	474.0	0back	Block2	0back/STIM_016.jpg	99
1338.389	0.695	694.8	0back	Block2	0back/STIM_017.jpg	99
1343.086	0.656	655.8	0back	Block2	0back/STIM_017.jpg	100
1347.283	0.619	619.4	0back	Block2	0back/STIM_017.jpg	100
1351.683	0.6	599.6	0back	Block2	0back/STIM_018.jpg	99
1355.201	0.369	368.9	0back	Block2	0back/STIM_018.jpg	99
1357.725	0.512	512.4	0back	Block2	0back/STIM_018.jpg	100
1361.675	0.639	639.0	0back	Block2	0back/STIM_019.jpg	100
1366.269	0.712	711.5	0back	Block2	0back/STIM_019.jpg	100
1370.03	0.422	422.2	0back	Block2	0back/STIM_019.jpg	99
1373.031	0.872	872.4	2back	Block3	2back/STIM_000.jpg	100
1376.95	0.623	622.9	2back	Block3	2back/STIM_000.jpg	99
1381.484	0.442	442.2	2back	Block3	2back/STIM_000.jpg	99
1385.691	0.645	644.6	2back	Block3	2back/STIM_001.jpg	99
1389.965	0.424	424.4	2back	Block3	2back/STIM_001.jpg	100
1393.689	0.877	877.2	2back	Block3	2back/STIM_001.jpg	100
1397.817	0.47	469.7	2back	Block3	2back/STIM_002.jpg	99
1401.147	0.576	576.1	2back	Block3	2back/STIM_002.jpg	100
1404.607	0.891	890.9	2back	Block3	2back/STIM_002.jpg	100
1408.429	0.71	710.5	2back	Block3	2back/STIM_003.jpg	99
1411.727	0.486	486.1	2back	Block3	2back/STIM_003.jpg	99
1415.843	0.828	827.5	2back	Block3	2back/STIM_003.jpg	100
1419.227	0.633	633.1	2back	Block3	2back/STIM_004.jpg	99
1422.091	0.496	495.5	2back	Block3	2back/STIM_004.jpg	99
1426.153	0.534	533.6	2back	Block3	2back/STIM_004.jpg	100
1430.684	0.726	725.6	2back	Block3	2back/STIM_005.jpg	100
1434.397	0.884	884.4	2back	Block3	2back/STIM_005.jpg	99
1438.925	0.646	646.5	2back	Block3	2back/STIM_005.jpg	100
1442.55	0.875	874.7	2back	Block3	2back/STIM_006.jpg	100
1446.891	0.691	691.2	2back	Block3	2back/STIM_006.jpg	99
1450.108	0.559	559.1	2back	Block3	2back/STIM_006.jpg	99
1454.583	0.55	549.5	2back	Block3	2back/STIM_007.jpg	99
1457.585	0.831	830.6	2back	Block3	2back/STIM_007.jpg	99
1460.931	0.897	896.9	2back	Block3	2back/STIM_007.jpg	100
1465.746	0.735	735.1	2back	Block3	2back/STIM_008.jpg	100
1470.013	0.474	474.2	2back	Block3	2back/STIM_008.jpg	99
1474.465	0.512	511.6	2back	Block3	2back/STIM_008.jpg	99
1478.678	0.727	727.1	2back	Block3	2back/STIM_009.jpg	99
1482.053	0.575	575.1	2back	Block3	2back/STIM_009.jpg	99
1485.743	0.88	879.8	2back	Block3	2back/STIM_009.jpg	99
1490.112	0.565	564.6	2back	Block3	2back/STIM_010.jpg	99
1493.541	0.394	393.7	2back	Block3	2back/STIM_010.jpg	99
1497.847	0.421	420.7	2back	Block3	2back/STIM_010.jpg	99
1500.456	0.828	827.7	2back	Block3	2back/STIM_011.jpg	99
1503.468	0.565	565.3	2back	Block3	2back/STIM_011.jpg	99
1507.672	0.74	739.5	2back	Block3	2back/STIM_011.jpg	100
1511.045	0.497	497.3	2back	Block3	2back/STIM_012.jpg	99
1514.122	0.739	739.3	2back	Block3	2back/STIM_012.jpg	100
1518.235	0.619	618.7	2back	Block3	2back/STIM_012.jpg	100
1521.071	0.47	470.1	2back	Block3	2back/STIM_013.jpg	100
1523.907	0.679	679.3	2back	Block3	2back/STIM_013.jpg	100
1527.722	0.551	550.9	2back	Block3	2back/STIM_013.jpg	100
1531.07	0.575	574.8	2back	Block3	2back/STIM_014.jpg	99
1534.551	0.576	576.0	2back	Block3	2back/STIM_014.jpg	100
1537.539	0.605	604.6	2back	Block3	2back/STIM_014.jpg	100
1541.473	0.448	448.4	2back	Block3	2back/STIM_015.jpg	99
1544.078	0.49	489.5	2back	Block3	2back/STIM_015.jpg	99
1547.905	0.632	632.2	2back	Block3	2back/STIM_015.jpg	100
1551.475	0.713	712.6	2back	Block3	2back/STIM_016.jpg	99
1555.883	0.818	817.7	2back	Block3	2back/STIM_016.jpg	100
1558.919	0.77	770.3	2back	Block3	2back/STIM_016.jpg	99
1562.077	0.673	672.7	2back	Block3	2back/STIM_017.jpg	99
1566.487	0.498	498.2	2back	Block3	2back/STIM_017.jpg	99
1570.789	0.858	857.8	2back	Block3	2back/STIM_017.jpg	99
1573.797	0.733	733.3	2back	Block3	2back/STIM_018.jpg	100
1578.358	0.7	700.3	2back	Block3	2back/STIM_018.jpg	100
1582.275	0.864	864.4	2back	Block3	2back/STIM_018.jpg	99
1586.868	0.589	589.4	2back	Block3	2back/STIM_019.jpg	100
1590.088	0.794	794.3	2back	Block3	2back/STIM_019.jpg	99
1593.322	0.396	395.6	2back	Block3	2back/STIM_019.jpg	100
1597.481	0.815	814.8	2back	Block3	2back/STIM_020.jpg	99
1601.933	0.687	687.2	2back	Block3	2back/STIM_020.jpg	99
1604.849	0.415	415.3	2back	Block3	2back/STIM_020.jpg	99
1607.897	0.486	485.5	2back	Block3	2back/STIM_021.jpg	100
1611.263	0.472	471.8	2back	Block3	2back/STIM_021.jpg	100
1615.529	0.702	702.5	2back	Block3	2back/STIM_021.jpg	99
1618.923	0.499	499.4	2back	Block3	2back/STIM_022.jpg	100
1621.669	0.589	588.7	2back	Block3	2back/STIM_022.jpg	100
1626.156	0.897	897.1	2back	Block3	2back/STIM_022.jpg	99
1629.478	0.515	514.8	2back	Block3	2back/STIM_023.jpg	99
1633.595	0.554	554.3	2back	Block3	2back/STIM_023.jpg	99
1638.112	0.581	580.6	2back	Block3	2back/STIM_023.jpg	100
1640.763	0.67	670.5	2back	Block3	2back/STIM_024.jpg	99
1644.993	0.728	728.3	2back	Block3	2back/STIM_024.jpg	100
1648.976	0.413	412.6	2back	Block3	2back/STIM_024.jpg	99
1652.532	0.519	518.8	2back	Block3	2back/STIM_025.jpg	100
1656.941	0.676	675.7	2back	Block3	2back/STIM_025.jpg	100
1661.167	0.562	562.0	2back	Block3	2back/STIM_025.jpg	100
1665.095	0.71	710.0	2back	Block3	2back/STIM_026.jpg	99
1668.673	0.828	827.9	2back	Block3	2back/STIM_026.jpg	100
1671.698	0.888	887.9	2back	Block3	2back/STIM_026.jpg	99
1676.625	0.844	844.1	2back	Block3	2back/STIM_027.jpg	100
1679.604	0.757	756.6	2back	Block3	2back/STIM_027.jpg	99
1682.973	0.589	589.0	2back	Block3	2back/STIM_027.jpg	99
1686.959	0.423	422.9	2back	Block3	2back/STIM_028.jpg	99
1690.374	0.516	515.9	2back	Block3	2back/STIM_028.jpg	99
1694.18	0.43	430.4	2back	Block3	2back/STIM_028.jpg	100
1696.943	0.46	459.9	2back	Block3	2back/STIM_029.jpg	99
1699.75	0.501	501.5	2back	Block3	2back/STIM_029.jpg	100
1703.977	0.622	622.4	2back	Block3	2back/STIM_029.jpg	100
1706.969	0.669	669.3	2back	Block3	2back/STIM_030.jpg	99
1710.337	0.64	639.6	2back	Block3	2back/STIM_030.jpg	100
1714.409	0.503	502.9	2back	Block3	2back/STIM_030.jpg	100
1718.406	0.658	658.5	2back	Block3	2back/STIM_031.jpg	99
1723.088	0.687	687.0	2back	Block3	2back/STIM_031.jpg	99
1726.307	0.41	410.0	2back	Block3	2back/STIM_031.jpg	100
1729.717	0.831	830.9	2back	Block3	2back/STIM_032.jpg	99
1734.136	0.709	709.2	2back	Block3	2back/STIM_032.jpg	99
1736.936	0.393	393.2	2back	Block3	2back/STIM_032.jpg	99
1739.571	0.595	595.1	2back	Block3	2back/STIM_033.jpg	99
1743.568	0.887	887.0	2back	Block3	2back/STIM_033.jpg	100
1746.632	0.483	482.8	2back	Block3	2back/STIM_033.jpg	99
1749.538	0.501	501.0	2back	Block3	2back/STIM_034.jpg	100
1752.609	0.566	566.3	2back	Block3	2back/STIM_034.jpg	100
1755.368	0.821	821.0	2back	Block3	2back/STIM_034.jpg	99
1758.465	0.744	744.2	2back	Block3	2back/STIM_035.jpg	100
1762.207	0.61	609.5	2back	Block3	2back/STIM_035.jpg	100
1764.998	0.64	639.9	2back	Block3	2back/STIM_035.jpg	100
1768.672	0.59	590.3	2back	Block3	2back/STIM_036.jpg	99
1772.667	0.831	831.3	2back	Block3	2back/STIM_036.jpg	100
1775.725	0.727	726.9	2back	Block3	2back/STIM_036.jpg	100
1779.251	0.48	479.7	2back	Block3	2back/STIM_037.jpg	100
1783.094	0.388	387.8	2back	Block3	2back/STIM_037.jpg	100
1786.703	0.554	553.8	2back	Block3	2back/STIM_037.jpg	100
1789.379	0.837	837.1	2back	Block3	2back/STIM_038.jpg	100
1794.187	0.642	642.1	2back	Block3	2back/STIM_038.jpg	99
1797.124	0.768	768.1	2back	Block3	2back/STIM_038.jpg	100
1801.106	0.844	843.7	2back	Block3	2back/STIM_039.jpg	100
1805.953	0.646	646.5	2back	Block3	2back/STIM_039.jpg	100
1808.755	0.584	583.5	2back	Block3	2back/STIM_039.jpg	100
1812.198	0.658	657.7	0back	Block3	0back/STIM_000.jpg	99
1816.802	0.634	634.2	0back	Block3	0back/STIM_000.jpg	100
1820.565	0.677	677.0	0back	Block3	0back/STIM_000.jpg	100
1824.754	0.644	644.2	0back	Block3	0back/STIM_001.jpg	100
1827.817	0.68	679.8	0back	Block3	0back/STIM_001.jpg	100
1831.605	0.564	563.6	0back	Block3	0back/STIM_001.jpg	100
1834.5	0.399	399.3	0back	Block3	0back/STIM_002.jpg	100
1837.229	0.54	540.3	0back	Block3	0back/STIM_002.jpg	100
1841.367	0.483	483.1	0back	Block3	0back/STIM_002.jpg	100
1845.79	0.691	690.8	0back	Block3	0back/STIM_003.jpg	99
1850.519	0.539	539.2	0back	Block3	0back/STIM_003.jpg	99
1854.197	0.532	532.1	0back	Block3	0back/STIM_003.jpg	99
1858.721	0.495	494.6	0back	Block3	0back/STIM_004.jpg	99
1861.725	0.555	555.4	0back	Block3	0back/STIM_004.jpg	100
1864.739	0.383	382.7	0back	Block3	0back/STIM_004.jpg	99
1868.05	0.458	458.5	0back	Block3	0back/STIM_005.jpg	100
1871.137	0.422	422.1	0back	Block3	0back/STIM_005.jpg	100
1875.395	0.621	620.6	0back	Block3	0back/STIM_005.jpg	99
1879.525	0.422	421.7	0back	Block3	0back/STIM_006.jpg	100
1882.516	0.571	570.6	0back	Block3	0back/STIM_006.jpg	99
1886.347	0.692	691.9	0back	Block3	0back/STIM_006.jpg	100
1890.063	0.42	420.1	0back	Block3	0back/STIM_007.jpg	99
1894.375	0.512	511.9	0back	Block3	0back/STIM_007.jpg	100
1898.456	0.57	569.7	0back	Block3	0back/STIM_007.jpg	100
1901.137	0.508	508.3	0back	Block3	0back/STIM_008.jpg	99
1904.811	0.728	728.4	0back	Block3	0back/STIM_008.jpg	99
1907.916	0.437	437.4	0back	Block3	0back/STIM_008.jpg	100
1911.441	0.522	521.5	0back	Block3	0back/STIM_009.jpg	100
1915.691	0.587	587.4	0back	Block3	0back/STIM_009.jpg	100
1918.365	0.723	722.9	0back	Block3	0back/STIM_009.jpg	99
1921.816	0.632	632.3	0back	Block3	0back/STIM_010.jpg	99
1926.338	0.605	605.2	0back	Block3	0back/STIM_010.jpg	99
1929.796	0.37	369.8	0back	Block3	0back/STIM_010.jpg	99
1932.46	0.541	540.7	0back	Block3	0back/STIM_011.jpg	100
1936.565	0.523	523.0	0back	Block3	0back/STIM_011.jpg	99
1940.522	0.387	387.4	0back	Block3	0back/STIM_011.jpg	100
1943.56	0.584	583.9	0back	Block3	0back/STIM_012.jpg	100
1947.779	0.534	533.7	0back	Block3	0back/STIM_012.jpg	99
1951.511	0.454	454.1	0back	Block3	0back/STIM_012.jpg	100
1954.129	0.41	409.7	0back	Block3	0back/STIM_013.jpg	99
1956.691	0.378	378.5	0back	Block3	0back/STIM_013.jpg	100
1959.741	0.53	529.7	0back	Block3	0back/STIM_013.jpg	99
1962.859	0.381	381.2	0back	Block3	0back/STIM_014.jpg	99
1965.557	0.49	489.9	0back	Block3	0back/STIM_014.jpg	100
1969.168	0.515	515.0	0back	Block3	0back/STIM_014.jpg	100
1972.953	0.54	540.4	0back	Block3	0back/STIM_015.jpg	100
1976.911	0.598	597.5	0back	Block3	0back/STIM_015.jpg	100
1979.896	0.67	670.2	0back	Block3	0back/STIM_015.jpg	99
1983.941	0.723	723.0	0back	Block3	0back/STIM_016.jpg	99
1988.61	0.439	439.4	0back	Block3	0back/STIM_016.jpg	99
1991.344	0.732	732.4	0back	Block3	0back/STIM_016.jpg	100
1995.044	0.545	545.3	0back	Block3	0back/STIM_017.jpg	99
1998.017	0.425	424.8	0back	Block3	0back/STIM_017.jpg	99
2001.244	0.395	394.8	0back	Block3	0back/STIM_017.jpg	99
2004.663	0.624	623.9	0back	Block3	0back/STIM_018.jpg	100
2007.465	0.597	596.8	0back	Block3	0back/STIM_018.jpg	100
2011.072	0.418	417.6	0back	Block3	0back/STIM_018.jpg	99
2014.287	0.47	470.2	0back	Block3	0back/STIM_019.jpg	100
2018.634	0.64	640.0	0back	Block3	0back/STIM_019.jpg	99
2022.047	0.431	431.4	0back	Block3	0back/STIM_019.jpg	100
2024.586	0.665	665.0	2back	Block4	2back/STIM_000.jpg	99
2027.505	0.857	857.1	2back	Block4	2back/STIM_000.jpg	100
2030.763	0.877	877.1	2back	Block4	2back/STIM_000.jpg	100
2033.871	0.748	748.2	2back	Block4	2back/STIM_001.jpg	100
2037.453	0.52	519.7	2back	Block4	2back/STIM_001.jpg	99
2041.846	0.716	716.1	2back	Block4	2back/STIM_001.jpg	100
2045.959	0.647	646.9	2back	Block4	2back/STIM_002.jpg	100
2048.682	0.588	587.6	2back	Block4	2back/STIM_002.jpg	99
2052.831	0.628	627.7	2back	Block4	2back/STIM_002.jpg	100
2056.617	0.806	805.8	2back	Block4	2back/STIM_003.jpg	100
2060.626	0.635	635.2	2back	Block4	2back/STIM_003.jpg	100
2063.675	0.612	612.2	2back	Block4	2back/STIM_003.jpg	99
2067.305	0.395	395.2	2back	Block4	2back/STIM_004.jpg	100
2071.441	0.429	428.6	2back	Block4	2back/STIM_004.jpg	99
2075.466	0.749	748.8	2back	Block4	2back/STIM_004.jpg	99
2079.585	0.894	894.2	2back	Block4	2back/STIM_005.jpg	99
2084.438	0.65	649.8	2back	Block4	2back/STIM_005.jpg	99
2087.857	0.743	742.8	2back	Block4	2back/STIM_005.jpg	99
2091.311	0.895	894.8	2back	Block4	2back/STIM_006.jpg	100
2095.685	0.712	712.3	2back	Block4	2back/STIM_006.jpg	99
2099.445	0.686	685.9	2back	Block4	2back/STIM_006.jpg	99
2102.703	0.776	775.7	2back	Block4	2back/STIM_007.jpg	100
2106.853	0.54	539.7	2back	Block4	2back/STIM_007.jpg	99
2109.583	0.778	777.5	2back	Block4	2back/STIM_007.jpg	99
2112.487	0.724	724.0	2back	Block4	2back/STIM_008.jpg	100
2116.98	0.634	633.7	2back	Block4	2back/STIM_008.jpg	99
2120.245	0.827	827.4	2back	Block4	2back/STIM_008.jpg	99
2125.0	0.826	826.2	2back	Block4	2back/STIM_009.jpg	100
2128.516	0.541	540.7	2back	Block4	2back/STIM_009.jpg	99
2131.278	0.806	806.0	2back	Block4	2back/STIM_009.jpg	99
2134.898	0.696	696.1	2back	Block4	2back/STIM_010.jpg	99
2139.511	0.449	448.6	2back	Block4	2back/STIM_010.jpg	100
2143.287	0.876	876.0	2back	Block4	2back/STIM_010.jpg	100
2146.404	0.743	742.8	2back	Block4	2back/STIM_011.jpg	100
2149.989	0.435	435.2	2back	Block4	2back/STIM_011.jpg	100
2152.614	0.87	869.5	2back	Block4	2back/STIM_011.jpg	99
2155.678	0.783	783.2	2back	Block4	2back/STIM_012.jpg	99
2160.395	0.723	723.0	2back	Block4	2back/STIM_012.jpg	100
2163.264	0.736	736.5	2back	Block4	2back/STIM_012.jpg	99
2166.695	0.597	597.3	2back	Block4	2back/STIM_013.jpg	100
2171.245	0.575	575.3	2back	Block4	2back/STIM_013.jpg	100
2175.024	0.666	665.9	2back	Block4	2back/STIM_013.jpg	100
2179.577	0.585	585.3	2back	Block4	2back/STIM_014.jpg	99
2182.693	0.738	737.9	2back	Block4	2back/STIM_014.jpg	100
2186.061	0.88	880.0	2back	Block4	2back/STIM_014.jpg	100
2189.335	0.445	445.3	2back	Block4	2back/STIM_015.jpg	99
2193.735	0.888	888.0	2back	Block4	2back/STIM_015.jpg	99
2197.863	0.726	726.1	2back	Block4	2back/STIM_015.jpg	100
2201.844	0.758	758.0	2back	Block4	2back/STIM_016.jpg	100
2206.664	0.46	460.3	2back	Block4	2back/STIM_016.jpg	99
2209.662	0.769	768.6	2back	Block4	2back/STIM_016.jpg	99
2214.441	0.499	499.2	2back	Block4	2back/STIM_017.jpg	100
2217.561	0.545	545.4	2back	Block4	2back/STIM_017.jpg	100
2221.201	0.854	854.4	2back	Block4	2back/STIM_017.jpg	100
2224.652	0.424	424.2	2back	Block4	2back/STIM_018.jpg	99
2228.957	0.696	695.7	2back	Block4	2back/STIM_018.jpg	100
2233.009	0.667	667.4	2back	Block4	2back/STIM_018.jpg	100
2236.622	0.442	442.5	2back	Block4	2back/STIM_019.jpg	100
2240.836	0.585	585.0	2back	Block4	2back/STIM_019.jpg	99
2244.395	0.821	821.0	2back	Block4	2back/STIM_019.jpg	100
2247.387	0.779	779.3	2back	Block4	2back/STIM_020.jpg	99
2251.845	0.512	511.6	2back	Block4	2back/STIM_020.jpg	99
2255.96	0.831	831.2	2back	Block4	2back/STIM_020.jpg	100
2260.454	0.758	757.7	2back	Block4	2back/STIM_021.jpg	100
2265.175	0.831	831.4	2back	Block4	2back/STIM_021.jpg	100
2269.894	0.629	628.8	2back	Block4	2back/STIM_021.jpg	99
2274.218	0.386	385.9	2back	Block4	2back/STIM_022.jpg	100
2278.345	0.393	392.8	2back	Block4	2back/STIM_022.jpg	99
2282.391	0.588	587.5	2back	Block4	2back/STIM_022.jpg	100
2286.116	0.668	668.5	2back	Block4	2back/STIM_023.jpg	100
2289.243	0.444	443.7	2back	Block4	2back/STIM_023.jpg	100
2292.806	0.864	863.5	2back	Block4	2back/STIM_023.jpg	99
2297.059	0.889	888.7	2back	Block4	2back/STIM_024.jpg	99
2301.279	0.597	596.8	2back	Block4	2back/STIM_024.jpg	99
2305.878	0.892	892.0	2back	Block4	2back/STIM_024.jpg	100
2310.289	0.648	647.8	2back	Block4	2back/STIM_025.jpg	99
2313.163	0.585	585.3	2back	Block4	2back/STIM_025.jpg	100
2317.423	0.882	881.7	2back	Block4	2back/STIM_025.jpg	99
2321.422	0.716	715.7	2back	Block4	2back/STIM_026.jpg	99
2324.374	0.869	869.1	2back	Block4	2back/STIM_026.jpg	99
2328.425	0.756	756.0	2back	Block4	2back/STIM_026.jpg	99
2331.433	0.728	727.8	2back	Block4	2back/STIM_027.jpg	100
2335.749	0.551	551.0	2back	Block4	2back/STIM_027.jpg	100
2340.108	0.704	703.9	2back	Block4	2back/STIM_027.jpg	99
2343.407	0.87	870.0	2back	Block4	2back/STIM_028.jpg	99
2347.739	0.511	511.3	2back	Block4	2back/STIM_028.jpg	100
2351.871	0.438	438.4	2back	Block4	2back/STIM_028.jpg	100
2355.805	0.747	746.8	2back	Block4	2back/STIM_029.jpg	100
2359.995	0.473	472.6	2back	Block4	2back/STIM_029.jpg	100
2362.927	0.861	861.3	2back	Block4	2back/STIM_029.jpg	100
2367.281	0.482	482.4	2back	Block4	2back/STIM_030.jpg	99
2371.381	0.686	686.1	2back	Block4	2back/STIM_030.jpg	100
2374.664	0.646	646.4	2back	Block4	2back/STIM_030.jpg	100
2378.181	0.63	630.0	2back	Block4	2back/STIM_031.jpg	99
2381.685	0.804	804.4	2back	Block4	2back/STIM_031.jpg	99
2386.013	0.725	724.8	2back	Block4	2back/STIM_031.jpg	100
2388.893	0.867	867.0	2back	Block4	2back/STIM_032.jpg	100
2393.233	0.862	862.0	2back	Block4	2back/STIM_032.jpg	99
2397.552	0.841	841.3	2back	Block4	2back/STIM_032.jpg	100
2401.303	0.692	692.4	2back	Block4	2back/STIM_033.jpg	100
2404.324	0.425	425.3	2back	Block4	2back/STIM_033.jpg	99
2408.277	0.865	864.8	2back	Block4	2back/STIM_033.jpg	100
2412.875	0.855	855.1	2back	Block4	2back/STIM_034.jpg	99
2416.696	0.436	436.3	2back	Block4	2back/STIM_034.jpg	99
2419.219	0.59	589.6	2back	Block4	2back/STIM_034.jpg	99
2422.625	0.574	573.5	2back	Block4	2back/STIM_035.jpg	100
2427.005	0.589	589.1	2back	Block4	2back/STIM_035.jpg	99
2430.311	0.788	787.9	2back	Block4	2back/STIM_035.jpg	99
2434.846	0.404	404.3	2back	Block4	2back/STIM_036.jpg	100
2438.84	0.585	585.2	2back	Block4	2back/STIM_036.jpg	100
2442.322	0.78	779.7	2back	Block4	2back/STIM_036.jpg	100
2445.754	0.401	400.7	2back	Block4	2back/STIM_037.jpg	99
2449.465	0.885	885.0	2back	Block4	2back/STIM_037.jpg	99
2453.684	0.428	427.6	2back	Block4	2back/STIM_037.jpg	100
2457.979	0.42	419.8	2back	Block4	2back/STIM_038.jpg	99
2462.297	0.884	884.5	2back	Block4	2back/STIM_038.jpg	100
2466.2	0.554	554.4	2back	Block4	2back/STIM_038.jpg	100
2469.622	0.405	405.0	2back	Block4	2back/STIM_039.jpg	100
2473.9	0.516	516.0	2back	Block4	2back/STIM_039.jpg	99
2477.089	0.852	852.4	2back	Block4	2back/STIM_039.jpg	100
2480.321	0.607	607.2	0back	Block4	0back/STIM_000.jpg	99
2484.248	0.543	543.3	0back	Block4	0back/STIM_000.jpg	99
2488.432	0.381	380.9	0back	Block4	0back/STIM_000.jpg	100
2491.573	0.671	670.9	0back	Block4	0back/STIM_001.jpg	100
2495.725	0.454	453.5	0back	Block4	0back/STIM_001.jpg	100
2499.384	0.491	490.7	0back	Block4	0back/STIM_001.jpg	99
2502.525	0.429	429.4	0back	Block4	0back/STIM_002.jpg	99
2506.597	0.667	667.2	0back	Block4	0back/STIM_002.jpg	100
2509.5	0.731	731.4	0back	Block4	0back/STIM_002.jpg	99
2513.224	0.706	705.5	0back	Block4	0back/STIM_003.jpg	99
2517.63	0.485	484.8	0back	Block4	0back/STIM_003.jpg	99
2521.797	0.587	586.7	0back	Block4	0back/STIM_003.jpg	100
2524.558	0.538	537.9	0back	Block4	0back/STIM_004.jpg	99
2528.643	0.641	641.0	0back	Block4	0back/STIM_004.jpg	99
2532.077	0.505	505.5	0back	Block4	0back/STIM_004.jpg	99
2535.178	0.49	490.1	0back	Block4	0back/STIM_005.jpg	99
2539.539	0.708	707.6	0back	Block4	0back/STIM_005.jpg	99
2542.672	0.499	499.2	0back	Block4	0back/STIM_005.jpg	100
2546.515	0.57	569.6	0back	Block4	0back/STIM_006.jpg	100
2549.539	0.436	435.5	0back	Block4	0back/STIM_006.jpg	100
2553.461	0.399	398.8	0back	Block4	0back/STIM_006.jpg	100
2556.537	0.522	521.5	0back	Block4	0back/STIM_007.jpg	99
2560.552	0.382	382.0	0back	Block4	0back/STIM_007.jpg	100
2563.186	0.529	529.3	0back	Block4	0back/STIM_007.jpg	99
2566.554	0.578	577.9	0back	Block4	0back/STIM_008.jpg	100
2571.148	0.52	520.1	0back	Block4	0back/STIM_008.jpg	99
2574.554	0.442	442.0	0back	Block4	0back/STIM_008.jpg	100
2578.983	0.637	637.1	0back	Block4	0back/STIM_009.jpg	100
2582.413	0.444	443.6	0back	Block4	0back/STIM_009.jpg	99
2586.04	0.376	376.5	0back	Block4	0back/STIM_009.jpg	99
2590.284	0.56	559.7	0back	Block4	0back/STIM_010.jpg	99
2593.589	0.379	378.6	0back	Block4	0back/STIM_010.jpg	99
2597.572	0.477	476.8	0back	Block4	0back/STIM_010.jpg	99
2600.584	0.43	429.9	0back	Block4	0back/STIM_011.jpg	99
2604.104	0.623	622.9	0back	Block4	0back/STIM_011.jpg	99
2607.921	0.706	705.5	0back	Block4	0back/STIM_011.jpg	100
2611.107	0.52	519.5	0back	Block4	0back/STIM_012.jpg	100
2614.894	0.666	666.0	0back	Block4	0back/STIM_012.jpg	99
2618.035	0.372	372.2	0back	Block4	0back/STIM_012.jpg	100
2620.724	0.547	547.2	0back	Block4	0back/STIM_013.jpg	99
2624.944	0.42	419.6	0back	Block4	0back/STIM_013.jpg	100
2628.087	0.581	581.3	0back	Block4	0back/STIM_013.jpg	99
2631.999	0.538	537.8	0back	Block4	0back/STIM_014.jpg	100
2635.204	0.502	502.0	0back	Block4	0back/STIM_014.jpg	100
2639.584	0.461	460.7	0back	Block4	0back/STIM_014.jpg	100
2642.149	0.644	643.9	0back	Block4	0back/STIM_015.jpg	100
2645.074	0.597	597.2	0back	Block4	0back/STIM_015.jpg	99
2648.823	0.682	681.8	0back	Block4	0back/STIM_015.jpg	99
2651.837	0.582	582.5	0back	Block4	0back/STIM_016.jpg	100
2655.32	0.58	580.4	0back	Block4	0back/STIM_016.jpg	100
2658.154	0.412	411.9	0back	Block4	0back/STIM_016.jpg	100
2662.271	0.624	623.8	0back	Block4	0back/STIM_017.jpg	100
2666.363	0.495	494.7	0back	Block4	0back/STIM_017.jpg	100
2669.413	0.668	668.0	0back	Block4	0back/STIM_017.jpg	99
2673.942	0.445	444.8	0back	Block4	0back/STIM_018.jpg	99
2677.944	0.524	523.9	0back	Block4	0back/STIM_018.jpg	99
2681.544	0.619	619.4	0back	Block4	0back/STIM_018.jpg	100
2685.958	0.585	585.3	0back	Block4	0back/STIM_019.jpg	100
2689.455	0.43	430.0	0back	Block4	0back/STIM_019.jpg	100
2692.691	0.421	420.9	0back	Block4	0back/STIM_019.jpg	99
