onset	duration	accuracy	trial_type	learning_stage	stimulus
0.0	0.611	incorrect	2back	Block1	2back/STIM_000.jpg
3.041	0.669	correct	2back	Block1	2back/STIM_000.jpg
6.517	1.107	correct	2back	Block1	2back/STIM_000.jpg
11.3	0.984	correct	2back	Block1	2back/STIM_001.jpg
16.13	0.742	correct	2back	Block1	2back/STIM_001.jpg
20.056	1.108	correct	2back	Block1	2back/STIM_001.jpg
23.94	0.722	correct	2back	Block1	2back/STIM_002.jpg
28.242	0.755	correct	2back	Block1	2back/STIM_002.jpg
32.518	0.544	incorrect	2back	Block1	2back/STIM_002.jpg
35.243	0.877	correct	2back	Block1	2back/STIM_003.jpg
39.951	0.574	correct	2back	Block1	2back/STIM_003.jpg
44.252	0.985	correct	2back	Block1	2back/STIM_003.jpg
48.473	0.638	incorrect	2back	Block1	2back/STIM_004.jpg
52.038	0.828	correct	2back	Block1	2back/STIM_004.jpg
55.974	0.514	correct	2back	Block1	2back/STIM_004.jpg
58.538	1.19	incorrect	2back	Block1	2back/STIM_005.jpg
63.739	1.132	correct	2back	Block1	2back/STIM_005.jpg
67.577	0.941	correct	2back	Block1	2back/STIM_005.jpg
72.589	0.647	incorrect	2back	Block1	2back/STIM_006.jpg
76.382	0.909	correct	2back	Block1	2back/STIM_006.jpg
81.039	0.898	incorrect	2back	Block1	2back/STIM_006.jpg
85.913	1.25	correct	2back	Block1	2back/STIM_007.jpg
89.797	0.755	correct	2back	Block1	2back/STIM_007.jpg
94.481	0.703	correct	2back	Block1	2back/STIM_007.jpg
98.052	1.282	correct	2back	Block1	2back/STIM_008.jpg
102.589	0.796	incorrect	2back	Block1	2back/STIM_008.jpg
107.157	0.96	correct	2back	Block1	2back/STIM_008.jpg
111.713	1.07	correct	2back	Block1	2back/STIM_009.jpg
114.962	1.123	correct	2back	Block1	2back/STIM_009.jpg
119.135	1.064	correct	2back	Block1	2back/STIM_009.jpg
122.984	0.569	correct	2back	Block1	2back/STIM_010.jpg
125.718	1.064	correct	2back	Block1	2back/STIM_010.jpg
130.017	1.084	incorrect	2back	Block1	2back/STIM_010.jpg
135.144	1.116	correct	2back	Block1	2back/STIM_011.jpg
138.675	0.805	correct	2back	Block1	2back/STIM_011.jpg
142.912	0.594	correct	2back	Block1	2back/STIM_011.jpg
146.196	1.244	incorrect	2back	Block1	2back/STIM_012.jpg
151.077	1.154	correct	2back	Block1	2back/STIM_012.jpg
156.107	0.821	correct	2back	Block1	2back/STIM_012.jpg
160.844	1.185	correct	2back	Block1	2back/STIM_013.jpg
165.702	0.767	correct	2back	Block1	2back/STIM_013.jpg
170.181	1.122	correct	2back	Block1	2back/STIM_013.jpg
173.899	1.107	correct	2back	Block1	2back/STIM_014.jpg
178.186	1.191	correct	2back	Block1	2back/STIM_014.jpg
182.678	0.542	correct	2back	Block1	2back/STIM_014.jpg
185.853	0.74	correct	2back	Block1	2back/STIM_015.jpg
188.884	0.831	correct	2back	Block1	2back/STIM_015.jpg
192.255	0.95	incorrect	2back	Block1	2back/STIM_015.jpg
195.697	1.089	correct	2back	Block1	2back/STIM_016.jpg
199.301	1.008	correct	2back	Block1	2back/STIM_016.jpg
202.744	0.616	correct	2back	Block1	2back/STIM_016.jpg
207.411	1.26	correct	2back	Block1	2back/STIM_017.jpg
211.001	0.833	correct	2back	Block1	2back/STIM_017.jpg
215.495	0.656	correct	2back	Block1	2back/STIM_017.jpg
218.249	0.92	correct	2back	Block1	2back/STIM_018.jpg
221.59	0.734	correct	2back	Block1	2back/STIM_018.jpg
226.186	0.932	correct	2back	Block1	2back/STIM_018.jpg
229.523	1.23	correct	2back	Block1	2back/STIM_019.jpg
233.491	0.897	correct	2back	Block1	2back/STIM_019.jpg
237.306	0.745	correct	2back	Block1	2back/STIM_019.jpg
240.184	0.904	correct	2back	Block1	2back/STIM_020.jpg
244.595	1.069	correct	2back	Block1	2back/STIM_020.jpg
248.172	0.554	correct	2back	Block1	2back/STIM_020.jpg
251.163	0.67	correct	2back	Block1	2back/STIM_021.jpg
254.641	0.794	correct	2back	Block1	2back/STIM_021.jpg
258.281	0.611	correct	2back	Block1	2back/STIM_021.jpg
261.453	1.252	correct	2back	Block1	2back/STIM_022.jpg
265.073	1.198	correct	2back	Block1	2back/STIM_022.jpg
269.77	1.07	correct	2back	Block1	2back/STIM_022.jpg
273.354	0.964	correct	2back	Block1	2back/STIM_023.jpg
276.463	1.079	correct	2back	Block1	2back/STIM_023.jpg
279.996	0.584	correct	2back	Block1	2back/STIM_023.jpg
283.376	1.212	correct	2back	Block1	2back/STIM_024.jpg
288.063	1.017	correct	2back	Block1	2back/STIM_024.jpg
292.655	1.089	correct	2back	Block1	2back/STIM_024.jpg
296.824	0.619	correct	2back	Block1	2back/STIM_025.jpg
301.128	0.608	correct	2back	Block1	2back/STIM_025.jpg
303.982	0.552	correct	2back	Block1	2back/STIM_025.jpg
306.977	0.906	correct	2back	Block1	2back/STIM_026.jpg
310.468	0.841	correct	2back	Block1	2back/STIM_026.jpg
314.744	0.712	correct	2back	Block1	2back/STIM_026.jpg
317.934	0.624	correct	2back	Block1	2back/STIM_027.jpg
322.11	1.108	correct	2back	Block1	2back/STIM_027.jpg
325.325	0.586	correct	2back	Block1	2back/STIM_027.jpg
328.214	0.885	correct	2back	Block1	2back/STIM_028.jpg
332.342	0.527	correct	2back	Block1	2back/STIM_028.jpg
334.964	1.052	correct	2back	Block1	2back/STIM_028.jpg
339.003	1.211	correct	2back	Block1	2back/STIM_029.jpg
344.279	1.215	incorrect	2back	Block1	2back/STIM_029.jpg
349.45	0.918	correct	2back	Block1	2back/STIM_029.jpg
353.905	0.854	correct	2back	Block1	2back/STIM_030.jpg
358.389	1.061	correct	2back	Block1	2back/STIM_030.jpg
362.715	1.123	incorrect	2back	Block1	2back/STIM_030.jpg
366.657	0.833	correct	2back	Block1	2back/STIM_031.jpg
370.031	1.031	correct	2back	Block1	2back/STIM_031.jpg
375.016	0.913	correct	2back	Block1	2back/STIM_031.jpg
378.432	0.868	correct	2back	Block1	2back/STIM_032.jpg
381.826	0.795	correct	2back	Block1	2back/STIM_032.jpg
384.78	0.681	correct	2back	Block1	2back/STIM_032.jpg
389.224	0.819	correct	2back	Block1	2back/STIM_033.jpg
393.624	1.014	correct	2back	Block1	2back/STIM_033.jpg
397.714	0.588	correct	2back	Block1	2back/STIM_033.jpg
402.042	0.895	incorrect	2back	Block1	2back/STIM_034.jpg
406.202	1.037	correct	2back	Block1	2back/STIM_034.jpg
410.35	0.935	correct	2back	Block1	2back/STIM_034.jpg
415.005	1.277	correct	2back	Block1	2back/STIM_035.jpg
419.673	1.035	correct	2back	Block1	2back/STIM_035.jpg
422.885	0.707	correct	2back	Block1	2back/STIM_035.jpg
427.152	1.26	correct	2back	Block1	2back/STIM_036.jpg
430.699	0.955	correct	2back	Block1	2back/STIM_036.jpg
434.07	0.702	correct	2back	Block1	2back/STIM_036.jpg
438.52	1.169	correct	2back	Block1	2back/STIM_037.jpg
442.886	0.578	correct	2back	Block1	2back/STIM_037.jpg
447.108	0.843	correct	2back	Block1	2back/STIM_037.jpg
451.303	1.06	incorrect	2back	Block1	2back/STIM_038.jpg
456.397	0.893	incorrect	2back	Block1	2back/STIM_038.jpg
460.053	0.8	correct	2back	Block1	2back/STIM_038.jpg
464.349	0.986	correct	2back	Block1	2back/STIM_039.jpg
469.113	1.187	correct	2back	Block1	2back/STIM_039.jpg
474.323	1.033	correct	2back	Block1	2back/STIM_039.jpg
479.161	0.681	correct	0back	Block1	0back/STIM_000.jpg
482.756	0.71	correct	0back	Block1	0back/STIM_000.jpg
486.996	0.587	correct	0back	Block1	0back/STIM_000.jpg
489.838	0.469	correct	0back	Block1	0back/STIM_001.jpg
492.422	0.702	correct	0back	Block1	0back/STIM_001.jpg
497.005	0.459	correct	0back	Block1	0back/STIM_001.jpg
501.16	0.528	incorrect	0back	Block1	0back/STIM_002.jpg
503.956	0.618	correct	0back	Block1	0back/STIM_002.jpg
506.771	0.506	correct	0back	Block1	0back/STIM_002.jpg
509.401	0.707	correct	0back	Block1	0back/STIM_003.jpg
513.398	0.517	correct	0back	Block1	0back/STIM_003.jpg
517.664	0.393	correct	0back	Block1	0back/STIM_003.jpg
521.365	0.432	correct	0back	Block1	0back/STIM_004.jpg
525.326	0.449	correct	0back	Block1	0back/STIM_004.jpg
528.66	0.482	correct	0back	Block1	0back/STIM_004.jpg
532.957	0.628	incorrect	0back	Block1	0back/STIM_005.jpg
536.643	0.618	correct	0back	Block1	0back/STIM_005.jpg
540.433	0.624	correct	0back	Block1	0back/STIM_005.jpg
543.679	0.395	correct	0back	Block1	0back/STIM_006.jpg
548.062	0.456	correct	0back	Block1	0back/STIM_006.jpg
552.286	0.626	correct	0back	Block1	0back/STIM_006.jpg
555.788	0.414	correct	0back	Block1	0back/STIM_007.jpg
558.436	0.691	correct	0back	Block1	0back/STIM_007.jpg
562.862	0.671	correct	0back	Block1	0back/STIM_007.jpg
567.364	0.59	correct	0back	Block1	0back/STIM_008.jpg
571.115	0.393	correct	0back	Block1	0back/STIM_008.jpg
573.751	0.662	correct	0back	Block1	0back/STIM_008.jpg
577.156	0.722	incorrect	0back	Block1	0back/STIM_009.jpg
580.173	0.606	correct	0back	Block1	0back/STIM_009.jpg
584.82	0.657	correct	0back	Block1	0back/STIM_009.jpg
589.144	0.558	correct	0back	Block1	0back/STIM_010.jpg
592.293	0.38	correct	0back	Block1	0back/STIM_010.jpg
595.544	0.521	correct	0back	Block1	0back/STIM_010.jpg
599.015	0.646	correct	0back	Block1	0back/STIM_011.jpg
602.054	0.669	correct	0back	Block1	0back/STIM_011.jpg
606.222	0.443	correct	0back	Block1	0back/STIM_011.jpg
609.381	0.684	correct	0back	Block1	0back/STIM_012.jpg
613.99	0.402	correct	0back	Block1	0back/STIM_012.jpg
618.234	0.672	correct	0back	Block1	0back/STIM_012.jpg
621.649	0.528	correct	0back	Block1	0back/STIM_013.jpg
624.92	0.713	correct	0back	Block1	0back/STIM_013.jpg
629.284	0.597	correct	0back	Block1	0back/STIM_013.jpg
633.447	0.483	correct	0back	Block1	0back/STIM_014.jpg
637.648	0.375	correct	0back	Block1	0back/STIM_014.jpg
641.005	0.657	incorrect	0back	Block1	0back/STIM_014.jpg
645.354	0.5	correct	0back	Block1	0back/STIM_015.jpg
648.043	0.524	correct	0back	Block1	0back/STIM_015.jpg
650.938	0.384	correct	0back	Block1	0back/STIM_015.jpg
654.82	0.529	correct	0back	Block1	0back/STIM_016.jpg
658.223	0.709	correct	0back	Block1	0back/STIM_016.jpg
662.655	0.697	correct	0back	Block1	0back/STIM_016.jpg
667.066	0.491	correct	0back	Block1	0back/STIM_017.jpg
669.737	0.506	correct	0back	Block1	0back/STIM_017.jpg
673.429	0.464	correct	0back	Block1	0back/STIM_017.jpg
676.392	0.724	correct	0back	Block1	0back/STIM_018.jpg
680.837	0.572	correct	0back	Block1	0back/STIM_018.jpg
685.362	0.674	correct	0back	Block1	0back/STIM_018.jpg
688.444	0.4	correct	0back	Block1	0back/STIM_019.jpg
691.934	0.562	correct	0back	Block1	0back/STIM_019.jpg
694.605	0.392	correct	0back	Block1	0back/STIM_019.jpg
697.352	0.628	correct	2back	Block2	2back/STIM_000.jpg
700.14	0.656	correct	2back	Block2	2back/STIM_000.jpg
702.965	0.839	correct	2back	Block2	2back/STIM_000.jpg
707.683	1.018	correct	2back	Block2	2back/STIM_001.jpg
711.91	0.598	correct	2back	Block2	2back/STIM_001.jpg
715.927	0.666	correct	2back	Block2	2back/STIM_001.jpg
720.256	0.948	correct	2back	Block2	2back/STIM_002.jpg
724.54	0.45	correct	2back	Block2	2back/STIM_002.jpg
728.768	0.909	correct	2back	Block2	2back/STIM_002.jpg
733.62	0.866	correct	2back	Block2	2back/STIM_003.jpg
737.09	0.785	correct	2back	Block2	2back/STIM_003.jpg
741.88	0.436	correct	2back	Block2	2back/STIM_003.jpg
745.736	0.67	correct	2back	Block2	2back/STIM_004.jpg
748.609	0.65	correct	2back	Block2	2back/STIM_004.jpg
752.642	0.927	correct	2back	Block2	2back/STIM_004.jpg
755.866	0.839	correct	2back	Block2	2back/STIM_005.jpg
759.251	0.932	incorrect	2back	Block2	2back/STIM_005.jpg
763.971	0.655	correct	2back	Block2	2back/STIM_005.jpg
767.171	0.829	correct	2back	Block2	2back/STIM_006.jpg
770.801	1.026	correct	2back	Block2	2back/STIM_006.jpg
773.996	0.428	correct	2back	Block2	2back/STIM_006.jpg
778.195	0.831	correct	2back	Block2	2back/STIM_007.jpg
782.856	1.024	correct	2back	Block2	2back/STIM_007.jpg
786.003	0.907	correct	2back	Block2	2back/STIM_007.jpg
789.162	0.928	correct	2back	Block2	2back/STIM_008.jpg
793.535	0.903	correct	2back	Block2	2back/STIM_008.jpg
797.069	0.784	correct	2back	Block2	2back/STIM_008.jpg
801.598	0.787	correct	2back	Block2	2back/STIM_009.jpg
806.235	0.711	correct	2back	Block2	2back/STIM_009.jpg
809.513	0.418	correct	2back	Block2	2back/STIM_009.jpg
813.571	0.728	correct	2back	Block2	2back/STIM_010.jpg
818.107	0.771	incorrect	2back	Block2	2back/STIM_010.jpg
821.695	0.754	correct	2back	Block2	2back/STIM_010.jpg
825.158	0.769	correct	2back	Block2	2back/STIM_011.jpg
828.429	0.647	correct	2back	Block2	2back/STIM_011.jpg
831.855	0.577	correct	2back	Block2	2back/STIM_011.jpg
835.839	0.856	correct	2back	Block2	2back/STIM_012.jpg
840.114	0.744	correct	2back	Block2	2back/STIM_012.jpg
843.639	0.875	correct	2back	Block2	2back/STIM_012.jpg
847.072	0.926	correct	2back	Block2	2back/STIM_013.jpg
851.3	0.871	correct	2back	Block2	2back/STIM_013.jpg
855.824	0.783	incorrect	2back	Block2	2back/STIM_013.jpg
859.911	0.612	correct	2back	Block2	2back/STIM_014.jpg
863.399	0.943	correct	2back	Block2	2back/STIM_014.jpg
867.091	0.501	correct	2back	Block2	2back/STIM_014.jpg
871.514	0.478	correct	2back	Block2	2back/STIM_015.jpg
875.188	0.72	correct	2back	Block2	2back/STIM_015.jpg
879.203	0.539	correct	2back	Block2	2back/STIM_015.jpg
882.47	0.95	correct	2back	Block2	2back/STIM_016.jpg
887.138	0.78	correct	2back	Block2	2back/STIM_016.jpg
891.208	0.932	correct	2back	Block2	2back/STIM_016.jpg
895.202	0.913	correct	2back	Block2	2back/STIM_017.jpg
899.176	0.769	correct	2back	Block2	2back/STIM_017.jpg
903.303	0.496	correct	2back	Block2	2back/STIM_017.jpg
906.88	0.833	correct	2back	Block2	2back/STIM_018.jpg
910.227	0.712	correct	2back	Block2	2back/STIM_018.jpg
913.214	0.869	correct	2back	Block2	2back/STIM_018.jpg
917.546	0.944	correct	2back	Block2	2back/STIM_019.jpg
921.081	0.99	correct	2back	Block2	2back/STIM_019.jpg
925.913	0.681	correct	2back	Block2	2back/STIM_019.jpg
930.264	0.716	correct	2back	Block2	2back/STIM_020.jpg
934.696	0.48	incorrect	2back	Block2	2back/STIM_020.jpg
938.191	0.909	correct	2back	Block2	2back/STIM_020.jpg
943.08	0.693	correct	2back	Block2	2back/STIM_021.jpg
947.719	0.448	correct	2back	Block2	2back/STIM_021.jpg
951.72	0.907	correct	2back	Block2	2back/STIM_021.jpg
956.678	0.658	correct	2back	Block2	2back/STIM_022.jpg
959.973	0.786	correct	2back	Block2	2back/STIM_022.jpg
963.058	0.417	correct	2back	Block2	2back/STIM_022.jpg
966.98	0.913	correct	2back	Block2	2back/STIM_023.jpg
971.202	0.467	correct	2back	Block2	2back/STIM_023.jpg
974.78	0.605	incorrect	2back	Block2	2back/STIM_023.jpg
978.436	0.986	correct	2back	Block2	2back/STIM_024.jpg
982.934	0.821	correct	2back	Block2	2back/STIM_024.jpg
987.647	0.898	correct	2back	Block2	2back/STIM_024.jpg
991.763	0.648	correct	2back	Block2	2back/STIM_025.jpg
994.887	0.933	correct	2back	Block2	2back/STIM_025.jpg
998.36	0.746	correct	2back	Block2	2back/STIM_025.jpg
1001.192	0.685	incorrect	2back	Block2	2back/STIM_026.jpg
1004.225	0.761	incorrect	2back	Block2	2back/STIM_026.jpg
1007.468	0.666	correct	2back	Block2	2back/STIM_026.jpg
1010.939	0.535	correct	2back	Block2	2back/STIM_027.jpg
1014.448	0.448	correct	2back	Block2	2back/STIM_027.jpg
1017.313	0.716	incorrect	2back	Block2	2back/STIM_027.jpg
1021.786	0.646	correct	2back	Block2	2back/STIM_028.jpg
1025.146	0.975	correct	2back	Block2	2back/STIM_028.jpg
1028.667	0.672	correct	2back	Block2	2back/STIM_028.jpg
1033.054	0.718	correct	2back	Block2	2back/STIM_029.jpg
1036.011	0.678	correct	2back	Block2	2back/STIM_029.jpg
1040.621	0.474	correct	2back	Block2	2back/STIM_029.jpg
1043.723	0.87	correct	2back	Block2	2back/STIM_030.jpg
1048.411	0.657	correct	2back	Block2	2back/STIM_030.jpg
1052.03	0.812	incorrect	2back	Block2	2back/STIM_030.jpg
1055.952	0.885	correct	2back	Block2	2back/STIM_031.jpg
1059.976	0.482	correct	2back	Block2	2back/STIM_031.jpg
1063.619	0.827	correct	2back	Block2	2back/STIM_031.jpg
1066.784	0.602	correct	2back	Block2	2back/STIM_032.jpg
1070.951	0.875	correct	2back	Block2	2back/STIM_032.jpg
1075.189	0.896	correct	2back	Block2	2back/STIM_032.jpg
1078.444	0.675	correct	2back	Block2	2back/STIM_033.jpg
1082.456	0.978	correct	2back	Block2	2back/STIM_033.jpg
1087.065	0.837	correct	2back	Block2	2back/STIM_033.jpg
1091.369	0.652	correct	2back	Block2	2back/STIM_034.jpg
1094.797	0.603	correct	2back	Block2	2back/STIM_034.jpg
1098.064	0.767	correct	2back	Block2	2back/STIM_034.jpg
1101.839	0.96	correct	2back	Block2	2back/STIM_035.jpg
1106.652	0.641	correct	2back	Block2	2back/STIM_035.jpg
1109.388	0.484	correct	2back	Block2	2back/STIM_035.jpg
1113.412	0.79	correct	2back	Block2	2back/STIM_036.jpg
1117.152	0.485	incorrect	2back	Block2	2back/STIM_036.jpg
1120.91	0.661	correct	2back	Block2	2back/STIM_036.jpg
1125.626	0.526	correct	2back	Block2	2back/STIM_037.jpg
1129.045	0.72	incorrect	2back	Block2	2back/STIM_037.jpg
1133.523	0.494	correct	2back	Block2	2back/STIM_037.jpg
1136.26	0.72	correct	2back	Block2	2back/STIM_038.jpg
1140.694	0.951	correct	2back	Block2	2back/STIM_038.jpg
1145.564	0.451	correct	2back	Block2	2back/STIM_038.jpg
1148.388	0.745	correct	2back	Block2	2back/STIM_039.jpg
1153.07	0.477	correct	2back	Block2	2back/STIM_039.jpg
1157.088	0.615	correct	2back	Block2	2back/STIM_039.jpg
1159.844	0.551	correct	0back	Block2	0back/STIM_000.jpg
1164.409	0.732	correct	0back	Block2	0back/STIM_000.jpg
1168.828	0.368	correct	0back	Block2	0back/STIM_000.jpg
1173.173	0.527	correct	0back	Block2	0back/STIM_001.jpg
1176.627	0.703	correct	0back	Block2	0back/STIM_001.jpg
1179.842	0.726	correct	0back	Block2	0back/STIM_001.jpg
1184.618	0.561	correct	0back	Block2	0back/STIM_002.jpg
1187.561	0.607	correct	0back	Block2	0back/STIM_002.jpg
1191.661	0.534	correct	0back	Block2	0back/STIM_002.jpg
1196.178	0.574	correct	0back	Block2	0back/STIM_003.jpg
1199.85	0.374	correct	0back	Block2	0back/STIM_003.jpg
1202.262	0.444	correct	0back	Block2	0back/STIM_003.jpg
1206.57	0.719	correct	0back	Block2	0back/STIM_004.jpg
1210.313	0.456	correct	0back	Block2	0back/STIM_004.jpg
1213.213	0.416	correct	0back	Block2	0back/STIM_004.jpg
1215.788	0.456	correct	0back	Block2	0back/STIM_005.jpg
1218.72	0.691	correct	0back	Block2	0back/STIM_005.jpg
1222.385	0.684	correct	0back	Block2	0back/STIM_005.jpg
1225.672	0.635	correct	0back	Block2	0back/STIM_006.jpg
1229.935	0.683	correct	0back	Block2	0back/STIM_006.jpg
1233.843	0.382	correct	0back	Block2	0back/STIM_006.jpg
1237.264	0.682	correct	0back	Block2	0back/STIM_007.jpg
1240.201	0.584	correct	0back	Block2	0back/STIM_007.jpg
1243.273	0.511	correct	0back	Block2	0back/STIM_007.jpg
1246.483	0.381	correct	0back	Block2	0back/STIM_008.jpg
1249.158	0.472	correct	0back	Block2	0back/STIM_008.jpg
1251.682	0.713	correct	0back	Block2	0back/STIM_008.jpg
1255.294	0.624	correct	0back	Block2	0back/STIM_009.jpg
1258.608	0.597	correct	0back	Block2	0back/STIM_009.jpg
1263.111	0.481	correct	0back	Block2	0back/STIM_009.jpg
1265.683	0.518	correct	0back	Block2	0back/STIM_010.jpg
1268.711	0.67	correct	0back	Block2	0back/STIM_010.jpg
1272.162	0.426	correct	0back	Block2	0back/STIM_010.jpg
1274.692	0.388	correct	0back	Block2	0back/STIM_011.jpg
1278.189	0.606	correct	0back	Block2	0back/STIM_011.jpg
1281.205	0.488	correct	0back	Block2	0back/STIM_011.jpg
1285.239	0.512	correct	0back	Block2	0back/STIM_012.jpg
1289.067	0.385	correct	0back	Block2	0back/STIM_012.jpg
1292.474	0.464	correct	0back	Block2	0back/STIM_012.jpg
1296.654	0.539	correct	0back	Block2	0back/STIM_013.jpg
1301.233	0.706	correct	0back	Block2	0back/STIM_013.jpg
1305.529	0.53	correct	0back	Block2	0back/STIM_013.jpg
1309.415	0.619	incorrect	0back	Block2	0back/STIM_014.jpg
1313.359	0.393	correct	0back	Block2	0back/STIM_014.jpg
1316.116	0.672	correct	0back	Block2	0back/STIM_014.jpg
1319.38	0.659	incorrect	0back	Block2	0back/STIM_015.jpg
1322.269	0.598	correct	0back	Block2	0back/STIM_015.jpg
1325.364	0.7	correct	0back	Block2	0back/STIM_015.jpg
1328.768	0.687	correct	0back	Block2	0back/STIM_016.jpg
1333.213	0.514	correct	0back	Block2	0back/STIM_016.jpg
1335.778	0.474	correct	0back	Block2	0back/STIM_016.jpg
1338.389	0.695	correct	0back	Block2	0back/STIM_017.jpg
1343.086	0.656	correct	0back	Block2	0back/STIM_017.jpg
1347.283	0.619	correct	0back	Block2	0back/STIM_017.jpg
1351.683	0.6	correct	0back	Block2	0back/STIM_018.jpg
1355.201	0.369	correct	0back	Block2	0back/STIM_018.jpg
1357.725	0.512	correct	0back	Block2	0back/STIM_018.jpg
1361.675	0.639	correct	0back	Block2	0back/STIM_019.jpg
1366.269	0.712	correct	0back	Block2	0back/STIM_019.jpg
1370.03	0.422	correct	0back	Block2	0back/STIM_019.jpg
1373.031	0.872	correct	2back	Block3	2back/STIM_000.jpg
1376.95	0.623	correct	2back	Block3	2back/STIM_000.jpg
1381.484	0.442	correct	2back	Block3	2back/STIM_000.jpg
1385.691	0.645	correct	2back	Block3	2back/STIM_001.jpg
1389.965	0.424	correct	2back	Block3	2back/STIM_001.jpg
1393.689	0.877	incorrect	2back	Block3	2back/STIM_001.jpg
1397.817	0.47	correct	2back	Block3	2back/STIM_002.jpg
1401.147	0.576	correct	2back	Block3	2back/STIM_002.jpg
1404.607	0.891	correct	2back	Block3	2back/STIM_002.jpg
1408.429	0.71	incorrect	2back	Block3	2back/STIM_003.jpg
1411.727	0.486	correct	2back	Block3	2back/STIM_003.jpg
1415.843	0.828	correct	2back	Block3	2back/STIM_003.jpg
1419.227	0.633	correct	2back	Block3	2back/STIM_004.jpg
1422.091	0.496	correct	2back	Block3	2back/STIM_004.jpg
1426.153	0.534	correct	2back	Block3	2back/STIM_004.jpg
1430.684	0.726	correct	2back	Block3	2back/STIM_005.jpg
1434.397	0.884	correct	2back	Block3	2back/STIM_005.jpg
1438.925	0.646	correct	2back	Block3	2back/STIM_005.jpg
1442.55	0.875	correct	2back	Block3	2back/STIM_006.jpg
1446.891	0.691	correct	2back	Block3	2back/STIM_006.jpg
1450.108	0.559	correct	2back	Block3	2back/STIM_006.jpg
1454.583	0.55	correct	2back	Block3	2back/STIM_007.jpg
1457.585	0.831	correct	2back	Block3	2back/STIM_007.jpg
1460.931	0.897	correct	2back	Block3	2back/STIM_007.jpg
1465.746	0.735	correct	2back	Block3	2back/STIM_008.jpg
1470.013	0.474	correct	2back	Block3	2back/STIM_008.jpg
1474.465	0.512	correct	2back	Block3	2back/STIM_008.jpg
1478.678	0.727	correct	2back	Block3	2back/STIM_009.jpg
1482.053	0.575	correct	2back	Block3	2back/STIM_009.jpg
1485.743	0.88	correct	2back	Block3	2back/STIM_009.jpg
1490.112	0.565	correct	2back	Block3	2back/STIM_010.jpg
1493.541	0.394	correct	2back	Block3	2back/STIM_010.jpg
1497.847	0.421	correct	2back	Block3	2back/STIM_010.jpg
1500.456	0.828	correct	2back	Block3	2back/STIM_011.jpg
1503.468	0.565	correct	2back	Block3	2back/STIM_011.jpg
1507.672	0.74	correct	2back	Block3	2back/STIM_011.jpg
1511.045	0.497	correct	2back	Block3	2back/STIM_012.jpg
1514.122	0.739	incorrect	2back	Block3	2back/STIM_012.jpg
1518.235	0.619	correct	2back	Block3	2back/STIM_012.jpg
1521.071	0.47	correct	2back	Block3	2back/STIM_013.jpg
1523.907	0.679	correct	2back	Block3	2back/STIM_013.jpg
1527.722	0.551	correct	2back	Block3	2back/STIM_013.jpg
1531.07	0.575	incorrect	2back	Block3	2back/STIM_014.jpg
1534.551	0.576	correct	2back	Block3	2back/STIM_014.jpg
1537.539	0.605	correct	2back	Block3	2back/STIM_014.jpg
1541.473	0.448	correct	2back	Block3	2back/STIM_015.jpg
1544.078	0.49	correct	2back	Block3	2back/STIM_015.jpg
1547.905	0.632	correct	2back	Block3	2back/STIM_015.jpg
1551.475	0.713	correct	2back	Block3	2back/STIM_016.jpg
1555.883	0.818	correct	2back	Block3	2back/STIM_016.jpg
1558.919	0.77	correct	2back	Block3	2back/STIM_016.jpg
1562.077	0.673	correct	2back	Block3	2back/STIM_017.jpg
1566.487	0.498	correct	2back	Block3	2back/STIM_017.jpg
1570.789	0.858	correct	2back	Block3	2back/STIM_017.jpg
1573.797	0.733	correct	2back	Block3	2back/STIM_018.jpg
1578.358	0.7	correct	2back	Block3	2back/STIM_018.jpg
1582.275	0.864	correct	2back	Block3	2back/STIM_018.jpg
1586.868	0.589	correct	2back	Block3	2back/STIM_019.jpg
1590.088	0.794	correct	2back	Block3	2back/STIM_019.jpg
1593.322	0.396	correct	2back	Block3	2back/STIM_019.jpg
1597.481	0.815	correct	2back	Block3	2back/STIM_020.jpg
1601.933	0.687	correct	2back	Block3	2back/STIM_020.jpg
1604.849	0.415	correct	2back	Block3	2back/STIM_020.jpg
1607.897	0.486	correct	2back	Block3	2back/STIM_021.jpg
1611.263	0.472	correct	2back	Block3	2back/STIM_021.jpg
1615.529	0.702	correct	2back	Block3	2back/STIM_021.jpg
1618.923	0.499	correct	2back	Block3	2back/STIM_022.jpg
1621.669	0.589	correct	2back	Block3	2back/STIM_022.jpg
1626.156	0.897	correct	2back	Block3	2back/STIM_022.jpg
1629.478	0.515	correct	2back	Block3	2back/STIM_023.jpg
1633.595	0.554	correct	2back	Block3	2back/STIM_023.jpg
1638.112	0.581	correct	2back	Block3	2back/STIM_023.jpg
1640.763	0.67	correct	2back	Block3	2back/STIM_024.jpg
1644.993	0.728	incorrect	2back	Block3	2back/STIM_024.jpg
1648.976	0.413	correct	2back	Block3	2back/STIM_024.jpg
1652.532	0.519	correct	2back	Block3	2back/STIM_025.jpg
1656.941	0.676	correct	2back	Block3	2back/STIM_025.jpg
1661.167	0.562	correct	2back	Block3	2back/STIM_025.jpg
1665.095	0.71	correct	2back	Block3	2back/STIM_026.jpg
1668.673	0.828	correct	2back	Block3	2back/STIM_026.jpg
1671.698	0.888	correct	2back	Block3	2back/STIM_026.jpg
1676.625	0.844	correct	2back	Block3	2back/STIM_027.jpg
1679.604	0.757	correct	2back	Block3	2back/STIM_027.jpg
1682.973	0.589	correct	2back	Block3	2back/STIM_027.jpg
1686.959	0.423	correct	2back	Block3	2back/STIM_028.jpg
1690.374	0.516	correct	2back	Block3	2back/STIM_028.jpg
1694.18	0.43	correct	2back	Block3	2back/STIM_028.jpg
1696.943	0.46	correct	2back	Block3	2back/STIM_029.jpg
1699.75	0.501	correct	2back	Block3	2back/STIM_029.jpg
1703.977	0.622	correct	2back	Block3	2back/STIM_029.jpg
1706.969	0.669	incorrect	2back	Block3	2back/STIM_030.jpg
1710.337	0.64	correct	2back	Block3	2back/STIM_030.jpg
1714.409	0.503	correct	2back	Block3	2back/STIM_030.jpg
1718.406	0.658	correct	2back	Block3	2back/STIM_031.jpg
1723.088	0.687	correct	2back	Block3	2back/STIM_031.jpg
1726.307	0.41	correct	2back	Block3	2back/STIM_031.jpg
1729.717	0.831	correct	2back	Block3	2back/STIM_032.jpg
1734.136	0.709	correct	2back	Block3	2back/STIM_032.jpg
1736.936	0.393	correct	2back	Block3	2back/STIM_032.jpg
1739.571	0.595	correct	2back	Block3	2back/STIM_033.jpg
1743.568	0.887	correct	2back	Block3	2back/STIM_033.jpg
1746.632	0.483	correct	2back	Block3	2back/STIM_033.jpg
1749.538	0.501	correct	2back	Block3	2back/STIM_034.jpg
1752.609	0.566	correct	2back	Block3	2back/STIM_034.jpg
1755.368	0.821	correct	2back	Block3	2back/STIM_034.jpg
1758.465	0.744	correct	2back	Block3	2back/STIM_035.jpg
1762.207	0.61	correct	2back	Block3	2back/STIM_035.jpg
1764.998	0.64	correct	2back	Block3	2back/STIM_035.jpg
1768.672	0.59	correct	2back	Block3	2back/STIM_036.jpg
1772.667	0.831	correct	2back	Block3	2back/STIM_036.jpg
1775.725	0.727	incorrect	2back	Block3	2back/STIM_036.jpg
1779.251	0.48	correct	2back	Block3	2back/STIM_037.jpg
1783.094	0.388	correct	2back	Block3	2back/STIM_037.jpg
1786.703	0.554	correct	2back	Block3	2back/STIM_037.jpg
1789.379	0.837	correct	2back	Block3	2back/STIM_038.jpg
1794.187	0.642	correct	2back	Block3	2back/STIM_038.jpg
1797.124	0.768	correct	2back	Block3	2back/STIM_038.jpg
1801.106	0.844	correct	2back	Block3	2back/STIM_039.jpg
1805.953	0.646	correct	2back	Block3	2back/STIM_039.jpg
1808.755	0.584	correct	2back	Block3	2back/STIM_039.jpg
1812.198	0.658	correct	0back	Block3	0back/STIM_000.jpg
1816.802	0.634	correct	0back	Block3	0back/STIM_000.jpg
1820.565	0.677	correct	0back	Block3	0back/STIM_000.jpg
1824.754	0.644	correct	0back	Block3	0back/STIM_001.jpg
1827.817	0.68	correct	0back	Block3	0back/STIM_001.jpg
1831.605	0.564	correct	0back	Block3	0back/STIM_001.jpg
1834.5	0.399	correct	0back	Block3	0back/STIM_002.jpg
1837.229	0.54	correct	0back	Block3	0back/STIM_002.jpg
1841.367	0.483	correct	0back	Block3	0back/STIM_002.jpg
1845.79	0.691	incorrect	0back	Block3	0back/STIM_003.jpg
1850.519	0.539	correct	0back	Block3	0back/STIM_003.jpg
1854.197	0.532	correct	0back	Block3	0back/STIM_003.jpg
1858.721	0.495	correct	0back	Block3	0back/STIM_004.jpg
1861.725	0.555	correct	0back	Block3	0back/STIM_004.jpg
1864.739	0.383	correct	0back	Block3	0back/STIM_004.jpg
1868.05	0.458	correct	0back	Block3	0back/STIM_005.jpg
1871.137	0.422	correct	0back	Block3	0back/STIM_005.jpg
1875.395	0.621	correct	0back	Block3	0back/STIM_005.jpg
1879.525	0.422	correct	0back	Block3	0back/STIM_006.jpg
1882.516	0.571	correct	0back	Block3	0back/STIM_006.jpg
1886.347	0.692	correct	0back	Block3	0back/STIM_006.jpg
1890.063	0.42	correct	0back	Block3	0back/STIM_007.jpg
1894.375	0.512	incorrect	0back	Block3	0back/STIM_007.jpg
1898.456	0.57	correct	0back	Block3	0back/STIM_007.jpg
1901.137	0.508	correct	0back	Block3	0back/STIM_008.jpg
1904.811	0.728	correct	0back	Block3	0back/STIM_008.jpg
1907.916	0.437	incorrect	0back	Block3	0back/STIM_008.jpg
1911.441	0.522	incorrect	0back	Block3	0back/STIM_009.jpg
1915.691	0.587	correct	0back	Block3	0back/STIM_009.jpg
1918.365	0.723	correct	0back	Block3	0back/STIM_009.jpg
1921.816	0.632	correct	0back	Block3	0back/STIM_010.jpg
1926.338	0.605	correct	0back	Block3	0back/STIM_010.jpg
1929.796	0.37	correct	0back	Block3	0back/STIM_010.jpg
1932.46	0.541	correct	0back	Block3	0back/STIM_011.jpg
1936.565	0.523	correct	0back	Block3	0back/STIM_011.jpg
1940.522	0.387	correct	0back	Block3	0back/STIM_011.jpg
1943.56	0.584	correct	0back	Block3	0back/STIM_012.jpg
1947.779	0.534	correct	0back	Block3	0back/STIM_012.jpg
1951.511	0.454	correct	0back	Block3	0back/STIM_012.jpg
1954.129	0.41	correct	0back	Block3	0back/STIM_013.jpg
1956.691	0.378	correct	0back	Block3	0back/STIM_013.jpg
1959.741	0.53	correct	0back	Block3	0back/STIM_013.jpg
1962.859	0.381	correct	0back	Block3	0back/STIM_014.jpg
1965.557	0.49	correct	0back	Block3	0back/STIM_014.jpg
1969.168	0.515	correct	0back	Block3	0back/STIM_014.jpg
1972.953	0.54	correct	0back	Block3	0back/STIM_015.jpg
1976.911	0.598	correct	0back	Block3	0back/STIM_015.jpg
1979.896	0.67	correct	0back	Block3	0back/STIM_015.jpg
1983.941	0.723	correct	0back	Block3	0back/STIM_016.jpg
1988.61	0.439	incorrect	0back	Block3	0back/STIM_016.jpg
1991.344	0.732	correct	0back	Block3	0back/STIM_016.jpg
1995.044	0.545	correct	0back	Block3	0back/STIM_017.jpg
1998.017	0.425	correct	0back	Block3	0back/STIM_017.jpg
2001.244	0.395	correct	0back	Block3	0back/STIM_017.jpg
2004.663	0.624	correct	0back	Block3	0back/STIM_018.jpg
2007.465	0.597	correct	0back	Block3	0back/STIM_018.jpg
2011.072	0.418	correct	0back	Block3	0back/STIM_018.jpg
2014.287	0.47	correct	0back	Block3	0back/STIM_019.jpg
2018.634	0.64	correct	0back	Block3	0back/STIM_019.jpg
2022.047	0.431	correct	0back	Block3	0back/STIM_019.jpg
2024.586	0.665	correct	2back	Block4	2back/STIM_000.jpg
2027.505	0.857	correct	2back	Block4	2back/STIM_000.jpg
2030.763	0.877	correct	2back	Block4	2back/STIM_000.jpg
2033.871	0.748	correct	2back	Block4	2back/STIM_001.jpg
2037.453	0.52	correct	2back	Block4	2back/STIM_001.jpg
2041.846	0.716	correct	2back	Block4	2back/STIM_001.jpg
2045.959	0.647	correct	2back	Block4	2back/STIM_002.jpg
2048.682	0.588	correct	2back	Block4	2back/STIM_002.jpg
2052.831	0.628	correct	2back	Block4	2back/STIM_002.jpg
2056.617	0.806	correct	2back	Block4	2back/STIM_003.jpg
2060.626	0.635	correct	2back	Block4	2back/STIM_003.jpg
2063.675	0.612	correct	2back	Block4	2back/STIM_003.jpg
2067.305	0.395	correct	2back	Block4	2back/STIM_004.jpg
2071.441	0.429	correct	2back	Block4	2back/STIM_004.jpg
2075.466	0.749	correct	2back	Block4	2back/STIM_004.jpg
2079.585	0.894	correct	2back	Block4	2back/STIM_005.jpg
2084.438	0.65	correct	2back	Block4	2back/STIM_005.jpg
2087.857	0.743	correct	2back	Block4	2back/STIM_005.jpg
2091.311	0.895	correct	2back	Block4	2back/STIM_006.jpg
2095.685	0.712	correct	2back	Block4	2back/STIM_006.jpg
2099.445	0.686	correct	2back	Block4	2back/STIM_006.jpg
2102.703	0.776	correct	2back	Block4	2back/STIM_007.jpg
2106.853	0.54	correct	2back	Block4	2back/STIM_007.jpg
2109.583	0.778	correct	2back	Block4	2back/STIM_007.jpg
2112.487	0.724	correct	2back	Block4	2back/STIM_008.jpg
2116.98	0.634	correct	2back	Block4	2back/STIM_008.jpg
2120.245	0.827	correct	2back	Block4	2back/STIM_008.jpg
2125.0	0.826	correct	2back	Block4	2back/STIM_009.jpg
2128.516	0.541	correct	2back	Block4	2back/STIM_009.jpg
2131.278	0.806	correct	2back	Block4	2back/STIM_009.jpg
2134.898	0.696	correct	2back	Block4	2back/STIM_010.jpg
2139.511	0.449	correct	2back	Block4	2back/STIM_010.jpg
2143.287	0.876	correct	2back	Block4	2back/STIM_010.jpg
2146.404	0.743	correct	2back	Block4	2back/STIM_011.jpg
2149.989	0.435	correct	2back	Block4	2back/STIM_011.jpg
2152.614	0.87	correct	2back	Block4	2back/STIM_011.jpg
2155.678	0.783	correct	2back	Block4	2back/STIM_012.jpg
2160.395	0.723	correct	2back	Block4	2back/STIM_012.jpg
2163.264	0.736	correct	2back	Block4	2back/STIM_012.jpg
2166.695	0.597	correct	2back	Block4	2back/STIM_013.jpg
2171.245	0.575	correct	2back	Block4	2back/STIM_013.jpg
2175.024	0.666	correct	2back	Block4	2back/STIM_013.jpg
2179.577	0.585	correct	2back	Block4	2back/STIM_014.jpg
2182.693	0.738	correct	2back	Block4	2back/STIM_014.jpg
2186.061	0.88	correct	2back	Block4	2back/STIM_014.jpg
2189.335	0.445	correct	2back	Block4	2back/STIM_015.jpg
2193.735	0.888	correct	2back	Block4	2back/STIM_015.jpg
2197.863	0.726	correct	2back	Block4	2back/STIM_015.jpg
2201.844	0.758	correct	2back	Block4	2back/STIM_016.jpg
2206.664	0.46	correct	2back	Block4	2back/STIM_016.jpg
2209.662	0.769	correct	2back	Block4	2back/STIM_016.jpg
2214.441	0.499	correct	2back	Block4	2back/STIM_017.jpg
2217.561	0.545	correct	2back	Block4	2back/STIM_017.jpg
2221.201	0.854	correct	2back	Block4	2back/STIM_017.jpg
2224.652	0.424	correct	2back	Block4	2back/STIM_018.jpg
2228.957	0.696	correct	2back	Block4	2back/STIM_018.jpg
2233.009	0.667	correct	2back	Block4	2back/STIM_018.jpg
2236.622	0.442	correct	2back	Block4	2back/STIM_019.jpg
2240.836	0.585	correct	2back	Block4	2back/STIM_019.jpg
2244.395	0.821	correct	2back	Block4	2back/STIM_019.jpg
2247.387	0.779	correct	2back	Block4	2back/STIM_020.jpg
2251.845	0.512	correct	2back	Block4	2back/STIM_020.jpg
2255.96	0.831	correct	2back	Block4	2back/STIM_020.jpg
2260.454	0.758	correct	2back	Block4	2back/STIM_021.jpg
2265.175	0.831	correct	2back	Block4	2back/STIM_021.jpg
2269.894	0.629	correct	2back	Block4	2back/STIM_021.jpg
2274.218	0.386	correct	2back	Block4	2back/STIM_022.jpg
2278.345	0.393	correct	2back	Block4	2back/STIM_022.jpg
2282.391	0.588	correct	2back	Block4	2back/STIM_022.jpg
2286.116	0.668	correct	2back	Block4	2back/STIM_023.jpg
2289.243	0.444	correct	2back	Block4	2back/STIM_023.jpg
2292.806	0.864	correct	2back	Block4	2back/STIM_023.jpg
2297.059	0.889	correct	2back	Block4	2back/STIM_024.jpg
2301.279	0.597	correct	2back	Block4	2back/STIM_024.jpg
2305.878	0.892	correct	2back	Block4	2back/STIM_024.jpg
2310.289	0.648	correct	2back	Block4	2back/STIM_025.jpg
2313.163	0.585	correct	2back	Block4	2back/STIM_025.jpg
2317.423	0.882	correct	2back	Block4	2back/STIM_025.jpg
2321.422	0.716	correct	2back	Block4	2back/STIM_026.jpg
2324.374	0.869	correct	2back	Block4	2back/STIM_026.jpg
2328.425	0.756	correct	2back	Block4	2back/STIM_026.jpg
2331.433	0.728	correct	2back	Block4	2back/STIM_027.jpg
2335.749	0.551	correct	2back	Block4	2back/STIM_027.jpg
2340.108	0.704	correct	2back	Block4	2back/STIM_027.jpg
2343.407	0.87	correct	2back	Block4	2back/STIM_028.jpg
2347.739	0.511	correct	2back	Block4	2back/STIM_028.jpg
2351.871	0.438	correct	2back	Block4	2back/STIM_028.jpg
2355.805	0.747	correct	2back	Block4	2back/STIM_029.jpg
2359.995	0.473	correct	2back	Block4	2back/STIM_029.jpg
2362.927	0.861	correct	2back	Block4	2back/STIM_029.jpg
2367.281	0.482	correct	2back	Block4	2back/STIM_030.jpg
2371.381	0.686	correct	2back	Block4	2back/STIM_030.jpg
2374.664	0.646	correct	2back	Block4	2back/STIM_030.jpg
2378.181	0.63	correct	2back	Block4	2back/STIM_031.jpg
2381.685	0.804	correct	2back	Block4	2back/STIM_031.jpg
2386.013	0.725	correct	2back	Block4	2back/STIM_031.jpg
2388.893	0.867	correct	2back	Block4	2back/STIM_032.jpg
2393.233	0.862	correct	2back	Block4	2back/STIM_032.jpg
2397.552	0.841	correct	2back	Block4	2back/STIM_032.jpg
2401.303	0.692	correct	2back	Block4	2back/STIM_033.jpg
2404.324	0.425	correct	2back	Block4	2back/STIM_033.jpg
2408.277	0.865	correct	2back	Block4	2back/STIM_033.jpg
2412.875	0.855	correct	2back	Block4	2back/STIM_034.jpg
2416.696	0.436	correct	2back	Block4	2back/STIM_034.jpg
2419.219	0.59	correct	2back	Block4	2back/STIM_034.jpg
2422.625	0.574	correct	2back	Block4	2back/STIM_035.jpg
2427.005	0.589	correct	2back	Block4	2back/STIM_035.jpg
2430.311	0.788	correct	2back	Block4	2back/STIM_035.jpg
2434.846	0.404	correct	2back	Block4	2back/STIM_036.jpg
2438.84	0.585	correct	2back	Block4	2back/STIM_036.jpg
2442.322	0.78	incorrect	2back	Block4	2back/STIM_036.jpg
2445.754	0.401	correct	2back	Block4	2back/STIM_037.jpg
2449.465	0.885	correct	2back	Block4	2back/STIM_037.jpg
2453.684	0.428	correct	2back	Block4	2back/STIM_037.jpg
2457.979	0.42	correct	2back	Block4	2back/STIM_038.jpg
2462.297	0.884	correct	2back	Block4	2back/STIM_038.jpg
2466.2	0.554	correct	2back	Block4	2back/STIM_038.jpg
2469.622	0.405	correct	2back	Block4	2back/STIM_039.jpg
2473.9	0.516	correct	2back	Block4	2back/STIM_039.jpg
2477.089	0.852	incorrect	2back	Block4	2back/STIM_039.jpg
2480.321	0.607	correct	0back	Block4	0back/STIM_000.jpg
2484.248	0.543	correct	0back	Block4	0back/STIM_000.jpg
2488.432	0.381	correct	0back	Block4	0back/STIM_000.jpg
2491.573	0.671	correct	0back	Block4	0back/STIM_001.jpg
2495.725	0.454	correct	0back	Block4	0back/STIM_001.jpg
2499.384	0.491	correct	0back	Block4	0back/STIM_001.jpg
2502.525	0.429	correct	0back	Block4	0back/STIM_002.jpg
2506.597	0.667	correct	0back	Block4	0back/STIM_002.jpg
2509.5	0.731	correct	0back	Block4	0back/STIM_002.jpg
2513.224	0.706	correct	0back	Block4	0back/STIM_003.jpg
2517.63	0.485	correct	0back	Block4	0back/STIM_003.jpg
2521.797	0.587	incorrect	0back	Block4	0back/STIM_003.jpg
2524.558	0.538	correct	0back	Block4	0back/STIM_004.jpg
2528.643	0.641	correct	0back	Block4	0back/STIM_004.jpg
2532.077	0.505	correct	0back	Block4	0back/STIM_004.jpg
2535.178	0.49	correct	0back	Block4	0back/STIM_005.jpg
2539.539	0.708	correct	0back	Block4	0back/STIM_005.jpg
2542.672	0.499	correct	0back	Block4	0back/STIM_005.jpg
2546.515	0.57	correct	0back	Block4	0back/STIM_006.jpg
2549.539	0.436	correct	0back	Block4	0back/STIM_006.jpg
2553.461	0.399	correct	0back	Block4	0back/STIM_006.jpg
2556.537	0.522	correct	0back	Block4	0back/STIM_007.jpg
2560.552	0.382	correct	0back	Block4	0back/STIM_007.jpg
2563.186	0.529	correct	0back	Block4	0back/STIM_007.jpg
2566.554	0.578	correct	0back	Block4	0back/STIM_008.jpg
2571.148	0.52	correct	0back	Block4	0back/STIM_008.jpg
2574.554	0.442	correct	0back	Block4	0back/STIM_008.jpg
2578.983	0.637	correct	0back	Block4	0back/STIM_009.jpg
2582.413	0.444	correct	0back	Block4	0back/STIM_009.jpg
2586.04	0.376	correct	0back	Block4	0back/STIM_009.jpg
2590.284	0.56	correct	0back	Block4	0back/STIM_010.jpg
2593.589	0.379	correct	0back	Block4	0back/STIM_010.jpg
2597.572	0.477	correct	0back	Block4	0back/STIM_010.jpg
2600.584	0.43	correct	0back	Block4	0back/STIM_011.jpg
2604.104	0.623	correct	0back	Block4	0back/STIM_011.jpg
2607.921	0.706	correct	0back	Block4	0back/STIM_011.jpg
2611.107	0.52	correct	0back	Block4	0back/STIM_012.jpg
2614.894	0.666	correct	0back	Block4	0back/STIM_012.jpg
2618.035	0.372	correct	0back	Block4	0back/STIM_012.jpg
2620.724	0.547	correct	0back	Block4	0back/STIM_013.jpg
2624.944	0.42	correct	0back	Block4	0back/STIM_013.jpg
2628.087	0.581	correct	0back	Block4	0back/STIM_013.jpg
2631.999	0.538	correct	0back	Block4	0back/STIM_014.jpg
2635.204	0.502	correct	0back	Block4	0back/STIM_014.jpg
2639.584	0.461	correct	0back	Block4	0back/STIM_014.jpg
2642.149	0.644	correct	0back	Block4	0back/STIM_015.jpg
2645.074	0.597	correct	0back	Block4	0back/STIM_015.jpg
2648.823	0.682	correct	0back	Block4	0back/STIM_015.jpg
2651.837	0.582	correct	0back	Block4	0back/STIM_016.jpg
2655.32	0.58	correct	0back	Block4	0back/STIM_016.jpg
2658.154	0.412	correct	0back	Block4	0back/STIM_016.jpg
2662.271	0.624	incorrect	0back	Block4	0back/STIM_017.jpg
2666.363	0.495	correct	0back	Block4	0back/STIM_017.jpg
2669.413	0.668	correct	0back	Block4	0back/STIM_017.jpg
2673.942	0.445	correct	0back	Block4	0back/STIM_018.jpg
2677.944	0.524	correct	0back	Block4	0back/STIM_018.jpg
2681.544	0.619	correct	0back	Block4	0back/STIM_018.jpg
2685.958	0.585	correct	0back	Block4	0back/STIM_019.jpg
2689.455	0.43	correct	0back	Block4	0back/STIM_019.jpg
2692.691	0.421	correct	0back	Block4	0back/STIM_019.jpg
