onset	duration	response_time_ms	trial_type	learning_stage	stimulus	response_port
0.0	0.848	848.2	2back	Block1	2back/STIM_000.jpg	100
4.814	0.686	686.2	2back	Block1	2back/STIM_000.jpg	99
7.861	0.576	576.0	2back	Block1	2back/STIM_000.jpg	100
10.614	0.93	930.4	2back	Block1	2back/STIM_001.jpg	99
13.843	0.604	604.3	2back	Block1	2back/STIM_001.jpg	99
18.229	0.781	780.6	2back	Block1	2back/STIM_001.jpg	99
21.153	0.722	722.3	2back	Block1	2back/STIM_002.jpg	99
25.305	0.599	599.1	2back	Block1	2back/STIM_002.jpg	100
28.373	0.961	961.1	2back	Block1	2back/STIM_002.jpg	100
31.619	0.757	756.6	2back	Block1	2back/STIM_003.jpg	99
35.183	0.673	673.2	2back	Block1	2back/STIM_003.jpg	100
38.891	0.974	973.9	2back	Block1	2back/STIM_003.jpg	99
42.992	1.174	1173.6	2back	Block1	2back/STIM_004.jpg	99
47.67	0.789	788.7	2back	Block1	2back/STIM_004.jpg	99
51.552	0.809	809.0	2back	Block1	2back/STIM_004.jpg	100
55.7	1.269	1268.8	2back	Block1	2back/STIM_005.jpg	99
60.321	1.064	1064.5	2back	Block1	2back/STIM_005.jpg	99
64.499	0.799	798.7	2back	Block1	2back/STIM_005.jpg	100
67.582	0.882	881.7	2back	Block1	2back/STIM_006.jpg	99
71.232	0.961	960.6	2back	Block1	2back/STIM_006.jpg	100
75.766	1.137	1136.9	2back	Block1	2back/STIM_006.jpg	100
79.158	1.366	1365.5	2back	Block1	2back/STIM_007.jpg	99
82.984	0.618	618.1	2back	Block1	2back/STIM_007.jpg	100
87.456	0.731	730.7	2back	Block1	2back/STIM_007.jpg	99
91.619	1.383	1383.2	2back	Block1	2back/STIM_008.jpg	99
96.176	1.082	1082.4	2back	Block1	2back/STIM_008.jpg	99
99.764	0.693	692.8	2back	Block1	2back/STIM_008.jpg	100
103.246	0.747	747.0	2back	Block1	2back/STIM_009.jpg	100
107.575	1.22	1219.5	2back	Block1	2back/STIM_009.jpg	100
112.061	0.951	951.2	2back	Block1	2back/STIM_009.jpg	100
115.816	1.082	1081.9	2back	Block1	2back/STIM_010.jpg	99
119.437	0.981	980.9	2back	Block1	2back/STIM_010.jpg	99
123.015	1.07	1070.2	2back	Block1	2back/STIM_010.jpg	99
127.154	0.958	958.3	2back	Block1	2back/STIM_011.jpg	100
131.647	0.69	690.5	2back	Block1	2back/STIM_011.jpg	100
135.867	1.296	1296.4	2back	Block1	2back/STIM_011.jpg	100
139.742	1.034	1034.1	2back	Block1	2back/STIM_012.jpg	100
142.857	0.819	819.4	2back	Block1	2back/STIM_012.jpg	100
145.922	1.088	1088.3	2back	Block1	2back/STIM_012.jpg	100
150.13	0.641	640.8	2back	Block1	2back/STIM_013.jpg	100
154.265	0.932	932.1	2back	Block1	2back/STIM_013.jpg	99
158.079	0.904	903.6	2back	Block1	2back/STIM_013.jpg	100
162.079	0.776	776.1	2back	Block1	2back/STIM_014.jpg	100
166.303	0.822	822.1	2back	Block1	2back/STIM_014.jpg	100
170.189	1.168	1168.5	2back	Block1	2back/STIM_014.jpg	100
174.196	1.418	1417.5	2back	Block1	2back/STIM_015.jpg	100
179.351	0.595	595.1	2back	Block1	2back/STIM_015.jpg	100
182.924	1.244	1244.2	2back	Block1	2back/STIM_015.jpg	99
186.403	0.946	946.1	2back	Block1	2back/STIM_016.jpg	100
189.586	0.982	982.0	2back	Block1	2back/STIM_016.jpg	100
193.677	1.09	1090.2	2back	Block1	2back/STIM_016.jpg	99
197.802	0.816	816.2	2back	Block1	2back/STIM_017.jpg	99
201.374	0.65	649.6	2back	Block1	2back/STIM_017.jpg	100
204.971	0.608	608.3	2back	Block1	2back/STIM_017.jpg	99
207.653	0.674	674.2	2back	Block1	2back/STIM_018.jpg	100
210.452	0.659	659.1	2back	Block1	2back/STIM_018.jpg	100
214.021	0.869	868.6	2back	Block1	2back/STIM_018.jpg	100
217.886	0.916	916.2	2back	Block1	2back/STIM_019.jpg	100
220.881	1.095	1095.2	2back	Block1	2back/STIM_019.jpg	99
225.196	1.3	1299.5	2back	Block1	2back/STIM_019.jpg	99
230.046	1.05	1049.8	2back	Block1	2back/STIM_020.jpg	99
234.93	0.864	864.4	2back	Block1	2back/STIM_020.jpg	99
238.696	1.027	1026.8	2back	Block1	2back/STIM_020.jpg	100
243.254	0.812	812.1	2back	Block1	2back/STIM_021.jpg	99
247.418	1.074	1073.6	2back	Block1	2back/STIM_021.jpg	100
251.567	0.799	799.4	2back	Block1	2back/STIM_021.jpg	100
254.637	1.151	1150.6	2back	Block1	2back/STIM_022.jpg	99
258.021	1.302	1301.7	2back	Block1	2back/STIM_022.jpg	99
261.327	0.915	914.7	2back	Block1	2back/STIM_022.jpg	100
264.736	0.713	713.2	2back	Block1	2back/STIM_023.jpg	100
268.386	0.83	829.5	2back	Block1	2back/STIM_023.jpg	99
271.55	0.584	583.5	2back	Block1	2back/STIM_023.jpg	99
275.25	0.804	804.0	2back	Block1	2back/STIM_024.jpg	100
278.944	1.271	1271.4	2back	Block1	2back/STIM_024.jpg	100
283.476	1.081	1080.8	2back	Block1	2back/STIM_024.jpg	100
287.26	1.064	1064.4	2back	Block1	2back/STIM_025.jpg	99
290.838	1.033	1032.7	2back	Block1	2back/STIM_025.jpg	100
294.356	1.165	1164.6	2back	Block1	2back/STIM_025.jpg	100
297.792	1.004	1004.4	2back	Block1	2back/STIM_026.jpg	99
302.253	1.312	1311.8	2back	Block1	2back/STIM_026.jpg	99
306.51	0.898	897.9	2back	Block1	2back/STIM_026.jpg	100
310.069	0.996	995.5	2back	Block1	2back/STIM_027.jpg	100
314.652	1.202	1202.2	2back	Block1	2back/STIM_027.jpg	99
319.639	0.916	916.2	2back	Block1	2back/STIM_027.jpg	99
324.341	1.294	1294.4	2back	Block1	2back/STIM_028.jpg	99
328.975	1.058	1058.1	2back	Block1	2back/STIM_028.jpg	100
332.901	0.782	781.9	2back	Block1	2back/STIM_028.jpg	100
336.834	0.661	661.0	2back	Block1	2back/STIM_029.jpg	100
340.259	1.039	1039.0	2back	Block1	2back/STIM_029.jpg	99
343.991	1.291	1291.1	2back	Block1	2back/STIM_029.jpg	99
348.278	1.431	1431.2	2back	Block1	2back/STIM_030.jpg	99
353.074	1.027	1026.6	2back	Block1	2back/STIM_030.jpg	100
356.277	0.742	742.3	2back	Block1	2back/STIM_030.jpg	99
360.085	1.369	1369.2	2back	Block1	2back/STIM_031.jpg	99
364.827	0.645	644.8	2back	Block1	2back/STIM_031.jpg	100
368.447	1.171	1171.2	2back	Block1	2back/STIM_031.jpg	100
372.247	1.12	1119.8	2back	Block1	2back/STIM_032.jpg	100
375.988	1.163	1163.0	2back	Block1	2back/STIM_032.jpg	100
379.677	0.589	589.0	2back	Block1	2back/STIM_032.jpg	99
383.656	0.634	634.1	2back	Block1	2back/STIM_033.jpg	99
387.531	1.086	1086.1	2back	Block1	2back/STIM_033.jpg	100
391.67	0.73	730.1	2back	Block1	2back/STIM_033.jpg	100
396.128	1.342	1341.8	2back	Block1	2back/STIM_034.jpg	99
399.64	0.676	676.5	2back	Block1	2back/STIM_034.jpg	100
402.891	0.924	923.8	2back	Block1	2back/STIM_034.jpg	99
407.771	1.34	1340.0	2back	Block1	2back/STIM_035.jpg	100
413.107	0.6	599.7	2back	Block1	2back/STIM_035.jpg	100
417.23	0.562	561.7	2back	Block1	2back/STIM_035.jpg	99
420.29	1.365	1365.4	2back	Block1	2back/STIM_036.jpg	100
424.029	1.057	1057.3	2back	Block1	2back/STIM_036.jpg	99
427.383	0.924	923.5	2back	Block1	2back/STIM_036.jpg	100
431.32	0.636	635.7	2back	Block1	2back/STIM_037.jpg	100
434.088	1.175	1175.0	2back	Block1	2back/STIM_037.jpg	99
438.326	1.074	1073.6	2back	Block1	2back/STIM_037.jpg	99
442.249	0.716	716.1	2back	Block1	2back/STIM_038.jpg	100
446.815	1.159	1159.2	2back	Block1	2back/STIM_038.jpg	99
449.994	1.128	1127.8	2back	Block1	2back/STIM_038.jpg	99
453.898	1.108	1108.3	2back	Block1	2back/STIM_039.jpg	99
458.371	1.377	1377.0	2back	Block1	2back/STIM_039.jpg	99
462.211	1.169	1168.8	2back	Block1	2back/STIM_039.jpg	99
467.287	0.584	584.3	0back	Block1	0back/STIM_000.jpg	99
471.559	0.553	552.6	0back	Block1	0back/STIM_000.jpg	100
475.794	0.528	527.9	0back	Block1	0back/STIM_000.jpg	99
480.208	0.687	687.4	0back	Block1	0back/STIM_001.jpg	99
484.597	0.602	601.8	0back	Block1	0back/STIM_001.jpg	100
487.6	0.682	682.3	0back	Block1	0back/STIM_001.jpg	100
491.438	0.474	474.3	0back	Block1	0back/STIM_002.jpg	99
495.549	0.785	784.8	0back	Block1	0back/STIM_002.jpg	100
499.321	0.76	759.6	0back	Block1	0back/STIM_002.jpg	99
502.376	0.811	811.0	0back	Block1	0back/STIM_003.jpg	100
505.797	0.748	747.9	0back	Block1	0back/STIM_003.jpg	99
510.403	0.497	496.8	0back	Block1	0back/STIM_003.jpg	100
512.974	0.789	789.0	0back	Block1	0back/STIM_004.jpg	100
517.127	0.416	416.3	0back	Block1	0back/STIM_004.jpg	99
520.786	0.637	636.6	0back	Block1	0back/STIM_004.jpg	100
524.955	0.816	816.3	0back	Block1	0back/STIM_005.jpg	100
529.462	0.766	766.1	0back	Block1	0back/STIM_005.jpg	100
533.366	0.511	511.3	0back	Block1	0back/STIM_005.jpg	100
537.296	0.773	773.4	0back	Block1	0back/STIM_006.jpg	100
541.215	0.772	771.9	0back	Block1	0back/STIM_006.jpg	99
545.166	0.782	781.8	0back	Block1	0back/STIM_006.jpg	99
549.077	0.611	611.4	0back	Block1	0back/STIM_007.jpg	100
552.623	0.477	476.7	0back	Block1	0back/STIM_007.jpg	99
556.946	0.782	781.7	0back	Block1	0back/STIM_007.jpg	100
560.222	0.479	479.4	0back	Block1	0back/STIM_008.jpg	100
564.05	0.707	706.9	0back	Block1	0back/STIM_008.jpg	100
568.646	0.664	664.1	0back	Block1	0back/STIM_008.jpg	99
572.035	0.594	594.2	0back	Block1	0back/STIM_009.jpg	99
575.234	0.566	565.6	0back	Block1	0back/STIM_009.jpg	99
579.325	0.711	710.9	0back	Block1	0back/STIM_009.jpg	100
582.302	0.665	664.8	0back	Block1	0back/STIM_010.jpg	99
586.916	0.645	645.4	0back	Block1	0back/STIM_010.jpg	100
590.3	0.656	656.1	0back	Block1	0back/STIM_010.jpg	100
594.527	0.759	758.8	0back	Block1	0back/STIM_011.jpg	100
597.429	0.577	576.7	0back	Block1	0back/STIM_011.jpg	100
600.74	0.676	676.1	0back	Block1	0back/STIM_011.jpg	100
604.225	0.729	729.1	0back	Block1	0back/STIM_012.jpg	99
608.694	0.648	647.7	0back	Block1	0back/STIM_012.jpg	100
611.776	0.821	821.3	0back	Block1	0back/STIM_012.jpg	99
616.119	0.454	454.4	0back	Block1	0back/STIM_013.jpg	99
620.459	0.648	647.8	0back	Block1	0back/STIM_013.jpg	100
624.684	0.769	768.6	0back	Block1	0back/STIM_013.jpg	99
628.523	0.476	476.3	0back	Block1	0back/STIM_014.jpg	100
631.438	0.456	455.6	0back	Block1	0back/STIM_014.jpg	100
634.98	0.687	686.7	0back	Block1	0back/STIM_014.jpg	99
639.486	0.75	749.7	0back	Block1	0back/STIM_015.jpg	100
643.389	0.68	680.4	0back	Block1	0back/STIM_015.jpg	100
647.818	0.666	666.3	0back	Block1	0back/STIM_015.jpg	100
651.157	0.793	793.3	0back	Block1	0back/STIM_016.jpg	99
655.044	0.458	458.4	0back	Block1	0back/STIM_016.jpg	100
658.187	0.549	549.2	0back	Block1	0back/STIM_016.jpg	100
661.206	0.439	439.3	0back	Block1	0back/STIM_017.jpg	99
665.055	0.613	612.9	0back	Block1	0back/STIM_017.jpg	99
668.343	0.523	522.6	0back	Block1	0back/STIM_017.jpg	99
672.163	0.748	747.7	0back	Block1	0back/STIM_018.jpg	100
676.893	0.827	827.1	0back	Block1	0back/STIM_018.jpg	100
679.933	0.667	667.3	0back	Block1	0back/STIM_018.jpg	100
683.778	0.726	726.2	0back	Block1	0back/STIM_019.jpg	99
687.698	0.759	759.2	0back	Block1	0back/STIM_019.jpg	100
690.529	0.543	542.8	0back	Block1	0back/STIM_019.jpg	100
693.329	0.709	708.9	2back	Block2	2back/STIM_000.jpg	100
697.944	0.933	933.1	2back	Block2	2back/STIM_000.jpg	100
701.527	1.032	1032.0	2back	Block2	2back/STIM_000.jpg	99
704.564	1.05	1050.0	2back	Block2	2back/STIM_001.jpg	99
708.961	0.582	582.1	2back	Block2	2back/STIM_001.jpg	100
712.878	0.947	947.4	2back	Block2	2back/STIM_001.jpg	99
716.111	1.154	1153.5	2back	Block2	2back/STIM_002.jpg	100
720.3	0.952	952.3	2back	Block2	2back/STIM_002.jpg	99
724.245	0.909	908.9	2back	Block2	2back/STIM_002.jpg	99
728.802	1.186	1186.1	2back	Block2	2back/STIM_003.jpg	100
733.282	0.651	650.7	2back	Block2	2back/STIM_003.jpg	100
736.214	0.922	921.7	2back	Block2	2back/STIM_003.jpg	99
739.562	0.812	812.5	2back	Block2	2back/STIM_004.jpg	99
743.896	0.658	658.5	2back	Block2	2back/STIM_004.jpg	100
747.654	0.761	760.7	2back	Block2	2back/STIM_004.jpg	99
751.358	0.852	851.8	2back	Block2	2back/STIM_005.jpg	100
754.304	0.96	960.4	2back	Block2	2back/STIM_005.jpg	100
757.501	1.02	1019.5	2back	Block2	2back/STIM_005.jpg	99
760.856	1.085	1085.1	2back	Block2	2back/STIM_006.jpg	100
765.808	0.726	725.7	2back	Block2	2back/STIM_006.jpg	99
768.929	0.689	688.7	2back	Block2	2back/STIM_006.jpg	99
773.175	0.975	975.0	2back	Block2	2back/STIM_007.jpg	99
777.405	0.636	635.5	2back	Block2	2back/STIM_007.jpg	100
780.48	0.486	486.5	2back	Block2	2back/STIM_007.jpg	99
783.309	1.014	1014.5	2back	Block2	2back/STIM_008.jpg	100
787.051	0.822	821.9	2back	Block2	2back/STIM_008.jpg	100
791.117	0.887	886.7	2back	Block2	2back/STIM_008.jpg	99
794.138	1.162	1162.5	2back	Block2	2back/STIM_009.jpg	100
799.032	0.85	850.5	2back	Block2	2back/STIM_009.jpg	100
802.44	0.916	916.1	2back	Block2	2back/STIM_009.jpg	100
805.37	0.901	900.6	2back	Block2	2back/STIM_010.jpg	100
809.469	0.856	856.5	2back	Block2	2back/STIM_010.jpg	99
814.031	0.585	585.3	2back	Block2	2back/STIM_010.jpg	99
818.274	1.191	1191.3	2back	Block2	2back/STIM_011.jpg	100
823.042	1.06	1060.0	2back	Block2	2back/STIM_011.jpg	99
826.57	0.613	613.0	2back	Block2	2back/STIM_011.jpg	100
830.384	0.565	564.9	2back	Block2	2back/STIM_012.jpg	100
834.387	1.04	1039.7	2back	Block2	2back/STIM_012.jpg	99
838.153	0.691	691.4	2back	Block2	2back/STIM_012.jpg	100
842.059	1.116	1115.8	2back	Block2	2back/STIM_013.jpg	100
847.031	0.721	720.8	2back	Block2	2back/STIM_013.jpg	99
850.919	0.56	559.7	2back	Block2	2back/STIM_013.jpg	99
854.324	0.594	594.1	2back	Block2	2back/STIM_014.jpg	99
857.098	1.025	1025.0	2back	Block2	2back/STIM_014.jpg	100
862.037	0.783	783.0	2back	Block2	2back/STIM_014.jpg	99
864.861	1.204	1204.3	2back	Block2	2back/STIM_015.jpg	99
870.015	0.997	997.2	2back	Block2	2back/STIM_015.jpg	99
874.525	0.853	853.4	2back	Block2	2back/STIM_015.jpg	99
878.002	1.2	1200.5	2back	Block2	2back/STIM_016.jpg	100
882.379	1.048	1048.5	2back	Block2	2back/STIM_016.jpg	99
886.931	0.89	890.1	2back	Block2	2back/STIM_016.jpg	99
890.814	1.034	1034.0	2back	Block2	2back/STIM_017.jpg	99
895.082	0.998	998.0	2back	Block2	2back/STIM_017.jpg	99
900.045	0.81	809.6	2back	Block2	2back/STIM_017.jpg	100
903.912	0.81	809.5	2back	Block2	2back/STIM_018.jpg	100
908.397	0.627	627.2	2back	Block2	2back/STIM_018.jpg	99
912.272	0.475	474.6	2back	Block2	2back/STIM_018.jpg	99
915.682	1.071	1070.9	2back	Block2	2back/STIM_019.jpg	100
918.97	0.968	968.2	2back	Block2	2back/STIM_019.jpg	99
923.509	1.02	1019.7	2back	Block2	2back/STIM_019.jpg	100
928.498	0.582	582.5	2back	Block2	2back/STIM_020.jpg	100
931.657	0.552	552.4	2back	Block2	2back/STIM_020.jpg	99
935.745	0.554	553.9	2back	Block2	2back/STIM_020.jpg	99
939.01	0.995	994.6	2back	Block2	2back/STIM_021.jpg	99
943.656	0.645	644.6	2back	Block2	2back/STIM_021.jpg	99
946.572	0.649	649.0	2back	Block2	2back/STIM_021.jpg	100
950.877	0.936	935.8	2back	Block2	2back/STIM_022.jpg	100
954.23	0.764	763.8	2back	Block2	2back/STIM_022.jpg	99
958.287	1.014	1013.5	2back	Block2	2back/STIM_022.jpg	99
961.652	0.742	742.3	2back	Block2	2back/STIM_023.jpg	99
965.573	1.14	1140.1	2back	Block2	2back/STIM_023.jpg	99
969.294	1.059	1059.3	2back	Block2	2back/STIM_023.jpg	100
972.524	0.93	929.9	2back	Block2	2back/STIM_024.jpg	100
975.753	0.831	831.4	2back	Block2	2back/STIM_024.jpg	99
980.168	0.792	792.5	2back	Block2	2back/STIM_024.jpg	100
983.325	1.222	1221.8	2back	Block2	2back/STIM_025.jpg	100
988.024	0.596	596.4	2back	Block2	2back/STIM_025.jpg	99
991.192	1.076	1075.8	2back	Block2	2back/STIM_025.jpg	99
995.352	0.687	687.4	2back	Block2	2back/STIM_026.jpg	100
999.062	0.609	609.4	2back	Block2	2back/STIM_026.jpg	99
1002.764	1.079	1079.4	2back	Block2	2back/STIM_026.jpg	100
1007.011	0.834	833.8	2back	Block2	2back/STIM_027.jpg	100
1010.413	0.58	579.9	2back	Block2	2back/STIM_027.jpg	99
1014.078	0.542	541.7	2back	Block2	2back/STIM_027.jpg	100
1017.267	0.942	941.5	2back	Block2	2back/STIM_028.jpg	99
1020.967	1.133	1133.2	2back	Block2	2back/STIM_028.jpg	100
1024.734	0.534	534.5	2back	Block2	2back/STIM_028.jpg	100
1027.762	0.766	765.8	2back	Block2	2back/STIM_029.jpg	99
1030.907	0.674	674.5	2back	Block2	2back/STIM_029.jpg	100
1034.162	1.071	1071.1	2back	Block2	2back/STIM_029.jpg	100
1037.327	1.076	1076.3	2back	Block2	2back/STIM_030.jpg	100
1041.677	0.721	721.3	2back	Block2	2back/STIM_030.jpg	99
1045.914	0.504	503.9	2back	Block2	2back/STIM_030.jpg	100
1048.694	1.116	1116.4	2back	Block2	2back/STIM_031.jpg	100
1053.058	0.548	548.2	2back	Block2	2back/STIM_031.jpg	99
1056.254	0.689	689.2	2back	Block2	2back/STIM_031.jpg	100
1060.008	0.67	669.8	2back	Block2	2back/STIM_032.jpg	99
1062.933	0.81	810.1	2back	Block2	2back/STIM_032.jpg	99
1066.221	0.669	668.6	2back	Block2	2back/STIM_032.jpg	99
1069.944	1.125	1124.7	2back	Block2	2back/STIM_033.jpg	100
1074.615	0.646	645.7	2back	Block2	2back/STIM_033.jpg	100
1078.896	0.875	875.0	2back	Block2	2back/STIM_033.jpg	99
1081.853	1.178	1178.4	2back	Block2	2back/STIM_034.jpg	99
1085.211	0.583	582.8	2back	Block2	2back/STIM_034.jpg	99
1089.35	0.888	888.2	2back	Block2	2back/STIM_034.jpg	99
1093.963	0.922	921.6	2back	Block2	2back/STIM_035.jpg	100
1098.606	0.898	897.9	2back	Block2	2back/STIM_035.jpg	100
1102.231	0.869	869.2	2back	Block2	2back/STIM_035.jpg	100
1106.864	1.11	1109.8	2back	Block2	2back/STIM_036.jpg	100
1111.65	1.104	1104.0	2back	Block2	2back/STIM_036.jpg	100
1115.305	0.471	471.2	2back	Block2	2back/STIM_036.jpg	99
1119.143	0.832	832.2	2back	Block2	2back/STIM_037.jpg	100
1122.97	0.873	873.0	2back	Block2	2back/STIM_037.jpg	100
1126.366	0.578	578.2	2back	Block2	2back/STIM_037.jpg	100
1129.779	0.602	602.2	2back	Block2	2back/STIM_038.jpg	99
1133.71	1.07	1069.8	2back	Block2	2back/STIM_038.jpg	99
1137.515	0.75	750.3	2back	Block2	2back/STIM_038.jpg	100
1141.509	0.925	924.9	2back	Block2	2back/STIM_039.jpg	100
1146.419	0.755	755.1	2back	Block2	2back/STIM_039.jpg	99
1149.252	0.569	568.7	2back	Block2	2back/STIM_039.jpg	99
1152.802	0.706	705.5	0back	Block2	0back/STIM_000.jpg	99
1156.026	0.631	630.9	0back	Block2	0back/STIM_000.jpg	99
1158.868	0.771	771.1	0back	Block2	0back/STIM_000.jpg	99
1162.105	0.543	542.6	0back	Block2	0back/STIM_001.jpg	100
1164.801	0.48	480.1	0back	Block2	0back/STIM_001.jpg	100
1168.219	0.664	663.5	0back	Block2	0back/STIM_001.jpg	99
1171.803	0.419	418.9	0back	Block2	0back/STIM_002.jpg	100
1176.181	0.455	455.3	0back	Block2	0back/STIM_002.jpg	99
1179.662	0.693	692.7	0back	Block2	0back/STIM_002.jpg	99
1182.44	0.487	487.3	0back	Block2	0back/STIM_003.jpg	100
1185.731	0.489	488.7	0back	Block2	0back/STIM_003.jpg	99
1189.432	0.578	577.9	0back	Block2	0back/STIM_003.jpg	99
1193.567	0.829	828.6	0back	Block2	0back/STIM_004.jpg	100
1198.161	0.587	586.6	0back	Block2	0back/STIM_004.jpg	100
1202.111	0.734	734.5	0back	Block2	0back/STIM_004.jpg	100
1206.391	0.592	591.7	0back	Block2	0back/STIM_005.jpg	100
1209.905	0.763	763.1	0back	Block2	0back/STIM_005.jpg	100
1213.442	0.505	504.9	0back	Block2	0back/STIM_005.jpg	100
1216.035	0.821	821.2	0back	Block2	0back/STIM_006.jpg	100
1220.632	0.42	419.7	0back	Block2	0back/STIM_006.jpg	99
1224.104	0.579	578.8	0back	Block2	0back/STIM_006.jpg	100
1227.364	0.48	480.3	0back	Block2	0back/STIM_007.jpg	99
1229.965	0.612	612.5	0back	Block2	0back/STIM_007.jpg	100
1234.472	0.505	505.2	0back	Block2	0back/STIM_007.jpg	99
1237.808	0.632	631.7	0back	Block2	0back/STIM_008.jpg	99
1242.054	0.826	826.2	0back	Block2	0back/STIM_008.jpg	100
1245.76	0.434	434.3	0back	Block2	0back/STIM_008.jpg	100
1249.993	0.567	567.3	0back	Block2	0back/STIM_009.jpg	100
1252.574	0.796	796.1	0back	Block2	0back/STIM_009.jpg	100
1255.683	0.417	416.9	0back	Block2	0back/STIM_009.jpg	100
1259.498	0.816	815.6	0back	Block2	0back/STIM_010.jpg	100
1262.719	0.623	622.8	0back	Block2	0back/STIM_010.jpg	100
1267.063	0.581	581.0	0back	Block2	0back/STIM_010.jpg	99
1270.502	0.768	767.7	0back	Block2	0back/STIM_011.jpg	99
1273.391	0.658	657.7	0back	Block2	0back/STIM_011.jpg	99
1276.805	0.802	801.8	0back	Block2	0back/STIM_011.jpg	99
1279.811	0.517	516.9	0back	Block2	0back/STIM_012.jpg	99
1282.553	0.486	486.3	0back	Block2	0back/STIM_012.jpg	100
1286.683	0.829	829.2	0back	Block2	0back/STIM_012.jpg	100
1289.549	0.475	475.4	0back	Block2	0back/STIM_013.jpg	99
1292.806	0.51	510.3	0back	Block2	0back/STIM_013.jpg	100
1297.11	0.76	760.5	0back	Block2	0back/STIM_013.jpg	99
1300.353	0.651	651.3	0back	Block2	0back/STIM_014.jpg	99
1304.573	0.724	724.1	0back	Block2	0back/STIM_014.jpg	100
1307.617	0.466	466.3	0back	Block2	0back/STIM_014.jpg	99
1311.71	0.471	470.9	0back	Block2	0back/STIM_015.jpg	100
1315.074	0.503	503.5	0back	Block2	0back/STIM_015.jpg	99
1318.749	0.685	685.1	0back	Block2	0back/STIM_015.jpg	100
1323.359	0.52	519.6	0back	Block2	0back/STIM_016.jpg	100
1326.093	0.43	430.3	0back	Block2	0back/STIM_016.jpg	100
1328.67	0.563	562.9	0back	Block2	0back/STIM_016.jpg	99
1332.47	0.732	731.6	0back	Block2	0back/STIM_017.jpg	99
1335.893	0.567	567.4	0back	Block2	0back/STIM_017.jpg	100
1340.25	0.488	488.1	0back	Block2	0back/STIM_017.jpg	100
1342.98	0.606	606.0	0back	Block2	0back/STIM_018.jpg	99
1347.093	0.498	498.2	0back	Block2	0back/STIM_018.jpg	99
1350.189	0.76	759.9	0back	Block2	0back/STIM_018.jpg	100
1354.663	0.684	684.2	0back	Block2	0back/STIM_019.jpg	100
1359.321	0.746	745.5	0back	Block2	0back/STIM_019.jpg	100
1362.223	0.716	715.8	0back	Block2	0back/STIM_019.jpg	99
1366.76	0.484	484.5	2back	Block3	2back/STIM_000.jpg	100
1369.525	0.873	873.2	2back	Block3	2back/STIM_000.jpg	99
1373.444	0.567	566.6	2back	Block3	2back/STIM_000.jpg	99
1376.985	0.711	710.8	2back	Block3	2back/STIM_001.jpg	99
1380.283	0.578	577.5	2back	Block3	2back/STIM_001.jpg	100
1383.877	0.969	969.1	2back	Block3	2back/STIM_001.jpg	100
1387.728	0.592	592.4	2back	Block3	2back/STIM_002.jpg	99
1390.837	0.811	811.4	2back	Block3	2back/STIM_002.jpg	100
1395.307	0.874	874.3	2back	Block3	2back/STIM_002.jpg	100
1399.035	0.818	818.3	2back	Block3	2back/STIM_003.jpg	99
1402.612	0.652	652.1	2back	Block3	2back/STIM_003.jpg	99
1407.064	0.527	526.9	2back	Block3	2back/STIM_003.jpg	100
1411.591	0.712	711.8	2back	Block3	2back/STIM_004.jpg	99
1414.623	0.993	993.3	2back	Block3	2back/STIM_004.jpg	99
1418.947	0.768	768.5	2back	Block3	2back/STIM_004.jpg	100
1422.083	0.794	793.9	2back	Block3	2back/STIM_005.jpg	100
1425.707	0.809	809.3	2back	Block3	2back/STIM_005.jpg	99
1428.659	0.888	887.5	2back	Block3	2back/STIM_005.jpg	100
1432.988	0.756	755.6	2back	Block3	2back/STIM_006.jpg	100
1437.166	0.977	976.8	2back	Block3	2back/STIM_006.jpg	99
1440.618	0.668	667.5	2back	Block3	2back/STIM_006.jpg	99
1444.251	0.885	884.7	2back	Block3	2back/STIM_007.jpg	99
1448.316	0.728	728.2	2back	Block3	2back/STIM_007.jpg	99
1452.268	0.527	526.6	2back	Block3	2back/STIM_007.jpg	100
1456.46	0.479	479.4	2back	Block3	2back/STIM_008.jpg	100
1460.325	0.874	874.0	2back	Block3	2back/STIM_008.jpg	99
1464.247	0.48	479.8	2back	Block3	2back/STIM_008.jpg	99
1467.236	0.881	881.4	2back	Block3	2back/STIM_009.jpg	99
1471.417	0.905	905.2	2back	Block3	2back/STIM_009.jpg	99
1474.904	0.59	590.5	2back	Block3	2back/STIM_009.jpg	99
1478.217	0.658	658.0	2back	Block3	2back/STIM_010.jpg	99
1481.922	0.668	667.8	2back	Block3	2back/STIM_010.jpg	99
1484.603	0.584	584.4	2back	Block3	2back/STIM_010.jpg	99
1487.517	0.526	526.0	2back	Block3	2back/STIM_011.jpg	99
1491.235	0.894	893.5	2back	Block3	2back/STIM_011.jpg	99
1495.135	0.91	909.8	2back	Block3	2back/STIM_011.jpg	100
1498.353	0.58	579.7	2back	Block3	2back/STIM_012.jpg	99
1501.937	0.463	463.1	2back	Block3	2back/STIM_012.jpg	100
1506.382	0.836	836.2	2back	Block3	2back/STIM_012.jpg	100
1510.504	0.864	863.8	2back	Block3	2back/STIM_013.jpg	100
1513.58	0.512	512.4	2back	Block3	2back/STIM_013.jpg	100
1518.056	0.718	718.1	2back	Block3	2back/STIM_013.jpg	100
1521.428	0.486	486.1	2back	Block3	2back/STIM_014.jpg	99
1525.305	0.847	846.6	2back	Block3	2back/STIM_014.jpg	100
1528.651	0.809	808.8	2back	Block3	2back/STIM_014.jpg	100
1532.334	0.438	438.1	2back	Block3	2back/STIM_015.jpg	99
1535.431	0.967	967.0	2back	Block3	2back/STIM_015.jpg	99
1538.786	1.01	1009.9	2back	Block3	2back/STIM_015.jpg	100
1542.793	0.721	720.9	2back	Block3	2back/STIM_016.jpg	99
1545.688	0.766	765.7	2back	Block3	2back/STIM_016.jpg	100
1548.457	0.541	541.0	2back	Block3	2back/STIM_016.jpg	99
1552.944	0.643	643.4	2back	Block3	2back/STIM_017.jpg	99
1557.242	0.892	891.8	2back	Block3	2back/STIM_017.jpg	99
1561.653	0.65	650.0	2back	Block3	2back/STIM_017.jpg	99
1564.764	0.863	863.3	2back	Block3	2back/STIM_018.jpg	100
1569.336	0.513	513.2	2back	Block3	2back/STIM_018.jpg	100
1573.026	0.523	522.7	2back	Block3	2back/STIM_018.jpg	99
1576.185	0.506	505.6	2back	Block3	2back/STIM_019.jpg	100
1580.1	0.537	537.3	2back	Block3	2back/STIM_019.jpg	99
1583.893	0.675	675.1	2back	Block3	2back/STIM_019.jpg	100
1587.815	0.961	961.2	2back	Block3	2back/STIM_020.jpg	99
1591.222	0.536	536.3	2back	Block3	2back/STIM_020.jpg	99
1594.687	0.941	941.0	2back	Block3	2back/STIM_020.jpg	99
1598.422	0.623	623.3	2back	Block3	2back/STIM_021.jpg	100
1602.948	0.936	935.9	2back	Block3	2back/STIM_021.jpg	100
1607.599	0.447	447.2	2back	Block3	2back/STIM_021.jpg	99
1611.723	0.574	573.7	2back	Block3	2back/STIM_022.jpg	100
1615.35	0.845	844.8	2back	Block3	2back/STIM_022.jpg	100
1620.044	0.815	815.4	2back	Block3	2back/STIM_022.jpg	99
1624.118	0.958	957.7	2back	Block3	2back/STIM_023.jpg	99
1628.403	0.624	623.8	2back	Block3	2back/STIM_023.jpg	99
1632.283	0.879	879.3	2back	Block3	2back/STIM_023.jpg	100
1635.767	0.484	483.6	2back	Block3	2back/STIM_024.jpg	99
1639.468	0.742	741.8	2back	Block3	2back/STIM_024.jpg	100
1642.312	0.726	726.2	2back	Block3	2back/STIM_024.jpg	99
1645.632	0.482	482.0	2back	Block3	2back/STIM_025.jpg	100
1648.466	0.582	582.0	2back	Block3	2back/STIM_025.jpg	100
1652.279	0.579	579.2	2back	Block3	2back/STIM_025.jpg	100
1656.472	0.8	799.8	2back	Block3	2back/STIM_026.jpg	99
1659.292	0.824	823.8	2back	Block3	2back/STIM_026.jpg	100
1663.956	0.501	501.0	2back	Block3	2back/STIM_026.jpg	99
1668.114	0.901	901.0	2back	Block3	2back/STIM_027.jpg	100
1672.728	0.688	688.2	2back	Block3	2back/STIM_027.jpg	99
1676.241	0.645	644.8	2back	Block3	2back/STIM_027.jpg	99
1679.744	0.906	905.8	2back	Block3	2back/STIM_028.jpg	99
1682.759	0.709	709.4	2back	Block3	2back/STIM_028.jpg	99
1685.612	0.501	500.8	2back	Block3	2back/STIM_028.jpg	100
1688.284	0.85	850.4	2back	Block3	2back/STIM_029.jpg	99
1692.496	0.824	824.2	2back	Block3	2back/STIM_029.jpg	100
1696.676	0.614	614.4	2back	Block3	2back/STIM_029.jpg	100
1700.169	0.842	842.4	2back	Block3	2back/STIM_030.jpg	99
1704.298	0.787	787.2	2back	Block3	2back/STIM_030.jpg	100
1709.057	0.741	741.1	2back	Block3	2back/STIM_030.jpg	100
1712.549	0.717	716.8	2back	Block3	2back/STIM_031.jpg	99
1716.915	0.516	516.3	2back	Block3	2back/STIM_031.jpg	99
1720.548	0.746	746.4	2back	Block3	2back/STIM_031.jpg	100
1724.35	0.787	787.2	2back	Block3	2back/STIM_032.jpg	99
1727.861	0.491	490.6	2back	Block3	2back/STIM_032.jpg	99
1731.489	0.737	736.9	2back	Block3	2back/STIM_032.jpg	99
1736.086	0.707	706.6	2back	Block3	2back/STIM_033.jpg	99
1739.152	0.512	512.5	2back	Block3	2back/STIM_033.jpg	100
1743.176	0.674	673.6	2back	Block3	2back/STIM_033.jpg	99
1747.157	0.539	539.0	2back	Block3	2back/STIM_034.jpg	100
1749.891	0.746	746.3	2back	Block3	2back/STIM_034.jpg	100
1754.309	0.733	732.8	2back	Block3	2back/STIM_034.jpg	99
1757.839	0.78	780.3	2back	Block3	2back/STIM_035.jpg	100
1761.663	0.7	700.3	2back	Block3	2back/STIM_035.jpg	100
1765.468	0.555	554.6	2back	Block3	2back/STIM_035.jpg	100
1769.738	0.805	804.8	2back	Block3	2back/STIM_036.jpg	99
1774.259	0.726	725.9	2back	Block3	2back/STIM_036.jpg	100
1778.138	0.771	771.1	2back	Block3	2back/STIM_036.jpg	100
1781.614	0.509	508.7	2back	Block3	2back/STIM_037.jpg	100
1785.007	0.99	989.5	2back	Block3	2back/STIM_037.jpg	100
1788.566	0.717	717.3	2back	Block3	2back/STIM_037.jpg	100
1792.075	0.856	855.8	2back	Block3	2back/STIM_038.jpg	100
1795.842	0.697	697.1	2back	Block3	2back/STIM_038.jpg	99
1800.333	0.871	871.3	2back	Block3	2back/STIM_038.jpg	100
1804.682	0.808	808.1	2back	Block3	2back/STIM_039.jpg	100
1808.815	0.439	438.8	2back	Block3	2back/STIM_039.jpg	100
1812.05	0.907	907.3	2back	Block3	2back/STIM_039.jpg	100
1815.111	0.702	702.2	0back	Block3	0back/STIM_000.jpg	99
1818.067	0.557	557.4	0back	Block3	0back/STIM_000.jpg	100
1821.179	0.592	591.7	0back	Block3	0back/STIM_000.jpg	100
1825.064	0.591	591.1	0back	Block3	0back/STIM_001.jpg	100
1828.886	0.76	760.4	0back	Block3	0back/STIM_001.jpg	100
1833.209	0.566	565.7	0back	Block3	0back/STIM_001.jpg	100
1835.803	0.534	533.5	0back	Block3	0back/STIM_002.jpg	100
1839.912	0.739	739.3	0back	Block3	0back/STIM_002.jpg	100
1843.626	0.464	464.2	0back	Block3	0back/STIM_002.jpg	100
1847.418	0.741	741.3	0back	Block3	0back/STIM_003.jpg	99
1850.426	0.798	798.4	0back	Block3	0back/STIM_003.jpg	99
1854.569	0.601	601.4	0back	Block3	0back/STIM_003.jpg	99
1857.768	0.616	616.4	0back	Block3	0back/STIM_004.jpg	99
1862.168	0.713	712.7	0back	Block3	0back/STIM_004.jpg	100
1866.332	0.73	729.8	0back	Block3	0back/STIM_004.jpg	99
1870.449	0.697	697.1	0back	Block3	0back/STIM_005.jpg	100
1873.805	0.548	547.5	0back	Block3	0back/STIM_005.jpg	100
1877.164	0.732	732.0	0back	Block3	0back/STIM_005.jpg	99
1880.458	0.763	763.2	0back	Block3	0back/STIM_006.jpg	100
1884.789	0.536	536.3	0back	Block3	0back/STIM_006.jpg	99
1889.237	0.629	629.3	0back	Block3	0back/STIM_006.jpg	100
1893.836	0.578	577.8	0back	Block3	0back/STIM_007.jpg	99
1897.873	0.47	470.0	0back	Block3	0back/STIM_007.jpg	100
1900.939	0.679	678.7	0back	Block3	0back/STIM_007.jpg	100
1905.061	0.561	560.8	0back	Block3	0back/STIM_008.jpg	99
1909.096	0.448	447.6	0back	Block3	0back/STIM_008.jpg	99
1913.283	0.487	486.9	0back	Block3	0back/STIM_008.jpg	100
1916.227	0.686	686.3	0back	Block3	0back/STIM_009.jpg	100
1920.769	0.566	565.7	0back	Block3	0back/STIM_009.jpg	100
1923.602	0.804	804.4	0back	Block3	0back/STIM_009.jpg	99
1927.462	0.586	586.3	0back	Block3	0back/STIM_010.jpg	99
1931.324	0.606	605.9	0back	Block3	0back/STIM_010.jpg	99
1935.845	0.805	804.6	0back	Block3	0back/STIM_010.jpg	99
1938.918	0.471	471.1	0back	Block3	0back/STIM_011.jpg	100
1941.689	0.741	740.6	0back	Block3	0back/STIM_011.jpg	99
1945.939	0.647	647.2	0back	Block3	0back/STIM_011.jpg	100
1950.488	0.529	528.6	0back	Block3	0back/STIM_012.jpg	100
1953.541	0.737	736.8	0back	Block3	0back/STIM_012.jpg	99
1956.87	0.742	741.9	0back	Block3	0back/STIM_012.jpg	100
1961.039	0.621	621.1	0back	Block3	0back/STIM_013.jpg	99
1965.442	0.634	634.5	0back	Block3	0back/STIM_013.jpg	100
1969.918	0.596	596.1	0back	Block3	0back/STIM_013.jpg	99
1973.328	0.795	795.3	0back	Block3	0back/STIM_014.jpg	99
1976.51	0.642	641.5	0back	Block3	0back/STIM_014.jpg	100
1979.908	0.788	788.2	0back	Block3	0back/STIM_014.jpg	100
1984.097	0.512	512.2	0back	Block3	0back/STIM_015.jpg	100
1987.492	0.783	782.9	0back	Block3	0back/STIM_015.jpg	100
1992.229	0.546	545.5	0back	Block3	0back/STIM_015.jpg	99
1996.314	0.597	596.6	0back	Block3	0back/STIM_016.jpg	99
2000.057	0.488	487.9	0back	Block3	0back/STIM_016.jpg	99
2004.298	0.791	791.3	0back	Block3	0back/STIM_016.jpg	100
2008.434	0.587	587.1	0back	Block3	0back/STIM_017.jpg	99
2011.727	0.68	679.9	0back	Block3	0back/STIM_017.jpg	99
2016.22	0.746	745.5	0back	Block3	0back/STIM_017.jpg	99
2019.191	0.806	805.8	0back	Block3	0back/STIM_018.jpg	100
2023.787	0.812	811.6	0back	Block3	0back/STIM_018.jpg	100
2028.261	0.695	695.2	0back	Block3	0back/STIM_018.jpg	99
2032.273	0.458	458.2	0back	Block3	0back/STIM_019.jpg	100
2035.752	0.418	417.8	0back	Block3	0back/STIM_019.jpg	99
2038.192	0.789	789.4	0back	Block3	0back/STIM_019.jpg	100
2042.334	0.767	767.4	2back	Block4	2back/STIM_000.jpg	99
2045.449	0.691	691.0	2back	Block4	2back/STIM_000.jpg	100
2049.781	0.72	720.0	2back	Block4	2back/STIM_000.jpg	100
2053.192	0.592	591.8	2back	Block4	2back/STIM_001.jpg	100
2055.923	0.827	827.0	2back	Block4	2back/STIM_001.jpg	99
2059.528	0.923	923.4	2back	Block4	2back/STIM_001.jpg	100
2062.512	0.991	991.0	2back	Block4	2back/STIM_002.jpg	100
2066.295	0.947	947.2	2back	Block4	2back/STIM_002.jpg	99
2070.255	0.533	532.8	2back	Block4	2back/STIM_002.jpg	100
2074.524	0.939	939.4	2back	Block4	2back/STIM_003.jpg	100
2078.876	0.811	810.6	2back	Block4	2back/STIM_003.jpg	100
2082.285	0.614	613.5	2back	Block4	2back/STIM_003.jpg	99
2085.146	0.526	526.0	2back	Block4	2back/STIM_004.jpg	100
2089.162	0.558	557.7	2back	Block4	2back/STIM_004.jpg	99
2092.107	0.763	762.6	2back	Block4	2back/STIM_004.jpg	99
2095.211	0.897	897.4	2back	Block4	2back/STIM_005.jpg	99
2099.333	0.596	595.7	2back	Block4	2back/STIM_005.jpg	99
2102.245	0.667	667.4	2back	Block4	2back/STIM_005.jpg	99
2106.597	0.838	837.7	2back	Block4	2back/STIM_006.jpg	100
2109.996	0.825	825.1	2back	Block4	2back/STIM_006.jpg	99
2114.108	0.802	802.0	2back	Block4	2back/STIM_006.jpg	99
2118.337	0.897	896.9	2back	Block4	2back/STIM_007.jpg	100
2122.268	0.974	973.5	2back	Block4	2back/STIM_007.jpg	99
2126.402	0.966	966.2	2back	Block4	2back/STIM_007.jpg	99
2131.066	0.811	811.4	2back	Block4	2back/STIM_008.jpg	100
2134.991	0.859	859.3	2back	Block4	2back/STIM_008.jpg	99
2139.236	0.61	610.3	2back	Block4	2back/STIM_008.jpg	99
2142.157	0.563	562.6	2back	Block4	2back/STIM_009.jpg	100
2144.838	0.963	962.6	2back	Block4	2back/STIM_009.jpg	99
2148.74	0.456	455.6	2back	Block4	2back/STIM_009.jpg	99
2151.396	0.702	701.8	2back	Block4	2back/STIM_010.jpg	99
2156.009	0.446	445.6	2back	Block4	2back/STIM_010.jpg	100
2158.609	0.494	494.2	2back	Block4	2back/STIM_010.jpg	100
2161.438	0.988	988.0	2back	Block4	2back/STIM_011.jpg	100
2165.279	0.535	534.6	2back	Block4	2back/STIM_011.jpg	100
2169.173	0.714	713.8	2back	Block4	2back/STIM_011.jpg	99
2171.902	0.699	699.1	2back	Block4	2back/STIM_012.jpg	99
2175.054	0.723	723.3	2back	Block4	2back/STIM_012.jpg	100
2178.914	0.711	710.9	2back	Block4	2back/STIM_012.jpg	99
2182.247	0.62	619.9	2back	Block4	2back/STIM_013.jpg	100
2186.338	0.834	833.9	2back	Block4	2back/STIM_013.jpg	100
2191.082	0.533	532.9	2back	Block4	2back/STIM_013.jpg	100
2195.13	0.882	881.9	2back	Block4	2back/STIM_014.jpg	99
2198.383	0.56	560.2	2back	Block4	2back/STIM_014.jpg	100
2201.851	0.44	440.0	2back	Block4	2back/STIM_014.jpg	100
2205.516	0.955	954.9	2back	Block4	2back/STIM_015.jpg	99
2209.895	0.735	734.7	2back	Block4	2back/STIM_015.jpg	99
2213.436	0.878	878.0	2back	Block4	2back/STIM_015.jpg	100
2217.518	0.962	962.5	2back	Block4	2back/STIM_016.jpg	100
2221.765	0.503	503.3	2back	Block4	2back/STIM_016.jpg	99
2224.301	0.459	458.8	2back	Block4	2back/STIM_016.jpg	99
2227.791	0.783	782.8	2back	Block4	2back/STIM_017.jpg	100
2232.2	0.459	458.8	2back	Block4	2back/STIM_017.jpg	100
2235.531	0.695	695.4	2back	Block4	2back/STIM_017.jpg	100
2238.39	0.658	657.6	2back	Block4	2back/STIM_018.jpg	99
2241.654	0.599	599.1	2back	Block4	2back/STIM_018.jpg	100
2244.7	0.666	666.3	2back	Block4	2back/STIM_018.jpg	100
2248.401	0.8	800.4	2back	Block4	2back/STIM_019.jpg	100
2252.79	0.475	474.6	2back	Block4	2back/STIM_019.jpg	99
2255.516	0.574	573.6	2back	Block4	2back/STIM_019.jpg	100
2258.44	0.845	844.6	2back	Block4	2back/STIM_020.jpg	99
2262.603	0.462	462.0	2back	Block4	2back/STIM_020.jpg	99
2266.311	0.747	747.0	2back	Block4	2back/STIM_020.jpg	100
2269.262	0.541	540.7	2back	Block4	2back/STIM_021.jpg	100
2272.943	0.995	995.0	2back	Block4	2back/STIM_021.jpg	100
2277.307	0.661	660.9	2back	Block4	2back/STIM_021.jpg	99
2281.231	0.684	683.8	2back	Block4	2back/STIM_022.jpg	100
2285.828	0.794	793.6	2back	Block4	2back/STIM_022.jpg	99
2288.884	0.984	984.0	2back	Block4	2back/STIM_022.jpg	100
2292.331	0.553	553.0	2back	Block4	2back/STIM_023.jpg	100
2296.313	0.684	683.5	2back	Block4	2back/STIM_023.jpg	100
2300.972	0.611	610.7	2back	Block4	2back/STIM_023.jpg	99
2303.626	0.663	663.1	2back	Block4	2back/STIM_024.jpg	99
2306.564	0.813	812.7	2back	Block4	2back/STIM_024.jpg	99
2310.178	0.442	442.5	2back	Block4	2back/STIM_024.jpg	100
2312.972	0.928	928.3	2back	Block4	2back/STIM_025.jpg	99
2316.024	0.521	520.9	2back	Block4	2back/STIM_025.jpg	100
2319.38	0.838	838.0	2back	Block4	2back/STIM_025.jpg	99
2323.94	0.487	487.4	2back	Block4	2back/STIM_026.jpg	99
2326.531	0.754	754.2	2back	Block4	2back/STIM_026.jpg	99
2330.032	0.457	456.7	2back	Block4	2back/STIM_026.jpg	99
2332.648	0.761	761.1	2back	Block4	2back/STIM_027.jpg	100
2335.561	0.843	842.7	2back	Block4	2back/STIM_027.jpg	100
2338.745	0.491	491.1	2back	Block4	2back/STIM_027.jpg	99
2341.693	0.879	879.3	2back	Block4	2back/STIM_028.jpg	99
2345.302	0.821	821.3	2back	Block4	2back/STIM_028.jpg	100
2348.315	0.811	811.0	2back	Block4	2back/STIM_028.jpg	100
2351.304	0.462	462.4	2back	Block4	2back/STIM_029.jpg	100
2354.371	0.83	829.6	2back	Block4	2back/STIM_029.jpg	100
2357.635	0.853	853.4	2back	Block4	2back/STIM_029.jpg	100
2362.397	0.772	772.1	2back	Block4	2back/STIM_030.jpg	99
2367.137	0.995	994.8	2back	Block4	2back/STIM_030.jpg	100
2371.192	0.81	809.9	2back	Block4	2back/STIM_030.jpg	100
2375.042	0.922	921.6	2back	Block4	2back/STIM_031.jpg	99
2378.546	0.567	566.6	2back	Block4	2back/STIM_031.jpg	99
2381.537	0.647	647.4	2back	Block4	2back/STIM_031.jpg	100
2385.431	0.889	889.3	2back	Block4	2back/STIM_032.jpg	100
2389.351	0.612	611.6	2back	Block4	2back/STIM_032.jpg	99
2392.738	0.981	981.3	2back	Block4	2back/STIM_032.jpg	100
2396.743	0.589	589.4	2back	Block4	2back/STIM_033.jpg	100
2400.272	0.495	494.7	2back	Block4	2back/STIM_033.jpg	99
2403.015	0.828	828.3	2back	Block4	2back/STIM_033.jpg	100
2407.484	0.921	921.3	2back	Block4	2back/STIM_034.jpg	99
2411.742	0.482	482.5	2back	Block4	2back/STIM_034.jpg	99
2415.042	0.647	646.6	2back	Block4	2back/STIM_034.jpg	99
2418.68	0.718	717.5	2back	Block4	2back/STIM_035.jpg	100
2422.376	0.874	873.6	2back	Block4	2back/STIM_035.jpg	99
2426.835	0.821	820.9	2back	Block4	2back/STIM_035.jpg	99
2430.155	0.656	655.9	2back	Block4	2back/STIM_036.jpg	100
2433.147	0.685	684.7	2back	Block4	2back/STIM_036.jpg	100
2436.677	0.443	442.9	2back	Block4	2back/STIM_036.jpg	100
2440.874	0.601	600.7	2back	Block4	2back/STIM_037.jpg	99
2445.197	0.478	478.0	2back	Block4	2back/STIM_037.jpg	99
2448.916	0.572	572.1	2back	Block4	2back/STIM_037.jpg	100
2451.598	1.011	1010.9	2back	Block4	2back/STIM_038.jpg	99
2455.547	0.805	804.6	2back	Block4	2back/STIM_038.jpg	100
2458.787	0.666	666.2	2back	Block4	2back/STIM_038.jpg	100
2463.063	0.995	994.9	2back	Block4	2back/STIM_039.jpg	100
2466.622	0.612	611.6	2back	Block4	2back/STIM_039.jpg	99
2469.334	0.802	802.4	2back	Block4	2back/STIM_039.jpg	100
2472.643	0.446	446.1	0back	Block4	0back/STIM_000.jpg	99
2476.195	0.63	629.7	0back	Block4	0back/STIM_000.jpg	99
2480.471	0.557	557.4	0back	Block4	0back/STIM_000.jpg	100
2484.109	0.653	653.0	0back	Block4	0back/STIM_001.jpg	100
2487.334	0.511	511.2	0back	Block4	0back/STIM_001.jpg	100
2489.987	0.786	786.1	0back	Block4	0back/STIM_001.jpg	99
2492.923	0.698	697.7	0back	Block4	0back/STIM_002.jpg	99
2496.065	0.499	498.6	0back	Block4	0back/STIM_002.jpg	100
2499.314	0.498	498.5	0back	Block4	0back/STIM_002.jpg	99
2502.84	0.588	587.7	0back	Block4	0back/STIM_003.jpg	99
2505.492	0.639	639.4	0back	Block4	0back/STIM_003.jpg	99
2509.467	0.534	534.5	0back	Block4	0back/STIM_003.jpg	100
2513.088	0.757	756.6	0back	Block4	0back/STIM_004.jpg	99
2516.913	0.625	625.4	0back	Block4	0back/STIM_004.jpg	99
2520.665	0.546	546.0	0back	Block4	0back/STIM_004.jpg	99
2524.171	0.599	599.4	0back	Block4	0back/STIM_005.jpg	99
2528.615	0.542	541.9	0back	Block4	0back/STIM_005.jpg	99
2531.934	0.541	540.7	0back	Block4	0back/STIM_005.jpg	100
2536.437	0.812	811.8	0back	Block4	0back/STIM_006.jpg	100
2540.109	0.539	539.4	0back	Block4	0back/STIM_006.jpg	100
2544.304	0.822	822.5	0back	Block4	0back/STIM_006.jpg	100
2548.315	0.459	458.7	0back	Block4	0back/STIM_007.jpg	99
2550.787	0.651	651.1	0back	Block4	0back/STIM_007.jpg	100
2554.214	0.701	701.4	0back	Block4	0back/STIM_007.jpg	99
2557.839	0.423	423.2	0back	Block4	0back/STIM_008.jpg	100
2560.506	0.528	528.2	0back	Block4	0back/STIM_008.jpg	99
2564.987	0.442	441.9	0back	Block4	0back/STIM_008.jpg	100
2568.871	0.762	761.6	0back	Block4	0back/STIM_009.jpg	100
2572.55	0.608	607.6	0back	Block4	0back/STIM_009.jpg	99
2576.676	0.544	544.5	0back	Block4	0back/STIM_009.jpg	99
2580.03	0.694	694.0	0back	Block4	0back/STIM_010.jpg	99
2583.673	0.679	678.7	0back	Block4	0back/STIM_010.jpg	99
2586.402	0.486	486.3	0back	Block4	0back/STIM_010.jpg	99
2590.288	0.768	767.8	0back	Block4	0back/STIM_011.jpg	99
2593.533	0.812	812.4	0back	Block4	0back/STIM_011.jpg	99
2598.096	0.45	450.2	0back	Block4	0back/STIM_011.jpg	100
2602.143	0.503	502.8	0back	Block4	0back/STIM_012.jpg	100
2604.964	0.799	799.2	0back	Block4	0back/STIM_012.jpg	99
2608.496	0.825	824.7	0back	Block4	0back/STIM_012.jpg	100
2612.371	0.785	785.2	0back	Block4	0back/STIM_013.jpg	99
2616.638	0.633	632.6	0back	Block4	0back/STIM_013.jpg	100
2619.447	0.722	721.8	0back	Block4	0back/STIM_013.jpg	99
2623.844	0.676	675.7	0back	Block4	0back/STIM_014.jpg	100
2626.976	0.799	799.1	0back	Block4	0back/STIM_014.jpg	100
2630.867	0.677	677.1	0back	Block4	0back/STIM_014.jpg	100
2634.185	0.416	416.0	0back	Block4	0back/STIM_015.jpg	100
2636.717	0.61	610.4	0back	Block4	0back/STIM_015.jpg	99
2641.191	0.681	681.3	0back	Block4	0back/STIM_015.jpg	99
2643.932	0.712	712.2	0back	Block4	0back/STIM_016.jpg	100
2648.223	0.469	468.9	0back	Block4	0back/STIM_016.jpg	100
2650.984	0.801	801.3	0back	Block4	0back/STIM_016.jpg	100
2654.536	0.419	418.7	0back	Block4	0back/STIM_017.jpg	100
2657.905	0.43	430.3	0back	Block4	0back/STIM_017.jpg	100
2660.373	0.557	556.8	0back	Block4	0back/STIM_017.jpg	99
2663.613	0.622	622.2	0back	Block4	0back/STIM_018.jpg	99
2668.129	0.55	550.5	0back	Block4	0back/STIM_018.jpg	99
2672.264	0.441	441.3	0back	Block4	0back/STIM_018.jpg	100
2675.946	0.743	743.3	0back	Block4	0back/STIM_019.jpg	100
2678.848	0.417	417.4	0back	Block4	0back/STIM_019.jpg	100
2683.118	0.61	609.8	0back	Block4	0back/STIM_019.jpg	99
