onset	duration	response_time_ms	trial_type	learning_stage	stimulus	response_port
0.0	3.065	3064.8	navigation	Trial1	navigation/STIM_000.jpg	100
7.023	1.704	1704.5	navigation	Trial1	navigation/STIM_000.jpg	100
12.623	2.035	2034.8	navigation	Trial1	navigation/STIM_000.jpg	99
17.984	2.597	2597.4	navigation	Trial1	navigation/STIM_000.jpg	99
24.195	2.163	2162.6	navigation	Trial1	navigation/STIM_000.jpg	99
28.976	1.706	1705.5	navigation	Trial1	navigation/STIM_000.jpg	100
33.469	2.917	2916.7	navigation	Trial1	navigation/STIM_001.jpg	99
38.907	2.228	2228.4	navigation	Trial1	navigation/STIM_001.jpg	100
43.57	2.502	2501.6	navigation	Trial1	navigation/STIM_001.jpg	99
48.695	2.853	2853.1	navigation	Trial1	navigation/STIM_001.jpg	99
54.8	2.547	2546.6	navigation	Trial1	navigation/STIM_001.jpg	100
60.256	2.443	2443.0	navigation	Trial1	navigation/STIM_001.jpg	100
65.805	2.011	2010.7	navigation	Trial1	navigation/STIM_002.jpg	99
71.008	3.364	3363.8	navigation	Trial1	navigation/STIM_002.jpg	100
76.404	2.613	2612.7	navigation	Trial1	navigation/STIM_002.jpg	99
81.275	2.64	2639.7	navigation	Trial1	navigation/STIM_002.jpg	100
86.391	1.641	1640.7	navigation	Trial1	navigation/STIM_002.jpg	99
91.575	2.422	2421.6	navigation	Trial1	navigation/STIM_002.jpg	99
96.158	1.588	1587.9	navigation	Trial1	navigation/STIM_003.jpg	100
101.663	1.594	1594.1	navigation	Trial1	navigation/STIM_003.jpg	100
106.477	3.192	3192.0	navigation	Trial1	navigation/STIM_003.jpg	99
112.333	3.008	3008.5	navigation	Trial1	navigation/STIM_003.jpg	99
118.335	2.425	2425.2	navigation	Trial1	navigation/STIM_003.jpg	100
124.067	1.999	1999.3	navigation	Trial1	navigation/STIM_003.jpg	99
128.632	2.344	2343.7	navigation	Trial1	navigation/STIM_004.jpg	100
133.068	2.665	2665.1	navigation	Trial1	navigation/STIM_004.jpg	99
138.492	3.187	3186.7	navigation	Trial1	navigation/STIM_004.jpg	100
144.205	3.114	3114.0	navigation	Trial1	navigation/STIM_004.jpg	99
150.682	2.315	2315.4	navigation	Trial1	navigation/STIM_004.jpg	100
156.421	2.668	2667.8	navigation	Trial1	navigation/STIM_004.jpg	99
162.84	3.711	3710.9	navigation	Trial1	navigation/STIM_005.jpg	100
168.964	2.326	2326.5	navigation	Trial1	navigation/STIM_005.jpg	100
173.633	3.085	3085.1	navigation	Trial1	navigation/STIM_005.jpg	99
180.236	1.551	1550.8	navigation	Trial1	navigation/STIM_005.jpg	99
185.385	1.238	1237.9	navigation	Trial1	navigation/STIM_005.jpg	99
190.456	2.52	2519.9	navigation	Trial1	navigation/STIM_005.jpg	99
195.616	1.684	1683.6	navigation	Trial1	navigation/STIM_006.jpg	100
200.569	2.319	2318.7	navigation	Trial1	navigation/STIM_006.jpg	100
205.316	2.576	2575.7	navigation	Trial1	navigation/STIM_006.jpg	100
211.092	3.165	3165.1	navigation	Trial1	navigation/STIM_006.jpg	100
216.505	3.046	3046.5	navigation	Trial1	navigation/STIM_006.jpg	100
221.67	2.835	2834.6	navigation	Trial1	navigation/STIM_006.jpg	100
228.019	2.205	2204.8	navigation	Trial1	navigation/STIM_007.jpg	99
232.533	1.959	1959.4	navigation	Trial1	navigation/STIM_007.jpg	99
238.097	3.33	3330.3	navigation	Trial1	navigation/STIM_007.jpg	100
245.364	3.198	3198.2	navigation	Trial1	navigation/STIM_007.jpg	99
252.251	2.451	2451.3	navigation	Trial1	navigation/STIM_007.jpg	100
257.567	1.334	1334.2	navigation	Trial1	navigation/STIM_007.jpg	99
261.986	1.732	1731.8	navigation	Trial1	navigation/STIM_008.jpg	100
267.477	2.136	2135.5	navigation	Trial1	navigation/STIM_008.jpg	100
272.134	1.525	1524.9	navigation	Trial1	navigation/STIM_008.jpg	99
275.797	2.88	2879.6	navigation	Trial1	navigation/STIM_008.jpg	99
281.341	2.275	2275.4	navigation	Trial1	navigation/STIM_008.jpg	100
286.506	2.563	2563.4	navigation	Trial1	navigation/STIM_008.jpg	99
291.541	2.383	2383.1	navigation	Trial1	navigation/STIM_009.jpg	99
296.514	2.819	2819.2	navigation	Trial1	navigation/STIM_009.jpg	99
302.357	2.471	2470.9	navigation	Trial1	navigation/STIM_009.jpg	100
307.27	2.678	2677.9	navigation	Trial1	navigation/STIM_009.jpg	100
312.35	2.048	2048.0	navigation	Trial1	navigation/STIM_009.jpg	99
318.01	1.712	1712.1	navigation	Trial1	navigation/STIM_009.jpg	99
322.257	3.762	3761.6	navigation	Trial1	navigation/STIM_010.jpg	100
328.269	3.431	3431.0	navigation	Trial1	navigation/STIM_010.jpg	100
334.148	1.699	1699.3	navigation	Trial1	navigation/STIM_010.jpg	99
339.012	1.324	1323.9	navigation	Trial1	navigation/STIM_010.jpg	99
342.424	1.742	1741.6	navigation	Trial1	navigation/STIM_010.jpg	99
348.005	2.315	2315.3	navigation	Trial1	navigation/STIM_010.jpg	100
354.089	2.825	2824.8	navigation	Trial1	navigation/STIM_011.jpg	100
360.025	2.851	2851.2	navigation	Trial1	navigation/STIM_011.jpg	99
365.289	1.618	1617.6	navigation	Trial1	navigation/STIM_011.jpg	100
369.1	2.585	2584.8	navigation	Trial1	navigation/STIM_011.jpg	99
374.932	1.785	1785.3	navigation	Trial1	navigation/STIM_011.jpg	100
378.783	2.588	2587.7	navigation	Trial1	navigation/STIM_011.jpg	100
384.395	0.676	676.4	pointing	Trial1	pointing/STIM_000.jpg	100
387.588	0.628	628.4	pointing	Trial1	pointing/STIM_000.jpg	99
390.866	0.767	766.6	pointing	Trial1	pointing/STIM_000.jpg	99
395.522	0.982	981.5	pointing	Trial1	pointing/STIM_000.jpg	99
400.128	1.031	1031.3	pointing	Trial1	pointing/STIM_000.jpg	100
403.827	0.794	793.9	pointing	Trial1	pointing/STIM_000.jpg	100
406.663	0.668	668.5	pointing	Trial1	pointing/STIM_001.jpg	99
409.607	0.698	697.8	pointing	Trial1	pointing/STIM_001.jpg	100
414.122	0.814	814.4	pointing	Trial1	pointing/STIM_001.jpg	99
417.137	1.052	1052.3	pointing	Trial1	pointing/STIM_001.jpg	99
421.523	0.89	890.1	pointing	Trial1	pointing/STIM_001.jpg	100
425.36	0.656	656.1	pointing	Trial1	pointing/STIM_001.jpg	99
428.176	1.013	1012.8	pointing	Trial1	pointing/STIM_002.jpg	100
432.035	1.124	1123.7	pointing	Trial1	pointing/STIM_002.jpg	100
436.663	0.636	635.9	pointing	Trial1	pointing/STIM_002.jpg	99
439.909	0.867	866.9	pointing	Trial1	pointing/STIM_002.jpg	99
443.122	1.031	1031.2	pointing	Trial1	pointing/STIM_002.jpg	100
447.915	0.871	870.7	pointing	Trial1	pointing/STIM_002.jpg	100
451.537	0.678	678.4	pointing	Trial1	pointing/STIM_003.jpg	99
455.464	0.75	750.0	pointing	Trial1	pointing/STIM_003.jpg	99
459.55	0.648	647.9	pointing	Trial1	pointing/STIM_003.jpg	99
463.761	1.053	1052.6	pointing	Trial1	pointing/STIM_003.jpg	99
467.431	0.728	727.6	pointing	Trial1	pointing/STIM_003.jpg	100
470.194	0.953	953.0	pointing	Trial1	pointing/STIM_003.jpg	100
474.549	1.033	1033.0	pointing	Trial1	pointing/STIM_004.jpg	100
478.92	0.928	928.2	pointing	Trial1	pointing/STIM_004.jpg	100
482.73	0.688	688.2	pointing	Trial1	pointing/STIM_004.jpg	100
486.67	0.754	753.9	pointing	Trial1	pointing/STIM_004.jpg	100
489.842	0.735	735.1	pointing	Trial1	pointing/STIM_004.jpg	99
493.591	0.653	652.9	pointing	Trial1	pointing/STIM_004.jpg	100
497.174	0.671	671.0	pointing	Trial1	pointing/STIM_005.jpg	99
501.108	0.889	888.7	pointing	Trial1	pointing/STIM_005.jpg	99
504.572	0.617	617.4	pointing	Trial1	pointing/STIM_005.jpg	100
508.526	1.107	1107.0	pointing	Trial1	pointing/STIM_005.jpg	100
512.535	0.668	667.7	pointing	Trial1	pointing/STIM_005.jpg	100
516.8	0.897	897.2	pointing	Trial1	pointing/STIM_005.jpg	99
520.807	0.856	855.5	pointing	Trial1	pointing/STIM_006.jpg	100
525.661	0.72	720.0	pointing	Trial1	pointing/STIM_006.jpg	100
530.155	0.724	724.1	pointing	Trial1	pointing/STIM_006.jpg	100
533.744	1.149	1148.8	pointing	Trial1	pointing/STIM_006.jpg	100
537.514	0.82	820.3	pointing	Trial1	pointing/STIM_006.jpg	99
541.738	1.114	1114.0	pointing	Trial1	pointing/STIM_006.jpg	99
546.51	0.651	650.8	pointing	Trial1	pointing/STIM_007.jpg	100
550.007	1.05	1050.4	pointing	Trial1	pointing/STIM_007.jpg	100
554.696	0.942	942.3	pointing	Trial1	pointing/STIM_007.jpg	100
557.69	0.865	865.0	pointing	Trial1	pointing/STIM_007.jpg	100
562.44	0.624	624.2	pointing	Trial1	pointing/STIM_007.jpg	99
566.363	0.648	648.2	pointing	Trial1	pointing/STIM_007.jpg	100
570.686	0.944	944.3	pointing	Trial1	pointing/STIM_008.jpg	99
575.623	1.012	1011.9	pointing	Trial1	pointing/STIM_008.jpg	99
579.622	0.986	986.2	pointing	Trial1	pointing/STIM_008.jpg	100
584.576	0.678	678.5	pointing	Trial1	pointing/STIM_008.jpg	100
587.322	1.149	1149.1	pointing	Trial1	pointing/STIM_008.jpg	100
592.124	0.817	817.0	pointing	Trial1	pointing/STIM_008.jpg	100
595.086	1.028	1028.3	pointing	Trial1	pointing/STIM_009.jpg	100
598.393	0.876	875.6	pointing	Trial1	pointing/STIM_009.jpg	99
601.308	0.705	705.1	pointing	Trial1	pointing/STIM_009.jpg	99
605.578	0.781	781.1	pointing	Trial1	pointing/STIM_009.jpg	99
610.201	0.683	683.1	pointing	Trial1	pointing/STIM_009.jpg	99
613.321	1.085	1084.8	pointing	Trial1	pointing/STIM_009.jpg	100
617.849	0.658	658.1	pointing	Trial1	pointing/STIM_010.jpg	99
621.254	0.702	702.0	pointing	Trial1	pointing/STIM_010.jpg	99
625.088	0.848	848.4	pointing	Trial1	pointing/STIM_010.jpg	99
629.785	0.988	988.0	pointing	Trial1	pointing/STIM_010.jpg	99
633.893	0.66	660.0	pointing	Trial1	pointing/STIM_010.jpg	100
637.888	0.679	679.1	pointing	Trial1	pointing/STIM_010.jpg	100
641.111	0.754	754.3	pointing	Trial1	pointing/STIM_011.jpg	100
645.786	0.832	832.2	pointing	Trial1	pointing/STIM_011.jpg	99
649.417	1.081	1081.4	pointing	Trial1	pointing/STIM_011.jpg	99
654.226	0.759	758.7	pointing	Trial1	pointing/STIM_011.jpg	99
657.212	0.667	667.0	pointing	Trial1	pointing/STIM_011.jpg	100
661.001	0.821	821.4	pointing	Trial1	pointing/STIM_011.jpg	99
664.284	2.803	2802.7	navigation	Trial2	navigation/STIM_000.jpg	99
669.878	2.207	2206.6	navigation	Trial2	navigation/STIM_000.jpg	99
675.906	2.759	2758.6	navigation	Trial2	navigation/STIM_000.jpg	100
682.49	1.627	1626.7	navigation	Trial2	navigation/STIM_000.jpg	100
686.397	1.931	1930.6	navigation	Trial2	navigation/STIM_000.jpg	99
692.077	1.974	1974.1	navigation	Trial2	navigation/STIM_000.jpg	100
696.923	1.622	1621.7	navigation	Trial2	navigation/STIM_001.jpg	99
702.118	1.988	1988.5	navigation	Trial2	navigation/STIM_001.jpg	99
707.032	1.545	1545.3	navigation	Trial2	navigation/STIM_001.jpg	100
711.063	1.883	1883.0	navigation	Trial2	navigation/STIM_001.jpg	99
715.268	2.509	2508.8	navigation	Trial2	navigation/STIM_001.jpg	100
721.399	1.387	1386.6	navigation	Trial2	navigation/STIM_001.jpg	99
726.117	2.997	2997.2	navigation	Trial2	navigation/STIM_002.jpg	99
731.553	2.283	2283.3	navigation	Trial2	navigation/STIM_002.jpg	99
736.371	1.936	1936.2	navigation	Trial2	navigation/STIM_002.jpg	99
740.421	2.11	2110.0	navigation	Trial2	navigation/STIM_002.jpg	100
746.517	1.428	1428.2	navigation	Trial2	navigation/STIM_002.jpg	100
750.344	2.257	2257.4	navigation	Trial2	navigation/STIM_002.jpg	100
756.126	1.862	1861.7	navigation	Trial2	navigation/STIM_003.jpg	100
761.659	2.73	2730.3	navigation	Trial2	navigation/STIM_003.jpg	100
767.215	1.183	1183.3	navigation	Trial2	navigation/STIM_003.jpg	100
770.45	1.518	1518.4	navigation	Trial2	navigation/STIM_003.jpg	100
775.922	1.196	1195.9	navigation	Trial2	navigation/STIM_003.jpg	100
780.173	1.68	1680.0	navigation	Trial2	navigation/STIM_003.jpg	99
785.706	1.604	1603.8	navigation	Trial2	navigation/STIM_004.jpg	100
789.642	3.027	3027.1	navigation	Trial2	navigation/STIM_004.jpg	100
796.297	1.826	1825.9	navigation	Trial2	navigation/STIM_004.jpg	99
802.085	2.495	2495.0	navigation	Trial2	navigation/STIM_004.jpg	99
807.143	2.568	2568.0	navigation	Trial2	navigation/STIM_004.jpg	100
812.392	2.132	2131.8	navigation	Trial2	navigation/STIM_004.jpg	100
817.481	1.86	1860.1	navigation	Trial2	navigation/STIM_005.jpg	100
821.586	1.812	1811.7	navigation	Trial2	navigation/STIM_005.jpg	99
826.932	1.936	1936.2	navigation	Trial2	navigation/STIM_005.jpg	99
831.027	1.406	1406.0	navigation	Trial2	navigation/STIM_005.jpg	99
835.445	1.382	1381.8	navigation	Trial2	navigation/STIM_005.jpg	99
839.627	2.634	2634.4	navigation	Trial2	navigation/STIM_005.jpg	100
844.831	2.271	2271.1	navigation	Trial2	navigation/STIM_006.jpg	99
849.753	1.557	1557.2	navigation	Trial2	navigation/STIM_006.jpg	100
854.303	2.141	2141.1	navigation	Trial2	navigation/STIM_006.jpg	99
858.574	2.26	2260.0	navigation	Trial2	navigation/STIM_006.jpg	100
863.594	2.048	2048.4	navigation	Trial2	navigation/STIM_006.jpg	99
868.078	1.833	1832.6	navigation	Trial2	navigation/STIM_006.jpg	100
873.054	2.099	2099.1	navigation	Trial2	navigation/STIM_007.jpg	99
877.612	2.252	2252.5	navigation	Trial2	navigation/STIM_007.jpg	99
883.538	2.786	2785.5	navigation	Trial2	navigation/STIM_007.jpg	99
888.773	1.451	1451.3	navigation	Trial2	navigation/STIM_007.jpg	99
893.455	2.57	2569.5	navigation	Trial2	navigation/STIM_007.jpg	100
899.932	2.596	2595.7	navigation	Trial2	navigation/STIM_007.jpg	100
904.843	2.072	2072.0	navigation	Trial2	navigation/STIM_008.jpg	99
909.715	1.352	1352.3	navigation	Trial2	navigation/STIM_008.jpg	99
913.391	2.781	2781.4	navigation	Trial2	navigation/STIM_008.jpg	99
920.086	2.288	2288.0	navigation	Trial2	navigation/STIM_008.jpg	99
925.002	1.152	1152.4	navigation	Trial2	navigation/STIM_008.jpg	100
929.012	1.42	1420.4	navigation	Trial2	navigation/STIM_008.jpg	100
932.842	2.384	2384.2	navigation	Trial2	navigation/STIM_009.jpg	100
938.248	2.098	2097.7	navigation	Trial2	navigation/STIM_009.jpg	100
944.074	2.016	2016.1	navigation	Trial2	navigation/STIM_009.jpg	99
949.518	1.629	1629.2	navigation	Trial2	navigation/STIM_009.jpg	100
954.601	2.468	2468.2	navigation	Trial2	navigation/STIM_009.jpg	99
960.12	1.301	1301.4	navigation	Trial2	navigation/STIM_009.jpg	100
964.633	3.042	3041.7	navigation	Trial2	navigation/STIM_010.jpg	99
970.702	2.574	2574.2	navigation	Trial2	navigation/STIM_010.jpg	100
976.243	1.314	1314.5	navigation	Trial2	navigation/STIM_010.jpg	100
981.311	2.08	2079.5	navigation	Trial2	navigation/STIM_010.jpg	99
986.69	2.261	2261.3	navigation	Trial2	navigation/STIM_010.jpg	100
992.429	2.51	2509.9	navigation	Trial2	navigation/STIM_010.jpg	100
998.394	3.0	3000.3	navigation	Trial2	navigation/STIM_011.jpg	99
1003.743	2.404	2404.4	navigation	Trial2	navigation/STIM_011.jpg	100
1009.167	1.478	1478.3	navigation	Trial2	navigation/STIM_011.jpg	99
1014.368	1.075	1075.2	navigation	Trial2	navigation/STIM_011.jpg	99
1019.321	2.552	2551.6	navigation	Trial2	navigation/STIM_011.jpg	99
1023.971	2.444	2443.8	navigation	Trial2	navigation/STIM_011.jpg	99
1029.648	0.745	745.0	pointing	Trial2	pointing/STIM_000.jpg	99
1033.118	1.121	1121.1	pointing	Trial2	pointing/STIM_000.jpg	99
1036.946	0.802	802.0	pointing	Trial2	pointing/STIM_000.jpg	99
1041.536	1.039	1039.2	pointing	Trial2	pointing/STIM_000.jpg	99
1044.817	0.89	890.4	pointing	Trial2	pointing/STIM_000.jpg	99
1049.324	1.052	1051.5	pointing	Trial2	pointing/STIM_000.jpg	99
1053.455	0.928	927.8	pointing	Trial2	pointing/STIM_001.jpg	100
1057.79	0.864	863.9	pointing	Trial2	pointing/STIM_001.jpg	100
1061.394	0.878	877.6	pointing	Trial2	pointing/STIM_001.jpg	100
1065.454	1.146	1145.9	pointing	Trial2	pointing/STIM_001.jpg	100
1069.897	0.849	848.8	pointing	Trial2	pointing/STIM_001.jpg	99
1072.993	0.747	746.6	pointing	Trial2	pointing/STIM_001.jpg	99
1077.477	1.092	1091.5	pointing	Trial2	pointing/STIM_002.jpg	99
1080.688	1.15	1149.7	pointing	Trial2	pointing/STIM_002.jpg	100
1085.553	0.642	642.1	pointing	Trial2	pointing/STIM_002.jpg	99
1088.874	1.024	1024.3	pointing	Trial2	pointing/STIM_002.jpg	99
1093.493	0.76	759.7	pointing	Trial2	pointing/STIM_002.jpg	99
1096.73	0.889	889.0	pointing	Trial2	pointing/STIM_002.jpg	100
1100.131	1.083	1083.2	pointing	Trial2	pointing/STIM_003.jpg	100
1103.295	1.036	1036.5	pointing	Trial2	pointing/STIM_003.jpg	100
1107.647	0.749	749.3	pointing	Trial2	pointing/STIM_003.jpg	100
1111.819	0.975	974.8	pointing	Trial2	pointing/STIM_003.jpg	99
1115.842	1.029	1028.7	pointing	Trial2	pointing/STIM_003.jpg	100
1120.752	0.668	668.4	pointing	Trial2	pointing/STIM_003.jpg	99
1125.001	1.038	1037.6	pointing	Trial2	pointing/STIM_004.jpg	99
1130.003	0.857	857.4	pointing	Trial2	pointing/STIM_004.jpg	100
1133.882	1.069	1069.0	pointing	Trial2	pointing/STIM_004.jpg	99
1138.35	1.088	1088.1	pointing	Trial2	pointing/STIM_004.jpg	100
1141.584	0.929	928.9	pointing	Trial2	pointing/STIM_004.jpg	99
1144.956	1.127	1126.8	pointing	Trial2	pointing/STIM_004.jpg	99
1148.882	1.069	1068.8	pointing	Trial2	pointing/STIM_005.jpg	100
1153.36	0.784	783.9	pointing	Trial2	pointing/STIM_005.jpg	99
1157.598	0.847	847.0	pointing	Trial2	pointing/STIM_005.jpg	100
1160.738	0.959	959.4	pointing	Trial2	pointing/STIM_005.jpg	100
1165.143	0.968	967.8	pointing	Trial2	pointing/STIM_005.jpg	99
1169.885	0.711	711.4	pointing	Trial2	pointing/STIM_005.jpg	100
1173.014	0.976	976.2	pointing	Trial2	pointing/STIM_006.jpg	99
1177.373	0.894	893.7	pointing	Trial2	pointing/STIM_006.jpg	99
1181.68	1.07	1070.3	pointing	Trial2	pointing/STIM_006.jpg	99
1186.12	1.074	1074.0	pointing	Trial2	pointing/STIM_006.jpg	100
1191.058	0.851	851.1	pointing	Trial2	pointing/STIM_006.jpg	99
1195.819	1.005	1004.9	pointing	Trial2	pointing/STIM_006.jpg	99
1199.354	1.11	1110.5	pointing	Trial2	pointing/STIM_007.jpg	99
1202.911	1.113	1112.6	pointing	Trial2	pointing/STIM_007.jpg	100
1207.034	1.042	1042.4	pointing	Trial2	pointing/STIM_007.jpg	100
1211.936	0.718	717.7	pointing	Trial2	pointing/STIM_007.jpg	99
1215.879	0.914	914.2	pointing	Trial2	pointing/STIM_007.jpg	99
1220.418	0.991	990.9	pointing	Trial2	pointing/STIM_007.jpg	99
1224.704	0.903	903.2	pointing	Trial2	pointing/STIM_008.jpg	99
1229.555	0.624	624.1	pointing	Trial2	pointing/STIM_008.jpg	99
1233.793	0.893	893.3	pointing	Trial2	pointing/STIM_008.jpg	99
1237.625	0.673	673.0	pointing	Trial2	pointing/STIM_008.jpg	100
1241.766	1.025	1024.6	pointing	Trial2	pointing/STIM_008.jpg	100
1244.939	0.812	812.0	pointing	Trial2	pointing/STIM_008.jpg	99
1248.222	0.89	890.4	pointing	Trial2	pointing/STIM_009.jpg	100
1251.882	0.769	769.3	pointing	Trial2	pointing/STIM_009.jpg	99
1256.209	0.895	894.8	pointing	Trial2	pointing/STIM_009.jpg	99
1259.999	0.633	632.8	pointing	Trial2	pointing/STIM_009.jpg	99
1263.191	1.125	1125.0	pointing	Trial2	pointing/STIM_009.jpg	100
1266.781	0.661	660.6	pointing	Trial2	pointing/STIM_009.jpg	100
1269.699	0.716	715.6	pointing	Trial2	pointing/STIM_010.jpg	100
1273.793	0.816	816.3	pointing	Trial2	pointing/STIM_010.jpg	100
1277.812	1.103	1103.2	pointing	Trial2	pointing/STIM_010.jpg	100
1281.952	1.134	1134.0	pointing	Trial2	pointing/STIM_010.jpg	99
1286.38	0.999	999.4	pointing	Trial2	pointing/STIM_010.jpg	99
1290.75	1.123	1122.8	pointing	Trial2	pointing/STIM_010.jpg	99
1294.901	1.038	1037.5	pointing	Trial2	pointing/STIM_011.jpg	100
1298.627	0.631	631.4	pointing	Trial2	pointing/STIM_011.jpg	100
1302.849	0.822	822.5	pointing	Trial2	pointing/STIM_011.jpg	99
1307.168	1.052	1052.2	pointing	Trial2	pointing/STIM_011.jpg	100
1310.978	0.63	629.9	pointing	Trial2	pointing/STIM_011.jpg	99
1314.846	0.996	996.1	pointing	Trial2	pointing/STIM_011.jpg	100
1317.985	1.426	1426.2	navigation	Trial3	navigation/STIM_000.jpg	99
1322.182	1.249	1249.2	navigation	Trial3	navigation/STIM_000.jpg	99
1325.594	2.058	2057.8	navigation	Trial3	navigation/STIM_000.jpg	100
1329.668	2.356	2356.2	navigation	Trial3	navigation/STIM_000.jpg	100
1334.842	1.68	1679.5	navigation	Trial3	navigation/STIM_000.jpg	99
1338.678	1.295	1294.9	navigation	Trial3	navigation/STIM_000.jpg	99
1343.166	1.3	1300.3	navigation	Trial3	navigation/STIM_001.jpg	100
1347.591	2.106	2106.1	navigation	Trial3	navigation/STIM_001.jpg	100
1351.746	1.908	1908.0	navigation	Trial3	navigation/STIM_001.jpg	100
1356.561	2.655	2654.8	navigation	Trial3	navigation/STIM_001.jpg	100
1361.26	2.252	2252.1	navigation	Trial3	navigation/STIM_001.jpg	99
1366.71	1.64	1639.8	navigation	Trial3	navigation/STIM_001.jpg	99
1372.033	2.074	2074.1	navigation	Trial3	navigation/STIM_002.jpg	99
1377.895	1.358	1357.8	navigation	Trial3	navigation/STIM_002.jpg	99
1381.29	1.122	1122.5	navigation	Trial3	navigation/STIM_002.jpg	100
1385.816	2.562	2561.8	navigation	Trial3	navigation/STIM_002.jpg	100
1390.572	1.375	1375.2	navigation	Trial3	navigation/STIM_002.jpg	99
1395.148	2.163	2163.2	navigation	Trial3	navigation/STIM_002.jpg	99
1400.495	2.103	2102.9	navigation	Trial3	navigation/STIM_003.jpg	100
1405.85	1.514	1514.1	navigation	Trial3	navigation/STIM_003.jpg	100
1409.389	2.663	2662.8	navigation	Trial3	navigation/STIM_003.jpg	100
1415.683	1.894	1893.6	navigation	Trial3	navigation/STIM_003.jpg	100
1420.544	1.502	1502.0	navigation	Trial3	navigation/STIM_003.jpg	99
1424.801	2.114	2114.2	navigation	Trial3	navigation/STIM_003.jpg	100
1429.61	2.107	2107.3	navigation	Trial3	navigation/STIM_004.jpg	99
1434.896	1.736	1736.1	navigation	Trial3	navigation/STIM_004.jpg	100
1440.465	2.156	2155.7	navigation	Trial3	navigation/STIM_004.jpg	99
1445.266	2.266	2266.5	navigation	Trial3	navigation/STIM_004.jpg	100
1451.271	1.461	1461.0	navigation	Trial3	navigation/STIM_004.jpg	99
1456.294	2.655	2655.2	navigation	Trial3	navigation/STIM_004.jpg	100
1461.037	2.275	2275.1	navigation	Trial3	navigation/STIM_005.jpg	99
1465.32	2.376	2375.6	navigation	Trial3	navigation/STIM_005.jpg	100
1470.562	2.355	2354.7	navigation	Trial3	navigation/STIM_005.jpg	100
1476.57	1.098	1098.4	navigation	Trial3	navigation/STIM_005.jpg	99
1481.643	2.048	2047.6	navigation	Trial3	navigation/STIM_005.jpg	99
1487.591	1.915	1915.3	navigation	Trial3	navigation/STIM_005.jpg	100
1492.814	2.465	2465.0	navigation	Trial3	navigation/STIM_006.jpg	99
1497.618	2.379	2378.6	navigation	Trial3	navigation/STIM_006.jpg	100
1503.031	2.317	2317.3	navigation	Trial3	navigation/STIM_006.jpg	100
1508.088	2.41	2410.5	navigation	Trial3	navigation/STIM_006.jpg	100
1514.477	1.933	1932.9	navigation	Trial3	navigation/STIM_006.jpg	99
1519.068	2.507	2506.7	navigation	Trial3	navigation/STIM_006.jpg	100
1523.903	1.404	1404.1	navigation	Trial3	navigation/STIM_007.jpg	100
1529.087	1.525	1525.4	navigation	Trial3	navigation/STIM_007.jpg	100
1534.106	1.661	1661.4	navigation	Trial3	navigation/STIM_007.jpg	99
1539.071	1.322	1321.9	navigation	Trial3	navigation/STIM_007.jpg	100
1544.168	1.683	1683.3	navigation	Trial3	navigation/STIM_007.jpg	100
1549.486	2.618	2618.0	navigation	Trial3	navigation/STIM_007.jpg	100
1555.811	1.937	1936.8	navigation	Trial3	navigation/STIM_008.jpg	100
1559.91	1.409	1408.7	navigation	Trial3	navigation/STIM_008.jpg	99
1564.956	1.659	1658.7	navigation	Trial3	navigation/STIM_008.jpg	100
1569.176	1.22	1219.6	navigation	Trial3	navigation/STIM_008.jpg	100
1572.784	1.698	1698.1	navigation	Trial3	navigation/STIM_008.jpg	99
1577.839	2.432	2431.5	navigation	Trial3	navigation/STIM_008.jpg	99
1583.49	1.979	1978.6	navigation	Trial3	navigation/STIM_009.jpg	99
1588.05	2.003	2002.9	navigation	Trial3	navigation/STIM_009.jpg	100
1593.389	1.673	1673.2	navigation	Trial3	navigation/STIM_009.jpg	100
1597.99	2.51	2510.2	navigation	Trial3	navigation/STIM_009.jpg	100
1604.185	2.48	2480.3	navigation	Trial3	navigation/STIM_009.jpg	99
1609.201	2.588	2587.7	navigation	Trial3	navigation/STIM_009.jpg	100
1615.132	1.73	1729.5	navigation	Trial3	navigation/STIM_010.jpg	99
1619.043	2.055	2055.3	navigation	Trial3	navigation/STIM_010.jpg	100
1624.618	1.175	1175.1	navigation	Trial3	navigation/STIM_010.jpg	99
1628.313	1.156	1155.8	navigation	Trial3	navigation/STIM_010.jpg	100
1632.415	2.414	2414.3	navigation	Trial3	navigation/STIM_010.jpg	100
1636.964	1.562	1561.5	navigation	Trial3	navigation/STIM_010.jpg	99
1641.915	1.828	1828.5	navigation	Trial3	navigation/STIM_011.jpg	99
1646.19	1.941	1940.6	navigation	Trial3	navigation/STIM_011.jpg	99
1650.648	1.752	1751.9	navigation	Trial3	navigation/STIM_011.jpg	99
1656.191	2.063	2063.4	navigation	Trial3	navigation/STIM_011.jpg	100
1660.278	1.112	1111.5	navigation	Trial3	navigation/STIM_011.jpg	100
1664.126	2.393	2392.7	navigation	Trial3	navigation/STIM_011.jpg	99
1669.738	1.055	1055.2	pointing	Trial3	pointing/STIM_000.jpg	100
1674.356	1.038	1037.8	pointing	Trial3	pointing/STIM_000.jpg	99
1678.152	0.666	666.2	pointing	Trial3	pointing/STIM_000.jpg	100
1680.868	0.793	793.1	pointing	Trial3	pointing/STIM_000.jpg	99
1684.489	0.843	843.2	pointing	Trial3	pointing/STIM_000.jpg	99
1687.511	1.065	1065.0	pointing	Trial3	pointing/STIM_000.jpg	100
1692.469	1.045	1045.4	pointing	Trial3	pointing/STIM_001.jpg	100
1695.71	1.082	1081.5	pointing	Trial3	pointing/STIM_001.jpg	99
1699.633	0.73	730.0	pointing	Trial3	pointing/STIM_001.jpg	99
1703.088	0.776	775.6	pointing	Trial3	pointing/STIM_001.jpg	99
1705.952	0.74	739.7	pointing	Trial3	pointing/STIM_001.jpg	100
1710.428	1.08	1079.9	pointing	Trial3	pointing/STIM_001.jpg	99
1715.36	0.94	940.3	pointing	Trial3	pointing/STIM_002.jpg	100
1719.036	0.869	869.3	pointing	Trial3	pointing/STIM_002.jpg	99
1723.563	0.898	898.0	pointing	Trial3	pointing/STIM_002.jpg	99
1726.772	0.658	658.2	pointing	Trial3	pointing/STIM_002.jpg	99
1729.746	1.144	1144.0	pointing	Trial3	pointing/STIM_002.jpg	100
1733.471	0.908	908.0	pointing	Trial3	pointing/STIM_002.jpg	99
1737.974	0.994	994.5	pointing	Trial3	pointing/STIM_003.jpg	100
1741.794	0.778	778.3	pointing	Trial3	pointing/STIM_003.jpg	99
1746.315	0.616	616.3	pointing	Trial3	pointing/STIM_003.jpg	100
1749.788	0.7	700.1	pointing	Trial3	pointing/STIM_003.jpg	99
1752.845	0.809	809.1	pointing	Trial3	pointing/STIM_003.jpg	100
1757.261	0.752	752.3	pointing	Trial3	pointing/STIM_003.jpg	100
1761.857	1.103	1102.7	pointing	Trial3	pointing/STIM_004.jpg	100
1765.175	0.875	874.9	pointing	Trial3	pointing/STIM_004.jpg	100
1769.451	0.635	634.9	pointing	Trial3	pointing/STIM_004.jpg	100
1772.755	0.875	875.2	pointing	Trial3	pointing/STIM_004.jpg	100
1776.806	1.116	1116.4	pointing	Trial3	pointing/STIM_004.jpg	99
1779.955	0.706	705.9	pointing	Trial3	pointing/STIM_004.jpg	100
1783.937	0.914	913.8	pointing	Trial3	pointing/STIM_005.jpg	100
1787.207	1.092	1092.1	pointing	Trial3	pointing/STIM_005.jpg	100
1791.204	0.981	980.6	pointing	Trial3	pointing/STIM_005.jpg	99
1794.85	1.028	1027.7	pointing	Trial3	pointing/STIM_005.jpg	100
1798.392	0.716	716.2	pointing	Trial3	pointing/STIM_005.jpg	100
1801.841	0.96	960.2	pointing	Trial3	pointing/STIM_005.jpg	100
1805.061	0.832	832.2	pointing	Trial3	pointing/STIM_006.jpg	100
1808.239	0.974	973.6	pointing	Trial3	pointing/STIM_006.jpg	100
1813.001	1.006	1006.4	pointing	Trial3	pointing/STIM_006.jpg	99
1817.366	0.981	981.2	pointing	Trial3	pointing/STIM_006.jpg	100
1821.687	0.833	833.0	pointing	Trial3	pointing/STIM_006.jpg	99
1824.681	0.651	651.4	pointing	Trial3	pointing/STIM_006.jpg	99
1829.317	0.799	799.3	pointing	Trial3	pointing/STIM_007.jpg	99
1832.987	1.017	1016.6	pointing	Trial3	pointing/STIM_007.jpg	100
1836.817	0.882	882.5	pointing	Trial3	pointing/STIM_007.jpg	99
1840.53	1.1	1100.2	pointing	Trial3	pointing/STIM_007.jpg	99
1845.188	0.973	973.3	pointing	Trial3	pointing/STIM_007.jpg	99
1848.371	0.974	973.6	pointing	Trial3	pointing/STIM_007.jpg	100
1852.075	1.051	1051.2	pointing	Trial3	pointing/STIM_008.jpg	100
1857.075	0.929	928.9	pointing	Trial3	pointing/STIM_008.jpg	99
1861.378	0.625	624.7	pointing	Trial3	pointing/STIM_008.jpg	99
1864.152	1.029	1028.9	pointing	Trial3	pointing/STIM_008.jpg	99
1868.577	0.806	806.2	pointing	Trial3	pointing/STIM_008.jpg	100
1871.878	0.95	950.0	pointing	Trial3	pointing/STIM_008.jpg	100
1875.584	1.037	1037.3	pointing	Trial3	pointing/STIM_009.jpg	100
1879.658	0.84	839.9	pointing	Trial3	pointing/STIM_009.jpg	100
1883.258	0.802	801.8	pointing	Trial3	pointing/STIM_009.jpg	100
1886.762	1.084	1084.3	pointing	Trial3	pointing/STIM_009.jpg	100
1890.933	0.758	758.0	pointing	Trial3	pointing/STIM_009.jpg	100
1895.215	0.739	738.6	pointing	Trial3	pointing/STIM_009.jpg	100
1898.85	1.007	1006.7	pointing	Trial3	pointing/STIM_010.jpg	100
1902.438	1.036	1036.1	pointing	Trial3	pointing/STIM_010.jpg	99
1907.314	1.029	1029.1	pointing	Trial3	pointing/STIM_010.jpg	99
1910.448	0.898	898.0	pointing	Trial3	pointing/STIM_010.jpg	99
1914.048	0.849	849.0	pointing	Trial3	pointing/STIM_010.jpg	99
1917.893	0.752	751.6	pointing	Trial3	pointing/STIM_010.jpg	99
1920.913	0.837	837.0	pointing	Trial3	pointing/STIM_011.jpg	100
1925.076	0.931	931.3	pointing	Trial3	pointing/STIM_011.jpg	100
1929.953	0.735	734.6	pointing	Trial3	pointing/STIM_011.jpg	100
1933.392	0.892	891.5	pointing	Trial3	pointing/STIM_011.jpg	100
1937.871	0.741	741.2	pointing	Trial3	pointing/STIM_011.jpg	99
1941.385	0.922	922.3	pointing	Trial3	pointing/STIM_011.jpg	100
