onset	duration	accuracy	trial_type	learning_stage	stimulus
0.0	2.782	incorrect	navigation	Trial1	navigation/STIM_000.jpg
6.527	2.301	correct	navigation	Trial1	navigation/STIM_000.jpg
13.012	2.632	incorrect	navigation	Trial1	navigation/STIM_000.jpg
19.47	2.109	correct	navigation	Trial1	navigation/STIM_000.jpg
25.218	1.639	correct	navigation	Trial1	navigation/STIM_000.jpg
29.622	1.754	correct	navigation	Trial1	navigation/STIM_000.jpg
34.579	4.025	incorrect	navigation	Trial1	navigation/STIM_001.jpg
42.988	2.269	incorrect	navigation	Trial1	navigation/STIM_001.jpg
48.831	1.79	correct	navigation	Trial1	navigation/STIM_001.jpg
52.819	1.96	correct	navigation	Trial1	navigation/STIM_001.jpg
58.843	1.681	correct	navigation	Trial1	navigation/STIM_001.jpg
63.92	1.682	correct	navigation	Trial1	navigation/STIM_001.jpg
69.378	2.593	incorrect	navigation	Trial1	navigation/STIM_002.jpg
75.737	3.08	correct	navigation	Trial1	navigation/STIM_002.jpg
81.75	2.855	correct	navigation	Trial1	navigation/STIM_002.jpg
87.246	3.569	correct	navigation	Trial1	navigation/STIM_002.jpg
94.142	3.492	correct	navigation	Trial1	navigation/STIM_002.jpg
100.087	2.358	incorrect	navigation	Trial1	navigation/STIM_002.jpg
105.122	2.69	correct	navigation	Trial1	navigation/STIM_003.jpg
110.473	1.802	correct	navigation	Trial1	navigation/STIM_003.jpg
114.934	3.882	correct	navigation	Trial1	navigation/STIM_003.jpg
122.676	1.947	correct	navigation	Trial1	navigation/STIM_003.jpg
127.876	1.765	correct	navigation	Trial1	navigation/STIM_003.jpg
133.101	1.719	correct	navigation	Trial1	navigation/STIM_003.jpg
138.572	2.978	correct	navigation	Trial1	navigation/STIM_004.jpg
144.511	3.695	correct	navigation	Trial1	navigation/STIM_004.jpg
150.887	3.067	correct	navigation	Trial1	navigation/STIM_004.jpg
158.252	3.805	incorrect	navigation	Trial1	navigation/STIM_004.jpg
164.686	2.757	correct	navigation	Trial1	navigation/STIM_004.jpg
170.17	2.321	correct	navigation	Trial1	navigation/STIM_004.jpg
175.082	3.761	correct	navigation	Trial1	navigation/STIM_005.jpg
181.647	3.981	correct	navigation	Trial1	navigation/STIM_005.jpg
190.001	1.803	incorrect	navigation	Trial1	navigation/STIM_005.jpg
194.234	2.019	correct	navigation	Trial1	navigation/STIM_005.jpg
199.417	2.694	correct	navigation	Trial1	navigation/STIM_005.jpg
206.208	2.444	correct	navigation	Trial1	navigation/STIM_005.jpg
211.84	1.84	incorrect	navigation	Trial1	navigation/STIM_006.jpg
216.86	3.25	correct	navigation	Trial1	navigation/STIM_006.jpg
223.949	3.348	incorrect	navigation	Trial1	navigation/STIM_006.jpg
231.212	3.82	correct	navigation	Trial1	navigation/STIM_006.jpg
239.374	1.566	correct	navigation	Trial1	navigation/STIM_006.jpg
244.178	2.378	correct	navigation	Trial1	navigation/STIM_006.jpg
249.682	3.996	incorrect	navigation	Trial1	navigation/STIM_007.jpg
256.701	3.682	incorrect	navigation	Trial1	navigation/STIM_007.jpg
263.385	2.338	correct	navigation	Trial1	navigation/STIM_007.jpg
268.705	2.999	incorrect	navigation	Trial1	navigation/STIM_007.jpg
274.502	1.839	correct	navigation	Trial1	navigation/STIM_007.jpg
279.566	2.837	correct	navigation	Trial1	navigation/STIM_007.jpg
286.032	3.6	correct	navigation	Trial1	navigation/STIM_008.jpg
293.462	3.51	correct	navigation	Trial1	navigation/STIM_008.jpg
300.811	3.821	incorrect	navigation	Trial1	navigation/STIM_008.jpg
307.271	3.092	incorrect	navigation	Trial1	navigation/STIM_008.jpg
313.279	3.376	correct	navigation	Trial1	navigation/STIM_008.jpg
320.964	3.143	correct	navigation	Trial1	navigation/STIM_008.jpg
328.34	4.18	correct	navigation	Trial1	navigation/STIM_009.jpg
335.28	2.227	incorrect	navigation	Trial1	navigation/STIM_009.jpg
340.385	2.517	correct	navigation	Trial1	navigation/STIM_009.jpg
346.312	2.676	correct	navigation	Trial1	navigation/STIM_009.jpg
352.163	3.196	correct	navigation	Trial1	navigation/STIM_009.jpg
358.936	2.732	correct	navigation	Trial1	navigation/STIM_009.jpg
365.072	3.751	correct	navigation	Trial1	navigation/STIM_010.jpg
371.309	2.823	correct	navigation	Trial1	navigation/STIM_010.jpg
377.443	3.035	correct	navigation	Trial1	navigation/STIM_010.jpg
382.942	1.579	correct	navigation	Trial1	navigation/STIM_010.jpg
387.709	2.019	correct	navigation	Trial1	navigation/STIM_010.jpg
392.281	1.844	correct	navigation	Trial1	navigation/STIM_010.jpg
397.605	2.362	correct	navigation	Trial1	navigation/STIM_011.jpg
404.149	2.56	correct	navigation	Trial1	navigation/STIM_011.jpg
409.542	2.584	correct	navigation	Trial1	navigation/STIM_011.jpg
415.207	3.709	correct	navigation	Trial1	navigation/STIM_011.jpg
423.015	1.496	correct	navigation	Trial1	navigation/STIM_011.jpg
427.295	1.859	correct	navigation	Trial1	navigation/STIM_011.jpg
432.728	1.145	correct	pointing	Trial1	pointing/STIM_000.jpg
436.899	1.115	correct	pointing	Trial1	pointing/STIM_000.jpg
441.01	1.014	correct	pointing	Trial1	pointing/STIM_000.jpg
444.264	1.009	correct	pointing	Trial1	pointing/STIM_000.jpg
447.393	0.775	incorrect	pointing	Trial1	pointing/STIM_000.jpg
451.442	1.217	correct	pointing	Trial1	pointing/STIM_000.jpg
455.503	1.308	correct	pointing	Trial1	pointing/STIM_001.jpg
460.287	0.958	correct	pointing	Trial1	pointing/STIM_001.jpg
464.783	0.901	correct	pointing	Trial1	pointing/STIM_001.jpg
468.904	1.161	correct	pointing	Trial1	pointing/STIM_001.jpg
472.476	1.232	correct	pointing	Trial1	pointing/STIM_001.jpg
476.271	1.153	correct	pointing	Trial1	pointing/STIM_001.jpg
480.913	1.102	correct	pointing	Trial1	pointing/STIM_002.jpg
485.434	1.223	correct	pointing	Trial1	pointing/STIM_002.jpg
489.87	1.363	correct	pointing	Trial1	pointing/STIM_002.jpg
495.021	1.267	correct	pointing	Trial1	pointing/STIM_002.jpg
499.674	1.304	correct	pointing	Trial1	pointing/STIM_002.jpg
504.702	0.954	correct	pointing	Trial1	pointing/STIM_002.jpg
509.15	0.932	incorrect	pointing	Trial1	pointing/STIM_003.jpg
512.666	1.293	correct	pointing	Trial1	pointing/STIM_003.jpg
517.201	1.09	correct	pointing	Trial1	pointing/STIM_003.jpg
521.848	0.765	correct	pointing	Trial1	pointing/STIM_003.jpg
524.991	1.154	correct	pointing	Trial1	pointing/STIM_003.jpg
529.171	0.886	correct	pointing	Trial1	pointing/STIM_003.jpg
533.155	0.895	correct	pointing	Trial1	pointing/STIM_004.jpg
537.833	0.952	correct	pointing	Trial1	pointing/STIM_004.jpg
542.414	1.174	correct	pointing	Trial1	pointing/STIM_004.jpg
547.701	0.9	incorrect	pointing	Trial1	pointing/STIM_004.jpg
550.702	1.016	correct	pointing	Trial1	pointing/STIM_004.jpg
555.31	0.924	correct	pointing	Trial1	pointing/STIM_004.jpg
558.538	1.053	correct	pointing	Trial1	pointing/STIM_005.jpg
562.435	1.048	correct	pointing	Trial1	pointing/STIM_005.jpg
565.61	1.187	correct	pointing	Trial1	pointing/STIM_005.jpg
570.306	1.251	correct	pointing	Trial1	pointing/STIM_005.jpg
574.289	1.25	correct	pointing	Trial1	pointing/STIM_005.jpg
578.067	1.202	correct	pointing	Trial1	pointing/STIM_005.jpg
582.495	0.746	incorrect	pointing	Trial1	pointing/STIM_006.jpg
586.606	1.366	correct	pointing	Trial1	pointing/STIM_006.jpg
591.637	1.347	correct	pointing	Trial1	pointing/STIM_006.jpg
596.09	1.116	correct	pointing	Trial1	pointing/STIM_006.jpg
599.477	0.877	correct	pointing	Trial1	pointing/STIM_006.jpg
603.626	0.736	correct	pointing	Trial1	pointing/STIM_006.jpg
606.8	1.34	correct	pointing	Trial1	pointing/STIM_007.jpg
612.26	0.957	correct	pointing	Trial1	pointing/STIM_007.jpg
616.168	1.084	correct	pointing	Trial1	pointing/STIM_007.jpg
619.455	0.889	correct	pointing	Trial1	pointing/STIM_007.jpg
623.992	1.277	correct	pointing	Trial1	pointing/STIM_007.jpg
627.948	1.284	correct	pointing	Trial1	pointing/STIM_007.jpg
632.058	1.347	correct	pointing	Trial1	pointing/STIM_008.jpg
636.783	1.058	correct	pointing	Trial1	pointing/STIM_008.jpg
640.274	1.101	incorrect	pointing	Trial1	pointing/STIM_008.jpg
645.254	0.802	correct	pointing	Trial1	pointing/STIM_008.jpg
649.205	1.221	correct	pointing	Trial1	pointing/STIM_008.jpg
652.89	1.1	correct	pointing	Trial1	pointing/STIM_008.jpg
656.527	1.146	correct	pointing	Trial1	pointing/STIM_009.jpg
661.028	1.155	correct	pointing	Trial1	pointing/STIM_009.jpg
665.451	0.888	incorrect	pointing	Trial1	pointing/STIM_009.jpg
668.751	1.314	correct	pointing	Trial1	pointing/STIM_009.jpg
673.509	1.24	correct	pointing	Trial1	pointing/STIM_009.jpg
677.362	0.82	correct	pointing	Trial1	pointing/STIM_009.jpg
680.596	0.736	correct	pointing	Trial1	pointing/STIM_010.jpg
683.463	0.903	correct	pointing	Trial1	pointing/STIM_010.jpg
686.839	1.001	correct	pointing	Trial1	pointing/STIM_010.jpg
690.639	1.189	correct	pointing	Trial1	pointing/STIM_010.jpg
695.736	0.833	correct	pointing	Trial1	pointing/STIM_010.jpg
699.593	1.316	correct	pointing	Trial1	pointing/STIM_010.jpg
704.676	1.351	incorrect	pointing	Trial1	pointing/STIM_011.jpg
708.279	1.35	correct	pointing	Trial1	pointing/STIM_011.jpg
712.68	1.065	correct	pointing	Trial1	pointing/STIM_011.jpg
716.988	0.776	correct	pointing	Trial1	pointing/STIM_011.jpg
720.706	1.188	correct	pointing	Trial1	pointing/STIM_011.jpg
724.559	1.181	correct	pointing	Trial1	pointing/STIM_011.jpg
729.303	2.302	correct	navigation	Trial2	navigation/STIM_000.jpg
735.143	3.642	correct	navigation	Trial2	navigation/STIM_000.jpg
741.455	1.677	correct	navigation	Trial2	navigation/STIM_000.jpg
746.957	2.458	incorrect	navigation	Trial2	navigation/STIM_000.jpg
752.455	1.73	correct	navigation	Trial2	navigation/STIM_000.jpg
758.056	2.845	correct	navigation	Trial2	navigation/STIM_000.jpg
764.097	2.338	incorrect	navigation	Trial2	navigation/STIM_001.jpg
770.205	1.528	correct	navigation	Trial2	navigation/STIM_001.jpg
775.702	1.616	correct	navigation	Trial2	navigation/STIM_001.jpg
780.081	2.56	correct	navigation	Trial2	navigation/STIM_001.jpg
785.752	2.985	correct	navigation	Trial2	navigation/STIM_001.jpg
791.591	2.888	correct	navigation	Trial2	navigation/STIM_001.jpg
798.15	2.169	correct	navigation	Trial2	navigation/STIM_002.jpg
803.146	3.62	correct	navigation	Trial2	navigation/STIM_002.jpg
811.046	2.192	correct	navigation	Trial2	navigation/STIM_002.jpg
815.784	1.535	correct	navigation	Trial2	navigation/STIM_002.jpg
819.615	2.072	incorrect	navigation	Trial2	navigation/STIM_002.jpg
825.146	1.916	incorrect	navigation	Trial2	navigation/STIM_002.jpg
829.531	2.655	correct	navigation	Trial2	navigation/STIM_003.jpg
835.485	3.387	incorrect	navigation	Trial2	navigation/STIM_003.jpg
841.73	1.546	correct	navigation	Trial2	navigation/STIM_003.jpg
845.975	1.506	incorrect	navigation	Trial2	navigation/STIM_003.jpg
850.613	1.366	correct	navigation	Trial2	navigation/STIM_003.jpg
856.004	2.95	correct	navigation	Trial2	navigation/STIM_003.jpg
863.073	3.858	correct	navigation	Trial2	navigation/STIM_004.jpg
869.818	2.819	correct	navigation	Trial2	navigation/STIM_004.jpg
876.272	3.399	correct	navigation	Trial2	navigation/STIM_004.jpg
883.179	2.52	incorrect	navigation	Trial2	navigation/STIM_004.jpg
888.935	1.885	incorrect	navigation	Trial2	navigation/STIM_004.jpg
893.163	1.823	correct	navigation	Trial2	navigation/STIM_004.jpg
899.131	2.499	correct	navigation	Trial2	navigation/STIM_005.jpg
904.593	3.473	correct	navigation	Trial2	navigation/STIM_005.jpg
910.755	3.058	incorrect	navigation	Trial2	navigation/STIM_005.jpg
918.098	2.304	correct	navigation	Trial2	navigation/STIM_005.jpg
924.225	3.173	correct	navigation	Trial2	navigation/STIM_005.jpg
930.788	2.134	correct	navigation	Trial2	navigation/STIM_005.jpg
936.873	2.314	incorrect	navigation	Trial2	navigation/STIM_006.jpg
943.383	3.052	incorrect	navigation	Trial2	navigation/STIM_006.jpg
949.561	3.293	correct	navigation	Trial2	navigation/STIM_006.jpg
956.839	1.317	correct	navigation	Trial2	navigation/STIM_006.jpg
961.113	1.976	correct	navigation	Trial2	navigation/STIM_006.jpg
966.072	1.712	correct	navigation	Trial2	navigation/STIM_006.jpg
971.593	2.163	correct	navigation	Trial2	navigation/STIM_007.jpg
975.987	3.447	correct	navigation	Trial2	navigation/STIM_007.jpg
983.628	3.08	correct	navigation	Trial2	navigation/STIM_007.jpg
989.482	2.609	correct	navigation	Trial2	navigation/STIM_007.jpg
995.078	2.179	correct	navigation	Trial2	navigation/STIM_007.jpg
1001.178	2.632	incorrect	navigation	Trial2	navigation/STIM_007.jpg
1006.209	2.453	incorrect	navigation	Trial2	navigation/STIM_008.jpg
1012.71	2.582	correct	navigation	Trial2	navigation/STIM_008.jpg
1017.926	2.075	correct	navigation	Trial2	navigation/STIM_008.jpg
1023.923	2.513	correct	navigation	Trial2	navigation/STIM_008.jpg
1028.94	1.742	correct	navigation	Trial2	navigation/STIM_008.jpg
1033.105	2.551	incorrect	navigation	Trial2	navigation/STIM_008.jpg
1039.217	2.485	correct	navigation	Trial2	navigation/STIM_009.jpg
1044.8	2.891	correct	navigation	Trial2	navigation/STIM_009.jpg
1051.424	2.709	correct	navigation	Trial2	navigation/STIM_009.jpg
1057.073	2.204	correct	navigation	Trial2	navigation/STIM_009.jpg
1062.443	1.777	correct	navigation	Trial2	navigation/STIM_009.jpg
1067.665	2.702	correct	navigation	Trial2	navigation/STIM_009.jpg
1073.818	1.798	correct	navigation	Trial2	navigation/STIM_010.jpg
1078.635	2.811	incorrect	navigation	Trial2	navigation/STIM_010.jpg
1083.872	3.267	incorrect	navigation	Trial2	navigation/STIM_010.jpg
1090.05	2.659	correct	navigation	Trial2	navigation/STIM_010.jpg
1095.179	2.014	correct	navigation	Trial2	navigation/STIM_010.jpg
1099.841	1.967	correct	navigation	Trial2	navigation/STIM_010.jpg
1104.599	2.879	correct	navigation	Trial2	navigation/STIM_011.jpg
1110.606	3.427	correct	navigation	Trial2	navigation/STIM_011.jpg
1117.139	3.399	correct	navigation	Trial2	navigation/STIM_011.jpg
1124.632	1.322	incorrect	navigation	Trial2	navigation/STIM_011.jpg
1129.99	1.666	correct	navigation	Trial2	navigation/STIM_011.jpg
1134.333	2.241	correct	navigation	Trial2	navigation/STIM_011.jpg
1139.599	0.95	correct	pointing	Trial2	pointing/STIM_000.jpg
1143.284	0.918	correct	pointing	Trial2	pointing/STIM_000.jpg
1147.599	1.356	correct	pointing	Trial2	pointing/STIM_000.jpg
1151.332	1.062	correct	pointing	Trial2	pointing/STIM_000.jpg
1156.096	1.161	correct	pointing	Trial2	pointing/STIM_000.jpg
1161.352	1.166	correct	pointing	Trial2	pointing/STIM_000.jpg
1165.949	0.812	correct	pointing	Trial2	pointing/STIM_001.jpg
1169.012	1.311	correct	pointing	Trial2	pointing/STIM_001.jpg
1172.888	1.134	correct	pointing	Trial2	pointing/STIM_001.jpg
1176.279	1.358	correct	pointing	Trial2	pointing/STIM_001.jpg
1180.865	0.968	correct	pointing	Trial2	pointing/STIM_001.jpg
1185.377	1.21	correct	pointing	Trial2	pointing/STIM_001.jpg
1189.084	1.236	correct	pointing	Trial2	pointing/STIM_002.jpg
1193.963	0.745	incorrect	pointing	Trial2	pointing/STIM_002.jpg
1197.047	0.997	incorrect	pointing	Trial2	pointing/STIM_002.jpg
1200.582	0.852	correct	pointing	Trial2	pointing/STIM_002.jpg
1204.419	1.296	correct	pointing	Trial2	pointing/STIM_002.jpg
1208.582	1.261	correct	pointing	Trial2	pointing/STIM_002.jpg
1213.301	1.341	correct	pointing	Trial2	pointing/STIM_003.jpg
1216.957	0.837	correct	pointing	Trial2	pointing/STIM_003.jpg
1221.856	0.9	correct	pointing	Trial2	pointing/STIM_003.jpg
1225.206	0.987	correct	pointing	Trial2	pointing/STIM_003.jpg
1228.433	0.84	correct	pointing	Trial2	pointing/STIM_003.jpg
1232.595	0.894	correct	pointing	Trial2	pointing/STIM_003.jpg
1235.932	1.028	correct	pointing	Trial2	pointing/STIM_004.jpg
1239.761	1.29	correct	pointing	Trial2	pointing/STIM_004.jpg
1244.414	0.875	correct	pointing	Trial2	pointing/STIM_004.jpg
1247.673	0.982	correct	pointing	Trial2	pointing/STIM_004.jpg
1252.604	1.102	correct	pointing	Trial2	pointing/STIM_004.jpg
1256.372	0.964	incorrect	pointing	Trial2	pointing/STIM_004.jpg
1260.2	0.904	correct	pointing	Trial2	pointing/STIM_005.jpg
1265.072	1.14	correct	pointing	Trial2	pointing/STIM_005.jpg
1269.908	0.742	correct	pointing	Trial2	pointing/STIM_005.jpg
1274.603	0.863	correct	pointing	Trial2	pointing/STIM_005.jpg
1277.656	1.148	correct	pointing	Trial2	pointing/STIM_005.jpg
1282.865	1.307	correct	pointing	Trial2	pointing/STIM_005.jpg
1288.045	1.33	correct	pointing	Trial2	pointing/STIM_006.jpg
1291.509	0.731	correct	pointing	Trial2	pointing/STIM_006.jpg
1296.022	1.213	correct	pointing	Trial2	pointing/STIM_006.jpg
1299.951	1.135	incorrect	pointing	Trial2	pointing/STIM_006.jpg
1303.642	1.231	correct	pointing	Trial2	pointing/STIM_006.jpg
1308.452	1.034	correct	pointing	Trial2	pointing/STIM_006.jpg
1312.146	1.075	correct	pointing	Trial2	pointing/STIM_007.jpg
1316.492	0.806	correct	pointing	Trial2	pointing/STIM_007.jpg
1320.295	0.982	incorrect	pointing	Trial2	pointing/STIM_007.jpg
1323.794	1.019	correct	pointing	Trial2	pointing/STIM_007.jpg
1327.168	0.85	correct	pointing	Trial2	pointing/STIM_007.jpg
1330.86	1.112	correct	pointing	Trial2	pointing/STIM_007.jpg
1334.086	1.214	correct	pointing	Trial2	pointing/STIM_008.jpg
1337.627	0.814	correct	pointing	Trial2	pointing/STIM_008.jpg
1341.72	1.084	correct	pointing	Trial2	pointing/STIM_008.jpg
1345.576	1.182	correct	pointing	Trial2	pointing/STIM_008.jpg
1350.058	1.122	correct	pointing	Trial2	pointing/STIM_008.jpg
1354.851	1.063	correct	pointing	Trial2	pointing/STIM_008.jpg
1358.437	1.037	correct	pointing	Trial2	pointing/STIM_009.jpg
1362.053	1.079	incorrect	pointing	Trial2	pointing/STIM_009.jpg
1365.821	1.092	correct	pointing	Trial2	pointing/STIM_009.jpg
1369.87	0.97	correct	pointing	Trial2	pointing/STIM_009.jpg
1373.712	0.861	correct	pointing	Trial2	pointing/STIM_009.jpg
1376.921	0.927	correct	pointing	Trial2	pointing/STIM_009.jpg
1381.284	0.853	correct	pointing	Trial2	pointing/STIM_010.jpg
1385.821	1.073	correct	pointing	Trial2	pointing/STIM_010.jpg
1390.58	1.209	correct	pointing	Trial2	pointing/STIM_010.jpg
1395.125	1.092	correct	pointing	Trial2	pointing/STIM_010.jpg
1398.936	1.16	correct	pointing	Trial2	pointing/STIM_010.jpg
1403.599	0.922	correct	pointing	Trial2	pointing/STIM_010.jpg
1408.454	1.346	correct	pointing	Trial2	pointing/STIM_011.jpg
1412.7	1.149	correct	pointing	Trial2	pointing/STIM_011.jpg
1416.14	1.206	correct	pointing	Trial2	pointing/STIM_011.jpg
1420.239	1.363	correct	pointing	Trial2	pointing/STIM_011.jpg
1423.742	0.988	correct	pointing	Trial2	pointing/STIM_011.jpg
1428.018	1.293	correct	pointing	Trial2	pointing/STIM_011.jpg
1431.6	3.152	correct	navigation	Trial3	navigation/STIM_000.jpg
1437.157	1.375	correct	navigation	Trial3	navigation/STIM_000.jpg
1440.842	3.118	correct	navigation	Trial3	navigation/STIM_000.jpg
1446.738	1.693	correct	navigation	Trial3	navigation/STIM_000.jpg
1452.459	2.896	correct	navigation	Trial3	navigation/STIM_000.jpg
1458.05	2.426	correct	navigation	Trial3	navigation/STIM_000.jpg
1464.042	2.173	correct	navigation	Trial3	navigation/STIM_001.jpg
1468.865	1.283	correct	navigation	Trial3	navigation/STIM_001.jpg
1474.063	1.776	correct	navigation	Trial3	navigation/STIM_001.jpg
1479.426	2.652	correct	navigation	Trial3	navigation/STIM_001.jpg
1484.706	2.384	correct	navigation	Trial3	navigation/STIM_001.jpg
1490.848	2.295	incorrect	navigation	Trial3	navigation/STIM_001.jpg
1496.032	3.116	correct	navigation	Trial3	navigation/STIM_002.jpg
1501.926	2.028	correct	navigation	Trial3	navigation/STIM_002.jpg
1506.444	2.376	correct	navigation	Trial3	navigation/STIM_002.jpg
1512.349	1.875	correct	navigation	Trial3	navigation/STIM_002.jpg
1517.505	1.356	correct	navigation	Trial3	navigation/STIM_002.jpg
1521.33	3.038	correct	navigation	Trial3	navigation/STIM_002.jpg
1528.489	2.393	correct	navigation	Trial3	navigation/STIM_003.jpg
1534.962	2.502	correct	navigation	Trial3	navigation/STIM_003.jpg
1540.491	2.521	correct	navigation	Trial3	navigation/STIM_003.jpg
1545.793	1.74	incorrect	navigation	Trial3	navigation/STIM_003.jpg
1550.747	2.39	correct	navigation	Trial3	navigation/STIM_003.jpg
1555.441	2.044	correct	navigation	Trial3	navigation/STIM_003.jpg
1561.09	2.16	correct	navigation	Trial3	navigation/STIM_004.jpg
1566.091	2.573	correct	navigation	Trial3	navigation/STIM_004.jpg
1571.63	1.359	correct	navigation	Trial3	navigation/STIM_004.jpg
1576.346	2.729	correct	navigation	Trial3	navigation/STIM_004.jpg
1582.3	1.713	correct	navigation	Trial3	navigation/STIM_004.jpg
1586.73	2.875	correct	navigation	Trial3	navigation/STIM_004.jpg
1592.666	1.843	correct	navigation	Trial3	navigation/STIM_005.jpg
1598.428	1.712	correct	navigation	Trial3	navigation/STIM_005.jpg
1603.463	2.4	correct	navigation	Trial3	navigation/STIM_005.jpg
1608.713	1.811	correct	navigation	Trial3	navigation/STIM_005.jpg
1613.36	1.789	correct	navigation	Trial3	navigation/STIM_005.jpg
1617.954	1.923	correct	navigation	Trial3	navigation/STIM_005.jpg
1622.715	2.648	correct	navigation	Trial3	navigation/STIM_006.jpg
1628.6	2.27	correct	navigation	Trial3	navigation/STIM_006.jpg
1633.505	1.465	correct	navigation	Trial3	navigation/STIM_006.jpg
1637.756	2.292	incorrect	navigation	Trial3	navigation/STIM_006.jpg
1643.447	2.589	correct	navigation	Trial3	navigation/STIM_006.jpg
1649.359	2.981	correct	navigation	Trial3	navigation/STIM_006.jpg
1655.276	2.552	correct	navigation	Trial3	navigation/STIM_007.jpg
1661.773	2.869	correct	navigation	Trial3	navigation/STIM_007.jpg
1667.001	2.776	correct	navigation	Trial3	navigation/STIM_007.jpg
1672.069	1.549	correct	navigation	Trial3	navigation/STIM_007.jpg
1677.712	1.795	correct	navigation	Trial3	navigation/STIM_007.jpg
1682.196	2.525	correct	navigation	Trial3	navigation/STIM_007.jpg
1687.752	1.689	correct	navigation	Trial3	navigation/STIM_008.jpg
1693.101	2.253	correct	navigation	Trial3	navigation/STIM_008.jpg
1698.681	1.662	correct	navigation	Trial3	navigation/STIM_008.jpg
1703.557	1.281	correct	navigation	Trial3	navigation/STIM_008.jpg
1708.888	2.068	correct	navigation	Trial3	navigation/STIM_008.jpg
1714.312	2.609	correct	navigation	Trial3	navigation/STIM_008.jpg
1719.306	1.768	correct	navigation	Trial3	navigation/STIM_009.jpg
1724.791	2.578	incorrect	navigation	Trial3	navigation/STIM_009.jpg
1729.695	2.706	correct	navigation	Trial3	navigation/STIM_009.jpg
1735.141	1.746	correct	navigation	Trial3	navigation/STIM_009.jpg
1739.244	3.021	correct	navigation	Trial3	navigation/STIM_009.jpg
1745.638	1.812	correct	navigation	Trial3	navigation/STIM_009.jpg
1750.168	1.818	correct	navigation	Trial3	navigation/STIM_010.jpg
1755.23	1.834	correct	navigation	Trial3	navigation/STIM_010.jpg
1760.711	2.608	incorrect	navigation	Trial3	navigation/STIM_010.jpg
1766.288	1.477	incorrect	navigation	Trial3	navigation/STIM_010.jpg
1771.436	3.05	correct	navigation	Trial3	navigation/STIM_010.jpg
1776.924	2.455	correct	navigation	Trial3	navigation/STIM_010.jpg
1783.473	1.528	correct	navigation	Trial3	navigation/STIM_011.jpg
1788.043	3.11	correct	navigation	Trial3	navigation/STIM_011.jpg
1794.911	2.682	correct	navigation	Trial3	navigation/STIM_011.jpg
1801.505	3.16	correct	navigation	Trial3	navigation/STIM_011.jpg
1808.039	2.107	correct	navigation	Trial3	navigation/STIM_011.jpg
1813.844	1.557	correct	navigation	Trial3	navigation/STIM_011.jpg
1818.313	1.212	correct	pointing	Trial3	pointing/STIM_000.jpg
1823.583	0.787	correct	pointing	Trial3	pointing/STIM_000.jpg
1827.317	1.146	incorrect	pointing	Trial3	pointing/STIM_000.jpg
1831.293	0.812	correct	pointing	Trial3	pointing/STIM_000.jpg
1835.289	1.169	correct	pointing	Trial3	pointing/STIM_000.jpg
1840.437	0.867	correct	pointing	Trial3	pointing/STIM_000.jpg
1844.584	0.855	correct	pointing	Trial3	pointing/STIM_001.jpg
1849.155	1.197	correct	pointing	Trial3	pointing/STIM_001.jpg
1852.926	1.296	correct	pointing	Trial3	pointing/STIM_001.jpg
1858.135	1.006	correct	pointing	Trial3	pointing/STIM_001.jpg
1861.924	0.87	incorrect	pointing	Trial3	pointing/STIM_001.jpg
1865.271	1.283	correct	pointing	Trial3	pointing/STIM_001.jpg
1869.92	1.025	correct	pointing	Trial3	pointing/STIM_002.jpg
1873.996	1.316	correct	pointing	Trial3	pointing/STIM_002.jpg
1878.919	0.74	correct	pointing	Trial3	pointing/STIM_002.jpg
1882.396	0.939	correct	pointing	Trial3	pointing/STIM_002.jpg
1887.293	1.009	correct	pointing	Trial3	pointing/STIM_002.jpg
1891.532	0.989	correct	pointing	Trial3	pointing/STIM_002.jpg
1895.681	1.094	correct	pointing	Trial3	pointing/STIM_003.jpg
1900.664	1.267	correct	pointing	Trial3	pointing/STIM_003.jpg
1905.01	0.86	correct	pointing	Trial3	pointing/STIM_003.jpg
1908.323	1.29	correct	pointing	Trial3	pointing/STIM_003.jpg
1911.759	1.095	correct	pointing	Trial3	pointing/STIM_003.jpg
1914.997	1.277	correct	pointing	Trial3	pointing/STIM_003.jpg
1919.744	0.905	correct	pointing	Trial3	pointing/STIM_004.jpg
1924.194	1.328	correct	pointing	Trial3	pointing/STIM_004.jpg
1929.62	0.911	incorrect	pointing	Trial3	pointing/STIM_004.jpg
1933.719	1.124	correct	pointing	Trial3	pointing/STIM_004.jpg
1938.514	0.979	correct	pointing	Trial3	pointing/STIM_004.jpg
1943.435	1.14	correct	pointing	Trial3	pointing/STIM_004.jpg
1947.805	1.275	correct	pointing	Trial3	pointing/STIM_005.jpg
1952.984	1.143	correct	pointing	Trial3	pointing/STIM_005.jpg
1956.695	1.1	correct	pointing	Trial3	pointing/STIM_005.jpg
1960.479	1.1	correct	pointing	Trial3	pointing/STIM_005.jpg
1965.686	1.24	correct	pointing	Trial3	pointing/STIM_005.jpg
1970.075	0.852	correct	pointing	Trial3	pointing/STIM_005.jpg
1973.837	1.246	correct	pointing	Trial3	pointing/STIM_006.jpg
1978.231	0.904	correct	pointing	Trial3	pointing/STIM_006.jpg
1982.21	1.13	correct	pointing	Trial3	pointing/STIM_006.jpg
1987.279	0.944	correct	pointing	Trial3	pointing/STIM_006.jpg
1992.218	0.879	correct	pointing	Trial3	pointing/STIM_006.jpg
1995.333	1.356	correct	pointing	Trial3	pointing/STIM_006.jpg
2000.372	0.951	correct	pointing	Trial3	pointing/STIM_007.jpg
2004.925	1.162	correct	pointing	Trial3	pointing/STIM_007.jpg
2009.102	1.106	correct	pointing	Trial3	pointing/STIM_007.jpg
2013.774	0.844	correct	pointing	Trial3	pointing/STIM_007.jpg
2018.017	1.244	correct	pointing	Trial3	pointing/STIM_007.jpg
2022.102	1.024	correct	pointing	Trial3	pointing/STIM_007.jpg
2026.021	1.353	correct	pointing	Trial3	pointing/STIM_008.jpg
2031.493	0.965	correct	pointing	Trial3	pointing/STIM_008.jpg
2036.55	1.116	correct	pointing	Trial3	pointing/STIM_008.jpg
2040.184	0.94	correct	pointing	Trial3	pointing/STIM_008.jpg
2045.197	0.821	correct	pointing	Trial3	pointing/STIM_008.jpg
2049.616	0.765	incorrect	pointing	Trial3	pointing/STIM_008.jpg
2053.33	0.905	correct	pointing	Trial3	pointing/STIM_009.jpg
2057.96	1.113	correct	pointing	Trial3	pointing/STIM_009.jpg
2062.175	1.359	correct	pointing	Trial3	pointing/STIM_009.jpg
2066.197	0.79	correct	pointing	Trial3	pointing/STIM_009.jpg
2069.153	1.153	correct	pointing	Trial3	pointing/STIM_009.jpg
2074.308	0.961	correct	pointing	Trial3	pointing/STIM_009.jpg
2079.154	0.889	correct	pointing	Trial3	pointing/STIM_010.jpg
2082.807	0.776	correct	pointing	Trial3	pointing/STIM_010.jpg
2085.789	1.003	correct	pointing	Trial3	pointing/STIM_010.jpg
2090.535	1.348	correct	pointing	Trial3	pointing/STIM_010.jpg
2094.657	1.11	correct	pointing	Trial3	pointing/STIM_010.jpg
2099.587	0.811	correct	pointing	Trial3	pointing/STIM_010.jpg
2103.121	1.138	correct	pointing	Trial3	pointing/STIM_011.jpg
2106.436	0.923	correct	pointing	Trial3	pointing/STIM_011.jpg
2110.855	0.849	correct	pointing	Trial3	pointing/STIM_011.jpg
2114.68	1.224	correct	pointing	Trial3	pointing/STIM_011.jpg
2119.751	1.218	correct	pointing	Trial3	pointing/STIM_011.jpg
2123.252	1.203	correct	pointing	Trial3	pointing/STIM_011.jpg
