onset	duration	accuracy_binary	trial_type	learning_stage	stimulus
0.0	1.532	1	generate	Run1	generate/STIM_000.jpg
4.76	2.087	1	generate	Run1	generate/STIM_000.jpg
9.171	1.73	1	generate	Run1	generate/STIM_000.jpg
14.115	1.669	0	generate	Run1	generate/STIM_000.jpg
18.076	2.082	1	generate	Run1	generate/STIM_000.jpg
23.347	1.405	1	generate	Run1	generate/STIM_001.jpg
27.655	2.232	1	generate	Run1	generate/STIM_001.jpg
34.03	2.454	1	generate	Run1	generate/STIM_001.jpg
39.274	1.11	1	generate	Run1	generate/STIM_001.jpg
42.707	1.141	1	generate	Run1	generate/STIM_001.jpg
47.744	1.562	0	generate	Run1	generate/STIM_002.jpg
52.74	1.692	1	generate	Run1	generate/STIM_002.jpg
56.832	1.142	1	generate	Run1	generate/STIM_002.jpg
60.21	2.101	1	generate	Run1	generate/STIM_002.jpg
65.035	2.04	0	generate	Run1	generate/STIM_002.jpg
69.941	2.211	0	generate	Run1	generate/STIM_003.jpg
75.978	2.387	0	generate	Run1	generate/STIM_003.jpg
80.637	1.9	1	generate	Run1	generate/STIM_003.jpg
86.665	1.192	0	generate	Run1	generate/STIM_003.jpg
90.217	1.395	1	generate	Run1	generate/STIM_003.jpg
93.771	1.127	0	generate	Run1	generate/STIM_004.jpg
98.678	1.18	1	generate	Run1	generate/STIM_004.jpg
103.503	1.49	1	generate	Run1	generate/STIM_004.jpg
108.536	1.541	1	generate	Run1	generate/STIM_004.jpg
113.563	1.623	1	generate	Run1	generate/STIM_004.jpg
118.977	2.32	1	generate	Run1	generate/STIM_005.jpg
124.06	1.243	1	generate	Run1	generate/STIM_005.jpg
129.221	2.088	1	generate	Run1	generate/STIM_005.jpg
133.857	2.148	1	generate	Run1	generate/STIM_005.jpg
138.343	1.777	1	generate	Run1	generate/STIM_005.jpg
142.65	1.999	1	generate	Run1	generate/STIM_006.jpg
147.11	1.741	1	generate	Run1	generate/STIM_006.jpg
151.768	2.165	1	generate	Run1	generate/STIM_006.jpg
156.678	1.42	1	generate	Run1	generate/STIM_006.jpg
160.239	2.173	1	generate	Run1	generate/STIM_006.jpg
165.137	1.143	1	generate	Run1	generate/STIM_007.jpg
170.065	1.495	1	generate	Run1	generate/STIM_007.jpg
174.369	2.434	1	generate	Run1	generate/STIM_007.jpg
180.991	1.407	1	generate	Run1	generate/STIM_007.jpg
185.8	1.058	1	generate	Run1	generate/STIM_007.jpg
189.425	2.386	0	generate	Run1	generate/STIM_008.jpg
194.517	1.214	0	generate	Run1	generate/STIM_008.jpg
199.648	1.573	0	generate	Run1	generate/STIM_008.jpg
204.84	2.345	1	generate	Run1	generate/STIM_008.jpg
210.838	1.129	1	generate	Run1	generate/STIM_008.jpg
215.955	1.54	1	generate	Run1	generate/STIM_009.jpg
221.134	1.463	1	generate	Run1	generate/STIM_009.jpg
226.703	2.381	1	generate	Run1	generate/STIM_009.jpg
231.969	1.263	1	generate	Run1	generate/STIM_009.jpg
237.01	1.835	1	generate	Run1	generate/STIM_009.jpg
241.024	1.565	1	generate	Run1	generate/STIM_010.jpg
246.441	2.034	1	generate	Run1	generate/STIM_010.jpg
250.715	2.217	1	generate	Run1	generate/STIM_010.jpg
257.089	1.048	1	generate	Run1	generate/STIM_010.jpg
260.672	1.367	1	generate	Run1	generate/STIM_010.jpg
264.879	2.154	1	generate	Run1	generate/STIM_011.jpg
270.208	1.783	1	generate	Run1	generate/STIM_011.jpg
276.119	1.512	1	generate	Run1	generate/STIM_011.jpg
281.596	1.346	1	generate	Run1	generate/STIM_011.jpg
286.563	0.923	0	generate	Run1	generate/STIM_011.jpg
289.704	1.186	1	generate	Run1	generate/STIM_012.jpg
293.028	1.661	1	generate	Run1	generate/STIM_012.jpg
298.803	2.397	1	generate	Run1	generate/STIM_012.jpg
305.328	1.593	1	generate	Run1	generate/STIM_012.jpg
310.222	1.503	1	generate	Run1	generate/STIM_012.jpg
315.465	1.85	1	generate	Run1	generate/STIM_013.jpg
320.771	1.51	1	generate	Run1	generate/STIM_013.jpg
325.993	1.647	1	generate	Run1	generate/STIM_013.jpg
331.258	2.049	1	generate	Run1	generate/STIM_013.jpg
336.502	1.639	0	generate	Run1	generate/STIM_013.jpg
340.98	1.385	1	generate	Run1	generate/STIM_014.jpg
345.34	1.15	0	generate	Run1	generate/STIM_014.jpg
349.283	1.259	0	generate	Run1	generate/STIM_014.jpg
354.384	1.821	1	generate	Run1	generate/STIM_014.jpg
359.977	2.083	1	generate	Run1	generate/STIM_014.jpg
365.08	2.576	1	generate	Run1	generate/STIM_015.jpg
370.608	2.603	1	generate	Run1	generate/STIM_015.jpg
376.623	2.438	1	generate	Run1	generate/STIM_015.jpg
382.996	2.0	1	generate	Run1	generate/STIM_015.jpg
389.059	2.13	1	generate	Run1	generate/STIM_015.jpg
393.741	1.446	0	generate	Run1	generate/STIM_016.jpg
398.15	1.189	1	generate	Run1	generate/STIM_016.jpg
402.204	1.384	1	generate	Run1	generate/STIM_016.jpg
406.631	2.255	1	generate	Run1	generate/STIM_016.jpg
411.819	1.111	1	generate	Run1	generate/STIM_016.jpg
415.198	1.234	1	generate	Run1	generate/STIM_017.jpg
418.738	1.863	1	generate	Run1	generate/STIM_017.jpg
423.774	1.712	0	generate	Run1	generate/STIM_017.jpg
428.39	2.221	1	generate	Run1	generate/STIM_017.jpg
434.567	1.73	1	generate	Run1	generate/STIM_017.jpg
439.725	1.731	0	generate	Run1	generate/STIM_018.jpg
444.711	2.535	1	generate	Run1	generate/STIM_018.jpg
450.999	1.046	0	generate	Run1	generate/STIM_018.jpg
456.023	2.344	1	generate	Run1	generate/STIM_018.jpg
460.912	2.174	0	generate	Run1	generate/STIM_018.jpg
466.303	1.792	1	generate	Run1	generate/STIM_019.jpg
472.032	2.154	1	generate	Run1	generate/STIM_019.jpg
478.25	1.954	1	generate	Run1	generate/STIM_019.jpg
483.249	1.1	0	generate	Run1	generate/STIM_019.jpg
487.767	1.813	1	generate	Run1	generate/STIM_019.jpg
492.621	1.269	1	generate	Run1	generate/STIM_020.jpg
496.25	2.053	0	generate	Run1	generate/STIM_020.jpg
500.545	1.465	1	generate	Run1	generate/STIM_020.jpg
505.509	1.441	1	generate	Run1	generate/STIM_020.jpg
509.456	1.894	0	generate	Run1	generate/STIM_020.jpg
515.322	1.55	1	generate	Run1	generate/STIM_021.jpg
520.611	1.276	1	generate	Run1	generate/STIM_021.jpg
524.072	2.394	1	generate	Run1	generate/STIM_021.jpg
530.531	1.468	1	generate	Run1	generate/STIM_021.jpg
535.216	1.886	1	generate	Run1	generate/STIM_021.jpg
540.672	1.931	0	generate	Run1	generate/STIM_022.jpg
544.883	2.158	1	generate	Run1	generate/STIM_022.jpg
549.563	1.094	1	generate	Run1	generate/STIM_022.jpg
554.411	1.951	1	generate	Run1	generate/STIM_022.jpg
560.082	2.006	1	generate	Run1	generate/STIM_022.jpg
564.67	1.642	1	generate	Run1	generate/STIM_023.jpg
569.741	1.653	1	generate	Run1	generate/STIM_023.jpg
575.317	2.284	1	generate	Run1	generate/STIM_023.jpg
580.484	1.471	1	generate	Run1	generate/STIM_023.jpg
584.654	1.974	0	generate	Run1	generate/STIM_023.jpg
590.048	1.947	1	generate	Run1	generate/STIM_024.jpg
594.499	1.103	0	generate	Run1	generate/STIM_024.jpg
599.683	1.584	1	generate	Run1	generate/STIM_024.jpg
604.919	2.269	1	generate	Run1	generate/STIM_024.jpg
610.888	1.122	0	generate	Run1	generate/STIM_024.jpg
614.165	0.62	1	repeat	Run1	repeat/STIM_000.jpg
618.723	0.695	1	repeat	Run1	repeat/STIM_000.jpg
622.363	0.665	1	repeat	Run1	repeat/STIM_000.jpg
625.392	0.72	1	repeat	Run1	repeat/STIM_000.jpg
628.447	0.843	1	repeat	Run1	repeat/STIM_000.jpg
631.486	0.598	1	repeat	Run1	repeat/STIM_001.jpg
634.331	0.738	1	repeat	Run1	repeat/STIM_001.jpg
638.391	0.794	1	repeat	Run1	repeat/STIM_001.jpg
641.636	0.622	1	repeat	Run1	repeat/STIM_001.jpg
646.123	0.674	1	repeat	Run1	repeat/STIM_001.jpg
649.083	0.836	1	repeat	Run1	repeat/STIM_002.jpg
653.452	0.678	1	repeat	Run1	repeat/STIM_002.jpg
656.681	0.587	1	repeat	Run1	repeat/STIM_002.jpg
659.74	0.637	1	repeat	Run1	repeat/STIM_002.jpg
663.609	0.477	0	repeat	Run1	repeat/STIM_002.jpg
666.712	0.721	1	repeat	Run1	repeat/STIM_003.jpg
670.802	0.673	1	repeat	Run1	repeat/STIM_003.jpg
674.85	0.691	1	repeat	Run1	repeat/STIM_003.jpg
678.069	0.776	1	repeat	Run1	repeat/STIM_003.jpg
682.495	0.798	1	repeat	Run1	repeat/STIM_003.jpg
685.502	0.89	1	repeat	Run1	repeat/STIM_004.jpg
689.271	0.663	1	repeat	Run1	repeat/STIM_004.jpg
693.495	0.503	1	repeat	Run1	repeat/STIM_004.jpg
696.513	0.525	1	repeat	Run1	repeat/STIM_004.jpg
699.734	0.532	1	repeat	Run1	repeat/STIM_004.jpg
702.363	0.681	0	repeat	Run1	repeat/STIM_005.jpg
706.394	0.485	1	repeat	Run1	repeat/STIM_005.jpg
710.641	0.855	1	repeat	Run1	repeat/STIM_005.jpg
714.144	0.872	0	repeat	Run1	repeat/STIM_005.jpg
717.242	0.511	1	repeat	Run1	repeat/STIM_005.jpg
720.408	0.596	1	repeat	Run1	repeat/STIM_006.jpg
723.394	0.547	1	repeat	Run1	repeat/STIM_006.jpg
727.147	0.898	1	repeat	Run1	repeat/STIM_006.jpg
732.064	0.824	1	repeat	Run1	repeat/STIM_006.jpg
735.314	0.739	1	repeat	Run1	repeat/STIM_006.jpg
738.977	0.649	1	repeat	Run1	repeat/STIM_007.jpg
742.517	0.666	1	repeat	Run1	repeat/STIM_007.jpg
746.72	0.84	1	repeat	Run1	repeat/STIM_007.jpg
749.917	0.821	1	repeat	Run1	repeat/STIM_007.jpg
753.574	0.594	1	repeat	Run1	repeat/STIM_007.jpg
756.407	0.821	1	repeat	Run1	repeat/STIM_008.jpg
759.451	0.733	1	repeat	Run1	repeat/STIM_008.jpg
763.161	0.848	1	repeat	Run1	repeat/STIM_008.jpg
767.858	0.672	1	repeat	Run1	repeat/STIM_008.jpg
770.832	0.722	1	repeat	Run1	repeat/STIM_008.jpg
774.908	0.699	1	repeat	Run1	repeat/STIM_009.jpg
778.942	0.682	0	repeat	Run1	repeat/STIM_009.jpg
783.542	0.546	1	repeat	Run1	repeat/STIM_009.jpg
787.467	0.61	1	repeat	Run1	repeat/STIM_009.jpg
790.175	0.632	1	repeat	Run1	repeat/STIM_009.jpg
794.315	0.919	1	repeat	Run1	repeat/STIM_010.jpg
797.857	0.828	1	repeat	Run1	repeat/STIM_010.jpg
801.5	0.686	1	repeat	Run1	repeat/STIM_010.jpg
805.458	0.574	1	repeat	Run1	repeat/STIM_010.jpg
809.543	0.544	1	repeat	Run1	repeat/STIM_010.jpg
813.985	0.535	1	repeat	Run1	repeat/STIM_011.jpg
817.382	0.5	1	repeat	Run1	repeat/STIM_011.jpg
821.212	0.468	1	repeat	Run1	repeat/STIM_011.jpg
824.983	0.663	1	repeat	Run1	repeat/STIM_011.jpg
829.657	0.86	1	repeat	Run1	repeat/STIM_011.jpg
832.615	0.581	1	repeat	Run1	repeat/STIM_012.jpg
836.587	0.671	1	repeat	Run1	repeat/STIM_012.jpg
839.715	0.71	1	repeat	Run1	repeat/STIM_012.jpg
842.894	0.757	1	repeat	Run1	repeat/STIM_012.jpg
845.793	0.862	1	repeat	Run1	repeat/STIM_012.jpg
848.742	0.58	1	repeat	Run1	repeat/STIM_013.jpg
851.654	0.767	1	repeat	Run1	repeat/STIM_013.jpg
855.629	0.765	1	repeat	Run1	repeat/STIM_013.jpg
858.671	0.814	1	repeat	Run1	repeat/STIM_013.jpg
862.267	0.68	1	repeat	Run1	repeat/STIM_013.jpg
866.853	0.746	0	repeat	Run1	repeat/STIM_014.jpg
870.399	0.473	1	repeat	Run1	repeat/STIM_014.jpg
874.467	0.834	1	repeat	Run1	repeat/STIM_014.jpg
878.214	0.532	1	repeat	Run1	repeat/STIM_014.jpg
881.15	0.478	1	repeat	Run1	repeat/STIM_014.jpg
885.488	0.97	0	generate	Run2	generate/STIM_000.jpg
889.089	1.905	1	generate	Run2	generate/STIM_000.jpg
894.944	0.939	1	generate	Run2	generate/STIM_000.jpg
899.941	1.836	1	generate	Run2	generate/STIM_000.jpg
905.421	1.476	1	generate	Run2	generate/STIM_000.jpg
909.049	2.34	1	generate	Run2	generate/STIM_001.jpg
914.675	1.758	1	generate	Run2	generate/STIM_001.jpg
920.294	1.866	1	generate	Run2	generate/STIM_001.jpg
924.898	1.863	1	generate	Run2	generate/STIM_001.jpg
930.543	1.755	1	generate	Run2	generate/STIM_001.jpg
934.802	1.182	0	generate	Run2	generate/STIM_002.jpg
939.06	2.15	1	generate	Run2	generate/STIM_002.jpg
943.481	1.742	0	generate	Run2	generate/STIM_002.jpg
948.841	1.912	1	generate	Run2	generate/STIM_002.jpg
953.53	1.516	0	generate	Run2	generate/STIM_002.jpg
959.149	1.816	0	generate	Run2	generate/STIM_003.jpg
963.904	1.374	1	generate	Run2	generate/STIM_003.jpg
967.896	1.141	1	generate	Run2	generate/STIM_003.jpg
972.195	1.446	1	generate	Run2	generate/STIM_003.jpg
976.149	1.707	1	generate	Run2	generate/STIM_003.jpg
980.178	1.863	1	generate	Run2	generate/STIM_004.jpg
984.459	1.539	1	generate	Run2	generate/STIM_004.jpg
988.764	2.009	1	generate	Run2	generate/STIM_004.jpg
993.488	1.229	1	generate	Run2	generate/STIM_004.jpg
997.369	1.09	1	generate	Run2	generate/STIM_004.jpg
1002.091	1.621	1	generate	Run2	generate/STIM_005.jpg
1007.252	2.115	1	generate	Run2	generate/STIM_005.jpg
1011.622	1.219	1	generate	Run2	generate/STIM_005.jpg
1016.484	0.973	1	generate	Run2	generate/STIM_005.jpg
1019.647	1.629	1	generate	Run2	generate/STIM_005.jpg
1024.761	0.958	0	generate	Run2	generate/STIM_006.jpg
1028.107	1.104	1	generate	Run2	generate/STIM_006.jpg
1031.611	1.501	0	generate	Run2	generate/STIM_006.jpg
1035.52	1.196	1	generate	Run2	generate/STIM_006.jpg
1038.82	1.711	1	generate	Run2	generate/STIM_006.jpg
1042.717	2.282	1	generate	Run2	generate/STIM_007.jpg
1047.321	1.05	1	generate	Run2	generate/STIM_007.jpg
1052.066	1.923	1	generate	Run2	generate/STIM_007.jpg
1057.012	1.175	1	generate	Run2	generate/STIM_007.jpg
1060.784	1.809	1	generate	Run2	generate/STIM_007.jpg
1064.743	1.236	0	generate	Run2	generate/STIM_008.jpg
1068.332	1.381	1	generate	Run2	generate/STIM_008.jpg
1073.508	1.668	0	generate	Run2	generate/STIM_008.jpg
1077.978	1.231	1	generate	Run2	generate/STIM_008.jpg
1082.942	1.319	1	generate	Run2	generate/STIM_008.jpg
1087.534	2.02	1	generate	Run2	generate/STIM_009.jpg
1093.487	1.537	1	generate	Run2	generate/STIM_009.jpg
1097.84	0.982	1	generate	Run2	generate/STIM_009.jpg
1102.31	1.808	1	generate	Run2	generate/STIM_009.jpg
1106.574	1.829	0	generate	Run2	generate/STIM_009.jpg
1110.649	1.238	1	generate	Run2	generate/STIM_010.jpg
1115.01	2.211	0	generate	Run2	generate/STIM_010.jpg
1120.117	1.74	1	generate	Run2	generate/STIM_010.jpg
1125.126	1.2	1	generate	Run2	generate/STIM_010.jpg
1129.896	1.264	0	generate	Run2	generate/STIM_010.jpg
1134.232	1.076	1	generate	Run2	generate/STIM_011.jpg
1139.124	1.799	0	generate	Run2	generate/STIM_011.jpg
1144.995	0.86	1	generate	Run2	generate/STIM_011.jpg
1148.726	0.914	1	generate	Run2	generate/STIM_011.jpg
1153.035	1.013	1	generate	Run2	generate/STIM_011.jpg
1156.834	1.772	1	generate	Run2	generate/STIM_012.jpg
1161.22	0.959	0	generate	Run2	generate/STIM_012.jpg
1165.994	1.729	1	generate	Run2	generate/STIM_012.jpg
1170.263	0.992	1	generate	Run2	generate/STIM_012.jpg
1175.115	1.549	1	generate	Run2	generate/STIM_012.jpg
1179.546	2.268	1	generate	Run2	generate/STIM_013.jpg
1184.176	1.252	1	generate	Run2	generate/STIM_013.jpg
1188.725	1.02	1	generate	Run2	generate/STIM_013.jpg
1193.011	1.114	1	generate	Run2	generate/STIM_013.jpg
1196.382	1.064	1	generate	Run2	generate/STIM_013.jpg
1201.33	1.357	1	generate	Run2	generate/STIM_014.jpg
1206.336	1.223	1	generate	Run2	generate/STIM_014.jpg
1210.365	1.689	1	generate	Run2	generate/STIM_014.jpg
1214.402	1.174	1	generate	Run2	generate/STIM_014.jpg
1219.339	1.213	1	generate	Run2	generate/STIM_014.jpg
1224.192	0.972	1	generate	Run2	generate/STIM_015.jpg
1227.613	1.132	1	generate	Run2	generate/STIM_015.jpg
1232.03	1.015	1	generate	Run2	generate/STIM_015.jpg
1236.035	1.757	1	generate	Run2	generate/STIM_015.jpg
1240.271	1.048	1	generate	Run2	generate/STIM_015.jpg
1243.653	1.082	1	generate	Run2	generate/STIM_016.jpg
1248.619	0.888	1	generate	Run2	generate/STIM_016.jpg
1252.419	1.387	0	generate	Run2	generate/STIM_016.jpg
1257.915	1.818	1	generate	Run2	generate/STIM_016.jpg
1263.809	1.19	1	generate	Run2	generate/STIM_016.jpg
1267.949	1.564	1	generate	Run2	generate/STIM_017.jpg
1271.679	2.068	1	generate	Run2	generate/STIM_017.jpg
1277.09	1.956	1	generate	Run2	generate/STIM_017.jpg
1282.959	1.398	1	generate	Run2	generate/STIM_017.jpg
1288.117	1.428	1	generate	Run2	generate/STIM_017.jpg
1293.513	1.467	1	generate	Run2	generate/STIM_018.jpg
1298.906	1.944	1	generate	Run2	generate/STIM_018.jpg
1304.857	1.862	1	generate	Run2	generate/STIM_018.jpg
1309.652	1.677	1	generate	Run2	generate/STIM_018.jpg
1315.171	0.878	1	generate	Run2	generate/STIM_018.jpg
1319.007	2.174	1	generate	Run2	generate/STIM_019.jpg
1325.021	1.134	1	generate	Run2	generate/STIM_019.jpg
1330.209	1.76	1	generate	Run2	generate/STIM_019.jpg
1335.143	0.963	1	generate	Run2	generate/STIM_019.jpg
1338.713	1.903	1	generate	Run2	generate/STIM_019.jpg
1342.959	1.574	1	generate	Run2	generate/STIM_020.jpg
1347.132	2.073	1	generate	Run2	generate/STIM_020.jpg
1352.054	1.764	1	generate	Run2	generate/STIM_020.jpg
1357.29	1.503	0	generate	Run2	generate/STIM_020.jpg
1362.242	1.44	1	generate	Run2	generate/STIM_020.jpg
1367.469	2.248	1	generate	Run2	generate/STIM_021.jpg
1372.824	1.663	1	generate	Run2	generate/STIM_021.jpg
1376.707	1.288	1	generate	Run2	generate/STIM_021.jpg
1380.164	0.924	1	generate	Run2	generate/STIM_021.jpg
1383.765	1.241	1	generate	Run2	generate/STIM_021.jpg
1387.815	1.046	0	generate	Run2	generate/STIM_022.jpg
1391.82	1.087	1	generate	Run2	generate/STIM_022.jpg
1396.689	1.428	1	generate	Run2	generate/STIM_022.jpg
1400.334	1.634	1	generate	Run2	generate/STIM_022.jpg
1405.439	1.573	1	generate	Run2	generate/STIM_022.jpg
1409.155	1.306	1	generate	Run2	generate/STIM_023.jpg
1413.601	1.257	1	generate	Run2	generate/STIM_023.jpg
1418.488	1.18	1	generate	Run2	generate/STIM_023.jpg
1421.843	1.395	1	generate	Run2	generate/STIM_023.jpg
1426.006	1.693	1	generate	Run2	generate/STIM_023.jpg
1430.161	1.596	1	generate	Run2	generate/STIM_024.jpg
1434.082	2.043	1	generate	Run2	generate/STIM_024.jpg
1438.415	0.893	1	generate	Run2	generate/STIM_024.jpg
1441.667	1.928	1	generate	Run2	generate/STIM_024.jpg
1446.952	1.358	1	generate	Run2	generate/STIM_024.jpg
1452.031	0.847	1	repeat	Run2	repeat/STIM_000.jpg
1455.252	0.469	1	repeat	Run2	repeat/STIM_000.jpg
1459.378	0.633	1	repeat	Run2	repeat/STIM_000.jpg
1462.072	0.829	1	repeat	Run2	repeat/STIM_000.jpg
1465.969	0.764	1	repeat	Run2	repeat/STIM_000.jpg
1470.764	0.919	1	repeat	Run2	repeat/STIM_001.jpg
1473.974	0.795	1	repeat	Run2	repeat/STIM_001.jpg
1477.945	0.652	1	repeat	Run2	repeat/STIM_001.jpg
1481.954	0.533	1	repeat	Run2	repeat/STIM_001.jpg
1486.223	0.616	1	repeat	Run2	repeat/STIM_001.jpg
1489.215	0.716	1	repeat	Run2	repeat/STIM_002.jpg
1493.028	0.648	1	repeat	Run2	repeat/STIM_002.jpg
1495.885	0.605	1	repeat	Run2	repeat/STIM_002.jpg
1500.266	0.602	1	repeat	Run2	repeat/STIM_002.jpg
1504.493	0.877	1	repeat	Run2	repeat/STIM_002.jpg
1508.568	0.667	1	repeat	Run2	repeat/STIM_003.jpg
1512.904	0.667	1	repeat	Run2	repeat/STIM_003.jpg
1517.471	0.637	1	repeat	Run2	repeat/STIM_003.jpg
1521.483	0.73	1	repeat	Run2	repeat/STIM_003.jpg
1526.244	0.655	1	repeat	Run2	repeat/STIM_003.jpg
1530.106	0.786	1	repeat	Run2	repeat/STIM_004.jpg
1533.512	0.633	1	repeat	Run2	repeat/STIM_004.jpg
1536.471	0.487	1	repeat	Run2	repeat/STIM_004.jpg
1539.573	0.689	1	repeat	Run2	repeat/STIM_004.jpg
1543.905	0.564	1	repeat	Run2	repeat/STIM_004.jpg
1547.687	0.52	1	repeat	Run2	repeat/STIM_005.jpg
1552.162	0.506	1	repeat	Run2	repeat/STIM_005.jpg
1555.439	0.666	0	repeat	Run2	repeat/STIM_005.jpg
1559.904	0.771	1	repeat	Run2	repeat/STIM_005.jpg
1562.863	0.846	1	repeat	Run2	repeat/STIM_005.jpg
1567.206	0.578	1	repeat	Run2	repeat/STIM_006.jpg
1571.422	0.908	1	repeat	Run2	repeat/STIM_006.jpg
1575.312	0.815	1	repeat	Run2	repeat/STIM_006.jpg
1578.473	0.863	1	repeat	Run2	repeat/STIM_006.jpg
1582.795	0.508	1	repeat	Run2	repeat/STIM_006.jpg
1585.429	0.527	1	repeat	Run2	repeat/STIM_007.jpg
1588.04	0.744	1	repeat	Run2	repeat/STIM_007.jpg
1591.347	0.736	1	repeat	Run2	repeat/STIM_007.jpg
1594.564	0.909	1	repeat	Run2	repeat/STIM_007.jpg
1598.051	0.623	1	repeat	Run2	repeat/STIM_007.jpg
1602.589	0.593	1	repeat	Run2	repeat/STIM_008.jpg
1607.065	0.777	0	repeat	Run2	repeat/STIM_008.jpg
1611.656	0.675	1	repeat	Run2	repeat/STIM_008.jpg
1615.297	0.512	1	repeat	Run2	repeat/STIM_008.jpg
1619.602	0.852	1	repeat	Run2	repeat/STIM_008.jpg
1624.209	0.762	1	repeat	Run2	repeat/STIM_009.jpg
1628.763	0.466	0	repeat	Run2	repeat/STIM_009.jpg
1632.11	0.542	1	repeat	Run2	repeat/STIM_009.jpg
1634.809	0.844	1	repeat	Run2	repeat/STIM_009.jpg
1639.25	0.68	0	repeat	Run2	repeat/STIM_009.jpg
1643.238	0.681	1	repeat	Run2	repeat/STIM_010.jpg
1647.37	0.913	1	repeat	Run2	repeat/STIM_010.jpg
1650.446	0.791	1	repeat	Run2	repeat/STIM_010.jpg
1654.853	0.859	1	repeat	Run2	repeat/STIM_010.jpg
1658.068	0.562	1	repeat	Run2	repeat/STIM_010.jpg
1661.661	0.696	1	repeat	Run2	repeat/STIM_011.jpg
1666.299	0.848	1	repeat	Run2	repeat/STIM_011.jpg
1669.609	0.742	1	repeat	Run2	repeat/STIM_011.jpg
1674.349	0.857	1	repeat	Run2	repeat/STIM_011.jpg
1678.508	0.677	1	repeat	Run2	repeat/STIM_011.jpg
1682.494	0.764	1	repeat	Run2	repeat/STIM_012.jpg
1685.766	0.784	1	repeat	Run2	repeat/STIM_012.jpg
1689.827	0.749	1	repeat	Run2	repeat/STIM_012.jpg
1693.312	0.555	1	repeat	Run2	repeat/STIM_012.jpg
1696.421	0.513	1	repeat	Run2	repeat/STIM_012.jpg
1700.282	0.738	1	repeat	Run2	repeat/STIM_013.jpg
1704.042	0.466	1	repeat	Run2	repeat/STIM_013.jpg
1706.739	0.654	1	repeat	Run2	repeat/STIM_013.jpg
1709.701	0.618	1	repeat	Run2	repeat/STIM_013.jpg
1713.56	0.846	1	repeat	Run2	repeat/STIM_013.jpg
1717.226	0.511	1	repeat	Run2	repeat/STIM_014.jpg
1720.242	0.916	1	repeat	Run2	repeat/STIM_014.jpg
1723.394	0.795	1	repeat	Run2	repeat/STIM_014.jpg
1726.489	0.893	1	repeat	Run2	repeat/STIM_014.jpg
1730.963	0.905	1	repeat	Run2	repeat/STIM_014.jpg
1735.632	1.074	1	generate	Run3	generate/STIM_000.jpg
1739.038	1.774	1	generate	Run3	generate/STIM_000.jpg
1744.031	0.894	1	generate	Run3	generate/STIM_000.jpg
1747.245	1.791	1	generate	Run3	generate/STIM_000.jpg
1751.717	0.853	1	generate	Run3	generate/STIM_000.jpg
1755.792	0.925	1	generate	Run3	generate/STIM_001.jpg
1759.9	0.863	1	generate	Run3	generate/STIM_001.jpg
1764.798	1.902	1	generate	Run3	generate/STIM_001.jpg
1770.401	1.897	1	generate	Run3	generate/STIM_001.jpg
1775.085	1.21	0	generate	Run3	generate/STIM_001.jpg
1779.052	1.3	1	generate	Run3	generate/STIM_002.jpg
1782.651	0.853	1	generate	Run3	generate/STIM_002.jpg
1787.135	1.573	1	generate	Run3	generate/STIM_002.jpg
1792.549	0.803	1	generate	Run3	generate/STIM_002.jpg
1795.436	1.816	1	generate	Run3	generate/STIM_002.jpg
1799.528	1.077	1	generate	Run3	generate/STIM_003.jpg
1803.278	1.123	0	generate	Run3	generate/STIM_003.jpg
1808.407	1.76	1	generate	Run3	generate/STIM_003.jpg
1812.756	1.498	1	generate	Run3	generate/STIM_003.jpg
1817.418	1.26	1	generate	Run3	generate/STIM_003.jpg
1822.175	1.879	1	generate	Run3	generate/STIM_004.jpg
1826.618	1.049	1	generate	Run3	generate/STIM_004.jpg
1830.942	1.771	1	generate	Run3	generate/STIM_004.jpg
1836.428	1.08	1	generate	Run3	generate/STIM_004.jpg
1840.925	1.1	1	generate	Run3	generate/STIM_004.jpg
1845.745	1.28	1	generate	Run3	generate/STIM_005.jpg
1849.856	1.174	1	generate	Run3	generate/STIM_005.jpg
1855.004	1.732	1	generate	Run3	generate/STIM_005.jpg
1859.411	1.124	1	generate	Run3	generate/STIM_005.jpg
1863.655	1.901	1	generate	Run3	generate/STIM_005.jpg
1869.072	0.867	1	generate	Run3	generate/STIM_006.jpg
1872.327	1.689	1	generate	Run3	generate/STIM_006.jpg
1876.886	0.778	0	generate	Run3	generate/STIM_006.jpg
1880.584	1.094	1	generate	Run3	generate/STIM_006.jpg
1885.646	1.23	1	generate	Run3	generate/STIM_006.jpg
1890.616	1.629	1	generate	Run3	generate/STIM_007.jpg
1896.129	1.095	1	generate	Run3	generate/STIM_007.jpg
1899.678	1.894	1	generate	Run3	generate/STIM_007.jpg
1904.619	1.439	1	generate	Run3	generate/STIM_007.jpg
1908.874	1.358	1	generate	Run3	generate/STIM_007.jpg
1913.91	1.216	1	generate	Run3	generate/STIM_008.jpg
1918.505	0.814	1	generate	Run3	generate/STIM_008.jpg
1921.874	1.02	1	generate	Run3	generate/STIM_008.jpg
1925.205	1.0	1	generate	Run3	generate/STIM_008.jpg
1928.881	1.694	1	generate	Run3	generate/STIM_008.jpg
1933.793	1.935	1	generate	Run3	generate/STIM_009.jpg
1939.277	1.585	1	generate	Run3	generate/STIM_009.jpg
1944.793	1.646	1	generate	Run3	generate/STIM_009.jpg
1948.783	1.668	1	generate	Run3	generate/STIM_009.jpg
1953.582	1.642	1	generate	Run3	generate/STIM_009.jpg
1958.246	1.756	1	generate	Run3	generate/STIM_010.jpg
1963.429	1.058	1	generate	Run3	generate/STIM_010.jpg
1967.886	1.767	1	generate	Run3	generate/STIM_010.jpg
1972.371	1.096	1	generate	Run3	generate/STIM_010.jpg
1976.153	0.802	1	generate	Run3	generate/STIM_010.jpg
1980.48	1.052	1	generate	Run3	generate/STIM_011.jpg
1984.169	1.907	1	generate	Run3	generate/STIM_011.jpg
1989.286	0.945	1	generate	Run3	generate/STIM_011.jpg
1992.81	0.797	1	generate	Run3	generate/STIM_011.jpg
1996.912	1.66	1	generate	Run3	generate/STIM_011.jpg
2001.98	1.568	0	generate	Run3	generate/STIM_012.jpg
2007.178	1.624	1	generate	Run3	generate/STIM_012.jpg
2012.256	1.558	1	generate	Run3	generate/STIM_012.jpg
2017.474	1.455	1	generate	Run3	generate/STIM_012.jpg
2022.585	1.206	1	generate	Run3	generate/STIM_012.jpg
2026.462	1.563	1	generate	Run3	generate/STIM_013.jpg
2030.562	0.796	1	generate	Run3	generate/STIM_013.jpg
2034.417	1.523	1	generate	Run3	generate/STIM_013.jpg
2038.39	1.409	1	generate	Run3	generate/STIM_013.jpg
2042.913	1.848	1	generate	Run3	generate/STIM_013.jpg
2047.53	1.059	1	generate	Run3	generate/STIM_014.jpg
2050.976	1.563	1	generate	Run3	generate/STIM_014.jpg
2055.568	1.36	1	generate	Run3	generate/STIM_014.jpg
2059.28	0.884	1	generate	Run3	generate/STIM_014.jpg
2064.002	0.844	1	generate	Run3	generate/STIM_014.jpg
2067.554	1.627	1	generate	Run3	generate/STIM_015.jpg
2073.047	1.545	1	generate	Run3	generate/STIM_015.jpg
2078.482	1.438	1	generate	Run3	generate/STIM_015.jpg
2082.813	1.365	1	generate	Run3	generate/STIM_015.jpg
2087.9	1.581	1	generate	Run3	generate/STIM_015.jpg
2091.889	1.836	1	generate	Run3	generate/STIM_016.jpg
2097.099	1.123	1	generate	Run3	generate/STIM_016.jpg
2101.872	1.076	0	generate	Run3	generate/STIM_016.jpg
2105.786	0.911	1	generate	Run3	generate/STIM_016.jpg
2110.595	1.543	1	generate	Run3	generate/STIM_016.jpg
2115.705	1.936	1	generate	Run3	generate/STIM_017.jpg
2121.094	1.242	1	generate	Run3	generate/STIM_017.jpg
2125.299	1.251	1	generate	Run3	generate/STIM_017.jpg
2129.066	0.776	1	generate	Run3	generate/STIM_017.jpg
2132.62	1.464	1	generate	Run3	generate/STIM_017.jpg
2137.471	1.633	1	generate	Run3	generate/STIM_018.jpg
2142.109	1.04	1	generate	Run3	generate/STIM_018.jpg
2145.238	1.229	1	generate	Run3	generate/STIM_018.jpg
2150.253	1.529	1	generate	Run3	generate/STIM_018.jpg
2155.645	1.536	1	generate	Run3	generate/STIM_018.jpg
2160.389	1.67	1	generate	Run3	generate/STIM_019.jpg
2164.736	1.882	1	generate	Run3	generate/STIM_019.jpg
2169.81	1.144	1	generate	Run3	generate/STIM_019.jpg
2173.538	1.302	0	generate	Run3	generate/STIM_019.jpg
2178.676	1.145	1	generate	Run3	generate/STIM_019.jpg
2182.231	1.557	1	generate	Run3	generate/STIM_020.jpg
2187.213	0.826	1	generate	Run3	generate/STIM_020.jpg
2190.569	0.866	1	generate	Run3	generate/STIM_020.jpg
2194.887	1.83	1	generate	Run3	generate/STIM_020.jpg
2199.649	1.523	1	generate	Run3	generate/STIM_020.jpg
2203.553	1.694	0	generate	Run3	generate/STIM_021.jpg
2209.306	0.991	0	generate	Run3	generate/STIM_021.jpg
2214.016	1.739	1	generate	Run3	generate/STIM_021.jpg
2219.72	1.642	1	generate	Run3	generate/STIM_021.jpg
2224.054	0.834	1	generate	Run3	generate/STIM_021.jpg
2227.653	1.275	1	generate	Run3	generate/STIM_022.jpg
2231.726	1.936	1	generate	Run3	generate/STIM_022.jpg
2237.44	1.76	0	generate	Run3	generate/STIM_022.jpg
2242.049	1.389	1	generate	Run3	generate/STIM_022.jpg
2245.687	1.531	1	generate	Run3	generate/STIM_022.jpg
2251.099	1.074	1	generate	Run3	generate/STIM_023.jpg
2255.727	1.422	1	generate	Run3	generate/STIM_023.jpg
2260.348	1.671	1	generate	Run3	generate/STIM_023.jpg
2264.525	1.467	1	generate	Run3	generate/STIM_023.jpg
2268.272	1.153	1	generate	Run3	generate/STIM_023.jpg
2272.818	0.89	1	generate	Run3	generate/STIM_024.jpg
2276.33	1.425	0	generate	Run3	generate/STIM_024.jpg
2281.286	0.899	1	generate	Run3	generate/STIM_024.jpg
2284.992	0.938	1	generate	Run3	generate/STIM_024.jpg
2289.64	0.791	1	generate	Run3	generate/STIM_024.jpg
2294.46	0.462	1	repeat	Run3	repeat/STIM_000.jpg
2297.365	0.604	1	repeat	Run3	repeat/STIM_000.jpg
2301.407	0.681	1	repeat	Run3	repeat/STIM_000.jpg
2305.428	0.889	1	repeat	Run3	repeat/STIM_000.jpg
2309.576	0.906	1	repeat	Run3	repeat/STIM_000.jpg
2313.893	0.677	1	repeat	Run3	repeat/STIM_001.jpg
2316.712	0.901	1	repeat	Run3	repeat/STIM_001.jpg
2320.957	0.568	1	repeat	Run3	repeat/STIM_001.jpg
2324.989	0.741	1	repeat	Run3	repeat/STIM_001.jpg
2329.512	0.598	1	repeat	Run3	repeat/STIM_001.jpg
2332.392	0.594	1	repeat	Run3	repeat/STIM_002.jpg
2336.259	0.586	1	repeat	Run3	repeat/STIM_002.jpg
2340.499	0.83	1	repeat	Run3	repeat/STIM_002.jpg
2344.234	0.898	1	repeat	Run3	repeat/STIM_002.jpg
2349.008	0.71	1	repeat	Run3	repeat/STIM_002.jpg
2353.396	0.774	1	repeat	Run3	repeat/STIM_003.jpg
2356.862	0.516	1	repeat	Run3	repeat/STIM_003.jpg
2361.311	0.535	1	repeat	Run3	repeat/STIM_003.jpg
2365.559	0.748	1	repeat	Run3	repeat/STIM_003.jpg
2368.873	0.523	1	repeat	Run3	repeat/STIM_003.jpg
2372.708	0.606	1	repeat	Run3	repeat/STIM_004.jpg
2377.327	0.506	1	repeat	Run3	repeat/STIM_004.jpg
2381.262	0.646	1	repeat	Run3	repeat/STIM_004.jpg
2384.467	0.648	1	repeat	Run3	repeat/STIM_004.jpg
2387.378	0.628	1	repeat	Run3	repeat/STIM_004.jpg
2391.387	0.767	1	repeat	Run3	repeat/STIM_005.jpg
2394.522	0.866	1	repeat	Run3	repeat/STIM_005.jpg
2398.576	0.806	1	repeat	Run3	repeat/STIM_005.jpg
2403.002	0.717	1	repeat	Run3	repeat/STIM_005.jpg
2406.185	0.731	1	repeat	Run3	repeat/STIM_005.jpg
2409.807	0.831	1	repeat	Run3	repeat/STIM_006.jpg
2414.595	0.668	1	repeat	Run3	repeat/STIM_006.jpg
2417.946	0.687	1	repeat	Run3	repeat/STIM_006.jpg
2422.024	0.668	1	repeat	Run3	repeat/STIM_006.jpg
2425.904	0.87	1	repeat	Run3	repeat/STIM_006.jpg
2428.972	0.618	1	repeat	Run3	repeat/STIM_007.jpg
2433.378	0.67	1	repeat	Run3	repeat/STIM_007.jpg
2437.045	0.486	1	repeat	Run3	repeat/STIM_007.jpg
2439.985	0.516	1	repeat	Run3	repeat/STIM_007.jpg
2443.181	0.754	0	repeat	Run3	repeat/STIM_007.jpg
2447.173	0.888	1	repeat	Run3	repeat/STIM_008.jpg
2451.123	0.72	1	repeat	Run3	repeat/STIM_008.jpg
2455.323	0.69	1	repeat	Run3	repeat/STIM_008.jpg
2459.539	0.622	1	repeat	Run3	repeat/STIM_008.jpg
2464.03	0.69	1	repeat	Run3	repeat/STIM_008.jpg
2468.457	0.596	1	repeat	Run3	repeat/STIM_009.jpg
2471.499	0.757	1	repeat	Run3	repeat/STIM_009.jpg
2474.914	0.511	1	repeat	Run3	repeat/STIM_009.jpg
2479.318	0.474	1	repeat	Run3	repeat/STIM_009.jpg
2482.185	0.755	1	repeat	Run3	repeat/STIM_009.jpg
2486.477	0.845	1	repeat	Run3	repeat/STIM_010.jpg
2490.58	0.614	1	repeat	Run3	repeat/STIM_010.jpg
2494.178	0.85	1	repeat	Run3	repeat/STIM_010.jpg
2497.202	0.478	1	repeat	Run3	repeat/STIM_010.jpg
2499.748	0.676	1	repeat	Run3	repeat/STIM_010.jpg
2502.585	0.851	1	repeat	Run3	repeat/STIM_011.jpg
2506.74	0.826	1	repeat	Run3	repeat/STIM_011.jpg
2511.108	0.572	1	repeat	Run3	repeat/STIM_011.jpg
2513.971	0.771	1	repeat	Run3	repeat/STIM_011.jpg
2518.689	0.571	1	repeat	Run3	repeat/STIM_011.jpg
2523.059	0.83	1	repeat	Run3	repeat/STIM_012.jpg
2526.417	0.512	0	repeat	Run3	repeat/STIM_012.jpg
2530.493	0.584	1	repeat	Run3	repeat/STIM_012.jpg
2534.336	0.913	1	repeat	Run3	repeat/STIM_012.jpg
2538.789	0.697	1	repeat	Run3	repeat/STIM_012.jpg
2542.8	0.523	1	repeat	Run3	repeat/STIM_013.jpg
2546.285	0.775	1	repeat	Run3	repeat/STIM_013.jpg
2550.184	0.821	0	repeat	Run3	repeat/STIM_013.jpg
2554.737	0.536	1	repeat	Run3	repeat/STIM_013.jpg
2557.848	0.497	1	repeat	Run3	repeat/STIM_013.jpg
2560.918	0.736	1	repeat	Run3	repeat/STIM_014.jpg
2564.192	0.922	1	repeat	Run3	repeat/STIM_014.jpg
2567.839	0.746	1	repeat	Run3	repeat/STIM_014.jpg
2570.885	0.683	1	repeat	Run3	repeat/STIM_014.jpg
2575.048	0.757	1	repeat	Run3	repeat/STIM_014.jpg
2578.78	1.857	0	generate	Run4	generate/STIM_000.jpg
2582.807	1.341	1	generate	Run4	generate/STIM_000.jpg
2588.183	1.765	1	generate	Run4	generate/STIM_000.jpg
2593.666	0.89	1	generate	Run4	generate/STIM_000.jpg
2597.589	1.436	1	generate	Run4	generate/STIM_000.jpg
2601.613	1.939	1	generate	Run4	generate/STIM_001.jpg
2605.893	1.602	1	generate	Run4	generate/STIM_001.jpg
2610.689	1.401	1	generate	Run4	generate/STIM_001.jpg
2615.412	1.512	1	generate	Run4	generate/STIM_001.jpg
2620.221	1.723	1	generate	Run4	generate/STIM_001.jpg
2625.632	1.787	0	generate	Run4	generate/STIM_002.jpg
2630.766	1.925	1	generate	Run4	generate/STIM_002.jpg
2635.629	0.78	1	generate	Run4	generate/STIM_002.jpg
2638.563	1.398	1	generate	Run4	generate/STIM_002.jpg
2643.198	1.115	1	generate	Run4	generate/STIM_002.jpg
2646.494	1.847	1	generate	Run4	generate/STIM_003.jpg
2651.151	1.812	1	generate	Run4	generate/STIM_003.jpg
2655.376	1.339	1	generate	Run4	generate/STIM_003.jpg
2659.296	1.886	1	generate	Run4	generate/STIM_003.jpg
2663.846	1.677	1	generate	Run4	generate/STIM_003.jpg
2667.689	1.01	1	generate	Run4	generate/STIM_004.jpg
2672.654	1.248	1	generate	Run4	generate/STIM_004.jpg
2676.312	1.442	1	generate	Run4	generate/STIM_004.jpg
2680.936	1.795	1	generate	Run4	generate/STIM_004.jpg
2685.622	0.94	1	generate	Run4	generate/STIM_004.jpg
2689.538	1.556	1	generate	Run4	generate/STIM_005.jpg
2693.441	1.283	1	generate	Run4	generate/STIM_005.jpg
2697.62	0.914	1	generate	Run4	generate/STIM_005.jpg
2701.026	1.201	1	generate	Run4	generate/STIM_005.jpg
2704.358	1.534	1	generate	Run4	generate/STIM_005.jpg
2709.621	1.645	1	generate	Run4	generate/STIM_006.jpg
2714.722	1.546	1	generate	Run4	generate/STIM_006.jpg
2720.103	1.627	1	generate	Run4	generate/STIM_006.jpg
2724.487	1.514	1	generate	Run4	generate/STIM_006.jpg
2729.04	1.71	1	generate	Run4	generate/STIM_006.jpg
2733.574	0.804	1	generate	Run4	generate/STIM_007.jpg
2736.508	1.32	1	generate	Run4	generate/STIM_007.jpg
2740.302	1.409	1	generate	Run4	generate/STIM_007.jpg
2745.809	1.788	1	generate	Run4	generate/STIM_007.jpg
2750.414	1.689	1	generate	Run4	generate/STIM_007.jpg
2755.059	0.948	1	generate	Run4	generate/STIM_008.jpg
2759.437	1.397	1	generate	Run4	generate/STIM_008.jpg
2764.863	0.81	1	generate	Run4	generate/STIM_008.jpg
2769.612	1.443	1	generate	Run4	generate/STIM_008.jpg
2774.47	1.103	1	generate	Run4	generate/STIM_008.jpg
2778.072	1.118	1	generate	Run4	generate/STIM_009.jpg
2782.919	1.114	1	generate	Run4	generate/STIM_009.jpg
2787.469	1.17	1	generate	Run4	generate/STIM_009.jpg
2791.306	0.928	1	generate	Run4	generate/STIM_009.jpg
2795.434	1.116	1	generate	Run4	generate/STIM_009.jpg
2798.834	0.948	1	generate	Run4	generate/STIM_010.jpg
2802.082	1.07	1	generate	Run4	generate/STIM_010.jpg
2805.797	1.696	1	generate	Run4	generate/STIM_010.jpg
2811.144	1.522	1	generate	Run4	generate/STIM_010.jpg
2816.522	1.329	1	generate	Run4	generate/STIM_010.jpg
2821.807	0.95	1	generate	Run4	generate/STIM_011.jpg
2826.823	0.927	1	generate	Run4	generate/STIM_011.jpg
2830.879	0.865	1	generate	Run4	generate/STIM_011.jpg
2833.985	1.319	1	generate	Run4	generate/STIM_011.jpg
2838.338	1.772	1	generate	Run4	generate/STIM_011.jpg
2843.477	1.018	1	generate	Run4	generate/STIM_012.jpg
2846.624	1.734	1	generate	Run4	generate/STIM_012.jpg
2850.768	0.781	1	generate	Run4	generate/STIM_012.jpg
2855.237	1.207	1	generate	Run4	generate/STIM_012.jpg
2858.92	1.498	1	generate	Run4	generate/STIM_012.jpg
2863.609	0.97	1	generate	Run4	generate/STIM_013.jpg
2867.726	1.598	1	generate	Run4	generate/STIM_013.jpg
2872.741	1.173	1	generate	Run4	generate/STIM_013.jpg
2876.718	1.878	1	generate	Run4	generate/STIM_013.jpg
2881.747	1.244	1	generate	Run4	generate/STIM_013.jpg
2885.851	1.103	1	generate	Run4	generate/STIM_014.jpg
2890.711	1.568	1	generate	Run4	generate/STIM_014.jpg
2895.18	1.684	1	generate	Run4	generate/STIM_014.jpg
2900.537	0.828	1	generate	Run4	generate/STIM_014.jpg
2905.198	1.438	0	generate	Run4	generate/STIM_014.jpg
2909.701	1.632	1	generate	Run4	generate/STIM_015.jpg
2914.327	1.747	1	generate	Run4	generate/STIM_015.jpg
2918.691	1.255	1	generate	Run4	generate/STIM_015.jpg
2923.206	1.547	1	generate	Run4	generate/STIM_015.jpg
2927.271	1.404	1	generate	Run4	generate/STIM_015.jpg
2932.773	1.078	1	generate	Run4	generate/STIM_016.jpg
2937.108	0.838	1	generate	Run4	generate/STIM_016.jpg
2941.402	0.835	1	generate	Run4	generate/STIM_016.jpg
2946.252	1.328	1	generate	Run4	generate/STIM_016.jpg
2950.109	1.617	1	generate	Run4	generate/STIM_016.jpg
2955.186	1.48	1	generate	Run4	generate/STIM_017.jpg
2959.081	1.853	1	generate	Run4	generate/STIM_017.jpg
2964.923	1.401	1	generate	Run4	generate/STIM_017.jpg
2968.509	1.352	1	generate	Run4	generate/STIM_017.jpg
2972.203	0.887	1	generate	Run4	generate/STIM_017.jpg
2975.654	1.26	1	generate	Run4	generate/STIM_018.jpg
2979.422	0.828	1	generate	Run4	generate/STIM_018.jpg
2983.353	0.999	1	generate	Run4	generate/STIM_018.jpg
2987.742	1.634	1	generate	Run4	generate/STIM_018.jpg
2991.853	1.314	1	generate	Run4	generate/STIM_018.jpg
2995.963	1.177	1	generate	Run4	generate/STIM_019.jpg
3000.385	1.8	1	generate	Run4	generate/STIM_019.jpg
3005.22	0.896	1	generate	Run4	generate/STIM_019.jpg
3008.689	1.453	1	generate	Run4	generate/STIM_019.jpg
3012.897	1.504	1	generate	Run4	generate/STIM_019.jpg
3017.947	1.598	1	generate	Run4	generate/STIM_020.jpg
3022.414	1.622	1	generate	Run4	generate/STIM_020.jpg
3027.913	1.448	1	generate	Run4	generate/STIM_020.jpg
3032.866	1.778	1	generate	Run4	generate/STIM_020.jpg
3037.318	1.574	1	generate	Run4	generate/STIM_020.jpg
3041.822	1.384	1	generate	Run4	generate/STIM_021.jpg
3047.31	0.972	1	generate	Run4	generate/STIM_021.jpg
3051.751	0.822	1	generate	Run4	generate/STIM_021.jpg
3056.434	1.107	1	generate	Run4	generate/STIM_021.jpg
3060.17	1.095	1	generate	Run4	generate/STIM_021.jpg
3065.19	1.226	1	generate	Run4	generate/STIM_022.jpg
3069.691	1.382	1	generate	Run4	generate/STIM_022.jpg
3074.098	0.779	1	generate	Run4	generate/STIM_022.jpg
3078.452	1.018	1	generate	Run4	generate/STIM_022.jpg
3083.54	0.828	1	generate	Run4	generate/STIM_022.jpg
3088.094	0.99	1	generate	Run4	generate/STIM_023.jpg
3091.404	0.836	1	generate	Run4	generate/STIM_023.jpg
3095.384	1.819	1	generate	Run4	generate/STIM_023.jpg
3099.96	1.617	1	generate	Run4	generate/STIM_023.jpg
3104.848	0.88	1	generate	Run4	generate/STIM_023.jpg
3108.173	0.933	1	generate	Run4	generate/STIM_024.jpg
3112.466	1.878	1	generate	Run4	generate/STIM_024.jpg
3116.949	0.812	1	generate	Run4	generate/STIM_024.jpg
3121.654	1.232	1	generate	Run4	generate/STIM_024.jpg
3126.612	1.638	1	generate	Run4	generate/STIM_024.jpg
3130.878	0.774	1	repeat	Run4	repeat/STIM_000.jpg
3134.353	0.554	1	repeat	Run4	repeat/STIM_000.jpg
3137.688	0.694	1	repeat	Run4	repeat/STIM_000.jpg
3140.456	0.837	1	repeat	Run4	repeat/STIM_000.jpg
3145.151	0.864	1	repeat	Run4	repeat/STIM_000.jpg
3149.578	0.878	1	repeat	Run4	repeat/STIM_001.jpg
3153.336	0.878	1	repeat	Run4	repeat/STIM_001.jpg
3156.735	0.779	1	repeat	Run4	repeat/STIM_001.jpg
3159.882	0.726	1	repeat	Run4	repeat/STIM_001.jpg
3164.331	0.807	1	repeat	Run4	repeat/STIM_001.jpg
3167.615	0.711	1	repeat	Run4	repeat/STIM_002.jpg
3171.588	0.888	1	repeat	Run4	repeat/STIM_002.jpg
3175.69	0.648	1	repeat	Run4	repeat/STIM_002.jpg
3179.666	0.855	1	repeat	Run4	repeat/STIM_002.jpg
3183.014	0.67	1	repeat	Run4	repeat/STIM_002.jpg
3186.047	0.684	1	repeat	Run4	repeat/STIM_003.jpg
3190.424	0.862	1	repeat	Run4	repeat/STIM_003.jpg
3194.263	0.762	1	repeat	Run4	repeat/STIM_003.jpg
3197.374	0.876	1	repeat	Run4	repeat/STIM_003.jpg
3202.232	0.623	1	repeat	Run4	repeat/STIM_003.jpg
3206.57	0.905	1	repeat	Run4	repeat/STIM_004.jpg
3210.663	0.79	1	repeat	Run4	repeat/STIM_004.jpg
3213.702	0.53	1	repeat	Run4	repeat/STIM_004.jpg
3217.159	0.684	1	repeat	Run4	repeat/STIM_004.jpg
3221.264	0.602	1	repeat	Run4	repeat/STIM_004.jpg
3224.783	0.707	1	repeat	Run4	repeat/STIM_005.jpg
3228.138	0.699	1	repeat	Run4	repeat/STIM_005.jpg
3232.111	0.726	1	repeat	Run4	repeat/STIM_005.jpg
3235.479	0.869	1	repeat	Run4	repeat/STIM_005.jpg
3239.02	0.687	1	repeat	Run4	repeat/STIM_005.jpg
3242.617	0.466	1	repeat	Run4	repeat/STIM_006.jpg
3246.782	0.496	1	repeat	Run4	repeat/STIM_006.jpg
3251.173	0.652	0	repeat	Run4	repeat/STIM_006.jpg
3254.866	0.576	1	repeat	Run4	repeat/STIM_006.jpg
3258.668	0.869	1	repeat	Run4	repeat/STIM_006.jpg
3263.606	0.801	1	repeat	Run4	repeat/STIM_007.jpg
3266.973	0.573	1	repeat	Run4	repeat/STIM_007.jpg
3270.318	0.48	1	repeat	Run4	repeat/STIM_007.jpg
3274.833	0.626	1	repeat	Run4	repeat/STIM_007.jpg
3279.311	0.648	1	repeat	Run4	repeat/STIM_007.jpg
3283.516	0.552	1	repeat	Run4	repeat/STIM_008.jpg
3286.193	0.873	1	repeat	Run4	repeat/STIM_008.jpg
3290.995	0.892	1	repeat	Run4	repeat/STIM_008.jpg
3295.874	0.567	1	repeat	Run4	repeat/STIM_008.jpg
3300.045	0.762	1	repeat	Run4	repeat/STIM_008.jpg
3304.193	0.476	1	repeat	Run4	repeat/STIM_009.jpg
3307.377	0.881	1	repeat	Run4	repeat/STIM_009.jpg
3310.616	0.486	1	repeat	Run4	repeat/STIM_009.jpg
3314.593	0.781	1	repeat	Run4	repeat/STIM_009.jpg
3318.561	0.921	1	repeat	Run4	repeat/STIM_009.jpg
3322.506	0.675	1	repeat	Run4	repeat/STIM_010.jpg
3326.6	0.774	1	repeat	Run4	repeat/STIM_010.jpg
3329.497	0.638	1	repeat	Run4	repeat/STIM_010.jpg
3332.577	0.792	1	repeat	Run4	repeat/STIM_010.jpg
3336.07	0.663	1	repeat	Run4	repeat/STIM_010.jpg
3339.247	0.9	1	repeat	Run4	repeat/STIM_011.jpg
3342.998	0.803	1	repeat	Run4	repeat/STIM_011.jpg
3347.379	0.545	1	repeat	Run4	repeat/STIM_011.jpg
3351.915	0.749	1	repeat	Run4	repeat/STIM_011.jpg
3355.273	0.804	1	repeat	Run4	repeat/STIM_011.jpg
3359.539	0.801	1	repeat	Run4	repeat/STIM_012.jpg
3364.21	0.529	1	repeat	Run4	repeat/STIM_012.jpg
3367.355	0.687	1	repeat	Run4	repeat/STIM_012.jpg
3370.204	0.653	1	repeat	Run4	repeat/STIM_012.jpg
3373.989	0.796	1	repeat	Run4	repeat/STIM_012.jpg
3378.207	0.602	1	repeat	Run4	repeat/STIM_013.jpg
3382.23	0.881	1	repeat	Run4	repeat/STIM_013.jpg
3385.755	0.745	1	repeat	Run4	repeat/STIM_013.jpg
3390.122	0.639	1	repeat	Run4	repeat/STIM_013.jpg
3392.976	0.698	1	repeat	Run4	repeat/STIM_013.jpg
3396.717	0.511	1	repeat	Run4	repeat/STIM_014.jpg
3400.285	0.68	1	repeat	Run4	repeat/STIM_014.jpg
3404.903	0.503	1	repeat	Run4	repeat/STIM_014.jpg
3408.429	0.892	1	repeat	Run4	repeat/STIM_014.jpg
3411.432	0.913	1	repeat	Run4	repeat/STIM_014.jpg
