onset	duration	accuracy	trial_type	learning_stage	stimulus
0.0	1.498	correct	generate	Run1	generate/STIM_000.jpg
4.958	2.399	correct	generate	Run1	generate/STIM_000.jpg
10.069	1.341	correct	generate	Run1	generate/STIM_000.jpg
14.169	1.438	correct	generate	Run1	generate/STIM_000.jpg
18.294	1.22	correct	generate	Run1	generate/STIM_000.jpg
23.47	2.587	correct	generate	Run1	generate/STIM_001.jpg
28.945	3.266	correct	generate	Run1	generate/STIM_001.jpg
34.53	1.749	correct	generate	Run1	generate/STIM_001.jpg
40.08	2.637	correct	generate	Run1	generate/STIM_001.jpg
46.199	1.507	correct	generate	Run1	generate/STIM_001.jpg
51.256	1.83	incorrect	generate	Run1	generate/STIM_002.jpg
56.914	2.036	correct	generate	Run1	generate/STIM_002.jpg
62.313	1.509	correct	generate	Run1	generate/STIM_002.jpg
65.991	1.78	correct	generate	Run1	generate/STIM_002.jpg
70.567	2.084	incorrect	generate	Run1	generate/STIM_002.jpg
75.294	2.372	incorrect	generate	Run1	generate/STIM_003.jpg
80.085	2.103	correct	generate	Run1	generate/STIM_003.jpg
84.952	1.802	correct	generate	Run1	generate/STIM_003.jpg
89.576	2.814	incorrect	generate	Run1	generate/STIM_003.jpg
94.771	1.232	correct	generate	Run1	generate/STIM_003.jpg
99.381	3.138	correct	generate	Run1	generate/STIM_004.jpg
105.919	2.245	correct	generate	Run1	generate/STIM_004.jpg
112.001	1.958	correct	generate	Run1	generate/STIM_004.jpg
117.111	2.944	correct	generate	Run1	generate/STIM_004.jpg
123.869	1.397	correct	generate	Run1	generate/STIM_004.jpg
127.843	1.914	correct	generate	Run1	generate/STIM_005.jpg
132.811	2.24	correct	generate	Run1	generate/STIM_005.jpg
137.056	1.546	correct	generate	Run1	generate/STIM_005.jpg
141.904	2.89	correct	generate	Run1	generate/STIM_005.jpg
148.048	2.436	correct	generate	Run1	generate/STIM_005.jpg
153.952	3.383	correct	generate	Run1	generate/STIM_006.jpg
159.429	1.332	correct	generate	Run1	generate/STIM_006.jpg
164.366	1.544	correct	generate	Run1	generate/STIM_006.jpg
168.712	2.705	correct	generate	Run1	generate/STIM_006.jpg
174.828	1.468	correct	generate	Run1	generate/STIM_006.jpg
179.013	1.731	correct	generate	Run1	generate/STIM_007.jpg
182.952	2.468	correct	generate	Run1	generate/STIM_007.jpg
188.762	2.366	correct	generate	Run1	generate/STIM_007.jpg
194.243	2.057	correct	generate	Run1	generate/STIM_007.jpg
198.461	2.776	correct	generate	Run1	generate/STIM_007.jpg
203.324	2.116	incorrect	generate	Run1	generate/STIM_008.jpg
207.665	3.122	correct	generate	Run1	generate/STIM_008.jpg
214.054	1.778	correct	generate	Run1	generate/STIM_008.jpg
218.747	1.483	correct	generate	Run1	generate/STIM_008.jpg
222.678	2.183	correct	generate	Run1	generate/STIM_008.jpg
228.556	1.596	correct	generate	Run1	generate/STIM_009.jpg
233.356	3.251	correct	generate	Run1	generate/STIM_009.jpg
239.889	1.59	correct	generate	Run1	generate/STIM_009.jpg
245.468	1.524	correct	generate	Run1	generate/STIM_009.jpg
249.945	1.629	correct	generate	Run1	generate/STIM_009.jpg
255.223	2.04	correct	generate	Run1	generate/STIM_010.jpg
259.822	2.464	correct	generate	Run1	generate/STIM_010.jpg
265.619	1.384	correct	generate	Run1	generate/STIM_010.jpg
270.857	1.437	correct	generate	Run1	generate/STIM_010.jpg
275.546	1.545	correct	generate	Run1	generate/STIM_010.jpg
280.907	2.347	correct	generate	Run1	generate/STIM_011.jpg
286.472	1.443	correct	generate	Run1	generate/STIM_011.jpg
290.774	2.234	correct	generate	Run1	generate/STIM_011.jpg
295.572	2.268	correct	generate	Run1	generate/STIM_011.jpg
300.07	2.522	correct	generate	Run1	generate/STIM_011.jpg
306.523	2.858	correct	generate	Run1	generate/STIM_012.jpg
312.086	2.662	correct	generate	Run1	generate/STIM_012.jpg
316.76	1.343	correct	generate	Run1	generate/STIM_012.jpg
320.266	2.243	correct	generate	Run1	generate/STIM_012.jpg
324.961	1.818	correct	generate	Run1	generate/STIM_012.jpg
329.518	1.61	correct	generate	Run1	generate/STIM_013.jpg
334.263	2.148	correct	generate	Run1	generate/STIM_013.jpg
340.293	1.426	correct	generate	Run1	generate/STIM_013.jpg
343.812	2.925	correct	generate	Run1	generate/STIM_013.jpg
349.632	2.155	correct	generate	Run1	generate/STIM_013.jpg
354.267	1.933	correct	generate	Run1	generate/STIM_014.jpg
359.75	1.606	incorrect	generate	Run1	generate/STIM_014.jpg
364.952	2.477	incorrect	generate	Run1	generate/STIM_014.jpg
370.965	2.181	correct	generate	Run1	generate/STIM_014.jpg
375.334	2.543	correct	generate	Run1	generate/STIM_014.jpg
380.221	2.752	correct	generate	Run1	generate/STIM_015.jpg
386.432	2.358	correct	generate	Run1	generate/STIM_015.jpg
391.943	1.32	correct	generate	Run1	generate/STIM_015.jpg
397.066	1.327	correct	generate	Run1	generate/STIM_015.jpg
401.065	2.289	correct	generate	Run1	generate/STIM_015.jpg
406.648	3.147	incorrect	generate	Run1	generate/STIM_016.jpg
412.722	2.353	correct	generate	Run1	generate/STIM_016.jpg
418.651	2.007	correct	generate	Run1	generate/STIM_016.jpg
423.444	2.125	correct	generate	Run1	generate/STIM_016.jpg
428.576	2.265	correct	generate	Run1	generate/STIM_016.jpg
433.771	2.834	correct	generate	Run1	generate/STIM_017.jpg
440.075	1.918	correct	generate	Run1	generate/STIM_017.jpg
445.616	1.697	incorrect	generate	Run1	generate/STIM_017.jpg
450.719	2.303	correct	generate	Run1	generate/STIM_017.jpg
455.829	1.948	correct	generate	Run1	generate/STIM_017.jpg
460.194	3.382	incorrect	generate	Run1	generate/STIM_018.jpg
467.308	2.495	correct	generate	Run1	generate/STIM_018.jpg
472.945	2.221	incorrect	generate	Run1	generate/STIM_018.jpg
477.713	1.499	correct	generate	Run1	generate/STIM_018.jpg
481.728	1.755	incorrect	generate	Run1	generate/STIM_018.jpg
485.611	2.916	correct	generate	Run1	generate/STIM_019.jpg
491.49	1.851	correct	generate	Run1	generate/STIM_019.jpg
497.047	1.501	correct	generate	Run1	generate/STIM_019.jpg
500.754	1.183	incorrect	generate	Run1	generate/STIM_019.jpg
504.881	2.588	correct	generate	Run1	generate/STIM_019.jpg
510.996	2.788	correct	generate	Run1	generate/STIM_020.jpg
516.62	2.384	correct	generate	Run1	generate/STIM_020.jpg
522.236	2.418	correct	generate	Run1	generate/STIM_020.jpg
528.136	2.663	correct	generate	Run1	generate/STIM_020.jpg
534.472	2.156	incorrect	generate	Run1	generate/STIM_020.jpg
539.945	1.769	correct	generate	Run1	generate/STIM_021.jpg
545.124	2.239	correct	generate	Run1	generate/STIM_021.jpg
550.899	3.08	correct	generate	Run1	generate/STIM_021.jpg
557.938	1.483	correct	generate	Run1	generate/STIM_021.jpg
561.682	2.748	correct	generate	Run1	generate/STIM_021.jpg
566.558	1.909	correct	generate	Run1	generate/STIM_022.jpg
571.935	2.173	correct	generate	Run1	generate/STIM_022.jpg
577.792	2.677	correct	generate	Run1	generate/STIM_022.jpg
582.695	1.993	correct	generate	Run1	generate/STIM_022.jpg
587.849	2.645	correct	generate	Run1	generate/STIM_022.jpg
594.459	2.104	correct	generate	Run1	generate/STIM_023.jpg
599.695	2.423	correct	generate	Run1	generate/STIM_023.jpg
604.499	1.591	correct	generate	Run1	generate/STIM_023.jpg
608.711	1.277	correct	generate	Run1	generate/STIM_023.jpg
613.762	2.563	correct	generate	Run1	generate/STIM_023.jpg
618.483	2.032	correct	generate	Run1	generate/STIM_024.jpg
623.391	2.293	incorrect	generate	Run1	generate/STIM_024.jpg
629.073	1.941	correct	generate	Run1	generate/STIM_024.jpg
633.192	1.359	correct	generate	Run1	generate/STIM_024.jpg
637.723	2.151	incorrect	generate	Run1	generate/STIM_024.jpg
643.245	0.969	correct	repeat	Run1	repeat/STIM_000.jpg
647.61	1.044	correct	repeat	Run1	repeat/STIM_000.jpg
651.177	0.666	correct	repeat	Run1	repeat/STIM_000.jpg
655.161	0.582	correct	repeat	Run1	repeat/STIM_000.jpg
657.795	0.778	correct	repeat	Run1	repeat/STIM_000.jpg
662.209	0.852	correct	repeat	Run1	repeat/STIM_001.jpg
666.683	1.142	correct	repeat	Run1	repeat/STIM_001.jpg
669.905	0.795	correct	repeat	Run1	repeat/STIM_001.jpg
673.804	0.872	correct	repeat	Run1	repeat/STIM_001.jpg
678.536	1.105	correct	repeat	Run1	repeat/STIM_001.jpg
682.027	0.77	correct	repeat	Run1	repeat/STIM_002.jpg
684.813	1.069	correct	repeat	Run1	repeat/STIM_002.jpg
689.568	0.848	correct	repeat	Run1	repeat/STIM_002.jpg
693.758	0.888	correct	repeat	Run1	repeat/STIM_002.jpg
697.245	0.952	correct	repeat	Run1	repeat/STIM_002.jpg
701.108	0.639	correct	repeat	Run1	repeat/STIM_003.jpg
703.833	0.998	correct	repeat	Run1	repeat/STIM_003.jpg
707.622	1.128	correct	repeat	Run1	repeat/STIM_003.jpg
711.194	0.976	correct	repeat	Run1	repeat/STIM_003.jpg
714.681	0.827	correct	repeat	Run1	repeat/STIM_003.jpg
719.454	1.132	correct	repeat	Run1	repeat/STIM_004.jpg
723.068	0.678	correct	repeat	Run1	repeat/STIM_004.jpg
726.295	0.788	correct	repeat	Run1	repeat/STIM_004.jpg
729.793	1.061	correct	repeat	Run1	repeat/STIM_004.jpg
733.459	1.082	correct	repeat	Run1	repeat/STIM_004.jpg
736.834	0.627	correct	repeat	Run1	repeat/STIM_005.jpg
739.534	0.995	correct	repeat	Run1	repeat/STIM_005.jpg
744.221	0.875	correct	repeat	Run1	repeat/STIM_005.jpg
747.728	0.945	incorrect	repeat	Run1	repeat/STIM_005.jpg
752.166	1.083	correct	repeat	Run1	repeat/STIM_005.jpg
757.131	0.649	correct	repeat	Run1	repeat/STIM_006.jpg
761.428	1.134	correct	repeat	Run1	repeat/STIM_006.jpg
765.59	0.953	correct	repeat	Run1	repeat/STIM_006.jpg
769.948	0.964	correct	repeat	Run1	repeat/STIM_006.jpg
774.623	0.84	correct	repeat	Run1	repeat/STIM_006.jpg
778.361	0.615	correct	repeat	Run1	repeat/STIM_007.jpg
782.041	0.726	correct	repeat	Run1	repeat/STIM_007.jpg
784.926	0.857	correct	repeat	Run1	repeat/STIM_007.jpg
787.942	0.776	correct	repeat	Run1	repeat/STIM_007.jpg
792.315	1.109	correct	repeat	Run1	repeat/STIM_007.jpg
795.513	0.753	correct	repeat	Run1	repeat/STIM_008.jpg
799.478	1.114	correct	repeat	Run1	repeat/STIM_008.jpg
802.802	1.095	correct	repeat	Run1	repeat/STIM_008.jpg
807.306	0.773	correct	repeat	Run1	repeat/STIM_008.jpg
811.641	0.92	correct	repeat	Run1	repeat/STIM_008.jpg
815.853	1.14	correct	repeat	Run1	repeat/STIM_009.jpg
819.119	0.751	incorrect	repeat	Run1	repeat/STIM_009.jpg
822.214	0.926	correct	repeat	Run1	repeat/STIM_009.jpg
825.899	1.118	correct	repeat	Run1	repeat/STIM_009.jpg
830.937	0.849	incorrect	repeat	Run1	repeat/STIM_009.jpg
834.552	1.072	correct	repeat	Run1	repeat/STIM_010.jpg
838.524	0.583	correct	repeat	Run1	repeat/STIM_010.jpg
841.464	0.748	correct	repeat	Run1	repeat/STIM_010.jpg
844.767	0.926	correct	repeat	Run1	repeat/STIM_010.jpg
847.845	0.925	correct	repeat	Run1	repeat/STIM_010.jpg
852.448	0.68	correct	repeat	Run1	repeat/STIM_011.jpg
856.347	0.705	correct	repeat	Run1	repeat/STIM_011.jpg
860.584	1.078	correct	repeat	Run1	repeat/STIM_011.jpg
863.946	0.591	correct	repeat	Run1	repeat/STIM_011.jpg
866.951	1.088	correct	repeat	Run1	repeat/STIM_011.jpg
870.393	0.98	correct	repeat	Run1	repeat/STIM_012.jpg
875.134	1.038	correct	repeat	Run1	repeat/STIM_012.jpg
878.882	1.072	correct	repeat	Run1	repeat/STIM_012.jpg
882.653	0.976	correct	repeat	Run1	repeat/STIM_012.jpg
886.74	0.735	correct	repeat	Run1	repeat/STIM_012.jpg
890.215	0.847	correct	repeat	Run1	repeat/STIM_013.jpg
894.201	1.082	correct	repeat	Run1	repeat/STIM_013.jpg
899.044	1.082	correct	repeat	Run1	repeat/STIM_013.jpg
903.2	0.795	correct	repeat	Run1	repeat/STIM_013.jpg
906.582	0.898	correct	repeat	Run1	repeat/STIM_013.jpg
910.728	0.592	correct	repeat	Run1	repeat/STIM_014.jpg
914.623	0.777	correct	repeat	Run1	repeat/STIM_014.jpg
917.535	0.922	correct	repeat	Run1	repeat/STIM_014.jpg
920.929	0.902	correct	repeat	Run1	repeat/STIM_014.jpg
924.377	0.715	correct	repeat	Run1	repeat/STIM_014.jpg
927.343	1.289	correct	generate	Run2	generate/STIM_000.jpg
930.981	1.995	correct	generate	Run2	generate/STIM_000.jpg
936.814	1.079	correct	generate	Run2	generate/STIM_000.jpg
941.56	1.855	correct	generate	Run2	generate/STIM_000.jpg
946.075	2.003	correct	generate	Run2	generate/STIM_000.jpg
951.346	1.634	correct	generate	Run2	generate/STIM_001.jpg
956.269	2.378	correct	generate	Run2	generate/STIM_001.jpg
962.498	2.47	correct	generate	Run2	generate/STIM_001.jpg
966.993	1.334	correct	generate	Run2	generate/STIM_001.jpg
970.919	1.338	correct	generate	Run2	generate/STIM_001.jpg
974.27	1.887	incorrect	generate	Run2	generate/STIM_002.jpg
979.156	1.555	correct	generate	Run2	generate/STIM_002.jpg
984.176	2.418	correct	generate	Run2	generate/STIM_002.jpg
989.618	1.003	correct	generate	Run2	generate/STIM_002.jpg
994.598	1.392	correct	generate	Run2	generate/STIM_002.jpg
998.181	2.35	correct	generate	Run2	generate/STIM_003.jpg
1003.438	2.001	correct	generate	Run2	generate/STIM_003.jpg
1007.994	2.476	correct	generate	Run2	generate/STIM_003.jpg
1013.113	1.007	correct	generate	Run2	generate/STIM_003.jpg
1017.323	1.875	correct	generate	Run2	generate/STIM_003.jpg
1021.89	2.617	correct	generate	Run2	generate/STIM_004.jpg
1027.617	2.569	correct	generate	Run2	generate/STIM_004.jpg
1033.113	1.182	correct	generate	Run2	generate/STIM_004.jpg
1037.674	1.062	correct	generate	Run2	generate/STIM_004.jpg
1042.167	2.119	correct	generate	Run2	generate/STIM_004.jpg
1046.593	1.722	correct	generate	Run2	generate/STIM_005.jpg
1050.961	2.708	correct	generate	Run2	generate/STIM_005.jpg
1056.951	1.836	correct	generate	Run2	generate/STIM_005.jpg
1062.519	2.432	correct	generate	Run2	generate/STIM_005.jpg
1068.308	1.379	correct	generate	Run2	generate/STIM_005.jpg
1072.552	2.864	correct	generate	Run2	generate/STIM_006.jpg
1077.958	1.242	correct	generate	Run2	generate/STIM_006.jpg
1082.785	1.714	correct	generate	Run2	generate/STIM_006.jpg
1088.073	1.198	correct	generate	Run2	generate/STIM_006.jpg
1091.736	2.115	correct	generate	Run2	generate/STIM_006.jpg
1096.492	1.494	correct	generate	Run2	generate/STIM_007.jpg
1100.023	1.781	correct	generate	Run2	generate/STIM_007.jpg
1104.168	2.552	correct	generate	Run2	generate/STIM_007.jpg
1109.559	1.935	correct	generate	Run2	generate/STIM_007.jpg
1114.645	1.479	correct	generate	Run2	generate/STIM_007.jpg
1118.61	2.44	correct	generate	Run2	generate/STIM_008.jpg
1123.508	1.454	correct	generate	Run2	generate/STIM_008.jpg
1128.26	1.067	incorrect	generate	Run2	generate/STIM_008.jpg
1131.905	1.478	correct	generate	Run2	generate/STIM_008.jpg
1136.196	1.759	correct	generate	Run2	generate/STIM_008.jpg
1140.63	1.917	correct	generate	Run2	generate/STIM_009.jpg
1144.734	2.125	correct	generate	Run2	generate/STIM_009.jpg
1149.891	1.642	correct	generate	Run2	generate/STIM_009.jpg
1153.605	2.045	correct	generate	Run2	generate/STIM_009.jpg
1158.883	1.262	correct	generate	Run2	generate/STIM_009.jpg
1162.304	2.499	correct	generate	Run2	generate/STIM_010.jpg
1168.561	2.308	correct	generate	Run2	generate/STIM_010.jpg
1173.959	1.848	correct	generate	Run2	generate/STIM_010.jpg
1178.894	1.309	correct	generate	Run2	generate/STIM_010.jpg
1184.193	1.531	incorrect	generate	Run2	generate/STIM_010.jpg
1188.374	1.899	correct	generate	Run2	generate/STIM_011.jpg
1192.566	2.103	correct	generate	Run2	generate/STIM_011.jpg
1197.214	2.14	correct	generate	Run2	generate/STIM_011.jpg
1201.807	1.15	correct	generate	Run2	generate/STIM_011.jpg
1205.875	1.21	correct	generate	Run2	generate/STIM_011.jpg
1209.365	2.764	correct	generate	Run2	generate/STIM_012.jpg
1215.929	2.524	correct	generate	Run2	generate/STIM_012.jpg
1222.015	1.621	correct	generate	Run2	generate/STIM_012.jpg
1226.016	1.994	correct	generate	Run2	generate/STIM_012.jpg
1230.335	1.297	correct	generate	Run2	generate/STIM_012.jpg
1234.998	2.021	correct	generate	Run2	generate/STIM_013.jpg
1239.043	1.411	correct	generate	Run2	generate/STIM_013.jpg
1243.512	1.503	correct	generate	Run2	generate/STIM_013.jpg
1247.547	1.639	correct	generate	Run2	generate/STIM_013.jpg
1252.764	2.039	correct	generate	Run2	generate/STIM_013.jpg
1258.367	2.217	correct	generate	Run2	generate/STIM_014.jpg
1262.889	1.161	correct	generate	Run2	generate/STIM_014.jpg
1266.398	1.976	correct	generate	Run2	generate/STIM_014.jpg
1270.62	1.472	correct	generate	Run2	generate/STIM_014.jpg
1275.03	1.699	correct	generate	Run2	generate/STIM_014.jpg
1280.21	2.127	correct	generate	Run2	generate/STIM_015.jpg
1285.564	1.528	correct	generate	Run2	generate/STIM_015.jpg
1289.539	1.637	correct	generate	Run2	generate/STIM_015.jpg
1294.809	1.555	correct	generate	Run2	generate/STIM_015.jpg
1300.113	1.387	correct	generate	Run2	generate/STIM_015.jpg
1303.893	2.661	correct	generate	Run2	generate/STIM_016.jpg
1309.257	1.75	correct	generate	Run2	generate/STIM_016.jpg
1313.614	1.63	incorrect	generate	Run2	generate/STIM_016.jpg
1318.931	1.83	correct	generate	Run2	generate/STIM_016.jpg
1323.536	1.272	correct	generate	Run2	generate/STIM_016.jpg
1328.347	2.256	correct	generate	Run2	generate/STIM_017.jpg
1334.51	2.555	correct	generate	Run2	generate/STIM_017.jpg
1340.233	2.328	correct	generate	Run2	generate/STIM_017.jpg
1346.426	1.173	correct	generate	Run2	generate/STIM_017.jpg
1349.774	1.139	correct	generate	Run2	generate/STIM_017.jpg
1354.471	2.127	correct	generate	Run2	generate/STIM_018.jpg
1359.078	1.973	correct	generate	Run2	generate/STIM_018.jpg
1363.626	2.158	correct	generate	Run2	generate/STIM_018.jpg
1368.99	1.296	correct	generate	Run2	generate/STIM_018.jpg
1373.832	1.543	correct	generate	Run2	generate/STIM_018.jpg
1379.097	1.532	incorrect	generate	Run2	generate/STIM_019.jpg
1384.19	2.324	correct	generate	Run2	generate/STIM_019.jpg
1390.314	2.481	correct	generate	Run2	generate/STIM_019.jpg
1395.732	1.369	correct	generate	Run2	generate/STIM_019.jpg
1399.694	1.852	correct	generate	Run2	generate/STIM_019.jpg
1404.601	2.738	correct	generate	Run2	generate/STIM_020.jpg
1410.787	1.859	correct	generate	Run2	generate/STIM_020.jpg
1415.504	1.808	correct	generate	Run2	generate/STIM_020.jpg
1420.705	1.747	incorrect	generate	Run2	generate/STIM_020.jpg
1425.337	1.042	correct	generate	Run2	generate/STIM_020.jpg
1429.419	2.568	correct	generate	Run2	generate/STIM_021.jpg
1434.915	1.223	correct	generate	Run2	generate/STIM_021.jpg
1439.075	2.592	correct	generate	Run2	generate/STIM_021.jpg
1445.612	1.252	correct	generate	Run2	generate/STIM_021.jpg
1449.288	1.746	correct	generate	Run2	generate/STIM_021.jpg
1453.812	1.75	correct	generate	Run2	generate/STIM_022.jpg
1458.317	1.639	correct	generate	Run2	generate/STIM_022.jpg
1463.673	2.405	correct	generate	Run2	generate/STIM_022.jpg
1469.573	1.434	correct	generate	Run2	generate/STIM_022.jpg
1473.988	1.525	correct	generate	Run2	generate/STIM_022.jpg
1479.415	2.458	correct	generate	Run2	generate/STIM_023.jpg
1485.258	1.667	correct	generate	Run2	generate/STIM_023.jpg
1490.371	1.377	correct	generate	Run2	generate/STIM_023.jpg
1494.116	1.656	correct	generate	Run2	generate/STIM_023.jpg
1499.015	1.531	correct	generate	Run2	generate/STIM_023.jpg
1504.161	2.278	correct	generate	Run2	generate/STIM_024.jpg
1509.431	1.922	correct	generate	Run2	generate/STIM_024.jpg
1514.926	1.377	correct	generate	Run2	generate/STIM_024.jpg
1519.91	1.837	correct	generate	Run2	generate/STIM_024.jpg
1525.548	1.377	correct	generate	Run2	generate/STIM_024.jpg
1530.172	1.123	correct	repeat	Run2	repeat/STIM_000.jpg
1533.751	1.124	correct	repeat	Run2	repeat/STIM_000.jpg
1537.135	1.126	correct	repeat	Run2	repeat/STIM_000.jpg
1541.193	0.986	correct	repeat	Run2	repeat/STIM_000.jpg
1545.57	1.082	correct	repeat	Run2	repeat/STIM_000.jpg
1549.528	0.813	correct	repeat	Run2	repeat/STIM_001.jpg
1552.437	0.8	correct	repeat	Run2	repeat/STIM_001.jpg
1555.285	0.828	correct	repeat	Run2	repeat/STIM_001.jpg
1558.447	0.778	correct	repeat	Run2	repeat/STIM_001.jpg
1562.373	0.719	correct	repeat	Run2	repeat/STIM_001.jpg
1565.935	0.601	correct	repeat	Run2	repeat/STIM_002.jpg
1569.083	0.927	correct	repeat	Run2	repeat/STIM_002.jpg
1573.203	1.071	correct	repeat	Run2	repeat/STIM_002.jpg
1577.739	1.063	correct	repeat	Run2	repeat/STIM_002.jpg
1581.023	0.752	correct	repeat	Run2	repeat/STIM_002.jpg
1585.752	0.623	correct	repeat	Run2	repeat/STIM_003.jpg
1589.65	0.754	correct	repeat	Run2	repeat/STIM_003.jpg
1593.333	1.097	correct	repeat	Run2	repeat/STIM_003.jpg
1596.619	0.67	correct	repeat	Run2	repeat/STIM_003.jpg
1601.038	1.144	correct	repeat	Run2	repeat/STIM_003.jpg
1605.322	0.925	correct	repeat	Run2	repeat/STIM_004.jpg
1609.117	0.751	correct	repeat	Run2	repeat/STIM_004.jpg
1613.115	1.044	correct	repeat	Run2	repeat/STIM_004.jpg
1616.4	1.096	correct	repeat	Run2	repeat/STIM_004.jpg
1619.73	0.769	correct	repeat	Run2	repeat/STIM_004.jpg
1623.09	0.622	correct	repeat	Run2	repeat/STIM_005.jpg
1626.429	1.024	correct	repeat	Run2	repeat/STIM_005.jpg
1630.321	0.996	correct	repeat	Run2	repeat/STIM_005.jpg
1635.244	0.767	correct	repeat	Run2	repeat/STIM_005.jpg
1638.324	0.709	correct	repeat	Run2	repeat/STIM_005.jpg
1641.212	0.648	correct	repeat	Run2	repeat/STIM_006.jpg
1644.741	0.976	correct	repeat	Run2	repeat/STIM_006.jpg
1647.881	0.93	correct	repeat	Run2	repeat/STIM_006.jpg
1651.177	0.591	correct	repeat	Run2	repeat/STIM_006.jpg
1655.014	1.045	correct	repeat	Run2	repeat/STIM_006.jpg
1659.227	0.634	correct	repeat	Run2	repeat/STIM_007.jpg
1663.632	0.795	correct	repeat	Run2	repeat/STIM_007.jpg
1667.146	1.057	correct	repeat	Run2	repeat/STIM_007.jpg
1670.988	1.044	correct	repeat	Run2	repeat/STIM_007.jpg
1674.124	0.967	correct	repeat	Run2	repeat/STIM_007.jpg
1678.973	1.146	correct	repeat	Run2	repeat/STIM_008.jpg
1682.205	0.679	correct	repeat	Run2	repeat/STIM_008.jpg
1684.953	1.114	correct	repeat	Run2	repeat/STIM_008.jpg
1688.857	1.149	correct	repeat	Run2	repeat/STIM_008.jpg
1693.491	1.138	correct	repeat	Run2	repeat/STIM_008.jpg
1698.118	1.043	correct	repeat	Run2	repeat/STIM_009.jpg
1702.758	0.776	incorrect	repeat	Run2	repeat/STIM_009.jpg
1706.41	1.097	correct	repeat	Run2	repeat/STIM_009.jpg
1710.919	1.002	correct	repeat	Run2	repeat/STIM_009.jpg
1714.043	0.978	correct	repeat	Run2	repeat/STIM_009.jpg
1718.498	0.774	correct	repeat	Run2	repeat/STIM_010.jpg
1723.135	0.759	correct	repeat	Run2	repeat/STIM_010.jpg
1726.645	0.767	correct	repeat	Run2	repeat/STIM_010.jpg
1730.578	0.801	correct	repeat	Run2	repeat/STIM_010.jpg
1735.379	0.952	correct	repeat	Run2	repeat/STIM_010.jpg
1739.208	0.802	correct	repeat	Run2	repeat/STIM_011.jpg
1742.238	0.753	correct	repeat	Run2	repeat/STIM_011.jpg
1746.59	0.67	correct	repeat	Run2	repeat/STIM_011.jpg
1751.01	1.113	correct	repeat	Run2	repeat/STIM_011.jpg
1755.31	0.598	correct	repeat	Run2	repeat/STIM_011.jpg
1759.573	0.99	correct	repeat	Run2	repeat/STIM_012.jpg
1763.533	1.004	correct	repeat	Run2	repeat/STIM_012.jpg
1768.304	1.019	correct	repeat	Run2	repeat/STIM_012.jpg
1772.803	0.728	correct	repeat	Run2	repeat/STIM_012.jpg
1775.585	0.826	correct	repeat	Run2	repeat/STIM_012.jpg
1780.12	0.718	correct	repeat	Run2	repeat/STIM_013.jpg
1783.853	0.902	correct	repeat	Run2	repeat/STIM_013.jpg
1787.007	0.686	correct	repeat	Run2	repeat/STIM_013.jpg
1791.439	0.729	correct	repeat	Run2	repeat/STIM_013.jpg
1795.065	0.861	correct	repeat	Run2	repeat/STIM_013.jpg
1798.339	1.147	correct	repeat	Run2	repeat/STIM_014.jpg
1802.164	0.586	correct	repeat	Run2	repeat/STIM_014.jpg
1806.679	0.859	correct	repeat	Run2	repeat/STIM_014.jpg
1810.016	1.128	correct	repeat	Run2	repeat/STIM_014.jpg
1813.506	1.118	correct	repeat	Run2	repeat/STIM_014.jpg
1817.785	2.391	correct	generate	Run3	generate/STIM_000.jpg
1824.151	1.983	correct	generate	Run3	generate/STIM_000.jpg
1829.027	2.074	correct	generate	Run3	generate/STIM_000.jpg
1833.958	1.746	correct	generate	Run3	generate/STIM_000.jpg
1837.934	2.242	correct	generate	Run3	generate/STIM_000.jpg
1842.961	1.847	correct	generate	Run3	generate/STIM_001.jpg
1847.887	1.814	correct	generate	Run3	generate/STIM_001.jpg
1851.99	1.02	correct	generate	Run3	generate/STIM_001.jpg
1855.472	1.482	correct	generate	Run3	generate/STIM_001.jpg
1859.441	1.507	incorrect	generate	Run3	generate/STIM_001.jpg
1864.82	1.421	correct	generate	Run3	generate/STIM_002.jpg
1869.971	2.221	correct	generate	Run3	generate/STIM_002.jpg
1876.01	2.088	correct	generate	Run3	generate/STIM_002.jpg
1881.453	2.322	correct	generate	Run3	generate/STIM_002.jpg
1885.904	1.797	correct	generate	Run3	generate/STIM_002.jpg
1890.721	1.264	correct	generate	Run3	generate/STIM_003.jpg
1895.59	1.234	correct	generate	Run3	generate/STIM_003.jpg
1900.481	1.861	correct	generate	Run3	generate/STIM_003.jpg
1904.721	1.894	correct	generate	Run3	generate/STIM_003.jpg
1909.522	2.152	correct	generate	Run3	generate/STIM_003.jpg
1914.829	2.261	correct	generate	Run3	generate/STIM_004.jpg
1919.257	1.844	correct	generate	Run3	generate/STIM_004.jpg
1923.897	2.348	correct	generate	Run3	generate/STIM_004.jpg
1929.068	1.882	correct	generate	Run3	generate/STIM_004.jpg
1934.53	1.856	correct	generate	Run3	generate/STIM_004.jpg
1938.647	1.652	correct	generate	Run3	generate/STIM_005.jpg
1944.006	1.198	correct	generate	Run3	generate/STIM_005.jpg
1948.401	1.914	correct	generate	Run3	generate/STIM_005.jpg
1953.247	1.268	correct	generate	Run3	generate/STIM_005.jpg
1956.947	1.269	correct	generate	Run3	generate/STIM_005.jpg
1960.429	2.292	correct	generate	Run3	generate/STIM_006.jpg
1966.249	1.764	correct	generate	Run3	generate/STIM_006.jpg
1970.36	1.15	correct	generate	Run3	generate/STIM_006.jpg
1974.599	1.999	correct	generate	Run3	generate/STIM_006.jpg
1979.019	1.938	correct	generate	Run3	generate/STIM_006.jpg
1984.626	2.364	correct	generate	Run3	generate/STIM_007.jpg
1990.645	1.126	correct	generate	Run3	generate/STIM_007.jpg
1995.054	1.511	correct	generate	Run3	generate/STIM_007.jpg
1999.374	1.501	correct	generate	Run3	generate/STIM_007.jpg
2004.77	1.548	correct	generate	Run3	generate/STIM_007.jpg
2010.025	1.776	correct	generate	Run3	generate/STIM_008.jpg
2014.406	1.952	correct	generate	Run3	generate/STIM_008.jpg
2019.31	2.428	correct	generate	Run3	generate/STIM_008.jpg
2024.224	1.284	correct	generate	Run3	generate/STIM_008.jpg
2028.02	1.714	correct	generate	Run3	generate/STIM_008.jpg
2032.302	1.704	correct	generate	Run3	generate/STIM_009.jpg
2036.357	1.363	correct	generate	Run3	generate/STIM_009.jpg
2040.362	1.264	correct	generate	Run3	generate/STIM_009.jpg
2045.14	2.137	correct	generate	Run3	generate/STIM_009.jpg
2050.252	2.151	correct	generate	Run3	generate/STIM_009.jpg
2055.174	1.31	correct	generate	Run3	generate/STIM_010.jpg
2060.394	1.068	correct	generate	Run3	generate/STIM_010.jpg
2063.643	1.142	correct	generate	Run3	generate/STIM_010.jpg
2067.812	1.568	correct	generate	Run3	generate/STIM_010.jpg
2071.582	1.49	correct	generate	Run3	generate/STIM_010.jpg
2076.703	1.388	correct	generate	Run3	generate/STIM_011.jpg
2081.365	1.846	correct	generate	Run3	generate/STIM_011.jpg
2086.58	2.157	correct	generate	Run3	generate/STIM_011.jpg
2091.169	2.322	correct	generate	Run3	generate/STIM_011.jpg
2096.017	2.177	correct	generate	Run3	generate/STIM_011.jpg
2102.037	1.305	correct	generate	Run3	generate/STIM_012.jpg
2105.429	2.305	correct	generate	Run3	generate/STIM_012.jpg
2111.05	1.2	correct	generate	Run3	generate/STIM_012.jpg
2114.954	1.418	correct	generate	Run3	generate/STIM_012.jpg
2120.131	1.879	correct	generate	Run3	generate/STIM_012.jpg
2125.802	1.495	correct	generate	Run3	generate/STIM_013.jpg
2131.129	2.094	correct	generate	Run3	generate/STIM_013.jpg
2136.012	2.196	correct	generate	Run3	generate/STIM_013.jpg
2142.076	1.557	correct	generate	Run3	generate/STIM_013.jpg
2146.961	1.893	correct	generate	Run3	generate/STIM_013.jpg
2152.333	1.361	correct	generate	Run3	generate/STIM_014.jpg
2156.184	1.335	correct	generate	Run3	generate/STIM_014.jpg
2159.555	1.708	correct	generate	Run3	generate/STIM_014.jpg
2163.95	1.127	correct	generate	Run3	generate/STIM_014.jpg
2167.888	2.341	correct	generate	Run3	generate/STIM_014.jpg
2172.251	1.301	correct	generate	Run3	generate/STIM_015.jpg
2177.107	2.116	correct	generate	Run3	generate/STIM_015.jpg
2181.872	1.342	correct	generate	Run3	generate/STIM_015.jpg
2186.706	1.431	correct	generate	Run3	generate/STIM_015.jpg
2190.902	2.412	correct	generate	Run3	generate/STIM_015.jpg
2197.041	2.132	correct	generate	Run3	generate/STIM_016.jpg
2201.637	1.273	correct	generate	Run3	generate/STIM_016.jpg
2205.146	1.957	incorrect	generate	Run3	generate/STIM_016.jpg
2209.993	2.299	correct	generate	Run3	generate/STIM_016.jpg
2214.38	1.468	correct	generate	Run3	generate/STIM_016.jpg
2218.312	1.642	incorrect	generate	Run3	generate/STIM_017.jpg
2222.605	1.459	correct	generate	Run3	generate/STIM_017.jpg
2227.118	2.115	correct	generate	Run3	generate/STIM_017.jpg
2232.571	1.715	correct	generate	Run3	generate/STIM_017.jpg
2237.135	2.058	correct	generate	Run3	generate/STIM_017.jpg
2241.813	1.305	correct	generate	Run3	generate/STIM_018.jpg
2245.433	1.174	correct	generate	Run3	generate/STIM_018.jpg
2249.335	1.954	correct	generate	Run3	generate/STIM_018.jpg
2253.631	1.41	correct	generate	Run3	generate/STIM_018.jpg
2258.62	1.207	correct	generate	Run3	generate/STIM_018.jpg
2263.486	2.143	correct	generate	Run3	generate/STIM_019.jpg
2269.388	1.888	correct	generate	Run3	generate/STIM_019.jpg
2275.178	1.414	correct	generate	Run3	generate/STIM_019.jpg
2279.573	1.161	incorrect	generate	Run3	generate/STIM_019.jpg
2284.397	1.187	correct	generate	Run3	generate/STIM_019.jpg
2287.851	1.885	correct	generate	Run3	generate/STIM_020.jpg
2292.027	1.002	correct	generate	Run3	generate/STIM_020.jpg
2295.398	1.68	correct	generate	Run3	generate/STIM_020.jpg
2299.12	2.34	correct	generate	Run3	generate/STIM_020.jpg
2304.045	1.521	correct	generate	Run3	generate/STIM_020.jpg
2308.543	1.117	correct	generate	Run3	generate/STIM_021.jpg
2311.91	1.056	correct	generate	Run3	generate/STIM_021.jpg
2316.322	1.64	correct	generate	Run3	generate/STIM_021.jpg
2320.937	2.119	correct	generate	Run3	generate/STIM_021.jpg
2326.68	0.982	correct	generate	Run3	generate/STIM_021.jpg
2330.605	1.988	correct	generate	Run3	generate/STIM_022.jpg
2336.441	1.375	correct	generate	Run3	generate/STIM_022.jpg
2340.1	2.022	incorrect	generate	Run3	generate/STIM_022.jpg
2344.801	1.487	correct	generate	Run3	generate/STIM_022.jpg
2350.226	2.378	correct	generate	Run3	generate/STIM_022.jpg
2356.021	1.69	correct	generate	Run3	generate/STIM_023.jpg
2361.307	1.051	correct	generate	Run3	generate/STIM_023.jpg
2364.9	1.731	correct	generate	Run3	generate/STIM_023.jpg
2369.232	1.052	correct	generate	Run3	generate/STIM_023.jpg
2372.724	1.442	correct	generate	Run3	generate/STIM_023.jpg
2378.103	1.772	correct	generate	Run3	generate/STIM_024.jpg
2383.47	1.546	incorrect	generate	Run3	generate/STIM_024.jpg
2387.233	1.85	correct	generate	Run3	generate/STIM_024.jpg
2392.388	1.276	correct	generate	Run3	generate/STIM_024.jpg
2397.096	2.39	correct	generate	Run3	generate/STIM_024.jpg
2402.101	0.586	correct	repeat	Run3	repeat/STIM_000.jpg
2406.271	0.73	correct	repeat	Run3	repeat/STIM_000.jpg
2409.735	1.011	correct	repeat	Run3	repeat/STIM_000.jpg
2413.064	0.66	correct	repeat	Run3	repeat/STIM_000.jpg
2416.339	0.97	correct	repeat	Run3	repeat/STIM_000.jpg
2420.928	1.105	correct	repeat	Run3	repeat/STIM_001.jpg
2425.778	1.104	correct	repeat	Run3	repeat/STIM_001.jpg
2429.27	0.858	correct	repeat	Run3	repeat/STIM_001.jpg
2432.848	0.661	correct	repeat	Run3	repeat/STIM_001.jpg
2437.49	0.777	correct	repeat	Run3	repeat/STIM_001.jpg
2442.237	1.147	correct	repeat	Run3	repeat/STIM_002.jpg
2446.815	0.947	correct	repeat	Run3	repeat/STIM_002.jpg
2450.531	0.773	correct	repeat	Run3	repeat/STIM_002.jpg
2455.037	1.066	correct	repeat	Run3	repeat/STIM_002.jpg
2459.551	1.033	correct	repeat	Run3	repeat/STIM_002.jpg
2463.771	0.797	correct	repeat	Run3	repeat/STIM_003.jpg
2468.063	0.727	correct	repeat	Run3	repeat/STIM_003.jpg
2470.867	0.741	correct	repeat	Run3	repeat/STIM_003.jpg
2474.375	0.784	correct	repeat	Run3	repeat/STIM_003.jpg
2478.208	1.006	correct	repeat	Run3	repeat/STIM_003.jpg
2482.315	0.941	correct	repeat	Run3	repeat/STIM_004.jpg
2486.591	0.727	correct	repeat	Run3	repeat/STIM_004.jpg
2489.478	0.949	correct	repeat	Run3	repeat/STIM_004.jpg
2493.999	0.948	correct	repeat	Run3	repeat/STIM_004.jpg
2497.306	0.767	correct	repeat	Run3	repeat/STIM_004.jpg
2501.287	1.04	correct	repeat	Run3	repeat/STIM_005.jpg
2505.983	1.064	correct	repeat	Run3	repeat/STIM_005.jpg
2510.124	0.701	correct	repeat	Run3	repeat/STIM_005.jpg
2513.383	0.699	correct	repeat	Run3	repeat/STIM_005.jpg
2517.921	0.753	correct	repeat	Run3	repeat/STIM_005.jpg
2521.947	0.74	correct	repeat	Run3	repeat/STIM_006.jpg
2525.018	0.893	correct	repeat	Run3	repeat/STIM_006.jpg
2529.648	1.028	correct	repeat	Run3	repeat/STIM_006.jpg
2534.118	1.072	correct	repeat	Run3	repeat/STIM_006.jpg
2537.235	1.096	correct	repeat	Run3	repeat/STIM_006.jpg
2540.337	1.127	correct	repeat	Run3	repeat/STIM_007.jpg
2544.774	0.927	correct	repeat	Run3	repeat/STIM_007.jpg
2548.81	0.919	correct	repeat	Run3	repeat/STIM_007.jpg
2552.485	0.592	correct	repeat	Run3	repeat/STIM_007.jpg
2555.84	0.845	correct	repeat	Run3	repeat/STIM_007.jpg
2559.511	1.145	correct	repeat	Run3	repeat/STIM_008.jpg
2562.814	1.08	correct	repeat	Run3	repeat/STIM_008.jpg
2566.933	0.867	correct	repeat	Run3	repeat/STIM_008.jpg
2570.623	0.989	correct	repeat	Run3	repeat/STIM_008.jpg
2574.434	0.998	correct	repeat	Run3	repeat/STIM_008.jpg
2578.148	1.149	correct	repeat	Run3	repeat/STIM_009.jpg
2582.83	1.13	correct	repeat	Run3	repeat/STIM_009.jpg
2587.211	0.999	correct	repeat	Run3	repeat/STIM_009.jpg
2590.374	0.888	correct	repeat	Run3	repeat/STIM_009.jpg
2593.875	1.155	correct	repeat	Run3	repeat/STIM_009.jpg
2598.46	1.092	correct	repeat	Run3	repeat/STIM_010.jpg
2601.683	0.697	correct	repeat	Run3	repeat/STIM_010.jpg
2605.095	1.04	correct	repeat	Run3	repeat/STIM_010.jpg
2609.204	1.106	correct	repeat	Run3	repeat/STIM_010.jpg
2613.661	1.138	correct	repeat	Run3	repeat/STIM_010.jpg
2618.197	0.91	correct	repeat	Run3	repeat/STIM_011.jpg
2622.096	0.806	correct	repeat	Run3	repeat/STIM_011.jpg
2626.447	1.03	correct	repeat	Run3	repeat/STIM_011.jpg
2630.145	0.828	correct	repeat	Run3	repeat/STIM_011.jpg
2633.172	0.781	correct	repeat	Run3	repeat/STIM_011.jpg
2636.552	0.818	correct	repeat	Run3	repeat/STIM_012.jpg
2640.526	0.856	incorrect	repeat	Run3	repeat/STIM_012.jpg
2644.053	0.954	correct	repeat	Run3	repeat/STIM_012.jpg
2648.669	0.912	correct	repeat	Run3	repeat/STIM_012.jpg
2653.212	1.018	correct	repeat	Run3	repeat/STIM_012.jpg
2657.455	0.593	correct	repeat	Run3	repeat/STIM_013.jpg
2660.278	0.988	correct	repeat	Run3	repeat/STIM_013.jpg
2663.758	1.08	incorrect	repeat	Run3	repeat/STIM_013.jpg
2668.186	1.005	correct	repeat	Run3	repeat/STIM_013.jpg
2671.976	0.718	correct	repeat	Run3	repeat/STIM_013.jpg
2676.388	1.126	correct	repeat	Run3	repeat/STIM_014.jpg
2681.278	1.142	correct	repeat	Run3	repeat/STIM_014.jpg
2686.286	0.854	correct	repeat	Run3	repeat/STIM_014.jpg
2691.02	0.898	correct	repeat	Run3	repeat/STIM_014.jpg
2694.63	0.654	correct	repeat	Run3	repeat/STIM_014.jpg
2697.798	1.172	correct	generate	Run4	generate/STIM_000.jpg
2701.808	1.585	correct	generate	Run4	generate/STIM_000.jpg
2706.822	1.052	correct	generate	Run4	generate/STIM_000.jpg
2711.387	1.708	correct	generate	Run4	generate/STIM_000.jpg
2715.512	1.781	correct	generate	Run4	generate/STIM_000.jpg
2720.099	1.68	correct	generate	Run4	generate/STIM_001.jpg
2725.189	1.495	correct	generate	Run4	generate/STIM_001.jpg
2729.623	2.217	correct	generate	Run4	generate/STIM_001.jpg
2734.289	1.874	correct	generate	Run4	generate/STIM_001.jpg
2738.984	2.335	correct	generate	Run4	generate/STIM_001.jpg
2745.086	1.53	incorrect	generate	Run4	generate/STIM_002.jpg
2748.807	1.05	correct	generate	Run4	generate/STIM_002.jpg
2752.359	1.9	correct	generate	Run4	generate/STIM_002.jpg
2757.778	2.078	correct	generate	Run4	generate/STIM_002.jpg
2763.214	1.059	correct	generate	Run4	generate/STIM_002.jpg
2767.506	1.745	correct	generate	Run4	generate/STIM_003.jpg
2772.788	1.5	correct	generate	Run4	generate/STIM_003.jpg
2777.603	2.001	correct	generate	Run4	generate/STIM_003.jpg
2782.76	1.853	correct	generate	Run4	generate/STIM_003.jpg
2787.528	1.633	correct	generate	Run4	generate/STIM_003.jpg
2791.741	2.029	correct	generate	Run4	generate/STIM_004.jpg
2795.948	2.341	correct	generate	Run4	generate/STIM_004.jpg
2800.393	1.419	correct	generate	Run4	generate/STIM_004.jpg
2804.639	1.168	correct	generate	Run4	generate/STIM_004.jpg
2809.633	2.345	correct	generate	Run4	generate/STIM_004.jpg
2813.995	1.867	correct	generate	Run4	generate/STIM_005.jpg
2819.108	1.288	correct	generate	Run4	generate/STIM_005.jpg
2823.852	1.775	correct	generate	Run4	generate/STIM_005.jpg
2829.046	1.9	correct	generate	Run4	generate/STIM_005.jpg
2834.273	1.754	correct	generate	Run4	generate/STIM_005.jpg
2839.716	1.592	correct	generate	Run4	generate/STIM_006.jpg
2845.151	0.989	correct	generate	Run4	generate/STIM_006.jpg
2848.354	1.772	correct	generate	Run4	generate/STIM_006.jpg
2853.211	1.289	correct	generate	Run4	generate/STIM_006.jpg
2856.951	2.285	correct	generate	Run4	generate/STIM_006.jpg
2863.17	1.988	correct	generate	Run4	generate/STIM_007.jpg
2869.007	2.126	correct	generate	Run4	generate/STIM_007.jpg
2874.769	1.392	correct	generate	Run4	generate/STIM_007.jpg
2879.218	1.099	correct	generate	Run4	generate/STIM_007.jpg
2882.909	1.207	correct	generate	Run4	generate/STIM_007.jpg
2886.768	0.996	correct	generate	Run4	generate/STIM_008.jpg
2890.064	1.077	correct	generate	Run4	generate/STIM_008.jpg
2893.366	2.38	correct	generate	Run4	generate/STIM_008.jpg
2898.179	1.906	correct	generate	Run4	generate/STIM_008.jpg
2902.14	2.218	correct	generate	Run4	generate/STIM_008.jpg
2907.138	2.292	correct	generate	Run4	generate/STIM_009.jpg
2912.131	1.276	correct	generate	Run4	generate/STIM_009.jpg
2915.987	1.598	correct	generate	Run4	generate/STIM_009.jpg
2919.679	1.568	correct	generate	Run4	generate/STIM_009.jpg
2923.948	1.264	correct	generate	Run4	generate/STIM_009.jpg
2928.933	2.115	correct	generate	Run4	generate/STIM_010.jpg
2933.434	2.325	correct	generate	Run4	generate/STIM_010.jpg
2939.644	2.179	correct	generate	Run4	generate/STIM_010.jpg
2944.87	1.042	correct	generate	Run4	generate/STIM_010.jpg
2948.962	0.984	correct	generate	Run4	generate/STIM_010.jpg
2952.382	1.923	correct	generate	Run4	generate/STIM_011.jpg
2958.12	1.375	correct	generate	Run4	generate/STIM_011.jpg
2963.32	1.655	correct	generate	Run4	generate/STIM_011.jpg
2967.541	2.26	correct	generate	Run4	generate/STIM_011.jpg
2972.534	2.302	correct	generate	Run4	generate/STIM_011.jpg
2978.454	1.929	correct	generate	Run4	generate/STIM_012.jpg
2982.405	1.464	correct	generate	Run4	generate/STIM_012.jpg
2986.898	1.426	correct	generate	Run4	generate/STIM_012.jpg
2991.694	1.229	correct	generate	Run4	generate/STIM_012.jpg
2996.782	1.386	correct	generate	Run4	generate/STIM_012.jpg
3000.519	2.26	correct	generate	Run4	generate/STIM_013.jpg
3006.692	1.897	correct	generate	Run4	generate/STIM_013.jpg
3010.895	1.887	correct	generate	Run4	generate/STIM_013.jpg
3016.329	1.894	correct	generate	Run4	generate/STIM_013.jpg
3021.201	2.181	correct	generate	Run4	generate/STIM_013.jpg
3025.844	1.974	correct	generate	Run4	generate/STIM_014.jpg
3030.731	1.928	correct	generate	Run4	generate/STIM_014.jpg
3036.255	2.228	correct	generate	Run4	generate/STIM_014.jpg
3041.781	1.68	correct	generate	Run4	generate/STIM_014.jpg
3046.105	1.451	incorrect	generate	Run4	generate/STIM_014.jpg
3049.913	1.38	correct	generate	Run4	generate/STIM_015.jpg
3054.293	1.727	correct	generate	Run4	generate/STIM_015.jpg
3059.783	1.57	correct	generate	Run4	generate/STIM_015.jpg
3064.374	1.711	correct	generate	Run4	generate/STIM_015.jpg
3068.292	1.809	correct	generate	Run4	generate/STIM_015.jpg
3073.573	1.306	correct	generate	Run4	generate/STIM_016.jpg
3078.277	1.814	incorrect	generate	Run4	generate/STIM_016.jpg
3083.515	1.452	correct	generate	Run4	generate/STIM_016.jpg
3088.91	2.116	correct	generate	Run4	generate/STIM_016.jpg
3093.465	1.939	correct	generate	Run4	generate/STIM_016.jpg
3098.742	2.402	correct	generate	Run4	generate/STIM_017.jpg
3103.175	1.305	correct	generate	Run4	generate/STIM_017.jpg
3106.778	2.179	correct	generate	Run4	generate/STIM_017.jpg
3112.657	2.238	correct	generate	Run4	generate/STIM_017.jpg
3117.148	2.172	correct	generate	Run4	generate/STIM_017.jpg
3123.302	1.351	correct	generate	Run4	generate/STIM_018.jpg
3128.242	1.152	correct	generate	Run4	generate/STIM_018.jpg
3132.758	1.409	correct	generate	Run4	generate/STIM_018.jpg
3138.158	1.927	correct	generate	Run4	generate/STIM_018.jpg
3144.029	2.253	correct	generate	Run4	generate/STIM_018.jpg
3149.157	1.037	correct	generate	Run4	generate/STIM_019.jpg
3152.594	2.138	correct	generate	Run4	generate/STIM_019.jpg
3157.444	2.188	correct	generate	Run4	generate/STIM_019.jpg
3162.367	2.406	correct	generate	Run4	generate/STIM_019.jpg
3167.778	1.62	correct	generate	Run4	generate/STIM_019.jpg
3173.255	2.314	correct	generate	Run4	generate/STIM_020.jpg
3178.934	1.306	correct	generate	Run4	generate/STIM_020.jpg
3184.18	1.556	correct	generate	Run4	generate/STIM_020.jpg
3189.009	1.683	correct	generate	Run4	generate/STIM_020.jpg
3194.438	1.705	correct	generate	Run4	generate/STIM_020.jpg
3198.785	2.033	correct	generate	Run4	generate/STIM_021.jpg
3203.635	2.211	correct	generate	Run4	generate/STIM_021.jpg
3209.786	1.213	correct	generate	Run4	generate/STIM_021.jpg
3214.223	2.046	correct	generate	Run4	generate/STIM_021.jpg
3220.052	1.385	correct	generate	Run4	generate/STIM_021.jpg
3223.549	1.449	correct	generate	Run4	generate/STIM_022.jpg
3228.904	2.248	correct	generate	Run4	generate/STIM_022.jpg
3234.785	2.185	correct	generate	Run4	generate/STIM_022.jpg
3240.708	1.567	correct	generate	Run4	generate/STIM_022.jpg
3245.851	1.75	correct	generate	Run4	generate/STIM_022.jpg
3250.931	1.187	correct	generate	Run4	generate/STIM_023.jpg
3255.549	2.334	correct	generate	Run4	generate/STIM_023.jpg
3261.342	1.832	correct	generate	Run4	generate/STIM_023.jpg
3266.792	1.999	correct	generate	Run4	generate/STIM_023.jpg
3271.902	1.001	correct	generate	Run4	generate/STIM_023.jpg
3276.499	1.612	correct	generate	Run4	generate/STIM_024.jpg
3280.834	1.814	correct	generate	Run4	generate/STIM_024.jpg
3286.536	2.069	correct	generate	Run4	generate/STIM_024.jpg
3292.172	1.855	correct	generate	Run4	generate/STIM_024.jpg
3296.456	2.254	correct	generate	Run4	generate/STIM_024.jpg
3302.653	0.606	correct	repeat	Run4	repeat/STIM_000.jpg
3306.915	0.72	correct	repeat	Run4	repeat/STIM_000.jpg
3310.663	1.072	correct	repeat	Run4	repeat/STIM_000.jpg
3314.369	0.775	correct	repeat	Run4	repeat/STIM_000.jpg
3318.968	0.89	correct	repeat	Run4	repeat/STIM_000.jpg
3323.053	1.147	correct	repeat	Run4	repeat/STIM_001.jpg
3326.643	0.686	correct	repeat	Run4	repeat/STIM_001.jpg
3330.114	0.708	correct	repeat	Run4	repeat/STIM_001.jpg
3334.776	1.132	correct	repeat	Run4	repeat/STIM_001.jpg
3338.28	0.702	correct	repeat	Run4	repeat/STIM_001.jpg
3341.678	0.66	correct	repeat	Run4	repeat/STIM_002.jpg
3345.635	1.097	correct	repeat	Run4	repeat/STIM_002.jpg
3349.08	0.872	correct	repeat	Run4	repeat/STIM_002.jpg
3352.419	0.826	correct	repeat	Run4	repeat/STIM_002.jpg
3355.756	1.04	correct	repeat	Run4	repeat/STIM_002.jpg
3360.171	0.751	correct	repeat	Run4	repeat/STIM_003.jpg
3363.25	0.902	correct	repeat	Run4	repeat/STIM_003.jpg
3366.898	0.691	correct	repeat	Run4	repeat/STIM_003.jpg
3370.388	0.806	correct	repeat	Run4	repeat/STIM_003.jpg
3373.953	0.607	correct	repeat	Run4	repeat/STIM_003.jpg
3376.563	0.614	correct	repeat	Run4	repeat/STIM_004.jpg
3380.932	0.781	correct	repeat	Run4	repeat/STIM_004.jpg
3384.659	1.113	correct	repeat	Run4	repeat/STIM_004.jpg
3388.749	0.854	correct	repeat	Run4	repeat/STIM_004.jpg
3393.266	0.738	correct	repeat	Run4	repeat/STIM_004.jpg
3396.027	0.907	correct	repeat	Run4	repeat/STIM_005.jpg
3400.125	1.1	correct	repeat	Run4	repeat/STIM_005.jpg
3403.706	0.73	correct	repeat	Run4	repeat/STIM_005.jpg
3407.727	0.752	correct	repeat	Run4	repeat/STIM_005.jpg
3412.328	0.792	correct	repeat	Run4	repeat/STIM_005.jpg
3416.882	1.054	correct	repeat	Run4	repeat/STIM_006.jpg
3421.334	0.912	correct	repeat	Run4	repeat/STIM_006.jpg
3424.568	0.784	correct	repeat	Run4	repeat/STIM_006.jpg
3427.408	0.678	correct	repeat	Run4	repeat/STIM_006.jpg
3431.777	0.835	correct	repeat	Run4	repeat/STIM_006.jpg
3435.154	0.771	correct	repeat	Run4	repeat/STIM_007.jpg
3438.292	1.098	correct	repeat	Run4	repeat/STIM_007.jpg
3442.337	0.776	correct	repeat	Run4	repeat/STIM_007.jpg
3446.227	0.602	correct	repeat	Run4	repeat/STIM_007.jpg
3449.382	1.007	correct	repeat	Run4	repeat/STIM_007.jpg
3453.085	0.676	correct	repeat	Run4	repeat/STIM_008.jpg
3455.825	1.014	correct	repeat	Run4	repeat/STIM_008.jpg
3459.361	0.863	correct	repeat	Run4	repeat/STIM_008.jpg
3463.22	0.61	correct	repeat	Run4	repeat/STIM_008.jpg
3466.598	1.096	correct	repeat	Run4	repeat/STIM_008.jpg
3471.275	0.608	correct	repeat	Run4	repeat/STIM_009.jpg
3475.303	0.77	correct	repeat	Run4	repeat/STIM_009.jpg
3479.546	0.957	correct	repeat	Run4	repeat/STIM_009.jpg
3484.485	1.114	correct	repeat	Run4	repeat/STIM_009.jpg
3488.413	0.716	correct	repeat	Run4	repeat/STIM_009.jpg
3491.319	1.093	correct	repeat	Run4	repeat/STIM_010.jpg
3495.331	1.091	correct	repeat	Run4	repeat/STIM_010.jpg
3498.723	0.912	correct	repeat	Run4	repeat/STIM_010.jpg
3502.727	0.79	correct	repeat	Run4	repeat/STIM_010.jpg
3505.687	1.136	correct	repeat	Run4	repeat/STIM_010.jpg
3509.132	0.692	correct	repeat	Run4	repeat/STIM_011.jpg
3513.212	1.123	correct	repeat	Run4	repeat/STIM_011.jpg
3517.623	0.796	correct	repeat	Run4	repeat/STIM_011.jpg
3520.971	0.602	correct	repeat	Run4	repeat/STIM_011.jpg
3523.582	0.729	correct	repeat	Run4	repeat/STIM_011.jpg
3527.684	0.72	correct	repeat	Run4	repeat/STIM_012.jpg
3532.094	0.823	correct	repeat	Run4	repeat/STIM_012.jpg
3536.38	1.147	correct	repeat	Run4	repeat/STIM_012.jpg
3539.76	0.639	correct	repeat	Run4	repeat/STIM_012.jpg
3543.671	0.911	correct	repeat	Run4	repeat/STIM_012.jpg
3547.778	0.645	correct	repeat	Run4	repeat/STIM_013.jpg
3551.247	0.655	correct	repeat	Run4	repeat/STIM_013.jpg
3554.684	0.776	correct	repeat	Run4	repeat/STIM_013.jpg
3557.683	1.006	correct	repeat	Run4	repeat/STIM_013.jpg
3561.561	0.734	correct	repeat	Run4	repeat/STIM_013.jpg
3565.068	1.076	correct	repeat	Run4	repeat/STIM_014.jpg
3569.454	0.829	correct	repeat	Run4	repeat/STIM_014.jpg
3573.628	1.092	correct	repeat	Run4	repeat/STIM_014.jpg
3578.561	1.064	correct	repeat	Run4	repeat/STIM_014.jpg
3582.608	0.745	correct	repeat	Run4	repeat/STIM_014.jpg
