onset	duration	response_time_ms	trial_type	learning_stage	stimulus	response_port
0.0	1.498	1497.7	generate	Run1	generate/STIM_000.jpg	100
4.958	2.399	2399.3	generate	Run1	generate/STIM_000.jpg	99
10.069	1.341	1341.3	generate	Run1	generate/STIM_000.jpg	100
14.169	1.438	1438.3	generate	Run1	generate/STIM_000.jpg	100
18.294	1.22	1220.1	generate	Run1	generate/STIM_000.jpg	99
23.47	2.587	2587.0	generate	Run1	generate/STIM_001.jpg	99
28.945	3.266	3265.9	generate	Run1	generate/STIM_001.jpg	100
34.53	1.749	1749.4	generate	Run1	generate/STIM_001.jpg	100
40.08	2.637	2637.1	generate	Run1	generate/STIM_001.jpg	100
46.199	1.507	1506.9	generate	Run1	generate/STIM_001.jpg	99
51.256	1.83	1830.2	generate	Run1	generate/STIM_002.jpg	100
56.914	2.036	2035.7	generate	Run1	generate/STIM_002.jpg	99
62.313	1.509	1508.9	generate	Run1	generate/STIM_002.jpg	100
65.991	1.78	1780.1	generate	Run1	generate/STIM_002.jpg	99
70.567	2.084	2084.4	generate	Run1	generate/STIM_002.jpg	99
75.294	2.372	2372.0	generate	Run1	generate/STIM_003.jpg	100
80.085	2.103	2103.2	generate	Run1	generate/STIM_003.jpg	100
84.952	1.802	1801.9	generate	Run1	generate/STIM_003.jpg	100
89.576	2.814	2814.4	generate	Run1	generate/STIM_003.jpg	100
94.771	1.232	1232.5	generate	Run1	generate/STIM_003.jpg	100
99.381	3.138	3138.1	generate	Run1	generate/STIM_004.jpg	99
105.919	2.245	2245.4	generate	Run1	generate/STIM_004.jpg	99
112.001	1.958	1957.5	generate	Run1	generate/STIM_004.jpg	100
117.111	2.944	2943.9	generate	Run1	generate/STIM_004.jpg	100
123.869	1.397	1396.6	generate	Run1	generate/STIM_004.jpg	99
127.843	1.914	1913.7	generate	Run1	generate/STIM_005.jpg	99
132.811	2.24	2239.9	generate	Run1	generate/STIM_005.jpg	99
137.056	1.546	1546.0	generate	Run1	generate/STIM_005.jpg	99
141.904	2.89	2889.8	generate	Run1	generate/STIM_005.jpg	99
148.048	2.436	2435.8	generate	Run1	generate/STIM_005.jpg	100
153.952	3.383	3382.9	generate	Run1	generate/STIM_006.jpg	99
159.429	1.332	1332.3	generate	Run1	generate/STIM_006.jpg	100
164.366	1.544	1543.9	generate	Run1	generate/STIM_006.jpg	100
168.712	2.705	2705.4	generate	Run1	generate/STIM_006.jpg	100
174.828	1.468	1468.4	generate	Run1	generate/STIM_006.jpg	99
179.013	1.731	1731.0	generate	Run1	generate/STIM_007.jpg	99
182.952	2.468	2468.1	generate	Run1	generate/STIM_007.jpg	100
188.762	2.366	2365.7	generate	Run1	generate/STIM_007.jpg	100
194.243	2.057	2057.0	generate	Run1	generate/STIM_007.jpg	100
198.461	2.776	2776.3	generate	Run1	generate/STIM_007.jpg	100
203.324	2.116	2115.6	generate	Run1	generate/STIM_008.jpg	99
207.665	3.122	3122.2	generate	Run1	generate/STIM_008.jpg	99
214.054	1.778	1778.0	generate	Run1	generate/STIM_008.jpg	99
218.747	1.483	1482.8	generate	Run1	generate/STIM_008.jpg	100
222.678	2.183	2182.6	generate	Run1	generate/STIM_008.jpg	99
228.556	1.596	1595.5	generate	Run1	generate/STIM_009.jpg	100
233.356	3.251	3251.0	generate	Run1	generate/STIM_009.jpg	99
239.889	1.59	1589.6	generate	Run1	generate/STIM_009.jpg	99
245.468	1.524	1523.8	generate	Run1	generate/STIM_009.jpg	100
249.945	1.629	1628.6	generate	Run1	generate/STIM_009.jpg	99
255.223	2.04	2039.6	generate	Run1	generate/STIM_010.jpg	100
259.822	2.464	2464.2	generate	Run1	generate/STIM_010.jpg	99
265.619	1.384	1383.9	generate	Run1	generate/STIM_010.jpg	100
270.857	1.437	1436.6	generate	Run1	generate/STIM_010.jpg	100
275.546	1.545	1544.8	generate	Run1	generate/STIM_010.jpg	99
280.907	2.347	2347.3	generate	Run1	generate/STIM_011.jpg	99
286.472	1.443	1443.4	generate	Run1	generate/STIM_011.jpg	99
290.774	2.234	2233.6	generate	Run1	generate/STIM_011.jpg	99
295.572	2.268	2267.7	generate	Run1	generate/STIM_011.jpg	99
300.07	2.522	2521.5	generate	Run1	generate/STIM_011.jpg	99
306.523	2.858	2857.8	generate	Run1	generate/STIM_012.jpg	99
312.086	2.662	2661.9	generate	Run1	generate/STIM_012.jpg	100
316.76	1.343	1343.4	generate	Run1	generate/STIM_012.jpg	100
320.266	2.243	2243.3	generate	Run1	generate/STIM_012.jpg	99
324.961	1.818	1817.8	generate	Run1	generate/STIM_012.jpg	99
329.518	1.61	1610.5	generate	Run1	generate/STIM_013.jpg	99
334.263	2.148	2148.0	generate	Run1	generate/STIM_013.jpg	100
340.293	1.426	1426.2	generate	Run1	generate/STIM_013.jpg	100
343.812	2.925	2925.4	generate	Run1	generate/STIM_013.jpg	100
349.632	2.155	2154.8	generate	Run1	generate/STIM_013.jpg	100
354.267	1.933	1933.3	generate	Run1	generate/STIM_014.jpg	100
359.75	1.606	1606.4	generate	Run1	generate/STIM_014.jpg	100
364.952	2.477	2476.9	generate	Run1	generate/STIM_014.jpg	99
370.965	2.181	2181.4	generate	Run1	generate/STIM_014.jpg	99
375.334	2.543	2543.1	generate	Run1	generate/STIM_014.jpg	99
380.221	2.752	2752.1	generate	Run1	generate/STIM_015.jpg	99
386.432	2.358	2358.4	generate	Run1	generate/STIM_015.jpg	99
391.943	1.32	1319.6	generate	Run1	generate/STIM_015.jpg	100
397.066	1.327	1326.7	generate	Run1	generate/STIM_015.jpg	100
401.065	2.289	2288.7	generate	Run1	generate/STIM_015.jpg	100
406.648	3.147	3147.3	generate	Run1	generate/STIM_016.jpg	99
412.722	2.353	2353.3	generate	Run1	generate/STIM_016.jpg	100
418.651	2.007	2007.5	generate	Run1	generate/STIM_016.jpg	99
423.444	2.125	2124.9	generate	Run1	generate/STIM_016.jpg	100
428.576	2.265	2264.9	generate	Run1	generate/STIM_016.jpg	100
433.771	2.834	2834.5	generate	Run1	generate/STIM_017.jpg	100
440.075	1.918	1918.1	generate	Run1	generate/STIM_017.jpg	100
445.616	1.697	1697.3	generate	Run1	generate/STIM_017.jpg	100
450.719	2.303	2303.3	generate	Run1	generate/STIM_017.jpg	100
455.829	1.948	1948.4	generate	Run1	generate/STIM_017.jpg	99
460.194	3.382	3381.5	generate	Run1	generate/STIM_018.jpg	99
467.308	2.495	2494.7	generate	Run1	generate/STIM_018.jpg	100
472.945	2.221	2220.6	generate	Run1	generate/STIM_018.jpg	99
477.713	1.499	1499.3	generate	Run1	generate/STIM_018.jpg	99
481.728	1.755	1755.1	generate	Run1	generate/STIM_018.jpg	100
485.611	2.916	2916.0	generate	Run1	generate/STIM_019.jpg	99
491.49	1.851	1850.8	generate	Run1	generate/STIM_019.jpg	100
497.047	1.501	1501.3	generate	Run1	generate/STIM_019.jpg	99
500.754	1.183	1182.7	generate	Run1	generate/STIM_019.jpg	99
504.881	2.588	2588.0	generate	Run1	generate/STIM_019.jpg	99
510.996	2.788	2787.9	generate	Run1	generate/STIM_020.jpg	99
516.62	2.384	2384.5	generate	Run1	generate/STIM_020.jpg	100
522.236	2.418	2418.0	generate	Run1	generate/STIM_020.jpg	99
528.136	2.663	2663.2	generate	Run1	generate/STIM_020.jpg	99
534.472	2.156	2156.5	generate	Run1	generate/STIM_020.jpg	100
539.945	1.769	1768.9	generate	Run1	generate/STIM_021.jpg	99
545.124	2.239	2239.1	generate	Run1	generate/STIM_021.jpg	99
550.899	3.08	3079.5	generate	Run1	generate/STIM_021.jpg	99
557.938	1.483	1483.0	generate	Run1	generate/STIM_021.jpg	99
561.682	2.748	2747.5	generate	Run1	generate/STIM_021.jpg	100
566.558	1.909	1909.1	generate	Run1	generate/STIM_022.jpg	99
571.935	2.173	2172.9	generate	Run1	generate/STIM_022.jpg	99
577.792	2.677	2677.0	generate	Run1	generate/STIM_022.jpg	99
582.695	1.993	1992.9	generate	Run1	generate/STIM_022.jpg	100
587.849	2.645	2644.9	generate	Run1	generate/STIM_022.jpg	100
594.459	2.104	2104.2	generate	Run1	generate/STIM_023.jpg	99
599.695	2.423	2423.0	generate	Run1	generate/STIM_023.jpg	99
604.499	1.591	1591.0	generate	Run1	generate/STIM_023.jpg	99
608.711	1.277	1276.9	generate	Run1	generate/STIM_023.jpg	99
613.762	2.563	2562.9	generate	Run1	generate/STIM_023.jpg	99
618.483	2.032	2031.7	generate	Run1	generate/STIM_024.jpg	100
623.391	2.293	2292.7	generate	Run1	generate/STIM_024.jpg	99
629.073	1.941	1941.3	generate	Run1	generate/STIM_024.jpg	99
633.192	1.359	1359.2	generate	Run1	generate/STIM_024.jpg	99
637.723	2.151	2151.1	generate	Run1	generate/STIM_024.jpg	99
643.245	0.969	969.1	repeat	Run1	repeat/STIM_000.jpg	99
647.61	1.044	1043.9	repeat	Run1	repeat/STIM_000.jpg	100
651.177	0.666	665.6	repeat	Run1	repeat/STIM_000.jpg	99
655.161	0.582	582.3	repeat	Run1	repeat/STIM_000.jpg	100
657.795	0.778	778.1	repeat	Run1	repeat/STIM_000.jpg	99
662.209	0.852	852.3	repeat	Run1	repeat/STIM_001.jpg	100
666.683	1.142	1142.1	repeat	Run1	repeat/STIM_001.jpg	100
669.905	0.795	795.3	repeat	Run1	repeat/STIM_001.jpg	99
673.804	0.872	872.5	repeat	Run1	repeat/STIM_001.jpg	100
678.536	1.105	1105.2	repeat	Run1	repeat/STIM_001.jpg	100
682.027	0.77	770.3	repeat	Run1	repeat/STIM_002.jpg	99
684.813	1.069	1069.0	repeat	Run1	repeat/STIM_002.jpg	99
689.568	0.848	848.2	repeat	Run1	repeat/STIM_002.jpg	99
693.758	0.888	887.7	repeat	Run1	repeat/STIM_002.jpg	99
697.245	0.952	951.6	repeat	Run1	repeat/STIM_002.jpg	100
701.108	0.639	639.0	repeat	Run1	repeat/STIM_003.jpg	100
703.833	0.998	997.7	repeat	Run1	repeat/STIM_003.jpg	100
707.622	1.128	1127.7	repeat	Run1	repeat/STIM_003.jpg	99
711.194	0.976	975.9	repeat	Run1	repeat/STIM_003.jpg	100
714.681	0.827	826.7	repeat	Run1	repeat/STIM_003.jpg	99
719.454	1.132	1132.1	repeat	Run1	repeat/STIM_004.jpg	99
723.068	0.678	678.5	repeat	Run1	repeat/STIM_004.jpg	99
726.295	0.788	787.8	repeat	Run1	repeat/STIM_004.jpg	99
729.793	1.061	1061.2	repeat	Run1	repeat/STIM_004.jpg	100
733.459	1.082	1082.2	repeat	Run1	repeat/STIM_004.jpg	100
736.834	0.627	626.6	repeat	Run1	repeat/STIM_005.jpg	99
739.534	0.995	995.3	repeat	Run1	repeat/STIM_005.jpg	100
744.221	0.875	875.2	repeat	Run1	repeat/STIM_005.jpg	100
747.728	0.945	944.9	repeat	Run1	repeat/STIM_005.jpg	99
752.166	1.083	1083.2	repeat	Run1	repeat/STIM_005.jpg	100
757.131	0.649	648.9	repeat	Run1	repeat/STIM_006.jpg	100
761.428	1.134	1133.9	repeat	Run1	repeat/STIM_006.jpg	100
765.59	0.953	952.8	repeat	Run1	repeat/STIM_006.jpg	99
769.948	0.964	963.6	repeat	Run1	repeat/STIM_006.jpg	100
774.623	0.84	840.5	repeat	Run1	repeat/STIM_006.jpg	100
778.361	0.615	614.9	repeat	Run1	repeat/STIM_007.jpg	100
782.041	0.726	726.0	repeat	Run1	repeat/STIM_007.jpg	100
784.926	0.857	856.9	repeat	Run1	repeat/STIM_007.jpg	100
787.942	0.776	775.5	repeat	Run1	repeat/STIM_007.jpg	100
792.315	1.109	1109.0	repeat	Run1	repeat/STIM_007.jpg	100
795.513	0.753	753.0	repeat	Run1	repeat/STIM_008.jpg	100
799.478	1.114	1113.6	repeat	Run1	repeat/STIM_008.jpg	99
802.802	1.095	1094.6	repeat	Run1	repeat/STIM_008.jpg	100
807.306	0.773	773.2	repeat	Run1	repeat/STIM_008.jpg	99
811.641	0.92	920.1	repeat	Run1	repeat/STIM_008.jpg	100
815.853	1.14	1140.2	repeat	Run1	repeat/STIM_009.jpg	100
819.119	0.751	751.3	repeat	Run1	repeat/STIM_009.jpg	100
822.214	0.926	926.2	repeat	Run1	repeat/STIM_009.jpg	100
825.899	1.118	1118.5	repeat	Run1	repeat/STIM_009.jpg	99
830.937	0.849	848.7	repeat	Run1	repeat/STIM_009.jpg	99
834.552	1.072	1072.4	repeat	Run1	repeat/STIM_010.jpg	100
838.524	0.583	582.7	repeat	Run1	repeat/STIM_010.jpg	99
841.464	0.748	748.1	repeat	Run1	repeat/STIM_010.jpg	99
844.767	0.926	925.6	repeat	Run1	repeat/STIM_010.jpg	100
847.845	0.925	924.8	repeat	Run1	repeat/STIM_010.jpg	100
852.448	0.68	679.7	repeat	Run1	repeat/STIM_011.jpg	100
856.347	0.705	705.0	repeat	Run1	repeat/STIM_011.jpg	100
860.584	1.078	1077.7	repeat	Run1	repeat/STIM_011.jpg	99
863.946	0.591	591.3	repeat	Run1	repeat/STIM_011.jpg	100
866.951	1.088	1088.5	repeat	Run1	repeat/STIM_011.jpg	99
870.393	0.98	980.1	repeat	Run1	repeat/STIM_012.jpg	100
875.134	1.038	1038.3	repeat	Run1	repeat/STIM_012.jpg	100
878.882	1.072	1071.5	repeat	Run1	repeat/STIM_012.jpg	100
882.653	0.976	975.7	repeat	Run1	repeat/STIM_012.jpg	100
886.74	0.735	735.3	repeat	Run1	repeat/STIM_012.jpg	99
890.215	0.847	846.6	repeat	Run1	repeat/STIM_013.jpg	100
894.201	1.082	1082.4	repeat	Run1	repeat/STIM_013.jpg	99
899.044	1.082	1082.2	repeat	Run1	repeat/STIM_013.jpg	100
903.2	0.795	795.1	repeat	Run1	repeat/STIM_013.jpg	99
906.582	0.898	897.8	repeat	Run1	repeat/STIM_013.jpg	99
910.728	0.592	591.9	repeat	Run1	repeat/STIM_014.jpg	99
914.623	0.777	776.7	repeat	Run1	repeat/STIM_014.jpg	100
917.535	0.922	922.4	repeat	Run1	repeat/STIM_014.jpg	99
920.929	0.902	902.3	repeat	Run1	repeat/STIM_014.jpg	99
924.377	0.715	715.3	repeat	Run1	repeat/STIM_014.jpg	100
927.343	1.289	1289.1	generate	Run2	generate/STIM_000.jpg	99
930.981	1.995	1994.6	generate	Run2	generate/STIM_000.jpg	100
936.814	1.079	1079.3	generate	Run2	generate/STIM_000.jpg	99
941.56	1.855	1855.2	generate	Run2	generate/STIM_000.jpg	100
946.075	2.003	2002.7	generate	Run2	generate/STIM_000.jpg	100
951.346	1.634	1633.8	generate	Run2	generate/STIM_001.jpg	100
956.269	2.378	2377.5	generate	Run2	generate/STIM_001.jpg	100
962.498	2.47	2470.3	generate	Run2	generate/STIM_001.jpg	100
966.993	1.334	1333.7	generate	Run2	generate/STIM_001.jpg	100
970.919	1.338	1337.6	generate	Run2	generate/STIM_001.jpg	99
974.27	1.887	1887.0	generate	Run2	generate/STIM_002.jpg	99
979.156	1.555	1555.0	generate	Run2	generate/STIM_002.jpg	100
984.176	2.418	2417.7	generate	Run2	generate/STIM_002.jpg	100
989.618	1.003	1002.8	generate	Run2	generate/STIM_002.jpg	99
994.598	1.392	1391.8	generate	Run2	generate/STIM_002.jpg	100
998.181	2.35	2349.8	generate	Run2	generate/STIM_003.jpg	99
1003.438	2.001	2001.1	generate	Run2	generate/STIM_003.jpg	99
1007.994	2.476	2476.4	generate	Run2	generate/STIM_003.jpg	99
1013.113	1.007	1007.0	generate	Run2	generate/STIM_003.jpg	99
1017.323	1.875	1874.7	generate	Run2	generate/STIM_003.jpg	100
1021.89	2.617	2617.1	generate	Run2	generate/STIM_004.jpg	99
1027.617	2.569	2568.9	generate	Run2	generate/STIM_004.jpg	100
1033.113	1.182	1182.2	generate	Run2	generate/STIM_004.jpg	100
1037.674	1.062	1062.5	generate	Run2	generate/STIM_004.jpg	100
1042.167	2.119	2119.4	generate	Run2	generate/STIM_004.jpg	99
1046.593	1.722	1721.8	generate	Run2	generate/STIM_005.jpg	100
1050.961	2.708	2707.5	generate	Run2	generate/STIM_005.jpg	99
1056.951	1.836	1836.0	generate	Run2	generate/STIM_005.jpg	100
1062.519	2.432	2432.2	generate	Run2	generate/STIM_005.jpg	99
1068.308	1.379	1378.8	generate	Run2	generate/STIM_005.jpg	99
1072.552	2.864	2864.2	generate	Run2	generate/STIM_006.jpg	100
1077.958	1.242	1241.8	generate	Run2	generate/STIM_006.jpg	100
1082.785	1.714	1713.8	generate	Run2	generate/STIM_006.jpg	99
1088.073	1.198	1198.2	generate	Run2	generate/STIM_006.jpg	99
1091.736	2.115	2115.0	generate	Run2	generate/STIM_006.jpg	100
1096.492	1.494	1493.6	generate	Run2	generate/STIM_007.jpg	100
1100.023	1.781	1781.0	generate	Run2	generate/STIM_007.jpg	99
1104.168	2.552	2552.0	generate	Run2	generate/STIM_007.jpg	100
1109.559	1.935	1935.0	generate	Run2	generate/STIM_007.jpg	100
1114.645	1.479	1478.7	generate	Run2	generate/STIM_007.jpg	99
1118.61	2.44	2439.6	generate	Run2	generate/STIM_008.jpg	99
1123.508	1.454	1453.7	generate	Run2	generate/STIM_008.jpg	99
1128.26	1.067	1066.8	generate	Run2	generate/STIM_008.jpg	100
1131.905	1.478	1477.5	generate	Run2	generate/STIM_008.jpg	100
1136.196	1.759	1759.0	generate	Run2	generate/STIM_008.jpg	100
1140.63	1.917	1917.4	generate	Run2	generate/STIM_009.jpg	100
1144.734	2.125	2124.7	generate	Run2	generate/STIM_009.jpg	100
1149.891	1.642	1642.2	generate	Run2	generate/STIM_009.jpg	99
1153.605	2.045	2044.7	generate	Run2	generate/STIM_009.jpg	99
1158.883	1.262	1261.9	generate	Run2	generate/STIM_009.jpg	99
1162.304	2.499	2499.0	generate	Run2	generate/STIM_010.jpg	99
1168.561	2.308	2307.7	generate	Run2	generate/STIM_010.jpg	100
1173.959	1.848	1848.5	generate	Run2	generate/STIM_010.jpg	99
1178.894	1.309	1308.6	generate	Run2	generate/STIM_010.jpg	99
1184.193	1.531	1530.8	generate	Run2	generate/STIM_010.jpg	99
1188.374	1.899	1898.8	generate	Run2	generate/STIM_011.jpg	100
1192.566	2.103	2103.2	generate	Run2	generate/STIM_011.jpg	100
1197.214	2.14	2140.2	generate	Run2	generate/STIM_011.jpg	100
1201.807	1.15	1149.8	generate	Run2	generate/STIM_011.jpg	100
1205.875	1.21	1210.2	generate	Run2	generate/STIM_011.jpg	100
1209.365	2.764	2764.1	generate	Run2	generate/STIM_012.jpg	99
1215.929	2.524	2524.3	generate	Run2	generate/STIM_012.jpg	99
1222.015	1.621	1620.9	generate	Run2	generate/STIM_012.jpg	99
1226.016	1.994	1994.2	generate	Run2	generate/STIM_012.jpg	100
1230.335	1.297	1297.1	generate	Run2	generate/STIM_012.jpg	100
1234.998	2.021	2020.7	generate	Run2	generate/STIM_013.jpg	100
1239.043	1.411	1410.6	generate	Run2	generate/STIM_013.jpg	99
1243.512	1.503	1503.2	generate	Run2	generate/STIM_013.jpg	99
1247.547	1.639	1638.8	generate	Run2	generate/STIM_013.jpg	99
1252.764	2.039	2038.7	generate	Run2	generate/STIM_013.jpg	99
1258.367	2.217	2216.9	generate	Run2	generate/STIM_014.jpg	100
1262.889	1.161	1161.3	generate	Run2	generate/STIM_014.jpg	100
1266.398	1.976	1976.4	generate	Run2	generate/STIM_014.jpg	99
1270.62	1.472	1471.8	generate	Run2	generate/STIM_014.jpg	99
1275.03	1.699	1699.4	generate	Run2	generate/STIM_014.jpg	100
1280.21	2.127	2127.2	generate	Run2	generate/STIM_015.jpg	100
1285.564	1.528	1527.8	generate	Run2	generate/STIM_015.jpg	99
1289.539	1.637	1636.6	generate	Run2	generate/STIM_015.jpg	100
1294.809	1.555	1555.3	generate	Run2	generate/STIM_015.jpg	100
1300.113	1.387	1386.8	generate	Run2	generate/STIM_015.jpg	100
1303.893	2.661	2660.7	generate	Run2	generate/STIM_016.jpg	100
1309.257	1.75	1749.5	generate	Run2	generate/STIM_016.jpg	99
1313.614	1.63	1629.9	generate	Run2	generate/STIM_016.jpg	99
1318.931	1.83	1830.2	generate	Run2	generate/STIM_016.jpg	100
1323.536	1.272	1271.7	generate	Run2	generate/STIM_016.jpg	100
1328.347	2.256	2255.6	generate	Run2	generate/STIM_017.jpg	100
1334.51	2.555	2555.3	generate	Run2	generate/STIM_017.jpg	99
1340.233	2.328	2327.6	generate	Run2	generate/STIM_017.jpg	99
1346.426	1.173	1173.1	generate	Run2	generate/STIM_017.jpg	100
1349.774	1.139	1139.4	generate	Run2	generate/STIM_017.jpg	100
1354.471	2.127	2126.8	generate	Run2	generate/STIM_018.jpg	99
1359.078	1.973	1973.0	generate	Run2	generate/STIM_018.jpg	100
1363.626	2.158	2157.5	generate	Run2	generate/STIM_018.jpg	100
1368.99	1.296	1296.2	generate	Run2	generate/STIM_018.jpg	100
1373.832	1.543	1543.0	generate	Run2	generate/STIM_018.jpg	99
1379.097	1.532	1532.5	generate	Run2	generate/STIM_019.jpg	99
1384.19	2.324	2323.9	generate	Run2	generate/STIM_019.jpg	100
1390.314	2.481	2480.7	generate	Run2	generate/STIM_019.jpg	100
1395.732	1.369	1368.8	generate	Run2	generate/STIM_019.jpg	100
1399.694	1.852	1852.2	generate	Run2	generate/STIM_019.jpg	99
1404.601	2.738	2737.9	generate	Run2	generate/STIM_020.jpg	100
1410.787	1.859	1859.0	generate	Run2	generate/STIM_020.jpg	99
1415.504	1.808	1807.5	generate	Run2	generate/STIM_020.jpg	100
1420.705	1.747	1747.0	generate	Run2	generate/STIM_020.jpg	100
1425.337	1.042	1042.1	generate	Run2	generate/STIM_020.jpg	100
1429.419	2.568	2568.2	generate	Run2	generate/STIM_021.jpg	100
1434.915	1.223	1222.7	generate	Run2	generate/STIM_021.jpg	99
1439.075	2.592	2592.2	generate	Run2	generate/STIM_021.jpg	99
1445.612	1.252	1252.5	generate	Run2	generate/STIM_021.jpg	99
1449.288	1.746	1745.5	generate	Run2	generate/STIM_021.jpg	100
1453.812	1.75	1749.8	generate	Run2	generate/STIM_022.jpg	100
1458.317	1.639	1638.8	generate	Run2	generate/STIM_022.jpg	99
1463.673	2.405	2405.3	generate	Run2	generate/STIM_022.jpg	99
1469.573	1.434	1433.6	generate	Run2	generate/STIM_022.jpg	100
1473.988	1.525	1525.2	generate	Run2	generate/STIM_022.jpg	99
1479.415	2.458	2458.2	generate	Run2	generate/STIM_023.jpg	99
1485.258	1.667	1667.4	generate	Run2	generate/STIM_023.jpg	99
1490.371	1.377	1376.6	generate	Run2	generate/STIM_023.jpg	99
1494.116	1.656	1656.5	generate	Run2	generate/STIM_023.jpg	100
1499.015	1.531	1530.7	generate	Run2	generate/STIM_023.jpg	99
1504.161	2.278	2277.5	generate	Run2	generate/STIM_024.jpg	100
1509.431	1.922	1921.9	generate	Run2	generate/STIM_024.jpg	99
1514.926	1.377	1376.7	generate	Run2	generate/STIM_024.jpg	100
1519.91	1.837	1837.0	generate	Run2	generate/STIM_024.jpg	100
1525.548	1.377	1377.2	generate	Run2	generate/STIM_024.jpg	100
1530.172	1.123	1122.8	repeat	Run2	repeat/STIM_000.jpg	99
1533.751	1.124	1123.8	repeat	Run2	repeat/STIM_000.jpg	99
1537.135	1.126	1125.8	repeat	Run2	repeat/STIM_000.jpg	99
1541.193	0.986	986.5	repeat	Run2	repeat/STIM_000.jpg	100
1545.57	1.082	1082.1	repeat	Run2	repeat/STIM_000.jpg	100
1549.528	0.813	813.0	repeat	Run2	repeat/STIM_001.jpg	99
1552.437	0.8	799.5	repeat	Run2	repeat/STIM_001.jpg	100
1555.285	0.828	828.4	repeat	Run2	repeat/STIM_001.jpg	99
1558.447	0.778	778.1	repeat	Run2	repeat/STIM_001.jpg	99
1562.373	0.719	718.7	repeat	Run2	repeat/STIM_001.jpg	100
1565.935	0.601	600.9	repeat	Run2	repeat/STIM_002.jpg	100
1569.083	0.927	926.8	repeat	Run2	repeat/STIM_002.jpg	100
1573.203	1.071	1071.4	repeat	Run2	repeat/STIM_002.jpg	99
1577.739	1.063	1063.2	repeat	Run2	repeat/STIM_002.jpg	100
1581.023	0.752	751.6	repeat	Run2	repeat/STIM_002.jpg	99
1585.752	0.623	622.9	repeat	Run2	repeat/STIM_003.jpg	99
1589.65	0.754	753.6	repeat	Run2	repeat/STIM_003.jpg	99
1593.333	1.097	1097.1	repeat	Run2	repeat/STIM_003.jpg	99
1596.619	0.67	670.5	repeat	Run2	repeat/STIM_003.jpg	100
1601.038	1.144	1143.5	repeat	Run2	repeat/STIM_003.jpg	100
1605.322	0.925	925.1	repeat	Run2	repeat/STIM_004.jpg	99
1609.117	0.751	751.1	repeat	Run2	repeat/STIM_004.jpg	100
1613.115	1.044	1044.5	repeat	Run2	repeat/STIM_004.jpg	100
1616.4	1.096	1096.2	repeat	Run2	repeat/STIM_004.jpg	99
1619.73	0.769	769.1	repeat	Run2	repeat/STIM_004.jpg	100
1623.09	0.622	622.3	repeat	Run2	repeat/STIM_005.jpg	100
1626.429	1.024	1024.1	repeat	Run2	repeat/STIM_005.jpg	100
1630.321	0.996	995.7	repeat	Run2	repeat/STIM_005.jpg	100
1635.244	0.767	767.1	repeat	Run2	repeat/STIM_005.jpg	100
1638.324	0.709	709.4	repeat	Run2	repeat/STIM_005.jpg	99
1641.212	0.648	647.9	repeat	Run2	repeat/STIM_006.jpg	99
1644.741	0.976	975.5	repeat	Run2	repeat/STIM_006.jpg	100
1647.881	0.93	929.9	repeat	Run2	repeat/STIM_006.jpg	99
1651.177	0.591	590.9	repeat	Run2	repeat/STIM_006.jpg	100
1655.014	1.045	1045.2	repeat	Run2	repeat/STIM_006.jpg	99
1659.227	0.634	634.3	repeat	Run2	repeat/STIM_007.jpg	99
1663.632	0.795	794.7	repeat	Run2	repeat/STIM_007.jpg	99
1667.146	1.057	1057.3	repeat	Run2	repeat/STIM_007.jpg	100
1670.988	1.044	1043.9	repeat	Run2	repeat/STIM_007.jpg	100
1674.124	0.967	966.7	repeat	Run2	repeat/STIM_007.jpg	100
1678.973	1.146	1146.2	repeat	Run2	repeat/STIM_008.jpg	99
1682.205	0.679	679.2	repeat	Run2	repeat/STIM_008.jpg	100
1684.953	1.114	1114.5	repeat	Run2	repeat/STIM_008.jpg	100
1688.857	1.149	1149.3	repeat	Run2	repeat/STIM_008.jpg	99
1693.491	1.138	1138.1	repeat	Run2	repeat/STIM_008.jpg	99
1698.118	1.043	1042.8	repeat	Run2	repeat/STIM_009.jpg	100
1702.758	0.776	775.7	repeat	Run2	repeat/STIM_009.jpg	99
1706.41	1.097	1097.0	repeat	Run2	repeat/STIM_009.jpg	99
1710.919	1.002	1002.3	repeat	Run2	repeat/STIM_009.jpg	99
1714.043	0.978	978.4	repeat	Run2	repeat/STIM_009.jpg	100
1718.498	0.774	773.7	repeat	Run2	repeat/STIM_010.jpg	99
1723.135	0.759	759.1	repeat	Run2	repeat/STIM_010.jpg	100
1726.645	0.767	767.1	repeat	Run2	repeat/STIM_010.jpg	100
1730.578	0.801	801.1	repeat	Run2	repeat/STIM_010.jpg	99
1735.379	0.952	952.1	repeat	Run2	repeat/STIM_010.jpg	100
1739.208	0.802	801.9	repeat	Run2	repeat/STIM_011.jpg	99
1742.238	0.753	753.3	repeat	Run2	repeat/STIM_011.jpg	100
1746.59	0.67	669.9	repeat	Run2	repeat/STIM_011.jpg	99
1751.01	1.113	1112.8	repeat	Run2	repeat/STIM_011.jpg	99
1755.31	0.598	597.5	repeat	Run2	repeat/STIM_011.jpg	100
1759.573	0.99	990.0	repeat	Run2	repeat/STIM_012.jpg	100
1763.533	1.004	1004.4	repeat	Run2	repeat/STIM_012.jpg	100
1768.304	1.019	1018.7	repeat	Run2	repeat/STIM_012.jpg	100
1772.803	0.728	728.0	repeat	Run2	repeat/STIM_012.jpg	99
1775.585	0.826	826.5	repeat	Run2	repeat/STIM_012.jpg	100
1780.12	0.718	717.9	repeat	Run2	repeat/STIM_013.jpg	99
1783.853	0.902	902.5	repeat	Run2	repeat/STIM_013.jpg	99
1787.007	0.686	685.9	repeat	Run2	repeat/STIM_013.jpg	100
1791.439	0.729	729.0	repeat	Run2	repeat/STIM_013.jpg	99
1795.065	0.861	861.3	repeat	Run2	repeat/STIM_013.jpg	99
1798.339	1.147	1147.2	repeat	Run2	repeat/STIM_014.jpg	99
1802.164	0.586	585.7	repeat	Run2	repeat/STIM_014.jpg	100
1806.679	0.859	859.0	repeat	Run2	repeat/STIM_014.jpg	100
1810.016	1.128	1127.5	repeat	Run2	repeat/STIM_014.jpg	99
1813.506	1.118	1118.2	repeat	Run2	repeat/STIM_014.jpg	99
1817.785	2.391	2391.1	generate	Run3	generate/STIM_000.jpg	100
1824.151	1.983	1982.8	generate	Run3	generate/STIM_000.jpg	99
1829.027	2.074	2073.9	generate	Run3	generate/STIM_000.jpg	100
1833.958	1.746	1745.6	generate	Run3	generate/STIM_000.jpg	100
1837.934	2.242	2241.5	generate	Run3	generate/STIM_000.jpg	100
1842.961	1.847	1847.2	generate	Run3	generate/STIM_001.jpg	100
1847.887	1.814	1814.1	generate	Run3	generate/STIM_001.jpg	99
1851.99	1.02	1019.6	generate	Run3	generate/STIM_001.jpg	99
1855.472	1.482	1482.5	generate	Run3	generate/STIM_001.jpg	99
1859.441	1.507	1506.6	generate	Run3	generate/STIM_001.jpg	99
1864.82	1.421	1420.8	generate	Run3	generate/STIM_002.jpg	99
1869.971	2.221	2221.3	generate	Run3	generate/STIM_002.jpg	100
1876.01	2.088	2088.5	generate	Run3	generate/STIM_002.jpg	100
1881.453	2.322	2322.4	generate	Run3	generate/STIM_002.jpg	99
1885.904	1.797	1797.1	generate	Run3	generate/STIM_002.jpg	99
1890.721	1.264	1263.6	generate	Run3	generate/STIM_003.jpg	99
1895.59	1.234	1234.5	generate	Run3	generate/STIM_003.jpg	100
1900.481	1.861	1861.4	generate	Run3	generate/STIM_003.jpg	99
1904.721	1.894	1893.6	generate	Run3	generate/STIM_003.jpg	100
1909.522	2.152	2152.3	generate	Run3	generate/STIM_003.jpg	99
1914.829	2.261	2260.9	generate	Run3	generate/STIM_004.jpg	100
1919.257	1.844	1844.1	generate	Run3	generate/STIM_004.jpg	100
1923.897	2.348	2347.6	generate	Run3	generate/STIM_004.jpg	99
1929.068	1.882	1881.7	generate	Run3	generate/STIM_004.jpg	99
1934.53	1.856	1856.5	generate	Run3	generate/STIM_004.jpg	100
1938.647	1.652	1652.4	generate	Run3	generate/STIM_005.jpg	100
1944.006	1.198	1197.9	generate	Run3	generate/STIM_005.jpg	99
1948.401	1.914	1914.0	generate	Run3	generate/STIM_005.jpg	100
1953.247	1.268	1267.5	generate	Run3	generate/STIM_005.jpg	100
1956.947	1.269	1269.1	generate	Run3	generate/STIM_005.jpg	99
1960.429	2.292	2291.7	generate	Run3	generate/STIM_006.jpg	99
1966.249	1.764	1764.2	generate	Run3	generate/STIM_006.jpg	99
1970.36	1.15	1149.8	generate	Run3	generate/STIM_006.jpg	100
1974.599	1.999	1999.2	generate	Run3	generate/STIM_006.jpg	100
1979.019	1.938	1938.1	generate	Run3	generate/STIM_006.jpg	99
1984.626	2.364	2364.3	generate	Run3	generate/STIM_007.jpg	99
1990.645	1.126	1126.4	generate	Run3	generate/STIM_007.jpg	99
1995.054	1.511	1511.4	generate	Run3	generate/STIM_007.jpg	99
1999.374	1.501	1501.0	generate	Run3	generate/STIM_007.jpg	100
2004.77	1.548	1547.5	generate	Run3	generate/STIM_007.jpg	99
2010.025	1.776	1775.7	generate	Run3	generate/STIM_008.jpg	100
2014.406	1.952	1952.2	generate	Run3	generate/STIM_008.jpg	99
2019.31	2.428	2427.7	generate	Run3	generate/STIM_008.jpg	100
2024.224	1.284	1284.0	generate	Run3	generate/STIM_008.jpg	99
2028.02	1.714	1714.2	generate	Run3	generate/STIM_008.jpg	99
2032.302	1.704	1703.7	generate	Run3	generate/STIM_009.jpg	99
2036.357	1.363	1363.0	generate	Run3	generate/STIM_009.jpg	99
2040.362	1.264	1264.4	generate	Run3	generate/STIM_009.jpg	100
2045.14	2.137	2137.3	generate	Run3	generate/STIM_009.jpg	99
2050.252	2.151	2151.1	generate	Run3	generate/STIM_009.jpg	100
2055.174	1.31	1310.5	generate	Run3	generate/STIM_010.jpg	100
2060.394	1.068	1068.0	generate	Run3	generate/STIM_010.jpg	100
2063.643	1.142	1142.3	generate	Run3	generate/STIM_010.jpg	99
2067.812	1.568	1567.8	generate	Run3	generate/STIM_010.jpg	99
2071.582	1.49	1490.5	generate	Run3	generate/STIM_010.jpg	100
2076.703	1.388	1388.3	generate	Run3	generate/STIM_011.jpg	100
2081.365	1.846	1845.5	generate	Run3	generate/STIM_011.jpg	100
2086.58	2.157	2156.9	generate	Run3	generate/STIM_011.jpg	99
2091.169	2.322	2322.2	generate	Run3	generate/STIM_011.jpg	99
2096.017	2.177	2176.7	generate	Run3	generate/STIM_011.jpg	99
2102.037	1.305	1305.3	generate	Run3	generate/STIM_012.jpg	99
2105.429	2.305	2305.2	generate	Run3	generate/STIM_012.jpg	100
2111.05	1.2	1199.8	generate	Run3	generate/STIM_012.jpg	99
2114.954	1.418	1418.4	generate	Run3	generate/STIM_012.jpg	99
2120.131	1.879	1878.6	generate	Run3	generate/STIM_012.jpg	100
2125.802	1.495	1494.6	generate	Run3	generate/STIM_013.jpg	100
2131.129	2.094	2094.0	generate	Run3	generate/STIM_013.jpg	99
2136.012	2.196	2196.5	generate	Run3	generate/STIM_013.jpg	99
2142.076	1.557	1557.3	generate	Run3	generate/STIM_013.jpg	99
2146.961	1.893	1893.2	generate	Run3	generate/STIM_013.jpg	99
2152.333	1.361	1360.8	generate	Run3	generate/STIM_014.jpg	99
2156.184	1.335	1335.3	generate	Run3	generate/STIM_014.jpg	99
2159.555	1.708	1708.2	generate	Run3	generate/STIM_014.jpg	100
2163.95	1.127	1126.8	generate	Run3	generate/STIM_014.jpg	100
2167.888	2.341	2340.7	generate	Run3	generate/STIM_014.jpg	99
2172.251	1.301	1300.9	generate	Run3	generate/STIM_015.jpg	99
2177.107	2.116	2116.4	generate	Run3	generate/STIM_015.jpg	100
2181.872	1.342	1342.1	generate	Run3	generate/STIM_015.jpg	100
2186.706	1.431	1431.2	generate	Run3	generate/STIM_015.jpg	99
2190.902	2.412	2412.1	generate	Run3	generate/STIM_015.jpg	99
2197.041	2.132	2132.1	generate	Run3	generate/STIM_016.jpg	99
2201.637	1.273	1273.0	generate	Run3	generate/STIM_016.jpg	99
2205.146	1.957	1956.8	generate	Run3	generate/STIM_016.jpg	99
2209.993	2.299	2299.2	generate	Run3	generate/STIM_016.jpg	100
2214.38	1.468	1467.6	generate	Run3	generate/STIM_016.jpg	100
2218.312	1.642	1641.5	generate	Run3	generate/STIM_017.jpg	100
2222.605	1.459	1459.0	generate	Run3	generate/STIM_017.jpg	100
2227.118	2.115	2115.0	generate	Run3	generate/STIM_017.jpg	100
2232.571	1.715	1714.6	generate	Run3	generate/STIM_017.jpg	100
2237.135	2.058	2057.7	generate	Run3	generate/STIM_017.jpg	99
2241.813	1.305	1305.1	generate	Run3	generate/STIM_018.jpg	99
2245.433	1.174	1174.2	generate	Run3	generate/STIM_018.jpg	99
2249.335	1.954	1954.1	generate	Run3	generate/STIM_018.jpg	100
2253.631	1.41	1410.3	generate	Run3	generate/STIM_018.jpg	99
2258.62	1.207	1207.0	generate	Run3	generate/STIM_018.jpg	100
2263.486	2.143	2142.8	generate	Run3	generate/STIM_019.jpg	99
2269.388	1.888	1887.5	generate	Run3	generate/STIM_019.jpg	99
2275.178	1.414	1413.7	generate	Run3	generate/STIM_019.jpg	99
2279.573	1.161	1160.6	generate	Run3	generate/STIM_019.jpg	100
2284.397	1.187	1187.3	generate	Run3	generate/STIM_019.jpg	99
2287.851	1.885	1884.9	generate	Run3	generate/STIM_020.jpg	100
2292.027	1.002	1002.1	generate	Run3	generate/STIM_020.jpg	100
2295.398	1.68	1680.3	generate	Run3	generate/STIM_020.jpg	100
2299.12	2.34	2340.1	generate	Run3	generate/STIM_020.jpg	99
2304.045	1.521	1521.3	generate	Run3	generate/STIM_020.jpg	100
2308.543	1.117	1117.2	generate	Run3	generate/STIM_021.jpg	99
2311.91	1.056	1056.1	generate	Run3	generate/STIM_021.jpg	100
2316.322	1.64	1640.1	generate	Run3	generate/STIM_021.jpg	100
2320.937	2.119	2118.7	generate	Run3	generate/STIM_021.jpg	100
2326.68	0.982	981.6	generate	Run3	generate/STIM_021.jpg	100
2330.605	1.988	1987.9	generate	Run3	generate/STIM_022.jpg	100
2336.441	1.375	1374.6	generate	Run3	generate/STIM_022.jpg	99
2340.1	2.022	2022.3	generate	Run3	generate/STIM_022.jpg	99
2344.801	1.487	1486.6	generate	Run3	generate/STIM_022.jpg	99
2350.226	2.378	2378.4	generate	Run3	generate/STIM_022.jpg	100
2356.021	1.69	1690.3	generate	Run3	generate/STIM_023.jpg	99
2361.307	1.051	1050.6	generate	Run3	generate/STIM_023.jpg	100
2364.9	1.731	1731.3	generate	Run3	generate/STIM_023.jpg	100
2369.232	1.052	1051.9	generate	Run3	generate/STIM_023.jpg	100
2372.724	1.442	1441.5	generate	Run3	generate/STIM_023.jpg	100
2378.103	1.772	1771.8	generate	Run3	generate/STIM_024.jpg	100
2383.47	1.546	1545.9	generate	Run3	generate/STIM_024.jpg	100
2387.233	1.85	1850.5	generate	Run3	generate/STIM_024.jpg	100
2392.388	1.276	1275.6	generate	Run3	generate/STIM_024.jpg	100
2397.096	2.39	2390.0	generate	Run3	generate/STIM_024.jpg	99
2402.101	0.586	586.0	repeat	Run3	repeat/STIM_000.jpg	100
2406.271	0.73	730.2	repeat	Run3	repeat/STIM_000.jpg	100
2409.735	1.011	1010.6	repeat	Run3	repeat/STIM_000.jpg	100
2413.064	0.66	660.2	repeat	Run3	repeat/STIM_000.jpg	100
2416.339	0.97	970.1	repeat	Run3	repeat/STIM_000.jpg	99
2420.928	1.105	1104.7	repeat	Run3	repeat/STIM_001.jpg	99
2425.778	1.104	1103.5	repeat	Run3	repeat/STIM_001.jpg	99
2429.27	0.858	857.5	repeat	Run3	repeat/STIM_001.jpg	99
2432.848	0.661	660.9	repeat	Run3	repeat/STIM_001.jpg	99
2437.49	0.777	777.3	repeat	Run3	repeat/STIM_001.jpg	99
2442.237	1.147	1146.9	repeat	Run3	repeat/STIM_002.jpg	100
2446.815	0.947	947.0	repeat	Run3	repeat/STIM_002.jpg	99
2450.531	0.773	772.7	repeat	Run3	repeat/STIM_002.jpg	100
2455.037	1.066	1065.5	repeat	Run3	repeat/STIM_002.jpg	100
2459.551	1.033	1033.2	repeat	Run3	repeat/STIM_002.jpg	100
2463.771	0.797	797.0	repeat	Run3	repeat/STIM_003.jpg	99
2468.063	0.727	726.6	repeat	Run3	repeat/STIM_003.jpg	100
2470.867	0.741	741.3	repeat	Run3	repeat/STIM_003.jpg	99
2474.375	0.784	783.7	repeat	Run3	repeat/STIM_003.jpg	99
2478.208	1.006	1006.5	repeat	Run3	repeat/STIM_003.jpg	99
2482.315	0.941	941.3	repeat	Run3	repeat/STIM_004.jpg	99
2486.591	0.727	726.8	repeat	Run3	repeat/STIM_004.jpg	99
2489.478	0.949	949.1	repeat	Run3	repeat/STIM_004.jpg	100
2493.999	0.948	947.6	repeat	Run3	repeat/STIM_004.jpg	100
2497.306	0.767	766.6	repeat	Run3	repeat/STIM_004.jpg	99
2501.287	1.04	1040.0	repeat	Run3	repeat/STIM_005.jpg	99
2505.983	1.064	1063.8	repeat	Run3	repeat/STIM_005.jpg	99
2510.124	0.701	700.9	repeat	Run3	repeat/STIM_005.jpg	100
2513.383	0.699	699.2	repeat	Run3	repeat/STIM_005.jpg	100
2517.921	0.753	753.1	repeat	Run3	repeat/STIM_005.jpg	100
2521.947	0.74	739.6	repeat	Run3	repeat/STIM_006.jpg	100
2525.018	0.893	893.0	repeat	Run3	repeat/STIM_006.jpg	100
2529.648	1.028	1028.5	repeat	Run3	repeat/STIM_006.jpg	99
2534.118	1.072	1072.5	repeat	Run3	repeat/STIM_006.jpg	99
2537.235	1.096	1095.6	repeat	Run3	repeat/STIM_006.jpg	100
2540.337	1.127	1127.1	repeat	Run3	repeat/STIM_007.jpg	99
2544.774	0.927	927.3	repeat	Run3	repeat/STIM_007.jpg	99
2548.81	0.919	918.6	repeat	Run3	repeat/STIM_007.jpg	100
2552.485	0.592	591.5	repeat	Run3	repeat/STIM_007.jpg	99
2555.84	0.845	845.3	repeat	Run3	repeat/STIM_007.jpg	99
2559.511	1.145	1145.1	repeat	Run3	repeat/STIM_008.jpg	99
2562.814	1.08	1079.6	repeat	Run3	repeat/STIM_008.jpg	100
2566.933	0.867	867.2	repeat	Run3	repeat/STIM_008.jpg	99
2570.623	0.989	989.3	repeat	Run3	repeat/STIM_008.jpg	100
2574.434	0.998	997.9	repeat	Run3	repeat/STIM_008.jpg	100
2578.148	1.149	1148.9	repeat	Run3	repeat/STIM_009.jpg	100
2582.83	1.13	1130.0	repeat	Run3	repeat/STIM_009.jpg	100
2587.211	0.999	999.4	repeat	Run3	repeat/STIM_009.jpg	100
2590.374	0.888	888.2	repeat	Run3	repeat/STIM_009.jpg	99
2593.875	1.155	1155.2	repeat	Run3	repeat/STIM_009.jpg	99
2598.46	1.092	1091.5	repeat	Run3	repeat/STIM_010.jpg	99
2601.683	0.697	696.8	repeat	Run3	repeat/STIM_010.jpg	99
2605.095	1.04	1039.7	repeat	Run3	repeat/STIM_010.jpg	100
2609.204	1.106	1105.7	repeat	Run3	repeat/STIM_010.jpg	100
2613.661	1.138	1138.3	repeat	Run3	repeat/STIM_010.jpg	99
2618.197	0.91	910.5	repeat	Run3	repeat/STIM_011.jpg	100
2622.096	0.806	806.1	repeat	Run3	repeat/STIM_011.jpg	99
2626.447	1.03	1030.5	repeat	Run3	repeat/STIM_011.jpg	100
2630.145	0.828	827.8	repeat	Run3	repeat/STIM_011.jpg	99
2633.172	0.781	781.2	repeat	Run3	repeat/STIM_011.jpg	99
2636.552	0.818	817.5	repeat	Run3	repeat/STIM_012.jpg	99
2640.526	0.856	856.5	repeat	Run3	repeat/STIM_012.jpg	99
2644.053	0.954	953.5	repeat	Run3	repeat/STIM_012.jpg	100
2648.669	0.912	911.5	repeat	Run3	repeat/STIM_012.jpg	100
2653.212	1.018	1018.5	repeat	Run3	repeat/STIM_012.jpg	100
2657.455	0.593	592.8	repeat	Run3	repeat/STIM_013.jpg	100
2660.278	0.988	988.4	repeat	Run3	repeat/STIM_013.jpg	100
2663.758	1.08	1080.0	repeat	Run3	repeat/STIM_013.jpg	99
2668.186	1.005	1004.7	repeat	Run3	repeat/STIM_013.jpg	99
2671.976	0.718	717.8	repeat	Run3	repeat/STIM_013.jpg	99
2676.388	1.126	1125.8	repeat	Run3	repeat/STIM_014.jpg	99
2681.278	1.142	1141.5	repeat	Run3	repeat/STIM_014.jpg	100
2686.286	0.854	854.1	repeat	Run3	repeat/STIM_014.jpg	99
2691.02	0.898	898.5	repeat	Run3	repeat/STIM_014.jpg	99
2694.63	0.654	653.8	repeat	Run3	repeat/STIM_014.jpg	99
2697.798	1.172	1171.8	generate	Run4	generate/STIM_000.jpg	100
2701.808	1.585	1584.9	generate	Run4	generate/STIM_000.jpg	99
2706.822	1.052	1052.1	generate	Run4	generate/STIM_000.jpg	99
2711.387	1.708	1707.8	generate	Run4	generate/STIM_000.jpg	100
2715.512	1.781	1781.0	generate	Run4	generate/STIM_000.jpg	100
2720.099	1.68	1679.7	generate	Run4	generate/STIM_001.jpg	99
2725.189	1.495	1495.2	generate	Run4	generate/STIM_001.jpg	100
2729.623	2.217	2216.7	generate	Run4	generate/STIM_001.jpg	99
2734.289	1.874	1874.5	generate	Run4	generate/STIM_001.jpg	99
2738.984	2.335	2334.6	generate	Run4	generate/STIM_001.jpg	99
2745.086	1.53	1530.1	generate	Run4	generate/STIM_002.jpg	99
2748.807	1.05	1050.1	generate	Run4	generate/STIM_002.jpg	99
2752.359	1.9	1900.5	generate	Run4	generate/STIM_002.jpg	100
2757.778	2.078	2077.7	generate	Run4	generate/STIM_002.jpg	100
2763.214	1.059	1059.4	generate	Run4	generate/STIM_002.jpg	99
2767.506	1.745	1744.8	generate	Run4	generate/STIM_003.jpg	99
2772.788	1.5	1500.2	generate	Run4	generate/STIM_003.jpg	100
2777.603	2.001	2000.9	generate	Run4	generate/STIM_003.jpg	100
2782.76	1.853	1853.1	generate	Run4	generate/STIM_003.jpg	99
2787.528	1.633	1633.2	generate	Run4	generate/STIM_003.jpg	99
2791.741	2.029	2028.8	generate	Run4	generate/STIM_004.jpg	99
2795.948	2.341	2341.4	generate	Run4	generate/STIM_004.jpg	100
2800.393	1.419	1419.2	generate	Run4	generate/STIM_004.jpg	99
2804.639	1.168	1168.0	generate	Run4	generate/STIM_004.jpg	99
2809.633	2.345	2344.6	generate	Run4	generate/STIM_004.jpg	100
2813.995	1.867	1867.2	generate	Run4	generate/STIM_005.jpg	100
2819.108	1.288	1288.4	generate	Run4	generate/STIM_005.jpg	100
2823.852	1.775	1774.9	generate	Run4	generate/STIM_005.jpg	99
2829.046	1.9	1899.8	generate	Run4	generate/STIM_005.jpg	99
2834.273	1.754	1754.3	generate	Run4	generate/STIM_005.jpg	100
2839.716	1.592	1592.5	generate	Run4	generate/STIM_006.jpg	99
2845.151	0.989	989.0	generate	Run4	generate/STIM_006.jpg	100
2848.354	1.772	1771.5	generate	Run4	generate/STIM_006.jpg	99
2853.211	1.289	1288.9	generate	Run4	generate/STIM_006.jpg	99
2856.951	2.285	2285.3	generate	Run4	generate/STIM_006.jpg	100
2863.17	1.988	1988.0	generate	Run4	generate/STIM_007.jpg	100
2869.007	2.126	2125.6	generate	Run4	generate/STIM_007.jpg	99
2874.769	1.392	1392.3	generate	Run4	generate/STIM_007.jpg	100
2879.218	1.099	1098.7	generate	Run4	generate/STIM_007.jpg	100
2882.909	1.207	1206.9	generate	Run4	generate/STIM_007.jpg	99
2886.768	0.996	995.8	generate	Run4	generate/STIM_008.jpg	100
2890.064	1.077	1077.3	generate	Run4	generate/STIM_008.jpg	99
2893.366	2.38	2380.0	generate	Run4	generate/STIM_008.jpg	99
2898.179	1.906	1905.5	generate	Run4	generate/STIM_008.jpg	99
2902.14	2.218	2218.1	generate	Run4	generate/STIM_008.jpg	99
2907.138	2.292	2292.3	generate	Run4	generate/STIM_009.jpg	99
2912.131	1.276	1276.2	generate	Run4	generate/STIM_009.jpg	100
2915.987	1.598	1597.9	generate	Run4	generate/STIM_009.jpg	100
2919.679	1.568	1567.6	generate	Run4	generate/STIM_009.jpg	99
2923.948	1.264	1263.8	generate	Run4	generate/STIM_009.jpg	99
2928.933	2.115	2114.8	generate	Run4	generate/STIM_010.jpg	99
2933.434	2.325	2325.0	generate	Run4	generate/STIM_010.jpg	99
2939.644	2.179	2179.4	generate	Run4	generate/STIM_010.jpg	99
2944.87	1.042	1042.4	generate	Run4	generate/STIM_010.jpg	99
2948.962	0.984	984.1	generate	Run4	generate/STIM_010.jpg	100
2952.382	1.923	1922.7	generate	Run4	generate/STIM_011.jpg	100
2958.12	1.375	1374.7	generate	Run4	generate/STIM_011.jpg	99
2963.32	1.655	1654.6	generate	Run4	generate/STIM_011.jpg	100
2967.541	2.26	2260.1	generate	Run4	generate/STIM_011.jpg	100
2972.534	2.302	2302.2	generate	Run4	generate/STIM_011.jpg	99
2978.454	1.929	1929.0	generate	Run4	generate/STIM_012.jpg	99
2982.405	1.464	1463.7	generate	Run4	generate/STIM_012.jpg	100
2986.898	1.426	1425.8	generate	Run4	generate/STIM_012.jpg	99
2991.694	1.229	1229.4	generate	Run4	generate/STIM_012.jpg	100
2996.782	1.386	1385.5	generate	Run4	generate/STIM_012.jpg	99
3000.519	2.26	2259.5	generate	Run4	generate/STIM_013.jpg	100
3006.692	1.897	1896.8	generate	Run4	generate/STIM_013.jpg	99
3010.895	1.887	1886.7	generate	Run4	generate/STIM_013.jpg	100
3016.329	1.894	1893.7	generate	Run4	generate/STIM_013.jpg	100
3021.201	2.181	2180.7	generate	Run4	generate/STIM_013.jpg	99
3025.844	1.974	1973.6	generate	Run4	generate/STIM_014.jpg	100
3030.731	1.928	1927.9	generate	Run4	generate/STIM_014.jpg	100
3036.255	2.228	2227.6	generate	Run4	generate/STIM_014.jpg	99
3041.781	1.68	1679.5	generate	Run4	generate/STIM_014.jpg	100
3046.105	1.451	1451.3	generate	Run4	generate/STIM_014.jpg	99
3049.913	1.38	1380.5	generate	Run4	generate/STIM_015.jpg	99
3054.293	1.727	1726.9	generate	Run4	generate/STIM_015.jpg	100
3059.783	1.57	1570.5	generate	Run4	generate/STIM_015.jpg	100
3064.374	1.711	1711.4	generate	Run4	generate/STIM_015.jpg	100
3068.292	1.809	1809.2	generate	Run4	generate/STIM_015.jpg	100
3073.573	1.306	1305.9	generate	Run4	generate/STIM_016.jpg	99
3078.277	1.814	1813.8	generate	Run4	generate/STIM_016.jpg	99
3083.515	1.452	1452.3	generate	Run4	generate/STIM_016.jpg	100
3088.91	2.116	2115.6	generate	Run4	generate/STIM_016.jpg	100
3093.465	1.939	1939.0	generate	Run4	generate/STIM_016.jpg	100
3098.742	2.402	2402.5	generate	Run4	generate/STIM_017.jpg	99
3103.175	1.305	1304.8	generate	Run4	generate/STIM_017.jpg	100
3106.778	2.179	2179.2	generate	Run4	generate/STIM_017.jpg	100
3112.657	2.238	2237.8	generate	Run4	generate/STIM_017.jpg	99
3117.148	2.172	2172.4	generate	Run4	generate/STIM_017.jpg	99
3123.302	1.351	1351.0	generate	Run4	generate/STIM_018.jpg	100
3128.242	1.152	1151.8	generate	Run4	generate/STIM_018.jpg	100
3132.758	1.409	1408.9	generate	Run4	generate/STIM_018.jpg	99
3138.158	1.927	1927.3	generate	Run4	generate/STIM_018.jpg	99
3144.029	2.253	2253.0	generate	Run4	generate/STIM_018.jpg	99
3149.157	1.037	1036.6	generate	Run4	generate/STIM_019.jpg	99
3152.594	2.138	2138.4	generate	Run4	generate/STIM_019.jpg	100
3157.444	2.188	2188.3	generate	Run4	generate/STIM_019.jpg	100
3162.367	2.406	2405.5	generate	Run4	generate/STIM_019.jpg	99
3167.778	1.62	1619.6	generate	Run4	generate/STIM_019.jpg	100
3173.255	2.314	2313.6	generate	Run4	generate/STIM_020.jpg	99
3178.934	1.306	1305.5	generate	Run4	generate/STIM_020.jpg	99
3184.18	1.556	1556.0	generate	Run4	generate/STIM_020.jpg	100
3189.009	1.683	1683.4	generate	Run4	generate/STIM_020.jpg	100
3194.438	1.705	1704.6	generate	Run4	generate/STIM_020.jpg	100
3198.785	2.033	2033.3	generate	Run4	generate/STIM_021.jpg	99
3203.635	2.211	2211.0	generate	Run4	generate/STIM_021.jpg	99
3209.786	1.213	1212.7	generate	Run4	generate/STIM_021.jpg	100
3214.223	2.046	2046.2	generate	Run4	generate/STIM_021.jpg	99
3220.052	1.385	1384.6	generate	Run4	generate/STIM_021.jpg	99
3223.549	1.449	1449.2	generate	Run4	generate/STIM_022.jpg	100
3228.904	2.248	2248.1	generate	Run4	generate/STIM_022.jpg	100
3234.785	2.185	2184.9	generate	Run4	generate/STIM_022.jpg	100
3240.708	1.567	1566.7	generate	Run4	generate/STIM_022.jpg	100
3245.851	1.75	1750.0	generate	Run4	generate/STIM_022.jpg	99
3250.931	1.187	1186.9	generate	Run4	generate/STIM_023.jpg	100
3255.549	2.334	2333.9	generate	Run4	generate/STIM_023.jpg	99
3261.342	1.832	1832.2	generate	Run4	generate/STIM_023.jpg	100
3266.792	1.999	1998.8	generate	Run4	generate/STIM_023.jpg	99
3271.902	1.001	1000.6	generate	Run4	generate/STIM_023.jpg	99
3276.499	1.612	1611.6	generate	Run4	generate/STIM_024.jpg	100
3280.834	1.814	1814.4	generate	Run4	generate/STIM_024.jpg	100
3286.536	2.069	2069.0	generate	Run4	generate/STIM_024.jpg	99
3292.172	1.855	1855.0	generate	Run4	generate/STIM_024.jpg	99
3296.456	2.254	2253.7	generate	Run4	generate/STIM_024.jpg	99
3302.653	0.606	606.5	repeat	Run4	repeat/STIM_000.jpg	99
3306.915	0.72	720.5	repeat	Run4	repeat/STIM_000.jpg	100
3310.663	1.072	1072.0	repeat	Run4	repeat/STIM_000.jpg	100
3314.369	0.775	775.0	repeat	Run4	repeat/STIM_000.jpg	99
3318.968	0.89	890.4	repeat	Run4	repeat/STIM_000.jpg	99
3323.053	1.147	1146.9	repeat	Run4	repeat/STIM_001.jpg	100
3326.643	0.686	685.6	repeat	Run4	repeat/STIM_001.jpg	100
3330.114	0.708	708.2	repeat	Run4	repeat/STIM_001.jpg	99
3334.776	1.132	1131.9	repeat	Run4	repeat/STIM_001.jpg	99
3338.28	0.702	701.8	repeat	Run4	repeat/STIM_001.jpg	100
3341.678	0.66	659.6	repeat	Run4	repeat/STIM_002.jpg	100
3345.635	1.097	1097.0	repeat	Run4	repeat/STIM_002.jpg	100
3349.08	0.872	872.5	repeat	Run4	repeat/STIM_002.jpg	99
3352.419	0.826	825.7	repeat	Run4	repeat/STIM_002.jpg	100
3355.756	1.04	1039.7	repeat	Run4	repeat/STIM_002.jpg	100
3360.171	0.751	751.1	repeat	Run4	repeat/STIM_003.jpg	100
3363.25	0.902	902.1	repeat	Run4	repeat/STIM_003.jpg	99
3366.898	0.691	690.6	repeat	Run4	repeat/STIM_003.jpg	99
3370.388	0.806	806.3	repeat	Run4	repeat/STIM_003.jpg	100
3373.953	0.607	606.7	repeat	Run4	repeat/STIM_003.jpg	100
3376.563	0.614	614.4	repeat	Run4	repeat/STIM_004.jpg	99
3380.932	0.781	781.1	repeat	Run4	repeat/STIM_004.jpg	100
3384.659	1.113	1112.7	repeat	Run4	repeat/STIM_004.jpg	99
3388.749	0.854	853.5	repeat	Run4	repeat/STIM_004.jpg	99
3393.266	0.738	738.0	repeat	Run4	repeat/STIM_004.jpg	100
3396.027	0.907	907.2	repeat	Run4	repeat/STIM_005.jpg	99
3400.125	1.1	1099.5	repeat	Run4	repeat/STIM_005.jpg	99
3403.706	0.73	730.2	repeat	Run4	repeat/STIM_005.jpg	99
3407.727	0.752	751.7	repeat	Run4	repeat/STIM_005.jpg	100
3412.328	0.792	791.7	repeat	Run4	repeat/STIM_005.jpg	99
3416.882	1.054	1054.3	repeat	Run4	repeat/STIM_006.jpg	100
3421.334	0.912	912.4	repeat	Run4	repeat/STIM_006.jpg	100
3424.568	0.784	783.6	repeat	Run4	repeat/STIM_006.jpg	99
3427.408	0.678	678.2	repeat	Run4	repeat/STIM_006.jpg	99
3431.777	0.835	834.9	repeat	Run4	repeat/STIM_006.jpg	100
3435.154	0.771	771.2	repeat	Run4	repeat/STIM_007.jpg	99
3438.292	1.098	1097.6	repeat	Run4	repeat/STIM_007.jpg	100
3442.337	0.776	775.7	repeat	Run4	repeat/STIM_007.jpg	100
3446.227	0.602	601.7	repeat	Run4	repeat/STIM_007.jpg	100
3449.382	1.007	1006.7	repeat	Run4	repeat/STIM_007.jpg	99
3453.085	0.676	675.9	repeat	Run4	repeat/STIM_008.jpg	99
3455.825	1.014	1014.5	repeat	Run4	repeat/STIM_008.jpg	100
3459.361	0.863	863.3	repeat	Run4	repeat/STIM_008.jpg	100
3463.22	0.61	610.2	repeat	Run4	repeat/STIM_008.jpg	100
3466.598	1.096	1095.8	repeat	Run4	repeat/STIM_008.jpg	100
3471.275	0.608	607.8	repeat	Run4	repeat/STIM_009.jpg	99
3475.303	0.77	769.7	repeat	Run4	repeat/STIM_009.jpg	99
3479.546	0.957	957.1	repeat	Run4	repeat/STIM_009.jpg	99
3484.485	1.114	1114.4	repeat	Run4	repeat/STIM_009.jpg	100
3488.413	0.716	716.5	repeat	Run4	repeat/STIM_009.jpg	100
3491.319	1.093	1093.0	repeat	Run4	repeat/STIM_010.jpg	99
3495.331	1.091	1091.1	repeat	Run4	repeat/STIM_010.jpg	100
3498.723	0.912	912.2	repeat	Run4	repeat/STIM_010.jpg	100
3502.727	0.79	789.6	repeat	Run4	repeat/STIM_010.jpg	100
3505.687	1.136	1136.1	repeat	Run4	repeat/STIM_010.jpg	99
3509.132	0.692	692.3	repeat	Run4	repeat/STIM_011.jpg	100
3513.212	1.123	1122.7	repeat	Run4	repeat/STIM_011.jpg	100
3517.623	0.796	795.8	repeat	Run4	repeat/STIM_011.jpg	100
3520.971	0.602	602.4	repeat	Run4	repeat/STIM_011.jpg	100
3523.582	0.729	729.4	repeat	Run4	repeat/STIM_011.jpg	100
3527.684	0.72	719.9	repeat	Run4	repeat/STIM_012.jpg	99
3532.094	0.823	822.9	repeat	Run4	repeat/STIM_012.jpg	99
3536.38	1.147	1147.0	repeat	Run4	repeat/STIM_012.jpg	100
3539.76	0.639	638.6	repeat	Run4	repeat/STIM_012.jpg	100
3543.671	0.911	910.9	repeat	Run4	repeat/STIM_012.jpg	100
3547.778	0.645	645.2	repeat	Run4	repeat/STIM_013.jpg	99
3551.247	0.655	655.3	repeat	Run4	repeat/STIM_013.jpg	100
3554.684	0.776	776.3	repeat	Run4	repeat/STIM_013.jpg	100
3557.683	1.006	1006.1	repeat	Run4	repeat/STIM_013.jpg	99
3561.561	0.734	733.6	repeat	Run4	repeat/STIM_013.jpg	99
3565.068	1.076	1076.3	repeat	Run4	repeat/STIM_014.jpg	99
3569.454	0.829	829.1	repeat	Run4	repeat/STIM_014.jpg	100
3573.628	1.092	1092.1	repeat	Run4	repeat/STIM_014.jpg	99
3578.561	1.064	1064.4	repeat	Run4	repeat/STIM_014.jpg	99
3582.608	0.745	745.4	repeat	Run4	repeat/STIM_014.jpg	100
