onset	duration	accuracy	trial_type	learning_stage	stimulus
0.0	0.872	correct	2back	Block1	2back/STIM_000.jpg
4.301	0.77	correct	2back	Block1	2back/STIM_000.jpg
8.066	0.478	correct	2back	Block1	2back/STIM_000.jpg
12.273	0.602	correct	2back	Block1	2back/STIM_001.jpg
16.31	0.509	incorrect	2back	Block1	2back/STIM_001.jpg
20.351	0.375	incorrect	2back	Block1	2back/STIM_001.jpg
22.928	0.576	correct	2back	Block1	2back/STIM_002.jpg
27.486	0.4	incorrect	2back	Block1	2back/STIM_002.jpg
30.504	0.373	incorrect	2back	Block1	2back/STIM_002.jpg
33.172	0.636	correct	2back	Block1	2back/STIM_003.jpg
37.535	0.684	incorrect	2back	Block1	2back/STIM_003.jpg
41.858	0.63	correct	2back	Block1	2back/STIM_003.jpg
44.65	0.588	correct	2back	Block1	2back/STIM_004.jpg
48.802	0.784	correct	2back	Block1	2back/STIM_004.jpg
52.956	0.496	correct	2back	Block1	2back/STIM_004.jpg
55.561	0.867	correct	2back	Block1	2back/STIM_005.jpg
60.107	0.389	correct	2back	Block1	2back/STIM_005.jpg
64.291	0.512	incorrect	2back	Block1	2back/STIM_005.jpg
67.079	0.58	incorrect	2back	Block1	2back/STIM_006.jpg
70.602	0.578	correct	2back	Block1	2back/STIM_006.jpg
74.349	0.686	correct	2back	Block1	2back/STIM_006.jpg
78.077	0.407	correct	2back	Block1	2back/STIM_007.jpg
82.104	0.482	correct	2back	Block1	2back/STIM_007.jpg
85.554	0.552	correct	2back	Block1	2back/STIM_007.jpg
89.688	0.611	incorrect	2back	Block1	2back/STIM_008.jpg
93.292	0.632	correct	2back	Block1	2back/STIM_008.jpg
96.958	0.628	correct	2back	Block1	2back/STIM_008.jpg
100.489	0.483	incorrect	2back	Block1	2back/STIM_009.jpg
103.048	0.429	incorrect	2back	Block1	2back/STIM_009.jpg
105.608	0.659	correct	2back	Block1	2back/STIM_009.jpg
110.206	0.696	correct	2back	Block1	2back/STIM_010.jpg
112.933	0.842	correct	2back	Block1	2back/STIM_010.jpg
115.869	0.808	correct	2back	Block1	2back/STIM_010.jpg
118.772	0.919	incorrect	2back	Block1	2back/STIM_011.jpg
121.863	0.533	correct	2back	Block1	2back/STIM_011.jpg
125.087	0.488	correct	2back	Block1	2back/STIM_011.jpg
128.959	0.5	correct	2back	Block1	2back/STIM_012.jpg
132.652	0.7	correct	2back	Block1	2back/STIM_012.jpg
136.438	0.418	correct	2back	Block1	2back/STIM_012.jpg
139.063	0.78	correct	2back	Block1	2back/STIM_013.jpg
142.781	0.445	correct	2back	Block1	2back/STIM_013.jpg
145.89	0.738	correct	2back	Block1	2back/STIM_013.jpg
148.933	0.457	incorrect	2back	Block1	2back/STIM_014.jpg
151.926	0.444	incorrect	2back	Block1	2back/STIM_014.jpg
156.213	0.54	correct	2back	Block1	2back/STIM_014.jpg
160.147	0.521	incorrect	2back	Block1	2back/STIM_015.jpg
163.493	0.717	correct	2back	Block1	2back/STIM_015.jpg
166.242	0.434	correct	2back	Block1	2back/STIM_015.jpg
170.235	0.814	incorrect	2back	Block1	2back/STIM_016.jpg
173.822	0.827	correct	2back	Block1	2back/STIM_016.jpg
178.562	0.723	correct	2back	Block1	2back/STIM_016.jpg
182.279	0.724	correct	2back	Block1	2back/STIM_017.jpg
186.603	0.455	correct	2back	Block1	2back/STIM_017.jpg
190.083	0.525	correct	2back	Block1	2back/STIM_017.jpg
194.191	0.78	correct	2back	Block1	2back/STIM_018.jpg
197.881	0.417	incorrect	2back	Block1	2back/STIM_018.jpg
200.498	0.58	correct	2back	Block1	2back/STIM_018.jpg
203.275	0.712	correct	2back	Block1	2back/STIM_019.jpg
207.367	0.439	incorrect	2back	Block1	2back/STIM_019.jpg
211.054	0.69	correct	2back	Block1	2back/STIM_019.jpg
213.793	0.612	correct	2back	Block1	2back/STIM_020.jpg
216.883	0.602	correct	2back	Block1	2back/STIM_020.jpg
220.696	0.761	correct	2back	Block1	2back/STIM_020.jpg
223.604	0.742	correct	2back	Block1	2back/STIM_021.jpg
226.623	0.388	correct	2back	Block1	2back/STIM_021.jpg
229.699	0.435	correct	2back	Block1	2back/STIM_021.jpg
232.54	0.649	incorrect	2back	Block1	2back/STIM_022.jpg
236.357	0.532	correct	2back	Block1	2back/STIM_022.jpg
239.538	0.581	incorrect	2back	Block1	2back/STIM_022.jpg
243.043	0.866	correct	2back	Block1	2back/STIM_023.jpg
247.492	0.688	correct	2back	Block1	2back/STIM_023.jpg
251.009	0.811	correct	2back	Block1	2back/STIM_023.jpg
255.672	0.483	correct	2back	Block1	2back/STIM_024.jpg
259.979	0.507	incorrect	2back	Block1	2back/STIM_024.jpg
264.393	0.816	incorrect	2back	Block1	2back/STIM_024.jpg
268.165	0.446	correct	2back	Block1	2back/STIM_025.jpg
272.205	0.853	correct	2back	Block1	2back/STIM_025.jpg
275.498	0.757	correct	2back	Block1	2back/STIM_025.jpg
279.915	0.591	correct	2back	Block1	2back/STIM_026.jpg
282.552	0.855	incorrect	2back	Block1	2back/STIM_026.jpg
285.516	0.386	correct	2back	Block1	2back/STIM_026.jpg
288.685	0.546	incorrect	2back	Block1	2back/STIM_027.jpg
292.431	0.649	correct	2back	Block1	2back/STIM_027.jpg
295.183	0.572	incorrect	2back	Block1	2back/STIM_027.jpg
297.96	0.79	incorrect	2back	Block1	2back/STIM_028.jpg
300.77	0.791	correct	2back	Block1	2back/STIM_028.jpg
305.043	0.644	incorrect	2back	Block1	2back/STIM_028.jpg
309.096	0.436	correct	2back	Block1	2back/STIM_029.jpg
312.795	0.605	incorrect	2back	Block1	2back/STIM_029.jpg
316.554	0.672	correct	2back	Block1	2back/STIM_029.jpg
319.613	0.803	correct	2back	Block1	2back/STIM_030.jpg
322.574	0.626	correct	2back	Block1	2back/STIM_030.jpg
327.152	0.61	correct	2back	Block1	2back/STIM_030.jpg
331.292	0.44	correct	2back	Block1	2back/STIM_031.jpg
334.011	0.624	correct	2back	Block1	2back/STIM_031.jpg
338.092	0.458	correct	2back	Block1	2back/STIM_031.jpg
340.885	0.52	correct	2back	Block1	2back/STIM_032.jpg
343.967	0.592	correct	2back	Block1	2back/STIM_032.jpg
346.846	0.785	correct	2back	Block1	2back/STIM_032.jpg
351.063	0.676	correct	2back	Block1	2back/STIM_033.jpg
354.051	0.719	incorrect	2back	Block1	2back/STIM_033.jpg
357.208	0.628	correct	2back	Block1	2back/STIM_033.jpg
361.593	0.46	incorrect	2back	Block1	2back/STIM_034.jpg
365.527	0.533	incorrect	2back	Block1	2back/STIM_034.jpg
368.472	0.662	correct	2back	Block1	2back/STIM_034.jpg
372.372	0.825	correct	2back	Block1	2back/STIM_035.jpg
375.433	0.866	correct	2back	Block1	2back/STIM_035.jpg
379.64	0.574	correct	2back	Block1	2back/STIM_035.jpg
383.189	0.528	correct	2back	Block1	2back/STIM_036.jpg
387.387	0.829	correct	2back	Block1	2back/STIM_036.jpg
391.257	0.824	correct	2back	Block1	2back/STIM_036.jpg
396.017	0.589	correct	2back	Block1	2back/STIM_037.jpg
400.367	0.567	correct	2back	Block1	2back/STIM_037.jpg
404.829	0.815	incorrect	2back	Block1	2back/STIM_037.jpg
409.291	0.804	correct	2back	Block1	2back/STIM_038.jpg
412.843	0.779	correct	2back	Block1	2back/STIM_038.jpg
416.281	0.539	correct	2back	Block1	2back/STIM_038.jpg
420.208	0.712	correct	2back	Block1	2back/STIM_039.jpg
423.685	0.836	correct	2back	Block1	2back/STIM_039.jpg
427.462	0.377	incorrect	2back	Block1	2back/STIM_039.jpg
431.203	0.334	correct	0back	Block1	0back/STIM_000.jpg
434.582	0.301	correct	0back	Block1	0back/STIM_000.jpg
437.605	0.458	correct	0back	Block1	0back/STIM_000.jpg
440.301	0.374	correct	0back	Block1	0back/STIM_001.jpg
444.299	0.34	correct	0back	Block1	0back/STIM_001.jpg
446.946	0.296	correct	0back	Block1	0back/STIM_001.jpg
451.105	0.443	correct	0back	Block1	0back/STIM_002.jpg
454.353	0.356	correct	0back	Block1	0back/STIM_002.jpg
458.129	0.385	incorrect	0back	Block1	0back/STIM_002.jpg
462.349	0.509	correct	0back	Block1	0back/STIM_003.jpg
466.12	0.292	correct	0back	Block1	0back/STIM_003.jpg
468.588	0.405	correct	0back	Block1	0back/STIM_003.jpg
472.459	0.307	correct	0back	Block1	0back/STIM_004.jpg
475.561	0.319	correct	0back	Block1	0back/STIM_004.jpg
478.866	0.314	correct	0back	Block1	0back/STIM_004.jpg
483.049	0.354	correct	0back	Block1	0back/STIM_005.jpg
486.172	0.404	correct	0back	Block1	0back/STIM_005.jpg
489.221	0.396	correct	0back	Block1	0back/STIM_005.jpg
493.118	0.366	correct	0back	Block1	0back/STIM_006.jpg
496.462	0.464	correct	0back	Block1	0back/STIM_006.jpg
500.466	0.448	correct	0back	Block1	0back/STIM_006.jpg
503.418	0.299	correct	0back	Block1	0back/STIM_007.jpg
506.629	0.463	correct	0back	Block1	0back/STIM_007.jpg
509.66	0.289	correct	0back	Block1	0back/STIM_007.jpg
513.406	0.361	incorrect	0back	Block1	0back/STIM_008.jpg
517.26	0.285	correct	0back	Block1	0back/STIM_008.jpg
519.557	0.521	correct	0back	Block1	0back/STIM_008.jpg
522.81	0.489	correct	0back	Block1	0back/STIM_009.jpg
525.905	0.512	incorrect	0back	Block1	0back/STIM_009.jpg
530.185	0.293	correct	0back	Block1	0back/STIM_009.jpg
534.283	0.302	correct	0back	Block1	0back/STIM_010.jpg
537.502	0.284	correct	0back	Block1	0back/STIM_010.jpg
540.933	0.366	correct	0back	Block1	0back/STIM_010.jpg
543.318	0.359	correct	0back	Block1	0back/STIM_011.jpg
546.711	0.475	correct	0back	Block1	0back/STIM_011.jpg
550.091	0.486	correct	0back	Block1	0back/STIM_011.jpg
553.195	0.503	correct	0back	Block1	0back/STIM_012.jpg
556.643	0.499	correct	0back	Block1	0back/STIM_012.jpg
560.733	0.267	correct	0back	Block1	0back/STIM_012.jpg
563.902	0.38	correct	0back	Block1	0back/STIM_013.jpg
568.077	0.434	correct	0back	Block1	0back/STIM_013.jpg
571.769	0.267	incorrect	0back	Block1	0back/STIM_013.jpg
574.305	0.273	correct	0back	Block1	0back/STIM_014.jpg
577.207	0.312	correct	0back	Block1	0back/STIM_014.jpg
580.518	0.276	incorrect	0back	Block1	0back/STIM_014.jpg
584.532	0.293	correct	0back	Block1	0back/STIM_015.jpg
587.748	0.436	correct	0back	Block1	0back/STIM_015.jpg
591.839	0.27	correct	0back	Block1	0back/STIM_015.jpg
595.882	0.417	correct	0back	Block1	0back/STIM_016.jpg
599.759	0.437	correct	0back	Block1	0back/STIM_016.jpg
604.027	0.286	correct	0back	Block1	0back/STIM_016.jpg
606.532	0.427	correct	0back	Block1	0back/STIM_017.jpg
610.007	0.371	correct	0back	Block1	0back/STIM_017.jpg
613.699	0.309	correct	0back	Block1	0back/STIM_017.jpg
616.282	0.296	correct	0back	Block1	0back/STIM_018.jpg
619.437	0.273	correct	0back	Block1	0back/STIM_018.jpg
622.533	0.496	correct	0back	Block1	0back/STIM_018.jpg
626.798	0.398	correct	0back	Block1	0back/STIM_019.jpg
630.306	0.519	correct	0back	Block1	0back/STIM_019.jpg
632.839	0.428	correct	0back	Block1	0back/STIM_019.jpg
636.501	0.598	correct	2back	Block2	2back/STIM_000.jpg
639.899	0.49	incorrect	2back	Block2	2back/STIM_000.jpg
644.096	0.497	correct	2back	Block2	2back/STIM_000.jpg
647.398	0.465	correct	2back	Block2	2back/STIM_001.jpg
651.078	0.576	correct	2back	Block2	2back/STIM_001.jpg
654.102	0.661	correct	2back	Block2	2back/STIM_001.jpg
657.027	0.393	correct	2back	Block2	2back/STIM_002.jpg
659.86	0.717	correct	2back	Block2	2back/STIM_002.jpg
663.052	0.631	correct	2back	Block2	2back/STIM_002.jpg
666.279	0.582	correct	2back	Block2	2back/STIM_003.jpg
670.841	0.397	correct	2back	Block2	2back/STIM_003.jpg
674.432	0.626	correct	2back	Block2	2back/STIM_003.jpg
677.23	0.448	correct	2back	Block2	2back/STIM_004.jpg
680.756	0.511	correct	2back	Block2	2back/STIM_004.jpg
684.628	0.441	correct	2back	Block2	2back/STIM_004.jpg
687.255	0.642	correct	2back	Block2	2back/STIM_005.jpg
691.567	0.323	correct	2back	Block2	2back/STIM_005.jpg
695.763	0.404	correct	2back	Block2	2back/STIM_005.jpg
698.973	0.609	correct	2back	Block2	2back/STIM_006.jpg
703.526	0.584	correct	2back	Block2	2back/STIM_006.jpg
706.574	0.64	correct	2back	Block2	2back/STIM_006.jpg
709.961	0.343	incorrect	2back	Block2	2back/STIM_007.jpg
712.959	0.507	correct	2back	Block2	2back/STIM_007.jpg
717.027	0.372	correct	2back	Block2	2back/STIM_007.jpg
719.738	0.53	correct	2back	Block2	2back/STIM_008.jpg
722.337	0.38	incorrect	2back	Block2	2back/STIM_008.jpg
725.388	0.548	correct	2back	Block2	2back/STIM_008.jpg
728.546	0.67	incorrect	2back	Block2	2back/STIM_009.jpg
731.963	0.52	correct	2back	Block2	2back/STIM_009.jpg
736.338	0.648	correct	2back	Block2	2back/STIM_009.jpg
740.682	0.708	correct	2back	Block2	2back/STIM_010.jpg
744.221	0.416	correct	2back	Block2	2back/STIM_010.jpg
747.035	0.576	correct	2back	Block2	2back/STIM_010.jpg
749.824	0.439	correct	2back	Block2	2back/STIM_011.jpg
752.78	0.596	correct	2back	Block2	2back/STIM_011.jpg
756.052	0.559	incorrect	2back	Block2	2back/STIM_011.jpg
759.533	0.341	incorrect	2back	Block2	2back/STIM_012.jpg
762.294	0.476	correct	2back	Block2	2back/STIM_012.jpg
766.073	0.685	correct	2back	Block2	2back/STIM_012.jpg
770.307	0.433	incorrect	2back	Block2	2back/STIM_013.jpg
774.731	0.639	incorrect	2back	Block2	2back/STIM_013.jpg
778.135	0.38	correct	2back	Block2	2back/STIM_013.jpg
781.234	0.407	correct	2back	Block2	2back/STIM_014.jpg
784.951	0.585	correct	2back	Block2	2back/STIM_014.jpg
787.817	0.669	correct	2back	Block2	2back/STIM_014.jpg
791.161	0.515	correct	2back	Block2	2back/STIM_015.jpg
795.357	0.544	correct	2back	Block2	2back/STIM_015.jpg
799.202	0.583	correct	2back	Block2	2back/STIM_015.jpg
801.807	0.388	correct	2back	Block2	2back/STIM_016.jpg
804.901	0.531	correct	2back	Block2	2back/STIM_016.jpg
807.756	0.499	correct	2back	Block2	2back/STIM_016.jpg
811.303	0.413	correct	2back	Block2	2back/STIM_017.jpg
813.769	0.354	correct	2back	Block2	2back/STIM_017.jpg
816.342	0.592	correct	2back	Block2	2back/STIM_017.jpg
820.392	0.681	correct	2back	Block2	2back/STIM_018.jpg
824.981	0.514	correct	2back	Block2	2back/STIM_018.jpg
828.311	0.469	incorrect	2back	Block2	2back/STIM_018.jpg
831.971	0.728	correct	2back	Block2	2back/STIM_019.jpg
835.679	0.712	correct	2back	Block2	2back/STIM_019.jpg
838.439	0.696	correct	2back	Block2	2back/STIM_019.jpg
841.334	0.662	correct	2back	Block2	2back/STIM_020.jpg
844.55	0.622	correct	2back	Block2	2back/STIM_020.jpg
847.709	0.419	correct	2back	Block2	2back/STIM_020.jpg
851.727	0.566	correct	2back	Block2	2back/STIM_021.jpg
855.864	0.519	correct	2back	Block2	2back/STIM_021.jpg
859.151	0.414	correct	2back	Block2	2back/STIM_021.jpg
862.228	0.763	correct	2back	Block2	2back/STIM_022.jpg
866.449	0.464	incorrect	2back	Block2	2back/STIM_022.jpg
870.269	0.678	correct	2back	Block2	2back/STIM_022.jpg
874.341	0.726	correct	2back	Block2	2back/STIM_023.jpg
878.964	0.489	correct	2back	Block2	2back/STIM_023.jpg
882.354	0.423	correct	2back	Block2	2back/STIM_023.jpg
886.753	0.67	correct	2back	Block2	2back/STIM_024.jpg
889.755	0.532	correct	2back	Block2	2back/STIM_024.jpg
894.278	0.461	correct	2back	Block2	2back/STIM_024.jpg
898.193	0.371	incorrect	2back	Block2	2back/STIM_025.jpg
902.421	0.328	incorrect	2back	Block2	2back/STIM_025.jpg
905.443	0.657	correct	2back	Block2	2back/STIM_025.jpg
909.802	0.447	incorrect	2back	Block2	2back/STIM_026.jpg
913.437	0.6	correct	2back	Block2	2back/STIM_026.jpg
917.989	0.474	correct	2back	Block2	2back/STIM_026.jpg
921.375	0.734	correct	2back	Block2	2back/STIM_027.jpg
925.191	0.734	correct	2back	Block2	2back/STIM_027.jpg
928.633	0.436	incorrect	2back	Block2	2back/STIM_027.jpg
932.366	0.65	incorrect	2back	Block2	2back/STIM_028.jpg
935.238	0.535	correct	2back	Block2	2back/STIM_028.jpg
938.791	0.632	correct	2back	Block2	2back/STIM_028.jpg
941.908	0.556	correct	2back	Block2	2back/STIM_029.jpg
945.52	0.658	incorrect	2back	Block2	2back/STIM_029.jpg
948.565	0.449	correct	2back	Block2	2back/STIM_029.jpg
952.468	0.67	correct	2back	Block2	2back/STIM_030.jpg
957.025	0.336	correct	2back	Block2	2back/STIM_030.jpg
959.368	0.321	correct	2back	Block2	2back/STIM_030.jpg
963.584	0.552	correct	2back	Block2	2back/STIM_031.jpg
967.753	0.446	correct	2back	Block2	2back/STIM_031.jpg
970.7	0.451	correct	2back	Block2	2back/STIM_031.jpg
973.988	0.373	correct	2back	Block2	2back/STIM_032.jpg
977.85	0.483	correct	2back	Block2	2back/STIM_032.jpg
980.978	0.665	correct	2back	Block2	2back/STIM_032.jpg
983.872	0.521	correct	2back	Block2	2back/STIM_033.jpg
988.122	0.651	correct	2back	Block2	2back/STIM_033.jpg
992.527	0.394	correct	2back	Block2	2back/STIM_033.jpg
996.254	0.62	correct	2back	Block2	2back/STIM_034.jpg
999.244	0.383	correct	2back	Block2	2back/STIM_034.jpg
1002.083	0.496	correct	2back	Block2	2back/STIM_034.jpg
1006.564	0.531	correct	2back	Block2	2back/STIM_035.jpg
1009.354	0.629	correct	2back	Block2	2back/STIM_035.jpg
1013.309	0.661	correct	2back	Block2	2back/STIM_035.jpg
1017.487	0.586	correct	2back	Block2	2back/STIM_036.jpg
1021.879	0.428	correct	2back	Block2	2back/STIM_036.jpg
1025.117	0.678	correct	2back	Block2	2back/STIM_036.jpg
1028.057	0.718	correct	2back	Block2	2back/STIM_037.jpg
1030.995	0.531	correct	2back	Block2	2back/STIM_037.jpg
1035.511	0.376	correct	2back	Block2	2back/STIM_037.jpg
1039.452	0.361	correct	2back	Block2	2back/STIM_038.jpg
1042.412	0.426	incorrect	2back	Block2	2back/STIM_038.jpg
1046.25	0.491	correct	2back	Block2	2back/STIM_038.jpg
1049.114	0.554	correct	2back	Block2	2back/STIM_039.jpg
1051.681	0.448	correct	2back	Block2	2back/STIM_039.jpg
1055.688	0.438	correct	2back	Block2	2back/STIM_039.jpg
1059.532	0.472	correct	0back	Block2	0back/STIM_000.jpg
1062.549	0.408	correct	0back	Block2	0back/STIM_000.jpg
1066.68	0.501	correct	0back	Block2	0back/STIM_000.jpg
1070.101	0.443	correct	0back	Block2	0back/STIM_001.jpg
1074.147	0.266	correct	0back	Block2	0back/STIM_001.jpg
1078.318	0.477	correct	0back	Block2	0back/STIM_001.jpg
1080.989	0.338	incorrect	0back	Block2	0back/STIM_002.jpg
1084.105	0.45	correct	0back	Block2	0back/STIM_002.jpg
1088.197	0.525	correct	0back	Block2	0back/STIM_002.jpg
1091.333	0.512	correct	0back	Block2	0back/STIM_003.jpg
1095.249	0.297	correct	0back	Block2	0back/STIM_003.jpg
1098.489	0.419	correct	0back	Block2	0back/STIM_003.jpg
1101.409	0.465	correct	0back	Block2	0back/STIM_004.jpg
1104.083	0.515	correct	0back	Block2	0back/STIM_004.jpg
1108.51	0.51	correct	0back	Block2	0back/STIM_004.jpg
1112.489	0.529	correct	0back	Block2	0back/STIM_005.jpg
1115.658	0.381	correct	0back	Block2	0back/STIM_005.jpg
1119.062	0.392	correct	0back	Block2	0back/STIM_005.jpg
1121.683	0.523	incorrect	0back	Block2	0back/STIM_006.jpg
1125.813	0.528	correct	0back	Block2	0back/STIM_006.jpg
1129.847	0.46	correct	0back	Block2	0back/STIM_006.jpg
1133.709	0.341	correct	0back	Block2	0back/STIM_007.jpg
1136.708	0.278	correct	0back	Block2	0back/STIM_007.jpg
1139.171	0.523	correct	0back	Block2	0back/STIM_007.jpg
1143.542	0.496	correct	0back	Block2	0back/STIM_008.jpg
1146.09	0.378	correct	0back	Block2	0back/STIM_008.jpg
1148.779	0.474	correct	0back	Block2	0back/STIM_008.jpg
1151.946	0.509	correct	0back	Block2	0back/STIM_009.jpg
1154.599	0.403	correct	0back	Block2	0back/STIM_009.jpg
1158.309	0.317	correct	0back	Block2	0back/STIM_009.jpg
1161.911	0.342	correct	0back	Block2	0back/STIM_010.jpg
1164.832	0.305	correct	0back	Block2	0back/STIM_010.jpg
1168.37	0.334	incorrect	0back	Block2	0back/STIM_010.jpg
1171.498	0.49	correct	0back	Block2	0back/STIM_011.jpg
1174.139	0.461	correct	0back	Block2	0back/STIM_011.jpg
1177.211	0.429	correct	0back	Block2	0back/STIM_011.jpg
1180.257	0.375	correct	0back	Block2	0back/STIM_012.jpg
1183.084	0.392	correct	0back	Block2	0back/STIM_012.jpg
1186.537	0.404	correct	0back	Block2	0back/STIM_012.jpg
1190.768	0.449	correct	0back	Block2	0back/STIM_013.jpg
1193.343	0.356	correct	0back	Block2	0back/STIM_013.jpg
1197.653	0.515	correct	0back	Block2	0back/STIM_013.jpg
1201.652	0.452	correct	0back	Block2	0back/STIM_014.jpg
1205.896	0.355	correct	0back	Block2	0back/STIM_014.jpg
1210.071	0.426	correct	0back	Block2	0back/STIM_014.jpg
1212.687	0.521	correct	0back	Block2	0back/STIM_015.jpg
1215.442	0.329	incorrect	0back	Block2	0back/STIM_015.jpg
1218.136	0.35	correct	0back	Block2	0back/STIM_015.jpg
1222.205	0.346	correct	0back	Block2	0back/STIM_016.jpg
1225.497	0.333	correct	0back	Block2	0back/STIM_016.jpg
1228.367	0.319	correct	0back	Block2	0back/STIM_016.jpg
1230.78	0.48	correct	0back	Block2	0back/STIM_017.jpg
1234.702	0.525	correct	0back	Block2	0back/STIM_017.jpg
1237.497	0.363	correct	0back	Block2	0back/STIM_017.jpg
1241.223	0.336	correct	0back	Block2	0back/STIM_018.jpg
1245.255	0.326	correct	0back	Block2	0back/STIM_018.jpg
1247.612	0.525	correct	0back	Block2	0back/STIM_018.jpg
1251.181	0.36	correct	0back	Block2	0back/STIM_019.jpg
1254.384	0.504	correct	0back	Block2	0back/STIM_019.jpg
1257.548	0.351	correct	0back	Block2	0back/STIM_019.jpg
1260.583	0.426	correct	2back	Block3	2back/STIM_000.jpg
1264.129	0.427	correct	2back	Block3	2back/STIM_000.jpg
1266.829	0.339	correct	2back	Block3	2back/STIM_000.jpg
1269.837	0.39	correct	2back	Block3	2back/STIM_001.jpg
1273.593	0.562	correct	2back	Block3	2back/STIM_001.jpg
1276.462	0.287	correct	2back	Block3	2back/STIM_001.jpg
1280.061	0.398	correct	2back	Block3	2back/STIM_002.jpg
1283.142	0.402	correct	2back	Block3	2back/STIM_002.jpg
1287.516	0.341	correct	2back	Block3	2back/STIM_002.jpg
1290.888	0.488	correct	2back	Block3	2back/STIM_003.jpg
1294.055	0.539	correct	2back	Block3	2back/STIM_003.jpg
1297.206	0.29	correct	2back	Block3	2back/STIM_003.jpg
1299.646	0.648	correct	2back	Block3	2back/STIM_004.jpg
1302.769	0.383	correct	2back	Block3	2back/STIM_004.jpg
1305.723	0.545	correct	2back	Block3	2back/STIM_004.jpg
1309.949	0.361	correct	2back	Block3	2back/STIM_005.jpg
1314.156	0.603	correct	2back	Block3	2back/STIM_005.jpg
1317.49	0.441	correct	2back	Block3	2back/STIM_005.jpg
1321.278	0.587	correct	2back	Block3	2back/STIM_006.jpg
1324.858	0.645	correct	2back	Block3	2back/STIM_006.jpg
1328.348	0.391	correct	2back	Block3	2back/STIM_006.jpg
1331.019	0.296	correct	2back	Block3	2back/STIM_007.jpg
1333.712	0.328	correct	2back	Block3	2back/STIM_007.jpg
1337.836	0.32	correct	2back	Block3	2back/STIM_007.jpg
1340.956	0.606	correct	2back	Block3	2back/STIM_008.jpg
1345.504	0.32	correct	2back	Block3	2back/STIM_008.jpg
1349.316	0.298	correct	2back	Block3	2back/STIM_008.jpg
1353.021	0.334	correct	2back	Block3	2back/STIM_009.jpg
1357.138	0.571	correct	2back	Block3	2back/STIM_009.jpg
1361.303	0.561	correct	2back	Block3	2back/STIM_009.jpg
1364.412	0.487	correct	2back	Block3	2back/STIM_010.jpg
1367.346	0.511	correct	2back	Block3	2back/STIM_010.jpg
1370.252	0.463	correct	2back	Block3	2back/STIM_010.jpg
1372.949	0.305	correct	2back	Block3	2back/STIM_011.jpg
1375.715	0.472	correct	2back	Block3	2back/STIM_011.jpg
1378.483	0.327	correct	2back	Block3	2back/STIM_011.jpg
1382.364	0.36	correct	2back	Block3	2back/STIM_012.jpg
1386.127	0.285	correct	2back	Block3	2back/STIM_012.jpg
1389.467	0.618	correct	2back	Block3	2back/STIM_012.jpg
1393.623	0.588	correct	2back	Block3	2back/STIM_013.jpg
1397.701	0.589	correct	2back	Block3	2back/STIM_013.jpg
1401.305	0.559	correct	2back	Block3	2back/STIM_013.jpg
1405.61	0.439	correct	2back	Block3	2back/STIM_014.jpg
1409.747	0.64	correct	2back	Block3	2back/STIM_014.jpg
1413.378	0.413	correct	2back	Block3	2back/STIM_014.jpg
1416.171	0.286	correct	2back	Block3	2back/STIM_015.jpg
1419.108	0.613	correct	2back	Block3	2back/STIM_015.jpg
1423.549	0.506	correct	2back	Block3	2back/STIM_015.jpg
1427.114	0.54	correct	2back	Block3	2back/STIM_016.jpg
1430.763	0.393	correct	2back	Block3	2back/STIM_016.jpg
1435.041	0.576	correct	2back	Block3	2back/STIM_016.jpg
1438.561	0.628	incorrect	2back	Block3	2back/STIM_017.jpg
1441.573	0.538	correct	2back	Block3	2back/STIM_017.jpg
1444.815	0.38	correct	2back	Block3	2back/STIM_017.jpg
1448.953	0.432	correct	2back	Block3	2back/STIM_018.jpg
1451.983	0.595	correct	2back	Block3	2back/STIM_018.jpg
1456.542	0.455	incorrect	2back	Block3	2back/STIM_018.jpg
1460.177	0.566	correct	2back	Block3	2back/STIM_019.jpg
1464.613	0.556	correct	2back	Block3	2back/STIM_019.jpg
1467.853	0.461	correct	2back	Block3	2back/STIM_019.jpg
1472.017	0.403	correct	2back	Block3	2back/STIM_020.jpg
1476.161	0.444	correct	2back	Block3	2back/STIM_020.jpg
1479.211	0.567	correct	2back	Block3	2back/STIM_020.jpg
1483.241	0.54	correct	2back	Block3	2back/STIM_021.jpg
1487.208	0.473	correct	2back	Block3	2back/STIM_021.jpg
1489.828	0.477	incorrect	2back	Block3	2back/STIM_021.jpg
1492.963	0.522	correct	2back	Block3	2back/STIM_022.jpg
1496.964	0.296	correct	2back	Block3	2back/STIM_022.jpg
1499.499	0.396	correct	2back	Block3	2back/STIM_022.jpg
1502.909	0.58	correct	2back	Block3	2back/STIM_023.jpg
1507.181	0.358	correct	2back	Block3	2back/STIM_023.jpg
1509.622	0.432	correct	2back	Block3	2back/STIM_023.jpg
1512.361	0.405	correct	2back	Block3	2back/STIM_024.jpg
1514.956	0.365	incorrect	2back	Block3	2back/STIM_024.jpg
1517.85	0.507	correct	2back	Block3	2back/STIM_024.jpg
1521.433	0.326	correct	2back	Block3	2back/STIM_025.jpg
1524.521	0.416	correct	2back	Block3	2back/STIM_025.jpg
1528.644	0.42	correct	2back	Block3	2back/STIM_025.jpg
1531.293	0.532	correct	2back	Block3	2back/STIM_026.jpg
1535.369	0.472	correct	2back	Block3	2back/STIM_026.jpg
1539.179	0.379	correct	2back	Block3	2back/STIM_026.jpg
1542.302	0.403	incorrect	2back	Block3	2back/STIM_027.jpg
1545.386	0.416	correct	2back	Block3	2back/STIM_027.jpg
1548.259	0.383	correct	2back	Block3	2back/STIM_027.jpg
1552.019	0.566	correct	2back	Block3	2back/STIM_028.jpg
1555.665	0.476	correct	2back	Block3	2back/STIM_028.jpg
1559.059	0.281	correct	2back	Block3	2back/STIM_028.jpg
1562.535	0.605	correct	2back	Block3	2back/STIM_029.jpg
1566.519	0.338	correct	2back	Block3	2back/STIM_029.jpg
1570.628	0.358	correct	2back	Block3	2back/STIM_029.jpg
1573.754	0.372	correct	2back	Block3	2back/STIM_030.jpg
1577.252	0.563	correct	2back	Block3	2back/STIM_030.jpg
1580.924	0.439	correct	2back	Block3	2back/STIM_030.jpg
1583.48	0.604	correct	2back	Block3	2back/STIM_031.jpg
1587.934	0.443	correct	2back	Block3	2back/STIM_031.jpg
1592.311	0.28	correct	2back	Block3	2back/STIM_031.jpg
1595.948	0.313	correct	2back	Block3	2back/STIM_032.jpg
1599.428	0.549	correct	2back	Block3	2back/STIM_032.jpg
1602.0	0.351	correct	2back	Block3	2back/STIM_032.jpg
1605.494	0.406	incorrect	2back	Block3	2back/STIM_033.jpg
1609.212	0.564	correct	2back	Block3	2back/STIM_033.jpg
1612.305	0.558	correct	2back	Block3	2back/STIM_033.jpg
1615.343	0.438	correct	2back	Block3	2back/STIM_034.jpg
1619.731	0.447	correct	2back	Block3	2back/STIM_034.jpg
1622.381	0.649	correct	2back	Block3	2back/STIM_034.jpg
1626.512	0.28	correct	2back	Block3	2back/STIM_035.jpg
1630.402	0.437	correct	2back	Block3	2back/STIM_035.jpg
1633.969	0.423	correct	2back	Block3	2back/STIM_035.jpg
1636.967	0.324	correct	2back	Block3	2back/STIM_036.jpg
1640.623	0.612	correct	2back	Block3	2back/STIM_036.jpg
1644.21	0.628	correct	2back	Block3	2back/STIM_036.jpg
1647.108	0.448	correct	2back	Block3	2back/STIM_037.jpg
1649.777	0.514	correct	2back	Block3	2back/STIM_037.jpg
1653.918	0.494	correct	2back	Block3	2back/STIM_037.jpg
1657.074	0.283	correct	2back	Block3	2back/STIM_038.jpg
1661.262	0.285	correct	2back	Block3	2back/STIM_038.jpg
1663.973	0.473	correct	2back	Block3	2back/STIM_038.jpg
1667.229	0.398	correct	2back	Block3	2back/STIM_039.jpg
1670.162	0.483	incorrect	2back	Block3	2back/STIM_039.jpg
1673.807	0.378	correct	2back	Block3	2back/STIM_039.jpg
1677.301	0.33	correct	0back	Block3	0back/STIM_000.jpg
1679.903	0.491	correct	0back	Block3	0back/STIM_000.jpg
1682.986	0.467	correct	0back	Block3	0back/STIM_000.jpg
1686.508	0.318	correct	0back	Block3	0back/STIM_001.jpg
1690.777	0.315	correct	0back	Block3	0back/STIM_001.jpg
1693.841	0.454	correct	0back	Block3	0back/STIM_001.jpg
1696.552	0.363	correct	0back	Block3	0back/STIM_002.jpg
1700.641	0.289	correct	0back	Block3	0back/STIM_002.jpg
1703.539	0.507	correct	0back	Block3	0back/STIM_002.jpg
1706.662	0.46	correct	0back	Block3	0back/STIM_003.jpg
1710.965	0.465	correct	0back	Block3	0back/STIM_003.jpg
1714.177	0.292	correct	0back	Block3	0back/STIM_003.jpg
1718.377	0.508	correct	0back	Block3	0back/STIM_004.jpg
1721.303	0.424	correct	0back	Block3	0back/STIM_004.jpg
1725.424	0.473	incorrect	0back	Block3	0back/STIM_004.jpg
1728.759	0.401	correct	0back	Block3	0back/STIM_005.jpg
1732.625	0.447	incorrect	0back	Block3	0back/STIM_005.jpg
1736.424	0.346	correct	0back	Block3	0back/STIM_005.jpg
1739.466	0.4	correct	0back	Block3	0back/STIM_006.jpg
1742.532	0.5	correct	0back	Block3	0back/STIM_006.jpg
1745.49	0.476	correct	0back	Block3	0back/STIM_006.jpg
1749.24	0.288	correct	0back	Block3	0back/STIM_007.jpg
1752.384	0.392	correct	0back	Block3	0back/STIM_007.jpg
1755.378	0.423	correct	0back	Block3	0back/STIM_007.jpg
1758.003	0.471	correct	0back	Block3	0back/STIM_008.jpg
1760.57	0.47	correct	0back	Block3	0back/STIM_008.jpg
1763.243	0.334	correct	0back	Block3	0back/STIM_008.jpg
1766.761	0.352	correct	0back	Block3	0back/STIM_009.jpg
1769.128	0.331	correct	0back	Block3	0back/STIM_009.jpg
1773.011	0.447	correct	0back	Block3	0back/STIM_009.jpg
1775.746	0.518	correct	0back	Block3	0back/STIM_010.jpg
1779.673	0.5	correct	0back	Block3	0back/STIM_010.jpg
1782.505	0.41	correct	0back	Block3	0back/STIM_010.jpg
1784.993	0.472	correct	0back	Block3	0back/STIM_011.jpg
1788.39	0.482	correct	0back	Block3	0back/STIM_011.jpg
1791.381	0.357	incorrect	0back	Block3	0back/STIM_011.jpg
1794.504	0.484	correct	0back	Block3	0back/STIM_012.jpg
1797.643	0.285	correct	0back	Block3	0back/STIM_012.jpg
1800.912	0.453	correct	0back	Block3	0back/STIM_012.jpg
1803.484	0.393	correct	0back	Block3	0back/STIM_013.jpg
1805.884	0.344	correct	0back	Block3	0back/STIM_013.jpg
1808.592	0.421	correct	0back	Block3	0back/STIM_013.jpg
1812.217	0.442	correct	0back	Block3	0back/STIM_014.jpg
1816.547	0.447	correct	0back	Block3	0back/STIM_014.jpg
1819.322	0.275	correct	0back	Block3	0back/STIM_014.jpg
1822.037	0.458	incorrect	0back	Block3	0back/STIM_015.jpg
1825.613	0.492	correct	0back	Block3	0back/STIM_015.jpg
1828.89	0.368	correct	0back	Block3	0back/STIM_015.jpg
1831.412	0.481	correct	0back	Block3	0back/STIM_016.jpg
1834.123	0.362	correct	0back	Block3	0back/STIM_016.jpg
1836.749	0.433	correct	0back	Block3	0back/STIM_016.jpg
1840.382	0.295	correct	0back	Block3	0back/STIM_017.jpg
1843.953	0.48	correct	0back	Block3	0back/STIM_017.jpg
1847.055	0.421	correct	0back	Block3	0back/STIM_017.jpg
1851.162	0.451	correct	0back	Block3	0back/STIM_018.jpg
1854.463	0.314	correct	0back	Block3	0back/STIM_018.jpg
1857.997	0.326	correct	0back	Block3	0back/STIM_018.jpg
1861.146	0.279	correct	0back	Block3	0back/STIM_019.jpg
1864.89	0.502	correct	0back	Block3	0back/STIM_019.jpg
1867.802	0.28	correct	0back	Block3	0back/STIM_019.jpg
1871.573	0.497	correct	2back	Block4	2back/STIM_000.jpg
1875.987	0.533	correct	2back	Block4	2back/STIM_000.jpg
1879.341	0.442	correct	2back	Block4	2back/STIM_000.jpg
1882.002	0.503	correct	2back	Block4	2back/STIM_001.jpg
1886.496	0.297	correct	2back	Block4	2back/STIM_001.jpg
1890.45	0.594	correct	2back	Block4	2back/STIM_001.jpg
1894.106	0.341	correct	2back	Block4	2back/STIM_002.jpg
1896.49	0.322	correct	2back	Block4	2back/STIM_002.jpg
1898.83	0.345	correct	2back	Block4	2back/STIM_002.jpg
1902.785	0.38	correct	2back	Block4	2back/STIM_003.jpg
1906.435	0.355	correct	2back	Block4	2back/STIM_003.jpg
1910.717	0.509	correct	2back	Block4	2back/STIM_003.jpg
1913.379	0.628	incorrect	2back	Block4	2back/STIM_004.jpg
1917.132	0.301	correct	2back	Block4	2back/STIM_004.jpg
1921.255	0.295	correct	2back	Block4	2back/STIM_004.jpg
1924.221	0.475	correct	2back	Block4	2back/STIM_005.jpg
1928.46	0.536	correct	2back	Block4	2back/STIM_005.jpg
1931.886	0.394	correct	2back	Block4	2back/STIM_005.jpg
1935.101	0.454	correct	2back	Block4	2back/STIM_006.jpg
1938.81	0.374	correct	2back	Block4	2back/STIM_006.jpg
1942.952	0.287	correct	2back	Block4	2back/STIM_006.jpg
1945.792	0.375	correct	2back	Block4	2back/STIM_007.jpg
1949.251	0.464	correct	2back	Block4	2back/STIM_007.jpg
1952.307	0.338	correct	2back	Block4	2back/STIM_007.jpg
1956.05	0.456	correct	2back	Block4	2back/STIM_008.jpg
1960.461	0.378	correct	2back	Block4	2back/STIM_008.jpg
1963.66	0.507	correct	2back	Block4	2back/STIM_008.jpg
1968.154	0.613	incorrect	2back	Block4	2back/STIM_009.jpg
1972.217	0.583	correct	2back	Block4	2back/STIM_009.jpg
1974.824	0.385	correct	2back	Block4	2back/STIM_009.jpg
1978.249	0.504	correct	2back	Block4	2back/STIM_010.jpg
1981.137	0.417	correct	2back	Block4	2back/STIM_010.jpg
1984.685	0.531	correct	2back	Block4	2back/STIM_010.jpg
1987.449	0.445	correct	2back	Block4	2back/STIM_011.jpg
1991.305	0.611	correct	2back	Block4	2back/STIM_011.jpg
1995.196	0.414	correct	2back	Block4	2back/STIM_011.jpg
1998.869	0.304	correct	2back	Block4	2back/STIM_012.jpg
2001.363	0.508	correct	2back	Block4	2back/STIM_012.jpg
2005.74	0.406	correct	2back	Block4	2back/STIM_012.jpg
2008.309	0.63	correct	2back	Block4	2back/STIM_013.jpg
2011.257	0.412	correct	2back	Block4	2back/STIM_013.jpg
2014.799	0.585	correct	2back	Block4	2back/STIM_013.jpg
2018.923	0.583	correct	2back	Block4	2back/STIM_014.jpg
2022.788	0.456	correct	2back	Block4	2back/STIM_014.jpg
2025.619	0.557	correct	2back	Block4	2back/STIM_014.jpg
2028.887	0.354	correct	2back	Block4	2back/STIM_015.jpg
2032.284	0.284	correct	2back	Block4	2back/STIM_015.jpg
2036.372	0.307	correct	2back	Block4	2back/STIM_015.jpg
2040.567	0.336	incorrect	2back	Block4	2back/STIM_016.jpg
2044.018	0.514	correct	2back	Block4	2back/STIM_016.jpg
2047.342	0.51	correct	2back	Block4	2back/STIM_016.jpg
2050.923	0.484	correct	2back	Block4	2back/STIM_017.jpg
2053.803	0.422	correct	2back	Block4	2back/STIM_017.jpg
2056.925	0.302	correct	2back	Block4	2back/STIM_017.jpg
2060.211	0.639	correct	2back	Block4	2back/STIM_018.jpg
2062.936	0.461	correct	2back	Block4	2back/STIM_018.jpg
2067.116	0.402	correct	2back	Block4	2back/STIM_018.jpg
2070.865	0.494	correct	2back	Block4	2back/STIM_019.jpg
2074.78	0.552	correct	2back	Block4	2back/STIM_019.jpg
2078.109	0.359	correct	2back	Block4	2back/STIM_019.jpg
2081.406	0.596	correct	2back	Block4	2back/STIM_020.jpg
2084.876	0.421	correct	2back	Block4	2back/STIM_020.jpg
2089.149	0.325	correct	2back	Block4	2back/STIM_020.jpg
2092.854	0.556	correct	2back	Block4	2back/STIM_021.jpg
2096.805	0.622	correct	2back	Block4	2back/STIM_021.jpg
2099.513	0.32	correct	2back	Block4	2back/STIM_021.jpg
2103.26	0.394	correct	2back	Block4	2back/STIM_022.jpg
2106.63	0.468	correct	2back	Block4	2back/STIM_022.jpg
2110.98	0.606	correct	2back	Block4	2back/STIM_022.jpg
2114.855	0.338	correct	2back	Block4	2back/STIM_023.jpg
2118.73	0.625	correct	2back	Block4	2back/STIM_023.jpg
2123.186	0.428	correct	2back	Block4	2back/STIM_023.jpg
2127.109	0.609	correct	2back	Block4	2back/STIM_024.jpg
2131.335	0.564	correct	2back	Block4	2back/STIM_024.jpg
2134.765	0.412	correct	2back	Block4	2back/STIM_024.jpg
2138.521	0.321	correct	2back	Block4	2back/STIM_025.jpg
2142.219	0.551	correct	2back	Block4	2back/STIM_025.jpg
2146.081	0.446	correct	2back	Block4	2back/STIM_025.jpg
2149.403	0.571	correct	2back	Block4	2back/STIM_026.jpg
2153.125	0.461	correct	2back	Block4	2back/STIM_026.jpg
2156.177	0.285	correct	2back	Block4	2back/STIM_026.jpg
2159.034	0.517	correct	2back	Block4	2back/STIM_027.jpg
2161.676	0.334	correct	2back	Block4	2back/STIM_027.jpg
2164.562	0.37	correct	2back	Block4	2back/STIM_027.jpg
2167.544	0.308	correct	2back	Block4	2back/STIM_028.jpg
2171.746	0.383	correct	2back	Block4	2back/STIM_028.jpg
2176.111	0.32	correct	2back	Block4	2back/STIM_028.jpg
2179.111	0.309	correct	2back	Block4	2back/STIM_029.jpg
2182.927	0.532	correct	2back	Block4	2back/STIM_029.jpg
2187.022	0.574	correct	2back	Block4	2back/STIM_029.jpg
2190.688	0.648	correct	2back	Block4	2back/STIM_030.jpg
2193.361	0.591	correct	2back	Block4	2back/STIM_030.jpg
2196.07	0.63	correct	2back	Block4	2back/STIM_030.jpg
2200.5	0.38	correct	2back	Block4	2back/STIM_031.jpg
2203.417	0.526	correct	2back	Block4	2back/STIM_031.jpg
2207.472	0.388	correct	2back	Block4	2back/STIM_031.jpg
2210.411	0.633	correct	2back	Block4	2back/STIM_032.jpg
2213.699	0.349	correct	2back	Block4	2back/STIM_032.jpg
2217.425	0.296	correct	2back	Block4	2back/STIM_032.jpg
2219.73	0.418	correct	2back	Block4	2back/STIM_033.jpg
2223.968	0.543	correct	2back	Block4	2back/STIM_033.jpg
2227.816	0.593	correct	2back	Block4	2back/STIM_033.jpg
2232.25	0.45	incorrect	2back	Block4	2back/STIM_034.jpg
2235.616	0.425	correct	2back	Block4	2back/STIM_034.jpg
2238.101	0.396	correct	2back	Block4	2back/STIM_034.jpg
2241.436	0.526	correct	2back	Block4	2back/STIM_035.jpg
2244.631	0.342	correct	2back	Block4	2back/STIM_035.jpg
2247.031	0.281	correct	2back	Block4	2back/STIM_035.jpg
2250.139	0.357	incorrect	2back	Block4	2back/STIM_036.jpg
2253.666	0.482	correct	2back	Block4	2back/STIM_036.jpg
2257.986	0.42	incorrect	2back	Block4	2back/STIM_036.jpg
2261.847	0.484	correct	2back	Block4	2back/STIM_037.jpg
2264.968	0.449	correct	2back	Block4	2back/STIM_037.jpg
2268.72	0.482	correct	2back	Block4	2back/STIM_037.jpg
2271.379	0.417	correct	2back	Block4	2back/STIM_038.jpg
2275.021	0.528	correct	2back	Block4	2back/STIM_038.jpg
2278.808	0.507	correct	2back	Block4	2back/STIM_038.jpg
2282.804	0.292	correct	2back	Block4	2back/STIM_039.jpg
2285.405	0.507	correct	2back	Block4	2back/STIM_039.jpg
2289.156	0.519	correct	2back	Block4	2back/STIM_039.jpg
2293.651	0.488	correct	0back	Block4	0back/STIM_000.jpg
2296.283	0.48	correct	0back	Block4	0back/STIM_000.jpg
2300.401	0.367	correct	0back	Block4	0back/STIM_000.jpg
2304.363	0.279	correct	0back	Block4	0back/STIM_001.jpg
2307.268	0.53	correct	0back	Block4	0back/STIM_001.jpg
2311.234	0.524	correct	0back	Block4	0back/STIM_001.jpg
2314.087	0.398	correct	0back	Block4	0back/STIM_002.jpg
2317.05	0.441	correct	0back	Block4	0back/STIM_002.jpg
2319.722	0.4	correct	0back	Block4	0back/STIM_002.jpg
2322.713	0.376	correct	0back	Block4	0back/STIM_003.jpg
2326.84	0.4	correct	0back	Block4	0back/STIM_003.jpg
2330.793	0.512	correct	0back	Block4	0back/STIM_003.jpg
2333.411	0.465	correct	0back	Block4	0back/STIM_004.jpg
2337.64	0.385	correct	0back	Block4	0back/STIM_004.jpg
2341.284	0.522	correct	0back	Block4	0back/STIM_004.jpg
2344.348	0.356	correct	0back	Block4	0back/STIM_005.jpg
2347.727	0.432	correct	0back	Block4	0back/STIM_005.jpg
2351.699	0.465	correct	0back	Block4	0back/STIM_005.jpg
2355.031	0.499	correct	0back	Block4	0back/STIM_006.jpg
2358.672	0.507	correct	0back	Block4	0back/STIM_006.jpg
2361.2	0.448	correct	0back	Block4	0back/STIM_006.jpg
2364.298	0.383	correct	0back	Block4	0back/STIM_007.jpg
2368.486	0.483	correct	0back	Block4	0back/STIM_007.jpg
2371.099	0.515	correct	0back	Block4	0back/STIM_007.jpg
2375.287	0.452	correct	0back	Block4	0back/STIM_008.jpg
2379.284	0.351	incorrect	0back	Block4	0back/STIM_008.jpg
2382.482	0.458	correct	0back	Block4	0back/STIM_008.jpg
2386.088	0.449	correct	0back	Block4	0back/STIM_009.jpg
2389.321	0.282	correct	0back	Block4	0back/STIM_009.jpg
2393.053	0.49	correct	0back	Block4	0back/STIM_009.jpg
2396.853	0.485	correct	0back	Block4	0back/STIM_010.jpg
2400.272	0.384	correct	0back	Block4	0back/STIM_010.jpg
2403.216	0.487	correct	0back	Block4	0back/STIM_010.jpg
2405.848	0.331	correct	0back	Block4	0back/STIM_011.jpg
2408.483	0.476	correct	0back	Block4	0back/STIM_011.jpg
2412.638	0.419	correct	0back	Block4	0back/STIM_011.jpg
2416.86	0.466	incorrect	0back	Block4	0back/STIM_012.jpg
2421.262	0.516	correct	0back	Block4	0back/STIM_012.jpg
2424.019	0.283	correct	0back	Block4	0back/STIM_012.jpg
2427.856	0.429	correct	0back	Block4	0back/STIM_013.jpg
2431.492	0.429	correct	0back	Block4	0back/STIM_013.jpg
2434.689	0.419	correct	0back	Block4	0back/STIM_013.jpg
2437.315	0.347	correct	0back	Block4	0back/STIM_014.jpg
2440.199	0.3	correct	0back	Block4	0back/STIM_014.jpg
2443.159	0.494	correct	0back	Block4	0back/STIM_014.jpg
2446.664	0.275	correct	0back	Block4	0back/STIM_015.jpg
2449.1	0.284	correct	0back	Block4	0back/STIM_015.jpg
2452.33	0.376	correct	0back	Block4	0back/STIM_015.jpg
2455.42	0.425	correct	0back	Block4	0back/STIM_016.jpg
2457.855	0.324	correct	0back	Block4	0back/STIM_016.jpg
2462.152	0.316	correct	0back	Block4	0back/STIM_016.jpg
2465.776	0.462	correct	0back	Block4	0back/STIM_017.jpg
2468.368	0.297	correct	0back	Block4	0back/STIM_017.jpg
2471.912	0.373	incorrect	0back	Block4	0back/STIM_017.jpg
2475.981	0.317	correct	0back	Block4	0back/STIM_018.jpg
2479.195	0.274	correct	0back	Block4	0back/STIM_018.jpg
2482.419	0.354	correct	0back	Block4	0back/STIM_018.jpg
2484.877	0.354	correct	0back	Block4	0back/STIM_019.jpg
2488.825	0.402	correct	0back	Block4	0back/STIM_019.jpg
2493.083	0.52	correct	0back	Block4	0back/STIM_019.jpg
