onset	duration	accuracy	trial_type	learning_stage	stimulus
0.0	1.138	correct	2back	Block1	2back/STIM_000.jpg
4.646	0.859	correct	2back	Block1	2back/STIM_000.jpg
8.375	0.812	correct	2back	Block1	2back/STIM_000.jpg
12.972	1.344	correct	2back	Block1	2back/STIM_001.jpg
17.927	1.275	incorrect	2back	Block1	2back/STIM_001.jpg
22.3	0.699	correct	2back	Block1	2back/STIM_001.jpg
25.682	1.017	correct	2back	Block1	2back/STIM_002.jpg
30.646	1.18	incorrect	2back	Block1	2back/STIM_002.jpg
33.924	1.09	incorrect	2back	Block1	2back/STIM_002.jpg
38.714	1.174	correct	2back	Block1	2back/STIM_003.jpg
43.118	0.888	incorrect	2back	Block1	2back/STIM_003.jpg
47.051	0.771	correct	2back	Block1	2back/STIM_003.jpg
51.759	1.221	correct	2back	Block1	2back/STIM_004.jpg
56.89	1.214	correct	2back	Block1	2back/STIM_004.jpg
62.039	0.67	correct	2back	Block1	2back/STIM_004.jpg
65.774	1.296	correct	2back	Block1	2back/STIM_005.jpg
69.347	0.677	correct	2back	Block1	2back/STIM_005.jpg
72.08	1.189	incorrect	2back	Block1	2back/STIM_005.jpg
76.075	1.319	incorrect	2back	Block1	2back/STIM_006.jpg
79.428	1.186	correct	2back	Block1	2back/STIM_006.jpg
83.29	1.005	correct	2back	Block1	2back/STIM_006.jpg
87.169	0.896	correct	2back	Block1	2back/STIM_007.jpg
90.706	1.052	correct	2back	Block1	2back/STIM_007.jpg
94.941	0.985	correct	2back	Block1	2back/STIM_007.jpg
99.4	1.28	incorrect	2back	Block1	2back/STIM_008.jpg
103.191	1.161	correct	2back	Block1	2back/STIM_008.jpg
107.247	1.163	correct	2back	Block1	2back/STIM_008.jpg
111.832	0.826	incorrect	2back	Block1	2back/STIM_009.jpg
116.403	1.255	incorrect	2back	Block1	2back/STIM_009.jpg
121.576	0.838	correct	2back	Block1	2back/STIM_009.jpg
125.004	1.06	correct	2back	Block1	2back/STIM_010.jpg
128.088	0.891	correct	2back	Block1	2back/STIM_010.jpg
132.45	0.863	correct	2back	Block1	2back/STIM_010.jpg
136.308	0.614	incorrect	2back	Block1	2back/STIM_011.jpg
139.55	1.228	correct	2back	Block1	2back/STIM_011.jpg
144.179	1.038	correct	2back	Block1	2back/STIM_011.jpg
148.462	0.936	correct	2back	Block1	2back/STIM_012.jpg
152.408	0.936	correct	2back	Block1	2back/STIM_012.jpg
156.625	1.01	correct	2back	Block1	2back/STIM_012.jpg
159.674	1.101	correct	2back	Block1	2back/STIM_013.jpg
164.641	1.297	correct	2back	Block1	2back/STIM_013.jpg
168.964	1.009	correct	2back	Block1	2back/STIM_013.jpg
172.114	0.722	incorrect	2back	Block1	2back/STIM_014.jpg
176.512	0.97	incorrect	2back	Block1	2back/STIM_014.jpg
180.881	0.597	correct	2back	Block1	2back/STIM_014.jpg
184.084	1.357	incorrect	2back	Block1	2back/STIM_015.jpg
188.135	0.692	correct	2back	Block1	2back/STIM_015.jpg
191.78	1.223	correct	2back	Block1	2back/STIM_015.jpg
195.552	1.236	incorrect	2back	Block1	2back/STIM_016.jpg
200.198	1.057	correct	2back	Block1	2back/STIM_016.jpg
204.644	0.594	correct	2back	Block1	2back/STIM_016.jpg
208.69	1.233	correct	2back	Block1	2back/STIM_017.jpg
213.7	1.08	correct	2back	Block1	2back/STIM_017.jpg
217.422	0.904	correct	2back	Block1	2back/STIM_017.jpg
220.597	1.114	correct	2back	Block1	2back/STIM_018.jpg
224.606	0.67	incorrect	2back	Block1	2back/STIM_018.jpg
228.061	0.764	correct	2back	Block1	2back/STIM_018.jpg
232.501	0.738	correct	2back	Block1	2back/STIM_019.jpg
235.452	1.258	correct	2back	Block1	2back/STIM_019.jpg
240.14	1.053	correct	2back	Block1	2back/STIM_019.jpg
245.108	0.941	correct	2back	Block1	2back/STIM_020.jpg
248.497	1.244	correct	2back	Block1	2back/STIM_020.jpg
252.667	0.629	correct	2back	Block1	2back/STIM_020.jpg
257.157	1.28	correct	2back	Block1	2back/STIM_021.jpg
262.032	0.767	correct	2back	Block1	2back/STIM_021.jpg
266.264	0.901	correct	2back	Block1	2back/STIM_021.jpg
270.638	1.029	incorrect	2back	Block1	2back/STIM_022.jpg
273.687	1.056	correct	2back	Block1	2back/STIM_022.jpg
277.678	1.047	incorrect	2back	Block1	2back/STIM_022.jpg
282.435	1.145	correct	2back	Block1	2back/STIM_023.jpg
286.765	1.182	correct	2back	Block1	2back/STIM_023.jpg
290.839	0.758	correct	2back	Block1	2back/STIM_023.jpg
295.474	1.19	correct	2back	Block1	2back/STIM_024.jpg
300.664	1.067	incorrect	2back	Block1	2back/STIM_024.jpg
304.838	1.161	incorrect	2back	Block1	2back/STIM_024.jpg
308.827	1.379	correct	2back	Block1	2back/STIM_025.jpg
312.72	0.885	correct	2back	Block1	2back/STIM_025.jpg
315.994	0.857	correct	2back	Block1	2back/STIM_025.jpg
319.455	1.189	correct	2back	Block1	2back/STIM_026.jpg
322.671	1.21	correct	2back	Block1	2back/STIM_026.jpg
326.937	0.589	incorrect	2back	Block1	2back/STIM_026.jpg
331.117	1.151	incorrect	2back	Block1	2back/STIM_027.jpg
335.241	0.838	correct	2back	Block1	2back/STIM_027.jpg
339.653	0.672	incorrect	2back	Block1	2back/STIM_027.jpg
343.392	0.695	incorrect	2back	Block1	2back/STIM_028.jpg
346.77	0.864	correct	2back	Block1	2back/STIM_028.jpg
350.484	0.702	incorrect	2back	Block1	2back/STIM_028.jpg
354.024	0.996	correct	2back	Block1	2back/STIM_029.jpg
358.542	0.663	correct	2back	Block1	2back/STIM_029.jpg
361.734	0.836	correct	2back	Block1	2back/STIM_029.jpg
365.808	1.302	correct	2back	Block1	2back/STIM_030.jpg
370.421	1.261	correct	2back	Block1	2back/STIM_030.jpg
374.986	1.105	correct	2back	Block1	2back/STIM_030.jpg
379.428	0.827	correct	2back	Block1	2back/STIM_031.jpg
382.735	1.259	correct	2back	Block1	2back/STIM_031.jpg
386.772	0.722	correct	2back	Block1	2back/STIM_031.jpg
389.988	0.992	correct	2back	Block1	2back/STIM_032.jpg
393.84	0.696	correct	2back	Block1	2back/STIM_032.jpg
397.173	0.742	correct	2back	Block1	2back/STIM_032.jpg
400.761	0.765	correct	2back	Block1	2back/STIM_033.jpg
404.478	0.648	incorrect	2back	Block1	2back/STIM_033.jpg
408.837	1.179	correct	2back	Block1	2back/STIM_033.jpg
412.385	1.177	incorrect	2back	Block1	2back/STIM_034.jpg
415.831	0.6	incorrect	2back	Block1	2back/STIM_034.jpg
419.885	1.216	correct	2back	Block1	2back/STIM_034.jpg
424.362	0.981	correct	2back	Block1	2back/STIM_035.jpg
428.655	0.92	correct	2back	Block1	2back/STIM_035.jpg
433.077	1.154	correct	2back	Block1	2back/STIM_035.jpg
437.342	0.664	correct	2back	Block1	2back/STIM_036.jpg
441.173	0.749	correct	2back	Block1	2back/STIM_036.jpg
444.966	0.715	correct	2back	Block1	2back/STIM_036.jpg
449.546	1.097	correct	2back	Block1	2back/STIM_037.jpg
453.236	0.874	correct	2back	Block1	2back/STIM_037.jpg
457.203	0.624	incorrect	2back	Block1	2back/STIM_037.jpg
461.592	1.285	correct	2back	Block1	2back/STIM_038.jpg
466.845	0.711	correct	2back	Block1	2back/STIM_038.jpg
470.13	0.968	correct	2back	Block1	2back/STIM_038.jpg
473.357	1.214	correct	2back	Block1	2back/STIM_039.jpg
477.611	1.199	correct	2back	Block1	2back/STIM_039.jpg
481.426	0.551	incorrect	2back	Block1	2back/STIM_039.jpg
484.837	0.534	correct	0back	Block1	0back/STIM_000.jpg
487.735	0.513	correct	0back	Block1	0back/STIM_000.jpg
490.68	0.476	correct	0back	Block1	0back/STIM_000.jpg
494.199	0.519	correct	0back	Block1	0back/STIM_001.jpg
496.972	0.656	correct	0back	Block1	0back/STIM_001.jpg
500.854	0.527	correct	0back	Block1	0back/STIM_001.jpg
504.786	0.699	correct	0back	Block1	0back/STIM_002.jpg
507.702	0.589	correct	0back	Block1	0back/STIM_002.jpg
511.135	0.466	incorrect	0back	Block1	0back/STIM_002.jpg
514.671	0.719	correct	0back	Block1	0back/STIM_003.jpg
518.633	0.691	correct	0back	Block1	0back/STIM_003.jpg
521.478	0.692	correct	0back	Block1	0back/STIM_003.jpg
524.72	0.685	correct	0back	Block1	0back/STIM_004.jpg
528.157	0.629	correct	0back	Block1	0back/STIM_004.jpg
532.207	0.521	correct	0back	Block1	0back/STIM_004.jpg
535.029	0.735	correct	0back	Block1	0back/STIM_005.jpg
538.882	0.424	correct	0back	Block1	0back/STIM_005.jpg
542.218	0.536	correct	0back	Block1	0back/STIM_005.jpg
545.283	0.641	correct	0back	Block1	0back/STIM_006.jpg
548.685	0.662	correct	0back	Block1	0back/STIM_006.jpg
551.652	0.416	correct	0back	Block1	0back/STIM_006.jpg
554.912	0.784	correct	0back	Block1	0back/STIM_007.jpg
559.103	0.542	correct	0back	Block1	0back/STIM_007.jpg
562.65	0.772	correct	0back	Block1	0back/STIM_007.jpg
566.853	0.764	incorrect	0back	Block1	0back/STIM_008.jpg
571.479	0.683	correct	0back	Block1	0back/STIM_008.jpg
575.35	0.582	correct	0back	Block1	0back/STIM_008.jpg
579.757	0.467	correct	0back	Block1	0back/STIM_009.jpg
582.68	0.398	correct	0back	Block1	0back/STIM_009.jpg
586.17	0.516	correct	0back	Block1	0back/STIM_009.jpg
590.196	0.766	correct	0back	Block1	0back/STIM_010.jpg
594.486	0.646	correct	0back	Block1	0back/STIM_010.jpg
598.335	0.708	correct	0back	Block1	0back/STIM_010.jpg
601.21	0.445	correct	0back	Block1	0back/STIM_011.jpg
604.854	0.74	correct	0back	Block1	0back/STIM_011.jpg
608.583	0.774	correct	0back	Block1	0back/STIM_011.jpg
611.662	0.546	correct	0back	Block1	0back/STIM_012.jpg
614.268	0.464	correct	0back	Block1	0back/STIM_012.jpg
617.306	0.594	correct	0back	Block1	0back/STIM_012.jpg
621.736	0.537	correct	0back	Block1	0back/STIM_013.jpg
624.495	0.561	correct	0back	Block1	0back/STIM_013.jpg
628.155	0.62	correct	0back	Block1	0back/STIM_013.jpg
631.41	0.601	correct	0back	Block1	0back/STIM_014.jpg
635.47	0.615	correct	0back	Block1	0back/STIM_014.jpg
638.349	0.424	incorrect	0back	Block1	0back/STIM_014.jpg
641.281	0.459	correct	0back	Block1	0back/STIM_015.jpg
645.472	0.526	correct	0back	Block1	0back/STIM_015.jpg
649.9	0.757	correct	0back	Block1	0back/STIM_015.jpg
654.054	0.628	correct	0back	Block1	0back/STIM_016.jpg
657.09	0.464	correct	0back	Block1	0back/STIM_016.jpg
659.611	0.397	correct	0back	Block1	0back/STIM_016.jpg
663.944	0.396	correct	0back	Block1	0back/STIM_017.jpg
667.248	0.665	correct	0back	Block1	0back/STIM_017.jpg
670.386	0.438	correct	0back	Block1	0back/STIM_017.jpg
672.977	0.65	correct	0back	Block1	0back/STIM_018.jpg
675.744	0.76	correct	0back	Block1	0back/STIM_018.jpg
679.334	0.451	correct	0back	Block1	0back/STIM_018.jpg
682.432	0.658	correct	0back	Block1	0back/STIM_019.jpg
685.401	0.475	correct	0back	Block1	0back/STIM_019.jpg
689.432	0.684	correct	0back	Block1	0back/STIM_019.jpg
693.664	0.67	correct	2back	Block2	2back/STIM_000.jpg
696.763	0.742	incorrect	2back	Block2	2back/STIM_000.jpg
699.62	0.865	correct	2back	Block2	2back/STIM_000.jpg
703.684	1.011	correct	2back	Block2	2back/STIM_001.jpg
707.399	0.474	correct	2back	Block2	2back/STIM_001.jpg
711.55	0.544	correct	2back	Block2	2back/STIM_001.jpg
715.966	0.846	correct	2back	Block2	2back/STIM_002.jpg
719.217	0.901	correct	2back	Block2	2back/STIM_002.jpg
723.432	0.468	correct	2back	Block2	2back/STIM_002.jpg
726.183	1.056	correct	2back	Block2	2back/STIM_003.jpg
729.497	0.564	correct	2back	Block2	2back/STIM_003.jpg
733.049	0.509	correct	2back	Block2	2back/STIM_003.jpg
737.232	0.976	correct	2back	Block2	2back/STIM_004.jpg
740.631	1.003	correct	2back	Block2	2back/STIM_004.jpg
745.457	0.772	correct	2back	Block2	2back/STIM_004.jpg
748.638	0.555	incorrect	2back	Block2	2back/STIM_005.jpg
751.276	0.794	correct	2back	Block2	2back/STIM_005.jpg
754.856	0.673	correct	2back	Block2	2back/STIM_005.jpg
758.454	0.739	correct	2back	Block2	2back/STIM_006.jpg
761.467	0.493	correct	2back	Block2	2back/STIM_006.jpg
765.651	0.603	correct	2back	Block2	2back/STIM_006.jpg
770.031	0.681	incorrect	2back	Block2	2back/STIM_007.jpg
772.867	0.564	correct	2back	Block2	2back/STIM_007.jpg
776.965	0.959	correct	2back	Block2	2back/STIM_007.jpg
780.686	1.093	correct	2back	Block2	2back/STIM_008.jpg
784.69	0.754	incorrect	2back	Block2	2back/STIM_008.jpg
788.761	0.768	correct	2back	Block2	2back/STIM_008.jpg
791.631	1.046	correct	2back	Block2	2back/STIM_009.jpg
796.244	0.828	correct	2back	Block2	2back/STIM_009.jpg
800.756	0.919	correct	2back	Block2	2back/STIM_009.jpg
803.91	1.104	correct	2back	Block2	2back/STIM_010.jpg
808.596	0.79	correct	2back	Block2	2back/STIM_010.jpg
812.204	0.975	correct	2back	Block2	2back/STIM_010.jpg
816.155	0.784	correct	2back	Block2	2back/STIM_011.jpg
820.275	0.997	correct	2back	Block2	2back/STIM_011.jpg
824.603	0.758	incorrect	2back	Block2	2back/STIM_011.jpg
828.364	1.088	correct	2back	Block2	2back/STIM_012.jpg
832.927	0.711	correct	2back	Block2	2back/STIM_012.jpg
835.784	0.567	correct	2back	Block2	2back/STIM_012.jpg
838.63	0.547	correct	2back	Block2	2back/STIM_013.jpg
842.801	0.569	incorrect	2back	Block2	2back/STIM_013.jpg
847.206	0.483	correct	2back	Block2	2back/STIM_013.jpg
850.213	0.662	correct	2back	Block2	2back/STIM_014.jpg
853.93	0.888	correct	2back	Block2	2back/STIM_014.jpg
856.881	0.67	correct	2back	Block2	2back/STIM_014.jpg
859.663	0.842	correct	2back	Block2	2back/STIM_015.jpg
864.514	0.854	correct	2back	Block2	2back/STIM_015.jpg
868.255	0.721	correct	2back	Block2	2back/STIM_015.jpg
872.478	0.806	correct	2back	Block2	2back/STIM_016.jpg
875.83	1.014	correct	2back	Block2	2back/STIM_016.jpg
879.267	0.594	correct	2back	Block2	2back/STIM_016.jpg
882.916	1.0	correct	2back	Block2	2back/STIM_017.jpg
887.582	0.915	correct	2back	Block2	2back/STIM_017.jpg
891.933	0.682	correct	2back	Block2	2back/STIM_017.jpg
895.938	0.908	correct	2back	Block2	2back/STIM_018.jpg
900.697	0.946	correct	2back	Block2	2back/STIM_018.jpg
905.235	0.526	correct	2back	Block2	2back/STIM_018.jpg
909.079	0.551	correct	2back	Block2	2back/STIM_019.jpg
911.763	1.016	correct	2back	Block2	2back/STIM_019.jpg
915.157	0.51	correct	2back	Block2	2back/STIM_019.jpg
918.432	0.569	correct	2back	Block2	2back/STIM_020.jpg
921.934	1.062	correct	2back	Block2	2back/STIM_020.jpg
926.54	0.641	correct	2back	Block2	2back/STIM_020.jpg
930.299	1.028	correct	2back	Block2	2back/STIM_021.jpg
933.492	0.504	correct	2back	Block2	2back/STIM_021.jpg
937.633	1.0	correct	2back	Block2	2back/STIM_021.jpg
942.031	0.734	correct	2back	Block2	2back/STIM_022.jpg
945.292	1.058	correct	2back	Block2	2back/STIM_022.jpg
949.226	0.903	correct	2back	Block2	2back/STIM_022.jpg
952.428	0.734	correct	2back	Block2	2back/STIM_023.jpg
955.964	0.797	correct	2back	Block2	2back/STIM_023.jpg
959.421	0.454	correct	2back	Block2	2back/STIM_023.jpg
963.873	0.875	correct	2back	Block2	2back/STIM_024.jpg
967.767	1.026	correct	2back	Block2	2back/STIM_024.jpg
970.989	0.605	correct	2back	Block2	2back/STIM_024.jpg
974.936	0.738	correct	2back	Block2	2back/STIM_025.jpg
978.751	0.571	correct	2back	Block2	2back/STIM_025.jpg
982.054	0.799	correct	2back	Block2	2back/STIM_025.jpg
986.795	0.742	correct	2back	Block2	2back/STIM_026.jpg
990.645	0.89	correct	2back	Block2	2back/STIM_026.jpg
995.164	0.893	correct	2back	Block2	2back/STIM_026.jpg
998.966	0.989	correct	2back	Block2	2back/STIM_027.jpg
1003.715	0.578	correct	2back	Block2	2back/STIM_027.jpg
1007.465	0.85	correct	2back	Block2	2back/STIM_027.jpg
1010.618	0.87	incorrect	2back	Block2	2back/STIM_028.jpg
1013.971	1.03	correct	2back	Block2	2back/STIM_028.jpg
1018.239	1.018	correct	2back	Block2	2back/STIM_028.jpg
1022.222	0.907	correct	2back	Block2	2back/STIM_029.jpg
1026.851	0.551	correct	2back	Block2	2back/STIM_029.jpg
1029.955	0.637	correct	2back	Block2	2back/STIM_029.jpg
1033.337	0.903	correct	2back	Block2	2back/STIM_030.jpg
1036.632	0.694	correct	2back	Block2	2back/STIM_030.jpg
1040.619	0.524	correct	2back	Block2	2back/STIM_030.jpg
1043.494	1.038	correct	2back	Block2	2back/STIM_031.jpg
1048.084	0.92	correct	2back	Block2	2back/STIM_031.jpg
1051.508	0.7	correct	2back	Block2	2back/STIM_031.jpg
1054.244	0.854	correct	2back	Block2	2back/STIM_032.jpg
1057.115	0.981	correct	2back	Block2	2back/STIM_032.jpg
1060.113	0.542	correct	2back	Block2	2back/STIM_032.jpg
1062.982	0.546	correct	2back	Block2	2back/STIM_033.jpg
1066.551	0.578	correct	2back	Block2	2back/STIM_033.jpg
1070.831	0.824	correct	2back	Block2	2back/STIM_033.jpg
1074.211	1.065	correct	2back	Block2	2back/STIM_034.jpg
1077.636	0.566	correct	2back	Block2	2back/STIM_034.jpg
1080.827	0.79	correct	2back	Block2	2back/STIM_034.jpg
1085.402	0.599	correct	2back	Block2	2back/STIM_035.jpg
1088.305	0.907	correct	2back	Block2	2back/STIM_035.jpg
1091.888	0.971	correct	2back	Block2	2back/STIM_035.jpg
1095.707	0.715	correct	2back	Block2	2back/STIM_036.jpg
1099.677	0.752	correct	2back	Block2	2back/STIM_036.jpg
1103.223	0.706	correct	2back	Block2	2back/STIM_036.jpg
1107.289	0.6	correct	2back	Block2	2back/STIM_037.jpg
1110.883	0.79	correct	2back	Block2	2back/STIM_037.jpg
1115.554	0.464	correct	2back	Block2	2back/STIM_037.jpg
1119.802	0.528	correct	2back	Block2	2back/STIM_038.jpg
1123.731	0.758	incorrect	2back	Block2	2back/STIM_038.jpg
1127.993	0.575	correct	2back	Block2	2back/STIM_038.jpg
1130.666	1.145	correct	2back	Block2	2back/STIM_039.jpg
1134.982	0.632	correct	2back	Block2	2back/STIM_039.jpg
1138.081	0.944	correct	2back	Block2	2back/STIM_039.jpg
1141.447	0.549	correct	0back	Block2	0back/STIM_000.jpg
1144.561	0.714	correct	0back	Block2	0back/STIM_000.jpg
1149.281	0.743	correct	0back	Block2	0back/STIM_000.jpg
1152.899	0.576	correct	0back	Block2	0back/STIM_001.jpg
1156.505	0.42	correct	0back	Block2	0back/STIM_001.jpg
1159.847	0.701	correct	0back	Block2	0back/STIM_001.jpg
1164.446	0.664	incorrect	0back	Block2	0back/STIM_002.jpg
1168.486	0.598	correct	0back	Block2	0back/STIM_002.jpg
1172.704	0.734	correct	0back	Block2	0back/STIM_002.jpg
1176.072	0.515	correct	0back	Block2	0back/STIM_003.jpg
1178.799	0.668	correct	0back	Block2	0back/STIM_003.jpg
1182.783	0.524	correct	0back	Block2	0back/STIM_003.jpg
1185.373	0.638	correct	0back	Block2	0back/STIM_004.jpg
1189.462	0.436	correct	0back	Block2	0back/STIM_004.jpg
1192.088	0.574	correct	0back	Block2	0back/STIM_004.jpg
1195.323	0.464	correct	0back	Block2	0back/STIM_005.jpg
1197.923	0.558	correct	0back	Block2	0back/STIM_005.jpg
1200.983	0.608	correct	0back	Block2	0back/STIM_005.jpg
1204.978	0.774	correct	0back	Block2	0back/STIM_006.jpg
1209.703	0.572	correct	0back	Block2	0back/STIM_006.jpg
1213.65	0.62	correct	0back	Block2	0back/STIM_006.jpg
1217.003	0.496	correct	0back	Block2	0back/STIM_007.jpg
1219.93	0.454	correct	0back	Block2	0back/STIM_007.jpg
1222.8	0.661	correct	0back	Block2	0back/STIM_007.jpg
1226.024	0.401	correct	0back	Block2	0back/STIM_008.jpg
1229.991	0.461	correct	0back	Block2	0back/STIM_008.jpg
1233.725	0.481	correct	0back	Block2	0back/STIM_008.jpg
1238.003	0.668	correct	0back	Block2	0back/STIM_009.jpg
1241.311	0.489	correct	0back	Block2	0back/STIM_009.jpg
1244.929	0.424	correct	0back	Block2	0back/STIM_009.jpg
1249.165	0.754	correct	0back	Block2	0back/STIM_010.jpg
1252.81	0.396	correct	0back	Block2	0back/STIM_010.jpg
1255.375	0.596	correct	0back	Block2	0back/STIM_010.jpg
1258.273	0.713	correct	0back	Block2	0back/STIM_011.jpg
1261.604	0.712	correct	0back	Block2	0back/STIM_011.jpg
1265.125	0.436	correct	0back	Block2	0back/STIM_011.jpg
1268.631	0.532	correct	0back	Block2	0back/STIM_012.jpg
1271.286	0.626	correct	0back	Block2	0back/STIM_012.jpg
1275.625	0.706	correct	0back	Block2	0back/STIM_012.jpg
1279.665	0.569	correct	0back	Block2	0back/STIM_013.jpg
1282.618	0.699	correct	0back	Block2	0back/STIM_013.jpg
1286.367	0.592	correct	0back	Block2	0back/STIM_013.jpg
1290.013	0.478	correct	0back	Block2	0back/STIM_014.jpg
1293.017	0.55	correct	0back	Block2	0back/STIM_014.jpg
1297.545	0.668	correct	0back	Block2	0back/STIM_014.jpg
1301.006	0.609	correct	0back	Block2	0back/STIM_015.jpg
1305.048	0.655	incorrect	0back	Block2	0back/STIM_015.jpg
1309.039	0.46	correct	0back	Block2	0back/STIM_015.jpg
1312.369	0.649	correct	0back	Block2	0back/STIM_016.jpg
1316.194	0.631	correct	0back	Block2	0back/STIM_016.jpg
1319.171	0.734	correct	0back	Block2	0back/STIM_016.jpg
1323.315	0.519	correct	0back	Block2	0back/STIM_017.jpg
1327.085	0.547	correct	0back	Block2	0back/STIM_017.jpg
1329.887	0.441	correct	0back	Block2	0back/STIM_017.jpg
1334.27	0.445	correct	0back	Block2	0back/STIM_018.jpg
1338.606	0.501	correct	0back	Block2	0back/STIM_018.jpg
1341.787	0.72	correct	0back	Block2	0back/STIM_018.jpg
1345.421	0.463	correct	0back	Block2	0back/STIM_019.jpg
1349.295	0.471	correct	0back	Block2	0back/STIM_019.jpg
1353.363	0.62	correct	0back	Block2	0back/STIM_019.jpg
1357.298	0.629	correct	2back	Block3	2back/STIM_000.jpg
1360.857	0.588	correct	2back	Block3	2back/STIM_000.jpg
1365.377	0.625	correct	2back	Block3	2back/STIM_000.jpg
1368.979	0.965	correct	2back	Block3	2back/STIM_001.jpg
1372.1	0.617	correct	2back	Block3	2back/STIM_001.jpg
1376.645	0.93	correct	2back	Block3	2back/STIM_001.jpg
1381.11	0.522	correct	2back	Block3	2back/STIM_002.jpg
1383.808	0.591	correct	2back	Block3	2back/STIM_002.jpg
1387.255	0.666	correct	2back	Block3	2back/STIM_002.jpg
1391.539	0.646	correct	2back	Block3	2back/STIM_003.jpg
1396.014	0.958	correct	2back	Block3	2back/STIM_003.jpg
1399.555	0.574	correct	2back	Block3	2back/STIM_003.jpg
1404.012	0.567	correct	2back	Block3	2back/STIM_004.jpg
1407.804	0.838	correct	2back	Block3	2back/STIM_004.jpg
1412.466	0.908	correct	2back	Block3	2back/STIM_004.jpg
1417.267	0.734	correct	2back	Block3	2back/STIM_005.jpg
1420.014	0.901	correct	2back	Block3	2back/STIM_005.jpg
1423.601	0.53	correct	2back	Block3	2back/STIM_005.jpg
1426.533	0.512	correct	2back	Block3	2back/STIM_006.jpg
1429.523	0.653	correct	2back	Block3	2back/STIM_006.jpg
1433.69	0.585	correct	2back	Block3	2back/STIM_006.jpg
1437.727	0.586	incorrect	2back	Block3	2back/STIM_007.jpg
1442.008	0.625	correct	2back	Block3	2back/STIM_007.jpg
1445.132	0.881	correct	2back	Block3	2back/STIM_007.jpg
1448.235	0.609	correct	2back	Block3	2back/STIM_008.jpg
1451.855	0.509	correct	2back	Block3	2back/STIM_008.jpg
1454.615	0.834	correct	2back	Block3	2back/STIM_008.jpg
1457.676	0.899	correct	2back	Block3	2back/STIM_009.jpg
1461.477	0.729	correct	2back	Block3	2back/STIM_009.jpg
1466.183	0.517	correct	2back	Block3	2back/STIM_009.jpg
1468.899	0.611	correct	2back	Block3	2back/STIM_010.jpg
1473.454	0.622	correct	2back	Block3	2back/STIM_010.jpg
1477.0	0.804	correct	2back	Block3	2back/STIM_010.jpg
1481.711	0.815	correct	2back	Block3	2back/STIM_011.jpg
1484.691	0.717	correct	2back	Block3	2back/STIM_011.jpg
1487.679	0.593	correct	2back	Block3	2back/STIM_011.jpg
1491.457	0.767	correct	2back	Block3	2back/STIM_012.jpg
1494.633	0.499	correct	2back	Block3	2back/STIM_012.jpg
1497.171	0.62	correct	2back	Block3	2back/STIM_012.jpg
1499.955	0.738	correct	2back	Block3	2back/STIM_013.jpg
1504.673	0.951	correct	2back	Block3	2back/STIM_013.jpg
1507.803	0.669	correct	2back	Block3	2back/STIM_013.jpg
1511.262	0.427	correct	2back	Block3	2back/STIM_014.jpg
1515.511	0.473	correct	2back	Block3	2back/STIM_014.jpg
1518.277	0.841	correct	2back	Block3	2back/STIM_014.jpg
1521.309	0.947	correct	2back	Block3	2back/STIM_015.jpg
1526.165	0.663	correct	2back	Block3	2back/STIM_015.jpg
1528.845	0.577	correct	2back	Block3	2back/STIM_015.jpg
1532.115	0.718	correct	2back	Block3	2back/STIM_016.jpg
1536.246	0.608	correct	2back	Block3	2back/STIM_016.jpg
1539.157	0.949	correct	2back	Block3	2back/STIM_016.jpg
1543.445	0.531	correct	2back	Block3	2back/STIM_017.jpg
1546.393	0.807	correct	2back	Block3	2back/STIM_017.jpg
1550.15	0.952	correct	2back	Block3	2back/STIM_017.jpg
1554.285	0.625	correct	2back	Block3	2back/STIM_018.jpg
1557.06	0.705	correct	2back	Block3	2back/STIM_018.jpg
1560.347	0.84	correct	2back	Block3	2back/STIM_018.jpg
1564.496	0.966	correct	2back	Block3	2back/STIM_019.jpg
1568.311	0.57	correct	2back	Block3	2back/STIM_019.jpg
1571.295	0.954	correct	2back	Block3	2back/STIM_019.jpg
1574.882	0.723	correct	2back	Block3	2back/STIM_020.jpg
1578.171	0.488	correct	2back	Block3	2back/STIM_020.jpg
1580.834	0.648	correct	2back	Block3	2back/STIM_020.jpg
1584.367	0.762	correct	2back	Block3	2back/STIM_021.jpg
1587.862	0.714	correct	2back	Block3	2back/STIM_021.jpg
1591.764	0.899	correct	2back	Block3	2back/STIM_021.jpg
1595.795	0.493	correct	2back	Block3	2back/STIM_022.jpg
1599.097	0.902	correct	2back	Block3	2back/STIM_022.jpg
1603.053	0.927	correct	2back	Block3	2back/STIM_022.jpg
1607.77	0.747	correct	2back	Block3	2back/STIM_023.jpg
1611.273	0.942	correct	2back	Block3	2back/STIM_023.jpg
1614.674	0.922	correct	2back	Block3	2back/STIM_023.jpg
1619.115	0.712	correct	2back	Block3	2back/STIM_024.jpg
1622.109	0.87	incorrect	2back	Block3	2back/STIM_024.jpg
1626.314	0.897	correct	2back	Block3	2back/STIM_024.jpg
1629.637	0.745	correct	2back	Block3	2back/STIM_025.jpg
1632.902	0.609	correct	2back	Block3	2back/STIM_025.jpg
1636.136	0.548	correct	2back	Block3	2back/STIM_025.jpg
1639.161	0.535	correct	2back	Block3	2back/STIM_026.jpg
1642.074	0.732	correct	2back	Block3	2back/STIM_026.jpg
1645.053	0.815	correct	2back	Block3	2back/STIM_026.jpg
1649.207	0.67	incorrect	2back	Block3	2back/STIM_027.jpg
1652.629	0.522	correct	2back	Block3	2back/STIM_027.jpg
1655.946	0.695	correct	2back	Block3	2back/STIM_027.jpg
1660.011	0.708	correct	2back	Block3	2back/STIM_028.jpg
1663.739	0.536	correct	2back	Block3	2back/STIM_028.jpg
1666.815	0.91	correct	2back	Block3	2back/STIM_028.jpg
1671.127	0.487	correct	2back	Block3	2back/STIM_029.jpg
1675.006	0.89	correct	2back	Block3	2back/STIM_029.jpg
1679.137	0.896	correct	2back	Block3	2back/STIM_029.jpg
1683.676	0.482	correct	2back	Block3	2back/STIM_030.jpg
1686.939	0.56	correct	2back	Block3	2back/STIM_030.jpg
1690.451	0.728	correct	2back	Block3	2back/STIM_030.jpg
1693.985	0.816	correct	2back	Block3	2back/STIM_031.jpg
1698.199	0.611	correct	2back	Block3	2back/STIM_031.jpg
1702.193	0.915	correct	2back	Block3	2back/STIM_031.jpg
1706.649	0.964	correct	2back	Block3	2back/STIM_032.jpg
1710.1	0.591	correct	2back	Block3	2back/STIM_032.jpg
1712.968	0.719	correct	2back	Block3	2back/STIM_032.jpg
1716.581	0.424	correct	2back	Block3	2back/STIM_033.jpg
1720.68	0.579	correct	2back	Block3	2back/STIM_033.jpg
1724.944	0.841	correct	2back	Block3	2back/STIM_033.jpg
1728.125	0.633	correct	2back	Block3	2back/STIM_034.jpg
1732.473	0.801	correct	2back	Block3	2back/STIM_034.jpg
1735.453	0.421	correct	2back	Block3	2back/STIM_034.jpg
1737.984	0.51	correct	2back	Block3	2back/STIM_035.jpg
1740.756	0.559	correct	2back	Block3	2back/STIM_035.jpg
1744.504	0.465	correct	2back	Block3	2back/STIM_035.jpg
1747.642	0.696	correct	2back	Block3	2back/STIM_036.jpg
1750.713	0.953	correct	2back	Block3	2back/STIM_036.jpg
1754.173	0.671	correct	2back	Block3	2back/STIM_036.jpg
1758.366	0.584	correct	2back	Block3	2back/STIM_037.jpg
1762.039	0.505	correct	2back	Block3	2back/STIM_037.jpg
1766.189	0.598	correct	2back	Block3	2back/STIM_037.jpg
1769.597	0.706	correct	2back	Block3	2back/STIM_038.jpg
1772.895	0.719	correct	2back	Block3	2back/STIM_038.jpg
1775.645	0.678	correct	2back	Block3	2back/STIM_038.jpg
1778.481	0.458	correct	2back	Block3	2back/STIM_039.jpg
1781.86	0.75	incorrect	2back	Block3	2back/STIM_039.jpg
1786.508	0.516	correct	2back	Block3	2back/STIM_039.jpg
1789.439	0.566	correct	0back	Block3	0back/STIM_000.jpg
1792.095	0.581	correct	0back	Block3	0back/STIM_000.jpg
1796.644	0.417	correct	0back	Block3	0back/STIM_000.jpg
1799.515	0.522	correct	0back	Block3	0back/STIM_001.jpg
1802.818	0.678	correct	0back	Block3	0back/STIM_001.jpg
1807.141	0.736	correct	0back	Block3	0back/STIM_001.jpg
1810.806	0.683	correct	0back	Block3	0back/STIM_002.jpg
1815.238	0.745	correct	0back	Block3	0back/STIM_002.jpg
1818.136	0.653	correct	0back	Block3	0back/STIM_002.jpg
1822.15	0.568	correct	0back	Block3	0back/STIM_003.jpg
1825.266	0.702	correct	0back	Block3	0back/STIM_003.jpg
1828.765	0.651	correct	0back	Block3	0back/STIM_003.jpg
1831.89	0.658	correct	0back	Block3	0back/STIM_004.jpg
1834.751	0.45	correct	0back	Block3	0back/STIM_004.jpg
1837.348	0.561	correct	0back	Block3	0back/STIM_004.jpg
1840.522	0.588	correct	0back	Block3	0back/STIM_005.jpg
1845.017	0.625	correct	0back	Block3	0back/STIM_005.jpg
1848.474	0.419	correct	0back	Block3	0back/STIM_005.jpg
1852.872	0.669	correct	0back	Block3	0back/STIM_006.jpg
1857.219	0.691	correct	0back	Block3	0back/STIM_006.jpg
1860.52	0.674	correct	0back	Block3	0back/STIM_006.jpg
1863.948	0.545	correct	0back	Block3	0back/STIM_007.jpg
1868.204	0.426	correct	0back	Block3	0back/STIM_007.jpg
1872.082	0.465	correct	0back	Block3	0back/STIM_007.jpg
1876.272	0.549	correct	0back	Block3	0back/STIM_008.jpg
1880.315	0.578	correct	0back	Block3	0back/STIM_008.jpg
1883.798	0.774	correct	0back	Block3	0back/STIM_008.jpg
1888.498	0.752	correct	0back	Block3	0back/STIM_009.jpg
1892.67	0.45	correct	0back	Block3	0back/STIM_009.jpg
1895.504	0.568	correct	0back	Block3	0back/STIM_009.jpg
1899.155	0.462	correct	0back	Block3	0back/STIM_010.jpg
1902.708	0.427	correct	0back	Block3	0back/STIM_010.jpg
1906.85	0.68	correct	0back	Block3	0back/STIM_010.jpg
1911.417	0.488	correct	0back	Block3	0back/STIM_011.jpg
1914.059	0.434	correct	0back	Block3	0back/STIM_011.jpg
1917.823	0.672	correct	0back	Block3	0back/STIM_011.jpg
1921.994	0.777	correct	0back	Block3	0back/STIM_012.jpg
1925.47	0.504	correct	0back	Block3	0back/STIM_012.jpg
1929.871	0.706	correct	0back	Block3	0back/STIM_012.jpg
1933.937	0.647	correct	0back	Block3	0back/STIM_013.jpg
1937.699	0.417	correct	0back	Block3	0back/STIM_013.jpg
1940.261	0.706	correct	0back	Block3	0back/STIM_013.jpg
1944.052	0.663	correct	0back	Block3	0back/STIM_014.jpg
1948.005	0.73	correct	0back	Block3	0back/STIM_014.jpg
1951.295	0.452	correct	0back	Block3	0back/STIM_014.jpg
1955.42	0.787	correct	0back	Block3	0back/STIM_015.jpg
1958.513	0.661	correct	0back	Block3	0back/STIM_015.jpg
1962.118	0.587	correct	0back	Block3	0back/STIM_015.jpg
1966.711	0.403	correct	0back	Block3	0back/STIM_016.jpg
1969.685	0.602	correct	0back	Block3	0back/STIM_016.jpg
1972.994	0.755	correct	0back	Block3	0back/STIM_016.jpg
1977.441	0.649	correct	0back	Block3	0back/STIM_017.jpg
1980.746	0.671	correct	0back	Block3	0back/STIM_017.jpg
1983.811	0.67	correct	0back	Block3	0back/STIM_017.jpg
1986.503	0.765	correct	0back	Block3	0back/STIM_018.jpg
1989.628	0.453	correct	0back	Block3	0back/STIM_018.jpg
1992.694	0.49	correct	0back	Block3	0back/STIM_018.jpg
1996.194	0.632	correct	0back	Block3	0back/STIM_019.jpg
1999.536	0.634	correct	0back	Block3	0back/STIM_019.jpg
2003.379	0.404	correct	0back	Block3	0back/STIM_019.jpg
2007.554	0.856	correct	2back	Block4	2back/STIM_000.jpg
2012.089	0.514	correct	2back	Block4	2back/STIM_000.jpg
2015.211	0.77	correct	2back	Block4	2back/STIM_000.jpg
2019.659	0.684	correct	2back	Block4	2back/STIM_001.jpg
2023.498	0.934	correct	2back	Block4	2back/STIM_001.jpg
2028.166	0.502	correct	2back	Block4	2back/STIM_001.jpg
2032.147	0.785	correct	2back	Block4	2back/STIM_002.jpg
2036.064	0.443	correct	2back	Block4	2back/STIM_002.jpg
2038.596	0.628	correct	2back	Block4	2back/STIM_002.jpg
2042.659	0.486	correct	2back	Block4	2back/STIM_003.jpg
2046.623	0.921	correct	2back	Block4	2back/STIM_003.jpg
2051.205	0.509	correct	2back	Block4	2back/STIM_003.jpg
2054.105	0.511	incorrect	2back	Block4	2back/STIM_004.jpg
2057.414	0.906	correct	2back	Block4	2back/STIM_004.jpg
2060.555	0.48	correct	2back	Block4	2back/STIM_004.jpg
2064.687	0.73	correct	2back	Block4	2back/STIM_005.jpg
2068.163	0.761	correct	2back	Block4	2back/STIM_005.jpg
2072.858	0.435	correct	2back	Block4	2back/STIM_005.jpg
2075.55	0.554	correct	2back	Block4	2back/STIM_006.jpg
2079.019	0.771	correct	2back	Block4	2back/STIM_006.jpg
2082.571	0.716	correct	2back	Block4	2back/STIM_006.jpg
2086.473	0.692	correct	2back	Block4	2back/STIM_007.jpg
2089.22	0.953	correct	2back	Block4	2back/STIM_007.jpg
2093.373	0.778	correct	2back	Block4	2back/STIM_007.jpg
2096.777	0.748	correct	2back	Block4	2back/STIM_008.jpg
2100.043	0.564	correct	2back	Block4	2back/STIM_008.jpg
2104.394	0.926	correct	2back	Block4	2back/STIM_008.jpg
2109.019	0.728	incorrect	2back	Block4	2back/STIM_009.jpg
2111.923	0.91	correct	2back	Block4	2back/STIM_009.jpg
2114.96	0.752	correct	2back	Block4	2back/STIM_009.jpg
2119.396	0.792	correct	2back	Block4	2back/STIM_010.jpg
2123.888	0.575	correct	2back	Block4	2back/STIM_010.jpg
2127.036	0.532	correct	2back	Block4	2back/STIM_010.jpg
2129.64	0.932	correct	2back	Block4	2back/STIM_011.jpg
2133.748	0.712	correct	2back	Block4	2back/STIM_011.jpg
2138.141	0.721	correct	2back	Block4	2back/STIM_011.jpg
2141.924	0.882	correct	2back	Block4	2back/STIM_012.jpg
2145.947	0.862	correct	2back	Block4	2back/STIM_012.jpg
2149.726	0.957	correct	2back	Block4	2back/STIM_012.jpg
2153.706	0.573	correct	2back	Block4	2back/STIM_013.jpg
2157.92	0.783	correct	2back	Block4	2back/STIM_013.jpg
2161.577	0.854	correct	2back	Block4	2back/STIM_013.jpg
2164.578	0.494	correct	2back	Block4	2back/STIM_014.jpg
2167.36	0.955	correct	2back	Block4	2back/STIM_014.jpg
2171.384	0.588	correct	2back	Block4	2back/STIM_014.jpg
2175.741	0.94	correct	2back	Block4	2back/STIM_015.jpg
2178.893	0.64	correct	2back	Block4	2back/STIM_015.jpg
2183.187	0.815	correct	2back	Block4	2back/STIM_015.jpg
2186.293	0.967	correct	2back	Block4	2back/STIM_016.jpg
2191.145	0.443	correct	2back	Block4	2back/STIM_016.jpg
2195.264	0.876	correct	2back	Block4	2back/STIM_016.jpg
2199.018	0.467	correct	2back	Block4	2back/STIM_017.jpg
2203.244	0.84	correct	2back	Block4	2back/STIM_017.jpg
2206.785	0.689	correct	2back	Block4	2back/STIM_017.jpg
2211.234	0.913	correct	2back	Block4	2back/STIM_018.jpg
2214.53	0.461	correct	2back	Block4	2back/STIM_018.jpg
2218.706	0.628	correct	2back	Block4	2back/STIM_018.jpg
2222.898	0.494	correct	2back	Block4	2back/STIM_019.jpg
2226.781	0.449	correct	2back	Block4	2back/STIM_019.jpg
2229.634	0.883	correct	2back	Block4	2back/STIM_019.jpg
2232.709	0.735	correct	2back	Block4	2back/STIM_020.jpg
2235.566	0.825	correct	2back	Block4	2back/STIM_020.jpg
2240.12	0.843	correct	2back	Block4	2back/STIM_020.jpg
2243.521	0.638	correct	2back	Block4	2back/STIM_021.jpg
2246.636	0.764	correct	2back	Block4	2back/STIM_021.jpg
2250.273	0.524	correct	2back	Block4	2back/STIM_021.jpg
2254.377	0.523	correct	2back	Block4	2back/STIM_022.jpg
2258.731	0.777	correct	2back	Block4	2back/STIM_022.jpg
2261.939	0.914	correct	2back	Block4	2back/STIM_022.jpg
2265.903	0.876	correct	2back	Block4	2back/STIM_023.jpg
2270.567	0.711	correct	2back	Block4	2back/STIM_023.jpg
2273.961	0.802	correct	2back	Block4	2back/STIM_023.jpg
2277.27	0.88	correct	2back	Block4	2back/STIM_024.jpg
2281.251	0.593	correct	2back	Block4	2back/STIM_024.jpg
2284.443	0.51	correct	2back	Block4	2back/STIM_024.jpg
2288.086	0.528	correct	2back	Block4	2back/STIM_025.jpg
2291.443	0.545	correct	2back	Block4	2back/STIM_025.jpg
2295.572	0.936	correct	2back	Block4	2back/STIM_025.jpg
2299.599	0.524	correct	2back	Block4	2back/STIM_026.jpg
2302.556	0.607	correct	2back	Block4	2back/STIM_026.jpg
2306.701	0.884	correct	2back	Block4	2back/STIM_026.jpg
2309.97	0.624	correct	2back	Block4	2back/STIM_027.jpg
2312.823	0.677	correct	2back	Block4	2back/STIM_027.jpg
2317.443	0.623	correct	2back	Block4	2back/STIM_027.jpg
2321.666	0.694	correct	2back	Block4	2back/STIM_028.jpg
2324.982	0.938	correct	2back	Block4	2back/STIM_028.jpg
2328.649	0.842	correct	2back	Block4	2back/STIM_028.jpg
2333.339	0.764	correct	2back	Block4	2back/STIM_029.jpg
2337.033	0.521	correct	2back	Block4	2back/STIM_029.jpg
2340.469	0.479	correct	2back	Block4	2back/STIM_029.jpg
2344.01	0.494	correct	2back	Block4	2back/STIM_030.jpg
2348.1	0.547	correct	2back	Block4	2back/STIM_030.jpg
2351.686	0.846	correct	2back	Block4	2back/STIM_030.jpg
2356.068	0.774	correct	2back	Block4	2back/STIM_031.jpg
2359.87	0.774	correct	2back	Block4	2back/STIM_031.jpg
2363.891	0.769	correct	2back	Block4	2back/STIM_031.jpg
2368.258	0.488	correct	2back	Block4	2back/STIM_032.jpg
2371.426	0.538	correct	2back	Block4	2back/STIM_032.jpg
2374.579	0.549	correct	2back	Block4	2back/STIM_032.jpg
2378.885	0.466	correct	2back	Block4	2back/STIM_033.jpg
2382.46	0.928	correct	2back	Block4	2back/STIM_033.jpg
2387.272	0.68	correct	2back	Block4	2back/STIM_033.jpg
2390.991	0.863	correct	2back	Block4	2back/STIM_034.jpg
2393.955	0.539	correct	2back	Block4	2back/STIM_034.jpg
2396.6	0.892	correct	2back	Block4	2back/STIM_034.jpg
2401.116	0.892	correct	2back	Block4	2back/STIM_035.jpg
2405.13	0.894	correct	2back	Block4	2back/STIM_035.jpg
2408.385	0.705	correct	2back	Block4	2back/STIM_035.jpg
2412.707	0.897	correct	2back	Block4	2back/STIM_036.jpg
2417.42	0.862	correct	2back	Block4	2back/STIM_036.jpg
2420.364	0.892	incorrect	2back	Block4	2back/STIM_036.jpg
2423.669	0.614	correct	2back	Block4	2back/STIM_037.jpg
2427.371	0.569	correct	2back	Block4	2back/STIM_037.jpg
2431.579	0.508	correct	2back	Block4	2back/STIM_037.jpg
2435.564	0.612	correct	2back	Block4	2back/STIM_038.jpg
2439.439	0.764	correct	2back	Block4	2back/STIM_038.jpg
2444.105	0.422	correct	2back	Block4	2back/STIM_038.jpg
2447.966	0.459	correct	2back	Block4	2back/STIM_039.jpg
2450.562	0.685	correct	2back	Block4	2back/STIM_039.jpg
2454.624	0.87	correct	2back	Block4	2back/STIM_039.jpg
2457.801	0.749	correct	0back	Block4	0back/STIM_000.jpg
2462.405	0.707	correct	0back	Block4	0back/STIM_000.jpg
2466.128	0.695	correct	0back	Block4	0back/STIM_000.jpg
2470.187	0.458	correct	0back	Block4	0back/STIM_001.jpg
2473.269	0.669	correct	0back	Block4	0back/STIM_001.jpg
2477.43	0.497	correct	0back	Block4	0back/STIM_001.jpg
2481.486	0.707	correct	0back	Block4	0back/STIM_002.jpg
2484.282	0.625	correct	0back	Block4	0back/STIM_002.jpg
2487.133	0.616	correct	0back	Block4	0back/STIM_002.jpg
2490.666	0.552	correct	0back	Block4	0back/STIM_003.jpg
2493.585	0.68	correct	0back	Block4	0back/STIM_003.jpg
2496.584	0.545	correct	0back	Block4	0back/STIM_003.jpg
2500.011	0.562	correct	0back	Block4	0back/STIM_004.jpg
2503.914	0.656	correct	0back	Block4	0back/STIM_004.jpg
2507.299	0.45	correct	0back	Block4	0back/STIM_004.jpg
2511.319	0.508	correct	0back	Block4	0back/STIM_005.jpg
2515.321	0.523	correct	0back	Block4	0back/STIM_005.jpg
2518.976	0.591	correct	0back	Block4	0back/STIM_005.jpg
2522.861	0.407	correct	0back	Block4	0back/STIM_006.jpg
2527.219	0.542	correct	0back	Block4	0back/STIM_006.jpg
2531.429	0.521	correct	0back	Block4	0back/STIM_006.jpg
2534.579	0.628	correct	0back	Block4	0back/STIM_007.jpg
2539.189	0.655	correct	0back	Block4	0back/STIM_007.jpg
2543.222	0.63	correct	0back	Block4	0back/STIM_007.jpg
2547.85	0.734	correct	0back	Block4	0back/STIM_008.jpg
2551.461	0.557	correct	0back	Block4	0back/STIM_008.jpg
2554.498	0.563	correct	0back	Block4	0back/STIM_008.jpg
2557.367	0.451	correct	0back	Block4	0back/STIM_009.jpg
2560.879	0.748	correct	0back	Block4	0back/STIM_009.jpg
2563.729	0.523	correct	0back	Block4	0back/STIM_009.jpg
2567.111	0.705	correct	0back	Block4	0back/STIM_010.jpg
2571.64	0.449	correct	0back	Block4	0back/STIM_010.jpg
2574.871	0.767	correct	0back	Block4	0back/STIM_010.jpg
2578.784	0.403	correct	0back	Block4	0back/STIM_011.jpg
2582.895	0.781	correct	0back	Block4	0back/STIM_011.jpg
2587.299	0.49	correct	0back	Block4	0back/STIM_011.jpg
2591.284	0.579	correct	0back	Block4	0back/STIM_012.jpg
2594.339	0.533	correct	0back	Block4	0back/STIM_012.jpg
2597.746	0.696	correct	0back	Block4	0back/STIM_012.jpg
2600.678	0.404	correct	0back	Block4	0back/STIM_013.jpg
2604.267	0.745	correct	0back	Block4	0back/STIM_013.jpg
2608.028	0.404	correct	0back	Block4	0back/STIM_013.jpg
2611.292	0.514	correct	0back	Block4	0back/STIM_014.jpg
2614.2	0.789	correct	0back	Block4	0back/STIM_014.jpg
2618.936	0.435	correct	0back	Block4	0back/STIM_014.jpg
2622.603	0.738	correct	0back	Block4	0back/STIM_015.jpg
2627.024	0.467	correct	0back	Block4	0back/STIM_015.jpg
2631.28	0.788	correct	0back	Block4	0back/STIM_015.jpg
2635.328	0.752	correct	0back	Block4	0back/STIM_016.jpg
2639.008	0.588	correct	0back	Block4	0back/STIM_016.jpg
2642.606	0.445	correct	0back	Block4	0back/STIM_016.jpg
2646.213	0.444	correct	0back	Block4	0back/STIM_017.jpg
2648.824	0.554	correct	0back	Block4	0back/STIM_017.jpg
2651.566	0.421	correct	0back	Block4	0back/STIM_017.jpg
2655.147	0.732	correct	0back	Block4	0back/STIM_018.jpg
2659.419	0.746	correct	0back	Block4	0back/STIM_018.jpg
2662.708	0.578	correct	0back	Block4	0back/STIM_018.jpg
2666.966	0.64	correct	0back	Block4	0back/STIM_019.jpg
2670.09	0.415	correct	0back	Block4	0back/STIM_019.jpg
2672.886	0.46	correct	0back	Block4	0back/STIM_019.jpg
