onset	duration	response_time_ms	trial_type	learning_stage	stimulus	response_port
0.0	1.138	1137.9	2back	Block1	2back/STIM_000.jpg	99
4.646	0.859	859.1	2back	Block1	2back/STIM_000.jpg	99
8.375	0.812	812.3	2back	Block1	2back/STIM_000.jpg	99
12.972	1.344	1344.5	2back	Block1	2back/STIM_001.jpg	100
17.927	1.275	1274.8	2back	Block1	2back/STIM_001.jpg	100
22.3	0.699	699.0	2back	Block1	2back/STIM_001.jpg	100
25.682	1.017	1016.9	2back	Block1	2back/STIM_002.jpg	100
30.646	1.18	1180.5	2back	Block1	2back/STIM_002.jpg	100
33.924	1.09	1090.1	2back	Block1	2back/STIM_002.jpg	99
38.714	1.174	1173.8	2back	Block1	2back/STIM_003.jpg	100
43.118	0.888	887.7	2back	Block1	2back/STIM_003.jpg	99
47.051	0.771	771.0	2back	Block1	2back/STIM_003.jpg	100
51.759	1.221	1221.2	2back	Block1	2back/STIM_004.jpg	100
56.89	1.214	1213.7	2back	Block1	2back/STIM_004.jpg	99
62.039	0.67	670.4	2back	Block1	2back/STIM_004.jpg	100
65.774	1.296	1295.5	2back	Block1	2back/STIM_005.jpg	99
69.347	0.677	676.8	2back	Block1	2back/STIM_005.jpg	99
72.08	1.189	1189.1	2back	Block1	2back/STIM_005.jpg	100
76.075	1.319	1319.0	2back	Block1	2back/STIM_006.jpg	100
79.428	1.186	1185.9	2back	Block1	2back/STIM_006.jpg	100
83.29	1.005	1005.3	2back	Block1	2back/STIM_006.jpg	100
87.169	0.896	896.4	2back	Block1	2back/STIM_007.jpg	100
90.706	1.052	1052.1	2back	Block1	2back/STIM_007.jpg	100
94.941	0.985	984.9	2back	Block1	2back/STIM_007.jpg	100
99.4	1.28	1279.9	2back	Block1	2back/STIM_008.jpg	99
103.191	1.161	1160.8	2back	Block1	2back/STIM_008.jpg	99
107.247	1.163	1162.8	2back	Block1	2back/STIM_008.jpg	100
111.832	0.826	826.1	2back	Block1	2back/STIM_009.jpg	100
116.403	1.255	1255.1	2back	Block1	2back/STIM_009.jpg	100
121.576	0.838	838.5	2back	Block1	2back/STIM_009.jpg	99
125.004	1.06	1059.6	2back	Block1	2back/STIM_010.jpg	99
128.088	0.891	891.1	2back	Block1	2back/STIM_010.jpg	99
132.45	0.863	862.9	2back	Block1	2back/STIM_010.jpg	99
136.308	0.614	614.3	2back	Block1	2back/STIM_011.jpg	100
139.55	1.228	1228.3	2back	Block1	2back/STIM_011.jpg	100
144.179	1.038	1038.5	2back	Block1	2back/STIM_011.jpg	99
148.462	0.936	935.9	2back	Block1	2back/STIM_012.jpg	99
152.408	0.936	935.8	2back	Block1	2back/STIM_012.jpg	100
156.625	1.01	1010.4	2back	Block1	2back/STIM_012.jpg	100
159.674	1.101	1100.8	2back	Block1	2back/STIM_013.jpg	100
164.641	1.297	1297.1	2back	Block1	2back/STIM_013.jpg	100
168.964	1.009	1008.8	2back	Block1	2back/STIM_013.jpg	100
172.114	0.722	722.3	2back	Block1	2back/STIM_014.jpg	100
176.512	0.97	970.0	2back	Block1	2back/STIM_014.jpg	99
180.881	0.597	597.1	2back	Block1	2back/STIM_014.jpg	100
184.084	1.357	1356.8	2back	Block1	2back/STIM_015.jpg	100
188.135	0.692	692.1	2back	Block1	2back/STIM_015.jpg	99
191.78	1.223	1223.0	2back	Block1	2back/STIM_015.jpg	100
195.552	1.236	1236.5	2back	Block1	2back/STIM_016.jpg	100
200.198	1.057	1057.0	2back	Block1	2back/STIM_016.jpg	100
204.644	0.594	593.9	2back	Block1	2back/STIM_016.jpg	99
208.69	1.233	1232.6	2back	Block1	2back/STIM_017.jpg	100
213.7	1.08	1080.2	2back	Block1	2back/STIM_017.jpg	100
217.422	0.904	904.5	2back	Block1	2back/STIM_017.jpg	100
220.597	1.114	1114.3	2back	Block1	2back/STIM_018.jpg	99
224.606	0.67	669.9	2back	Block1	2back/STIM_018.jpg	99
228.061	0.764	763.8	2back	Block1	2back/STIM_018.jpg	100
232.501	0.738	737.8	2back	Block1	2back/STIM_019.jpg	99
235.452	1.258	1257.7	2back	Block1	2back/STIM_019.jpg	99
240.14	1.053	1052.7	2back	Block1	2back/STIM_019.jpg	99
245.108	0.941	941.1	2back	Block1	2back/STIM_020.jpg	99
248.497	1.244	1244.0	2back	Block1	2back/STIM_020.jpg	99
252.667	0.629	628.8	2back	Block1	2back/STIM_020.jpg	100
257.157	1.28	1280.5	2back	Block1	2back/STIM_021.jpg	99
262.032	0.767	767.4	2back	Block1	2back/STIM_021.jpg	99
266.264	0.901	901.4	2back	Block1	2back/STIM_021.jpg	100
270.638	1.029	1029.1	2back	Block1	2back/STIM_022.jpg	100
273.687	1.056	1055.7	2back	Block1	2back/STIM_022.jpg	99
277.678	1.047	1047.0	2back	Block1	2back/STIM_022.jpg	100
282.435	1.145	1144.8	2back	Block1	2back/STIM_023.jpg	100
286.765	1.182	1181.8	2back	Block1	2back/STIM_023.jpg	100
290.839	0.758	757.6	2back	Block1	2back/STIM_023.jpg	100
295.474	1.19	1190.4	2back	Block1	2back/STIM_024.jpg	100
300.664	1.067	1066.9	2back	Block1	2back/STIM_024.jpg	99
304.838	1.161	1160.8	2back	Block1	2back/STIM_024.jpg	100
308.827	1.379	1379.1	2back	Block1	2back/STIM_025.jpg	99
312.72	0.885	884.7	2back	Block1	2back/STIM_025.jpg	100
315.994	0.857	857.0	2back	Block1	2back/STIM_025.jpg	100
319.455	1.189	1189.1	2back	Block1	2back/STIM_026.jpg	99
322.671	1.21	1210.4	2back	Block1	2back/STIM_026.jpg	99
326.937	0.589	588.8	2back	Block1	2back/STIM_026.jpg	100
331.117	1.151	1151.1	2back	Block1	2back/STIM_027.jpg	100
335.241	0.838	838.5	2back	Block1	2back/STIM_027.jpg	99
339.653	0.672	672.1	2back	Block1	2back/STIM_027.jpg	100
343.392	0.695	695.4	2back	Block1	2back/STIM_028.jpg	99
346.77	0.864	864.4	2back	Block1	2back/STIM_028.jpg	99
350.484	0.702	702.0	2back	Block1	2back/STIM_028.jpg	100
354.024	0.996	996.5	2back	Block1	2back/STIM_029.jpg	99
358.542	0.663	662.6	2back	Block1	2back/STIM_029.jpg	100
361.734	0.836	836.0	2back	Block1	2back/STIM_029.jpg	99
365.808	1.302	1302.3	2back	Block1	2back/STIM_030.jpg	99
370.421	1.261	1261.4	2back	Block1	2back/STIM_030.jpg	100
374.986	1.105	1105.1	2back	Block1	2back/STIM_030.jpg	99
379.428	0.827	826.8	2back	Block1	2back/STIM_031.jpg	99
382.735	1.259	1259.3	2back	Block1	2back/STIM_031.jpg	99
386.772	0.722	721.9	2back	Block1	2back/STIM_031.jpg	99
389.988	0.992	991.6	2back	Block1	2back/STIM_032.jpg	100
393.84	0.696	695.7	2back	Block1	2back/STIM_032.jpg	99
397.173	0.742	741.7	2back	Block1	2back/STIM_032.jpg	99
400.761	0.765	764.8	2back	Block1	2back/STIM_033.jpg	100
404.478	0.648	648.0	2back	Block1	2back/STIM_033.jpg	99
408.837	1.179	1179.0	2back	Block1	2back/STIM_033.jpg	99
412.385	1.177	1177.4	2back	Block1	2back/STIM_034.jpg	99
415.831	0.6	600.5	2back	Block1	2back/STIM_034.jpg	99
419.885	1.216	1216.2	2back	Block1	2back/STIM_034.jpg	100
424.362	0.981	981.3	2back	Block1	2back/STIM_035.jpg	99
428.655	0.92	919.9	2back	Block1	2back/STIM_035.jpg	100
433.077	1.154	1154.4	2back	Block1	2back/STIM_035.jpg	100
437.342	0.664	663.8	2back	Block1	2back/STIM_036.jpg	100
441.173	0.749	749.0	2back	Block1	2back/STIM_036.jpg	100
444.966	0.715	714.6	2back	Block1	2back/STIM_036.jpg	99
449.546	1.097	1097.2	2back	Block1	2back/STIM_037.jpg	99
453.236	0.874	873.9	2back	Block1	2back/STIM_037.jpg	99
457.203	0.624	624.3	2back	Block1	2back/STIM_037.jpg	99
461.592	1.285	1284.6	2back	Block1	2back/STIM_038.jpg	100
466.845	0.711	711.4	2back	Block1	2back/STIM_038.jpg	100
470.13	0.968	968.3	2back	Block1	2back/STIM_038.jpg	99
473.357	1.214	1213.5	2back	Block1	2back/STIM_039.jpg	99
477.611	1.199	1199.0	2back	Block1	2back/STIM_039.jpg	100
481.426	0.551	551.2	2back	Block1	2back/STIM_039.jpg	99
484.837	0.534	533.7	0back	Block1	0back/STIM_000.jpg	100
487.735	0.513	512.8	0back	Block1	0back/STIM_000.jpg	99
490.68	0.476	476.0	0back	Block1	0back/STIM_000.jpg	99
494.199	0.519	519.4	0back	Block1	0back/STIM_001.jpg	99
496.972	0.656	656.1	0back	Block1	0back/STIM_001.jpg	99
500.854	0.527	527.0	0back	Block1	0back/STIM_001.jpg	100
504.786	0.699	698.8	0back	Block1	0back/STIM_002.jpg	100
507.702	0.589	588.9	0back	Block1	0back/STIM_002.jpg	100
511.135	0.466	465.9	0back	Block1	0back/STIM_002.jpg	100
514.671	0.719	718.8	0back	Block1	0back/STIM_003.jpg	100
518.633	0.691	690.6	0back	Block1	0back/STIM_003.jpg	99
521.478	0.692	692.4	0back	Block1	0back/STIM_003.jpg	99
524.72	0.685	684.6	0back	Block1	0back/STIM_004.jpg	100
528.157	0.629	629.4	0back	Block1	0back/STIM_004.jpg	100
532.207	0.521	521.2	0back	Block1	0back/STIM_004.jpg	99
535.029	0.735	735.1	0back	Block1	0back/STIM_005.jpg	99
538.882	0.424	424.4	0back	Block1	0back/STIM_005.jpg	100
542.218	0.536	535.9	0back	Block1	0back/STIM_005.jpg	100
545.283	0.641	641.4	0back	Block1	0back/STIM_006.jpg	100
548.685	0.662	662.1	0back	Block1	0back/STIM_006.jpg	100
551.652	0.416	416.2	0back	Block1	0back/STIM_006.jpg	100
554.912	0.784	784.5	0back	Block1	0back/STIM_007.jpg	99
559.103	0.542	542.5	0back	Block1	0back/STIM_007.jpg	99
562.65	0.772	771.5	0back	Block1	0back/STIM_007.jpg	99
566.853	0.764	763.8	0back	Block1	0back/STIM_008.jpg	99
571.479	0.683	683.1	0back	Block1	0back/STIM_008.jpg	99
575.35	0.582	581.7	0back	Block1	0back/STIM_008.jpg	99
579.757	0.467	466.9	0back	Block1	0back/STIM_009.jpg	99
582.68	0.398	397.7	0back	Block1	0back/STIM_009.jpg	99
586.17	0.516	516.2	0back	Block1	0back/STIM_009.jpg	99
590.196	0.766	766.4	0back	Block1	0back/STIM_010.jpg	100
594.486	0.646	646.5	0back	Block1	0back/STIM_010.jpg	99
598.335	0.708	707.7	0back	Block1	0back/STIM_010.jpg	100
601.21	0.445	445.3	0back	Block1	0back/STIM_011.jpg	100
604.854	0.74	739.6	0back	Block1	0back/STIM_011.jpg	99
608.583	0.774	774.3	0back	Block1	0back/STIM_011.jpg	100
611.662	0.546	546.5	0back	Block1	0back/STIM_012.jpg	100
614.268	0.464	464.0	0back	Block1	0back/STIM_012.jpg	100
617.306	0.594	594.3	0back	Block1	0back/STIM_012.jpg	99
621.736	0.537	536.8	0back	Block1	0back/STIM_013.jpg	99
624.495	0.561	561.1	0back	Block1	0back/STIM_013.jpg	100
628.155	0.62	620.0	0back	Block1	0back/STIM_013.jpg	99
631.41	0.601	600.9	0back	Block1	0back/STIM_014.jpg	99
635.47	0.615	615.4	0back	Block1	0back/STIM_014.jpg	99
638.349	0.424	423.9	0back	Block1	0back/STIM_014.jpg	100
641.281	0.459	458.7	0back	Block1	0back/STIM_015.jpg	100
645.472	0.526	525.7	0back	Block1	0back/STIM_015.jpg	99
649.9	0.757	756.7	0back	Block1	0back/STIM_015.jpg	100
654.054	0.628	627.8	0back	Block1	0back/STIM_016.jpg	100
657.09	0.464	463.6	0back	Block1	0back/STIM_016.jpg	99
659.611	0.397	397.2	0back	Block1	0back/STIM_016.jpg	100
663.944	0.396	396.1	0back	Block1	0back/STIM_017.jpg	100
667.248	0.665	664.6	0back	Block1	0back/STIM_017.jpg	100
670.386	0.438	438.3	0back	Block1	0back/STIM_017.jpg	99
672.977	0.65	650.5	0back	Block1	0back/STIM_018.jpg	100
675.744	0.76	760.2	0back	Block1	0back/STIM_018.jpg	99
679.334	0.451	451.3	0back	Block1	0back/STIM_018.jpg	100
682.432	0.658	657.6	0back	Block1	0back/STIM_019.jpg	100
685.401	0.475	475.1	0back	Block1	0back/STIM_019.jpg	99
689.432	0.684	684.4	0back	Block1	0back/STIM_019.jpg	100
693.664	0.67	670.1	2back	Block2	2back/STIM_000.jpg	99
696.763	0.742	741.7	2back	Block2	2back/STIM_000.jpg	100
699.62	0.865	865.3	2back	Block2	2back/STIM_000.jpg	100
703.684	1.011	1011.3	2back	Block2	2back/STIM_001.jpg	100
707.399	0.474	474.4	2back	Block2	2back/STIM_001.jpg	100
711.55	0.544	544.3	2back	Block2	2back/STIM_001.jpg	100
715.966	0.846	845.9	2back	Block2	2back/STIM_002.jpg	100
719.217	0.901	900.8	2back	Block2	2back/STIM_002.jpg	99
723.432	0.468	467.7	2back	Block2	2back/STIM_002.jpg	100
726.183	1.056	1056.0	2back	Block2	2back/STIM_003.jpg	99
729.497	0.564	563.6	2back	Block2	2back/STIM_003.jpg	100
733.049	0.509	508.7	2back	Block2	2back/STIM_003.jpg	100
737.232	0.976	976.5	2back	Block2	2back/STIM_004.jpg	100
740.631	1.003	1002.7	2back	Block2	2back/STIM_004.jpg	100
745.457	0.772	772.5	2back	Block2	2back/STIM_004.jpg	100
748.638	0.555	555.0	2back	Block2	2back/STIM_005.jpg	100
751.276	0.794	794.4	2back	Block2	2back/STIM_005.jpg	99
754.856	0.673	673.2	2back	Block2	2back/STIM_005.jpg	100
758.454	0.739	739.1	2back	Block2	2back/STIM_006.jpg	99
761.467	0.493	492.9	2back	Block2	2back/STIM_006.jpg	99
765.651	0.603	603.4	2back	Block2	2back/STIM_006.jpg	99
770.031	0.681	681.3	2back	Block2	2back/STIM_007.jpg	100
772.867	0.564	564.4	2back	Block2	2back/STIM_007.jpg	99
776.965	0.959	959.0	2back	Block2	2back/STIM_007.jpg	100
780.686	1.093	1092.9	2back	Block2	2back/STIM_008.jpg	99
784.69	0.754	753.8	2back	Block2	2back/STIM_008.jpg	99
788.761	0.768	768.0	2back	Block2	2back/STIM_008.jpg	100
791.631	1.046	1046.5	2back	Block2	2back/STIM_009.jpg	99
796.244	0.828	828.4	2back	Block2	2back/STIM_009.jpg	100
800.756	0.919	919.1	2back	Block2	2back/STIM_009.jpg	100
803.91	1.104	1103.8	2back	Block2	2back/STIM_010.jpg	99
808.596	0.79	789.6	2back	Block2	2back/STIM_010.jpg	100
812.204	0.975	975.3	2back	Block2	2back/STIM_010.jpg	99
816.155	0.784	783.7	2back	Block2	2back/STIM_011.jpg	100
820.275	0.997	996.9	2back	Block2	2back/STIM_011.jpg	99
824.603	0.758	757.7	2back	Block2	2back/STIM_011.jpg	99
828.364	1.088	1088.4	2back	Block2	2back/STIM_012.jpg	100
832.927	0.711	710.9	2back	Block2	2back/STIM_012.jpg	100
835.784	0.567	566.8	2back	Block2	2back/STIM_012.jpg	99
838.63	0.547	546.7	2back	Block2	2back/STIM_013.jpg	100
842.801	0.569	568.9	2back	Block2	2back/STIM_013.jpg	99
847.206	0.483	482.8	2back	Block2	2back/STIM_013.jpg	100
850.213	0.662	661.9	2back	Block2	2back/STIM_014.jpg	100
853.93	0.888	888.1	2back	Block2	2back/STIM_014.jpg	100
856.881	0.67	670.1	2back	Block2	2back/STIM_014.jpg	100
859.663	0.842	842.5	2back	Block2	2back/STIM_015.jpg	100
864.514	0.854	853.9	2back	Block2	2back/STIM_015.jpg	100
868.255	0.721	721.2	2back	Block2	2back/STIM_015.jpg	100
872.478	0.806	805.8	2back	Block2	2back/STIM_016.jpg	100
875.83	1.014	1013.9	2back	Block2	2back/STIM_016.jpg	100
879.267	0.594	593.7	2back	Block2	2back/STIM_016.jpg	99
882.916	1.0	999.6	2back	Block2	2back/STIM_017.jpg	100
887.582	0.915	914.6	2back	Block2	2back/STIM_017.jpg	100
891.933	0.682	681.5	2back	Block2	2back/STIM_017.jpg	99
895.938	0.908	908.2	2back	Block2	2back/STIM_018.jpg	99
900.697	0.946	946.0	2back	Block2	2back/STIM_018.jpg	99
905.235	0.526	525.5	2back	Block2	2back/STIM_018.jpg	100
909.079	0.551	551.3	2back	Block2	2back/STIM_019.jpg	100
911.763	1.016	1016.2	2back	Block2	2back/STIM_019.jpg	100
915.157	0.51	510.0	2back	Block2	2back/STIM_019.jpg	99
918.432	0.569	568.9	2back	Block2	2back/STIM_020.jpg	100
921.934	1.062	1061.9	2back	Block2	2back/STIM_020.jpg	100
926.54	0.641	641.1	2back	Block2	2back/STIM_020.jpg	99
930.299	1.028	1027.8	2back	Block2	2back/STIM_021.jpg	100
933.492	0.504	504.3	2back	Block2	2back/STIM_021.jpg	99
937.633	1.0	999.9	2back	Block2	2back/STIM_021.jpg	99
942.031	0.734	734.0	2back	Block2	2back/STIM_022.jpg	100
945.292	1.058	1057.6	2back	Block2	2back/STIM_022.jpg	100
949.226	0.903	902.7	2back	Block2	2back/STIM_022.jpg	100
952.428	0.734	734.1	2back	Block2	2back/STIM_023.jpg	100
955.964	0.797	797.0	2back	Block2	2back/STIM_023.jpg	100
959.421	0.454	453.5	2back	Block2	2back/STIM_023.jpg	99
963.873	0.875	874.7	2back	Block2	2back/STIM_024.jpg	100
967.767	1.026	1025.7	2back	Block2	2back/STIM_024.jpg	100
970.989	0.605	604.6	2back	Block2	2back/STIM_024.jpg	99
974.936	0.738	737.6	2back	Block2	2back/STIM_025.jpg	100
978.751	0.571	571.4	2back	Block2	2back/STIM_025.jpg	99
982.054	0.799	799.1	2back	Block2	2back/STIM_025.jpg	100
986.795	0.742	742.5	2back	Block2	2back/STIM_026.jpg	99
990.645	0.89	889.6	2back	Block2	2back/STIM_026.jpg	99
995.164	0.893	892.8	2back	Block2	2back/STIM_026.jpg	99
998.966	0.989	988.8	2back	Block2	2back/STIM_027.jpg	99
1003.715	0.578	578.5	2back	Block2	2back/STIM_027.jpg	99
1007.465	0.85	849.5	2back	Block2	2back/STIM_027.jpg	99
1010.618	0.87	870.3	2back	Block2	2back/STIM_028.jpg	100
1013.971	1.03	1029.8	2back	Block2	2back/STIM_028.jpg	100
1018.239	1.018	1018.3	2back	Block2	2back/STIM_028.jpg	100
1022.222	0.907	906.6	2back	Block2	2back/STIM_029.jpg	99
1026.851	0.551	551.1	2back	Block2	2back/STIM_029.jpg	100
1029.955	0.637	637.3	2back	Block2	2back/STIM_029.jpg	99
1033.337	0.903	902.9	2back	Block2	2back/STIM_030.jpg	99
1036.632	0.694	693.8	2back	Block2	2back/STIM_030.jpg	99
1040.619	0.524	524.1	2back	Block2	2back/STIM_030.jpg	100
1043.494	1.038	1037.8	2back	Block2	2back/STIM_031.jpg	100
1048.084	0.92	920.5	2back	Block2	2back/STIM_031.jpg	100
1051.508	0.7	699.7	2back	Block2	2back/STIM_031.jpg	100
1054.244	0.854	854.4	2back	Block2	2back/STIM_032.jpg	100
1057.115	0.981	981.4	2back	Block2	2back/STIM_032.jpg	99
1060.113	0.542	542.1	2back	Block2	2back/STIM_032.jpg	100
1062.982	0.546	545.6	2back	Block2	2back/STIM_033.jpg	99
1066.551	0.578	578.3	2back	Block2	2back/STIM_033.jpg	100
1070.831	0.824	823.6	2back	Block2	2back/STIM_033.jpg	99
1074.211	1.065	1065.4	2back	Block2	2back/STIM_034.jpg	99
1077.636	0.566	566.3	2back	Block2	2back/STIM_034.jpg	99
1080.827	0.79	789.6	2back	Block2	2back/STIM_034.jpg	100
1085.402	0.599	599.1	2back	Block2	2back/STIM_035.jpg	100
1088.305	0.907	906.9	2back	Block2	2back/STIM_035.jpg	100
1091.888	0.971	971.4	2back	Block2	2back/STIM_035.jpg	100
1095.707	0.715	714.8	2back	Block2	2back/STIM_036.jpg	99
1099.677	0.752	751.6	2back	Block2	2back/STIM_036.jpg	100
1103.223	0.706	706.2	2back	Block2	2back/STIM_036.jpg	99
1107.289	0.6	600.3	2back	Block2	2back/STIM_037.jpg	99
1110.883	0.79	789.6	2back	Block2	2back/STIM_037.jpg	99
1115.554	0.464	464.2	2back	Block2	2back/STIM_037.jpg	100
1119.802	0.528	528.5	2back	Block2	2back/STIM_038.jpg	99
1123.731	0.758	758.3	2back	Block2	2back/STIM_038.jpg	99
1127.993	0.575	575.3	2back	Block2	2back/STIM_038.jpg	100
1130.666	1.145	1144.9	2back	Block2	2back/STIM_039.jpg	100
1134.982	0.632	632.4	2back	Block2	2back/STIM_039.jpg	99
1138.081	0.944	944.1	2back	Block2	2back/STIM_039.jpg	99
1141.447	0.549	549.0	0back	Block2	0back/STIM_000.jpg	100
1144.561	0.714	714.3	0back	Block2	0back/STIM_000.jpg	99
1149.281	0.743	743.3	0back	Block2	0back/STIM_000.jpg	100
1152.899	0.576	575.6	0back	Block2	0back/STIM_001.jpg	100
1156.505	0.42	420.3	0back	Block2	0back/STIM_001.jpg	99
1159.847	0.701	701.1	0back	Block2	0back/STIM_001.jpg	100
1164.446	0.664	663.5	0back	Block2	0back/STIM_002.jpg	99
1168.486	0.598	597.6	0back	Block2	0back/STIM_002.jpg	99
1172.704	0.734	733.7	0back	Block2	0back/STIM_002.jpg	100
1176.072	0.515	515.1	0back	Block2	0back/STIM_003.jpg	100
1178.799	0.668	668.5	0back	Block2	0back/STIM_003.jpg	100
1182.783	0.524	524.3	0back	Block2	0back/STIM_003.jpg	99
1185.373	0.638	637.5	0back	Block2	0back/STIM_004.jpg	99
1189.462	0.436	435.7	0back	Block2	0back/STIM_004.jpg	99
1192.088	0.574	574.0	0back	Block2	0back/STIM_004.jpg	100
1195.323	0.464	463.8	0back	Block2	0back/STIM_005.jpg	100
1197.923	0.558	558.1	0back	Block2	0back/STIM_005.jpg	99
1200.983	0.608	608.5	0back	Block2	0back/STIM_005.jpg	99
1204.978	0.774	774.3	0back	Block2	0back/STIM_006.jpg	99
1209.703	0.572	571.8	0back	Block2	0back/STIM_006.jpg	99
1213.65	0.62	620.0	0back	Block2	0back/STIM_006.jpg	100
1217.003	0.496	495.6	0back	Block2	0back/STIM_007.jpg	100
1219.93	0.454	453.6	0back	Block2	0back/STIM_007.jpg	99
1222.8	0.661	660.8	0back	Block2	0back/STIM_007.jpg	100
1226.024	0.401	400.9	0back	Block2	0back/STIM_008.jpg	99
1229.991	0.461	460.6	0back	Block2	0back/STIM_008.jpg	100
1233.725	0.481	481.4	0back	Block2	0back/STIM_008.jpg	99
1238.003	0.668	667.7	0back	Block2	0back/STIM_009.jpg	99
1241.311	0.489	488.6	0back	Block2	0back/STIM_009.jpg	100
1244.929	0.424	423.8	0back	Block2	0back/STIM_009.jpg	100
1249.165	0.754	754.5	0back	Block2	0back/STIM_010.jpg	100
1252.81	0.396	396.4	0back	Block2	0back/STIM_010.jpg	100
1255.375	0.596	596.0	0back	Block2	0back/STIM_010.jpg	99
1258.273	0.713	713.4	0back	Block2	0back/STIM_011.jpg	100
1261.604	0.712	712.5	0back	Block2	0back/STIM_011.jpg	100
1265.125	0.436	435.8	0back	Block2	0back/STIM_011.jpg	99
1268.631	0.532	532.4	0back	Block2	0back/STIM_012.jpg	100
1271.286	0.626	626.0	0back	Block2	0back/STIM_012.jpg	99
1275.625	0.706	706.1	0back	Block2	0back/STIM_012.jpg	99
1279.665	0.569	569.2	0back	Block2	0back/STIM_013.jpg	100
1282.618	0.699	699.4	0back	Block2	0back/STIM_013.jpg	100
1286.367	0.592	592.4	0back	Block2	0back/STIM_013.jpg	100
1290.013	0.478	477.8	0back	Block2	0back/STIM_014.jpg	100
1293.017	0.55	549.6	0back	Block2	0back/STIM_014.jpg	99
1297.545	0.668	667.9	0back	Block2	0back/STIM_014.jpg	100
1301.006	0.609	608.7	0back	Block2	0back/STIM_015.jpg	100
1305.048	0.655	655.1	0back	Block2	0back/STIM_015.jpg	99
1309.039	0.46	460.0	0back	Block2	0back/STIM_015.jpg	99
1312.369	0.649	649.4	0back	Block2	0back/STIM_016.jpg	100
1316.194	0.631	630.9	0back	Block2	0back/STIM_016.jpg	99
1319.171	0.734	733.8	0back	Block2	0back/STIM_016.jpg	99
1323.315	0.519	518.6	0back	Block2	0back/STIM_017.jpg	99
1327.085	0.547	546.7	0back	Block2	0back/STIM_017.jpg	99
1329.887	0.441	440.9	0back	Block2	0back/STIM_017.jpg	99
1334.27	0.445	445.1	0back	Block2	0back/STIM_018.jpg	99
1338.606	0.501	501.4	0back	Block2	0back/STIM_018.jpg	100
1341.787	0.72	719.5	0back	Block2	0back/STIM_018.jpg	100
1345.421	0.463	463.1	0back	Block2	0back/STIM_019.jpg	100
1349.295	0.471	470.6	0back	Block2	0back/STIM_019.jpg	99
1353.363	0.62	619.8	0back	Block2	0back/STIM_019.jpg	99
1357.298	0.629	629.0	2back	Block3	2back/STIM_000.jpg	99
1360.857	0.588	588.1	2back	Block3	2back/STIM_000.jpg	99
1365.377	0.625	625.0	2back	Block3	2back/STIM_000.jpg	100
1368.979	0.965	964.9	2back	Block3	2back/STIM_001.jpg	100
1372.1	0.617	616.8	2back	Block3	2back/STIM_001.jpg	100
1376.645	0.93	930.3	2back	Block3	2back/STIM_001.jpg	99
1381.11	0.522	521.7	2back	Block3	2back/STIM_002.jpg	100
1383.808	0.591	590.8	2back	Block3	2back/STIM_002.jpg	99
1387.255	0.666	665.9	2back	Block3	2back/STIM_002.jpg	99
1391.539	0.646	645.6	2back	Block3	2back/STIM_003.jpg	100
1396.014	0.958	958.4	2back	Block3	2back/STIM_003.jpg	100
1399.555	0.574	574.2	2back	Block3	2back/STIM_003.jpg	99
1404.012	0.567	567.3	2back	Block3	2back/STIM_004.jpg	99
1407.804	0.838	838.3	2back	Block3	2back/STIM_004.jpg	99
1412.466	0.908	908.3	2back	Block3	2back/STIM_004.jpg	100
1417.267	0.734	733.9	2back	Block3	2back/STIM_005.jpg	99
1420.014	0.901	901.4	2back	Block3	2back/STIM_005.jpg	99
1423.601	0.53	529.7	2back	Block3	2back/STIM_005.jpg	99
1426.533	0.512	512.2	2back	Block3	2back/STIM_006.jpg	99
1429.523	0.653	653.0	2back	Block3	2back/STIM_006.jpg	100
1433.69	0.585	584.7	2back	Block3	2back/STIM_006.jpg	99
1437.727	0.586	585.9	2back	Block3	2back/STIM_007.jpg	99
1442.008	0.625	624.9	2back	Block3	2back/STIM_007.jpg	100
1445.132	0.881	881.1	2back	Block3	2back/STIM_007.jpg	100
1448.235	0.609	609.4	2back	Block3	2back/STIM_008.jpg	99
1451.855	0.509	509.5	2back	Block3	2back/STIM_008.jpg	99
1454.615	0.834	834.4	2back	Block3	2back/STIM_008.jpg	99
1457.676	0.899	898.7	2back	Block3	2back/STIM_009.jpg	100
1461.477	0.729	729.0	2back	Block3	2back/STIM_009.jpg	99
1466.183	0.517	517.0	2back	Block3	2back/STIM_009.jpg	99
1468.899	0.611	611.2	2back	Block3	2back/STIM_010.jpg	100
1473.454	0.622	622.2	2back	Block3	2back/STIM_010.jpg	99
1477.0	0.804	803.5	2back	Block3	2back/STIM_010.jpg	99
1481.711	0.815	814.9	2back	Block3	2back/STIM_011.jpg	99
1484.691	0.717	717.2	2back	Block3	2back/STIM_011.jpg	100
1487.679	0.593	593.0	2back	Block3	2back/STIM_011.jpg	100
1491.457	0.767	767.4	2back	Block3	2back/STIM_012.jpg	100
1494.633	0.499	499.0	2back	Block3	2back/STIM_012.jpg	100
1497.171	0.62	620.4	2back	Block3	2back/STIM_012.jpg	100
1499.955	0.738	738.5	2back	Block3	2back/STIM_013.jpg	99
1504.673	0.951	951.4	2back	Block3	2back/STIM_013.jpg	99
1507.803	0.669	669.0	2back	Block3	2back/STIM_013.jpg	99
1511.262	0.427	426.6	2back	Block3	2back/STIM_014.jpg	99
1515.511	0.473	473.1	2back	Block3	2back/STIM_014.jpg	99
1518.277	0.841	841.1	2back	Block3	2back/STIM_014.jpg	99
1521.309	0.947	947.3	2back	Block3	2back/STIM_015.jpg	100
1526.165	0.663	662.7	2back	Block3	2back/STIM_015.jpg	100
1528.845	0.577	577.0	2back	Block3	2back/STIM_015.jpg	100
1532.115	0.718	718.4	2back	Block3	2back/STIM_016.jpg	99
1536.246	0.608	607.5	2back	Block3	2back/STIM_016.jpg	99
1539.157	0.949	949.0	2back	Block3	2back/STIM_016.jpg	99
1543.445	0.531	530.9	2back	Block3	2back/STIM_017.jpg	99
1546.393	0.807	807.2	2back	Block3	2back/STIM_017.jpg	100
1550.15	0.952	951.8	2back	Block3	2back/STIM_017.jpg	99
1554.285	0.625	625.3	2back	Block3	2back/STIM_018.jpg	99
1557.06	0.705	705.4	2back	Block3	2back/STIM_018.jpg	100
1560.347	0.84	839.9	2back	Block3	2back/STIM_018.jpg	99
1564.496	0.966	966.5	2back	Block3	2back/STIM_019.jpg	99
1568.311	0.57	570.2	2back	Block3	2back/STIM_019.jpg	100
1571.295	0.954	954.3	2back	Block3	2back/STIM_019.jpg	100
1574.882	0.723	722.6	2back	Block3	2back/STIM_020.jpg	99
1578.171	0.488	487.7	2back	Block3	2back/STIM_020.jpg	100
1580.834	0.648	647.7	2back	Block3	2back/STIM_020.jpg	99
1584.367	0.762	762.0	2back	Block3	2back/STIM_021.jpg	99
1587.862	0.714	713.8	2back	Block3	2back/STIM_021.jpg	99
1591.764	0.899	899.1	2back	Block3	2back/STIM_021.jpg	100
1595.795	0.493	493.4	2back	Block3	2back/STIM_022.jpg	99
1599.097	0.902	901.7	2back	Block3	2back/STIM_022.jpg	99
1603.053	0.927	927.4	2back	Block3	2back/STIM_022.jpg	100
1607.77	0.747	747.3	2back	Block3	2back/STIM_023.jpg	100
1611.273	0.942	942.3	2back	Block3	2back/STIM_023.jpg	99
1614.674	0.922	922.0	2back	Block3	2back/STIM_023.jpg	99
1619.115	0.712	712.5	2back	Block3	2back/STIM_024.jpg	99
1622.109	0.87	870.5	2back	Block3	2back/STIM_024.jpg	100
1626.314	0.897	897.2	2back	Block3	2back/STIM_024.jpg	99
1629.637	0.745	745.0	2back	Block3	2back/STIM_025.jpg	99
1632.902	0.609	609.4	2back	Block3	2back/STIM_025.jpg	99
1636.136	0.548	548.4	2back	Block3	2back/STIM_025.jpg	100
1639.161	0.535	535.1	2back	Block3	2back/STIM_026.jpg	99
1642.074	0.732	732.2	2back	Block3	2back/STIM_026.jpg	100
1645.053	0.815	814.6	2back	Block3	2back/STIM_026.jpg	99
1649.207	0.67	669.9	2back	Block3	2back/STIM_027.jpg	100
1652.629	0.522	521.8	2back	Block3	2back/STIM_027.jpg	100
1655.946	0.695	694.6	2back	Block3	2back/STIM_027.jpg	100
1660.011	0.708	707.8	2back	Block3	2back/STIM_028.jpg	100
1663.739	0.536	536.0	2back	Block3	2back/STIM_028.jpg	100
1666.815	0.91	910.3	2back	Block3	2back/STIM_028.jpg	99
1671.127	0.487	486.8	2back	Block3	2back/STIM_029.jpg	99
1675.006	0.89	890.2	2back	Block3	2back/STIM_029.jpg	100
1679.137	0.896	896.1	2back	Block3	2back/STIM_029.jpg	100
1683.676	0.482	481.6	2back	Block3	2back/STIM_030.jpg	99
1686.939	0.56	560.2	2back	Block3	2back/STIM_030.jpg	99
1690.451	0.728	727.7	2back	Block3	2back/STIM_030.jpg	99
1693.985	0.816	815.8	2back	Block3	2back/STIM_031.jpg	100
1698.199	0.611	611.3	2back	Block3	2back/STIM_031.jpg	99
1702.193	0.915	914.9	2back	Block3	2back/STIM_031.jpg	99
1706.649	0.964	963.6	2back	Block3	2back/STIM_032.jpg	100
1710.1	0.591	590.7	2back	Block3	2back/STIM_032.jpg	100
1712.968	0.719	719.0	2back	Block3	2back/STIM_032.jpg	100
1716.581	0.424	423.5	2back	Block3	2back/STIM_033.jpg	99
1720.68	0.579	579.0	2back	Block3	2back/STIM_033.jpg	100
1724.944	0.841	841.3	2back	Block3	2back/STIM_033.jpg	100
1728.125	0.633	633.4	2back	Block3	2back/STIM_034.jpg	99
1732.473	0.801	800.6	2back	Block3	2back/STIM_034.jpg	99
1735.453	0.421	421.3	2back	Block3	2back/STIM_034.jpg	100
1737.984	0.51	510.0	2back	Block3	2back/STIM_035.jpg	99
1740.756	0.559	558.8	2back	Block3	2back/STIM_035.jpg	99
1744.504	0.465	464.7	2back	Block3	2back/STIM_035.jpg	100
1747.642	0.696	696.4	2back	Block3	2back/STIM_036.jpg	100
1750.713	0.953	952.8	2back	Block3	2back/STIM_036.jpg	100
1754.173	0.671	671.4	2back	Block3	2back/STIM_036.jpg	99
1758.366	0.584	583.6	2back	Block3	2back/STIM_037.jpg	99
1762.039	0.505	504.7	2back	Block3	2back/STIM_037.jpg	99
1766.189	0.598	598.4	2back	Block3	2back/STIM_037.jpg	99
1769.597	0.706	705.7	2back	Block3	2back/STIM_038.jpg	100
1772.895	0.719	719.0	2back	Block3	2back/STIM_038.jpg	100
1775.645	0.678	678.1	2back	Block3	2back/STIM_038.jpg	99
1778.481	0.458	457.7	2back	Block3	2back/STIM_039.jpg	99
1781.86	0.75	749.8	2back	Block3	2back/STIM_039.jpg	99
1786.508	0.516	516.0	2back	Block3	2back/STIM_039.jpg	100
1789.439	0.566	566.4	0back	Block3	0back/STIM_000.jpg	99
1792.095	0.581	581.3	0back	Block3	0back/STIM_000.jpg	99
1796.644	0.417	417.0	0back	Block3	0back/STIM_000.jpg	100
1799.515	0.522	521.5	0back	Block3	0back/STIM_001.jpg	99
1802.818	0.678	677.6	0back	Block3	0back/STIM_001.jpg	100
1807.141	0.736	735.6	0back	Block3	0back/STIM_001.jpg	100
1810.806	0.683	683.0	0back	Block3	0back/STIM_002.jpg	100
1815.238	0.745	744.6	0back	Block3	0back/STIM_002.jpg	99
1818.136	0.653	652.9	0back	Block3	0back/STIM_002.jpg	100
1822.15	0.568	568.4	0back	Block3	0back/STIM_003.jpg	100
1825.266	0.702	702.4	0back	Block3	0back/STIM_003.jpg	100
1828.765	0.651	650.8	0back	Block3	0back/STIM_003.jpg	99
1831.89	0.658	657.7	0back	Block3	0back/STIM_004.jpg	100
1834.751	0.45	450.3	0back	Block3	0back/STIM_004.jpg	100
1837.348	0.561	560.9	0back	Block3	0back/STIM_004.jpg	99
1840.522	0.588	588.1	0back	Block3	0back/STIM_005.jpg	100
1845.017	0.625	625.3	0back	Block3	0back/STIM_005.jpg	100
1848.474	0.419	418.6	0back	Block3	0back/STIM_005.jpg	99
1852.872	0.669	669.4	0back	Block3	0back/STIM_006.jpg	100
1857.219	0.691	691.2	0back	Block3	0back/STIM_006.jpg	100
1860.52	0.674	673.8	0back	Block3	0back/STIM_006.jpg	100
1863.948	0.545	545.0	0back	Block3	0back/STIM_007.jpg	99
1868.204	0.426	426.0	0back	Block3	0back/STIM_007.jpg	100
1872.082	0.465	464.9	0back	Block3	0back/STIM_007.jpg	99
1876.272	0.549	548.6	0back	Block3	0back/STIM_008.jpg	100
1880.315	0.578	577.5	0back	Block3	0back/STIM_008.jpg	99
1883.798	0.774	773.7	0back	Block3	0back/STIM_008.jpg	100
1888.498	0.752	752.4	0back	Block3	0back/STIM_009.jpg	99
1892.67	0.45	450.2	0back	Block3	0back/STIM_009.jpg	100
1895.504	0.568	568.4	0back	Block3	0back/STIM_009.jpg	99
1899.155	0.462	461.8	0back	Block3	0back/STIM_010.jpg	100
1902.708	0.427	426.9	0back	Block3	0back/STIM_010.jpg	99
1906.85	0.68	679.9	0back	Block3	0back/STIM_010.jpg	99
1911.417	0.488	488.1	0back	Block3	0back/STIM_011.jpg	99
1914.059	0.434	433.6	0back	Block3	0back/STIM_011.jpg	100
1917.823	0.672	672.0	0back	Block3	0back/STIM_011.jpg	100
1921.994	0.777	777.0	0back	Block3	0back/STIM_012.jpg	100
1925.47	0.504	503.6	0back	Block3	0back/STIM_012.jpg	100
1929.871	0.706	706.3	0back	Block3	0back/STIM_012.jpg	100
1933.937	0.647	647.0	0back	Block3	0back/STIM_013.jpg	100
1937.699	0.417	416.6	0back	Block3	0back/STIM_013.jpg	100
1940.261	0.706	705.9	0back	Block3	0back/STIM_013.jpg	99
1944.052	0.663	662.7	0back	Block3	0back/STIM_014.jpg	99
1948.005	0.73	729.7	0back	Block3	0back/STIM_014.jpg	100
1951.295	0.452	452.5	0back	Block3	0back/STIM_014.jpg	99
1955.42	0.787	786.6	0back	Block3	0back/STIM_015.jpg	99
1958.513	0.661	660.8	0back	Block3	0back/STIM_015.jpg	100
1962.118	0.587	587.4	0back	Block3	0back/STIM_015.jpg	100
1966.711	0.403	403.0	0back	Block3	0back/STIM_016.jpg	99
1969.685	0.602	601.5	0back	Block3	0back/STIM_016.jpg	99
1972.994	0.755	754.9	0back	Block3	0back/STIM_016.jpg	100
1977.441	0.649	648.8	0back	Block3	0back/STIM_017.jpg	100
1980.746	0.671	671.3	0back	Block3	0back/STIM_017.jpg	99
1983.811	0.67	670.1	0back	Block3	0back/STIM_017.jpg	99
1986.503	0.765	765.1	0back	Block3	0back/STIM_018.jpg	99
1989.628	0.453	453.3	0back	Block3	0back/STIM_018.jpg	100
1992.694	0.49	489.7	0back	Block3	0back/STIM_018.jpg	99
1996.194	0.632	631.8	0back	Block3	0back/STIM_019.jpg	100
1999.536	0.634	633.5	0back	Block3	0back/STIM_019.jpg	99
2003.379	0.404	404.2	0back	Block3	0back/STIM_019.jpg	100
2007.554	0.856	855.8	2back	Block4	2back/STIM_000.jpg	100
2012.089	0.514	513.8	2back	Block4	2back/STIM_000.jpg	99
2015.211	0.77	769.6	2back	Block4	2back/STIM_000.jpg	99
2019.659	0.684	683.7	2back	Block4	2back/STIM_001.jpg	100
2023.498	0.934	933.5	2back	Block4	2back/STIM_001.jpg	99
2028.166	0.502	501.6	2back	Block4	2back/STIM_001.jpg	99
2032.147	0.785	784.7	2back	Block4	2back/STIM_002.jpg	100
2036.064	0.443	442.7	2back	Block4	2back/STIM_002.jpg	99
2038.596	0.628	627.9	2back	Block4	2back/STIM_002.jpg	100
2042.659	0.486	485.8	2back	Block4	2back/STIM_003.jpg	99
2046.623	0.921	920.9	2back	Block4	2back/STIM_003.jpg	99
2051.205	0.509	508.6	2back	Block4	2back/STIM_003.jpg	100
2054.105	0.511	511.1	2back	Block4	2back/STIM_004.jpg	99
2057.414	0.906	905.9	2back	Block4	2back/STIM_004.jpg	100
2060.555	0.48	479.9	2back	Block4	2back/STIM_004.jpg	100
2064.687	0.73	729.7	2back	Block4	2back/STIM_005.jpg	99
2068.163	0.761	760.7	2back	Block4	2back/STIM_005.jpg	100
2072.858	0.435	435.0	2back	Block4	2back/STIM_005.jpg	99
2075.55	0.554	553.8	2back	Block4	2back/STIM_006.jpg	100
2079.019	0.771	771.0	2back	Block4	2back/STIM_006.jpg	100
2082.571	0.716	715.6	2back	Block4	2back/STIM_006.jpg	99
2086.473	0.692	691.7	2back	Block4	2back/STIM_007.jpg	100
2089.22	0.953	953.4	2back	Block4	2back/STIM_007.jpg	100
2093.373	0.778	778.5	2back	Block4	2back/STIM_007.jpg	99
2096.777	0.748	748.4	2back	Block4	2back/STIM_008.jpg	100
2100.043	0.564	563.5	2back	Block4	2back/STIM_008.jpg	99
2104.394	0.926	925.9	2back	Block4	2back/STIM_008.jpg	99
2109.019	0.728	727.7	2back	Block4	2back/STIM_009.jpg	100
2111.923	0.91	910.1	2back	Block4	2back/STIM_009.jpg	100
2114.96	0.752	752.4	2back	Block4	2back/STIM_009.jpg	100
2119.396	0.792	792.4	2back	Block4	2back/STIM_010.jpg	99
2123.888	0.575	575.3	2back	Block4	2back/STIM_010.jpg	99
2127.036	0.532	532.1	2back	Block4	2back/STIM_010.jpg	100
2129.64	0.932	932.3	2back	Block4	2back/STIM_011.jpg	99
2133.748	0.712	711.6	2back	Block4	2back/STIM_011.jpg	100
2138.141	0.721	721.4	2back	Block4	2back/STIM_011.jpg	99
2141.924	0.882	882.2	2back	Block4	2back/STIM_012.jpg	99
2145.947	0.862	862.0	2back	Block4	2back/STIM_012.jpg	100
2149.726	0.957	956.7	2back	Block4	2back/STIM_012.jpg	99
2153.706	0.573	572.9	2back	Block4	2back/STIM_013.jpg	100
2157.92	0.783	783.1	2back	Block4	2back/STIM_013.jpg	100
2161.577	0.854	854.5	2back	Block4	2back/STIM_013.jpg	100
2164.578	0.494	494.4	2back	Block4	2back/STIM_014.jpg	100
2167.36	0.955	955.4	2back	Block4	2back/STIM_014.jpg	99
2171.384	0.588	587.6	2back	Block4	2back/STIM_014.jpg	99
2175.741	0.94	939.8	2back	Block4	2back/STIM_015.jpg	100
2178.893	0.64	639.5	2back	Block4	2back/STIM_015.jpg	100
2183.187	0.815	815.4	2back	Block4	2back/STIM_015.jpg	100
2186.293	0.967	967.0	2back	Block4	2back/STIM_016.jpg	99
2191.145	0.443	443.4	2back	Block4	2back/STIM_016.jpg	100
2195.264	0.876	875.7	2back	Block4	2back/STIM_016.jpg	99
2199.018	0.467	466.8	2back	Block4	2back/STIM_017.jpg	99
2203.244	0.84	839.5	2back	Block4	2back/STIM_017.jpg	99
2206.785	0.689	688.6	2back	Block4	2back/STIM_017.jpg	99
2211.234	0.913	913.0	2back	Block4	2back/STIM_018.jpg	99
2214.53	0.461	460.8	2back	Block4	2back/STIM_018.jpg	99
2218.706	0.628	628.2	2back	Block4	2back/STIM_018.jpg	100
2222.898	0.494	493.6	2back	Block4	2back/STIM_019.jpg	99
2226.781	0.449	449.4	2back	Block4	2back/STIM_019.jpg	100
2229.634	0.883	883.3	2back	Block4	2back/STIM_019.jpg	100
2232.709	0.735	734.6	2back	Block4	2back/STIM_020.jpg	100
2235.566	0.825	824.7	2back	Block4	2back/STIM_020.jpg	99
2240.12	0.843	843.0	2back	Block4	2back/STIM_020.jpg	99
2243.521	0.638	638.0	2back	Block4	2back/STIM_021.jpg	100
2246.636	0.764	763.7	2back	Block4	2back/STIM_021.jpg	100
2250.273	0.524	523.6	2back	Block4	2back/STIM_021.jpg	100
2254.377	0.523	523.4	2back	Block4	2back/STIM_022.jpg	100
2258.731	0.777	777.1	2back	Block4	2back/STIM_022.jpg	100
2261.939	0.914	914.5	2back	Block4	2back/STIM_022.jpg	100
2265.903	0.876	876.4	2back	Block4	2back/STIM_023.jpg	100
2270.567	0.711	710.6	2back	Block4	2back/STIM_023.jpg	99
2273.961	0.802	802.4	2back	Block4	2back/STIM_023.jpg	100
2277.27	0.88	879.7	2back	Block4	2back/STIM_024.jpg	99
2281.251	0.593	592.7	2back	Block4	2back/STIM_024.jpg	100
2284.443	0.51	509.6	2back	Block4	2back/STIM_024.jpg	99
2288.086	0.528	528.0	2back	Block4	2back/STIM_025.jpg	100
2291.443	0.545	544.8	2back	Block4	2back/STIM_025.jpg	100
2295.572	0.936	935.5	2back	Block4	2back/STIM_025.jpg	99
2299.599	0.524	523.7	2back	Block4	2back/STIM_026.jpg	99
2302.556	0.607	607.3	2back	Block4	2back/STIM_026.jpg	100
2306.701	0.884	884.2	2back	Block4	2back/STIM_026.jpg	99
2309.97	0.624	624.2	2back	Block4	2back/STIM_027.jpg	99
2312.823	0.677	676.9	2back	Block4	2back/STIM_027.jpg	99
2317.443	0.623	623.4	2back	Block4	2back/STIM_027.jpg	100
2321.666	0.694	693.6	2back	Block4	2back/STIM_028.jpg	99
2324.982	0.938	938.3	2back	Block4	2back/STIM_028.jpg	100
2328.649	0.842	842.1	2back	Block4	2back/STIM_028.jpg	99
2333.339	0.764	764.1	2back	Block4	2back/STIM_029.jpg	99
2337.033	0.521	520.9	2back	Block4	2back/STIM_029.jpg	100
2340.469	0.479	478.6	2back	Block4	2back/STIM_029.jpg	100
2344.01	0.494	494.5	2back	Block4	2back/STIM_030.jpg	99
2348.1	0.547	547.1	2back	Block4	2back/STIM_030.jpg	99
2351.686	0.846	846.0	2back	Block4	2back/STIM_030.jpg	100
2356.068	0.774	774.2	2back	Block4	2back/STIM_031.jpg	100
2359.87	0.774	773.8	2back	Block4	2back/STIM_031.jpg	100
2363.891	0.769	769.3	2back	Block4	2back/STIM_031.jpg	100
2368.258	0.488	488.2	2back	Block4	2back/STIM_032.jpg	99
2371.426	0.538	537.7	2back	Block4	2back/STIM_032.jpg	100
2374.579	0.549	548.8	2back	Block4	2back/STIM_032.jpg	99
2378.885	0.466	466.4	2back	Block4	2back/STIM_033.jpg	100
2382.46	0.928	928.2	2back	Block4	2back/STIM_033.jpg	99
2387.272	0.68	679.5	2back	Block4	2back/STIM_033.jpg	99
2390.991	0.863	863.4	2back	Block4	2back/STIM_034.jpg	100
2393.955	0.539	538.7	2back	Block4	2back/STIM_034.jpg	100
2396.6	0.892	892.0	2back	Block4	2back/STIM_034.jpg	99
2401.116	0.892	891.5	2back	Block4	2back/STIM_035.jpg	99
2405.13	0.894	893.7	2back	Block4	2back/STIM_035.jpg	99
2408.385	0.705	705.3	2back	Block4	2back/STIM_035.jpg	99
2412.707	0.897	897.1	2back	Block4	2back/STIM_036.jpg	100
2417.42	0.862	861.6	2back	Block4	2back/STIM_036.jpg	100
2420.364	0.892	892.1	2back	Block4	2back/STIM_036.jpg	99
2423.669	0.614	613.7	2back	Block4	2back/STIM_037.jpg	99
2427.371	0.569	569.4	2back	Block4	2back/STIM_037.jpg	99
2431.579	0.508	508.2	2back	Block4	2back/STIM_037.jpg	99
2435.564	0.612	611.8	2back	Block4	2back/STIM_038.jpg	99
2439.439	0.764	763.9	2back	Block4	2back/STIM_038.jpg	99
2444.105	0.422	421.7	2back	Block4	2back/STIM_038.jpg	100
2447.966	0.459	459.2	2back	Block4	2back/STIM_039.jpg	100
2450.562	0.685	685.2	2back	Block4	2back/STIM_039.jpg	99
2454.624	0.87	870.3	2back	Block4	2back/STIM_039.jpg	100
2457.801	0.749	749.0	0back	Block4	0back/STIM_000.jpg	100
2462.405	0.707	707.3	0back	Block4	0back/STIM_000.jpg	100
2466.128	0.695	694.6	0back	Block4	0back/STIM_000.jpg	99
2470.187	0.458	457.7	0back	Block4	0back/STIM_001.jpg	99
2473.269	0.669	668.7	0back	Block4	0back/STIM_001.jpg	99
2477.43	0.497	497.0	0back	Block4	0back/STIM_001.jpg	99
2481.486	0.707	707.0	0back	Block4	0back/STIM_002.jpg	100
2484.282	0.625	624.8	0back	Block4	0back/STIM_002.jpg	100
2487.133	0.616	616.3	0back	Block4	0back/STIM_002.jpg	99
2490.666	0.552	552.0	0back	Block4	0back/STIM_003.jpg	100
2493.585	0.68	680.0	0back	Block4	0back/STIM_003.jpg	99
2496.584	0.545	545.0	0back	Block4	0back/STIM_003.jpg	99
2500.011	0.562	561.8	0back	Block4	0back/STIM_004.jpg	99
2503.914	0.656	656.2	0back	Block4	0back/STIM_004.jpg	100
2507.299	0.45	450.2	0back	Block4	0back/STIM_004.jpg	99
2511.319	0.508	508.2	0back	Block4	0back/STIM_005.jpg	99
2515.321	0.523	522.7	0back	Block4	0back/STIM_005.jpg	99
2518.976	0.591	591.2	0back	Block4	0back/STIM_005.jpg	100
2522.861	0.407	406.7	0back	Block4	0back/STIM_006.jpg	99
2527.219	0.542	542.0	0back	Block4	0back/STIM_006.jpg	99
2531.429	0.521	521.1	0back	Block4	0back/STIM_006.jpg	100
2534.579	0.628	628.0	0back	Block4	0back/STIM_007.jpg	99
2539.189	0.655	654.6	0back	Block4	0back/STIM_007.jpg	99
2543.222	0.63	629.5	0back	Block4	0back/STIM_007.jpg	99
2547.85	0.734	734.1	0back	Block4	0back/STIM_008.jpg	100
2551.461	0.557	557.0	0back	Block4	0back/STIM_008.jpg	100
2554.498	0.563	563.2	0back	Block4	0back/STIM_008.jpg	99
2557.367	0.451	451.3	0back	Block4	0back/STIM_009.jpg	100
2560.879	0.748	747.5	0back	Block4	0back/STIM_009.jpg	99
2563.729	0.523	523.2	0back	Block4	0back/STIM_009.jpg	100
2567.111	0.705	704.6	0back	Block4	0back/STIM_010.jpg	99
2571.64	0.449	449.0	0back	Block4	0back/STIM_010.jpg	100
2574.871	0.767	767.3	0back	Block4	0back/STIM_010.jpg	100
2578.784	0.403	403.4	0back	Block4	0back/STIM_011.jpg	99
2582.895	0.781	780.9	0back	Block4	0back/STIM_011.jpg	100
2587.299	0.49	490.2	0back	Block4	0back/STIM_011.jpg	99
2591.284	0.579	579.1	0back	Block4	0back/STIM_012.jpg	99
2594.339	0.533	533.0	0back	Block4	0back/STIM_012.jpg	100
2597.746	0.696	696.1	0back	Block4	0back/STIM_012.jpg	100
2600.678	0.404	404.5	0back	Block4	0back/STIM_013.jpg	99
2604.267	0.745	744.6	0back	Block4	0back/STIM_013.jpg	100
2608.028	0.404	403.7	0back	Block4	0back/STIM_013.jpg	100
2611.292	0.514	514.5	0back	Block4	0back/STIM_014.jpg	100
2614.2	0.789	789.4	0back	Block4	0back/STIM_014.jpg	99
2618.936	0.435	435.4	0back	Block4	0back/STIM_014.jpg	99
2622.603	0.738	738.4	0back	Block4	0back/STIM_015.jpg	100
2627.024	0.467	467.1	0back	Block4	0back/STIM_015.jpg	100
2631.28	0.788	788.1	0back	Block4	0back/STIM_015.jpg	99
2635.328	0.752	751.9	0back	Block4	0back/STIM_016.jpg	100
2639.008	0.588	587.7	0back	Block4	0back/STIM_016.jpg	99
2642.606	0.445	445.0	0back	Block4	0back/STIM_016.jpg	100
2646.213	0.444	443.6	0back	Block4	0back/STIM_017.jpg	100
2648.824	0.554	553.8	0back	Block4	0back/STIM_017.jpg	99
2651.566	0.421	421.3	0back	Block4	0back/STIM_017.jpg	99
2655.147	0.732	731.6	0back	Block4	0back/STIM_018.jpg	99
2659.419	0.746	745.5	0back	Block4	0back/STIM_018.jpg	99
2662.708	0.578	577.8	0back	Block4	0back/STIM_018.jpg	100
2666.966	0.64	640.2	0back	Block4	0back/STIM_019.jpg	99
2670.09	0.415	414.8	0back	Block4	0back/STIM_019.jpg	100
2672.886	0.46	460.3	0back	Block4	0back/STIM_019.jpg	99
