onset	duration	response_time_ms	trial_type	learning_stage	stimulus	response_port
0.0	2.666	2666.4	generate	Run1	generate/STIM_000.jpg	100
6.81	1.817	1817.0	generate	Run1	generate/STIM_000.jpg	100
10.929	0.958	957.8	generate	Run1	generate/STIM_000.jpg	99
15.467	1.109	1108.9	generate	Run1	generate/STIM_000.jpg	99
19.678	1.629	1628.6	generate	Run1	generate/STIM_000.jpg	100
23.535	2.585	2585.2	generate	Run1	generate/STIM_001.jpg	99
28.663	1.741	1741.1	generate	Run1	generate/STIM_001.jpg	99
32.701	1.857	1856.7	generate	Run1	generate/STIM_001.jpg	99
38.533	1.123	1123.3	generate	Run1	generate/STIM_001.jpg	99
42.549	1.748	1747.9	generate	Run1	generate/STIM_001.jpg	100
47.354	1.884	1884.4	generate	Run1	generate/STIM_002.jpg	99
52.427	1.603	1602.8	generate	Run1	generate/STIM_002.jpg	100
57.722	1.986	1985.9	generate	Run1	generate/STIM_002.jpg	99
63.116	1.988	1987.8	generate	Run1	generate/STIM_002.jpg	99
68.502	1.28	1280.3	generate	Run1	generate/STIM_002.jpg	100
72.725	1.69	1689.6	generate	Run1	generate/STIM_003.jpg	100
77.339	1.032	1032.3	generate	Run1	generate/STIM_003.jpg	100
81.228	1.209	1208.6	generate	Run1	generate/STIM_003.jpg	99
86.205	1.872	1871.9	generate	Run1	generate/STIM_003.jpg	99
90.655	1.654	1654.5	generate	Run1	generate/STIM_003.jpg	99
95.534	1.159	1159.3	generate	Run1	generate/STIM_004.jpg	99
100.491	2.12	2119.8	generate	Run1	generate/STIM_004.jpg	99
105.748	1.39	1390.5	generate	Run1	generate/STIM_004.jpg	100
110.857	2.196	2195.9	generate	Run1	generate/STIM_004.jpg	100
116.038	2.114	2113.5	generate	Run1	generate/STIM_004.jpg	100
121.364	2.292	2291.9	generate	Run1	generate/STIM_005.jpg	99
127.182	2.103	2102.6	generate	Run1	generate/STIM_005.jpg	99
132.874	1.388	1387.9	generate	Run1	generate/STIM_005.jpg	100
137.683	2.082	2082.2	generate	Run1	generate/STIM_005.jpg	100
141.979	1.395	1394.7	generate	Run1	generate/STIM_005.jpg	99
146.652	1.596	1596.4	generate	Run1	generate/STIM_006.jpg	99
150.751	1.329	1329.3	generate	Run1	generate/STIM_006.jpg	100
155.957	1.031	1030.8	generate	Run1	generate/STIM_006.jpg	100
160.169	1.976	1976.5	generate	Run1	generate/STIM_006.jpg	99
165.901	1.144	1143.5	generate	Run1	generate/STIM_006.jpg	99
171.04	2.241	2240.6	generate	Run1	generate/STIM_007.jpg	99
175.487	1.985	1984.9	generate	Run1	generate/STIM_007.jpg	100
181.57	2.387	2386.7	generate	Run1	generate/STIM_007.jpg	99
186.666	1.552	1552.1	generate	Run1	generate/STIM_007.jpg	100
191.145	1.03	1029.6	generate	Run1	generate/STIM_007.jpg	100
196.039	2.033	2032.9	generate	Run1	generate/STIM_008.jpg	99
201.658	1.463	1463.1	generate	Run1	generate/STIM_008.jpg	99
205.42	1.763	1763.2	generate	Run1	generate/STIM_008.jpg	100
210.068	1.622	1622.0	generate	Run1	generate/STIM_008.jpg	100
214.013	2.174	2173.5	generate	Run1	generate/STIM_008.jpg	100
218.411	1.389	1389.2	generate	Run1	generate/STIM_009.jpg	100
222.256	1.75	1750.5	generate	Run1	generate/STIM_009.jpg	100
226.661	2.396	2395.9	generate	Run1	generate/STIM_009.jpg	100
232.653	1.945	1945.2	generate	Run1	generate/STIM_009.jpg	100
237.197	1.318	1318.1	generate	Run1	generate/STIM_009.jpg	99
241.161	2.673	2672.9	generate	Run1	generate/STIM_010.jpg	99
247.057	2.559	2558.8	generate	Run1	generate/STIM_010.jpg	99
253.688	1.97	1969.6	generate	Run1	generate/STIM_010.jpg	100
258.682	1.067	1067.0	generate	Run1	generate/STIM_010.jpg	100
263.688	2.113	2112.7	generate	Run1	generate/STIM_010.jpg	100
269.961	1.988	1988.4	generate	Run1	generate/STIM_011.jpg	100
275.144	1.422	1422.4	generate	Run1	generate/STIM_011.jpg	100
279.735	2.251	2251.3	generate	Run1	generate/STIM_011.jpg	100
284.48	1.567	1567.4	generate	Run1	generate/STIM_011.jpg	99
290.046	1.456	1455.8	generate	Run1	generate/STIM_011.jpg	100
295.504	2.059	2058.6	generate	Run1	generate/STIM_012.jpg	99
300.351	2.272	2272.4	generate	Run1	generate/STIM_012.jpg	100
304.883	1.359	1359.4	generate	Run1	generate/STIM_012.jpg	100
309.346	1.378	1378.0	generate	Run1	generate/STIM_012.jpg	100
313.483	1.353	1352.9	generate	Run1	generate/STIM_012.jpg	100
318.325	2.034	2033.7	generate	Run1	generate/STIM_013.jpg	100
324.144	2.146	2146.5	generate	Run1	generate/STIM_013.jpg	100
329.237	1.469	1468.6	generate	Run1	generate/STIM_013.jpg	99
333.241	2.246	2245.8	generate	Run1	generate/STIM_013.jpg	99
338.842	1.37	1370.1	generate	Run1	generate/STIM_013.jpg	100
343.542	2.789	2789.3	generate	Run1	generate/STIM_014.jpg	99
350.191	2.622	2621.5	generate	Run1	generate/STIM_014.jpg	99
355.431	1.628	1628.1	generate	Run1	generate/STIM_014.jpg	99
360.447	1.942	1942.0	generate	Run1	generate/STIM_014.jpg	99
366.547	1.503	1502.8	generate	Run1	generate/STIM_014.jpg	99
370.381	1.547	1547.3	generate	Run1	generate/STIM_015.jpg	99
374.066	1.242	1241.7	generate	Run1	generate/STIM_015.jpg	99
378.228	2.33	2330.5	generate	Run1	generate/STIM_015.jpg	99
384.379	2.473	2472.8	generate	Run1	generate/STIM_015.jpg	100
390.268	1.944	1944.3	generate	Run1	generate/STIM_015.jpg	100
395.512	2.324	2323.6	generate	Run1	generate/STIM_016.jpg	99
401.837	1.364	1364.5	generate	Run1	generate/STIM_016.jpg	99
405.559	1.192	1191.6	generate	Run1	generate/STIM_016.jpg	100
410.541	1.449	1449.1	generate	Run1	generate/STIM_016.jpg	99
415.578	1.349	1349.4	generate	Run1	generate/STIM_016.jpg	100
419.243	1.684	1683.8	generate	Run1	generate/STIM_017.jpg	99
424.03	1.555	1555.3	generate	Run1	generate/STIM_017.jpg	100
428.283	1.834	1833.6	generate	Run1	generate/STIM_017.jpg	100
433.432	1.152	1151.5	generate	Run1	generate/STIM_017.jpg	100
438.147	2.216	2216.1	generate	Run1	generate/STIM_017.jpg	99
444.39	1.894	1893.7	generate	Run1	generate/STIM_018.jpg	100
448.629	1.451	1451.4	generate	Run1	generate/STIM_018.jpg	99
452.815	2.033	2033.3	generate	Run1	generate/STIM_018.jpg	99
457.896	2.231	2231.0	generate	Run1	generate/STIM_018.jpg	100
462.77	1.29	1290.5	generate	Run1	generate/STIM_018.jpg	100
466.478	2.14	2140.5	generate	Run1	generate/STIM_019.jpg	99
471.548	2.536	2535.6	generate	Run1	generate/STIM_019.jpg	100
476.908	2.286	2285.6	generate	Run1	generate/STIM_019.jpg	100
483.08	1.293	1292.9	generate	Run1	generate/STIM_019.jpg	100
487.449	1.234	1234.4	generate	Run1	generate/STIM_019.jpg	99
491.917	1.742	1742.3	generate	Run1	generate/STIM_020.jpg	99
497.309	1.137	1137.0	generate	Run1	generate/STIM_020.jpg	100
502.375	0.981	980.8	generate	Run1	generate/STIM_020.jpg	99
507.499	1.285	1284.8	generate	Run1	generate/STIM_020.jpg	100
512.081	1.17	1169.6	generate	Run1	generate/STIM_020.jpg	100
517.028	1.523	1522.7	generate	Run1	generate/STIM_021.jpg	100
522.095	1.159	1159.2	generate	Run1	generate/STIM_021.jpg	100
525.723	1.601	1600.7	generate	Run1	generate/STIM_021.jpg	100
530.377	1.965	1964.8	generate	Run1	generate/STIM_021.jpg	99
536.438	1.528	1527.5	generate	Run1	generate/STIM_021.jpg	99
541.6	1.866	1866.1	generate	Run1	generate/STIM_022.jpg	99
546.122	2.475	2475.3	generate	Run1	generate/STIM_022.jpg	99
552.227	1.012	1012.0	generate	Run1	generate/STIM_022.jpg	99
556.525	2.226	2225.5	generate	Run1	generate/STIM_022.jpg	99
561.146	1.26	1259.7	generate	Run1	generate/STIM_022.jpg	100
566.287	1.856	1856.2	generate	Run1	generate/STIM_023.jpg	100
570.471	1.035	1034.7	generate	Run1	generate/STIM_023.jpg	100
574.925	1.96	1959.6	generate	Run1	generate/STIM_023.jpg	100
579.95	1.574	1574.5	generate	Run1	generate/STIM_023.jpg	99
585.549	2.081	2080.6	generate	Run1	generate/STIM_023.jpg	100
591.333	1.399	1398.7	generate	Run1	generate/STIM_024.jpg	99
595.955	2.549	2548.9	generate	Run1	generate/STIM_024.jpg	100
602.419	1.59	1590.1	generate	Run1	generate/STIM_024.jpg	99
606.829	1.412	1412.0	generate	Run1	generate/STIM_024.jpg	99
610.503	1.028	1027.5	generate	Run1	generate/STIM_024.jpg	99
614.938	0.593	593.3	repeat	Run1	repeat/STIM_000.jpg	100
618.203	0.788	787.6	repeat	Run1	repeat/STIM_000.jpg	100
621.086	0.939	938.8	repeat	Run1	repeat/STIM_000.jpg	100
625.776	0.671	671.3	repeat	Run1	repeat/STIM_000.jpg	100
630.468	0.952	951.7	repeat	Run1	repeat/STIM_000.jpg	100
634.157	0.873	873.4	repeat	Run1	repeat/STIM_001.jpg	100
637.109	0.621	621.4	repeat	Run1	repeat/STIM_001.jpg	100
640.49	0.814	813.6	repeat	Run1	repeat/STIM_001.jpg	100
644.148	0.808	807.6	repeat	Run1	repeat/STIM_001.jpg	100
648.703	0.874	874.0	repeat	Run1	repeat/STIM_001.jpg	99
652.024	0.551	550.7	repeat	Run1	repeat/STIM_002.jpg	100
655.263	0.604	603.6	repeat	Run1	repeat/STIM_002.jpg	100
658.247	0.716	716.4	repeat	Run1	repeat/STIM_002.jpg	100
661.397	0.837	836.6	repeat	Run1	repeat/STIM_002.jpg	100
665.899	0.655	654.9	repeat	Run1	repeat/STIM_002.jpg	99
670.253	0.755	754.8	repeat	Run1	repeat/STIM_003.jpg	100
673.642	0.62	620.2	repeat	Run1	repeat/STIM_003.jpg	99
678.275	0.822	822.2	repeat	Run1	repeat/STIM_003.jpg	99
681.814	0.627	627.3	repeat	Run1	repeat/STIM_003.jpg	99
685.545	0.865	864.7	repeat	Run1	repeat/STIM_003.jpg	100
689.513	0.566	566.4	repeat	Run1	repeat/STIM_004.jpg	99
692.674	0.865	864.8	repeat	Run1	repeat/STIM_004.jpg	100
695.904	0.838	837.9	repeat	Run1	repeat/STIM_004.jpg	100
699.958	0.663	663.4	repeat	Run1	repeat/STIM_004.jpg	100
704.337	0.651	650.8	repeat	Run1	repeat/STIM_004.jpg	100
707.383	0.73	729.9	repeat	Run1	repeat/STIM_005.jpg	99
711.25	0.79	790.1	repeat	Run1	repeat/STIM_005.jpg	99
715.791	0.424	423.9	repeat	Run1	repeat/STIM_005.jpg	99
718.591	0.945	945.4	repeat	Run1	repeat/STIM_005.jpg	100
723.119	0.588	587.6	repeat	Run1	repeat/STIM_005.jpg	100
727.651	0.467	467.3	repeat	Run1	repeat/STIM_006.jpg	99
731.362	0.716	716.3	repeat	Run1	repeat/STIM_006.jpg	100
734.989	0.656	656.4	repeat	Run1	repeat/STIM_006.jpg	99
737.818	0.673	673.4	repeat	Run1	repeat/STIM_006.jpg	99
741.52	0.772	772.2	repeat	Run1	repeat/STIM_006.jpg	100
745.86	0.881	880.6	repeat	Run1	repeat/STIM_007.jpg	99
749.329	0.53	530.2	repeat	Run1	repeat/STIM_007.jpg	100
752.923	0.925	924.8	repeat	Run1	repeat/STIM_007.jpg	99
757.655	0.812	811.9	repeat	Run1	repeat/STIM_007.jpg	99
761.072	0.798	798.0	repeat	Run1	repeat/STIM_007.jpg	99
764.046	0.559	558.6	repeat	Run1	repeat/STIM_008.jpg	99
766.996	0.618	618.2	repeat	Run1	repeat/STIM_008.jpg	99
770.887	0.735	735.0	repeat	Run1	repeat/STIM_008.jpg	100
774.505	0.601	601.3	repeat	Run1	repeat/STIM_008.jpg	99
778.134	0.509	508.9	repeat	Run1	repeat/STIM_008.jpg	99
782.667	0.561	561.4	repeat	Run1	repeat/STIM_009.jpg	99
786.607	0.943	942.6	repeat	Run1	repeat/STIM_009.jpg	100
791.365	0.852	852.1	repeat	Run1	repeat/STIM_009.jpg	99
796.181	0.781	781.1	repeat	Run1	repeat/STIM_009.jpg	99
799.702	0.765	764.8	repeat	Run1	repeat/STIM_009.jpg	100
803.137	0.696	695.5	repeat	Run1	repeat/STIM_010.jpg	99
807.055	0.783	782.8	repeat	Run1	repeat/STIM_010.jpg	99
810.727	0.622	621.8	repeat	Run1	repeat/STIM_010.jpg	100
814.801	0.849	849.1	repeat	Run1	repeat/STIM_010.jpg	100
818.595	0.61	610.0	repeat	Run1	repeat/STIM_010.jpg	99
823.225	0.843	843.1	repeat	Run1	repeat/STIM_011.jpg	100
826.873	0.619	619.3	repeat	Run1	repeat/STIM_011.jpg	100
830.739	0.721	721.3	repeat	Run1	repeat/STIM_011.jpg	100
833.766	0.715	714.9	repeat	Run1	repeat/STIM_011.jpg	99
837.87	0.7	700.5	repeat	Run1	repeat/STIM_011.jpg	100
841.819	0.678	678.5	repeat	Run1	repeat/STIM_012.jpg	100
845.612	0.492	492.1	repeat	Run1	repeat/STIM_012.jpg	99
849.938	0.618	618.3	repeat	Run1	repeat/STIM_012.jpg	99
853.243	0.716	715.6	repeat	Run1	repeat/STIM_012.jpg	99
856.038	1.012	1012.0	repeat	Run1	repeat/STIM_012.jpg	100
859.649	0.86	859.8	repeat	Run1	repeat/STIM_013.jpg	100
864.268	0.624	623.6	repeat	Run1	repeat/STIM_013.jpg	100
868.18	0.599	599.4	repeat	Run1	repeat/STIM_013.jpg	100
871.454	0.677	677.2	repeat	Run1	repeat/STIM_013.jpg	99
874.797	0.689	688.7	repeat	Run1	repeat/STIM_013.jpg	100
879.476	0.798	797.9	repeat	Run1	repeat/STIM_014.jpg	99
882.371	0.459	459.3	repeat	Run1	repeat/STIM_014.jpg	99
886.282	0.801	800.9	repeat	Run1	repeat/STIM_014.jpg	99
890.782	0.742	741.7	repeat	Run1	repeat/STIM_014.jpg	100
894.015	0.883	882.7	repeat	Run1	repeat/STIM_014.jpg	99
898.749	1.169	1169.4	generate	Run2	generate/STIM_000.jpg	99
902.123	1.566	1566.1	generate	Run2	generate/STIM_000.jpg	100
906.101	1.257	1256.8	generate	Run2	generate/STIM_000.jpg	99
910.829	1.588	1587.8	generate	Run2	generate/STIM_000.jpg	99
916.377	0.945	945.2	generate	Run2	generate/STIM_000.jpg	100
920.547	2.064	2063.5	generate	Run2	generate/STIM_001.jpg	99
926.2	2.122	2122.4	generate	Run2	generate/STIM_001.jpg	100
931.847	1.548	1548.0	generate	Run2	generate/STIM_001.jpg	100
935.896	1.522	1521.8	generate	Run2	generate/STIM_001.jpg	100
941.116	1.107	1106.7	generate	Run2	generate/STIM_001.jpg	99
944.878	1.03	1030.4	generate	Run2	generate/STIM_002.jpg	99
948.91	1.968	1968.0	generate	Run2	generate/STIM_002.jpg	100
954.788	1.344	1344.3	generate	Run2	generate/STIM_002.jpg	99
959.397	1.84	1840.0	generate	Run2	generate/STIM_002.jpg	99
963.496	1.302	1302.4	generate	Run2	generate/STIM_002.jpg	100
967.294	2.146	2145.7	generate	Run2	generate/STIM_003.jpg	99
971.643	1.339	1339.1	generate	Run2	generate/STIM_003.jpg	100
976.347	1.132	1132.5	generate	Run2	generate/STIM_003.jpg	99
981.262	1.752	1752.2	generate	Run2	generate/STIM_003.jpg	99
986.168	1.548	1548.0	generate	Run2	generate/STIM_003.jpg	100
991.77	1.115	1115.4	generate	Run2	generate/STIM_004.jpg	99
995.801	1.316	1316.5	generate	Run2	generate/STIM_004.jpg	99
1001.084	1.86	1859.6	generate	Run2	generate/STIM_004.jpg	99
1005.063	1.467	1466.7	generate	Run2	generate/STIM_004.jpg	99
1010.062	1.076	1075.5	generate	Run2	generate/STIM_004.jpg	99
1013.345	1.996	1996.1	generate	Run2	generate/STIM_005.jpg	99
1018.298	1.904	1904.3	generate	Run2	generate/STIM_005.jpg	99
1023.843	1.722	1722.1	generate	Run2	generate/STIM_005.jpg	99
1029.026	1.907	1906.9	generate	Run2	generate/STIM_005.jpg	99
1033.474	0.983	982.8	generate	Run2	generate/STIM_005.jpg	99
1037.118	2.286	2286.0	generate	Run2	generate/STIM_006.jpg	99
1042.198	0.88	880.3	generate	Run2	generate/STIM_006.jpg	99
1046.33	1.878	1878.4	generate	Run2	generate/STIM_006.jpg	100
1052.26	0.97	969.9	generate	Run2	generate/STIM_006.jpg	100
1055.973	1.766	1766.0	generate	Run2	generate/STIM_006.jpg	99
1061.272	1.858	1857.7	generate	Run2	generate/STIM_007.jpg	100
1065.965	1.662	1661.8	generate	Run2	generate/STIM_007.jpg	99
1070.41	1.582	1581.6	generate	Run2	generate/STIM_007.jpg	100
1075.24	1.692	1691.9	generate	Run2	generate/STIM_007.jpg	100
1080.21	0.965	965.4	generate	Run2	generate/STIM_007.jpg	100
1084.533	1.089	1089.1	generate	Run2	generate/STIM_008.jpg	99
1088.125	1.869	1869.4	generate	Run2	generate/STIM_008.jpg	100
1094.032	0.742	742.4	generate	Run2	generate/STIM_008.jpg	99
1098.35	1.299	1299.3	generate	Run2	generate/STIM_008.jpg	100
1103.569	1.857	1857.0	generate	Run2	generate/STIM_008.jpg	100
1108.103	1.545	1545.4	generate	Run2	generate/STIM_009.jpg	99
1112.832	1.389	1389.0	generate	Run2	generate/STIM_009.jpg	99
1116.86	1.051	1051.2	generate	Run2	generate/STIM_009.jpg	100
1121.703	1.59	1590.4	generate	Run2	generate/STIM_009.jpg	100
1126.617	1.586	1586.0	generate	Run2	generate/STIM_009.jpg	99
1131.779	1.395	1395.2	generate	Run2	generate/STIM_010.jpg	99
1136.977	1.185	1185.0	generate	Run2	generate/STIM_010.jpg	99
1141.399	1.642	1642.5	generate	Run2	generate/STIM_010.jpg	99
1145.507	1.414	1413.8	generate	Run2	generate/STIM_010.jpg	99
1150.403	1.581	1581.1	generate	Run2	generate/STIM_010.jpg	99
1156.077	1.986	1986.2	generate	Run2	generate/STIM_011.jpg	100
1161.248	1.149	1149.2	generate	Run2	generate/STIM_011.jpg	100
1165.954	1.208	1207.6	generate	Run2	generate/STIM_011.jpg	100
1171.111	1.646	1646.5	generate	Run2	generate/STIM_011.jpg	100
1176.324	1.556	1556.0	generate	Run2	generate/STIM_011.jpg	99
1179.994	1.168	1168.3	generate	Run2	generate/STIM_012.jpg	99
1184.489	1.098	1097.7	generate	Run2	generate/STIM_012.jpg	100
1189.306	1.286	1285.9	generate	Run2	generate/STIM_012.jpg	99
1194.127	1.466	1466.0	generate	Run2	generate/STIM_012.jpg	99
1199.674	0.832	832.3	generate	Run2	generate/STIM_012.jpg	99
1204.166	2.122	2122.5	generate	Run2	generate/STIM_013.jpg	99
1209.07	1.995	1995.0	generate	Run2	generate/STIM_013.jpg	100
1214.218	1.75	1750.2	generate	Run2	generate/STIM_013.jpg	100
1218.312	1.351	1350.7	generate	Run2	generate/STIM_013.jpg	99
1222.673	0.901	901.3	generate	Run2	generate/STIM_013.jpg	100
1227.292	1.013	1013.3	generate	Run2	generate/STIM_014.jpg	99
1232.222	1.395	1395.1	generate	Run2	generate/STIM_014.jpg	100
1237.677	1.006	1006.4	generate	Run2	generate/STIM_014.jpg	100
1242.322	1.703	1702.6	generate	Run2	generate/STIM_014.jpg	100
1247.623	1.458	1458.1	generate	Run2	generate/STIM_014.jpg	99
1252.364	1.317	1316.7	generate	Run2	generate/STIM_015.jpg	99
1257.474	1.98	1980.0	generate	Run2	generate/STIM_015.jpg	99
1262.915	1.79	1790.3	generate	Run2	generate/STIM_015.jpg	100
1268.568	1.814	1814.5	generate	Run2	generate/STIM_015.jpg	99
1273.185	1.297	1296.6	generate	Run2	generate/STIM_015.jpg	100
1277.571	1.77	1769.6	generate	Run2	generate/STIM_016.jpg	99
1282.038	2.002	2001.7	generate	Run2	generate/STIM_016.jpg	100
1286.254	1.006	1006.4	generate	Run2	generate/STIM_016.jpg	100
1290.873	1.258	1258.5	generate	Run2	generate/STIM_016.jpg	99
1295.447	1.415	1415.0	generate	Run2	generate/STIM_016.jpg	99
1299.564	2.249	2248.9	generate	Run2	generate/STIM_017.jpg	99
1306.033	1.724	1724.0	generate	Run2	generate/STIM_017.jpg	99
1311.199	1.372	1372.3	generate	Run2	generate/STIM_017.jpg	99
1315.183	1.611	1610.7	generate	Run2	generate/STIM_017.jpg	100
1320.847	0.752	751.5	generate	Run2	generate/STIM_017.jpg	100
1324.376	2.289	2289.2	generate	Run2	generate/STIM_018.jpg	100
1330.015	1.008	1007.7	generate	Run2	generate/STIM_018.jpg	100
1333.216	1.138	1138.5	generate	Run2	generate/STIM_018.jpg	99
1336.842	1.046	1046.1	generate	Run2	generate/STIM_018.jpg	100
1340.072	1.018	1017.5	generate	Run2	generate/STIM_018.jpg	99
1343.896	1.395	1394.6	generate	Run2	generate/STIM_019.jpg	100
1348.585	2.248	2248.3	generate	Run2	generate/STIM_019.jpg	99
1354.754	1.665	1664.9	generate	Run2	generate/STIM_019.jpg	99
1360.056	0.815	814.8	generate	Run2	generate/STIM_019.jpg	100
1362.969	1.616	1616.1	generate	Run2	generate/STIM_019.jpg	100
1368.79	2.238	2238.4	generate	Run2	generate/STIM_020.jpg	99
1373.899	1.42	1419.9	generate	Run2	generate/STIM_020.jpg	99
1378.48	2.056	2056.1	generate	Run2	generate/STIM_020.jpg	100
1383.706	1.928	1928.5	generate	Run2	generate/STIM_020.jpg	99
1388.222	1.734	1734.4	generate	Run2	generate/STIM_020.jpg	100
1393.321	1.95	1950.5	generate	Run2	generate/STIM_021.jpg	100
1399.209	1.411	1410.9	generate	Run2	generate/STIM_021.jpg	100
1402.829	1.678	1678.2	generate	Run2	generate/STIM_021.jpg	100
1408.167	0.89	889.9	generate	Run2	generate/STIM_021.jpg	99
1411.387	0.992	991.6	generate	Run2	generate/STIM_021.jpg	100
1414.544	1.883	1882.7	generate	Run2	generate/STIM_022.jpg	99
1418.796	1.024	1023.6	generate	Run2	generate/STIM_022.jpg	100
1422.088	1.521	1520.8	generate	Run2	generate/STIM_022.jpg	100
1426.084	1.198	1198.3	generate	Run2	generate/STIM_022.jpg	100
1430.971	1.776	1776.1	generate	Run2	generate/STIM_022.jpg	99
1435.991	1.135	1135.2	generate	Run2	generate/STIM_023.jpg	99
1440.796	1.036	1035.9	generate	Run2	generate/STIM_023.jpg	100
1445.133	1.179	1179.2	generate	Run2	generate/STIM_023.jpg	99
1449.923	1.7	1700.1	generate	Run2	generate/STIM_023.jpg	100
1454.199	1.305	1305.2	generate	Run2	generate/STIM_023.jpg	100
1458.922	1.68	1680.0	generate	Run2	generate/STIM_024.jpg	100
1464.115	0.967	967.3	generate	Run2	generate/STIM_024.jpg	99
1468.085	1.219	1218.6	generate	Run2	generate/STIM_024.jpg	100
1471.738	1.403	1402.8	generate	Run2	generate/STIM_024.jpg	100
1475.879	0.776	776.2	generate	Run2	generate/STIM_024.jpg	99
1479.419	0.614	613.6	repeat	Run2	repeat/STIM_000.jpg	100
1483.269	0.858	858.4	repeat	Run2	repeat/STIM_000.jpg	99
1486.565	0.89	889.6	repeat	Run2	repeat/STIM_000.jpg	99
1489.669	0.509	508.8	repeat	Run2	repeat/STIM_000.jpg	100
1492.322	0.651	651.2	repeat	Run2	repeat/STIM_000.jpg	99
1496.786	0.536	535.8	repeat	Run2	repeat/STIM_001.jpg	100
1500.441	0.852	852.3	repeat	Run2	repeat/STIM_001.jpg	99
1504.461	0.512	512.0	repeat	Run2	repeat/STIM_001.jpg	99
1508.208	0.512	512.5	repeat	Run2	repeat/STIM_001.jpg	100
1512.201	0.527	527.3	repeat	Run2	repeat/STIM_001.jpg	100
1516.355	0.818	817.6	repeat	Run2	repeat/STIM_002.jpg	100
1520.951	0.59	590.5	repeat	Run2	repeat/STIM_002.jpg	100
1524.109	0.568	568.4	repeat	Run2	repeat/STIM_002.jpg	100
1527.048	0.502	501.8	repeat	Run2	repeat/STIM_002.jpg	99
1530.258	0.713	713.1	repeat	Run2	repeat/STIM_002.jpg	100
1533.912	0.529	528.7	repeat	Run2	repeat/STIM_003.jpg	100
1537.554	0.565	565.1	repeat	Run2	repeat/STIM_003.jpg	99
1542.053	0.68	680.1	repeat	Run2	repeat/STIM_003.jpg	99
1546.013	0.49	490.3	repeat	Run2	repeat/STIM_003.jpg	99
1550.032	0.718	718.5	repeat	Run2	repeat/STIM_003.jpg	100
1554.414	0.645	645.0	repeat	Run2	repeat/STIM_004.jpg	99
1557.95	0.627	626.7	repeat	Run2	repeat/STIM_004.jpg	100
1561.353	0.577	577.4	repeat	Run2	repeat/STIM_004.jpg	99
1565.181	0.923	923.1	repeat	Run2	repeat/STIM_004.jpg	100
1568.744	0.602	602.3	repeat	Run2	repeat/STIM_004.jpg	100
1572.396	0.774	774.3	repeat	Run2	repeat/STIM_005.jpg	100
1577.238	0.578	577.6	repeat	Run2	repeat/STIM_005.jpg	99
1580.185	0.63	630.0	repeat	Run2	repeat/STIM_005.jpg	99
1583.727	0.813	812.8	repeat	Run2	repeat/STIM_005.jpg	100
1588.336	0.777	777.2	repeat	Run2	repeat/STIM_005.jpg	99
1592.541	0.485	484.8	repeat	Run2	repeat/STIM_006.jpg	100
1596.528	0.779	778.8	repeat	Run2	repeat/STIM_006.jpg	99
1600.096	0.565	565.3	repeat	Run2	repeat/STIM_006.jpg	99
1603.753	0.568	568.0	repeat	Run2	repeat/STIM_006.jpg	99
1607.121	0.806	805.8	repeat	Run2	repeat/STIM_006.jpg	100
1611.068	0.639	638.9	repeat	Run2	repeat/STIM_007.jpg	100
1614.976	0.875	874.6	repeat	Run2	repeat/STIM_007.jpg	100
1619.852	0.659	659.3	repeat	Run2	repeat/STIM_007.jpg	100
1623.969	0.756	756.2	repeat	Run2	repeat/STIM_007.jpg	100
1627.705	0.639	638.9	repeat	Run2	repeat/STIM_007.jpg	99
1631.006	0.86	860.3	repeat	Run2	repeat/STIM_008.jpg	99
1635.353	0.933	932.9	repeat	Run2	repeat/STIM_008.jpg	99
1638.885	0.727	726.9	repeat	Run2	repeat/STIM_008.jpg	99
1643.358	0.606	606.4	repeat	Run2	repeat/STIM_008.jpg	99
1646.632	0.852	852.3	repeat	Run2	repeat/STIM_008.jpg	100
1650.6	0.831	830.9	repeat	Run2	repeat/STIM_009.jpg	100
1654.535	0.622	622.0	repeat	Run2	repeat/STIM_009.jpg	99
1657.205	0.458	458.5	repeat	Run2	repeat/STIM_009.jpg	99
1661.018	0.609	608.6	repeat	Run2	repeat/STIM_009.jpg	99
1664.163	0.689	689.3	repeat	Run2	repeat/STIM_009.jpg	99
1668.433	0.719	719.0	repeat	Run2	repeat/STIM_010.jpg	99
1671.739	0.844	844.2	repeat	Run2	repeat/STIM_010.jpg	99
1675.568	0.948	947.7	repeat	Run2	repeat/STIM_010.jpg	99
1679.397	0.87	869.7	repeat	Run2	repeat/STIM_010.jpg	99
1683.372	0.701	700.7	repeat	Run2	repeat/STIM_010.jpg	99
1686.925	0.431	431.0	repeat	Run2	repeat/STIM_011.jpg	100
1691.25	0.776	776.3	repeat	Run2	repeat/STIM_011.jpg	99
1694.257	0.749	749.3	repeat	Run2	repeat/STIM_011.jpg	99
1698.84	0.692	691.5	repeat	Run2	repeat/STIM_011.jpg	100
1702.066	0.616	615.6	repeat	Run2	repeat/STIM_011.jpg	99
1705.082	0.849	849.1	repeat	Run2	repeat/STIM_012.jpg	100
1708.694	0.487	487.4	repeat	Run2	repeat/STIM_012.jpg	99
1712.396	0.541	541.4	repeat	Run2	repeat/STIM_012.jpg	99
1715.252	0.751	751.0	repeat	Run2	repeat/STIM_012.jpg	99
1719.099	0.906	906.3	repeat	Run2	repeat/STIM_012.jpg	100
1722.445	0.771	771.0	repeat	Run2	repeat/STIM_013.jpg	100
1725.486	0.78	780.2	repeat	Run2	repeat/STIM_013.jpg	99
1729.392	0.581	581.2	repeat	Run2	repeat/STIM_013.jpg	100
1731.924	0.428	428.2	repeat	Run2	repeat/STIM_013.jpg	100
1735.935	0.642	642.1	repeat	Run2	repeat/STIM_013.jpg	100
1739.763	0.714	713.8	repeat	Run2	repeat/STIM_014.jpg	99
1743.324	0.458	457.5	repeat	Run2	repeat/STIM_014.jpg	99
1747.58	0.894	893.5	repeat	Run2	repeat/STIM_014.jpg	99
1750.912	0.879	879.4	repeat	Run2	repeat/STIM_014.jpg	100
1754.556	0.54	539.5	repeat	Run2	repeat/STIM_014.jpg	100
1757.195	1.144	1143.8	generate	Run3	generate/STIM_000.jpg	99
1761.996	1.187	1187.4	generate	Run3	generate/STIM_000.jpg	100
1765.848	1.343	1343.0	generate	Run3	generate/STIM_000.jpg	99
1769.538	1.485	1484.7	generate	Run3	generate/STIM_000.jpg	99
1774.116	1.793	1793.3	generate	Run3	generate/STIM_000.jpg	100
1778.986	0.777	777.4	generate	Run3	generate/STIM_001.jpg	100
1782.712	1.447	1447.3	generate	Run3	generate/STIM_001.jpg	99
1786.711	1.295	1295.3	generate	Run3	generate/STIM_001.jpg	99
1790.293	0.932	931.5	generate	Run3	generate/STIM_001.jpg	100
1794.741	1.588	1588.3	generate	Run3	generate/STIM_001.jpg	99
1799.646	1.192	1191.7	generate	Run3	generate/STIM_002.jpg	99
1803.155	1.267	1266.7	generate	Run3	generate/STIM_002.jpg	100
1807.297	1.044	1044.1	generate	Run3	generate/STIM_002.jpg	100
1810.997	0.902	902.4	generate	Run3	generate/STIM_002.jpg	99
1815.318	1.057	1057.4	generate	Run3	generate/STIM_002.jpg	99
1820.028	1.785	1785.4	generate	Run3	generate/STIM_003.jpg	99
1825.385	1.267	1267.2	generate	Run3	generate/STIM_003.jpg	99
1828.883	1.702	1702.2	generate	Run3	generate/STIM_003.jpg	100
1833.849	1.843	1842.6	generate	Run3	generate/STIM_003.jpg	99
1837.918	0.948	948.1	generate	Run3	generate/STIM_003.jpg	99
1841.483	1.924	1923.8	generate	Run3	generate/STIM_004.jpg	100
1845.876	1.514	1514.3	generate	Run3	generate/STIM_004.jpg	99
1849.884	1.728	1727.6	generate	Run3	generate/STIM_004.jpg	99
1854.253	1.947	1947.2	generate	Run3	generate/STIM_004.jpg	99
1858.492	0.833	833.2	generate	Run3	generate/STIM_004.jpg	99
1863.357	1.1	1100.5	generate	Run3	generate/STIM_005.jpg	100
1867.917	1.679	1679.0	generate	Run3	generate/STIM_005.jpg	100
1871.741	1.774	1774.3	generate	Run3	generate/STIM_005.jpg	100
1877.422	1.547	1546.8	generate	Run3	generate/STIM_005.jpg	100
1882.206	1.602	1601.6	generate	Run3	generate/STIM_005.jpg	100
1886.366	1.88	1880.2	generate	Run3	generate/STIM_006.jpg	100
1890.627	1.619	1618.7	generate	Run3	generate/STIM_006.jpg	100
1895.234	1.736	1735.5	generate	Run3	generate/STIM_006.jpg	100
1899.975	1.208	1207.9	generate	Run3	generate/STIM_006.jpg	99
1904.165	0.82	820.4	generate	Run3	generate/STIM_006.jpg	100
1908.314	0.99	989.9	generate	Run3	generate/STIM_007.jpg	99
1911.698	1.574	1573.8	generate	Run3	generate/STIM_007.jpg	100
1915.917	1.262	1261.5	generate	Run3	generate/STIM_007.jpg	100
1920.376	1.438	1437.9	generate	Run3	generate/STIM_007.jpg	99
1924.156	1.502	1502.4	generate	Run3	generate/STIM_007.jpg	100
1927.965	1.269	1269.3	generate	Run3	generate/STIM_008.jpg	99
1932.906	0.994	994.3	generate	Run3	generate/STIM_008.jpg	100
1937.576	1.502	1501.5	generate	Run3	generate/STIM_008.jpg	100
1942.164	1.296	1296.4	generate	Run3	generate/STIM_008.jpg	99
1946.16	1.785	1784.9	generate	Run3	generate/STIM_008.jpg	99
1951.353	1.222	1222.2	generate	Run3	generate/STIM_009.jpg	100
1955.038	1.063	1062.8	generate	Run3	generate/STIM_009.jpg	99
1959.649	1.445	1445.1	generate	Run3	generate/STIM_009.jpg	99
1964.412	1.136	1136.5	generate	Run3	generate/STIM_009.jpg	99
1968.276	1.85	1850.5	generate	Run3	generate/STIM_009.jpg	100
1973.909	0.753	753.0	generate	Run3	generate/STIM_010.jpg	100
1977.168	0.902	902.4	generate	Run3	generate/STIM_010.jpg	99
1981.232	1.704	1704.2	generate	Run3	generate/STIM_010.jpg	99
1986.655	1.34	1339.5	generate	Run3	generate/STIM_010.jpg	99
1991.533	1.152	1151.7	generate	Run3	generate/STIM_010.jpg	99
1994.919	1.542	1541.7	generate	Run3	generate/STIM_011.jpg	99
2000.588	1.14	1139.5	generate	Run3	generate/STIM_011.jpg	99
2005.719	1.251	1251.4	generate	Run3	generate/STIM_011.jpg	100
2010.395	1.648	1648.3	generate	Run3	generate/STIM_011.jpg	99
2014.374	1.664	1664.0	generate	Run3	generate/STIM_011.jpg	100
2018.79	1.8	1800.5	generate	Run3	generate/STIM_012.jpg	99
2023.701	1.719	1718.7	generate	Run3	generate/STIM_012.jpg	100
2029.346	0.96	959.5	generate	Run3	generate/STIM_012.jpg	100
2033.815	1.313	1312.9	generate	Run3	generate/STIM_012.jpg	99
2037.303	1.517	1517.2	generate	Run3	generate/STIM_012.jpg	100
2042.648	0.755	755.3	generate	Run3	generate/STIM_013.jpg	100
2047.474	1.229	1228.8	generate	Run3	generate/STIM_013.jpg	100
2051.313	1.513	1513.2	generate	Run3	generate/STIM_013.jpg	99
2055.829	1.762	1761.5	generate	Run3	generate/STIM_013.jpg	100
2061.531	1.134	1133.9	generate	Run3	generate/STIM_013.jpg	100
2065.592	1.698	1698.0	generate	Run3	generate/STIM_014.jpg	99
2070.768	1.782	1782.0	generate	Run3	generate/STIM_014.jpg	100
2074.951	1.467	1466.8	generate	Run3	generate/STIM_014.jpg	100
2080.5	0.878	877.8	generate	Run3	generate/STIM_014.jpg	100
2084.94	1.968	1968.5	generate	Run3	generate/STIM_014.jpg	99
2090.409	1.388	1388.3	generate	Run3	generate/STIM_015.jpg	100
2093.959	1.476	1475.5	generate	Run3	generate/STIM_015.jpg	100
2097.781	1.117	1117.3	generate	Run3	generate/STIM_015.jpg	100
2102.03	1.346	1346.3	generate	Run3	generate/STIM_015.jpg	99
2106.639	0.789	789.3	generate	Run3	generate/STIM_015.jpg	99
2111.116	1.78	1780.5	generate	Run3	generate/STIM_016.jpg	99
2115.232	1.776	1776.3	generate	Run3	generate/STIM_016.jpg	100
2120.703	1.701	1701.0	generate	Run3	generate/STIM_016.jpg	100
2125.077	1.224	1224.0	generate	Run3	generate/STIM_016.jpg	100
2129.348	1.218	1217.6	generate	Run3	generate/STIM_016.jpg	100
2132.903	0.999	998.9	generate	Run3	generate/STIM_017.jpg	100
2137.051	1.415	1415.1	generate	Run3	generate/STIM_017.jpg	100
2140.786	0.872	871.9	generate	Run3	generate/STIM_017.jpg	99
2145.095	1.466	1465.6	generate	Run3	generate/STIM_017.jpg	99
2149.576	1.738	1737.5	generate	Run3	generate/STIM_017.jpg	100
2154.764	1.156	1156.0	generate	Run3	generate/STIM_018.jpg	100
2159.642	1.126	1126.1	generate	Run3	generate/STIM_018.jpg	100
2163.421	1.489	1488.7	generate	Run3	generate/STIM_018.jpg	99
2168.563	1.58	1580.2	generate	Run3	generate/STIM_018.jpg	99
2174.217	1.041	1041.2	generate	Run3	generate/STIM_018.jpg	100
2178.443	1.006	1006.0	generate	Run3	generate/STIM_019.jpg	100
2182.388	1.713	1712.8	generate	Run3	generate/STIM_019.jpg	100
2187.926	1.94	1940.2	generate	Run3	generate/STIM_019.jpg	100
2192.838	1.181	1180.6	generate	Run3	generate/STIM_019.jpg	100
2197.729	1.049	1049.1	generate	Run3	generate/STIM_019.jpg	100
2202.783	0.947	947.0	generate	Run3	generate/STIM_020.jpg	99
2206.876	0.799	798.6	generate	Run3	generate/STIM_020.jpg	99
2211.431	1.64	1640.2	generate	Run3	generate/STIM_020.jpg	100
2216.961	1.941	1940.8	generate	Run3	generate/STIM_020.jpg	99
2221.696	1.813	1813.2	generate	Run3	generate/STIM_020.jpg	99
2227.209	1.812	1811.6	generate	Run3	generate/STIM_021.jpg	99
2231.654	1.343	1343.3	generate	Run3	generate/STIM_021.jpg	100
2236.298	1.357	1356.9	generate	Run3	generate/STIM_021.jpg	100
2240.886	1.613	1613.4	generate	Run3	generate/STIM_021.jpg	99
2245.814	1.298	1298.0	generate	Run3	generate/STIM_021.jpg	100
2249.579	1.742	1741.8	generate	Run3	generate/STIM_022.jpg	100
2254.367	1.212	1211.8	generate	Run3	generate/STIM_022.jpg	100
2258.069	1.439	1438.9	generate	Run3	generate/STIM_022.jpg	100
2262.808	1.474	1474.5	generate	Run3	generate/STIM_022.jpg	100
2267.514	1.359	1359.2	generate	Run3	generate/STIM_022.jpg	99
2271.954	0.827	826.6	generate	Run3	generate/STIM_023.jpg	100
2275.537	1.77	1769.9	generate	Run3	generate/STIM_023.jpg	100
2280.397	0.75	749.8	generate	Run3	generate/STIM_023.jpg	100
2283.83	1.694	1693.7	generate	Run3	generate/STIM_023.jpg	99
2289.614	1.08	1080.5	generate	Run3	generate/STIM_023.jpg	99
2294.162	1.27	1270.2	generate	Run3	generate/STIM_024.jpg	100
2297.726	0.826	826.4	generate	Run3	generate/STIM_024.jpg	100
2300.892	1.003	1003.2	generate	Run3	generate/STIM_024.jpg	99
2304.323	1.536	1536.4	generate	Run3	generate/STIM_024.jpg	100
2308.83	0.979	979.2	generate	Run3	generate/STIM_024.jpg	100
2312.858	0.694	693.6	repeat	Run3	repeat/STIM_000.jpg	99
2317.472	0.911	910.8	repeat	Run3	repeat/STIM_000.jpg	100
2321.816	0.579	578.6	repeat	Run3	repeat/STIM_000.jpg	100
2325.937	0.589	589.1	repeat	Run3	repeat/STIM_000.jpg	99
2329.064	0.489	489.1	repeat	Run3	repeat/STIM_000.jpg	100
2332.013	0.782	782.4	repeat	Run3	repeat/STIM_001.jpg	99
2335.636	0.744	743.6	repeat	Run3	repeat/STIM_001.jpg	100
2339.551	0.656	655.6	repeat	Run3	repeat/STIM_001.jpg	99
2342.345	0.813	812.9	repeat	Run3	repeat/STIM_001.jpg	100
2345.733	0.823	823.4	repeat	Run3	repeat/STIM_001.jpg	99
2348.767	0.8	799.8	repeat	Run3	repeat/STIM_002.jpg	99
2352.224	0.496	496.3	repeat	Run3	repeat/STIM_002.jpg	100
2354.845	0.656	656.4	repeat	Run3	repeat/STIM_002.jpg	100
2359.174	0.618	617.6	repeat	Run3	repeat/STIM_002.jpg	99
2362.012	0.546	545.6	repeat	Run3	repeat/STIM_002.jpg	99
2366.236	0.828	828.3	repeat	Run3	repeat/STIM_003.jpg	99
2370.923	0.756	756.2	repeat	Run3	repeat/STIM_003.jpg	99
2373.893	0.89	889.7	repeat	Run3	repeat/STIM_003.jpg	99
2377.668	0.672	672.4	repeat	Run3	repeat/STIM_003.jpg	99
2380.624	0.753	753.1	repeat	Run3	repeat/STIM_003.jpg	100
2384.322	0.701	701.0	repeat	Run3	repeat/STIM_004.jpg	99
2388.886	0.918	917.9	repeat	Run3	repeat/STIM_004.jpg	100
2392.792	0.658	658.3	repeat	Run3	repeat/STIM_004.jpg	100
2397.417	0.714	713.7	repeat	Run3	repeat/STIM_004.jpg	100
2401.042	0.867	867.4	repeat	Run3	repeat/STIM_004.jpg	99
2404.543	0.581	580.6	repeat	Run3	repeat/STIM_005.jpg	100
2407.52	0.506	506.1	repeat	Run3	repeat/STIM_005.jpg	99
2410.49	0.542	542.2	repeat	Run3	repeat/STIM_005.jpg	100
2414.471	0.826	826.0	repeat	Run3	repeat/STIM_005.jpg	100
2418.246	0.529	529.3	repeat	Run3	repeat/STIM_005.jpg	100
2422.824	0.808	807.8	repeat	Run3	repeat/STIM_006.jpg	99
2426.205	0.615	614.9	repeat	Run3	repeat/STIM_006.jpg	100
2429.853	0.776	775.5	repeat	Run3	repeat/STIM_006.jpg	99
2434.604	0.717	716.9	repeat	Run3	repeat/STIM_006.jpg	100
2438.162	0.567	566.6	repeat	Run3	repeat/STIM_006.jpg	100
2441.804	0.734	733.9	repeat	Run3	repeat/STIM_007.jpg	100
2446.409	0.545	545.3	repeat	Run3	repeat/STIM_007.jpg	99
2450.007	0.862	862.3	repeat	Run3	repeat/STIM_007.jpg	99
2453.334	0.829	829.3	repeat	Run3	repeat/STIM_007.jpg	99
2456.371	0.893	893.3	repeat	Run3	repeat/STIM_007.jpg	100
2460.392	0.53	530.2	repeat	Run3	repeat/STIM_008.jpg	100
2464.729	0.945	944.8	repeat	Run3	repeat/STIM_008.jpg	99
2468.425	0.776	775.9	repeat	Run3	repeat/STIM_008.jpg	99
2472.737	0.822	822.3	repeat	Run3	repeat/STIM_008.jpg	100
2477.362	0.799	799.4	repeat	Run3	repeat/STIM_008.jpg	100
2481.518	0.667	667.4	repeat	Run3	repeat/STIM_009.jpg	100
2485.345	0.699	698.8	repeat	Run3	repeat/STIM_009.jpg	99
2488.295	0.512	512.2	repeat	Run3	repeat/STIM_009.jpg	100
2492.43	0.829	829.3	repeat	Run3	repeat/STIM_009.jpg	99
2495.546	0.525	524.8	repeat	Run3	repeat/STIM_009.jpg	100
2498.984	0.505	504.9	repeat	Run3	repeat/STIM_010.jpg	100
2503.022	0.699	698.9	repeat	Run3	repeat/STIM_010.jpg	99
2507.147	0.498	498.1	repeat	Run3	repeat/STIM_010.jpg	99
2511.134	0.575	575.1	repeat	Run3	repeat/STIM_010.jpg	99
2515.144	0.724	724.0	repeat	Run3	repeat/STIM_010.jpg	99
2518.417	0.724	724.3	repeat	Run3	repeat/STIM_011.jpg	100
2522.981	0.772	771.7	repeat	Run3	repeat/STIM_011.jpg	100
2526.103	0.929	929.3	repeat	Run3	repeat/STIM_011.jpg	100
2530.195	0.559	559.3	repeat	Run3	repeat/STIM_011.jpg	100
2533.671	0.741	741.0	repeat	Run3	repeat/STIM_011.jpg	100
2538.043	0.821	821.4	repeat	Run3	repeat/STIM_012.jpg	100
2542.649	0.847	846.9	repeat	Run3	repeat/STIM_012.jpg	100
2545.87	0.605	605.4	repeat	Run3	repeat/STIM_012.jpg	100
2548.561	0.557	557.1	repeat	Run3	repeat/STIM_012.jpg	99
2552.983	0.561	560.7	repeat	Run3	repeat/STIM_012.jpg	99
2556.156	0.747	746.7	repeat	Run3	repeat/STIM_013.jpg	100
2560.164	0.559	558.9	repeat	Run3	repeat/STIM_013.jpg	99
2563.196	0.641	641.1	repeat	Run3	repeat/STIM_013.jpg	99
2567.299	0.55	549.8	repeat	Run3	repeat/STIM_013.jpg	100
2571.568	0.834	833.8	repeat	Run3	repeat/STIM_013.jpg	99
2575.533	0.631	630.8	repeat	Run3	repeat/STIM_014.jpg	99
2578.665	0.791	790.8	repeat	Run3	repeat/STIM_014.jpg	99
2582.643	0.871	870.8	repeat	Run3	repeat/STIM_014.jpg	99
2586.091	0.622	622.0	repeat	Run3	repeat/STIM_014.jpg	99
2590.693	0.922	922.5	repeat	Run3	repeat/STIM_014.jpg	99
2594.107	1.086	1085.6	generate	Run4	generate/STIM_000.jpg	100
2597.732	1.336	1335.5	generate	Run4	generate/STIM_000.jpg	99
2602.759	0.981	980.9	generate	Run4	generate/STIM_000.jpg	100
2606.039	0.856	855.7	generate	Run4	generate/STIM_000.jpg	100
2609.544	1.446	1445.6	generate	Run4	generate/STIM_000.jpg	99
2614.34	1.61	1610.4	generate	Run4	generate/STIM_001.jpg	99
2619.546	0.957	957.0	generate	Run4	generate/STIM_001.jpg	100
2624.125	0.753	752.7	generate	Run4	generate/STIM_001.jpg	99
2627.353	1.314	1313.9	generate	Run4	generate/STIM_001.jpg	100
2631.253	1.704	1704.3	generate	Run4	generate/STIM_001.jpg	99
2635.683	1.652	1652.1	generate	Run4	generate/STIM_002.jpg	100
2639.528	1.793	1792.8	generate	Run4	generate/STIM_002.jpg	99
2644.815	1.88	1880.2	generate	Run4	generate/STIM_002.jpg	99
2650.317	0.946	945.5	generate	Run4	generate/STIM_002.jpg	100
2654.07	1.772	1771.5	generate	Run4	generate/STIM_002.jpg	100
2658.425	1.822	1822.4	generate	Run4	generate/STIM_003.jpg	100
2664.09	0.753	753.2	generate	Run4	generate/STIM_003.jpg	100
2667.814	1.294	1294.0	generate	Run4	generate/STIM_003.jpg	99
2672.821	1.42	1419.7	generate	Run4	generate/STIM_003.jpg	100
2676.663	1.834	1834.3	generate	Run4	generate/STIM_003.jpg	100
2681.259	1.444	1444.4	generate	Run4	generate/STIM_004.jpg	99
2686.512	1.683	1683.2	generate	Run4	generate/STIM_004.jpg	100
2692.257	1.915	1915.4	generate	Run4	generate/STIM_004.jpg	99
2697.62	0.819	819.2	generate	Run4	generate/STIM_004.jpg	100
2702.072	1.429	1428.6	generate	Run4	generate/STIM_004.jpg	100
2706.787	1.483	1483.4	generate	Run4	generate/STIM_005.jpg	99
2711.73	1.077	1076.8	generate	Run4	generate/STIM_005.jpg	99
2715.692	1.642	1641.5	generate	Run4	generate/STIM_005.jpg	100
2719.703	0.93	930.1	generate	Run4	generate/STIM_005.jpg	100
2724.439	1.551	1551.2	generate	Run4	generate/STIM_005.jpg	100
2729.166	1.233	1233.4	generate	Run4	generate/STIM_006.jpg	100
2732.641	0.756	756.3	generate	Run4	generate/STIM_006.jpg	100
2735.892	0.951	950.9	generate	Run4	generate/STIM_006.jpg	100
2739.334	0.98	980.5	generate	Run4	generate/STIM_006.jpg	100
2743.263	1.168	1168.5	generate	Run4	generate/STIM_006.jpg	100
2747.06	1.532	1532.4	generate	Run4	generate/STIM_007.jpg	99
2750.788	1.818	1818.4	generate	Run4	generate/STIM_007.jpg	99
2756.476	1.41	1409.9	generate	Run4	generate/STIM_007.jpg	99
2761.592	1.86	1860.3	generate	Run4	generate/STIM_007.jpg	99
2767.486	1.075	1074.6	generate	Run4	generate/STIM_007.jpg	100
2770.984	0.874	874.1	generate	Run4	generate/STIM_008.jpg	99
2774.552	1.249	1248.7	generate	Run4	generate/STIM_008.jpg	99
2778.797	0.851	851.0	generate	Run4	generate/STIM_008.jpg	99
2783.336	1.192	1191.5	generate	Run4	generate/STIM_008.jpg	99
2786.997	0.855	855.0	generate	Run4	generate/STIM_008.jpg	100
2790.197	1.375	1375.1	generate	Run4	generate/STIM_009.jpg	100
2794.5	1.789	1788.6	generate	Run4	generate/STIM_009.jpg	100
2798.737	1.971	1971.1	generate	Run4	generate/STIM_009.jpg	99
2802.873	0.874	874.5	generate	Run4	generate/STIM_009.jpg	99
2806.991	1.752	1752.0	generate	Run4	generate/STIM_009.jpg	100
2810.984	1.076	1076.4	generate	Run4	generate/STIM_010.jpg	100
2815.338	1.516	1515.6	generate	Run4	generate/STIM_010.jpg	99
2819.696	0.902	901.6	generate	Run4	generate/STIM_010.jpg	100
2823.761	1.373	1373.4	generate	Run4	generate/STIM_010.jpg	99
2827.84	1.271	1271.1	generate	Run4	generate/STIM_010.jpg	100
2832.578	1.723	1722.7	generate	Run4	generate/STIM_011.jpg	100
2837.904	1.528	1527.6	generate	Run4	generate/STIM_011.jpg	99
2843.56	1.758	1758.4	generate	Run4	generate/STIM_011.jpg	100
2848.205	1.75	1749.9	generate	Run4	generate/STIM_011.jpg	100
2852.718	0.736	735.9	generate	Run4	generate/STIM_011.jpg	100
2857.378	0.886	886.1	generate	Run4	generate/STIM_012.jpg	99
2861.819	1.343	1342.7	generate	Run4	generate/STIM_012.jpg	99
2867.197	1.215	1215.3	generate	Run4	generate/STIM_012.jpg	99
2870.77	0.782	782.3	generate	Run4	generate/STIM_012.jpg	99
2874.375	1.435	1435.0	generate	Run4	generate/STIM_012.jpg	99
2879.43	1.191	1190.7	generate	Run4	generate/STIM_013.jpg	100
2884.719	1.352	1352.2	generate	Run4	generate/STIM_013.jpg	99
2889.785	1.133	1133.4	generate	Run4	generate/STIM_013.jpg	100
2893.271	1.857	1856.9	generate	Run4	generate/STIM_013.jpg	99
2898.923	1.485	1484.8	generate	Run4	generate/STIM_013.jpg	99
2903.887	1.887	1887.1	generate	Run4	generate/STIM_014.jpg	100
2908.924	1.737	1737.2	generate	Run4	generate/STIM_014.jpg	100
2912.909	0.974	974.2	generate	Run4	generate/STIM_014.jpg	100
2916.84	1.852	1852.2	generate	Run4	generate/STIM_014.jpg	99
2922.632	1.317	1316.9	generate	Run4	generate/STIM_014.jpg	100
2927.16	1.383	1383.3	generate	Run4	generate/STIM_015.jpg	99
2931.096	0.882	882.1	generate	Run4	generate/STIM_015.jpg	100
2934.727	1.728	1728.2	generate	Run4	generate/STIM_015.jpg	100
2939.562	1.132	1131.7	generate	Run4	generate/STIM_015.jpg	100
2943.433	1.948	1947.9	generate	Run4	generate/STIM_015.jpg	100
2949.138	1.206	1206.2	generate	Run4	generate/STIM_016.jpg	100
2952.784	0.949	948.9	generate	Run4	generate/STIM_016.jpg	100
2956.155	1.174	1173.5	generate	Run4	generate/STIM_016.jpg	99
2959.958	1.29	1290.0	generate	Run4	generate/STIM_016.jpg	99
2963.479	1.585	1584.6	generate	Run4	generate/STIM_016.jpg	99
2967.955	1.67	1670.0	generate	Run4	generate/STIM_017.jpg	100
2972.195	0.994	993.5	generate	Run4	generate/STIM_017.jpg	100
2975.877	1.702	1701.5	generate	Run4	generate/STIM_017.jpg	100
2980.068	0.918	917.7	generate	Run4	generate/STIM_017.jpg	99
2984.839	1.246	1245.7	generate	Run4	generate/STIM_017.jpg	99
2989.422	1.661	1661.2	generate	Run4	generate/STIM_018.jpg	100
2993.853	1.603	1602.9	generate	Run4	generate/STIM_018.jpg	100
2999.304	1.281	1280.9	generate	Run4	generate/STIM_018.jpg	99
3002.938	0.886	885.9	generate	Run4	generate/STIM_018.jpg	100
3006.475	0.934	934.5	generate	Run4	generate/STIM_018.jpg	100
3010.556	1.357	1357.0	generate	Run4	generate/STIM_019.jpg	100
3014.403	1.045	1045.1	generate	Run4	generate/STIM_019.jpg	100
3019.143	1.066	1065.6	generate	Run4	generate/STIM_019.jpg	99
3023.06	1.298	1298.4	generate	Run4	generate/STIM_019.jpg	99
3027.461	1.417	1417.4	generate	Run4	generate/STIM_019.jpg	100
3031.906	1.975	1974.9	generate	Run4	generate/STIM_020.jpg	99
3037.354	1.593	1592.6	generate	Run4	generate/STIM_020.jpg	100
3042.312	1.418	1417.8	generate	Run4	generate/STIM_020.jpg	100
3046.451	1.199	1198.6	generate	Run4	generate/STIM_020.jpg	99
3050.244	1.066	1065.7	generate	Run4	generate/STIM_020.jpg	99
3053.77	1.544	1543.6	generate	Run4	generate/STIM_021.jpg	100
3057.969	1.228	1227.7	generate	Run4	generate/STIM_021.jpg	99
3062.365	1.118	1118.1	generate	Run4	generate/STIM_021.jpg	99
3067.034	1.82	1819.7	generate	Run4	generate/STIM_021.jpg	99
3072.61	1.649	1649.1	generate	Run4	generate/STIM_021.jpg	99
3077.69	1.531	1531.2	generate	Run4	generate/STIM_022.jpg	99
3081.636	1.355	1355.2	generate	Run4	generate/STIM_022.jpg	99
3086.921	1.748	1748.4	generate	Run4	generate/STIM_022.jpg	100
3091.178	1.582	1581.8	generate	Run4	generate/STIM_022.jpg	100
3095.795	1.635	1635.0	generate	Run4	generate/STIM_022.jpg	100
3100.316	1.626	1625.6	generate	Run4	generate/STIM_023.jpg	100
3105.848	1.811	1810.6	generate	Run4	generate/STIM_023.jpg	99
3110.223	1.173	1172.6	generate	Run4	generate/STIM_023.jpg	100
3114.576	1.038	1038.2	generate	Run4	generate/STIM_023.jpg	99
3118.896	1.336	1335.6	generate	Run4	generate/STIM_023.jpg	100
3123.522	1.688	1687.5	generate	Run4	generate/STIM_024.jpg	99
3127.369	1.217	1216.8	generate	Run4	generate/STIM_024.jpg	100
3131.855	1.545	1544.9	generate	Run4	generate/STIM_024.jpg	99
3136.787	1.02	1020.5	generate	Run4	generate/STIM_024.jpg	100
3141.78	1.261	1261.2	generate	Run4	generate/STIM_024.jpg	100
3145.363	0.77	769.6	repeat	Run4	repeat/STIM_000.jpg	99
3149.208	0.472	472.4	repeat	Run4	repeat/STIM_000.jpg	100
3153.152	0.877	877.0	repeat	Run4	repeat/STIM_000.jpg	99
3156.231	0.649	649.0	repeat	Run4	repeat/STIM_000.jpg	100
3160.223	0.77	770.4	repeat	Run4	repeat/STIM_000.jpg	100
3164.876	0.711	711.0	repeat	Run4	repeat/STIM_001.jpg	99
3169.395	0.849	848.6	repeat	Run4	repeat/STIM_001.jpg	99
3173.735	0.473	472.7	repeat	Run4	repeat/STIM_001.jpg	99
3178.076	0.494	493.7	repeat	Run4	repeat/STIM_001.jpg	100
3181.477	0.763	763.1	repeat	Run4	repeat/STIM_001.jpg	99
3185.429	0.66	659.9	repeat	Run4	repeat/STIM_002.jpg	100
3189.67	0.556	556.5	repeat	Run4	repeat/STIM_002.jpg	100
3192.283	0.707	706.8	repeat	Run4	repeat/STIM_002.jpg	99
3196.21	0.51	510.1	repeat	Run4	repeat/STIM_002.jpg	100
3200.079	0.466	465.9	repeat	Run4	repeat/STIM_002.jpg	100
3203.341	0.855	855.4	repeat	Run4	repeat/STIM_003.jpg	100
3207.682	0.655	654.8	repeat	Run4	repeat/STIM_003.jpg	100
3210.874	0.422	422.1	repeat	Run4	repeat/STIM_003.jpg	100
3214.45	0.819	819.3	repeat	Run4	repeat/STIM_003.jpg	100
3218.124	0.634	634.2	repeat	Run4	repeat/STIM_003.jpg	100
3221.461	0.742	741.9	repeat	Run4	repeat/STIM_004.jpg	100
3225.282	0.682	681.5	repeat	Run4	repeat/STIM_004.jpg	99
3228.183	0.564	564.2	repeat	Run4	repeat/STIM_004.jpg	99
3232.256	0.71	709.5	repeat	Run4	repeat/STIM_004.jpg	100
3236.75	0.727	727.2	repeat	Run4	repeat/STIM_004.jpg	100
3240.77	0.897	897.3	repeat	Run4	repeat/STIM_005.jpg	100
3244.449	0.628	628.0	repeat	Run4	repeat/STIM_005.jpg	100
3247.876	0.513	513.4	repeat	Run4	repeat/STIM_005.jpg	100
3251.363	0.588	587.7	repeat	Run4	repeat/STIM_005.jpg	99
3254.249	0.638	638.3	repeat	Run4	repeat/STIM_005.jpg	99
3258.546	0.643	643.0	repeat	Run4	repeat/STIM_006.jpg	99
3262.604	0.701	701.1	repeat	Run4	repeat/STIM_006.jpg	99
3266.165	0.485	484.9	repeat	Run4	repeat/STIM_006.jpg	100
3270.659	0.816	816.2	repeat	Run4	repeat/STIM_006.jpg	100
3273.654	0.665	664.7	repeat	Run4	repeat/STIM_006.jpg	100
3278.342	0.773	772.9	repeat	Run4	repeat/STIM_007.jpg	100
3281.675	0.957	957.4	repeat	Run4	repeat/STIM_007.jpg	99
3285.7	0.639	639.3	repeat	Run4	repeat/STIM_007.jpg	99
3290.123	0.696	695.5	repeat	Run4	repeat/STIM_007.jpg	100
3294.086	0.818	818.5	repeat	Run4	repeat/STIM_007.jpg	99
3297.378	0.844	843.5	repeat	Run4	repeat/STIM_008.jpg	100
3301.989	0.453	452.6	repeat	Run4	repeat/STIM_008.jpg	99
3305.215	0.874	873.7	repeat	Run4	repeat/STIM_008.jpg	99
3309.789	0.82	820.0	repeat	Run4	repeat/STIM_008.jpg	99
3313.684	1.007	1007.0	repeat	Run4	repeat/STIM_008.jpg	100
3317.282	0.87	870.2	repeat	Run4	repeat/STIM_009.jpg	100
3320.669	0.667	667.2	repeat	Run4	repeat/STIM_009.jpg	100
3323.843	0.875	874.7	repeat	Run4	repeat/STIM_009.jpg	99
3327.702	0.727	727.2	repeat	Run4	repeat/STIM_009.jpg	99
3331.209	0.479	478.8	repeat	Run4	repeat/STIM_009.jpg	99
3334.598	0.672	672.5	repeat	Run4	repeat/STIM_010.jpg	100
3337.327	0.765	765.4	repeat	Run4	repeat/STIM_010.jpg	99
3340.246	0.612	611.7	repeat	Run4	repeat/STIM_010.jpg	99
3344.082	0.561	561.4	repeat	Run4	repeat/STIM_010.jpg	100
3347.023	0.55	549.9	repeat	Run4	repeat/STIM_010.jpg	99
3351.287	0.651	650.6	repeat	Run4	repeat/STIM_011.jpg	99
3355.246	0.465	465.4	repeat	Run4	repeat/STIM_011.jpg	100
3357.984	0.638	637.9	repeat	Run4	repeat/STIM_011.jpg	100
3361.921	0.568	568.2	repeat	Run4	repeat/STIM_011.jpg	100
3366.409	0.857	857.1	repeat	Run4	repeat/STIM_011.jpg	100
3370.624	0.756	755.7	repeat	Run4	repeat/STIM_012.jpg	99
3373.783	0.791	791.4	repeat	Run4	repeat/STIM_012.jpg	99
3376.878	0.684	684.5	repeat	Run4	repeat/STIM_012.jpg	99
3379.889	0.747	747.4	repeat	Run4	repeat/STIM_012.jpg	99
3384.396	0.687	687.3	repeat	Run4	repeat/STIM_012.jpg	99
3387.968	0.735	734.9	repeat	Run4	repeat/STIM_013.jpg	100
3391.72	0.711	711.2	repeat	Run4	repeat/STIM_013.jpg	100
3394.734	0.84	840.5	repeat	Run4	repeat/STIM_013.jpg	99
3397.722	0.758	757.5	repeat	Run4	repeat/STIM_013.jpg	100
3402.414	0.725	725.4	repeat	Run4	repeat/STIM_013.jpg	100
3405.996	0.626	626.4	repeat	Run4	repeat/STIM_014.jpg	100
3408.965	0.569	569.0	repeat	Run4	repeat/STIM_014.jpg	99
3413.271	0.52	520.2	repeat	Run4	repeat/STIM_014.jpg	100
3415.913	0.717	716.7	repeat	Run4	repeat/STIM_014.jpg	99
3419.707	0.567	567.2	repeat	Run4	repeat/STIM_014.jpg	100
