onset	duration	accuracy_binary	trial_type	learning_stage	stimulus
0.0	2.788	1	generate	Run1	generate/STIM_000.jpg
4.966	1.361	1	generate	Run1	generate/STIM_000.jpg
8.521	1.6	0	generate	Run1	generate/STIM_000.jpg
12.764	2.255	1	generate	Run1	generate/STIM_000.jpg
18.773	2.103	1	generate	Run1	generate/STIM_000.jpg
24.033	2.63	1	generate	Run1	generate/STIM_001.jpg
28.906	2.009	1	generate	Run1	generate/STIM_001.jpg
32.992	1.567	0	generate	Run1	generate/STIM_001.jpg
37.508	2.05	1	generate	Run1	generate/STIM_001.jpg
43.114	1.1	1	generate	Run1	generate/STIM_001.jpg
47.517	1.368	0	generate	Run1	generate/STIM_002.jpg
52.564	2.419	0	generate	Run1	generate/STIM_002.jpg
57.501	2.628	1	generate	Run1	generate/STIM_002.jpg
62.706	1.143	0	generate	Run1	generate/STIM_002.jpg
66.572	1.37	1	generate	Run1	generate/STIM_002.jpg
70.91	1.817	1	generate	Run1	generate/STIM_003.jpg
76.398	1.798	1	generate	Run1	generate/STIM_003.jpg
80.589	1.684	1	generate	Run1	generate/STIM_003.jpg
85.441	2.452	1	generate	Run1	generate/STIM_003.jpg
89.925	1.641	1	generate	Run1	generate/STIM_003.jpg
93.65	2.483	0	generate	Run1	generate/STIM_004.jpg
99.569	2.002	0	generate	Run1	generate/STIM_004.jpg
105.33	1.824	1	generate	Run1	generate/STIM_004.jpg
109.385	1.998	1	generate	Run1	generate/STIM_004.jpg
114.022	1.786	1	generate	Run1	generate/STIM_004.jpg
118.846	1.565	1	generate	Run1	generate/STIM_005.jpg
122.536	2.138	1	generate	Run1	generate/STIM_005.jpg
126.845	2.582	1	generate	Run1	generate/STIM_005.jpg
131.817	1.697	1	generate	Run1	generate/STIM_005.jpg
136.177	2.099	1	generate	Run1	generate/STIM_005.jpg
140.688	1.932	0	generate	Run1	generate/STIM_006.jpg
145.16	1.27	1	generate	Run1	generate/STIM_006.jpg
149.917	2.266	0	generate	Run1	generate/STIM_006.jpg
154.347	1.612	1	generate	Run1	generate/STIM_006.jpg
159.406	1.655	1	generate	Run1	generate/STIM_006.jpg
163.073	1.582	1	generate	Run1	generate/STIM_007.jpg
167.764	1.212	0	generate	Run1	generate/STIM_007.jpg
172.359	2.035	1	generate	Run1	generate/STIM_007.jpg
177.076	1.187	0	generate	Run1	generate/STIM_007.jpg
181.714	1.204	0	generate	Run1	generate/STIM_007.jpg
185.025	2.783	0	generate	Run1	generate/STIM_008.jpg
190.154	2.28	0	generate	Run1	generate/STIM_008.jpg
194.828	1.982	0	generate	Run1	generate/STIM_008.jpg
199.669	1.787	0	generate	Run1	generate/STIM_008.jpg
204.547	1.814	1	generate	Run1	generate/STIM_008.jpg
208.447	2.234	0	generate	Run1	generate/STIM_009.jpg
214.047	2.238	1	generate	Run1	generate/STIM_009.jpg
218.527	2.226	1	generate	Run1	generate/STIM_009.jpg
224.283	1.912	1	generate	Run1	generate/STIM_009.jpg
230.073	1.263	1	generate	Run1	generate/STIM_009.jpg
234.511	2.941	1	generate	Run1	generate/STIM_010.jpg
239.966	1.693	1	generate	Run1	generate/STIM_010.jpg
245.538	1.116	1	generate	Run1	generate/STIM_010.jpg
250.59	1.579	0	generate	Run1	generate/STIM_010.jpg
255.772	2.098	1	generate	Run1	generate/STIM_010.jpg
261.003	1.552	1	generate	Run1	generate/STIM_011.jpg
265.773	1.143	1	generate	Run1	generate/STIM_011.jpg
269.702	2.378	0	generate	Run1	generate/STIM_011.jpg
275.374	2.371	1	generate	Run1	generate/STIM_011.jpg
280.462	1.778	1	generate	Run1	generate/STIM_011.jpg
284.382	1.709	1	generate	Run1	generate/STIM_012.jpg
288.884	2.545	1	generate	Run1	generate/STIM_012.jpg
294.193	1.87	0	generate	Run1	generate/STIM_012.jpg
298.257	1.651	0	generate	Run1	generate/STIM_012.jpg
303.573	2.37	1	generate	Run1	generate/STIM_012.jpg
309.664	2.128	1	generate	Run1	generate/STIM_013.jpg
315.128	1.886	1	generate	Run1	generate/STIM_013.jpg
320.167	1.704	1	generate	Run1	generate/STIM_013.jpg
325.761	2.127	0	generate	Run1	generate/STIM_013.jpg
330.526	1.182	1	generate	Run1	generate/STIM_013.jpg
334.408	1.76	0	generate	Run1	generate/STIM_014.jpg
339.7	2.706	1	generate	Run1	generate/STIM_014.jpg
344.566	1.117	1	generate	Run1	generate/STIM_014.jpg
347.733	1.967	1	generate	Run1	generate/STIM_014.jpg
352.002	1.935	1	generate	Run1	generate/STIM_014.jpg
356.09	1.418	1	generate	Run1	generate/STIM_015.jpg
360.977	1.234	1	generate	Run1	generate/STIM_015.jpg
364.479	2.446	1	generate	Run1	generate/STIM_015.jpg
369.791	1.328	1	generate	Run1	generate/STIM_015.jpg
374.973	2.048	0	generate	Run1	generate/STIM_015.jpg
380.19	2.993	0	generate	Run1	generate/STIM_016.jpg
386.259	2.783	0	generate	Run1	generate/STIM_016.jpg
391.228	2.673	0	generate	Run1	generate/STIM_016.jpg
396.972	1.037	1	generate	Run1	generate/STIM_016.jpg
401.109	2.058	1	generate	Run1	generate/STIM_016.jpg
406.664	2.125	0	generate	Run1	generate/STIM_017.jpg
411.361	2.496	1	generate	Run1	generate/STIM_017.jpg
415.869	1.718	1	generate	Run1	generate/STIM_017.jpg
420.228	2.162	1	generate	Run1	generate/STIM_017.jpg
424.887	1.93	1	generate	Run1	generate/STIM_017.jpg
430.103	2.195	1	generate	Run1	generate/STIM_018.jpg
435.139	2.091	1	generate	Run1	generate/STIM_018.jpg
440.796	2.548	1	generate	Run1	generate/STIM_018.jpg
447.09	1.916	1	generate	Run1	generate/STIM_018.jpg
451.602	1.849	1	generate	Run1	generate/STIM_018.jpg
456.587	1.791	1	generate	Run1	generate/STIM_019.jpg
460.51	2.802	1	generate	Run1	generate/STIM_019.jpg
466.244	1.31	1	generate	Run1	generate/STIM_019.jpg
470.547	1.898	0	generate	Run1	generate/STIM_019.jpg
476.059	1.218	1	generate	Run1	generate/STIM_019.jpg
479.798	2.942	1	generate	Run1	generate/STIM_020.jpg
485.218	2.786	0	generate	Run1	generate/STIM_020.jpg
490.927	1.772	1	generate	Run1	generate/STIM_020.jpg
496.338	2.094	1	generate	Run1	generate/STIM_020.jpg
502.343	1.735	1	generate	Run1	generate/STIM_020.jpg
507.04	2.642	0	generate	Run1	generate/STIM_021.jpg
513.428	1.408	0	generate	Run1	generate/STIM_021.jpg
517.312	1.475	0	generate	Run1	generate/STIM_021.jpg
521.666	2.162	0	generate	Run1	generate/STIM_021.jpg
526.773	1.601	1	generate	Run1	generate/STIM_021.jpg
532.292	1.232	0	generate	Run1	generate/STIM_022.jpg
535.78	2.051	0	generate	Run1	generate/STIM_022.jpg
540.708	2.44	0	generate	Run1	generate/STIM_022.jpg
547.115	2.055	0	generate	Run1	generate/STIM_022.jpg
552.811	2.315	0	generate	Run1	generate/STIM_022.jpg
558.336	2.46	1	generate	Run1	generate/STIM_023.jpg
563.948	2.08	1	generate	Run1	generate/STIM_023.jpg
568.04	2.219	1	generate	Run1	generate/STIM_023.jpg
573.406	2.134	1	generate	Run1	generate/STIM_023.jpg
579.337	1.771	1	generate	Run1	generate/STIM_023.jpg
584.723	1.566	0	generate	Run1	generate/STIM_024.jpg
589.782	2.272	1	generate	Run1	generate/STIM_024.jpg
595.522	1.777	1	generate	Run1	generate/STIM_024.jpg
599.524	1.942	1	generate	Run1	generate/STIM_024.jpg
604.065	1.441	0	generate	Run1	generate/STIM_024.jpg
609.288	0.963	0	repeat	Run1	repeat/STIM_000.jpg
613.763	0.757	1	repeat	Run1	repeat/STIM_000.jpg
617.966	0.966	1	repeat	Run1	repeat/STIM_000.jpg
622.166	0.823	0	repeat	Run1	repeat/STIM_000.jpg
625.373	0.626	1	repeat	Run1	repeat/STIM_000.jpg
628.038	0.589	1	repeat	Run1	repeat/STIM_001.jpg
632.584	0.827	1	repeat	Run1	repeat/STIM_001.jpg
636.331	0.676	1	repeat	Run1	repeat/STIM_001.jpg
640.81	0.896	1	repeat	Run1	repeat/STIM_001.jpg
644.198	0.552	1	repeat	Run1	repeat/STIM_001.jpg
648.022	0.562	1	repeat	Run1	repeat/STIM_002.jpg
652.224	0.629	1	repeat	Run1	repeat/STIM_002.jpg
655.089	0.84	1	repeat	Run1	repeat/STIM_002.jpg
658.041	0.858	1	repeat	Run1	repeat/STIM_002.jpg
661.237	0.996	1	repeat	Run1	repeat/STIM_002.jpg
665.91	0.641	1	repeat	Run1	repeat/STIM_003.jpg
669.906	0.651	1	repeat	Run1	repeat/STIM_003.jpg
674.136	0.819	1	repeat	Run1	repeat/STIM_003.jpg
677.119	0.875	1	repeat	Run1	repeat/STIM_003.jpg
681.624	0.928	1	repeat	Run1	repeat/STIM_003.jpg
686.26	0.637	1	repeat	Run1	repeat/STIM_004.jpg
688.956	0.86	1	repeat	Run1	repeat/STIM_004.jpg
693.702	0.915	1	repeat	Run1	repeat/STIM_004.jpg
698.541	0.696	1	repeat	Run1	repeat/STIM_004.jpg
702.42	0.556	1	repeat	Run1	repeat/STIM_004.jpg
706.631	0.722	1	repeat	Run1	repeat/STIM_005.jpg
710.828	0.654	1	repeat	Run1	repeat/STIM_005.jpg
714.881	0.718	1	repeat	Run1	repeat/STIM_005.jpg
718.246	0.878	0	repeat	Run1	repeat/STIM_005.jpg
722.752	0.824	1	repeat	Run1	repeat/STIM_005.jpg
727.122	0.522	1	repeat	Run1	repeat/STIM_006.jpg
729.898	0.974	1	repeat	Run1	repeat/STIM_006.jpg
734.475	0.708	1	repeat	Run1	repeat/STIM_006.jpg
738.952	0.808	1	repeat	Run1	repeat/STIM_006.jpg
742.408	0.929	1	repeat	Run1	repeat/STIM_006.jpg
746.977	0.68	1	repeat	Run1	repeat/STIM_007.jpg
749.968	0.789	1	repeat	Run1	repeat/STIM_007.jpg
754.234	0.703	1	repeat	Run1	repeat/STIM_007.jpg
758.835	0.782	1	repeat	Run1	repeat/STIM_007.jpg
761.712	0.65	1	repeat	Run1	repeat/STIM_007.jpg
765.223	0.845	1	repeat	Run1	repeat/STIM_008.jpg
768.738	0.982	0	repeat	Run1	repeat/STIM_008.jpg
773.026	0.827	1	repeat	Run1	repeat/STIM_008.jpg
776.008	0.642	0	repeat	Run1	repeat/STIM_008.jpg
779.185	0.736	1	repeat	Run1	repeat/STIM_008.jpg
782.489	0.543	1	repeat	Run1	repeat/STIM_009.jpg
786.84	0.806	1	repeat	Run1	repeat/STIM_009.jpg
790.506	0.966	0	repeat	Run1	repeat/STIM_009.jpg
794.535	0.582	1	repeat	Run1	repeat/STIM_009.jpg
797.651	0.622	1	repeat	Run1	repeat/STIM_009.jpg
801.121	0.722	0	repeat	Run1	repeat/STIM_010.jpg
805.29	0.952	1	repeat	Run1	repeat/STIM_010.jpg
808.923	0.809	1	repeat	Run1	repeat/STIM_010.jpg
812.297	0.67	1	repeat	Run1	repeat/STIM_010.jpg
815.643	0.591	0	repeat	Run1	repeat/STIM_010.jpg
818.756	0.65	1	repeat	Run1	repeat/STIM_011.jpg
821.79	0.848	1	repeat	Run1	repeat/STIM_011.jpg
825.938	0.737	1	repeat	Run1	repeat/STIM_011.jpg
829.797	0.677	0	repeat	Run1	repeat/STIM_011.jpg
833.215	0.704	1	repeat	Run1	repeat/STIM_011.jpg
836.063	0.562	1	repeat	Run1	repeat/STIM_012.jpg
840.277	0.896	1	repeat	Run1	repeat/STIM_012.jpg
843.183	0.773	1	repeat	Run1	repeat/STIM_012.jpg
847.726	0.95	1	repeat	Run1	repeat/STIM_012.jpg
852.654	0.906	1	repeat	Run1	repeat/STIM_012.jpg
856.194	0.501	1	repeat	Run1	repeat/STIM_013.jpg
859.795	0.899	1	repeat	Run1	repeat/STIM_013.jpg
864.57	0.532	1	repeat	Run1	repeat/STIM_013.jpg
869.1	0.683	0	repeat	Run1	repeat/STIM_013.jpg
872.617	0.968	1	repeat	Run1	repeat/STIM_013.jpg
877.482	0.594	1	repeat	Run1	repeat/STIM_014.jpg
880.151	0.762	1	repeat	Run1	repeat/STIM_014.jpg
883.412	0.923	1	repeat	Run1	repeat/STIM_014.jpg
886.506	0.854	1	repeat	Run1	repeat/STIM_014.jpg
889.659	0.654	0	repeat	Run1	repeat/STIM_014.jpg
894.18	1.409	1	generate	Run2	generate/STIM_000.jpg
898.221	1.127	1	generate	Run2	generate/STIM_000.jpg
902.944	2.241	1	generate	Run2	generate/STIM_000.jpg
907.489	1.378	1	generate	Run2	generate/STIM_000.jpg
912.368	1.167	1	generate	Run2	generate/STIM_000.jpg
915.554	1.505	1	generate	Run2	generate/STIM_001.jpg
919.368	2.304	1	generate	Run2	generate/STIM_001.jpg
924.403	1.438	0	generate	Run2	generate/STIM_001.jpg
929.491	1.399	1	generate	Run2	generate/STIM_001.jpg
933.703	1.167	1	generate	Run2	generate/STIM_001.jpg
937.575	2.278	1	generate	Run2	generate/STIM_002.jpg
941.953	2.214	1	generate	Run2	generate/STIM_002.jpg
947.987	2.165	1	generate	Run2	generate/STIM_002.jpg
953.649	1.747	1	generate	Run2	generate/STIM_002.jpg
958.514	1.793	0	generate	Run2	generate/STIM_002.jpg
964.127	2.382	1	generate	Run2	generate/STIM_003.jpg
968.822	1.977	1	generate	Run2	generate/STIM_003.jpg
973.098	1.588	1	generate	Run2	generate/STIM_003.jpg
977.145	0.925	0	generate	Run2	generate/STIM_003.jpg
980.36	1.416	0	generate	Run2	generate/STIM_003.jpg
985.207	1.999	1	generate	Run2	generate/STIM_004.jpg
989.966	2.212	1	generate	Run2	generate/STIM_004.jpg
996.158	1.0	1	generate	Run2	generate/STIM_004.jpg
1000.583	1.754	1	generate	Run2	generate/STIM_004.jpg
1004.54	1.514	0	generate	Run2	generate/STIM_004.jpg
1009.895	1.434	1	generate	Run2	generate/STIM_005.jpg
1013.672	1.92	1	generate	Run2	generate/STIM_005.jpg
1019.37	1.921	1	generate	Run2	generate/STIM_005.jpg
1024.634	1.114	1	generate	Run2	generate/STIM_005.jpg
1028.691	1.923	1	generate	Run2	generate/STIM_005.jpg
1032.643	1.891	1	generate	Run2	generate/STIM_006.jpg
1036.969	1.106	1	generate	Run2	generate/STIM_006.jpg
1040.24	0.943	0	generate	Run2	generate/STIM_006.jpg
1043.826	1.397	1	generate	Run2	generate/STIM_006.jpg
1047.548	1.539	1	generate	Run2	generate/STIM_006.jpg
1052.244	1.313	1	generate	Run2	generate/STIM_007.jpg
1057.523	2.311	1	generate	Run2	generate/STIM_007.jpg
1062.233	1.371	1	generate	Run2	generate/STIM_007.jpg
1066.904	0.932	1	generate	Run2	generate/STIM_007.jpg
1071.768	1.329	1	generate	Run2	generate/STIM_007.jpg
1075.951	1.309	1	generate	Run2	generate/STIM_008.jpg
1079.366	1.03	1	generate	Run2	generate/STIM_008.jpg
1083.303	1.21	1	generate	Run2	generate/STIM_008.jpg
1088.479	1.757	1	generate	Run2	generate/STIM_008.jpg
1093.0	2.061	1	generate	Run2	generate/STIM_008.jpg
1098.158	1.614	1	generate	Run2	generate/STIM_009.jpg
1102.723	1.779	0	generate	Run2	generate/STIM_009.jpg
1107.015	1.924	1	generate	Run2	generate/STIM_009.jpg
1112.776	1.18	1	generate	Run2	generate/STIM_009.jpg
1116.94	0.874	1	generate	Run2	generate/STIM_009.jpg
1120.112	2.535	1	generate	Run2	generate/STIM_010.jpg
1125.052	1.566	1	generate	Run2	generate/STIM_010.jpg
1129.148	2.251	0	generate	Run2	generate/STIM_010.jpg
1133.821	1.173	1	generate	Run2	generate/STIM_010.jpg
1137.862	1.874	1	generate	Run2	generate/STIM_010.jpg
1142.887	1.656	0	generate	Run2	generate/STIM_011.jpg
1147.662	1.548	1	generate	Run2	generate/STIM_011.jpg
1152.16	1.04	0	generate	Run2	generate/STIM_011.jpg
1155.357	1.979	1	generate	Run2	generate/STIM_011.jpg
1159.828	1.832	0	generate	Run2	generate/STIM_011.jpg
1165.598	2.236	1	generate	Run2	generate/STIM_012.jpg
1171.226	1.328	0	generate	Run2	generate/STIM_012.jpg
1175.482	1.807	1	generate	Run2	generate/STIM_012.jpg
1181.219	2.04	1	generate	Run2	generate/STIM_012.jpg
1185.549	1.808	0	generate	Run2	generate/STIM_012.jpg
1189.772	2.159	0	generate	Run2	generate/STIM_013.jpg
1194.532	2.264	1	generate	Run2	generate/STIM_013.jpg
1198.931	1.327	1	generate	Run2	generate/STIM_013.jpg
1202.411	1.463	1	generate	Run2	generate/STIM_013.jpg
1206.656	1.394	1	generate	Run2	generate/STIM_013.jpg
1210.222	1.511	1	generate	Run2	generate/STIM_014.jpg
1213.828	2.105	1	generate	Run2	generate/STIM_014.jpg
1219.232	2.222	1	generate	Run2	generate/STIM_014.jpg
1223.681	1.348	1	generate	Run2	generate/STIM_014.jpg
1227.517	1.965	0	generate	Run2	generate/STIM_014.jpg
1231.741	1.596	1	generate	Run2	generate/STIM_015.jpg
1237.103	1.86	1	generate	Run2	generate/STIM_015.jpg
1242.545	1.139	0	generate	Run2	generate/STIM_015.jpg
1246.991	1.777	1	generate	Run2	generate/STIM_015.jpg
1252.272	1.999	1	generate	Run2	generate/STIM_015.jpg
1257.902	1.747	1	generate	Run2	generate/STIM_016.jpg
1263.248	1.234	1	generate	Run2	generate/STIM_016.jpg
1267.846	1.894	1	generate	Run2	generate/STIM_016.jpg
1273.01	1.08	1	generate	Run2	generate/STIM_016.jpg
1277.933	0.921	0	generate	Run2	generate/STIM_016.jpg
1282.316	1.04	1	generate	Run2	generate/STIM_017.jpg
1285.662	1.654	0	generate	Run2	generate/STIM_017.jpg
1289.366	1.011	0	generate	Run2	generate/STIM_017.jpg
1293.528	1.861	1	generate	Run2	generate/STIM_017.jpg
1298.813	1.842	1	generate	Run2	generate/STIM_017.jpg
1304.195	2.353	1	generate	Run2	generate/STIM_018.jpg
1308.687	1.661	1	generate	Run2	generate/STIM_018.jpg
1312.849	2.032	1	generate	Run2	generate/STIM_018.jpg
1318.423	1.642	1	generate	Run2	generate/STIM_018.jpg
1322.851	2.088	1	generate	Run2	generate/STIM_018.jpg
1327.06	2.129	1	generate	Run2	generate/STIM_019.jpg
1331.526	1.662	1	generate	Run2	generate/STIM_019.jpg
1335.373	1.66	1	generate	Run2	generate/STIM_019.jpg
1340.008	1.521	1	generate	Run2	generate/STIM_019.jpg
1344.403	1.389	0	generate	Run2	generate/STIM_019.jpg
1348.751	1.084	1	generate	Run2	generate/STIM_020.jpg
1353.486	1.457	1	generate	Run2	generate/STIM_020.jpg
1357.624	1.767	1	generate	Run2	generate/STIM_020.jpg
1361.717	1.966	1	generate	Run2	generate/STIM_020.jpg
1366.029	1.037	1	generate	Run2	generate/STIM_020.jpg
1369.984	2.407	1	generate	Run2	generate/STIM_021.jpg
1374.986	1.279	1	generate	Run2	generate/STIM_021.jpg
1378.801	1.8	1	generate	Run2	generate/STIM_021.jpg
1383.568	1.233	1	generate	Run2	generate/STIM_021.jpg
1387.688	1.25	1	generate	Run2	generate/STIM_021.jpg
1391.242	1.525	0	generate	Run2	generate/STIM_022.jpg
1396.302	1.828	0	generate	Run2	generate/STIM_022.jpg
1402.117	1.478	1	generate	Run2	generate/STIM_022.jpg
1405.793	1.226	1	generate	Run2	generate/STIM_022.jpg
1409.229	1.832	1	generate	Run2	generate/STIM_022.jpg
1414.15	2.103	1	generate	Run2	generate/STIM_023.jpg
1418.358	2.233	1	generate	Run2	generate/STIM_023.jpg
1423.806	2.135	1	generate	Run2	generate/STIM_023.jpg
1429.303	2.096	1	generate	Run2	generate/STIM_023.jpg
1434.247	0.87	1	generate	Run2	generate/STIM_023.jpg
1438.93	1.591	0	generate	Run2	generate/STIM_024.jpg
1444.158	0.998	1	generate	Run2	generate/STIM_024.jpg
1448.597	1.446	0	generate	Run2	generate/STIM_024.jpg
1453.633	1.083	1	generate	Run2	generate/STIM_024.jpg
1456.771	1.555	1	generate	Run2	generate/STIM_024.jpg
1460.935	0.687	1	repeat	Run2	repeat/STIM_000.jpg
1465.249	0.644	0	repeat	Run2	repeat/STIM_000.jpg
1468.695	0.875	1	repeat	Run2	repeat/STIM_000.jpg
1473.085	0.75	1	repeat	Run2	repeat/STIM_000.jpg
1476.774	0.615	1	repeat	Run2	repeat/STIM_000.jpg
1480.545	0.954	1	repeat	Run2	repeat/STIM_001.jpg
1483.996	0.905	1	repeat	Run2	repeat/STIM_001.jpg
1487.482	0.855	1	repeat	Run2	repeat/STIM_001.jpg
1491.701	0.765	0	repeat	Run2	repeat/STIM_001.jpg
1496.346	0.792	1	repeat	Run2	repeat/STIM_001.jpg
1500.385	0.646	1	repeat	Run2	repeat/STIM_002.jpg
1503.394	0.733	1	repeat	Run2	repeat/STIM_002.jpg
1506.175	0.503	1	repeat	Run2	repeat/STIM_002.jpg
1508.928	0.597	0	repeat	Run2	repeat/STIM_002.jpg
1512.256	0.535	1	repeat	Run2	repeat/STIM_002.jpg
1516.532	0.976	1	repeat	Run2	repeat/STIM_003.jpg
1520.712	0.989	0	repeat	Run2	repeat/STIM_003.jpg
1524.19	0.678	1	repeat	Run2	repeat/STIM_003.jpg
1527.324	0.84	1	repeat	Run2	repeat/STIM_003.jpg
1532.083	0.667	1	repeat	Run2	repeat/STIM_003.jpg
1536.177	0.511	0	repeat	Run2	repeat/STIM_004.jpg
1539.352	0.877	0	repeat	Run2	repeat/STIM_004.jpg
1542.688	0.664	1	repeat	Run2	repeat/STIM_004.jpg
1545.395	0.887	0	repeat	Run2	repeat/STIM_004.jpg
1548.304	0.643	1	repeat	Run2	repeat/STIM_004.jpg
1552.499	0.68	1	repeat	Run2	repeat/STIM_005.jpg
1555.497	0.665	1	repeat	Run2	repeat/STIM_005.jpg
1559.189	0.511	1	repeat	Run2	repeat/STIM_005.jpg
1562.775	0.62	1	repeat	Run2	repeat/STIM_005.jpg
1566.217	0.913	1	repeat	Run2	repeat/STIM_005.jpg
1570.02	0.9	1	repeat	Run2	repeat/STIM_006.jpg
1573.872	0.9	1	repeat	Run2	repeat/STIM_006.jpg
1577.624	0.508	1	repeat	Run2	repeat/STIM_006.jpg
1580.975	0.621	1	repeat	Run2	repeat/STIM_006.jpg
1584.934	0.822	1	repeat	Run2	repeat/STIM_006.jpg
1588.85	0.613	1	repeat	Run2	repeat/STIM_007.jpg
1592.539	0.516	1	repeat	Run2	repeat/STIM_007.jpg
1596.94	0.936	1	repeat	Run2	repeat/STIM_007.jpg
1601.551	0.812	1	repeat	Run2	repeat/STIM_007.jpg
1604.801	0.87	1	repeat	Run2	repeat/STIM_007.jpg
1609.251	0.64	0	repeat	Run2	repeat/STIM_008.jpg
1612.189	0.797	1	repeat	Run2	repeat/STIM_008.jpg
1615.597	0.639	1	repeat	Run2	repeat/STIM_008.jpg
1619.208	0.839	1	repeat	Run2	repeat/STIM_008.jpg
1622.065	0.776	0	repeat	Run2	repeat/STIM_008.jpg
1626.334	0.866	1	repeat	Run2	repeat/STIM_009.jpg
1631.194	0.854	1	repeat	Run2	repeat/STIM_009.jpg
1635.868	0.842	1	repeat	Run2	repeat/STIM_009.jpg
1639.573	0.838	0	repeat	Run2	repeat/STIM_009.jpg
1643.925	0.57	1	repeat	Run2	repeat/STIM_009.jpg
1647.49	0.98	0	repeat	Run2	repeat/STIM_010.jpg
1651.546	0.586	1	repeat	Run2	repeat/STIM_010.jpg
1655.418	0.902	1	repeat	Run2	repeat/STIM_010.jpg
1658.713	0.786	1	repeat	Run2	repeat/STIM_010.jpg
1662.827	0.994	1	repeat	Run2	repeat/STIM_010.jpg
1666.31	0.519	1	repeat	Run2	repeat/STIM_011.jpg
1670.239	0.654	0	repeat	Run2	repeat/STIM_011.jpg
1674.014	0.575	1	repeat	Run2	repeat/STIM_011.jpg
1677.834	0.564	1	repeat	Run2	repeat/STIM_011.jpg
1682.165	0.881	1	repeat	Run2	repeat/STIM_011.jpg
1685.411	0.951	1	repeat	Run2	repeat/STIM_012.jpg
1688.729	0.517	0	repeat	Run2	repeat/STIM_012.jpg
1693.108	0.712	1	repeat	Run2	repeat/STIM_012.jpg
1695.823	0.965	1	repeat	Run2	repeat/STIM_012.jpg
1699.039	0.614	1	repeat	Run2	repeat/STIM_012.jpg
1701.851	0.629	1	repeat	Run2	repeat/STIM_013.jpg
1704.7	0.706	1	repeat	Run2	repeat/STIM_013.jpg
1708.125	0.635	1	repeat	Run2	repeat/STIM_013.jpg
1712.317	0.758	1	repeat	Run2	repeat/STIM_013.jpg
1716.561	0.696	1	repeat	Run2	repeat/STIM_013.jpg
1719.561	0.783	0	repeat	Run2	repeat/STIM_014.jpg
1723.12	0.801	1	repeat	Run2	repeat/STIM_014.jpg
1727.893	0.929	1	repeat	Run2	repeat/STIM_014.jpg
1732.41	0.7	0	repeat	Run2	repeat/STIM_014.jpg
1735.746	0.949	1	repeat	Run2	repeat/STIM_014.jpg
1739.935	1.087	0	generate	Run3	generate/STIM_000.jpg
1743.945	1.604	1	generate	Run3	generate/STIM_000.jpg
1748.179	1.627	1	generate	Run3	generate/STIM_000.jpg
1752.358	1.57	1	generate	Run3	generate/STIM_000.jpg
1757.531	1.344	1	generate	Run3	generate/STIM_000.jpg
1761.889	1.741	1	generate	Run3	generate/STIM_001.jpg
1767.245	1.052	1	generate	Run3	generate/STIM_001.jpg
1771.972	2.022	1	generate	Run3	generate/STIM_001.jpg
1776.655	1.88	1	generate	Run3	generate/STIM_001.jpg
1782.343	1.557	1	generate	Run3	generate/STIM_001.jpg
1787.331	1.897	1	generate	Run3	generate/STIM_002.jpg
1791.691	1.762	0	generate	Run3	generate/STIM_002.jpg
1796.05	1.696	1	generate	Run3	generate/STIM_002.jpg
1801.284	1.461	0	generate	Run3	generate/STIM_002.jpg
1805.625	1.313	1	generate	Run3	generate/STIM_002.jpg
1810.093	1.973	1	generate	Run3	generate/STIM_003.jpg
1814.537	1.707	0	generate	Run3	generate/STIM_003.jpg
1820.201	1.149	1	generate	Run3	generate/STIM_003.jpg
1824.373	1.854	1	generate	Run3	generate/STIM_003.jpg
1828.786	0.973	1	generate	Run3	generate/STIM_003.jpg
1833.698	1.33	1	generate	Run3	generate/STIM_004.jpg
1838.126	1.024	0	generate	Run3	generate/STIM_004.jpg
1842.816	1.839	1	generate	Run3	generate/STIM_004.jpg
1847.91	0.982	1	generate	Run3	generate/STIM_004.jpg
1851.135	1.326	1	generate	Run3	generate/STIM_004.jpg
1855.405	1.153	1	generate	Run3	generate/STIM_005.jpg
1858.637	1.096	1	generate	Run3	generate/STIM_005.jpg
1863.328	0.981	1	generate	Run3	generate/STIM_005.jpg
1867.057	0.857	0	generate	Run3	generate/STIM_005.jpg
1871.04	1.38	1	generate	Run3	generate/STIM_005.jpg
1875.924	1.315	1	generate	Run3	generate/STIM_006.jpg
1880.392	1.686	0	generate	Run3	generate/STIM_006.jpg
1885.542	2.081	1	generate	Run3	generate/STIM_006.jpg
1890.931	0.944	1	generate	Run3	generate/STIM_006.jpg
1894.385	1.667	1	generate	Run3	generate/STIM_006.jpg
1899.95	1.41	1	generate	Run3	generate/STIM_007.jpg
1903.836	2.047	1	generate	Run3	generate/STIM_007.jpg
1909.365	1.257	1	generate	Run3	generate/STIM_007.jpg
1914.575	1.423	1	generate	Run3	generate/STIM_007.jpg
1918.429	1.646	1	generate	Run3	generate/STIM_007.jpg
1923.164	1.904	1	generate	Run3	generate/STIM_008.jpg
1928.478	2.043	1	generate	Run3	generate/STIM_008.jpg
1933.914	1.566	1	generate	Run3	generate/STIM_008.jpg
1938.424	1.649	1	generate	Run3	generate/STIM_008.jpg
1943.639	1.299	1	generate	Run3	generate/STIM_008.jpg
1947.066	1.885	1	generate	Run3	generate/STIM_009.jpg
1951.905	1.825	1	generate	Run3	generate/STIM_009.jpg
1957.075	1.422	1	generate	Run3	generate/STIM_009.jpg
1961.184	1.705	1	generate	Run3	generate/STIM_009.jpg
1966.75	1.782	1	generate	Run3	generate/STIM_009.jpg
1972.124	1.225	1	generate	Run3	generate/STIM_010.jpg
1977.145	1.203	1	generate	Run3	generate/STIM_010.jpg
1981.39	1.209	1	generate	Run3	generate/STIM_010.jpg
1986.335	1.502	1	generate	Run3	generate/STIM_010.jpg
1990.137	1.581	1	generate	Run3	generate/STIM_010.jpg
1994.826	1.556	1	generate	Run3	generate/STIM_011.jpg
1999.352	1.461	0	generate	Run3	generate/STIM_011.jpg
2003.783	1.412	1	generate	Run3	generate/STIM_011.jpg
2008.349	1.646	0	generate	Run3	generate/STIM_011.jpg
2012.365	1.642	1	generate	Run3	generate/STIM_011.jpg
2017.391	1.891	1	generate	Run3	generate/STIM_012.jpg
2021.364	2.031	1	generate	Run3	generate/STIM_012.jpg
2027.361	2.039	1	generate	Run3	generate/STIM_012.jpg
2031.861	1.628	1	generate	Run3	generate/STIM_012.jpg
2037.192	1.624	1	generate	Run3	generate/STIM_012.jpg
2042.027	0.929	0	generate	Run3	generate/STIM_013.jpg
2046.286	1.675	1	generate	Run3	generate/STIM_013.jpg
2050.413	1.081	1	generate	Run3	generate/STIM_013.jpg
2054.318	1.552	1	generate	Run3	generate/STIM_013.jpg
2059.103	1.982	0	generate	Run3	generate/STIM_013.jpg
2065.084	1.534	1	generate	Run3	generate/STIM_014.jpg
2070.559	1.532	1	generate	Run3	generate/STIM_014.jpg
2074.88	1.16	0	generate	Run3	generate/STIM_014.jpg
2078.974	1.196	1	generate	Run3	generate/STIM_014.jpg
2083.006	1.457	1	generate	Run3	generate/STIM_014.jpg
2087.78	1.152	1	generate	Run3	generate/STIM_015.jpg
2091.209	1.463	1	generate	Run3	generate/STIM_015.jpg
2095.833	1.513	1	generate	Run3	generate/STIM_015.jpg
2100.012	1.675	1	generate	Run3	generate/STIM_015.jpg
2104.849	1.6	1	generate	Run3	generate/STIM_015.jpg
2109.566	0.908	1	generate	Run3	generate/STIM_016.jpg
2114.254	1.084	1	generate	Run3	generate/STIM_016.jpg
2119.074	1.008	1	generate	Run3	generate/STIM_016.jpg
2122.163	1.959	1	generate	Run3	generate/STIM_016.jpg
2127.85	1.061	1	generate	Run3	generate/STIM_016.jpg
2132.595	0.87	1	generate	Run3	generate/STIM_017.jpg
2136.981	1.369	0	generate	Run3	generate/STIM_017.jpg
2140.904	2.002	0	generate	Run3	generate/STIM_017.jpg
2145.721	0.914	1	generate	Run3	generate/STIM_017.jpg
2150.072	1.638	1	generate	Run3	generate/STIM_017.jpg
2154.484	1.583	1	generate	Run3	generate/STIM_018.jpg
2158.136	1.349	1	generate	Run3	generate/STIM_018.jpg
2161.575	1.471	1	generate	Run3	generate/STIM_018.jpg
2165.124	1.374	1	generate	Run3	generate/STIM_018.jpg
2168.914	1.695	1	generate	Run3	generate/STIM_018.jpg
2172.902	1.26	1	generate	Run3	generate/STIM_019.jpg
2176.703	2.034	1	generate	Run3	generate/STIM_019.jpg
2181.444	1.322	1	generate	Run3	generate/STIM_019.jpg
2185.786	1.287	1	generate	Run3	generate/STIM_019.jpg
2190.952	1.194	1	generate	Run3	generate/STIM_019.jpg
2195.16	1.35	0	generate	Run3	generate/STIM_020.jpg
2199.742	1.04	1	generate	Run3	generate/STIM_020.jpg
2202.871	0.936	1	generate	Run3	generate/STIM_020.jpg
2206.191	1.574	1	generate	Run3	generate/STIM_020.jpg
2210.835	1.037	1	generate	Run3	generate/STIM_020.jpg
2215.433	1.675	1	generate	Run3	generate/STIM_021.jpg
2220.613	1.65	1	generate	Run3	generate/STIM_021.jpg
2225.621	1.028	1	generate	Run3	generate/STIM_021.jpg
2229.799	1.27	1	generate	Run3	generate/STIM_021.jpg
2233.556	1.483	0	generate	Run3	generate/STIM_021.jpg
2237.249	1.986	1	generate	Run3	generate/STIM_022.jpg
2242.007	0.995	1	generate	Run3	generate/STIM_022.jpg
2245.222	1.589	1	generate	Run3	generate/STIM_022.jpg
2248.99	1.184	1	generate	Run3	generate/STIM_022.jpg
2253.478	1.012	1	generate	Run3	generate/STIM_022.jpg
2257.882	1.868	0	generate	Run3	generate/STIM_023.jpg
2262.234	1.198	1	generate	Run3	generate/STIM_023.jpg
2265.533	1.91	1	generate	Run3	generate/STIM_023.jpg
2271.346	2.0	1	generate	Run3	generate/STIM_023.jpg
2276.823	1.641	1	generate	Run3	generate/STIM_023.jpg
2280.918	1.601	0	generate	Run3	generate/STIM_024.jpg
2285.547	1.745	1	generate	Run3	generate/STIM_024.jpg
2290.827	1.374	0	generate	Run3	generate/STIM_024.jpg
2295.726	1.036	1	generate	Run3	generate/STIM_024.jpg
2300.209	0.948	1	generate	Run3	generate/STIM_024.jpg
2303.209	0.556	1	repeat	Run3	repeat/STIM_000.jpg
2305.907	0.915	1	repeat	Run3	repeat/STIM_000.jpg
2310.422	0.535	1	repeat	Run3	repeat/STIM_000.jpg
2314.815	0.931	0	repeat	Run3	repeat/STIM_000.jpg
2318.461	0.901	1	repeat	Run3	repeat/STIM_000.jpg
2322.695	0.515	1	repeat	Run3	repeat/STIM_001.jpg
2325.391	0.855	1	repeat	Run3	repeat/STIM_001.jpg
2328.259	0.821	1	repeat	Run3	repeat/STIM_001.jpg
2332.399	0.536	1	repeat	Run3	repeat/STIM_001.jpg
2335.566	0.968	1	repeat	Run3	repeat/STIM_001.jpg
2340.208	0.66	1	repeat	Run3	repeat/STIM_002.jpg
2344.037	0.757	0	repeat	Run3	repeat/STIM_002.jpg
2347.127	0.828	0	repeat	Run3	repeat/STIM_002.jpg
2349.993	0.723	1	repeat	Run3	repeat/STIM_002.jpg
2353.775	0.797	1	repeat	Run3	repeat/STIM_002.jpg
2357.167	0.579	1	repeat	Run3	repeat/STIM_003.jpg
2361.681	0.619	1	repeat	Run3	repeat/STIM_003.jpg
2365.207	0.855	1	repeat	Run3	repeat/STIM_003.jpg
2369.506	0.523	1	repeat	Run3	repeat/STIM_003.jpg
2373.087	0.552	0	repeat	Run3	repeat/STIM_003.jpg
2377.151	0.643	0	repeat	Run3	repeat/STIM_004.jpg
2380.885	0.675	1	repeat	Run3	repeat/STIM_004.jpg
2385.096	0.756	1	repeat	Run3	repeat/STIM_004.jpg
2388.077	0.714	1	repeat	Run3	repeat/STIM_004.jpg
2391.352	0.984	1	repeat	Run3	repeat/STIM_004.jpg
2394.624	0.552	1	repeat	Run3	repeat/STIM_005.jpg
2398.469	0.507	1	repeat	Run3	repeat/STIM_005.jpg
2402.601	0.692	0	repeat	Run3	repeat/STIM_005.jpg
2406.383	0.544	1	repeat	Run3	repeat/STIM_005.jpg
2409.805	0.713	0	repeat	Run3	repeat/STIM_005.jpg
2414.09	0.612	1	repeat	Run3	repeat/STIM_006.jpg
2417.478	0.993	1	repeat	Run3	repeat/STIM_006.jpg
2421.218	0.727	1	repeat	Run3	repeat/STIM_006.jpg
2425.572	0.508	1	repeat	Run3	repeat/STIM_006.jpg
2428.986	0.651	1	repeat	Run3	repeat/STIM_006.jpg
2432.182	0.696	1	repeat	Run3	repeat/STIM_007.jpg
2435.976	0.58	0	repeat	Run3	repeat/STIM_007.jpg
2438.579	0.528	1	repeat	Run3	repeat/STIM_007.jpg
2441.133	0.685	1	repeat	Run3	repeat/STIM_007.jpg
2445.065	0.901	0	repeat	Run3	repeat/STIM_007.jpg
2449.718	0.542	1	repeat	Run3	repeat/STIM_008.jpg
2454.058	0.702	1	repeat	Run3	repeat/STIM_008.jpg
2456.818	0.866	1	repeat	Run3	repeat/STIM_008.jpg
2460.96	0.763	1	repeat	Run3	repeat/STIM_008.jpg
2465.379	0.89	1	repeat	Run3	repeat/STIM_008.jpg
2469.193	0.948	1	repeat	Run3	repeat/STIM_009.jpg
2473.227	0.827	0	repeat	Run3	repeat/STIM_009.jpg
2476.224	0.936	1	repeat	Run3	repeat/STIM_009.jpg
2479.655	0.892	1	repeat	Run3	repeat/STIM_009.jpg
2484.51	0.94	1	repeat	Run3	repeat/STIM_009.jpg
2488.271	0.679	1	repeat	Run3	repeat/STIM_010.jpg
2491.64	0.702	1	repeat	Run3	repeat/STIM_010.jpg
2495.128	0.589	1	repeat	Run3	repeat/STIM_010.jpg
2498.607	0.995	1	repeat	Run3	repeat/STIM_010.jpg
2502.713	0.722	1	repeat	Run3	repeat/STIM_010.jpg
2506.568	0.692	1	repeat	Run3	repeat/STIM_011.jpg
2510.545	0.871	1	repeat	Run3	repeat/STIM_011.jpg
2513.56	0.505	1	repeat	Run3	repeat/STIM_011.jpg
2516.49	0.587	0	repeat	Run3	repeat/STIM_011.jpg
2520.946	0.937	1	repeat	Run3	repeat/STIM_011.jpg
2525.079	0.845	1	repeat	Run3	repeat/STIM_012.jpg
2529.13	0.681	1	repeat	Run3	repeat/STIM_012.jpg
2532.73	0.937	1	repeat	Run3	repeat/STIM_012.jpg
2536.526	0.972	1	repeat	Run3	repeat/STIM_012.jpg
2541.159	0.824	1	repeat	Run3	repeat/STIM_012.jpg
2545.439	0.823	1	repeat	Run3	repeat/STIM_013.jpg
2550.051	0.672	1	repeat	Run3	repeat/STIM_013.jpg
2552.847	0.992	1	repeat	Run3	repeat/STIM_013.jpg
2555.848	0.896	1	repeat	Run3	repeat/STIM_013.jpg
2559.099	0.782	1	repeat	Run3	repeat/STIM_013.jpg
2562.135	0.652	1	repeat	Run3	repeat/STIM_014.jpg
2566.625	0.647	1	repeat	Run3	repeat/STIM_014.jpg
2571.235	0.881	1	repeat	Run3	repeat/STIM_014.jpg
2574.806	0.728	1	repeat	Run3	repeat/STIM_014.jpg
2577.78	0.762	0	repeat	Run3	repeat/STIM_014.jpg
2580.601	1.598	0	generate	Run4	generate/STIM_000.jpg
2585.803	1.228	1	generate	Run4	generate/STIM_000.jpg
2589.619	1.011	1	generate	Run4	generate/STIM_000.jpg
2594.449	1.616	1	generate	Run4	generate/STIM_000.jpg
2599.152	1.918	1	generate	Run4	generate/STIM_000.jpg
2604.192	2.096	0	generate	Run4	generate/STIM_001.jpg
2609.471	1.906	1	generate	Run4	generate/STIM_001.jpg
2614.369	1.119	1	generate	Run4	generate/STIM_001.jpg
2617.706	1.409	1	generate	Run4	generate/STIM_001.jpg
2622.582	1.469	1	generate	Run4	generate/STIM_001.jpg
2627.058	1.81	0	generate	Run4	generate/STIM_002.jpg
2631.779	0.958	0	generate	Run4	generate/STIM_002.jpg
2634.951	0.973	1	generate	Run4	generate/STIM_002.jpg
2639.674	1.216	1	generate	Run4	generate/STIM_002.jpg
2643.992	1.291	1	generate	Run4	generate/STIM_002.jpg
2648.028	1.412	1	generate	Run4	generate/STIM_003.jpg
2651.765	1.266	1	generate	Run4	generate/STIM_003.jpg
2656.289	1.683	1	generate	Run4	generate/STIM_003.jpg
2661.913	0.967	1	generate	Run4	generate/STIM_003.jpg
2666.556	1.434	0	generate	Run4	generate/STIM_003.jpg
2670.779	0.898	1	generate	Run4	generate/STIM_004.jpg
2674.27	1.713	0	generate	Run4	generate/STIM_004.jpg
2678.559	0.923	1	generate	Run4	generate/STIM_004.jpg
2682.699	1.21	1	generate	Run4	generate/STIM_004.jpg
2687.082	1.067	1	generate	Run4	generate/STIM_004.jpg
2691.03	0.876	0	generate	Run4	generate/STIM_005.jpg
2695.183	1.63	1	generate	Run4	generate/STIM_005.jpg
2700.229	1.868	1	generate	Run4	generate/STIM_005.jpg
2704.199	1.802	1	generate	Run4	generate/STIM_005.jpg
2709.621	1.643	1	generate	Run4	generate/STIM_005.jpg
2714.116	1.691	1	generate	Run4	generate/STIM_006.jpg
2717.938	1.964	1	generate	Run4	generate/STIM_006.jpg
2722.092	0.933	1	generate	Run4	generate/STIM_006.jpg
2726.872	1.516	1	generate	Run4	generate/STIM_006.jpg
2731.83	2.07	1	generate	Run4	generate/STIM_006.jpg
2737.619	1.778	1	generate	Run4	generate/STIM_007.jpg
2743.274	1.702	1	generate	Run4	generate/STIM_007.jpg
2748.706	1.633	1	generate	Run4	generate/STIM_007.jpg
2753.106	1.31	1	generate	Run4	generate/STIM_007.jpg
2756.476	1.349	1	generate	Run4	generate/STIM_007.jpg
2760.963	1.149	0	generate	Run4	generate/STIM_008.jpg
2764.68	0.949	1	generate	Run4	generate/STIM_008.jpg
2769.286	1.0	1	generate	Run4	generate/STIM_008.jpg
2773.782	1.745	1	generate	Run4	generate/STIM_008.jpg
2777.937	1.909	1	generate	Run4	generate/STIM_008.jpg
2783.317	1.039	1	generate	Run4	generate/STIM_009.jpg
2787.916	1.743	1	generate	Run4	generate/STIM_009.jpg
2792.492	1.209	1	generate	Run4	generate/STIM_009.jpg
2797.673	1.365	1	generate	Run4	generate/STIM_009.jpg
2801.604	1.194	1	generate	Run4	generate/STIM_009.jpg
2806.161	1.005	1	generate	Run4	generate/STIM_010.jpg
2810.393	1.86	1	generate	Run4	generate/STIM_010.jpg
2814.615	2.082	1	generate	Run4	generate/STIM_010.jpg
2819.764	2.067	1	generate	Run4	generate/STIM_010.jpg
2825.161	1.06	1	generate	Run4	generate/STIM_010.jpg
2829.089	1.029	1	generate	Run4	generate/STIM_011.jpg
2833.875	1.227	1	generate	Run4	generate/STIM_011.jpg
2837.328	1.16	1	generate	Run4	generate/STIM_011.jpg
2840.803	1.315	1	generate	Run4	generate/STIM_011.jpg
2844.358	1.304	1	generate	Run4	generate/STIM_011.jpg
2848.742	1.572	1	generate	Run4	generate/STIM_012.jpg
2854.171	1.43	1	generate	Run4	generate/STIM_012.jpg
2859.13	2.03	1	generate	Run4	generate/STIM_012.jpg
2863.239	1.956	1	generate	Run4	generate/STIM_012.jpg
2868.989	1.551	1	generate	Run4	generate/STIM_012.jpg
2872.653	1.478	1	generate	Run4	generate/STIM_013.jpg
2876.352	1.73	0	generate	Run4	generate/STIM_013.jpg
2882.065	1.023	1	generate	Run4	generate/STIM_013.jpg
2886.577	1.982	1	generate	Run4	generate/STIM_013.jpg
2890.648	1.267	1	generate	Run4	generate/STIM_013.jpg
2895.683	1.246	1	generate	Run4	generate/STIM_014.jpg
2900.847	1.011	1	generate	Run4	generate/STIM_014.jpg
2904.296	0.984	1	generate	Run4	generate/STIM_014.jpg
2908.573	0.858	1	generate	Run4	generate/STIM_014.jpg
2912.867	1.916	1	generate	Run4	generate/STIM_014.jpg
2917.366	2.053	0	generate	Run4	generate/STIM_015.jpg
2923.217	0.874	1	generate	Run4	generate/STIM_015.jpg
2927.916	1.135	0	generate	Run4	generate/STIM_015.jpg
2932.018	2.075	1	generate	Run4	generate/STIM_015.jpg
2937.71	1.955	1	generate	Run4	generate/STIM_015.jpg
2942.728	1.786	1	generate	Run4	generate/STIM_016.jpg
2947.504	1.467	1	generate	Run4	generate/STIM_016.jpg
2951.393	1.544	1	generate	Run4	generate/STIM_016.jpg
2955.096	1.58	1	generate	Run4	generate/STIM_016.jpg
2960.566	1.292	1	generate	Run4	generate/STIM_016.jpg
2964.05	2.05	1	generate	Run4	generate/STIM_017.jpg
2969.339	1.118	1	generate	Run4	generate/STIM_017.jpg
2973.3	1.253	1	generate	Run4	generate/STIM_017.jpg
2977.325	1.167	1	generate	Run4	generate/STIM_017.jpg
2981.729	2.069	1	generate	Run4	generate/STIM_017.jpg
2986.472	2.046	1	generate	Run4	generate/STIM_018.jpg
2991.146	1.347	1	generate	Run4	generate/STIM_018.jpg
2994.711	1.372	1	generate	Run4	generate/STIM_018.jpg
2998.434	1.615	1	generate	Run4	generate/STIM_018.jpg
3002.125	1.252	1	generate	Run4	generate/STIM_018.jpg
3006.994	1.79	0	generate	Run4	generate/STIM_019.jpg
3011.827	1.653	1	generate	Run4	generate/STIM_019.jpg
3016.234	0.953	1	generate	Run4	generate/STIM_019.jpg
3019.852	1.613	1	generate	Run4	generate/STIM_019.jpg
3024.474	1.97	1	generate	Run4	generate/STIM_019.jpg
3029.191	0.862	1	generate	Run4	generate/STIM_020.jpg
3034.043	1.867	1	generate	Run4	generate/STIM_020.jpg
3038.92	0.96	1	generate	Run4	generate/STIM_020.jpg
3043.014	1.272	1	generate	Run4	generate/STIM_020.jpg
3046.991	1.766	1	generate	Run4	generate/STIM_020.jpg
3051.092	1.619	0	generate	Run4	generate/STIM_021.jpg
3054.723	1.772	1	generate	Run4	generate/STIM_021.jpg
3059.939	1.82	1	generate	Run4	generate/STIM_021.jpg
3064.723	1.685	1	generate	Run4	generate/STIM_021.jpg
3068.898	2.006	1	generate	Run4	generate/STIM_021.jpg
3074.784	0.875	1	generate	Run4	generate/STIM_022.jpg
3078.887	1.416	1	generate	Run4	generate/STIM_022.jpg
3083.744	1.861	1	generate	Run4	generate/STIM_022.jpg
3088.075	1.373	1	generate	Run4	generate/STIM_022.jpg
3092.9	1.112	1	generate	Run4	generate/STIM_022.jpg
3096.897	2.052	1	generate	Run4	generate/STIM_023.jpg
3102.752	1.803	1	generate	Run4	generate/STIM_023.jpg
3107.466	1.156	1	generate	Run4	generate/STIM_023.jpg
3110.956	1.186	1	generate	Run4	generate/STIM_023.jpg
3115.951	1.258	1	generate	Run4	generate/STIM_023.jpg
3120.113	1.504	1	generate	Run4	generate/STIM_024.jpg
3125.134	1.065	1	generate	Run4	generate/STIM_024.jpg
3128.379	1.786	1	generate	Run4	generate/STIM_024.jpg
3132.197	0.949	1	generate	Run4	generate/STIM_024.jpg
3136.251	2.099	1	generate	Run4	generate/STIM_024.jpg
3141.669	0.911	1	repeat	Run4	repeat/STIM_000.jpg
3145.175	0.774	0	repeat	Run4	repeat/STIM_000.jpg
3149.58	0.555	1	repeat	Run4	repeat/STIM_000.jpg
3152.452	0.744	1	repeat	Run4	repeat/STIM_000.jpg
3156.731	0.971	1	repeat	Run4	repeat/STIM_000.jpg
3160.66	0.749	1	repeat	Run4	repeat/STIM_001.jpg
3163.467	0.96	0	repeat	Run4	repeat/STIM_001.jpg
3167.648	0.634	1	repeat	Run4	repeat/STIM_001.jpg
3171.971	0.625	1	repeat	Run4	repeat/STIM_001.jpg
3175.197	0.862	1	repeat	Run4	repeat/STIM_001.jpg
3178.67	0.727	1	repeat	Run4	repeat/STIM_002.jpg
3181.918	0.814	1	repeat	Run4	repeat/STIM_002.jpg
3186.632	0.888	1	repeat	Run4	repeat/STIM_002.jpg
3191.16	0.572	1	repeat	Run4	repeat/STIM_002.jpg
3194.643	0.78	1	repeat	Run4	repeat/STIM_002.jpg
3197.501	0.71	1	repeat	Run4	repeat/STIM_003.jpg
3201.401	0.619	1	repeat	Run4	repeat/STIM_003.jpg
3205.893	0.527	1	repeat	Run4	repeat/STIM_003.jpg
3209.681	0.981	1	repeat	Run4	repeat/STIM_003.jpg
3212.732	0.963	0	repeat	Run4	repeat/STIM_003.jpg
3217.692	0.553	1	repeat	Run4	repeat/STIM_004.jpg
3221.306	0.784	1	repeat	Run4	repeat/STIM_004.jpg
3225.055	0.739	1	repeat	Run4	repeat/STIM_004.jpg
3228.23	0.688	0	repeat	Run4	repeat/STIM_004.jpg
3232.858	0.544	0	repeat	Run4	repeat/STIM_004.jpg
3235.473	0.957	1	repeat	Run4	repeat/STIM_005.jpg
3239.347	0.511	0	repeat	Run4	repeat/STIM_005.jpg
3243.25	0.517	1	repeat	Run4	repeat/STIM_005.jpg
3246.689	0.887	1	repeat	Run4	repeat/STIM_005.jpg
3251.222	0.773	1	repeat	Run4	repeat/STIM_005.jpg
3254.122	0.963	0	repeat	Run4	repeat/STIM_006.jpg
3258.173	0.863	1	repeat	Run4	repeat/STIM_006.jpg
3261.228	0.911	1	repeat	Run4	repeat/STIM_006.jpg
3265.202	0.523	1	repeat	Run4	repeat/STIM_006.jpg
3268.734	0.923	1	repeat	Run4	repeat/STIM_006.jpg
3273.611	0.888	1	repeat	Run4	repeat/STIM_007.jpg
3277.814	0.859	1	repeat	Run4	repeat/STIM_007.jpg
3282.645	0.765	1	repeat	Run4	repeat/STIM_007.jpg
3286.015	0.963	1	repeat	Run4	repeat/STIM_007.jpg
3289.365	0.9	1	repeat	Run4	repeat/STIM_007.jpg
3293.442	0.823	1	repeat	Run4	repeat/STIM_008.jpg
3298.149	0.902	1	repeat	Run4	repeat/STIM_008.jpg
3301.239	0.55	1	repeat	Run4	repeat/STIM_008.jpg
3304.389	0.588	1	repeat	Run4	repeat/STIM_008.jpg
3307.888	0.559	1	repeat	Run4	repeat/STIM_008.jpg
3312.0	0.984	1	repeat	Run4	repeat/STIM_009.jpg
3316.358	0.509	0	repeat	Run4	repeat/STIM_009.jpg
3319.802	0.686	1	repeat	Run4	repeat/STIM_009.jpg
3323.574	0.654	1	repeat	Run4	repeat/STIM_009.jpg
3326.843	0.925	1	repeat	Run4	repeat/STIM_009.jpg
3329.872	0.605	1	repeat	Run4	repeat/STIM_010.jpg
3334.0	0.827	1	repeat	Run4	repeat/STIM_010.jpg
3337.037	0.639	1	repeat	Run4	repeat/STIM_010.jpg
3341.272	0.652	1	repeat	Run4	repeat/STIM_010.jpg
3344.368	0.728	0	repeat	Run4	repeat/STIM_010.jpg
3348.358	0.874	1	repeat	Run4	repeat/STIM_011.jpg
3353.092	0.732	1	repeat	Run4	repeat/STIM_011.jpg
3357.19	0.688	1	repeat	Run4	repeat/STIM_011.jpg
3360.973	0.984	0	repeat	Run4	repeat/STIM_011.jpg
3364.075	0.799	1	repeat	Run4	repeat/STIM_011.jpg
3368.078	0.723	1	repeat	Run4	repeat/STIM_012.jpg
3372.649	0.583	1	repeat	Run4	repeat/STIM_012.jpg
3375.495	0.695	0	repeat	Run4	repeat/STIM_012.jpg
3378.362	0.576	1	repeat	Run4	repeat/STIM_012.jpg
3381.878	0.75	1	repeat	Run4	repeat/STIM_012.jpg
3386.527	0.924	1	repeat	Run4	repeat/STIM_013.jpg
3390.311	0.934	1	repeat	Run4	repeat/STIM_013.jpg
3393.289	0.735	0	repeat	Run4	repeat/STIM_013.jpg
3397.437	0.638	1	repeat	Run4	repeat/STIM_013.jpg
3401.713	0.613	1	repeat	Run4	repeat/STIM_013.jpg
3404.705	0.77	0	repeat	Run4	repeat/STIM_014.jpg
3408.359	0.938	1	repeat	Run4	repeat/STIM_014.jpg
3412.743	0.931	1	repeat	Run4	repeat/STIM_014.jpg
3416.272	0.771	1	repeat	Run4	repeat/STIM_014.jpg
3420.094	0.608	1	repeat	Run4	repeat/STIM_014.jpg
